answered,blockNum,choice,condition,corResp,correct,correct_response,explo,fb,internal_node_id,isStable_1,isStable_2,isStable_3,key_press,newBlock,part,persev,persevResp,rt,sessNum,stableAS,stimulus,subject,task,time_elapsed,training,trap,trial_index,trial_type,trialsInBlock
true,1,0,0,0,true,q,false,true,0.0-2.0-0.0-0.0-3.0,0,0,0,81,true,stim,false,-1,606.6999999992549,1,0,0,70539,task3,119603,false,false,97,image-keyboard-response,1
true,1,1,0,1,true,z,false,true,0.0-2.0-0.0-0.1-3.1,0,0,0,90,false,stim,false,-1,441.0,1,0,2,70539,task3,121555,false,false,100,image-keyboard-response,2
true,1,0,0,0,true,q,false,false,0.0-2.0-0.0-0.2-3.2,0,0,0,81,false,stim,false,-1,475.40000000037253,1,0,0,70539,task3,123539,false,true,103,image-keyboard-response,3
true,1,0,0,0,true,q,false,false,0.0-2.0-0.0-0.3-3.3,0,0,0,81,false,stim,false,-1,553.5999999996275,1,0,0,70539,task3,125604,false,true,106,image-keyboard-response,4
true,1,1,0,0,false,q,true,false,0.0-2.0-0.0-0.4-3.4,0,0,0,90,false,stim,false,-1,756.5999999996275,1,0,1,70539,task3,127868,false,false,109,image-keyboard-response,5
true,1,1,0,1,true,z,false,true,0.0-2.0-0.0-0.5-3.5,0,0,0,90,false,stim,false,-1,580.1999999992549,1,0,2,70539,task3,129956,false,false,112,image-keyboard-response,6
true,1,2,0,0,false,q,true,false,0.0-2.0-0.0-0.6-3.6,0,0,0,68,false,stim,false,-1,512.8999999985099,1,0,1,70539,task3,131980,false,false,115,image-keyboard-response,7
true,1,0,0,0,true,q,false,true,0.0-2.0-0.0-0.7-3.7,0,0,0,81,false,stim,false,-1,444.69999999925494,1,0,1,70539,task3,133940,false,false,118,image-keyboard-response,8
true,1,1,0,1,true,z,false,true,0.0-2.0-0.0-0.8-3.8,0,0,0,90,false,stim,false,-1,517.2999999988824,1,0,2,70539,task3,135964,false,false,121,image-keyboard-response,9
true,1,2,0,0,false,q,true,false,0.0-2.0-0.1-0.9-3.9,0,0,0,68,false,stim,false,-1,612.2999999988824,1,0,0,70539,task3,138084,false,false,124,image-keyboard-response,10
true,1,1,0,1,true,z,false,true,0.0-2.0-0.1-0.10-3.10,0,0,0,90,false,stim,false,-1,543.0999999996275,1,0,2,70539,task3,140133,false,false,127,image-keyboard-response,11
true,1,1,0,1,true,z,false,true,0.0-2.0-0.1-0.11-3.11,0,0,0,90,false,stim,false,-1,436.2999999988824,1,0,2,70539,task3,142076,false,false,130,image-keyboard-response,12
true,1,0,0,0,true,q,false,true,0.0-2.0-0.1-0.12-3.12,0,0,0,81,false,stim,false,-1,874.0,1,0,0,70539,task3,144460,false,false,133,image-keyboard-response,13
true,1,0,0,0,true,q,false,true,0.0-2.0-0.1-0.13-3.13,0,0,0,81,false,stim,false,-1,579.5,1,0,1,70539,task3,146548,false,false,136,image-keyboard-response,14
true,1,0,0,0,true,q,false,true,0.0-2.0-0.1-0.14-3.14,0,0,0,81,false,stim,false,-1,415.2999999988824,1,0,1,70539,task3,148476,false,false,139,image-keyboard-response,15
true,1,0,0,0,true,q,false,true,0.0-2.0-0.1-0.15-3.15,0,0,0,81,false,stim,false,-1,354.30000000074506,1,0,1,70539,task3,150341,false,false,142,image-keyboard-response,16
true,1,1,0,1,true,z,false,true,0.0-2.0-0.1-0.16-3.16,0,0,0,90,false,stim,false,-1,438.0,1,0,2,70539,task3,152284,false,false,145,image-keyboard-response,17
true,1,0,0,0,true,q,false,false,0.0-2.0-0.1-0.17-3.17,0,0,0,81,false,stim,false,-1,457.90000000037253,1,0,0,70539,task3,154252,false,true,148,image-keyboard-response,18
true,1,1,0,1,true,z,false,true,0.0-2.0-0.2-0.18-3.18,0,0,0,90,false,stim,false,-1,438.40000000037253,1,0,2,70539,task3,156197,false,false,151,image-keyboard-response,19
true,1,1,0,0,false,q,true,false,0.0-2.0-0.2-0.19-3.19,0,0,0,90,false,stim,false,-1,461.19999999925494,1,0,1,70539,task3,158165,false,false,154,image-keyboard-response,20
true,1,0,0,0,true,q,false,true,0.0-2.0-0.2-0.20-3.20,0,0,0,81,false,stim,false,-1,493.90000000037253,1,1,0,70539,task3,160165,false,false,157,image-keyboard-response,21
true,1,0,0,0,true,q,false,true,0.0-2.0-0.2-0.21-3.21,0,0,0,81,false,stim,false,-1,378.40000000037253,1,0,1,70539,task3,162053,false,false,160,image-keyboard-response,22
true,1,1,0,1,true,z,false,true,0.0-2.0-0.2-0.22-3.22,0,0,0,90,false,stim,false,-1,381.09999999962747,1,0,2,70539,task3,163941,false,false,163,image-keyboard-response,23
true,2,1,1,2,false,d,false,false,0.0-2.0-0.2-0.23-3.23,1,0,0,90,true,stim,true,1,657.7999999988824,1,0,2,70539,task3,166109,false,false,166,image-keyboard-response,1
true,2,0,1,0,true,q,false,true,0.0-2.0-0.2-0.24-3.24,1,0,0,81,false,stim,false,0,449.19999999925494,1,1,0,70539,task3,168069,false,false,169,image-keyboard-response,2
true,2,0,1,1,false,z,false,false,0.0-2.0-0.2-0.25-3.25,1,0,0,81,false,stim,true,0,534.5999999996275,1,0,1,70539,task3,170109,false,false,172,image-keyboard-response,3
true,2,0,1,0,true,q,false,true,0.0-2.0-0.2-0.26-3.26,1,0,0,81,false,stim,false,0,502.5,1,1,0,70539,task3,172118,false,false,175,image-keyboard-response,4
true,2,0,1,1,false,z,false,false,0.0-2.0-0.3-0.27-3.27,1,0,0,81,false,stim,true,0,448.59999999962747,1,0,1,70539,task3,174077,false,false,178,image-keyboard-response,5
true,2,0,1,0,true,q,false,true,0.0-2.0-0.3-0.28-3.28,1,0,0,81,false,stim,false,0,545.3000000007451,1,1,0,70539,task3,176133,false,false,181,image-keyboard-response,6
true,2,0,1,0,true,q,false,true,0.0-2.0-0.3-0.29-3.29,1,0,0,81,false,stim,false,0,503.69999999925494,1,1,0,70539,task3,178149,false,false,184,image-keyboard-response,7
true,2,1,1,2,false,d,false,false,0.0-2.0-0.3-0.30-3.30,1,0,0,90,false,stim,true,1,531.5,1,0,2,70539,task3,180189,false,false,187,image-keyboard-response,8
true,2,0,1,0,true,q,false,true,0.0-2.0-0.3-0.31-3.31,1,0,0,81,false,stim,false,0,571.0,1,1,0,70539,task3,182270,false,false,190,image-keyboard-response,9
true,2,2,1,2,true,d,false,false,0.0-2.0-0.3-0.32-3.32,1,0,0,68,false,stim,false,1,655.2999999988824,1,0,2,70539,task3,184436,false,true,193,image-keyboard-response,10
true,2,2,1,1,false,z,true,false,0.0-2.0-0.3-0.33-3.33,1,0,0,68,false,stim,false,0,1002.7999999988824,1,0,1,70539,task3,186950,false,false,196,image-keyboard-response,11
true,2,1,1,1,true,z,false,true,0.0-2.0-0.3-0.34-3.34,1,0,0,90,false,stim,false,0,608.4000000003725,1,0,1,70539,task3,189069,false,false,199,image-keyboard-response,12
true,2,0,1,2,false,d,true,false,0.0-2.0-0.3-0.35-3.35,1,0,0,81,false,stim,false,1,617.2999999988824,1,0,2,70539,task3,191198,false,false,202,image-keyboard-response,13
true,2,1,1,1,true,z,false,true,0.0-2.0-0.4-0.36-3.36,1,0,0,90,false,stim,false,0,642.6999999992549,1,0,1,70539,task3,193351,false,false,205,image-keyboard-response,14
true,2,2,1,2,true,d,false,true,0.0-2.0-0.4-0.37-3.37,1,0,0,68,false,stim,false,1,500.19999999925494,1,0,2,70539,task3,195358,false,false,208,image-keyboard-response,15
true,2,0,1,0,true,q,false,true,0.0-2.0-0.4-0.38-3.38,1,0,0,81,false,stim,false,0,593.6999999992549,1,1,0,70539,task3,197462,false,false,211,image-keyboard-response,16
true,2,0,1,0,true,q,false,true,0.0-2.0-0.4-0.39-3.39,1,0,0,81,false,stim,false,0,497.30000000074506,1,1,0,70539,task3,199470,false,false,214,image-keyboard-response,17
true,2,2,1,2,true,d,false,true,0.0-2.0-0.4-0.40-3.40,1,0,0,68,false,stim,false,1,490.80000000074506,1,0,2,70539,task3,201470,false,false,217,image-keyboard-response,18
true,2,2,1,2,true,d,false,true,0.0-2.0-0.4-0.41-3.41,1,0,0,68,false,stim,false,1,450.40000000037253,1,1,2,70539,task3,203431,false,false,220,image-keyboard-response,19
true,2,1,1,1,true,z,false,true,0.0-2.0-0.4-0.42-3.42,1,0,0,90,false,stim,false,0,574.0,1,0,1,70539,task3,205518,false,false,223,image-keyboard-response,20
true,2,0,1,0,true,q,false,true,0.0-2.0-0.4-0.43-3.43,1,0,0,81,false,stim,false,0,464.09999999962747,1,1,0,70539,task3,207494,false,false,226,image-keyboard-response,21
true,2,1,1,1,true,z,false,true,0.0-2.0-0.4-0.44-3.44,1,0,0,90,false,stim,false,0,513.2999999988824,1,0,1,70539,task3,209518,false,false,229,image-keyboard-response,22
true,2,1,1,1,true,z,false,true,0.0-2.0-0.5-0.45-3.45,1,0,0,90,false,stim,false,0,457.3999999985099,1,0,1,70539,task3,211486,false,false,232,image-keyboard-response,23
true,3,0,2,0,true,q,false,true,0.0-2.0-0.5-0.46-3.46,1,0,1,81,true,stim,false,0,569.8000000007451,1,1,0,70539,task3,213567,false,false,235,image-keyboard-response,1
true,3,2,2,2,true,d,false,true,0.0-2.0-0.5-0.47-3.47,1,0,1,68,false,stim,false,2,520.9000000003725,1,1,2,70539,task3,215599,false,false,238,image-keyboard-response,2
true,3,1,2,0,false,q,false,false,0.0-2.0-0.5-0.48-3.48,1,0,1,90,false,stim,true,1,627.0,1,0,1,70539,task3,217735,false,false,241,image-keyboard-response,3
true,3,2,2,2,true,d,false,true,0.0-2.0-0.5-0.49-3.49,1,0,1,68,false,stim,false,2,513.5,1,1,2,70539,task3,219759,false,false,244,image-keyboard-response,4
true,3,0,2,0,true,q,false,true,0.0-2.0-0.5-0.50-3.50,1,0,1,81,false,stim,false,0,530.5999999996275,1,1,0,70539,task3,221799,false,false,247,image-keyboard-response,5
true,3,1,2,0,false,q,false,false,0.0-2.0-0.5-0.51-3.51,1,0,1,90,false,stim,true,1,462.2000000011176,1,0,1,70539,task3,223768,false,false,250,image-keyboard-response,6
true,3,2,2,2,true,d,false,true,0.0-2.0-0.5-0.52-3.52,1,0,1,68,false,stim,false,2,432.8999999985099,1,1,2,70539,task3,225711,false,false,253,image-keyboard-response,7
true,3,0,2,0,true,q,false,true,0.0-2.0-0.5-0.53-3.53,1,0,1,81,false,stim,false,0,519.5999999996275,1,0,0,70539,task3,227743,false,false,256,image-keyboard-response,8
true,3,1,2,0,false,q,false,false,0.0-2.0-0.6-0.54-3.54,1,0,1,90,false,stim,true,1,545.2999999988824,1,1,1,70539,task3,229799,false,false,259,image-keyboard-response,9
true,3,0,2,0,true,q,false,true,0.0-2.0-0.6-0.55-3.55,1,0,1,81,false,stim,false,0,517.2999999988824,1,0,0,70539,task3,231823,false,false,262,image-keyboard-response,10
true,3,0,2,0,true,q,false,true,0.0-2.0-0.6-0.56-3.56,1,0,1,81,false,stim,false,0,531.4000000003725,1,0,0,70539,task3,233864,false,false,265,image-keyboard-response,11
true,3,2,2,2,true,d,false,true,0.0-2.0-0.6-0.57-3.57,1,0,1,68,false,stim,false,2,577.5,1,1,2,70539,task3,235951,false,false,268,image-keyboard-response,12
true,4,2,2,2,true,d,false,true,0.0-2.0-0.6-0.58-3.58,0,1,1,68,true,stim,false,2,435.5,1,1,2,70539,task3,237895,false,false,271,image-keyboard-response,1
true,4,2,2,0,false,q,true,true,0.0-2.0-0.6-0.59-3.59,0,1,1,68,false,stim,false,0,529.4000000003725,1,1,1,70539,task3,239935,false,true,274,image-keyboard-response,2
true,4,2,2,0,false,q,true,false,0.0-2.0-0.6-0.60-3.60,0,1,1,68,false,stim,false,0,353.5,1,1,1,70539,task3,241799,false,false,277,image-keyboard-response,3
true,4,0,2,2,false,d,false,false,0.0-2.0-0.6-0.61-3.61,0,1,1,81,false,stim,true,0,408.7999999988824,1,0,0,70539,task3,243719,false,false,280,image-keyboard-response,4
true,4,2,2,2,true,d,false,true,0.0-2.0-0.6-0.62-3.62,0,1,1,68,false,stim,false,2,584.2999999988824,1,1,2,70539,task3,245816,false,false,283,image-keyboard-response,5
true,4,2,2,0,false,q,true,false,0.0-2.0-0.7-0.63-3.63,0,1,1,68,false,stim,false,0,360.69999999925494,1,1,1,70539,task3,247688,false,false,286,image-keyboard-response,6
true,4,2,2,2,true,d,false,true,0.0-2.0-0.7-0.64-3.64,0,1,1,68,false,stim,false,2,481.2999999988824,1,1,2,70539,task3,249680,false,false,289,image-keyboard-response,7
true,4,0,2,2,false,d,false,false,0.0-2.0-0.7-0.65-3.65,0,1,1,81,false,stim,true,0,469.90000000037253,1,0,0,70539,task3,251656,false,false,292,image-keyboard-response,8
true,4,2,2,2,true,d,false,true,0.0-2.0-0.7-0.66-3.66,0,1,1,68,false,stim,false,2,599.0999999996275,1,1,2,70539,task3,253768,false,false,295,image-keyboard-response,9
true,4,2,2,2,true,d,false,true,0.0-2.0-0.7-0.67-3.67,0,1,1,68,false,stim,false,2,521.4000000003725,1,1,2,70539,task3,255800,false,false,298,image-keyboard-response,10
true,4,1,2,2,false,d,true,false,0.0-2.0-0.7-0.68-3.68,0,1,1,90,false,stim,false,0,567.8000000007451,1,0,0,70539,task3,257881,false,false,301,image-keyboard-response,11
true,4,2,2,2,true,d,false,true,0.0-2.0-0.7-0.69-3.69,0,1,1,68,false,stim,false,0,536.5,1,0,0,70539,task3,259928,false,false,304,image-keyboard-response,12
true,4,1,2,0,false,q,true,true,0.0-2.0-0.7-0.70-3.70,0,1,1,90,false,stim,false,0,705.2999999988824,1,1,1,70539,task3,262144,false,true,307,image-keyboard-response,13
true,4,1,2,0,false,q,true,false,0.0-2.0-0.7-0.71-3.71,0,1,1,90,false,stim,false,0,441.19999999925494,1,1,1,70539,task3,264096,false,false,310,image-keyboard-response,14
true,4,1,2,0,false,q,true,false,0.0-2.0-0.8-0.72-3.72,0,1,1,90,false,stim,false,0,447.19999999925494,1,1,1,70539,task3,266056,false,false,313,image-keyboard-response,15
true,4,1,2,0,false,q,true,true,0.0-2.0-0.8-0.73-3.73,0,1,1,90,false,stim,false,0,530.0999999996275,1,1,1,70539,task3,268097,false,true,316,image-keyboard-response,16
true,4,2,2,2,true,d,false,true,0.0-2.0-0.8-0.74-3.74,0,1,1,68,false,stim,false,2,464.5,1,1,2,70539,task3,270072,false,false,319,image-keyboard-response,17
true,4,2,2,2,true,d,false,false,0.0-2.0-0.8-0.75-3.75,0,1,1,68,false,stim,false,2,393.6000000014901,1,1,2,70539,task3,271977,false,true,322,image-keyboard-response,18
true,4,2,2,2,true,d,false,true,0.0-2.0-0.8-0.76-3.76,0,1,1,68,false,stim,false,0,584.3000000007451,1,0,0,70539,task3,274073,false,false,325,image-keyboard-response,19
true,4,2,2,2,true,d,false,true,0.0-2.0-0.8-0.77-3.77,0,1,1,68,false,stim,false,0,697.4000000003725,1,0,0,70539,task3,276281,false,false,328,image-keyboard-response,20
true,4,1,2,0,false,q,true,false,0.0-2.0-0.8-0.78-3.78,0,1,1,90,false,stim,false,0,578.3000000007451,1,1,1,70539,task3,278369,false,false,331,image-keyboard-response,21
true,4,2,2,2,true,d,false,true,0.0-2.0-0.8-0.79-3.79,0,1,1,68,false,stim,false,2,664.5999999996275,1,1,2,70539,task3,280545,false,false,334,image-keyboard-response,22
true,4,2,2,2,true,d,false,true,0.0-2.0-0.8-0.80-3.80,0,1,1,68,false,stim,false,0,1026.8999999985099,1,0,0,70539,task3,283081,false,false,337,image-keyboard-response,23
true,4,2,2,2,true,d,false,false,0.0-2.0-0.9-0.81-3.81,0,1,1,68,false,stim,false,0,448.8999999985099,1,0,0,70539,task3,285041,false,true,340,image-keyboard-response,24
true,4,2,2,2,true,d,false,true,0.0-2.0-0.9-0.82-3.82,0,1,1,68,false,stim,false,0,463.09999999962747,1,0,0,70539,task3,287017,false,false,343,image-keyboard-response,25
true,4,1,2,0,false,q,true,true,0.0-2.0-0.9-0.83-3.83,0,1,1,90,false,stim,false,0,618.1999999992549,1,0,1,70539,task3,289146,false,true,346,image-keyboard-response,26
true,5,1,1,1,true,z,false,true,0.0-2.0-0.9-0.84-3.84,0,0,1,90,true,stim,false,0,411.19999999925494,1,0,1,70539,task3,291065,false,false,349,image-keyboard-response,1
true,5,2,1,1,false,z,false,true,0.0-2.0-0.9-0.85-3.85,0,0,1,68,false,stim,true,2,435.59999999962747,1,0,0,70539,task3,293009,false,true,352,image-keyboard-response,2
true,5,2,1,2,true,d,false,false,0.0-2.0-0.9-0.86-3.86,0,0,1,68,false,stim,false,2,465.19999999925494,1,1,2,70539,task3,294985,false,true,355,image-keyboard-response,3
true,5,2,1,2,true,d,false,true,0.0-2.0-0.9-0.87-3.87,0,0,1,68,false,stim,false,2,553.2999999988824,1,1,2,70539,task3,297049,false,false,358,image-keyboard-response,4
true,5,2,1,2,true,d,false,true,0.0-2.0-0.9-0.88-3.88,0,0,1,68,false,stim,false,2,505.2999999988824,1,1,2,70539,task3,299065,false,false,361,image-keyboard-response,5
true,5,1,1,1,true,z,false,true,0.0-2.0-0.9-0.89-3.89,0,0,1,90,false,stim,false,0,537.8000000007451,1,0,1,70539,task3,301114,false,false,364,image-keyboard-response,6
true,5,2,1,1,false,z,false,false,0.0-2.0-0.10-0.90-3.90,0,0,1,68,false,stim,true,2,593.6999999992549,1,0,0,70539,task3,303218,false,false,367,image-keyboard-response,7
true,5,2,1,1,false,z,false,false,0.0-2.0-0.10-0.91-3.91,0,0,1,68,false,stim,true,2,472.80000000074506,1,0,0,70539,task3,305202,false,false,370,image-keyboard-response,8
true,5,1,1,1,true,z,false,true,0.0-2.0-0.10-0.92-3.92,0,0,1,90,false,stim,false,0,861.6999999992549,1,0,1,70539,task3,307570,false,false,373,image-keyboard-response,9
true,5,1,1,1,true,z,false,true,0.0-2.0-0.10-0.93-3.93,0,0,1,90,false,stim,false,0,617.4000000003725,1,0,1,70539,task3,309698,false,false,376,image-keyboard-response,10
true,5,1,1,1,true,z,false,true,0.0-2.0-0.10-0.94-3.94,0,0,1,90,false,stim,false,0,486.5,1,0,1,70539,task3,311691,false,false,379,image-keyboard-response,11
true,5,2,1,2,true,d,false,true,0.0-2.0-0.10-0.95-3.95,0,0,1,68,false,stim,false,2,480.5,1,1,2,70539,task3,313682,false,false,382,image-keyboard-response,12
true,5,2,1,2,true,d,false,true,0.0-2.0-0.10-0.96-3.96,0,0,1,68,false,stim,false,2,549.0,1,1,2,70539,task3,315738,false,false,385,image-keyboard-response,13
true,5,2,1,2,true,d,false,true,0.0-2.0-0.10-0.97-3.97,0,0,1,68,false,stim,false,2,413.40000000037253,1,1,2,70539,task3,317658,false,false,388,image-keyboard-response,14
true,5,2,1,1,false,z,false,false,0.0-2.0-0.10-0.98-3.98,0,0,1,68,false,stim,true,2,478.69999999925494,1,0,0,70539,task3,319650,false,false,391,image-keyboard-response,15
true,5,2,1,2,true,d,false,true,0.0-2.0-0.11-0.99-3.99,0,0,1,68,false,stim,false,2,565.2999999988824,1,1,2,70539,task3,321723,false,false,394,image-keyboard-response,16
true,5,1,1,1,true,z,false,true,0.0-2.0-0.11-0.100-3.100,0,0,1,90,false,stim,false,0,568.3000000007451,1,0,1,70539,task3,323802,false,false,397,image-keyboard-response,17
true,5,1,1,1,true,z,false,true,0.0-2.0-0.11-0.101-3.101,0,0,1,90,false,stim,false,0,448.40000000037253,1,0,1,70539,task3,325762,false,false,400,image-keyboard-response,18
true,5,2,1,2,true,d,false,true,0.0-2.0-0.11-0.102-3.102,0,0,1,68,false,stim,false,2,494.59999999962747,1,1,2,70539,task3,327770,false,false,403,image-keyboard-response,19
true,5,2,1,2,true,d,false,true,0.0-2.0-0.11-0.103-3.103,0,0,1,68,false,stim,false,2,593.3000000007451,1,1,2,70539,task3,329875,false,false,406,image-keyboard-response,20
true,5,1,1,1,true,z,false,true,0.0-2.0-0.11-0.104-3.104,0,0,1,90,false,stim,false,0,507.5,1,0,1,70539,task3,331891,false,false,409,image-keyboard-response,21
true,5,1,1,1,true,z,false,true,0.0-2.0-0.11-0.105-3.105,0,0,1,90,false,stim,false,2,1013.7999999988824,1,1,0,70539,task3,334419,false,false,412,image-keyboard-response,22
true,5,1,1,1,true,z,false,true,0.0-2.0-0.11-0.106-3.106,0,0,1,90,false,stim,false,2,500.40000000037253,1,1,0,70539,task3,336435,false,false,415,image-keyboard-response,23
true,5,1,1,1,true,z,false,true,0.0-2.0-0.11-0.107-3.107,0,0,1,90,false,stim,false,2,435.69999999925494,1,1,0,70539,task3,338378,false,false,418,image-keyboard-response,24
true,6,1,2,1,true,z,false,true,0.0-2.0-0.12-0.108-3.108,1,0,1,90,true,stim,false,1,457.19999999925494,1,1,0,70539,task3,340347,false,false,421,image-keyboard-response,1
true,6,2,2,2,true,d,false,true,0.0-2.0-0.12-0.109-3.109,1,0,1,68,false,stim,false,2,615.2000000011176,1,1,2,70539,task3,342468,false,false,424,image-keyboard-response,2
true,6,1,2,2,false,d,false,false,0.0-2.0-0.12-0.110-3.110,1,0,1,90,false,stim,true,1,600.6000000014901,1,0,1,70539,task3,344579,false,false,427,image-keyboard-response,3
true,6,2,2,2,true,d,false,true,0.0-2.0-0.12-0.111-3.111,1,0,1,68,false,stim,false,2,414.2999999988824,1,1,2,70539,task3,346499,false,false,430,image-keyboard-response,4
true,6,1,2,1,true,z,false,true,0.0-2.0-0.12-0.112-3.112,1,0,1,90,false,stim,false,1,664.7000000011176,1,1,0,70539,task3,348675,false,false,433,image-keyboard-response,5
true,6,1,2,2,false,d,false,false,0.0-2.0-0.12-0.113-3.113,1,0,1,90,false,stim,true,1,501.5,1,1,1,70539,task3,350683,false,false,436,image-keyboard-response,6
true,6,0,2,2,false,d,true,false,0.0-2.0-0.12-0.114-3.114,1,0,1,81,false,stim,false,1,546.1000000014901,1,1,1,70539,task3,352740,false,false,439,image-keyboard-response,7
true,6,2,2,2,true,d,false,true,0.0-2.0-0.12-0.115-3.115,1,0,1,68,false,stim,false,2,608.1999999992549,1,0,2,70539,task3,354859,false,false,442,image-keyboard-response,8
true,6,1,2,1,true,z,false,false,0.0-2.0-0.12-0.116-3.116,1,0,1,90,false,stim,false,1,492.90000000037253,1,1,0,70539,task3,356859,false,true,445,image-keyboard-response,9
true,6,1,2,1,true,z,false,false,0.0-2.0-0.13-0.117-3.117,1,0,1,90,false,stim,false,1,423.3999999985099,1,1,0,70539,task3,358796,false,true,448,image-keyboard-response,10
true,7,1,2,2,false,d,true,false,0.0-2.0-0.13-0.118-3.118,1,1,0,90,true,stim,false,2,785.0,1,1,1,70539,task3,361092,false,false,451,image-keyboard-response,1
true,7,2,2,0,false,q,false,false,0.0-2.0-0.13-0.119-3.119,1,1,0,68,false,stim,true,2,554.0999999996275,1,0,2,70539,task3,363156,false,false,454,image-keyboard-response,2
true,7,2,2,2,true,d,false,true,0.0-2.0-0.13-0.120-3.120,1,1,0,68,false,stim,false,2,563.6999999992549,1,1,1,70539,task3,365228,false,false,457,image-keyboard-response,3
true,7,2,2,0,false,q,false,false,0.0-2.0-0.13-0.121-3.121,1,1,0,68,false,stim,true,2,890.1999999992549,1,0,2,70539,task3,367628,false,false,460,image-keyboard-response,4
true,7,0,2,1,false,z,true,false,0.0-2.0-0.13-0.122-3.122,1,1,0,81,false,stim,false,1,940.2000000011176,1,1,0,70539,task3,370084,false,false,463,image-keyboard-response,5
true,7,2,2,2,true,d,false,true,0.0-2.0-0.13-0.123-3.123,1,1,0,68,false,stim,false,2,1287.300000000745,1,1,1,70539,task3,372884,false,false,466,image-keyboard-response,6
true,7,1,2,0,false,q,true,true,0.0-2.0-0.13-0.124-3.124,1,1,0,90,false,stim,false,2,737.2000000011176,1,0,2,70539,task3,375133,false,true,469,image-keyboard-response,7
true,7,2,2,1,false,z,true,false,0.0-2.0-0.13-0.125-3.125,1,1,0,68,false,stim,false,1,625.8000000007451,1,1,0,70539,task3,377268,false,false,472,image-keyboard-response,8
true,7,1,2,1,true,z,false,true,0.0-2.0-0.14-0.126-3.126,1,1,0,90,false,stim,false,1,565.1999999992549,1,0,0,70539,task3,379340,false,false,475,image-keyboard-response,9
true,7,2,2,2,true,d,false,true,0.0-2.0-0.14-0.127-3.127,1,1,0,68,false,stim,false,2,676.8999999985099,1,1,1,70539,task3,381524,false,false,478,image-keyboard-response,10
true,7,1,2,0,false,q,true,false,0.0-2.0-0.14-0.128-3.128,1,1,0,90,false,stim,false,2,617.0999999996275,1,1,2,70539,task3,383652,false,false,481,image-keyboard-response,11
true,7,1,2,0,false,q,true,true,0.0-2.0-0.14-0.129-3.129,1,1,0,90,false,stim,false,2,493.30000000074506,1,1,2,70539,task3,385661,false,true,484,image-keyboard-response,12
true,7,2,2,2,true,d,false,true,0.0-2.0-0.14-0.130-3.130,1,1,0,68,false,stim,false,2,773.8000000007451,1,1,1,70539,task3,387947,false,false,487,image-keyboard-response,13
true,8,1,2,2,false,d,false,false,0.0-2.0-0.14-0.131-3.131,0,1,1,90,true,stim,true,1,509.40000000037253,1,0,0,70539,task3,389963,false,false,490,image-keyboard-response,1
true,8,2,2,0,false,q,true,false,0.0-2.0-0.14-0.132-3.132,0,1,1,68,false,stim,false,0,490.19999999925494,1,1,2,70539,task3,391957,false,false,493,image-keyboard-response,2
true,8,1,2,2,false,d,false,false,0.0-2.0-0.14-0.133-3.133,0,1,1,90,false,stim,true,1,505.8999999985099,1,0,0,70539,task3,393973,false,false,496,image-keyboard-response,3
true,8,2,2,2,true,d,false,true,0.0-2.0-0.14-0.134-3.134,0,1,1,68,false,stim,false,2,581.3000000007451,1,1,1,70539,task3,396062,false,false,499,image-keyboard-response,4
true,8,1,2,0,false,q,true,true,0.0-2.0-0.15-0.135-3.135,0,1,1,90,false,stim,false,0,615.0999999996275,1,1,2,70539,task3,398189,false,true,502,image-keyboard-response,5
true,8,2,2,2,true,d,false,false,0.0-2.0-0.15-0.136-3.136,0,1,1,68,false,stim,false,2,524.4000000003725,1,1,1,70539,task3,400221,false,true,505,image-keyboard-response,6
true,8,1,2,0,false,q,true,false,0.0-2.0-0.15-0.137-3.137,0,1,1,90,false,stim,false,0,462.30000000074506,1,1,2,70539,task3,402197,false,false,508,image-keyboard-response,7
true,8,1,2,2,false,d,false,false,0.0-2.0-0.15-0.138-3.138,0,1,1,90,false,stim,true,1,496.19999999925494,1,0,0,70539,task3,404205,false,false,511,image-keyboard-response,8
true,8,2,2,2,true,d,false,false,0.0-2.0-0.15-0.139-3.139,0,1,1,68,false,stim,false,2,452.90000000037253,1,1,1,70539,task3,406166,false,true,514,image-keyboard-response,9
true,8,1,2,2,false,d,true,false,0.0-2.0-0.15-0.140-3.140,0,1,1,90,false,stim,false,2,495.0,1,1,1,70539,task3,408173,false,false,517,image-keyboard-response,10
true,8,0,2,2,false,d,true,false,0.0-2.0-0.15-0.141-3.141,0,1,1,81,false,stim,false,1,849.0,1,0,0,70539,task3,410533,false,false,520,image-keyboard-response,11
true,8,1,2,2,false,d,false,false,0.0-2.0-0.15-0.142-3.142,0,1,1,90,false,stim,true,1,701.1999999992549,1,0,0,70539,task3,412749,false,false,523,image-keyboard-response,12
true,8,0,2,0,true,q,false,true,0.0-2.0-0.15-0.143-3.143,0,1,1,81,false,stim,false,0,816.2999999988824,1,1,2,70539,task3,415077,false,false,526,image-keyboard-response,13
true,8,2,2,2,true,d,false,false,0.0-2.0-0.16-0.144-3.144,0,1,1,68,false,stim,false,1,553.8999999985099,1,0,0,70539,task3,417142,false,true,529,image-keyboard-response,14
true,8,0,2,0,true,q,false,true,0.0-2.0-0.16-0.145-3.145,0,1,1,81,false,stim,false,0,776.5999999996275,1,1,2,70539,task3,419430,false,false,532,image-keyboard-response,15
true,8,1,2,2,false,d,false,false,0.0-2.0-0.16-0.146-3.146,0,1,1,90,false,stim,true,1,710.0,1,0,0,70539,task3,421654,false,false,535,image-keyboard-response,16
true,8,0,2,0,true,q,false,true,0.0-2.0-0.16-0.147-3.147,0,1,1,81,false,stim,false,0,753.2999999988824,1,1,2,70539,task3,423918,false,false,538,image-keyboard-response,17
true,8,1,2,2,false,d,true,true,0.0-2.0-0.16-0.148-3.148,0,1,1,90,false,stim,false,2,725.4000000003725,1,1,1,70539,task3,426150,false,true,541,image-keyboard-response,18
true,8,1,2,2,false,d,true,false,0.0-2.0-0.16-0.149-3.149,0,1,1,90,false,stim,false,2,851.6999999992549,1,1,1,70539,task3,428511,false,false,544,image-keyboard-response,19
true,8,1,2,2,false,d,true,false,0.0-2.0-0.16-0.150-3.150,0,1,1,90,false,stim,false,2,476.7999999988824,1,1,1,70539,task3,430494,false,false,547,image-keyboard-response,20
true,8,2,2,2,true,d,false,true,0.0-2.0-0.16-0.151-3.151,0,1,1,68,false,stim,false,1,689.2999999988824,1,0,0,70539,task3,432694,false,false,550,image-keyboard-response,21
true,8,0,2,0,true,q,false,true,0.0-2.0-0.16-0.152-3.152,0,1,1,81,false,stim,false,0,584.6999999992549,1,1,2,70539,task3,434790,false,false,553,image-keyboard-response,22
true,8,2,2,2,true,d,false,true,0.0-2.0-0.17-0.153-3.153,0,1,1,68,false,stim,false,1,603.4000000003725,1,0,0,70539,task3,436910,false,false,556,image-keyboard-response,23
true,8,1,2,2,false,d,true,false,0.0-2.0-0.17-0.154-3.154,0,1,1,90,false,stim,false,2,473.5,1,1,1,70539,task3,438895,false,false,559,image-keyboard-response,24
true,8,0,2,0,true,q,false,true,0.0-2.0-0.17-0.155-3.155,0,1,1,81,false,stim,false,0,721.8999999985099,1,1,2,70539,task3,441126,false,false,562,image-keyboard-response,25
true,8,2,2,2,true,d,false,true,0.0-2.0-0.17-0.156-3.156,0,1,1,68,false,stim,false,1,680.9000000003725,1,0,0,70539,task3,443318,false,false,565,image-keyboard-response,26
true,9,0,2,2,false,d,true,false,0.0-2.0-0.17-0.157-3.157,0,1,1,81,true,stim,false,2,561.0999999996275,1,1,1,70539,task3,445390,false,false,568,image-keyboard-response,1
true,9,0,2,0,true,q,false,true,0.0-2.0-0.17-0.158-3.158,0,1,1,81,false,stim,false,0,468.0,1,1,2,70539,task3,447375,false,false,571,image-keyboard-response,2
true,9,0,2,0,true,q,false,false,0.0-2.0-0.17-0.159-3.159,0,1,1,81,false,stim,false,0,562.0,1,1,2,70539,task3,449448,false,true,574,image-keyboard-response,3
true,9,2,2,2,true,d,false,true,0.0-2.0-0.17-0.160-3.160,0,1,1,68,false,stim,false,2,703.5999999996275,1,1,1,70539,task3,451663,false,false,577,image-keyboard-response,4
true,9,2,2,0,false,q,false,false,0.0-2.0-0.17-0.161-3.161,0,1,1,68,false,stim,true,2,557.0999999996275,1,0,0,70539,task3,453727,false,false,580,image-keyboard-response,5
true,9,2,2,0,false,q,false,false,0.0-2.0-0.18-0.162-3.162,0,1,1,68,false,stim,true,2,394.59999999962747,1,0,0,70539,task3,455631,false,false,583,image-keyboard-response,6
true,9,2,2,2,true,d,false,true,0.0-2.0-0.18-0.163-3.163,0,1,1,68,false,stim,false,2,685.4000000003725,1,1,1,70539,task3,457823,false,false,586,image-keyboard-response,7
true,9,0,2,0,true,q,false,true,0.0-2.0-0.18-0.164-3.164,0,1,1,81,false,stim,false,0,831.5999999996275,1,0,2,70539,task3,460168,false,false,589,image-keyboard-response,8
true,9,2,2,0,false,q,false,true,0.0-2.0-0.18-0.165-3.165,0,1,1,68,false,stim,true,2,513.3000000007451,1,1,0,70539,task3,462191,false,true,592,image-keyboard-response,9
true,9,2,2,2,true,d,false,true,0.0-2.0-0.18-0.166-3.166,0,1,1,68,false,stim,false,2,445.8999999985099,1,1,1,70539,task3,464143,false,false,595,image-keyboard-response,10
true,9,2,2,2,true,d,false,true,0.0-2.0-0.18-0.167-3.167,0,1,1,68,false,stim,false,2,406.7999999988824,1,1,1,70539,task3,466063,false,false,598,image-keyboard-response,11
true,10,0,2,1,false,z,false,false,0.0-2.0-0.18-0.168-3.168,1,1,0,81,true,stim,true,0,558.5,1,0,2,70539,task3,468135,false,false,601,image-keyboard-response,1
true,10,0,2,1,false,z,false,false,0.0-2.0-0.18-0.169-3.169,1,1,0,81,false,stim,true,0,429.5,1,0,2,70539,task3,470071,false,false,604,image-keyboard-response,2
true,10,2,2,0,false,q,true,false,0.0-2.0-0.18-0.170-3.170,1,1,0,68,false,stim,false,0,417.80000000074506,1,1,0,70539,task3,472000,false,false,607,image-keyboard-response,3
true,10,0,2,1,false,z,false,false,0.0-2.0-0.19-0.171-3.171,1,1,0,81,false,stim,true,0,662.5999999996275,1,0,2,70539,task3,474175,false,false,610,image-keyboard-response,4
true,10,2,2,2,true,d,false,true,0.0-2.0-0.19-0.172-3.172,1,1,0,68,false,stim,false,2,679.8000000007451,1,1,1,70539,task3,476367,false,false,613,image-keyboard-response,5
true,10,2,2,0,false,q,true,false,0.0-2.0-0.19-0.173-3.173,1,1,0,68,false,stim,false,0,565.4000000003725,1,1,0,70539,task3,478440,false,false,616,image-keyboard-response,6
true,10,2,2,2,true,d,false,true,0.0-2.0-0.19-0.174-3.174,1,1,0,68,false,stim,false,2,474.90000000037253,1,1,1,70539,task3,480423,false,false,619,image-keyboard-response,7
true,10,1,2,1,true,z,false,true,0.0-2.0-0.19-0.175-3.175,1,1,0,90,false,stim,false,0,578.7000000011176,1,0,2,70539,task3,482512,false,false,622,image-keyboard-response,8
true,10,1,2,0,false,q,true,false,0.0-2.0-0.19-0.176-3.176,1,1,0,90,false,stim,false,0,680.1999999992549,1,1,0,70539,task3,484704,false,false,625,image-keyboard-response,9
true,10,0,2,0,true,q,false,true,0.0-2.0-0.19-0.177-3.177,1,1,0,81,false,stim,false,0,732.9000000003725,1,1,0,70539,task3,486944,false,false,628,image-keyboard-response,10
true,10,2,2,2,true,d,false,false,0.0-2.0-0.19-0.178-3.178,1,1,0,68,false,stim,false,2,602.2000000011176,1,0,1,70539,task3,489056,false,true,631,image-keyboard-response,11
true,10,1,2,1,true,z,false,true,0.0-2.0-0.19-0.179-3.179,1,1,0,90,false,stim,false,0,551.5,1,1,2,70539,task3,491120,false,false,634,image-keyboard-response,12
true,10,1,2,1,true,z,false,true,0.0-2.0-0.20-0.180-3.180,1,1,0,90,false,stim,false,0,737.5999999996275,1,1,2,70539,task3,493369,false,false,637,image-keyboard-response,13
true,10,2,2,2,true,d,false,true,0.0-2.0-0.20-0.181-3.181,1,1,0,68,false,stim,false,2,573.5,1,0,1,70539,task3,495456,false,false,640,image-keyboard-response,14
true,10,2,2,2,true,d,false,true,0.0-2.0-0.20-0.182-3.182,1,1,0,68,false,stim,false,2,476.2000000011176,1,0,1,70539,task3,497440,false,false,643,image-keyboard-response,15
true,11,1,1,1,true,z,false,true,0.0-2.0-0.20-0.183-3.183,0,0,1,90,true,stim,false,1,589.6999999992549,1,1,2,70539,task3,499544,false,false,646,image-keyboard-response,1
true,11,0,1,2,false,d,false,false,0.0-2.0-0.20-0.184-3.184,0,0,1,81,false,stim,true,0,551.1999999992549,1,0,0,70539,task3,501608,false,false,649,image-keyboard-response,2
true,11,1,1,1,true,z,false,true,0.0-2.0-0.20-0.185-3.185,0,0,1,90,false,stim,false,1,505.80000000074506,1,1,2,70539,task3,503625,false,false,652,image-keyboard-response,3
true,11,2,1,0,false,q,false,true,0.0-2.0-0.20-0.186-3.186,0,0,1,68,false,stim,true,2,475.69999999925494,1,0,1,70539,task3,505617,false,true,655,image-keyboard-response,4
true,11,0,1,2,false,d,false,false,0.0-2.0-0.20-0.187-3.187,0,0,1,81,false,stim,true,0,694.0999999996275,1,0,0,70539,task3,507824,false,false,658,image-keyboard-response,5
true,11,1,1,2,false,d,true,false,0.0-2.0-0.20-0.188-3.188,0,0,1,90,false,stim,false,0,612.4000000003725,1,0,0,70539,task3,509945,false,false,661,image-keyboard-response,6
true,11,2,1,0,false,q,false,false,0.0-2.0-0.21-0.189-3.189,0,0,1,68,false,stim,true,2,888.1999999992549,1,0,1,70539,task3,512345,false,false,664,image-keyboard-response,7
true,11,2,1,2,true,d,false,true,0.0-2.0-0.21-0.190-3.190,0,0,1,68,false,stim,false,0,881.9000000003725,1,0,0,70539,task3,514738,false,false,667,image-keyboard-response,8
true,11,2,1,2,true,d,false,true,0.0-2.0-0.21-0.191-3.191,0,0,1,68,false,stim,false,0,835.5,1,0,0,70539,task3,517089,false,false,670,image-keyboard-response,9
true,11,2,1,2,true,d,false,true,0.0-2.0-0.21-0.192-3.192,0,0,1,68,false,stim,false,0,544.0,1,0,0,70539,task3,519145,false,false,673,image-keyboard-response,10
true,11,0,1,0,true,q,false,true,0.0-2.0-0.21-0.193-3.193,0,0,1,81,false,stim,false,2,528.5999999996275,1,0,1,70539,task3,521185,false,false,676,image-keyboard-response,11
true,11,1,1,1,true,z,false,true,0.0-2.0-0.21-0.194-3.194,0,0,1,90,false,stim,false,1,432.8999999985099,1,1,2,70539,task3,523129,false,false,679,image-keyboard-response,12
true,11,0,1,0,true,q,false,true,0.0-2.0-0.21-0.195-3.195,0,0,1,81,false,stim,false,2,593.4000000003725,1,0,1,70539,task3,525234,false,false,682,image-keyboard-response,13
true,11,1,1,1,true,z,false,true,0.0-2.0-0.21-0.196-3.196,0,0,1,90,false,stim,false,1,519.9000000003725,1,1,2,70539,task3,527265,false,false,685,image-keyboard-response,14
true,11,1,1,1,true,z,false,true,0.0-2.0-0.21-0.197-3.197,0,0,1,90,false,stim,false,1,544.9000000003725,1,1,2,70539,task3,529321,false,false,688,image-keyboard-response,15
true,11,1,1,1,true,z,false,true,0.0-2.0-0.22-0.198-3.198,0,0,1,90,false,stim,false,1,507.90000000037253,1,1,2,70539,task3,531337,false,false,691,image-keyboard-response,16
true,11,0,1,0,true,q,false,true,0.0-2.0-0.22-0.199-3.199,0,0,1,81,false,stim,false,2,736.3000000007451,1,0,1,70539,task3,533585,false,false,694,image-keyboard-response,17
true,11,0,1,0,true,q,false,true,0.0-2.0-0.22-0.200-3.200,0,0,1,81,false,stim,false,2,554.8000000007451,1,0,1,70539,task3,535650,false,false,697,image-keyboard-response,18
true,11,2,1,2,true,d,false,true,0.0-2.0-0.22-0.201-3.201,0,0,1,68,false,stim,false,0,863.4000000003725,1,0,0,70539,task3,538025,false,false,700,image-keyboard-response,19
true,11,1,1,1,true,z,false,true,0.0-2.0-0.22-0.202-3.202,0,0,1,90,false,stim,false,1,1089.0,1,1,2,70539,task3,540634,false,false,703,image-keyboard-response,20
true,11,2,1,2,true,d,false,false,0.0-2.0-0.22-0.203-3.203,0,0,1,68,false,stim,false,0,1232.5,1,0,0,70539,task3,543378,false,true,706,image-keyboard-response,21
true,11,0,1,0,true,q,false,true,0.0-2.0-0.22-0.204-3.204,0,0,1,81,false,stim,false,2,909.2999999988824,1,0,1,70539,task3,545794,false,false,709,image-keyboard-response,22
true,11,1,1,1,true,z,false,true,0.0-2.0-0.22-0.205-3.205,0,0,1,90,false,stim,false,1,479.40000000037253,1,1,2,70539,task3,547786,false,false,712,image-keyboard-response,23
true,11,2,1,2,true,d,false,true,0.0-2.0-0.22-0.206-3.206,0,0,1,68,false,stim,false,0,480.5,1,1,0,70539,task3,549778,false,false,715,image-keyboard-response,24
true,11,0,1,0,true,q,false,true,0.0-2.0-0.23-0.207-3.207,0,0,1,81,false,stim,false,2,464.59999999962747,1,0,1,70539,task3,551754,false,false,718,image-keyboard-response,25
true,11,1,1,1,true,z,false,true,0.0-2.0-0.23-0.208-3.208,0,0,1,90,false,stim,false,1,783.0999999996275,1,0,2,70539,task3,554050,false,false,721,image-keyboard-response,26
true,11,0,1,0,true,q,false,true,0.0-2.0-0.23-0.209-3.209,0,0,1,81,false,stim,false,2,641.3000000007451,1,0,1,70539,task3,556203,false,false,724,image-keyboard-response,27
true,11,1,1,1,true,z,false,true,0.0-2.0-0.23-0.210-3.210,0,0,1,90,false,stim,false,1,622.0999999996275,1,0,2,70539,task3,558338,false,false,727,image-keyboard-response,28
true,12,2,1,2,true,d,false,true,0.0-2.0-0.23-0.211-3.211,1,0,0,68,true,stim,false,2,514.6999999992549,1,1,0,70539,task3,560361,false,false,730,image-keyboard-response,1
true,12,0,1,1,false,z,false,false,0.0-2.0-0.23-0.212-3.212,1,0,0,81,false,stim,true,0,457.90000000037253,1,0,1,70539,task3,562331,false,false,733,image-keyboard-response,2
true,12,2,1,2,true,d,false,true,0.0-2.0-0.23-0.213-3.213,1,0,0,68,false,stim,false,2,745.0,1,1,0,70539,task3,564587,false,false,736,image-keyboard-response,3
true,12,2,1,2,true,d,false,true,0.0-2.0-0.23-0.214-3.214,1,0,0,68,false,stim,false,2,524.8000000007451,1,1,0,70539,task3,566619,false,false,739,image-keyboard-response,4
true,12,1,1,0,false,q,false,false,0.0-2.0-0.23-0.215-3.215,1,0,0,90,false,stim,true,1,480.30000000074506,1,0,2,70539,task3,568611,false,false,742,image-keyboard-response,5
true,12,2,1,2,true,d,false,false,0.0-2.0-0.24-0.216-3.216,1,0,0,68,false,stim,false,2,557.5999999996275,1,1,0,70539,task3,570683,false,true,745,image-keyboard-response,6
true,12,1,1,0,false,q,false,false,0.0-2.0-0.24-0.217-3.217,1,0,0,90,false,stim,true,1,796.1999999992549,1,0,2,70539,task3,572995,false,false,748,image-keyboard-response,7
true,12,0,1,0,true,q,false,true,0.0-2.0-0.24-0.218-3.218,1,0,0,81,false,stim,false,1,903.7000000011176,1,0,2,70539,task3,575411,false,false,751,image-keyboard-response,8
true,12,0,1,0,true,q,false,true,0.0-2.0-0.24-0.219-3.219,1,0,0,81,false,stim,false,1,489.40000000037253,1,0,2,70539,task3,577412,false,false,754,image-keyboard-response,9
true,12,2,1,2,true,d,false,true,0.0-2.0-0.24-0.220-3.220,1,0,0,68,false,stim,false,2,800.0,1,0,0,70539,task3,579723,false,false,757,image-keyboard-response,10
true,12,1,1,1,true,z,false,true,0.0-2.0-0.24-0.221-3.221,1,0,0,90,false,stim,false,0,602.0,1,1,1,70539,task3,581835,false,false,760,image-keyboard-response,11
true,12,1,1,1,true,z,false,true,0.0-2.0-0.24-0.222-3.222,1,0,0,90,false,stim,false,0,496.7999999988824,1,1,1,70539,task3,583843,false,false,763,image-keyboard-response,12
true,12,1,1,1,true,z,false,false,0.0-2.0-0.24-0.223-3.223,1,0,0,90,false,stim,false,0,424.59999999962747,1,1,1,70539,task3,585779,false,true,766,image-keyboard-response,13
true,12,2,1,2,true,d,false,true,0.0-2.0-0.24-0.224-3.224,1,0,0,68,false,stim,false,2,529.8000000007451,1,0,0,70539,task3,587820,false,false,769,image-keyboard-response,14
true,13,2,2,0,false,q,false,false,0.0-2.0-0.25-0.225-3.225,0,1,1,68,true,stim,true,2,431.2999999988824,1,0,0,70539,task3,589763,false,false,772,image-keyboard-response,1
true,13,0,2,0,true,q,false,true,0.0-2.0-0.25-0.226-3.226,0,1,1,81,false,stim,false,0,589.9000000003725,1,1,2,70539,task3,591868,false,false,775,image-keyboard-response,2
true,13,1,2,1,true,z,false,true,0.0-2.0-0.25-0.227-3.227,0,1,1,90,false,stim,false,1,490.90000000037253,1,1,1,70539,task3,593868,false,false,778,image-keyboard-response,3
true,13,0,2,0,true,q,false,true,0.0-2.0-0.25-0.228-3.228,0,1,1,81,false,stim,false,0,629.1999999992549,1,1,2,70539,task3,596012,false,false,781,image-keyboard-response,4
true,13,0,2,0,true,q,false,true,0.0-2.0-0.25-0.229-3.229,0,1,1,81,false,stim,false,0,497.5,1,1,2,70539,task3,598020,false,false,784,image-keyboard-response,5
true,13,1,2,1,true,z,false,true,0.0-2.0-0.25-0.230-3.230,0,1,1,90,false,stim,false,1,534.5,1,1,1,70539,task3,600067,false,false,787,image-keyboard-response,6
true,13,2,2,0,false,q,false,false,0.0-2.0-0.25-0.231-3.231,0,1,1,68,false,stim,true,2,489.69999999925494,1,0,0,70539,task3,602068,false,false,790,image-keyboard-response,7
true,13,2,2,0,false,q,false,true,0.0-2.0-0.25-0.232-3.232,0,1,1,68,false,stim,true,2,523.9000000003725,1,0,0,70539,task3,604108,false,true,793,image-keyboard-response,8
true,13,1,2,1,true,z,false,true,0.0-2.0-0.25-0.233-3.233,0,1,1,90,false,stim,false,1,712.9000000003725,1,1,1,70539,task3,606332,false,false,796,image-keyboard-response,9
true,13,1,2,1,true,z,false,true,0.0-2.0-0.26-0.234-3.234,0,1,1,90,false,stim,false,1,566.3000000007451,1,1,1,70539,task3,608413,false,false,799,image-keyboard-response,10
true,13,2,2,0,false,q,false,false,0.0-2.0-0.26-0.235-3.235,0,1,1,68,false,stim,true,2,598.5999999996275,1,0,0,70539,task3,610524,false,false,802,image-keyboard-response,11
true,13,0,2,0,true,q,false,false,0.0-2.0-0.26-0.236-3.236,0,1,1,81,false,stim,false,0,451.30000000074506,1,1,2,70539,task3,612491,false,true,805,image-keyboard-response,12
true,13,1,2,1,true,z,false,true,0.0-2.0-0.26-0.237-3.237,0,1,1,90,false,stim,false,1,392.40000000037253,1,1,1,70539,task3,614396,false,false,808,image-keyboard-response,13
true,13,1,2,0,false,q,true,false,0.0-2.0-0.26-0.238-3.238,0,1,1,90,false,stim,false,0,558.5,1,1,2,70539,task3,616468,false,false,811,image-keyboard-response,14
true,13,2,2,0,false,q,true,false,0.0-2.0-0.26-0.239-3.239,0,1,1,68,false,stim,false,0,609.4000000003725,1,1,2,70539,task3,618589,false,false,814,image-keyboard-response,15
true,13,2,2,0,false,q,false,false,0.0-2.0-0.26-0.240-3.240,0,1,1,68,false,stim,true,2,768.2999999988824,1,0,0,70539,task3,620869,false,false,817,image-keyboard-response,16
true,13,1,2,1,true,z,false,true,0.0-2.0-0.26-0.241-3.241,0,1,1,90,false,stim,false,1,640.7000000011176,1,1,1,70539,task3,623021,false,false,820,image-keyboard-response,17
true,13,1,2,0,false,q,true,false,0.0-2.0-0.26-0.242-3.242,0,1,1,90,false,stim,false,2,528.6999999992549,1,0,0,70539,task3,625061,false,false,823,image-keyboard-response,18
true,13,1,2,1,true,z,false,true,0.0-2.0-0.27-0.243-3.243,0,1,1,90,false,stim,false,1,746.4000000003725,1,1,1,70539,task3,627317,false,false,826,image-keyboard-response,19
true,13,0,2,0,true,q,false,false,0.0-2.0-0.27-0.244-3.244,0,1,1,81,false,stim,false,0,523.4000000003725,1,0,2,70539,task3,629358,false,true,829,image-keyboard-response,20
true,13,0,2,0,true,q,false,true,0.0-2.0-0.27-0.245-3.245,0,1,1,81,false,stim,false,2,630.5,1,0,0,70539,task3,631501,false,false,832,image-keyboard-response,21
true,13,1,2,1,true,z,false,true,0.0-2.0-0.27-0.246-3.246,0,1,1,90,false,stim,false,1,712.8000000007451,1,1,1,70539,task3,633725,false,false,835,image-keyboard-response,22
true,13,1,2,1,true,z,false,true,0.0-2.0-0.27-0.247-3.247,0,1,1,90,false,stim,false,1,624.6999999992549,1,1,1,70539,task3,635861,false,false,838,image-keyboard-response,23
true,13,1,2,0,false,q,true,false,0.0-2.0-0.27-0.248-3.248,0,1,1,90,false,stim,false,0,517.0999999996275,1,0,2,70539,task3,637885,false,false,841,image-keyboard-response,24
true,14,2,1,1,false,z,true,false,0.0-2.0-0.27-0.249-3.249,0,1,0,68,true,stim,false,0,660.2000000011176,1,0,2,70539,task3,640054,false,false,844,image-keyboard-response,1
true,14,0,1,2,false,d,false,false,0.0-2.0-0.27-0.250-3.250,0,1,0,81,false,stim,true,0,584.2999999988824,1,0,0,70539,task3,642149,false,false,847,image-keyboard-response,2
true,14,0,1,2,false,d,false,false,0.0-2.0-0.27-0.251-3.251,0,1,0,81,false,stim,true,0,504.5,1,0,0,70539,task3,644165,false,false,850,image-keyboard-response,3
true,14,1,1,2,false,d,true,false,0.0-2.0-0.28-0.252-3.252,0,1,0,90,false,stim,false,0,680.0999999996275,1,0,0,70539,task3,646357,false,false,853,image-keyboard-response,4
true,14,1,1,1,true,z,false,true,0.0-2.0-0.28-0.253-3.253,0,1,0,90,false,stim,false,1,704.5999999996275,1,1,1,70539,task3,648574,false,false,856,image-keyboard-response,5
true,14,0,1,1,false,z,false,false,0.0-2.0-0.28-0.254-3.254,0,1,0,81,false,stim,true,0,809.1999999992549,1,0,2,70539,task3,650894,false,false,859,image-keyboard-response,6
true,14,0,1,2,false,d,false,false,0.0-2.0-0.28-0.255-3.255,0,1,0,81,false,stim,true,0,722.1999999992549,1,0,0,70539,task3,653126,false,false,862,image-keyboard-response,7
true,14,1,1,1,true,z,false,true,0.0-2.0-0.28-0.256-3.256,0,1,0,90,false,stim,false,1,440.7999999988824,1,1,1,70539,task3,655078,false,false,865,image-keyboard-response,8
true,14,1,1,1,true,z,false,true,0.0-2.0-0.28-0.257-3.257,0,1,0,90,false,stim,false,1,618.0,1,1,1,70539,task3,657206,false,false,868,image-keyboard-response,9
true,14,2,1,1,false,z,true,false,0.0-2.0-0.28-0.258-3.258,0,1,0,68,false,stim,false,0,594.7999999988824,1,0,2,70539,task3,659318,false,false,871,image-keyboard-response,10
true,14,2,1,1,false,z,true,false,0.0-2.0-0.28-0.259-3.259,0,1,0,68,false,stim,false,0,445.7000000011176,1,0,2,70539,task3,661279,false,false,874,image-keyboard-response,11
true,14,2,1,2,true,d,false,true,0.0-2.0-0.28-0.260-3.260,0,1,0,68,false,stim,false,0,919.8000000007451,1,0,0,70539,task3,663710,false,false,877,image-keyboard-response,12
true,14,1,1,1,true,z,false,true,0.0-2.0-0.29-0.261-3.261,0,1,0,90,false,stim,false,1,498.80000000074506,1,1,1,70539,task3,665718,false,false,880,image-keyboard-response,13
true,14,2,1,2,true,d,false,true,0.0-2.0-0.29-0.262-3.262,0,1,0,68,false,stim,false,0,496.7999999988824,1,0,0,70539,task3,667726,false,false,883,image-keyboard-response,14
true,14,2,1,2,true,d,false,true,0.0-2.0-0.29-0.263-3.263,0,1,0,68,false,stim,false,0,619.5999999996275,1,0,0,70539,task3,669854,false,false,886,image-keyboard-response,15
true,14,1,1,1,true,z,false,true,0.0-2.0-0.29-0.264-3.264,0,1,0,90,false,stim,false,0,601.0,1,0,2,70539,task3,671967,false,false,889,image-keyboard-response,16
true,14,1,1,1,true,z,false,true,0.0-2.0-0.29-0.265-3.265,0,1,0,90,false,stim,false,1,575.7999999988824,1,1,1,70539,task3,674054,false,false,892,image-keyboard-response,17
true,14,1,1,1,true,z,false,true,0.0-2.0-0.29-0.266-3.266,0,1,0,90,false,stim,false,0,736.1999999992549,1,0,2,70539,task3,676303,false,false,895,image-keyboard-response,18
true,14,2,1,2,true,d,false,false,0.0-2.0-0.29-0.267-3.267,0,1,0,68,false,stim,false,0,504.0,1,0,0,70539,task3,678319,false,true,898,image-keyboard-response,19
true,14,1,1,1,true,z,false,true,0.0-2.0-0.29-0.268-3.268,0,1,0,90,false,stim,false,1,431.40000000037253,1,1,1,70539,task3,680263,false,false,901,image-keyboard-response,20
true,14,1,1,1,true,z,false,true,0.0-2.0-0.29-0.269-3.269,0,1,0,90,false,stim,false,0,449.5,1,1,2,70539,task3,682224,false,false,904,image-keyboard-response,21
true,14,1,1,1,true,z,false,false,0.0-2.0-0.30-0.270-3.270,0,1,0,90,false,stim,false,0,590.6999999992549,1,1,2,70539,task3,684326,false,true,907,image-keyboard-response,22
true,14,2,1,2,true,d,false,true,0.0-2.0-0.30-0.271-3.271,0,1,0,68,false,stim,false,0,538.0,1,0,0,70539,task3,686375,false,false,910,image-keyboard-response,23
true,15,1,2,1,true,z,false,true,0.0-2.0-0.30-0.272-3.272,0,1,1,90,true,stim,false,1,528.3000000007451,1,1,1,70539,task3,688415,false,false,913,image-keyboard-response,1
true,15,1,2,1,true,z,false,true,0.0-2.0-0.30-0.273-3.273,0,1,1,90,false,stim,false,1,768.5,1,1,2,70539,task3,690695,false,false,916,image-keyboard-response,2
true,15,1,2,1,true,z,false,true,0.0-2.0-0.30-0.274-3.274,0,1,1,90,false,stim,false,1,519.0999999996275,1,1,2,70539,task3,692728,false,false,919,image-keyboard-response,3
true,15,2,2,0,false,q,false,false,0.0-2.0-0.30-0.275-3.275,0,1,1,68,false,stim,true,2,504.0,1,0,0,70539,task3,694743,false,false,922,image-keyboard-response,4
true,15,1,2,1,true,z,false,true,0.0-2.0-0.30-0.276-3.276,0,1,1,90,false,stim,false,1,538.0999999996275,1,1,1,70539,task3,696791,false,false,925,image-keyboard-response,5
true,15,2,2,0,false,q,false,false,0.0-2.0-0.30-0.277-3.277,0,1,1,68,false,stim,true,2,558.9000000003725,1,0,0,70539,task3,698863,false,false,928,image-keyboard-response,6
true,15,1,2,1,true,z,false,true,0.0-2.0-0.30-0.278-3.278,0,1,1,90,false,stim,false,1,430.19999999925494,1,1,1,70539,task3,700807,false,false,931,image-keyboard-response,7
true,15,1,2,0,false,q,true,false,0.0-2.0-0.31-0.279-3.279,0,1,1,90,false,stim,false,2,692.0,1,0,0,70539,task3,703008,false,false,934,image-keyboard-response,8
true,15,1,2,1,true,z,false,true,0.0-2.0-0.31-0.280-3.280,0,1,1,90,false,stim,false,1,418.2999999988824,1,1,1,70539,task3,704936,false,false,937,image-keyboard-response,9
true,15,0,2,0,true,q,false,true,0.0-2.0-0.31-0.281-3.281,0,1,1,81,false,stim,false,2,440.5,1,0,0,70539,task3,706888,false,false,940,image-keyboard-response,10
true,15,1,2,1,true,z,false,true,0.0-2.0-0.31-0.282-3.282,0,1,1,90,false,stim,false,1,696.6999999992549,1,1,2,70539,task3,709096,false,false,943,image-keyboard-response,11
true,15,1,2,1,true,z,false,true,0.0-2.0-0.31-0.283-3.283,0,1,1,90,false,stim,false,1,431.7999999988824,1,1,2,70539,task3,711040,false,false,946,image-keyboard-response,12
true,15,0,2,0,true,q,false,true,0.0-2.0-0.31-0.284-3.284,0,1,1,81,false,stim,false,2,473.30000000074506,1,0,0,70539,task3,713025,false,false,949,image-keyboard-response,13
true,15,1,2,1,true,z,false,true,0.0-2.0-0.31-0.285-3.285,0,1,1,90,false,stim,false,1,487.7999999988824,1,1,2,70539,task3,715024,false,false,952,image-keyboard-response,14
true,15,1,2,1,true,z,false,true,0.0-2.0-0.31-0.286-3.286,0,1,1,90,false,stim,false,1,420.59999999962747,1,1,1,70539,task3,716960,false,false,955,image-keyboard-response,15
true,15,1,2,1,true,z,false,true,0.0-2.0-0.31-0.287-3.287,0,1,1,90,false,stim,false,1,480.5,1,1,1,70539,task3,718952,false,false,958,image-keyboard-response,16
true,15,1,2,1,true,z,false,true,0.0-2.0-0.32-0.288-3.288,0,1,1,90,false,stim,false,1,486.5,1,1,2,70539,task3,720952,false,false,961,image-keyboard-response,17
true,15,1,2,1,true,z,false,true,0.0-2.0-0.32-0.289-3.289,0,1,1,90,false,stim,false,1,495.59999999962747,1,1,1,70539,task3,722960,false,false,964,image-keyboard-response,18
true,15,1,2,1,true,z,false,true,0.0-2.0-0.32-0.290-3.290,0,1,1,90,false,stim,false,1,465.30000000074506,1,1,2,70539,task3,724937,false,false,967,image-keyboard-response,19
true,15,0,2,0,true,q,false,true,0.0-2.0-0.32-0.291-3.291,0,1,1,81,false,stim,false,2,442.09999999962747,1,0,0,70539,task3,726896,false,false,970,image-keyboard-response,20
true,15,1,2,1,true,z,false,true,0.0-2.0-0.32-0.292-3.292,0,1,1,90,false,stim,false,1,424.40000000037253,1,0,1,70539,task3,728832,false,false,973,image-keyboard-response,21
true,15,1,2,1,true,z,false,true,0.0-2.0-0.32-0.293-3.293,0,1,1,90,false,stim,false,1,456.7999999988824,1,0,1,70539,task3,730801,false,false,976,image-keyboard-response,22
true,15,0,2,0,true,q,false,true,0.0-2.0-0.32-0.294-3.294,0,1,1,81,false,stim,false,2,552.2999999988824,1,0,0,70539,task3,732864,false,false,979,image-keyboard-response,23
true,16,0,1,2,false,d,false,false,0.0-2.0-0.32-0.295-3.295,0,0,1,81,true,stim,true,0,432.2999999988824,1,0,0,70539,task3,734808,false,false,982,image-keyboard-response,1
true,16,1,1,1,true,z,false,true,0.0-2.0-0.32-0.296-3.296,0,0,1,90,false,stim,false,1,528.5999999996275,1,1,2,70539,task3,736849,false,false,985,image-keyboard-response,2
true,16,1,1,2,false,d,false,false,0.0-2.0-0.33-0.297-3.297,0,0,1,90,false,stim,true,1,407.5,1,0,1,70539,task3,738769,false,false,988,image-keyboard-response,3
true,16,0,1,2,false,d,false,false,0.0-2.0-0.33-0.298-3.298,0,0,1,81,false,stim,true,0,472.59999999962747,1,0,0,70539,task3,740753,false,false,991,image-keyboard-response,4
true,16,1,1,1,true,z,false,true,0.0-2.0-0.33-0.299-3.299,0,0,1,90,false,stim,false,1,528.6999999992549,1,1,2,70539,task3,742793,false,false,994,image-keyboard-response,5
true,16,1,1,2,false,d,true,false,0.0-2.0-0.33-0.300-3.300,0,0,1,90,false,stim,false,0,415.90000000037253,1,0,0,70539,task3,744721,false,false,997,image-keyboard-response,6
true,16,1,1,1,true,z,false,true,0.0-2.0-0.33-0.301-3.301,0,0,1,90,false,stim,false,1,427.19999999925494,1,1,2,70539,task3,746657,false,false,1000,image-keyboard-response,7
true,16,2,1,1,false,z,true,false,0.0-2.0-0.33-0.302-3.302,0,0,1,68,false,stim,false,1,588.0999999996275,1,1,2,70539,task3,748762,false,false,1003,image-keyboard-response,8
true,16,2,1,2,true,d,false,true,0.0-2.0-0.33-0.303-3.303,0,0,1,68,false,stim,false,1,583.3000000007451,1,0,1,70539,task3,750857,false,false,1006,image-keyboard-response,9
true,16,2,1,2,true,d,false,true,0.0-2.0-0.33-0.304-3.304,0,0,1,68,false,stim,false,0,703.9000000003725,1,0,0,70539,task3,753073,false,false,1009,image-keyboard-response,10
true,16,2,1,2,true,d,false,true,0.0-2.0-0.33-0.305-3.305,0,0,1,68,false,stim,false,1,1036.0999999996275,1,0,1,70539,task3,755617,false,false,1012,image-keyboard-response,11
true,16,1,1,1,true,z,false,true,0.0-2.0-0.34-0.306-3.306,0,0,1,90,false,stim,false,1,426.09999999962747,1,1,2,70539,task3,757561,false,false,1015,image-keyboard-response,12
true,16,2,1,2,true,d,false,true,0.0-2.0-0.34-0.307-3.307,0,0,1,68,false,stim,false,1,564.4000000003725,1,0,1,70539,task3,759634,false,false,1018,image-keyboard-response,13
true,16,2,1,2,true,d,false,false,0.0-2.0-0.34-0.308-3.308,0,0,1,68,false,stim,false,1,495.7999999988824,1,0,1,70539,task3,761641,false,true,1021,image-keyboard-response,14
true,16,2,1,2,true,d,false,true,0.0-2.0-0.34-0.309-3.309,0,0,1,68,false,stim,false,0,528.5,1,0,0,70539,task3,763681,false,false,1024,image-keyboard-response,15
true,16,2,1,2,true,d,false,true,0.0-2.0-0.34-0.310-3.310,0,0,1,68,false,stim,false,1,504.2999999988824,1,0,1,70539,task3,765698,false,false,1027,image-keyboard-response,16
true,16,1,1,1,true,z,false,true,0.0-2.0-0.34-0.311-3.311,0,0,1,90,false,stim,false,1,512.5,1,1,2,70539,task3,767722,false,false,1030,image-keyboard-response,17
true,16,1,1,1,true,z,false,true,0.0-2.0-0.34-0.312-3.312,0,0,1,90,false,stim,false,1,457.2000000011176,1,1,2,70539,task3,769691,false,false,1033,image-keyboard-response,18
true,16,2,1,2,true,d,false,true,0.0-2.0-0.34-0.313-3.313,0,0,1,68,false,stim,false,0,519.5999999996275,1,0,0,70539,task3,771722,false,false,1036,image-keyboard-response,19
true,16,2,1,2,true,d,false,true,0.0-2.0-0.34-0.314-3.314,0,0,1,68,false,stim,false,0,456.40000000037253,1,0,0,70539,task3,773690,false,false,1039,image-keyboard-response,20
true,16,2,1,2,true,d,false,true,0.0-2.0-0.35-0.315-3.315,0,0,1,68,false,stim,false,1,808.1999999992549,1,0,1,70539,task3,776010,false,false,1042,image-keyboard-response,21
true,16,2,1,2,true,d,false,true,0.0-2.0-0.35-0.316-3.316,0,0,1,68,false,stim,false,0,504.30000000074506,1,0,0,70539,task3,778026,false,false,1045,image-keyboard-response,22
true,16,2,1,2,true,d,false,true,0.0-2.0-0.35-0.317-3.317,0,0,1,68,false,stim,false,0,441.30000000074506,1,0,0,70539,task3,779979,false,false,1048,image-keyboard-response,23
true,16,1,1,1,true,z,false,true,0.0-2.0-0.35-0.318-3.318,0,0,1,90,false,stim,false,1,839.7999999988824,1,1,2,70539,task3,782330,false,false,1051,image-keyboard-response,24
true,16,2,1,2,true,d,false,false,0.0-2.0-0.35-0.319-3.319,0,0,1,68,false,stim,false,1,576.9000000003725,1,1,1,70539,task3,784418,false,true,1054,image-keyboard-response,25
true,16,2,1,2,true,d,false,true,0.0-2.0-0.35-0.320-3.320,0,0,1,68,false,stim,false,0,640.7999999988824,1,0,0,70539,task3,786570,false,false,1057,image-keyboard-response,26
true,16,1,1,1,true,z,false,true,0.0-2.0-0.35-0.321-3.321,0,0,1,90,false,stim,false,1,471.0,1,1,2,70539,task3,788554,false,false,1060,image-keyboard-response,27
true,16,2,1,2,true,d,false,false,0.0-2.0-0.35-0.322-3.322,0,0,1,68,false,stim,false,1,537.7000000011176,1,1,1,70539,task3,790603,false,true,1063,image-keyboard-response,28
true,17,2,2,1,false,z,true,false,0.0-2.0-0.35-0.323-3.323,0,1,1,68,true,stim,false,1,527.5999999996275,1,1,2,70539,task3,792642,false,false,1066,image-keyboard-response,1
true,17,2,2,2,true,d,false,true,0.0-2.0-0.36-0.324-3.324,0,1,1,68,false,stim,false,2,440.30000000074506,1,1,1,70539,task3,794594,false,false,1069,image-keyboard-response,2
true,17,2,2,1,false,z,false,false,0.0-2.0-0.36-0.325-3.325,0,1,1,68,false,stim,true,2,459.0,1,0,0,70539,task3,796563,false,false,1072,image-keyboard-response,3
true,17,1,2,1,true,z,false,true,0.0-2.0-0.36-0.326-3.326,0,1,1,90,false,stim,false,1,351.8999999985099,1,1,2,70539,task3,798427,false,false,1075,image-keyboard-response,4
true,17,1,2,1,true,z,false,true,0.0-2.0-0.36-0.327-3.327,0,1,1,90,false,stim,false,1,448.2999999988824,1,1,2,70539,task3,800387,false,false,1078,image-keyboard-response,5
true,17,2,2,2,true,d,false,true,0.0-2.0-0.36-0.328-3.328,0,1,1,68,false,stim,false,2,592.2000000011176,1,1,1,70539,task3,802491,false,false,1081,image-keyboard-response,6
true,17,2,2,1,false,z,false,false,0.0-2.0-0.36-0.329-3.329,0,1,1,68,false,stim,true,2,460.09999999962747,1,1,0,70539,task3,804459,false,false,1084,image-keyboard-response,7
true,17,1,2,1,true,z,false,true,0.0-2.0-0.36-0.330-3.330,0,1,1,90,false,stim,false,2,643.0,1,1,0,70539,task3,806611,false,false,1087,image-keyboard-response,8
true,17,2,2,2,true,d,false,true,0.0-2.0-0.36-0.331-3.331,0,1,1,68,false,stim,false,2,772.0999999996275,1,0,1,70539,task3,808891,false,false,1090,image-keyboard-response,9
true,17,1,2,1,true,z,false,true,0.0-2.0-0.36-0.332-3.332,0,1,1,90,false,stim,false,1,488.09999999962747,1,1,2,70539,task3,810891,false,false,1093,image-keyboard-response,10
true,17,1,2,1,true,z,false,true,0.0-2.0-0.37-0.333-3.333,0,1,1,90,false,stim,false,2,876.4000000003725,1,1,0,70539,task3,813276,false,false,1096,image-keyboard-response,11
true,18,1,2,1,true,z,false,true,0.0-2.0-0.37-0.334-3.334,1,0,1,90,true,stim,false,1,682.5,1,1,2,70539,task3,815467,false,false,1099,image-keyboard-response,1
true,18,1,2,1,true,z,false,true,0.0-2.0-0.37-0.335-3.335,1,0,1,90,false,stim,false,1,668.2999999988824,1,1,0,70539,task3,817659,false,false,1102,image-keyboard-response,2
true,18,1,2,1,true,z,false,true,0.0-2.0-0.37-0.336-3.336,1,0,1,90,false,stim,false,1,603.5999999996275,1,1,2,70539,task3,819771,false,false,1105,image-keyboard-response,3
true,18,2,2,0,false,q,false,false,0.0-2.0-0.37-0.337-3.337,1,0,1,68,false,stim,true,2,831.6999999992549,1,0,1,70539,task3,822115,false,false,1108,image-keyboard-response,4
true,18,2,2,0,false,q,false,true,0.0-2.0-0.37-0.338-3.338,1,0,1,68,false,stim,true,2,518.5999999996275,1,0,1,70539,task3,824140,false,true,1111,image-keyboard-response,5
true,18,1,2,1,true,z,false,true,0.0-2.0-0.37-0.339-3.339,1,0,1,90,false,stim,false,1,445.0,1,1,0,70539,task3,826100,false,false,1114,image-keyboard-response,6
true,18,2,2,0,false,q,false,false,0.0-2.0-0.37-0.340-3.340,1,0,1,68,false,stim,true,2,784.0999999996275,1,1,1,70539,task3,828396,false,false,1117,image-keyboard-response,7
true,18,1,2,1,true,z,false,false,0.0-2.0-0.37-0.341-3.341,1,0,1,90,false,stim,false,1,535.6999999992549,1,0,2,70539,task3,830444,false,true,1120,image-keyboard-response,8
true,18,1,2,0,false,q,true,false,0.0-2.0-0.38-0.342-3.342,1,0,1,90,false,stim,false,2,527.4000000003725,1,1,1,70539,task3,832484,false,false,1123,image-keyboard-response,9
true,18,2,2,0,false,q,false,false,0.0-2.0-0.38-0.343-3.343,1,0,1,68,false,stim,true,2,453.59999999962747,1,1,1,70539,task3,834445,false,false,1126,image-keyboard-response,10
true,19,0,2,2,false,d,true,false,0.0-2.0-0.38-0.344-3.344,1,1,0,81,true,stim,false,1,663.5,1,0,2,70539,task3,836620,false,false,1129,image-keyboard-response,1
true,19,2,2,2,true,d,false,true,0.0-2.0-0.38-0.345-3.345,1,1,0,68,false,stim,false,1,415.90000000037253,1,0,2,70539,task3,838548,false,false,1132,image-keyboard-response,2
true,19,1,2,1,true,z,false,true,0.0-2.0-0.38-0.346-3.346,1,1,0,90,false,stim,false,1,739.0999999996275,1,1,0,70539,task3,840796,false,false,1135,image-keyboard-response,3
true,19,2,2,2,true,d,false,true,0.0-2.0-0.38-0.347-3.347,1,1,0,68,false,stim,false,1,560.5999999996275,1,0,2,70539,task3,842868,false,false,1138,image-keyboard-response,4
true,19,1,2,1,true,z,false,false,0.0-2.0-0.38-0.348-3.348,1,1,0,90,false,stim,false,1,520.5999999996275,1,1,0,70539,task3,844901,false,true,1141,image-keyboard-response,5
true,19,0,2,0,true,q,false,true,0.0-2.0-0.38-0.349-3.349,1,1,0,81,false,stim,false,0,596.3000000007451,1,1,1,70539,task3,847004,false,false,1144,image-keyboard-response,6
true,19,1,2,1,true,z,false,true,0.0-2.0-0.38-0.350-3.350,1,1,0,90,false,stim,false,1,496.30000000074506,1,1,0,70539,task3,849013,false,false,1147,image-keyboard-response,7
true,19,1,2,1,true,z,false,true,0.0-2.0-0.39-0.351-3.351,1,1,0,90,false,stim,false,1,480.0,1,1,0,70539,task3,851005,false,false,1150,image-keyboard-response,8
true,19,1,2,1,true,z,false,true,0.0-2.0-0.39-0.352-3.352,1,1,0,90,false,stim,false,1,496.09999999962747,1,0,0,70539,task3,853013,false,false,1153,image-keyboard-response,9
true,19,0,2,0,true,q,false,true,0.0-2.0-0.39-0.353-3.353,1,1,0,81,false,stim,false,0,488.90000000037253,1,0,1,70539,task3,855013,false,false,1156,image-keyboard-response,10
true,19,0,2,0,true,q,false,true,0.0-2.0-0.39-0.354-3.354,1,1,0,81,false,stim,false,0,491.90000000037253,1,0,1,70539,task3,857013,false,false,1159,image-keyboard-response,11
true,19,1,2,1,true,z,false,true,0.0-2.0-0.39-0.355-3.355,1,1,0,90,false,stim,false,1,536.2999999988824,1,0,0,70539,task3,859061,false,false,1162,image-keyboard-response,12
true,19,2,2,2,true,d,false,true,0.0-2.0-0.39-0.356-3.356,1,1,0,68,false,stim,false,1,402.59999999962747,1,1,2,70539,task3,860973,false,false,1165,image-keyboard-response,13
true,20,1,1,1,true,z,false,true,0.0-2.0-0.39-0.357-3.357,0,0,1,90,true,stim,false,0,552.9000000003725,1,0,1,70539,task3,863037,false,false,1168,image-keyboard-response,1
true,20,2,1,2,true,d,false,true,0.0-2.0-0.39-0.358-3.358,0,0,1,68,false,stim,false,2,604.2000000011176,1,1,2,70539,task3,865158,false,false,1171,image-keyboard-response,2
true,20,2,1,2,true,d,false,true,0.0-2.0-0.39-0.359-3.359,0,0,1,68,false,stim,false,2,831.5,1,1,2,70539,task3,867501,false,false,1174,image-keyboard-response,3
true,20,2,1,2,true,d,false,true,0.0-2.0-0.40-0.360-3.360,0,0,1,68,false,stim,false,2,558.5,1,1,2,70539,task3,869573,false,false,1177,image-keyboard-response,4
true,20,1,1,2,false,d,false,false,0.0-2.0-0.40-0.361-3.361,0,0,1,90,false,stim,true,1,554.1999999992549,1,0,0,70539,task3,871637,false,false,1180,image-keyboard-response,5
true,20,1,1,1,true,z,false,true,0.0-2.0-0.40-0.362-3.362,0,0,1,90,false,stim,false,0,563.5,1,0,1,70539,task3,873717,false,false,1183,image-keyboard-response,6
true,20,0,1,2,false,d,true,false,0.0-2.0-0.40-0.363-3.363,0,0,1,81,false,stim,false,1,615.8000000007451,1,0,0,70539,task3,875846,false,false,1186,image-keyboard-response,7
true,20,1,1,1,true,z,false,true,0.0-2.0-0.40-0.364-3.364,0,0,1,90,false,stim,false,0,466.5,1,0,1,70539,task3,877821,false,false,1189,image-keyboard-response,8
true,20,1,1,1,true,z,false,true,0.0-2.0-0.40-0.365-3.365,0,0,1,90,false,stim,false,0,592.0999999996275,1,0,1,70539,task3,879925,false,false,1192,image-keyboard-response,9
true,20,2,1,2,true,d,false,false,0.0-2.0-0.40-0.366-3.366,0,0,1,68,false,stim,false,2,604.0999999996275,1,1,2,70539,task3,882038,false,true,1195,image-keyboard-response,10
true,20,0,1,2,false,d,true,false,0.0-2.0-0.40-0.367-3.367,0,0,1,81,false,stim,false,2,631.0,1,1,2,70539,task3,884181,false,false,1198,image-keyboard-response,11
true,20,2,1,2,true,d,false,true,0.0-2.0-0.40-0.368-3.368,0,0,1,68,false,stim,false,1,708.5,1,0,0,70539,task3,886407,false,false,1201,image-keyboard-response,12
true,20,2,1,2,true,d,false,true,0.0-2.0-0.41-0.369-3.369,0,0,1,68,false,stim,false,1,478.2999999988824,1,0,0,70539,task3,888398,false,false,1204,image-keyboard-response,13
true,20,1,1,1,true,z,false,true,0.0-2.0-0.41-0.370-3.370,0,0,1,90,false,stim,false,0,480.19999999925494,1,0,1,70539,task3,890390,false,false,1207,image-keyboard-response,14
true,20,2,1,2,true,d,false,true,0.0-2.0-0.41-0.371-3.371,0,0,1,68,false,stim,false,1,434.7000000011176,1,0,0,70539,task3,892341,false,false,1210,image-keyboard-response,15
true,20,1,1,2,false,d,true,false,0.0-2.0-0.41-0.372-3.372,0,0,1,90,false,stim,false,2,867.6999999992549,1,1,2,70539,task3,894718,false,false,1213,image-keyboard-response,16
true,20,1,1,1,true,z,false,false,0.0-2.0-0.41-0.373-3.373,0,0,1,90,false,stim,false,0,680.5,1,0,1,70539,task3,896911,false,true,1216,image-keyboard-response,17
true,20,0,1,2,false,d,true,false,0.0-2.0-0.41-0.374-3.374,0,0,1,81,false,stim,false,2,903.4000000003725,1,1,2,70539,task3,899326,false,false,1219,image-keyboard-response,18
true,20,2,1,2,true,d,false,false,0.0-2.0-0.41-0.375-3.375,0,0,1,68,false,stim,false,1,918.2999999988824,1,0,0,70539,task3,901758,false,true,1222,image-keyboard-response,19
true,20,2,1,2,true,d,false,true,0.0-2.0-0.41-0.376-3.376,0,0,1,68,false,stim,false,2,842.5,1,1,2,70539,task3,904118,false,false,1225,image-keyboard-response,20
true,20,1,1,1,true,z,false,true,0.0-2.0-0.41-0.377-3.377,0,0,1,90,false,stim,false,0,574.1999999992549,1,0,1,70539,task3,906207,false,false,1228,image-keyboard-response,21
true,20,1,1,1,true,z,false,true,0.0-2.0-0.42-0.378-3.378,0,0,1,90,false,stim,false,0,864.8000000007451,1,0,1,70539,task3,908583,false,false,1231,image-keyboard-response,22
true,20,2,1,2,true,d,false,true,0.0-2.0-0.42-0.379-3.379,0,0,1,68,false,stim,false,1,511.40000000037253,1,0,0,70539,task3,910607,false,false,1234,image-keyboard-response,23
true,20,1,1,1,true,z,false,true,0.0-2.0-0.42-0.380-3.380,0,0,1,90,false,stim,false,0,544.1999999992549,1,0,1,70539,task3,912663,false,false,1237,image-keyboard-response,24
true,20,1,1,1,true,z,false,true,0.0-2.0-0.42-0.381-3.381,0,0,1,90,false,stim,false,0,414.2999999988824,1,0,1,70539,task3,914591,false,false,1240,image-keyboard-response,25
true,21,2,1,2,true,d,false,true,0.0-2.0-0.42-0.382-3.382,0,0,1,68,true,stim,false,2,495.7000000011176,1,1,2,70539,task3,916599,false,false,1243,image-keyboard-response,1
true,21,2,1,2,true,d,false,true,0.0-2.0-0.42-0.383-3.383,0,0,1,68,false,stim,false,2,436.19999999925494,1,1,2,70539,task3,918543,false,false,1246,image-keyboard-response,2
true,21,2,1,0,false,q,false,false,0.0-2.0-0.42-0.384-3.384,0,0,1,68,false,stim,true,2,625.0,1,0,0,70539,task3,920680,false,false,1249,image-keyboard-response,3
true,21,2,1,2,true,d,false,true,0.0-2.0-0.42-0.385-3.385,0,0,1,68,false,stim,false,2,1042.5,1,1,2,70539,task3,923231,false,false,1252,image-keyboard-response,4
true,21,2,1,0,false,q,false,false,0.0-2.0-0.42-0.386-3.386,0,0,1,68,false,stim,true,2,470.59999999962747,1,0,0,70539,task3,925215,false,false,1255,image-keyboard-response,5
true,21,2,1,2,true,d,false,true,0.0-2.0-0.43-0.387-3.387,0,0,1,68,false,stim,false,2,607.9000000003725,1,1,2,70539,task3,927335,false,false,1258,image-keyboard-response,6
true,21,1,1,2,false,d,false,false,0.0-2.0-0.43-0.388-3.388,0,0,1,90,false,stim,true,1,423.69999999925494,1,0,1,70539,task3,929271,false,false,1261,image-keyboard-response,7
true,21,1,1,0,false,q,true,false,0.0-2.0-0.43-0.389-3.389,0,0,1,90,false,stim,false,2,904.5999999996275,1,0,0,70539,task3,931688,false,false,1264,image-keyboard-response,8
true,21,2,1,2,true,d,false,true,0.0-2.0-0.43-0.390-3.390,0,0,1,68,false,stim,false,2,465.5,1,1,2,70539,task3,933671,false,false,1267,image-keyboard-response,9
true,21,2,1,2,true,d,false,true,0.0-2.0-0.43-0.391-3.391,0,0,1,68,false,stim,false,2,824.7000000011176,1,1,2,70539,task3,936008,false,false,1270,image-keyboard-response,10
true,21,0,1,0,true,q,false,true,0.0-2.0-0.43-0.392-3.392,0,0,1,81,false,stim,false,2,449.19999999925494,1,0,0,70539,task3,937967,false,false,1273,image-keyboard-response,11
true,21,0,1,2,false,d,true,false,0.0-2.0-0.43-0.393-3.393,0,0,1,81,false,stim,false,1,916.5999999996275,1,0,1,70539,task3,940391,false,false,1276,image-keyboard-response,12
true,21,0,1,0,true,q,false,true,0.0-2.0-0.43-0.394-3.394,0,0,1,81,false,stim,false,2,767.4000000003725,1,0,0,70539,task3,942672,false,false,1279,image-keyboard-response,13
true,21,2,1,2,true,d,false,true,0.0-2.0-0.43-0.395-3.395,0,0,1,68,false,stim,false,1,611.8000000007451,1,0,1,70539,task3,944792,false,false,1282,image-keyboard-response,14
true,21,0,1,0,true,q,false,true,0.0-2.0-0.44-0.396-3.396,0,0,1,81,false,stim,false,2,511.69999999925494,1,0,0,70539,task3,946816,false,false,1285,image-keyboard-response,15
true,21,2,1,2,true,d,false,true,0.0-2.0-0.44-0.397-3.397,0,0,1,68,false,stim,false,2,483.2000000011176,1,1,2,70539,task3,948816,false,false,1288,image-keyboard-response,16
true,21,2,1,2,true,d,false,false,0.0-2.0-0.44-0.398-3.398,0,0,1,68,false,stim,false,1,1316.199999999255,1,0,1,70539,task3,951640,false,true,1291,image-keyboard-response,17
true,21,0,1,0,true,q,false,true,0.0-2.0-0.44-0.399-3.399,0,0,1,81,false,stim,false,2,519.5,1,0,0,70539,task3,953673,false,false,1294,image-keyboard-response,18
true,21,2,1,2,true,d,false,true,0.0-2.0-0.44-0.400-3.400,0,0,1,68,false,stim,false,2,545.0999999996275,1,1,2,70539,task3,955728,false,false,1297,image-keyboard-response,19
true,21,2,1,2,true,d,false,true,0.0-2.0-0.44-0.401-3.401,0,0,1,68,false,stim,false,2,528.0999999996275,1,1,2,70539,task3,957768,false,false,1300,image-keyboard-response,20
true,21,2,1,2,true,d,false,true,0.0-2.0-0.44-0.402-3.402,0,0,1,68,false,stim,false,1,727.0,1,0,1,70539,task3,960016,false,false,1303,image-keyboard-response,21
true,21,2,1,2,true,d,false,true,0.0-2.0-0.44-0.403-3.403,0,0,1,68,false,stim,false,1,514.1999999992549,1,0,1,70539,task3,962040,false,false,1306,image-keyboard-response,22
true,21,0,1,0,true,q,false,false,0.0-2.0-0.44-0.404-3.404,0,0,1,81,false,stim,false,2,496.2000000011176,1,1,0,70539,task3,964049,false,true,1309,image-keyboard-response,23
true,21,2,1,2,true,d,false,true,0.0-2.0-0.45-0.405-3.405,0,0,1,68,false,stim,false,2,487.09999999962747,1,0,2,70539,task3,966049,false,false,1312,image-keyboard-response,24
true,21,2,1,2,true,d,false,true,0.0-2.0-0.45-0.406-3.406,0,0,1,68,false,stim,false,1,483.2000000011176,1,0,1,70539,task3,968048,false,false,1315,image-keyboard-response,25
true,21,0,1,0,true,q,false,true,0.0-2.0-0.45-0.407-3.407,0,0,1,81,false,stim,false,2,432.2999999988824,1,1,0,70539,task3,969993,false,false,1318,image-keyboard-response,26
true,22,2,1,1,false,z,false,false,0.0-2.0-0.45-0.408-3.408,1,0,0,68,true,stim,true,2,544.7999999988824,1,0,2,70539,task3,972049,false,false,1321,image-keyboard-response,1
true,22,2,1,1,false,z,false,false,0.0-2.0-0.45-0.409-3.409,1,0,0,68,false,stim,true,2,423.7999999988824,1,0,2,70539,task3,973985,false,false,1324,image-keyboard-response,2
true,22,0,1,0,true,q,false,true,0.0-2.0-0.45-0.410-3.410,1,0,0,81,false,stim,false,0,557.9000000003725,1,1,0,70539,task3,976057,false,false,1327,image-keyboard-response,3
true,22,2,1,0,false,q,false,false,0.0-2.0-0.45-0.411-3.411,1,0,0,68,false,stim,true,2,535.2999999988824,1,0,1,70539,task3,978105,false,false,1330,image-keyboard-response,4
true,22,0,1,0,true,q,false,true,0.0-2.0-0.45-0.412-3.412,1,0,0,81,false,stim,false,0,487.7999999988824,1,1,0,70539,task3,980105,false,false,1333,image-keyboard-response,5
true,22,0,1,0,true,q,false,false,0.0-2.0-0.45-0.413-3.413,1,0,0,81,false,stim,false,2,451.2999999988824,1,0,1,70539,task3,982073,false,true,1336,image-keyboard-response,6
true,22,0,1,0,true,q,false,true,0.0-2.0-0.46-0.414-3.414,1,0,0,81,false,stim,false,0,416.0,1,1,0,70539,task3,984001,false,false,1339,image-keyboard-response,7
true,22,1,1,0,false,q,true,false,0.0-2.0-0.46-0.415-3.415,1,0,0,90,false,stim,false,2,490.2000000011176,1,0,1,70539,task3,986009,false,false,1342,image-keyboard-response,8
true,22,1,1,1,true,z,false,false,0.0-2.0-0.46-0.416-3.416,1,0,0,90,false,stim,false,2,862.9000000003725,1,0,2,70539,task3,988386,false,true,1345,image-keyboard-response,9
true,22,0,1,1,false,z,true,true,0.0-2.0-0.46-0.417-3.417,1,0,0,81,false,stim,false,2,540.0999999996275,1,0,2,70539,task3,990433,false,true,1348,image-keyboard-response,10
true,22,0,1,0,true,q,false,true,0.0-2.0-0.46-0.418-3.418,1,0,0,81,false,stim,false,0,923.0999999996275,1,1,0,70539,task3,992873,false,false,1351,image-keyboard-response,11
true,22,1,1,0,false,q,true,false,0.0-2.0-0.46-0.419-3.419,1,0,0,90,false,stim,false,2,799.5,1,0,1,70539,task3,995186,false,false,1354,image-keyboard-response,12
true,22,2,1,0,false,q,false,false,0.0-2.0-0.46-0.420-3.420,1,0,0,68,false,stim,true,2,559.6999999992549,1,0,1,70539,task3,997257,false,false,1357,image-keyboard-response,13
true,22,0,1,0,true,q,false,true,0.0-2.0-0.46-0.421-3.421,1,0,0,81,false,stim,false,0,602.4000000003725,1,1,0,70539,task3,999370,false,false,1360,image-keyboard-response,14
true,22,0,1,1,false,z,true,false,0.0-2.0-0.46-0.422-3.422,1,0,0,81,false,stim,false,2,443.69999999925494,1,0,2,70539,task3,1001330,false,false,1363,image-keyboard-response,15
true,22,0,1,0,true,q,false,true,0.0-2.0-0.47-0.423-3.423,1,0,0,81,false,stim,false,2,518.7000000011176,1,0,1,70539,task3,1003362,false,false,1366,image-keyboard-response,16
true,22,0,1,1,false,z,true,false,0.0-2.0-0.47-0.424-3.424,1,0,0,81,false,stim,false,2,481.7999999988824,1,0,2,70539,task3,1005354,false,false,1369,image-keyboard-response,17
true,22,0,1,1,false,z,true,false,0.0-2.0-0.47-0.425-3.425,1,0,0,81,false,stim,false,2,740.3000000007451,1,0,2,70539,task3,1007602,false,false,1372,image-keyboard-response,18
true,22,0,1,0,true,q,false,true,0.0-2.0-0.47-0.426-3.426,1,0,0,81,false,stim,false,0,492.90000000037253,1,1,0,70539,task3,1009603,false,false,1375,image-keyboard-response,19
true,22,0,1,0,true,q,false,true,0.0-2.0-0.47-0.427-3.427,1,0,0,81,false,stim,false,0,454.7999999988824,1,1,0,70539,task3,1011570,false,false,1378,image-keyboard-response,20
true,22,0,1,0,true,q,false,true,0.0-2.0-0.47-0.428-3.428,1,0,0,81,false,stim,false,2,981.5,1,0,1,70539,task3,1014059,false,false,1381,image-keyboard-response,21
true,22,0,1,0,true,q,false,false,0.0-2.0-0.47-0.429-3.429,1,0,0,81,false,stim,false,0,542.3999999985099,1,1,0,70539,task3,1016114,false,true,1384,image-keyboard-response,22
true,22,1,1,1,true,z,false,false,0.0-2.0-0.47-0.430-3.430,1,0,0,90,false,stim,false,2,507.59999999962747,1,0,2,70539,task3,1018130,false,true,1387,image-keyboard-response,23
true,22,0,1,0,true,q,false,true,0.0-2.0-0.47-0.431-3.431,1,0,0,81,false,stim,false,2,506.2999999988824,1,1,1,70539,task3,1020147,false,false,1390,image-keyboard-response,24
true,22,0,1,0,true,q,false,true,0.0-2.0-0.48-0.432-3.432,1,0,0,81,false,stim,false,0,482.40000000037253,1,0,0,70539,task3,1022138,false,false,1393,image-keyboard-response,25
true,22,0,1,0,true,q,false,true,0.0-2.0-0.48-0.433-3.433,1,0,0,81,false,stim,false,2,559.8000000007451,1,1,1,70539,task3,1024210,false,false,1396,image-keyboard-response,26
true,22,2,1,1,false,z,false,true,0.0-2.0-0.48-0.434-3.434,1,0,0,68,false,stim,true,2,479.2999999988824,1,0,2,70539,task3,1026203,false,true,1399,image-keyboard-response,27
true,22,0,1,0,true,q,false,true,0.0-2.0-0.48-0.435-3.435,1,0,0,81,false,stim,false,0,394.19999999925494,1,0,0,70539,task3,1028115,false,false,1402,image-keyboard-response,28
true,23,2,1,0,false,q,true,false,0.0-2.0-0.48-0.436-3.436,0,1,0,68,true,stim,false,1,555.3000000007451,1,0,2,70539,task3,1030187,false,false,1405,image-keyboard-response,1
true,23,0,1,0,true,q,false,true,0.0-2.0-0.48-0.437-3.437,0,1,0,81,false,stim,false,0,559.0,1,1,1,70539,task3,1032259,false,false,1408,image-keyboard-response,2
true,23,2,1,0,false,q,true,false,0.0-2.0-0.48-0.438-3.438,0,1,0,68,false,stim,false,1,538.5,1,0,2,70539,task3,1034315,false,false,1411,image-keyboard-response,3
true,23,0,1,0,true,q,false,true,0.0-2.0-0.48-0.439-3.439,0,1,0,81,false,stim,false,0,464.0,1,1,1,70539,task3,1036291,false,false,1414,image-keyboard-response,4
true,23,0,1,2,false,d,false,false,0.0-2.0-0.48-0.440-3.440,0,1,0,81,false,stim,true,0,728.0999999996275,1,0,0,70539,task3,1038531,false,false,1417,image-keyboard-response,5
true,23,0,1,0,true,q,false,true,0.0-2.0-0.49-0.441-3.441,0,1,0,81,false,stim,false,1,475.09999999962747,1,0,2,70539,task3,1040516,false,false,1420,image-keyboard-response,6
true,23,0,1,0,true,q,false,true,0.0-2.0-0.49-0.442-3.442,0,1,0,81,false,stim,false,0,441.40000000037253,1,1,1,70539,task3,1042467,false,false,1423,image-keyboard-response,7
true,23,0,1,2,false,d,false,false,0.0-2.0-0.49-0.443-3.443,0,1,0,81,false,stim,true,0,550.1000000014901,1,0,0,70539,task3,1044531,false,false,1426,image-keyboard-response,8
true,23,0,1,0,true,q,false,true,0.0-2.0-0.49-0.444-3.444,0,1,0,81,false,stim,false,1,454.5,1,0,2,70539,task3,1046499,false,false,1429,image-keyboard-response,9
true,23,0,1,0,true,q,false,true,0.0-2.0-0.49-0.445-3.445,0,1,0,81,false,stim,false,0,489.1000000014901,1,1,1,70539,task3,1048499,false,false,1432,image-keyboard-response,10
true,23,1,1,0,false,q,false,false,0.0-2.0-0.49-0.446-3.446,0,1,0,90,false,stim,true,1,513.0,1,0,2,70539,task3,1050524,false,false,1435,image-keyboard-response,11
true,23,1,1,2,false,d,true,false,0.0-2.0-0.49-0.447-3.447,0,1,0,90,false,stim,false,0,576.1999999992549,1,0,0,70539,task3,1052612,false,false,1438,image-keyboard-response,12
true,23,2,1,2,true,d,false,true,0.0-2.0-0.49-0.448-3.448,0,1,0,68,false,stim,false,0,458.40000000037253,1,0,0,70539,task3,1054579,false,false,1441,image-keyboard-response,13
true,23,0,1,0,true,q,false,true,0.0-2.0-0.49-0.449-3.449,0,1,0,81,false,stim,false,0,506.8999999985099,1,1,1,70539,task3,1056604,false,false,1444,image-keyboard-response,14
true,23,2,1,2,true,d,false,true,0.0-2.0-0.50-0.450-3.450,0,1,0,68,false,stim,false,0,511.59999999962747,1,0,0,70539,task3,1058628,false,false,1447,image-keyboard-response,15
true,23,0,1,0,true,q,false,true,0.0-2.0-0.50-0.451-3.451,0,1,0,81,false,stim,false,0,808.4000000003725,1,1,1,70539,task3,1060949,false,false,1450,image-keyboard-response,16
true,23,0,1,0,true,q,false,true,0.0-2.0-0.50-0.452-3.452,0,1,0,81,false,stim,false,1,577.7000000011176,1,0,2,70539,task3,1063044,false,false,1453,image-keyboard-response,17
true,23,0,1,0,true,q,false,true,0.0-2.0-0.50-0.453-3.453,0,1,0,81,false,stim,false,1,447.7999999988824,1,0,2,70539,task3,1065004,false,false,1456,image-keyboard-response,18
true,23,2,1,2,true,d,false,true,0.0-2.0-0.50-0.454-3.454,0,1,0,68,false,stim,false,0,567.9000000003725,1,0,0,70539,task3,1067084,false,false,1459,image-keyboard-response,19
true,23,0,1,0,true,q,false,true,0.0-2.0-0.50-0.455-3.455,0,1,0,81,false,stim,false,0,531.0,1,1,1,70539,task3,1069132,false,false,1462,image-keyboard-response,20
true,23,0,1,0,true,q,false,true,0.0-2.0-0.50-0.456-3.456,0,1,0,81,false,stim,false,0,363.09999999962747,1,1,1,70539,task3,1071013,false,false,1465,image-keyboard-response,21
true,23,2,1,2,true,d,false,true,0.0-2.0-0.50-0.457-3.457,0,1,0,68,false,stim,false,0,543.0999999996275,1,0,0,70539,task3,1073068,false,false,1468,image-keyboard-response,22
true,23,0,1,0,true,q,false,true,0.0-2.0-0.50-0.458-3.458,0,1,0,81,false,stim,false,1,504.09999999962747,1,0,2,70539,task3,1075084,false,false,1471,image-keyboard-response,23
true,23,0,1,0,true,q,false,true,0.0-2.0-0.51-0.459-3.459,0,1,0,81,false,stim,false,0,524.5,1,1,1,70539,task3,1077124,false,false,1474,image-keyboard-response,24
true,23,2,1,2,true,d,false,true,0.0-2.0-0.51-0.460-3.460,0,1,0,68,false,stim,false,0,616.0999999996275,1,0,0,70539,task3,1079252,false,false,1477,image-keyboard-response,25
true,24,0,1,0,true,q,false,true,0.0-2.0-0.51-0.461-3.461,0,1,0,81,true,stim,false,0,552.5999999996275,1,1,1,70539,task3,1081317,false,false,1480,image-keyboard-response,1
true,24,0,1,2,false,d,false,false,0.0-2.0-0.51-0.462-3.462,0,1,0,81,false,stim,true,0,590.9000000003725,1,0,2,70539,task3,1083420,false,false,1483,image-keyboard-response,2
true,24,0,1,2,false,d,false,false,0.0-2.0-0.51-0.463-3.463,0,1,0,81,false,stim,true,0,487.59999999962747,1,0,2,70539,task3,1085421,false,false,1486,image-keyboard-response,3
true,24,2,1,0,false,q,false,false,0.0-2.0-0.51-0.464-3.464,0,1,0,68,false,stim,true,2,547.0,1,0,0,70539,task3,1087485,false,false,1489,image-keyboard-response,4
true,24,2,1,0,false,q,false,true,0.0-2.0-0.51-0.465-3.465,0,1,0,68,false,stim,true,2,453.09999999962747,1,0,0,70539,task3,1089453,false,true,1492,image-keyboard-response,5
true,24,0,1,0,true,q,false,true,0.0-2.0-0.51-0.466-3.466,0,1,0,81,false,stim,false,0,611.3000000007451,1,1,1,70539,task3,1091582,false,false,1495,image-keyboard-response,6
true,24,1,1,2,false,d,true,false,0.0-2.0-0.51-0.467-3.467,0,1,0,90,false,stim,false,0,558.9000000003725,1,0,2,70539,task3,1093653,false,false,1498,image-keyboard-response,7
true,24,2,1,0,false,q,false,false,0.0-2.0-0.52-0.468-3.468,0,1,0,68,false,stim,true,2,503.09999999962747,1,0,0,70539,task3,1095677,false,false,1501,image-keyboard-response,8
true,24,0,1,0,true,q,false,false,0.0-2.0-0.52-0.469-3.469,0,1,0,81,false,stim,false,0,583.3999999985099,1,1,1,70539,task3,1097773,false,true,1504,image-keyboard-response,9
true,24,2,1,0,false,q,true,false,0.0-2.0-0.52-0.470-3.470,0,1,0,68,false,stim,false,0,584.6999999992549,1,1,1,70539,task3,1099869,false,false,1507,image-keyboard-response,10
true,24,2,1,2,true,d,false,true,0.0-2.0-0.52-0.471-3.471,0,1,0,68,false,stim,false,0,661.0,1,0,2,70539,task3,1102038,false,false,1510,image-keyboard-response,11
true,24,1,1,0,false,q,true,false,0.0-2.0-0.52-0.472-3.472,0,1,0,90,false,stim,false,0,781.6999999992549,1,1,1,70539,task3,1104333,false,false,1513,image-keyboard-response,12
true,24,2,1,0,false,q,false,false,0.0-2.0-0.52-0.473-3.473,0,1,0,68,false,stim,true,2,862.8000000007451,1,0,0,70539,task3,1106709,false,false,1516,image-keyboard-response,13
true,24,2,1,2,true,d,false,true,0.0-2.0-0.52-0.474-3.474,0,1,0,68,false,stim,false,0,417.09999999962747,1,0,2,70539,task3,1108637,false,false,1519,image-keyboard-response,14
true,24,2,1,2,true,d,false,true,0.0-2.0-0.52-0.475-3.475,0,1,0,68,false,stim,false,0,687.1999999992549,1,0,2,70539,task3,1110838,false,false,1522,image-keyboard-response,15
true,24,0,1,0,true,q,false,false,0.0-2.0-0.52-0.476-3.476,0,1,0,81,false,stim,false,2,558.8000000007451,1,0,0,70539,task3,1112910,false,true,1525,image-keyboard-response,16
true,24,0,1,0,true,q,false,true,0.0-2.0-0.53-0.477-3.477,0,1,0,81,false,stim,false,0,790.2999999988824,1,1,1,70539,task3,1115213,false,false,1528,image-keyboard-response,17
true,24,2,1,2,true,d,false,true,0.0-2.0-0.53-0.478-3.478,0,1,0,68,false,stim,false,0,892.0,1,0,2,70539,task3,1117613,false,false,1531,image-keyboard-response,18
true,24,0,1,0,true,q,false,true,0.0-2.0-0.53-0.479-3.479,0,1,0,81,false,stim,false,0,682.2999999988824,1,1,1,70539,task3,1119806,false,false,1534,image-keyboard-response,19
true,24,2,1,2,true,d,false,true,0.0-2.0-0.53-0.480-3.480,0,1,0,68,false,stim,false,0,527.5,1,0,2,70539,task3,1121846,false,false,1537,image-keyboard-response,20
true,24,2,1,2,true,d,false,true,0.0-2.0-0.53-0.481-3.481,0,1,0,68,false,stim,false,0,485.2000000011176,1,0,2,70539,task3,1123838,false,false,1540,image-keyboard-response,21
true,24,0,1,0,true,q,false,true,0.0-2.0-0.53-0.482-3.482,0,1,0,81,false,stim,false,0,632.7999999988824,1,1,1,70539,task3,1125982,false,false,1543,image-keyboard-response,22
true,24,2,1,0,false,q,false,false,0.0-2.0-0.53-0.483-3.483,0,1,0,68,false,stim,true,2,448.0,1,0,0,70539,task3,1127942,false,false,1546,image-keyboard-response,23
true,24,1,1,0,false,q,true,false,0.0-2.0-0.53-0.484-3.484,0,1,0,90,false,stim,false,2,531.5,1,0,0,70539,task3,1129982,false,false,1549,image-keyboard-response,24
true,24,0,1,0,true,q,false,true,0.0-2.0-0.53-0.485-3.485,0,1,0,81,false,stim,false,2,418.90000000037253,1,0,0,70539,task3,1131910,false,false,1552,image-keyboard-response,25
true,24,0,1,0,true,q,false,true,0.0-2.0-0.54-0.486-3.486,0,1,0,81,false,stim,false,2,448.2000000011176,1,0,0,70539,task3,1133871,false,false,1555,image-keyboard-response,26
true,24,0,1,0,true,q,false,true,0.0-2.0-0.54-0.487-3.487,0,1,0,81,false,stim,false,2,679.1999999992549,1,0,0,70539,task3,1136062,false,false,1558,image-keyboard-response,27
true,25,0,1,1,false,z,false,true,0.0-2.0-0.54-0.488-3.488,0,1,0,81,true,stim,true,0,430.7999999988824,1,0,0,70539,task3,1138007,false,true,1561,image-keyboard-response,1
true,25,2,1,0,false,q,false,false,0.0-2.0-0.54-0.489-3.489,0,1,0,68,false,stim,true,2,647.5,1,0,2,70539,task3,1140167,false,false,1564,image-keyboard-response,2
true,25,0,1,0,true,q,false,true,0.0-2.0-0.54-0.490-3.490,0,1,0,81,false,stim,false,0,613.4000000003725,1,1,1,70539,task3,1142294,false,false,1567,image-keyboard-response,3
true,25,0,1,0,true,q,false,false,0.0-2.0-0.54-0.491-3.491,0,1,0,81,false,stim,false,0,543.7000000011176,1,1,1,70539,task3,1144350,false,true,1570,image-keyboard-response,4
true,25,2,1,0,false,q,false,false,0.0-2.0-0.54-0.492-3.492,0,1,0,68,false,stim,true,2,680.9000000003725,1,0,2,70539,task3,1146543,false,false,1573,image-keyboard-response,5
true,25,0,1,0,true,q,false,true,0.0-2.0-0.54-0.493-3.493,0,1,0,81,false,stim,false,0,851.0,1,1,1,70539,task3,1148903,false,false,1576,image-keyboard-response,6
true,25,2,1,0,false,q,false,false,0.0-2.0-0.54-0.494-3.494,0,1,0,68,false,stim,true,2,666.6999999992549,1,0,2,70539,task3,1151087,false,false,1579,image-keyboard-response,7
true,25,1,1,1,true,z,false,true,0.0-2.0-0.55-0.495-3.495,0,1,0,90,false,stim,false,0,654.9000000003725,1,0,0,70539,task3,1153255,false,false,1582,image-keyboard-response,8
true,25,0,1,0,true,q,false,true,0.0-2.0-0.55-0.496-3.496,0,1,0,81,false,stim,false,0,712.0,1,1,1,70539,task3,1155479,false,false,1585,image-keyboard-response,9
true,25,1,1,1,true,z,false,false,0.0-2.0-0.55-0.497-3.497,0,1,0,90,false,stim,false,0,972.3999999985099,1,1,0,70539,task3,1157959,false,true,1588,image-keyboard-response,10
true,25,1,1,0,false,q,true,false,0.0-2.0-0.55-0.498-3.498,0,1,0,90,false,stim,false,2,463.19999999925494,1,1,2,70539,task3,1159935,false,false,1591,image-keyboard-response,11
true,25,0,1,0,true,q,false,true,0.0-2.0-0.55-0.499-3.499,0,1,0,81,false,stim,false,2,521.4000000003725,1,1,2,70539,task3,1161967,false,false,1594,image-keyboard-response,12
true,25,0,1,0,true,q,false,false,0.0-2.0-0.55-0.500-3.500,0,1,0,81,false,stim,false,0,418.5,1,1,1,70539,task3,1163895,false,true,1597,image-keyboard-response,13
true,26,2,0,0,false,q,true,false,0.0-2.0-0.55-0.501-3.501,1,1,1,68,true,stim,false,0,1476.4000000003725,1,1,2,70539,task3,1284364,false,false,1717,image-keyboard-response,1
true,26,0,0,1,false,z,true,false,0.0-2.0-0.55-0.502-3.502,1,1,1,81,false,stim,false,1,1637.0999999996275,1,1,0,70539,task3,1287515,false,false,1720,image-keyboard-response,2
true,26,0,0,0,true,q,false,true,0.0-2.0-0.55-0.503-3.503,1,1,1,81,false,stim,false,0,702.5,1,1,1,70539,task3,1289732,false,false,1723,image-keyboard-response,3
true,26,0,0,0,true,q,false,true,0.0-2.0-0.56-0.504-3.504,1,1,1,81,false,stim,false,0,401.90000000037253,1,1,1,70539,task3,1291651,false,false,1726,image-keyboard-response,4
true,26,2,0,1,false,z,true,false,0.0-2.0-0.56-0.505-3.505,1,1,1,68,false,stim,false,1,699.5999999996275,1,1,0,70539,task3,1293861,false,false,1729,image-keyboard-response,5
true,26,1,0,0,false,q,true,false,0.0-2.0-0.56-0.506-3.506,1,1,1,90,false,stim,false,0,701.8000000007451,1,0,2,70539,task3,1296076,false,false,1732,image-keyboard-response,6
true,26,0,0,1,false,z,true,true,0.0-2.0-0.56-0.507-3.507,1,1,1,81,false,stim,false,1,857.0,1,0,0,70539,task3,1298444,false,true,1735,image-keyboard-response,7
true,26,2,0,0,false,q,true,false,0.0-2.0-0.56-0.508-3.508,1,1,1,68,false,stim,false,0,751.1999999992549,1,0,2,70539,task3,1300708,false,false,1738,image-keyboard-response,8
true,26,0,0,0,true,q,false,true,0.0-2.0-0.56-0.509-3.509,1,1,1,81,false,stim,false,0,415.8999999985099,1,1,1,70539,task3,1302636,false,false,1741,image-keyboard-response,9
true,26,1,0,0,false,q,true,false,0.0-2.0-0.56-0.510-3.510,1,1,1,90,false,stim,false,0,656.1999999992549,1,0,2,70539,task3,1304805,false,false,1744,image-keyboard-response,10
true,27,0,1,2,false,d,true,false,0.0-2.0-0.56-0.511-3.511,0,1,0,81,true,stim,false,1,406.90000000037253,1,0,0,70539,task3,1306724,false,false,1747,image-keyboard-response,1
true,27,0,1,0,true,q,false,true,0.0-2.0-0.56-0.512-3.512,0,1,0,81,false,stim,false,0,370.59999999962747,1,1,1,70539,task3,1308612,false,false,1750,image-keyboard-response,2
true,27,0,1,2,false,d,true,false,0.0-2.0-0.57-0.513-3.513,0,1,0,81,false,stim,false,1,415.09999999962747,1,0,0,70539,task3,1310540,false,false,1753,image-keyboard-response,3
true,27,0,1,2,false,d,false,false,0.0-2.0-0.57-0.514-3.514,0,1,0,81,false,stim,true,0,538.6999999992549,1,0,2,70539,task3,1312596,false,false,1756,image-keyboard-response,4
true,27,0,1,0,true,q,false,true,0.0-2.0-0.57-0.515-3.515,0,1,0,81,false,stim,false,0,599.1999999992549,1,1,1,70539,task3,1314709,false,false,1759,image-keyboard-response,5
true,27,1,1,2,false,d,false,false,0.0-2.0-0.57-0.516-3.516,0,1,0,90,false,stim,true,1,616.6999999992549,1,0,0,70539,task3,1316838,false,false,1762,image-keyboard-response,6
true,27,1,1,2,false,d,true,false,0.0-2.0-0.57-0.517-3.517,0,1,0,90,false,stim,false,0,847.7999999988824,1,0,2,70539,task3,1319197,false,false,1765,image-keyboard-response,7
true,27,2,1,2,true,d,false,true,0.0-2.0-0.57-0.518-3.518,0,1,0,68,false,stim,false,0,510.40000000037253,1,0,2,70539,task3,1321221,false,false,1768,image-keyboard-response,8
true,27,0,1,0,true,q,false,true,0.0-2.0-0.57-0.519-3.519,0,1,0,81,false,stim,false,0,618.0999999996275,1,1,1,70539,task3,1323356,false,false,1771,image-keyboard-response,9
true,27,0,1,0,true,q,false,true,0.0-2.0-0.57-0.520-3.520,0,1,0,81,false,stim,false,0,600.4000000003725,1,1,1,70539,task3,1325469,false,false,1774,image-keyboard-response,10
true,27,2,1,2,true,d,false,true,0.0-2.0-0.57-0.521-3.521,0,1,0,68,false,stim,false,1,526.2000000011176,1,0,0,70539,task3,1327508,false,false,1777,image-keyboard-response,11
true,27,2,1,2,true,d,false,true,0.0-2.0-0.58-0.522-3.522,0,1,0,68,false,stim,false,0,531.5999999996275,1,0,2,70539,task3,1329549,false,false,1780,image-keyboard-response,12
true,27,0,1,0,true,q,false,true,0.0-2.0-0.58-0.523-3.523,0,1,0,81,false,stim,false,0,495.5,1,1,1,70539,task3,1331557,false,false,1783,image-keyboard-response,13
true,27,2,1,2,true,d,false,false,0.0-2.0-0.58-0.524-3.524,0,1,0,68,false,stim,false,0,368.69999999925494,1,0,2,70539,task3,1333437,false,true,1786,image-keyboard-response,14
true,27,2,1,2,true,d,false,true,0.0-2.0-0.58-0.525-3.525,0,1,0,68,false,stim,false,1,383.59999999962747,1,0,0,70539,task3,1335333,false,false,1789,image-keyboard-response,15
true,27,0,1,0,true,q,false,true,0.0-2.0-0.58-0.526-3.526,0,1,0,81,false,stim,false,0,503.5,1,1,1,70539,task3,1337349,false,false,1792,image-keyboard-response,16
true,27,2,1,2,true,d,false,true,0.0-2.0-0.58-0.527-3.527,0,1,0,68,false,stim,false,0,527.8000000007451,1,0,2,70539,task3,1339390,false,false,1795,image-keyboard-response,17
true,27,0,1,2,false,d,true,false,0.0-2.0-0.58-0.528-3.528,0,1,0,81,false,stim,false,1,550.3000000007451,1,0,0,70539,task3,1341453,false,false,1798,image-keyboard-response,18
true,27,0,1,0,true,q,false,true,0.0-2.0-0.58-0.529-3.529,0,1,0,81,false,stim,false,0,407.40000000037253,1,1,1,70539,task3,1343382,false,false,1801,image-keyboard-response,19
true,27,2,1,2,true,d,false,true,0.0-2.0-0.58-0.530-3.530,0,1,0,68,false,stim,false,1,426.09999999962747,1,0,0,70539,task3,1345326,false,false,1804,image-keyboard-response,20
true,27,0,1,0,true,q,false,true,0.0-2.0-0.59-0.531-3.531,0,1,0,81,false,stim,false,0,602.0,1,1,1,70539,task3,1347445,false,false,1807,image-keyboard-response,21
true,27,2,1,2,true,d,false,true,0.0-2.0-0.59-0.532-3.532,0,1,0,68,false,stim,false,1,372.5,1,0,0,70539,task3,1349334,false,false,1810,image-keyboard-response,22
true,27,2,1,2,true,d,false,true,0.0-2.0-0.59-0.533-3.533,0,1,0,68,false,stim,false,0,458.09999999962747,1,1,2,70539,task3,1351303,false,false,1813,image-keyboard-response,23
true,27,2,1,2,true,d,false,false,0.0-2.0-0.59-0.534-3.534,0,1,0,68,false,stim,false,0,399.0,1,1,2,70539,task3,1353214,false,true,1816,image-keyboard-response,24
true,27,2,1,2,true,d,false,false,0.0-2.0-0.59-0.535-3.535,0,1,0,68,false,stim,false,1,577.7999999988824,1,0,0,70539,task3,1355302,false,true,1819,image-keyboard-response,25
true,27,0,1,0,true,q,false,true,0.0-2.0-0.59-0.536-3.536,0,1,0,81,false,stim,false,0,457.69999999925494,1,0,1,70539,task3,1357270,false,false,1822,image-keyboard-response,26
true,27,2,1,2,true,d,false,true,0.0-2.0-0.59-0.537-3.537,0,1,0,68,false,stim,false,0,454.2999999988824,1,1,2,70539,task3,1359238,false,false,1825,image-keyboard-response,27
true,28,2,1,0,false,q,false,true,0.0-2.0-0.59-0.538-3.538,0,0,1,68,true,stim,true,2,430.7999999988824,1,0,0,70539,task3,1361182,false,true,1828,image-keyboard-response,1
true,28,0,1,1,false,z,false,false,0.0-2.0-0.59-0.539-3.539,0,0,1,81,false,stim,true,0,450.59999999962747,1,0,1,70539,task3,1363143,false,false,1831,image-keyboard-response,2
true,28,2,1,0,false,q,false,false,0.0-2.0-0.60-0.540-3.540,0,0,1,68,false,stim,true,2,397.40000000037253,1,0,0,70539,task3,1365054,false,false,1834,image-keyboard-response,3
true,28,2,1,0,false,q,false,false,0.0-2.0-0.60-0.541-3.541,0,0,1,68,false,stim,true,2,390.80000000074506,1,0,0,70539,task3,1366958,false,false,1837,image-keyboard-response,4
true,28,2,1,2,true,d,false,false,0.0-2.0-0.60-0.542-3.542,0,0,1,68,false,stim,false,2,502.7999999988824,1,1,2,70539,task3,1368974,false,true,1840,image-keyboard-response,5
true,28,0,1,1,false,z,false,false,0.0-2.0-0.60-0.543-3.543,0,0,1,81,false,stim,true,0,412.7000000011176,1,0,1,70539,task3,1370902,false,false,1843,image-keyboard-response,6
true,28,0,1,1,false,z,false,false,0.0-2.0-0.60-0.544-3.544,0,0,1,81,false,stim,true,0,541.3999999985099,1,0,1,70539,task3,1372959,false,false,1846,image-keyboard-response,7
true,28,1,1,1,true,z,false,true,0.0-2.0-0.60-0.545-3.545,0,0,1,90,false,stim,false,0,400.0,1,0,1,70539,task3,1374871,false,false,1849,image-keyboard-response,8
true,28,1,1,2,false,d,true,false,0.0-2.0-0.60-0.546-3.546,0,0,1,90,false,stim,false,2,399.19999999925494,1,1,2,70539,task3,1376783,false,false,1852,image-keyboard-response,9
true,28,1,1,0,false,q,true,true,0.0-2.0-0.60-0.547-3.547,0,0,1,90,false,stim,false,2,803.1999999992549,1,0,0,70539,task3,1379095,false,true,1855,image-keyboard-response,10
true,28,0,1,2,false,d,true,false,0.0-2.0-0.60-0.548-3.548,0,0,1,81,false,stim,false,2,400.80000000074506,1,1,2,70539,task3,1381007,false,false,1858,image-keyboard-response,11
true,28,1,1,1,true,z,false,false,0.0-2.0-0.61-0.549-3.549,0,0,1,90,false,stim,false,0,526.0,1,0,1,70539,task3,1383047,false,true,1861,image-keyboard-response,12
true,28,1,1,2,false,d,true,false,0.0-2.0-0.61-0.550-3.550,0,0,1,90,false,stim,false,2,624.0999999996275,1,1,2,70539,task3,1385184,false,false,1864,image-keyboard-response,13
true,28,1,1,0,false,q,true,false,0.0-2.0-0.61-0.551-3.551,0,0,1,90,false,stim,false,2,408.2999999988824,1,0,0,70539,task3,1387103,false,false,1867,image-keyboard-response,14
true,28,1,1,0,false,q,true,true,0.0-2.0-0.61-0.552-3.552,0,0,1,90,false,stim,false,2,474.2000000011176,1,0,0,70539,task3,1389095,false,true,1870,image-keyboard-response,15
true,28,1,1,1,true,z,false,false,0.0-2.0-0.61-0.553-3.553,0,0,1,90,false,stim,false,0,430.5,1,0,1,70539,task3,1391039,false,true,1873,image-keyboard-response,16
true,28,1,1,1,true,z,false,true,0.0-2.0-0.61-0.554-3.554,0,0,1,90,false,stim,false,0,425.40000000037253,1,0,1,70539,task3,1392975,false,false,1876,image-keyboard-response,17
true,28,0,1,2,false,d,true,false,0.0-2.0-0.61-0.555-3.555,0,0,1,81,false,stim,false,2,494.69999999925494,1,1,2,70539,task3,1394983,false,false,1879,image-keyboard-response,18
true,28,2,1,2,true,d,false,true,0.0-2.0-0.61-0.556-3.556,0,0,1,68,false,stim,false,2,424.30000000074506,1,1,2,70539,task3,1396920,false,false,1882,image-keyboard-response,19
true,28,1,1,0,false,q,true,false,0.0-2.0-0.61-0.557-3.557,0,0,1,90,false,stim,false,2,402.8999999985099,1,0,0,70539,task3,1398832,false,false,1885,image-keyboard-response,20
true,28,2,1,2,true,d,false,false,0.0-2.0-0.62-0.558-3.558,0,0,1,68,false,stim,false,2,445.69999999925494,1,1,2,70539,task3,1400791,false,true,1888,image-keyboard-response,21
true,28,1,1,0,false,q,true,true,0.0-2.0-0.62-0.559-3.559,0,0,1,90,false,stim,false,2,895.6999999992549,1,0,0,70539,task3,1403199,false,true,1891,image-keyboard-response,22
true,28,1,1,1,true,z,false,true,0.0-2.0-0.62-0.560-3.560,0,0,1,90,false,stim,false,0,551.6999999992549,1,0,1,70539,task3,1405264,false,false,1894,image-keyboard-response,23
true,28,1,1,0,false,q,true,false,0.0-2.0-0.62-0.561-3.561,0,0,1,90,false,stim,false,2,410.5,1,0,0,70539,task3,1407192,false,false,1897,image-keyboard-response,24
true,29,1,1,1,true,z,false,true,0.0-2.0-0.62-0.562-3.562,0,0,1,90,true,stim,false,0,428.69999999925494,1,0,0,70539,task3,1409136,false,false,1900,image-keyboard-response,1
true,29,1,1,2,false,d,true,false,0.0-2.0-0.62-0.563-3.563,0,0,1,90,false,stim,false,2,492.90000000037253,1,1,2,70539,task3,1411160,false,false,1903,image-keyboard-response,2
true,29,2,1,2,true,d,false,true,0.0-2.0-0.62-0.564-3.564,0,0,1,68,false,stim,false,2,337.7999999988824,1,1,2,70539,task3,1413016,false,false,1906,image-keyboard-response,3
true,29,1,1,2,false,d,false,false,0.0-2.0-0.62-0.565-3.565,0,0,1,90,false,stim,true,1,591.2000000011176,1,0,1,70539,task3,1415120,false,false,1909,image-keyboard-response,4
true,29,1,1,2,false,d,false,false,0.0-2.0-0.62-0.566-3.566,0,0,1,90,false,stim,true,1,393.90000000037253,1,0,1,70539,task3,1417032,false,false,1912,image-keyboard-response,5
true,29,1,1,2,false,d,false,false,0.0-2.0-0.63-0.567-3.567,0,0,1,90,false,stim,true,1,447.59999999962747,1,0,1,70539,task3,1418993,false,false,1915,image-keyboard-response,6
true,29,2,1,2,true,d,false,true,0.0-2.0-0.63-0.568-3.568,0,0,1,68,false,stim,false,2,494.7999999988824,1,1,2,70539,task3,1421000,false,false,1918,image-keyboard-response,7
true,29,1,1,1,true,z,false,true,0.0-2.0-0.63-0.569-3.569,0,0,1,90,false,stim,false,0,625.2999999988824,1,0,0,70539,task3,1423136,false,false,1921,image-keyboard-response,8
true,29,2,1,2,true,d,false,true,0.0-2.0-0.63-0.570-3.570,0,0,1,68,false,stim,false,2,596.9000000003725,1,1,2,70539,task3,1425248,false,false,1924,image-keyboard-response,9
true,29,1,1,1,true,z,false,true,0.0-2.0-0.63-0.571-3.571,0,0,1,90,false,stim,false,0,910.0,1,0,0,70539,task3,1427672,false,false,1927,image-keyboard-response,10
true,29,0,1,2,false,d,true,false,0.0-2.0-0.63-0.572-3.572,0,0,1,81,false,stim,false,1,519.5999999996275,1,0,1,70539,task3,1429705,false,false,1930,image-keyboard-response,11
true,29,1,1,1,true,z,false,true,0.0-2.0-0.63-0.573-3.573,0,0,1,90,false,stim,false,0,462.09999999962747,1,0,0,70539,task3,1431681,false,false,1933,image-keyboard-response,12
true,29,0,1,2,false,d,true,false,0.0-2.0-0.63-0.574-3.574,0,0,1,81,false,stim,false,1,931.0,1,0,1,70539,task3,1434129,false,false,1936,image-keyboard-response,13
true,29,2,1,2,true,d,false,true,0.0-2.0-0.63-0.575-3.575,0,0,1,68,false,stim,false,2,745.0,1,1,2,70539,task3,1436383,false,false,1939,image-keyboard-response,14
true,29,2,1,2,true,d,false,false,0.0-2.0-0.64-0.576-3.576,0,0,1,68,false,stim,false,2,534.4000000003725,1,1,2,70539,task3,1438433,false,true,1942,image-keyboard-response,15
true,29,1,1,1,true,z,false,true,0.0-2.0-0.64-0.577-3.577,0,0,1,90,false,stim,false,0,490.80000000074506,1,0,0,70539,task3,1440434,false,false,1945,image-keyboard-response,16
true,29,2,1,2,true,d,false,true,0.0-2.0-0.64-0.578-3.578,0,0,1,68,false,stim,false,1,555.7999999988824,1,0,1,70539,task3,1442505,false,false,1948,image-keyboard-response,17
true,29,2,1,2,true,d,false,true,0.0-2.0-0.64-0.579-3.579,0,0,1,68,false,stim,false,1,452.7999999988824,1,0,1,70539,task3,1444473,false,false,1951,image-keyboard-response,18
true,29,2,1,2,true,d,false,true,0.0-2.0-0.64-0.580-3.580,0,0,1,68,false,stim,false,2,482.90000000037253,1,1,2,70539,task3,1446465,false,false,1954,image-keyboard-response,19
true,29,2,1,2,true,d,false,true,0.0-2.0-0.64-0.581-3.581,0,0,1,68,false,stim,false,2,483.2000000011176,1,1,2,70539,task3,1448465,false,false,1957,image-keyboard-response,20
true,29,1,1,1,true,z,false,true,0.0-2.0-0.64-0.582-3.582,0,0,1,90,false,stim,false,0,487.09999999962747,1,0,0,70539,task3,1450466,false,false,1960,image-keyboard-response,21
true,29,1,1,1,true,z,false,true,0.0-2.0-0.64-0.583-3.583,0,0,1,90,false,stim,false,0,584.6999999992549,1,0,0,70539,task3,1452569,false,false,1963,image-keyboard-response,22
true,29,2,1,2,true,d,false,true,0.0-2.0-0.64-0.584-3.584,0,0,1,68,false,stim,false,1,601.7999999988824,1,0,1,70539,task3,1454681,false,false,1966,image-keyboard-response,23
true,29,2,1,2,true,d,false,true,0.0-2.0-0.65-0.585-3.585,0,0,1,68,false,stim,false,2,570.4000000003725,1,0,2,70539,task3,1456761,false,false,1969,image-keyboard-response,24
true,29,2,1,2,true,d,false,true,0.0-2.0-0.65-0.586-3.586,0,0,1,68,false,stim,false,1,599.5999999996275,1,0,1,70539,task3,1458874,false,false,1972,image-keyboard-response,25
true,29,2,1,2,true,d,false,true,0.0-2.0-0.65-0.587-3.587,0,0,1,68,false,stim,false,1,434.80000000074506,1,0,1,70539,task3,1460826,false,false,1975,image-keyboard-response,26
true,29,1,1,1,true,z,false,true,0.0-2.0-0.65-0.588-3.588,0,0,1,90,false,stim,false,0,472.7999999988824,1,1,0,70539,task3,1462818,false,false,1978,image-keyboard-response,27
true,29,1,1,1,true,z,false,true,0.0-2.0-0.65-0.589-3.589,0,0,1,90,false,stim,false,0,433.7999999988824,1,1,0,70539,task3,1464769,false,false,1981,image-keyboard-response,28
true,30,2,1,1,false,z,false,true,0.0-2.0-0.65-0.590-3.590,1,0,0,68,true,stim,true,2,462.59999999962747,1,0,1,70539,task3,1466746,false,true,1984,image-keyboard-response,1
