answered,blockNum,choice,condition,corResp,correct,correct_response,explo,fb,internal_node_id,isStable_1,isStable_2,isStable_3,key_press,newBlock,part,persev,persevResp,rt,sessNum,stableAS,stimulus,subject,task,time_elapsed,training,trap,trial_index,trial_type,trialsInBlock
true,1,0,0,2,false,d,true,true,0.0-2.0-0.0-0.0-3.0,0,0,0,81,true,stim,false,-1,605.1000000089407,2,0,1,71781,task1,164702,false,true,127,image-keyboard-response,1
true,1,0,0,0,true,q,false,true,0.0-2.0-0.0-0.1-3.1,0,0,0,81,false,stim,false,-1,460.70000000298023,2,0,0,71781,task1,166675,false,false,130,image-keyboard-response,2
true,1,0,0,2,false,d,true,false,0.0-2.0-0.0-0.2-3.2,0,0,0,81,false,stim,false,-1,714.6999999880791,2,0,1,71781,task1,168906,false,false,133,image-keyboard-response,3
true,1,0,0,2,false,d,true,false,0.0-2.0-0.0-0.3-3.3,0,0,0,81,false,stim,false,-1,521.1000000089407,2,0,1,71781,task1,170958,false,false,136,image-keyboard-response,4
true,1,0,0,0,true,q,false,true,0.0-2.0-0.0-0.4-3.4,0,0,0,81,false,stim,false,-1,661.2000000029802,2,0,0,71781,task1,173146,false,false,139,image-keyboard-response,5
true,1,1,0,0,false,q,true,false,0.0-2.0-0.0-0.5-3.5,0,0,0,90,false,stim,false,-1,743.3000000119209,2,0,2,71781,task1,175412,false,false,142,image-keyboard-response,6
true,1,2,0,0,false,q,true,true,0.0-2.0-0.0-0.6-3.6,0,0,0,68,false,stim,false,-1,673.2000000029802,2,0,2,71781,task1,177612,false,true,145,image-keyboard-response,7
true,1,0,0,0,true,q,false,true,0.0-2.0-0.0-0.7-3.7,0,0,0,81,false,stim,false,-1,947.8000000119209,2,0,0,71781,task1,180093,false,false,148,image-keyboard-response,8
true,1,2,0,0,false,q,true,false,0.0-2.0-0.0-0.8-3.8,0,0,0,68,false,stim,false,-1,440.29999999701977,2,0,2,71781,task1,182053,false,false,151,image-keyboard-response,9
true,1,0,0,0,true,q,false,true,0.0-2.0-0.1-0.9-3.9,0,0,0,81,false,stim,false,-1,458.59999999403954,2,0,0,71781,task1,184028,false,false,154,image-keyboard-response,10
true,1,0,0,0,true,q,false,true,0.0-2.0-0.1-0.10-3.10,0,0,0,81,false,stim,false,-1,528.5999999940395,2,0,0,71781,task1,186071,false,false,157,image-keyboard-response,11
true,1,2,0,2,true,d,false,true,0.0-2.0-0.1-0.11-3.11,0,0,0,68,false,stim,false,-1,475.40000000596046,2,0,1,71781,task1,188065,false,false,160,image-keyboard-response,12
true,1,2,0,0,false,q,true,false,0.0-2.0-0.1-0.12-3.12,0,0,0,68,false,stim,false,-1,1057.7999999970198,2,0,2,71781,task1,190636,false,false,163,image-keyboard-response,13
true,1,2,0,2,true,d,false,true,0.0-2.0-0.1-0.13-3.13,0,0,0,68,false,stim,false,-1,650.5999999940395,2,0,1,71781,task1,192808,false,false,166,image-keyboard-response,14
true,1,0,0,0,true,q,false,true,0.0-2.0-0.1-0.14-3.14,0,0,0,81,false,stim,false,-1,473.40000000596046,2,0,2,71781,task1,194816,false,false,169,image-keyboard-response,15
true,1,0,0,0,true,q,false,true,0.0-2.0-0.1-0.15-3.15,0,0,0,81,false,stim,false,-1,504.1000000089407,2,0,0,71781,task1,196851,false,false,172,image-keyboard-response,16
true,1,0,0,0,true,q,false,true,0.0-2.0-0.1-0.16-3.16,0,0,0,81,false,stim,false,-1,632.2999999970198,2,0,2,71781,task1,199015,false,false,175,image-keyboard-response,17
true,1,2,0,2,true,d,false,true,0.0-2.0-0.1-0.17-3.17,0,0,0,68,false,stim,false,-1,881.2000000029802,2,0,1,71781,task1,201428,false,false,178,image-keyboard-response,18
true,1,0,0,0,true,q,false,true,0.0-2.0-0.2-0.18-3.18,0,0,0,81,false,stim,false,-1,627.7000000029802,2,0,0,71781,task1,203584,false,false,181,image-keyboard-response,19
true,1,0,0,0,true,q,false,false,0.0-2.0-0.2-0.19-3.19,0,0,0,81,false,stim,false,-1,631.9000000059605,2,0,2,71781,task1,205761,false,true,184,image-keyboard-response,20
true,1,0,0,0,true,q,false,true,0.0-2.0-0.2-0.20-3.20,0,0,0,81,false,stim,false,-1,1113.699999988079,2,0,2,71781,task1,208396,false,false,187,image-keyboard-response,21
true,1,0,0,0,true,q,false,true,0.0-2.0-0.2-0.21-3.21,0,0,0,81,false,stim,false,-1,598.7000000029802,2,0,0,71781,task1,210509,false,false,190,image-keyboard-response,22
true,1,0,0,0,true,q,false,true,0.0-2.0-0.2-0.22-3.22,0,0,0,81,false,stim,false,-1,499.8999999910593,2,0,2,71781,task1,212521,false,false,193,image-keyboard-response,23
true,1,0,0,0,true,q,false,true,0.0-2.0-0.2-0.23-3.23,0,0,0,81,false,stim,false,-1,808.9000000059605,2,0,0,71781,task1,214856,false,false,196,image-keyboard-response,24
true,1,0,0,2,false,d,true,false,0.0-2.0-0.2-0.24-3.24,0,0,0,81,false,stim,false,-1,761.2999999970198,2,0,1,71781,task1,217129,false,false,199,image-keyboard-response,25
true,1,2,0,2,true,d,false,true,0.0-2.0-0.2-0.25-3.25,0,0,0,68,false,stim,false,-1,474.5,2,0,1,71781,task1,219124,false,false,202,image-keyboard-response,26
true,2,2,1,0,false,q,false,false,0.0-2.0-0.2-0.26-3.26,0,0,0,68,true,stim,true,2,367.59999999403954,2,0,1,71781,task1,221017,false,false,205,image-keyboard-response,1
true,2,2,1,0,false,q,false,false,0.0-2.0-0.3-0.27-3.27,0,0,0,68,false,stim,true,2,861.0,2,0,1,71781,task1,223396,false,false,208,image-keyboard-response,2
true,2,0,1,2,false,d,false,true,0.0-2.0-0.3-0.28-3.28,0,0,0,81,false,stim,true,0,729.7000000029802,2,0,2,71781,task1,225643,false,true,211,image-keyboard-response,3
true,2,0,1,1,false,z,false,false,0.0-2.0-0.3-0.29-3.29,0,0,0,81,false,stim,true,0,632.2000000029802,2,0,0,71781,task1,227793,false,false,214,image-keyboard-response,4
true,2,1,1,0,false,q,true,false,0.0-2.0-0.3-0.30-3.30,0,0,0,90,false,stim,false,2,860.9000000059605,2,0,1,71781,task1,230162,false,false,217,image-keyboard-response,5
true,2,0,1,2,false,d,false,false,0.0-2.0-0.3-0.31-3.31,0,0,0,81,false,stim,true,0,589.9000000059605,2,0,2,71781,task1,232271,false,false,220,image-keyboard-response,6
true,2,1,1,2,false,d,true,false,0.0-2.0-0.3-0.32-3.32,0,0,0,90,false,stim,false,0,1030.2999999970198,2,0,2,71781,task1,234829,false,false,223,image-keyboard-response,7
true,2,0,1,1,false,z,false,false,0.0-2.0-0.3-0.33-3.33,0,0,0,81,false,stim,true,0,826.2999999970198,2,0,0,71781,task1,237182,false,false,226,image-keyboard-response,8
true,2,2,1,1,false,z,true,false,0.0-2.0-0.3-0.34-3.34,0,0,0,68,false,stim,false,0,986.0999999940395,2,0,0,71781,task1,239686,false,false,229,image-keyboard-response,9
true,2,0,1,0,true,q,false,true,0.0-2.0-0.3-0.35-3.35,0,0,0,81,false,stim,false,2,917.2000000029802,2,0,1,71781,task1,242116,false,false,232,image-keyboard-response,10
true,2,1,1,1,true,z,false,true,0.0-2.0-0.4-0.36-3.36,0,0,0,90,false,stim,false,0,1093.5,2,0,0,71781,task1,244730,false,false,235,image-keyboard-response,11
true,2,1,1,1,true,z,false,true,0.0-2.0-0.4-0.37-3.37,0,0,0,90,false,stim,false,0,616.7999999970198,2,0,0,71781,task1,246870,false,false,238,image-keyboard-response,12
true,2,0,1,2,false,d,false,false,0.0-2.0-0.4-0.38-3.38,0,0,0,81,false,stim,true,0,1312.1000000089407,2,0,2,71781,task1,249705,false,false,241,image-keyboard-response,13
true,2,0,1,0,true,q,false,true,0.0-2.0-0.4-0.39-3.39,0,0,0,81,false,stim,false,2,932.4000000059605,2,0,1,71781,task1,252158,false,false,244,image-keyboard-response,14
true,2,0,1,0,true,q,false,true,0.0-2.0-0.4-0.40-3.40,0,0,0,81,false,stim,false,2,475.0,2,0,1,71781,task1,254167,false,false,247,image-keyboard-response,15
true,2,2,1,2,true,d,false,true,0.0-2.0-0.4-0.41-3.41,0,0,0,68,false,stim,false,0,924.1999999880791,2,0,2,71781,task1,256607,false,false,250,image-keyboard-response,16
true,2,1,1,1,true,z,false,true,0.0-2.0-0.4-0.42-3.42,0,0,0,90,false,stim,false,0,779.2999999970198,2,0,0,71781,task1,258912,false,false,253,image-keyboard-response,17
true,2,2,1,2,true,d,false,true,0.0-2.0-0.4-0.43-3.43,0,0,0,68,false,stim,false,0,742.5999999940395,2,0,2,71781,task1,261176,false,false,256,image-keyboard-response,18
true,2,0,1,0,true,q,false,true,0.0-2.0-0.4-0.44-3.44,0,0,0,81,false,stim,false,2,463.0,2,0,1,71781,task1,263170,false,false,259,image-keyboard-response,19
true,2,0,1,0,true,q,false,true,0.0-2.0-0.5-0.45-3.45,0,0,0,81,false,stim,false,2,427.40000000596046,2,0,1,71781,task1,265138,false,false,262,image-keyboard-response,20
true,2,2,1,2,true,d,false,true,0.0-2.0-0.5-0.46-3.46,0,0,0,68,false,stim,false,0,1185.4000000059605,2,0,2,71781,task1,267837,false,false,265,image-keyboard-response,21
true,2,0,1,0,true,q,false,true,0.0-2.0-0.5-0.47-3.47,0,0,0,81,false,stim,false,2,651.9000000059605,2,0,1,71781,task1,270007,false,false,268,image-keyboard-response,22
true,2,1,1,1,true,z,false,true,0.0-2.0-0.5-0.48-3.48,0,0,0,90,false,stim,false,0,604.8000000119209,2,0,0,71781,task1,272121,false,false,271,image-keyboard-response,23
true,2,1,1,1,true,z,false,true,0.0-2.0-0.5-0.49-3.49,0,0,0,90,false,stim,false,0,717.0,2,0,0,71781,task1,274359,false,false,274,image-keyboard-response,24
true,2,1,1,1,true,z,false,true,0.0-2.0-0.5-0.50-3.50,0,0,0,90,false,stim,false,0,466.90000000596046,2,0,0,71781,task1,276341,false,false,277,image-keyboard-response,25
true,2,0,1,0,true,q,false,true,0.0-2.0-0.5-0.51-3.51,0,0,0,81,false,stim,false,2,507.5,2,0,1,71781,task1,278355,false,false,280,image-keyboard-response,26
true,2,2,1,2,true,d,false,true,0.0-2.0-0.5-0.52-3.52,0,0,0,68,false,stim,false,0,1314.0,2,0,2,71781,task1,281198,false,false,283,image-keyboard-response,27
true,2,2,1,2,true,d,false,true,0.0-2.0-0.5-0.53-3.53,0,0,0,68,false,stim,false,0,578.5999999940395,2,0,2,71781,task1,283303,false,false,286,image-keyboard-response,28
true,2,1,1,1,true,z,false,true,0.0-2.0-0.6-0.54-3.54,0,0,0,90,false,stim,false,0,833.5,2,0,0,71781,task1,285652,false,false,289,image-keyboard-response,29
true,2,2,1,2,true,d,false,true,0.0-2.0-0.6-0.55-3.55,0,0,0,68,false,stim,false,0,745.8000000119209,2,0,2,71781,task1,287928,false,false,292,image-keyboard-response,30
true,2,2,1,2,true,d,false,true,0.0-2.0-0.6-0.56-3.56,0,0,0,68,false,stim,false,0,396.59999999403954,2,0,2,71781,task1,289853,false,false,295,image-keyboard-response,31
true,2,1,1,1,true,z,false,true,0.0-2.0-0.6-0.57-3.57,0,0,0,90,false,stim,false,0,683.6999999880791,2,0,0,71781,task1,292056,false,false,298,image-keyboard-response,32
true,2,0,1,0,true,q,false,true,0.0-2.0-0.6-0.58-3.58,0,0,0,81,false,stim,false,2,548.0999999940395,2,0,1,71781,task1,294125,false,false,301,image-keyboard-response,33
true,2,1,1,1,true,z,false,true,0.0-2.0-0.6-0.59-3.59,0,0,0,90,false,stim,false,0,549.5999999940395,2,0,0,71781,task1,296189,false,false,304,image-keyboard-response,34
true,2,2,1,2,true,d,false,true,0.0-2.0-0.6-0.60-3.60,0,0,0,68,false,stim,false,0,908.2000000029802,2,0,2,71781,task1,298637,false,false,307,image-keyboard-response,35
true,2,0,1,0,true,q,false,true,0.0-2.0-0.6-0.61-3.61,0,0,0,81,false,stim,false,2,594.4000000059605,2,0,1,71781,task1,300746,false,false,310,image-keyboard-response,36
true,2,0,1,0,true,q,false,true,0.0-2.0-0.6-0.62-3.62,0,0,0,81,false,stim,false,2,472.29999999701977,2,0,1,71781,task1,302764,false,false,313,image-keyboard-response,37
true,2,2,1,2,true,d,false,true,0.0-2.0-0.7-0.63-3.63,0,0,0,68,false,stim,false,0,797.2999999970198,2,0,2,71781,task1,305087,false,false,316,image-keyboard-response,38
true,2,0,1,0,true,q,false,true,0.0-2.0-0.7-0.64-3.64,0,0,0,81,false,stim,false,2,911.7000000029802,2,0,1,71781,task1,307513,false,false,319,image-keyboard-response,39
true,2,2,1,2,true,d,false,true,0.0-2.0-0.7-0.65-3.65,0,0,0,68,false,stim,false,0,592.5999999940395,2,0,2,71781,task1,309634,false,false,322,image-keyboard-response,40
true,2,1,1,1,true,z,false,true,0.0-2.0-0.7-0.66-3.66,0,0,0,90,false,stim,false,0,569.5,2,0,0,71781,task1,311724,false,false,325,image-keyboard-response,41
true,2,1,1,1,true,z,false,true,0.0-2.0-0.7-0.67-3.67,0,0,0,90,false,stim,false,0,412.40000000596046,2,0,0,71781,task1,313657,false,false,328,image-keyboard-response,42
true,2,0,1,0,true,q,false,false,0.0-2.0-0.7-0.68-3.68,0,0,0,81,false,stim,false,2,593.9000000059605,2,0,1,71781,task1,315766,false,true,331,image-keyboard-response,43
true,2,1,1,1,true,z,false,true,0.0-2.0-0.7-0.69-3.69,0,0,0,90,false,stim,false,0,488.3999999910593,2,0,0,71781,task1,317774,false,false,334,image-keyboard-response,44
true,3,2,1,1,false,z,false,false,0.0-2.0-0.7-0.70-3.70,0,0,0,68,true,stim,true,2,426.09999999403954,2,0,2,71781,task1,319732,false,false,337,image-keyboard-response,1
true,3,0,1,2,false,d,false,false,0.0-2.0-0.7-0.71-3.71,0,0,0,81,false,stim,true,0,512.0999999940395,2,0,1,71781,task1,321762,false,false,340,image-keyboard-response,2
true,3,1,1,2,false,d,false,false,0.0-2.0-0.8-0.72-3.72,0,0,0,90,false,stim,true,1,545.0,2,0,0,71781,task1,323830,false,false,343,image-keyboard-response,3
true,3,2,1,1,false,z,false,false,0.0-2.0-0.8-0.73-3.73,0,0,0,68,false,stim,true,2,375.70000000298023,2,0,2,71781,task1,325744,false,false,346,image-keyboard-response,4
true,3,1,1,2,false,d,true,false,0.0-2.0-0.8-0.74-3.74,0,0,0,90,false,stim,false,0,726.7999999970198,2,0,1,71781,task1,327992,false,false,349,image-keyboard-response,5
true,3,2,1,2,true,d,false,true,0.0-2.0-0.8-0.75-3.75,0,0,0,68,false,stim,false,0,773.2000000029802,2,0,1,71781,task1,330291,false,false,352,image-keyboard-response,6
true,3,0,1,1,false,z,true,false,0.0-2.0-0.8-0.76-3.76,0,0,0,81,false,stim,false,2,887.7000000029802,2,0,2,71781,task1,332694,false,false,355,image-keyboard-response,7
true,3,0,1,2,false,d,true,false,0.0-2.0-0.8-0.77-3.77,0,0,0,81,false,stim,false,1,827.1000000089407,2,0,0,71781,task1,335038,false,false,358,image-keyboard-response,8
true,3,2,1,2,true,d,false,true,0.0-2.0-0.8-0.78-3.78,0,0,0,68,false,stim,false,0,659.0999999940395,2,0,1,71781,task1,337211,false,false,361,image-keyboard-response,9
true,3,1,1,2,false,d,false,false,0.0-2.0-0.8-0.79-3.79,0,0,0,90,false,stim,true,1,539.5,2,0,0,71781,task1,339276,false,false,364,image-keyboard-response,10
true,3,1,1,1,true,z,false,false,0.0-2.0-0.8-0.80-3.80,0,0,0,90,false,stim,false,2,551.2000000029802,2,0,2,71781,task1,341359,false,true,367,image-keyboard-response,11
true,3,2,1,2,true,d,false,true,0.0-2.0-0.9-0.81-3.81,0,0,0,68,false,stim,false,0,736.7000000029802,2,0,1,71781,task1,343628,false,false,370,image-keyboard-response,12
true,3,2,1,2,true,d,false,true,0.0-2.0-0.9-0.82-3.82,0,0,0,68,false,stim,false,1,691.5,2,0,0,71781,task1,345835,false,false,373,image-keyboard-response,13
true,3,1,1,1,true,z,false,true,0.0-2.0-0.9-0.83-3.83,0,0,0,90,false,stim,false,2,981.4000000059605,2,0,2,71781,task1,348344,false,false,376,image-keyboard-response,14
true,3,2,1,2,true,d,false,true,0.0-2.0-0.9-0.84-3.84,0,0,0,68,false,stim,false,0,469.70000000298023,2,0,1,71781,task1,350338,false,false,379,image-keyboard-response,15
true,3,2,1,1,false,z,false,false,0.0-2.0-0.9-0.85-3.85,0,0,0,68,false,stim,true,2,441.29999999701977,2,0,2,71781,task1,352302,false,false,382,image-keyboard-response,16
true,3,0,1,1,false,z,true,false,0.0-2.0-0.9-0.86-3.86,0,0,0,81,false,stim,false,2,1465.7999999970198,2,0,2,71781,task1,355275,false,false,385,image-keyboard-response,17
true,3,1,1,2,false,d,false,false,0.0-2.0-0.9-0.87-3.87,0,0,0,90,false,stim,true,1,1333.2999999970198,2,0,0,71781,task1,358127,false,false,388,image-keyboard-response,18
true,3,2,1,2,true,d,false,true,0.0-2.0-0.9-0.88-3.88,0,0,0,68,false,stim,false,1,422.70000000298023,2,0,0,71781,task1,360076,false,false,391,image-keyboard-response,19
true,3,1,1,2,false,d,true,false,0.0-2.0-0.9-0.89-3.89,0,0,0,90,false,stim,false,0,772.2999999970198,2,0,1,71781,task1,362366,false,false,394,image-keyboard-response,20
true,3,2,1,2,true,d,false,true,0.0-2.0-0.10-0.90-3.90,0,0,0,68,false,stim,false,0,364.29999999701977,2,0,1,71781,task1,364254,false,false,397,image-keyboard-response,21
true,3,1,1,1,true,z,false,true,0.0-2.0-0.10-0.91-3.91,0,0,0,90,false,stim,false,2,859.7999999970198,2,0,2,71781,task1,366632,false,false,400,image-keyboard-response,22
true,3,2,1,2,true,d,false,true,0.0-2.0-0.10-0.92-3.92,0,0,0,68,false,stim,false,0,562.7000000029802,2,0,1,71781,task1,368726,false,false,403,image-keyboard-response,23
true,3,2,1,2,true,d,false,true,0.0-2.0-0.10-0.93-3.93,0,0,0,68,false,stim,false,0,954.1000000089407,2,0,1,71781,task1,371210,false,false,406,image-keyboard-response,24
true,3,2,1,2,true,d,false,false,0.0-2.0-0.10-0.94-3.94,0,0,0,68,false,stim,false,1,685.2000000029802,2,0,0,71781,task1,373410,false,true,409,image-keyboard-response,25
true,3,1,1,1,true,z,false,true,0.0-2.0-0.10-0.95-3.95,0,0,0,90,false,stim,false,2,466.29999999701977,2,0,2,71781,task1,375394,false,false,412,image-keyboard-response,26
true,3,2,1,2,true,d,false,true,0.0-2.0-0.10-0.96-3.96,0,0,0,68,false,stim,false,1,575.1999999880791,2,0,0,71781,task1,377488,false,false,415,image-keyboard-response,27
true,3,2,1,2,true,d,false,true,0.0-2.0-0.10-0.97-3.97,0,0,0,68,false,stim,false,1,387.79999999701977,2,0,0,71781,task1,379417,false,false,418,image-keyboard-response,28
true,3,1,1,1,true,z,false,true,0.0-2.0-0.10-0.98-3.98,0,0,0,90,false,stim,false,2,669.6000000089407,2,0,2,71781,task1,381604,false,false,421,image-keyboard-response,29
true,3,2,1,2,true,d,false,true,0.0-2.0-0.11-0.99-3.99,0,0,0,68,false,stim,false,0,549.2000000029802,2,0,1,71781,task1,383669,false,false,424,image-keyboard-response,30
true,3,1,1,1,true,z,false,true,0.0-2.0-0.11-0.100-3.100,0,0,0,90,false,stim,false,2,1086.199999988079,2,0,2,71781,task1,386272,false,false,427,image-keyboard-response,31
true,3,2,1,2,true,d,false,true,0.0-2.0-0.11-0.101-3.101,0,0,0,68,false,stim,false,1,518.5,2,0,0,71781,task1,388312,false,false,430,image-keyboard-response,32
true,3,2,1,2,true,d,false,true,0.0-2.0-0.11-0.102-3.102,0,0,0,68,false,stim,false,0,574.1000000089407,2,0,1,71781,task1,390411,false,false,433,image-keyboard-response,33
true,3,2,1,2,true,d,false,true,0.0-2.0-0.11-0.103-3.103,0,0,0,68,false,stim,false,0,359.20000000298023,2,0,1,71781,task1,392300,false,false,436,image-keyboard-response,34
true,3,1,1,1,true,z,false,true,0.0-2.0-0.11-0.104-3.104,0,0,0,90,false,stim,false,2,658.0999999940395,2,0,2,71781,task1,394479,false,false,439,image-keyboard-response,35
true,3,2,1,2,true,d,false,true,0.0-2.0-0.11-0.105-3.105,0,0,0,68,false,stim,false,1,531.6999999880791,2,0,0,71781,task1,396533,false,false,442,image-keyboard-response,36
true,3,2,1,2,true,d,false,true,0.0-2.0-0.11-0.106-3.106,0,0,0,68,false,stim,false,1,527.8999999910593,2,0,0,71781,task1,398592,false,false,445,image-keyboard-response,37
true,3,1,1,1,true,z,false,false,0.0-2.0-0.11-0.107-3.107,0,0,0,90,false,stim,false,2,737.6000000089407,2,0,2,71781,task1,400850,false,true,448,image-keyboard-response,38
true,3,2,1,2,true,d,false,false,0.0-2.0-0.12-0.108-3.108,0,0,0,68,false,stim,false,1,627.1999999880791,2,0,0,71781,task1,403008,false,true,451,image-keyboard-response,39
true,3,1,1,1,true,z,false,true,0.0-2.0-0.12-0.109-3.109,0,0,0,90,false,stim,false,2,422.5,2,0,2,71781,task1,404954,false,false,454,image-keyboard-response,40
true,3,1,1,1,true,z,false,true,0.0-2.0-0.12-0.110-3.110,0,0,0,90,false,stim,false,2,609.4000000059605,2,0,2,71781,task1,407097,false,false,457,image-keyboard-response,41
true,4,2,1,1,false,z,false,false,0.0-2.0-0.12-0.111-3.111,0,0,0,68,true,stim,true,2,453.3999999910593,2,0,1,71781,task1,409076,false,false,460,image-keyboard-response,1
true,4,2,1,1,false,z,false,false,0.0-2.0-0.12-0.112-3.112,0,0,0,68,false,stim,true,2,492.59999999403954,2,0,1,71781,task1,411091,false,false,463,image-keyboard-response,2
true,4,1,1,0,false,q,false,false,0.0-2.0-0.12-0.113-3.113,0,0,0,90,false,stim,true,1,613.5,2,0,2,71781,task1,413229,false,false,466,image-keyboard-response,3
true,4,0,1,1,false,z,true,false,0.0-2.0-0.12-0.114-3.114,0,0,0,81,false,stim,false,2,530.2999999970198,2,0,0,71781,task1,415283,false,false,469,image-keyboard-response,4
true,4,1,1,1,true,z,false,true,0.0-2.0-0.12-0.115-3.115,0,0,0,90,false,stim,false,2,455.5,2,0,0,71781,task1,417267,false,false,472,image-keyboard-response,5
true,4,0,1,1,false,z,true,false,0.0-2.0-0.12-0.116-3.116,0,0,0,81,false,stim,false,2,933.6999999880791,2,0,1,71781,task1,419721,false,false,475,image-keyboard-response,6
true,4,2,1,0,false,q,true,false,0.0-2.0-0.13-0.117-3.117,0,0,0,68,false,stim,false,1,865.6000000089407,2,0,2,71781,task1,422104,false,false,478,image-keyboard-response,7
true,4,1,1,0,false,q,false,false,0.0-2.0-0.13-0.118-3.118,0,0,0,90,false,stim,true,1,511.79999999701977,2,0,2,71781,task1,424139,false,false,481,image-keyboard-response,8
true,4,1,1,1,true,z,false,true,0.0-2.0-0.13-0.119-3.119,0,0,0,90,false,stim,false,2,1226.6000000089407,2,0,1,71781,task1,426887,false,false,484,image-keyboard-response,9
true,4,1,1,1,true,z,false,true,0.0-2.0-0.13-0.120-3.120,0,0,0,90,false,stim,false,2,529.5,2,0,0,71781,task1,428941,false,false,487,image-keyboard-response,10
true,4,0,1,0,true,q,false,true,0.0-2.0-0.13-0.121-3.121,0,0,0,81,false,stim,false,1,1022.5,2,0,2,71781,task1,431490,false,false,490,image-keyboard-response,11
true,4,1,1,1,true,z,false,true,0.0-2.0-0.13-0.122-3.122,0,0,0,90,false,stim,false,2,1308.2999999970198,2,0,0,71781,task1,434318,false,false,493,image-keyboard-response,12
true,4,1,1,1,true,z,false,true,0.0-2.0-0.13-0.123-3.123,0,0,0,90,false,stim,false,2,725.7000000029802,2,0,1,71781,task1,436559,false,false,496,image-keyboard-response,13
true,4,1,1,1,true,z,false,true,0.0-2.0-0.13-0.124-3.124,0,0,0,90,false,stim,false,2,500.5,2,0,1,71781,task1,438582,false,false,499,image-keyboard-response,14
true,4,1,1,1,true,z,false,true,0.0-2.0-0.13-0.125-3.125,0,0,0,90,false,stim,false,2,676.7000000029802,2,0,0,71781,task1,440791,false,false,502,image-keyboard-response,15
true,4,1,1,1,true,z,false,true,0.0-2.0-0.14-0.126-3.126,0,0,0,90,false,stim,false,2,447.1000000089407,2,0,0,71781,task1,442760,false,false,505,image-keyboard-response,16
true,4,0,1,0,true,q,false,true,0.0-2.0-0.14-0.127-3.127,0,0,0,81,false,stim,false,1,801.7999999970198,2,0,2,71781,task1,445084,false,false,508,image-keyboard-response,17
true,4,1,1,1,true,z,false,true,0.0-2.0-0.14-0.128-3.128,0,0,0,90,false,stim,false,2,572.6999999880791,2,0,0,71781,task1,447176,false,false,511,image-keyboard-response,18
true,4,0,1,0,true,q,false,true,0.0-2.0-0.14-0.129-3.129,0,0,0,81,false,stim,false,1,574.7000000029802,2,0,2,71781,task1,449281,false,false,514,image-keyboard-response,19
true,4,0,1,0,true,q,false,true,0.0-2.0-0.14-0.130-3.130,0,0,0,81,false,stim,false,1,529.5999999940395,2,0,2,71781,task1,451339,false,false,517,image-keyboard-response,20
true,4,1,1,1,true,z,false,true,0.0-2.0-0.14-0.131-3.131,0,0,0,90,false,stim,false,2,970.3000000119209,2,0,1,71781,task1,453819,false,false,520,image-keyboard-response,21
true,4,1,1,1,true,z,false,true,0.0-2.0-0.14-0.132-3.132,0,0,0,90,false,stim,false,2,845.7999999970198,2,0,0,71781,task1,456186,false,false,523,image-keyboard-response,22
true,4,1,1,1,true,z,false,true,0.0-2.0-0.14-0.133-3.133,0,0,0,90,false,stim,false,2,847.0999999940395,2,0,1,71781,task1,458554,false,false,526,image-keyboard-response,23
true,4,1,1,1,true,z,false,true,0.0-2.0-0.14-0.134-3.134,0,0,0,90,false,stim,false,2,455.6000000089407,2,0,1,71781,task1,460533,false,false,529,image-keyboard-response,24
true,4,1,1,1,true,z,false,true,0.0-2.0-0.15-0.135-3.135,0,0,0,90,false,stim,false,2,482.5,2,0,1,71781,task1,462527,false,false,532,image-keyboard-response,25
true,4,1,1,1,true,z,false,true,0.0-2.0-0.15-0.136-3.136,0,0,0,90,false,stim,false,2,616.0999999940395,2,0,0,71781,task1,464665,false,false,535,image-keyboard-response,26
true,4,1,1,1,true,z,false,true,0.0-2.0-0.15-0.137-3.137,0,0,0,90,false,stim,false,2,548.9000000059605,2,0,0,71781,task1,466724,false,false,538,image-keyboard-response,27
true,4,0,1,0,true,q,false,true,0.0-2.0-0.15-0.138-3.138,0,0,0,81,false,stim,false,1,525.7000000029802,2,0,2,71781,task1,468779,false,false,541,image-keyboard-response,28
true,4,0,1,0,true,q,false,true,0.0-2.0-0.15-0.139-3.139,0,0,0,81,false,stim,false,1,338.29999999701977,2,0,2,71781,task1,470653,false,false,544,image-keyboard-response,29
true,4,1,1,1,true,z,false,true,0.0-2.0-0.15-0.140-3.140,0,0,0,90,false,stim,false,2,584.8000000119209,2,0,0,71781,task1,472756,false,false,547,image-keyboard-response,30
true,4,0,1,0,true,q,false,true,0.0-2.0-0.15-0.141-3.141,0,0,0,81,false,stim,false,1,516.5,2,0,2,71781,task1,474790,false,false,550,image-keyboard-response,31
true,4,1,1,1,true,z,false,true,0.0-2.0-0.15-0.142-3.142,0,0,0,90,false,stim,false,2,471.6000000089407,2,0,1,71781,task1,476773,false,false,553,image-keyboard-response,32
true,4,1,1,1,true,z,false,true,0.0-2.0-0.15-0.143-3.143,0,0,0,90,false,stim,false,2,426.0,2,0,1,71781,task1,478707,false,false,556,image-keyboard-response,33
true,4,1,1,1,true,z,false,true,0.0-2.0-0.16-0.144-3.144,0,0,0,90,false,stim,false,2,353.29999999701977,2,0,1,71781,task1,480582,false,false,559,image-keyboard-response,34
true,4,1,1,1,true,z,false,true,0.0-2.0-0.16-0.145-3.145,0,0,0,90,false,stim,false,2,603.9000000059605,2,0,0,71781,task1,482721,false,false,562,image-keyboard-response,35
true,4,1,1,1,true,z,false,true,0.0-2.0-0.16-0.146-3.146,0,0,0,90,false,stim,false,2,589.9000000059605,2,0,0,71781,task1,484833,false,false,565,image-keyboard-response,36
true,4,0,1,0,true,q,false,false,0.0-2.0-0.16-0.147-3.147,0,0,0,81,false,stim,false,1,485.3999999910593,2,0,2,71781,task1,486839,false,true,568,image-keyboard-response,37
true,4,0,1,0,true,q,false,true,0.0-2.0-0.16-0.148-3.148,0,0,0,81,false,stim,false,1,1080.2999999970198,2,0,2,71781,task1,489446,false,false,571,image-keyboard-response,38
true,4,1,1,1,true,z,false,true,0.0-2.0-0.16-0.149-3.149,0,0,0,90,false,stim,false,2,607.0,2,0,1,71781,task1,491584,false,false,574,image-keyboard-response,39
true,4,1,1,1,true,z,false,true,0.0-2.0-0.16-0.150-3.150,0,0,0,90,false,stim,false,2,436.8999999910593,2,0,0,71781,task1,493539,false,false,577,image-keyboard-response,40
true,4,1,1,1,true,z,false,true,0.0-2.0-0.16-0.151-3.151,0,0,0,90,false,stim,false,2,467.5,2,0,1,71781,task1,495531,false,false,580,image-keyboard-response,41
true,5,0,2,1,false,z,false,false,0.0-2.0-0.16-0.152-3.152,0,0,0,81,true,stim,true,0,519.0999999940395,2,0,2,71781,task1,497577,false,false,583,image-keyboard-response,1
true,5,1,2,2,false,d,false,false,0.0-2.0-0.17-0.153-3.153,0,0,0,90,false,stim,true,1,353.1000000089407,2,0,0,71781,task1,499446,false,false,586,image-keyboard-response,2
true,5,2,2,1,false,z,true,false,0.0-2.0-0.17-0.154-3.154,0,0,0,68,false,stim,false,0,1218.0,2,0,2,71781,task1,502185,false,false,589,image-keyboard-response,3
true,5,1,2,2,false,d,false,false,0.0-2.0-0.17-0.155-3.155,0,0,0,90,false,stim,true,1,1147.2000000029802,2,0,1,71781,task1,504866,false,false,592,image-keyboard-response,4
true,5,1,2,1,true,z,false,true,0.0-2.0-0.17-0.156-3.156,0,0,0,90,false,stim,false,0,932.9000000059605,2,0,2,71781,task1,507329,false,false,595,image-keyboard-response,5
true,5,1,2,1,true,z,false,true,0.0-2.0-0.17-0.157-3.157,0,0,0,90,false,stim,false,0,693.3999999910593,2,0,2,71781,task1,509533,false,false,598,image-keyboard-response,6
true,5,0,2,2,false,d,true,false,0.0-2.0-0.17-0.158-3.158,0,0,0,81,false,stim,false,1,975.4000000059605,2,0,1,71781,task1,512032,false,false,601,image-keyboard-response,7
true,5,0,2,2,false,d,true,false,0.0-2.0-0.17-0.159-3.159,0,0,0,81,false,stim,false,1,449.0,2,0,0,71781,task1,514006,false,false,604,image-keyboard-response,8
true,5,2,2,2,true,d,false,true,0.0-2.0-0.17-0.160-3.160,0,0,0,68,false,stim,false,1,748.4000000059605,2,0,0,71781,task1,516275,false,false,607,image-keyboard-response,9
true,5,2,2,2,true,d,false,true,0.0-2.0-0.17-0.161-3.161,0,0,0,68,false,stim,false,1,544.1000000089407,2,0,1,71781,task1,518354,false,false,610,image-keyboard-response,10
true,5,2,2,2,true,d,false,true,0.0-2.0-0.18-0.162-3.162,0,0,0,68,false,stim,false,1,1266.2000000029802,2,0,0,71781,task1,521142,false,false,613,image-keyboard-response,11
true,5,1,2,1,true,z,false,true,0.0-2.0-0.18-0.163-3.163,0,0,0,90,false,stim,false,0,536.5,2,0,2,71781,task1,523201,false,false,616,image-keyboard-response,12
true,5,1,2,1,true,z,false,true,0.0-2.0-0.18-0.164-3.164,0,0,0,90,false,stim,false,0,464.90000000596046,2,0,2,71781,task1,525200,false,false,619,image-keyboard-response,13
true,5,2,2,2,true,d,false,true,0.0-2.0-0.18-0.165-3.165,0,0,0,68,false,stim,false,1,774.7999999970198,2,0,1,71781,task1,527514,false,false,622,image-keyboard-response,14
true,5,1,2,1,true,z,false,true,0.0-2.0-0.18-0.166-3.166,0,0,0,90,false,stim,false,0,605.7999999970198,2,0,2,71781,task1,529663,false,false,625,image-keyboard-response,15
true,5,2,2,2,true,d,false,false,0.0-2.0-0.18-0.167-3.167,0,0,0,68,false,stim,false,1,763.9000000059605,2,0,1,71781,task1,531952,false,true,628,image-keyboard-response,16
true,5,2,2,2,true,d,false,true,0.0-2.0-0.18-0.168-3.168,0,0,0,68,false,stim,false,1,732.0,2,0,0,71781,task1,534205,false,false,631,image-keyboard-response,17
true,5,2,2,2,true,d,false,true,0.0-2.0-0.18-0.169-3.169,0,0,0,68,false,stim,false,1,819.5,2,0,0,71781,task1,536549,false,false,634,image-keyboard-response,18
true,5,2,2,2,true,d,false,true,0.0-2.0-0.18-0.170-3.170,0,0,0,68,false,stim,false,1,639.5999999940395,2,0,1,71781,task1,538699,false,false,637,image-keyboard-response,19
true,5,1,2,1,true,z,false,true,0.0-2.0-0.19-0.171-3.171,0,0,0,90,false,stim,false,0,550.5,2,0,2,71781,task1,540772,false,false,640,image-keyboard-response,20
true,5,2,2,2,true,d,false,true,0.0-2.0-0.19-0.172-3.172,0,0,0,68,false,stim,false,1,495.29999999701977,2,0,0,71781,task1,542792,false,false,643,image-keyboard-response,21
true,5,2,2,2,true,d,false,true,0.0-2.0-0.19-0.173-3.173,0,0,0,68,false,stim,false,1,773.4000000059605,2,0,0,71781,task1,545086,false,false,646,image-keyboard-response,22
true,5,2,2,2,true,d,false,false,0.0-2.0-0.19-0.174-3.174,0,0,0,68,false,stim,false,1,546.6999999880791,2,0,1,71781,task1,547165,false,true,649,image-keyboard-response,23
true,5,2,2,2,true,d,false,true,0.0-2.0-0.19-0.175-3.175,0,0,0,68,false,stim,false,1,484.59999999403954,2,0,1,71781,task1,549180,false,false,652,image-keyboard-response,24
true,5,2,2,2,true,d,false,true,0.0-2.0-0.19-0.176-3.176,0,0,0,68,false,stim,false,1,404.5,2,0,1,71781,task1,551118,false,false,655,image-keyboard-response,25
true,5,1,2,1,true,z,false,true,0.0-2.0-0.19-0.177-3.177,0,0,0,90,false,stim,false,0,541.0,2,0,2,71781,task1,553187,false,false,658,image-keyboard-response,26
true,5,1,2,1,true,z,false,true,0.0-2.0-0.19-0.178-3.178,0,0,0,90,false,stim,false,0,417.20000000298023,2,0,2,71781,task1,555126,false,false,661,image-keyboard-response,27
true,5,2,2,2,true,d,false,true,0.0-2.0-0.19-0.179-3.179,0,0,0,68,false,stim,false,1,562.2999999970198,2,0,0,71781,task1,557200,false,false,664,image-keyboard-response,28
true,5,2,2,2,true,d,false,true,0.0-2.0-0.20-0.180-3.180,0,0,0,68,false,stim,false,1,402.0,2,0,0,71781,task1,559119,false,false,667,image-keyboard-response,29
true,5,2,2,2,true,d,false,true,0.0-2.0-0.20-0.181-3.181,0,0,0,68,false,stim,false,1,975.2999999970198,2,0,1,71781,task1,561614,false,false,670,image-keyboard-response,30
true,5,2,2,2,true,d,false,true,0.0-2.0-0.20-0.182-3.182,0,0,0,68,false,stim,false,1,493.29999999701977,2,0,1,71781,task1,563627,false,false,673,image-keyboard-response,31
true,5,1,2,1,true,z,false,false,0.0-2.0-0.20-0.183-3.183,0,0,0,90,false,stim,false,0,801.4000000059605,2,0,2,71781,task1,565936,false,true,676,image-keyboard-response,32
true,5,2,2,2,true,d,false,true,0.0-2.0-0.20-0.184-3.184,0,0,0,68,false,stim,false,1,539.6999999880791,2,0,0,71781,task1,568000,false,false,679,image-keyboard-response,33
true,5,2,2,2,true,d,false,true,0.0-2.0-0.20-0.185-3.185,0,0,0,68,false,stim,false,1,341.6000000089407,2,0,0,71781,task1,569859,false,false,682,image-keyboard-response,34
true,5,2,2,2,true,d,false,true,0.0-2.0-0.20-0.186-3.186,0,0,0,68,false,stim,false,1,477.0,2,0,1,71781,task1,571858,false,false,685,image-keyboard-response,35
true,5,1,2,1,true,z,false,true,0.0-2.0-0.20-0.187-3.187,0,0,0,90,false,stim,false,0,539.0,2,0,2,71781,task1,573912,false,false,688,image-keyboard-response,36
true,5,1,2,1,true,z,false,true,0.0-2.0-0.20-0.188-3.188,0,0,0,90,false,stim,false,0,470.19999998807907,2,0,2,71781,task1,575905,false,false,691,image-keyboard-response,37
true,5,1,2,1,true,z,false,false,0.0-2.0-0.21-0.189-3.189,0,0,0,90,false,stim,false,0,458.20000000298023,2,0,2,71781,task1,577875,false,true,694,image-keyboard-response,38
true,5,2,2,2,true,d,false,false,0.0-2.0-0.21-0.190-3.190,0,0,0,68,false,stim,false,1,430.90000000596046,2,0,1,71781,task1,579819,false,true,697,image-keyboard-response,39
true,5,2,2,2,true,d,false,true,0.0-2.0-0.21-0.191-3.191,0,0,0,68,false,stim,false,1,536.3999999910593,2,0,0,71781,task1,581872,false,false,700,image-keyboard-response,40
true,5,0,2,1,false,z,false,false,0.0-2.0-0.21-0.192-3.192,0,0,0,81,false,stim,true,0,700.4000000059605,2,0,2,71781,task1,584091,false,false,703,image-keyboard-response,41
true,5,2,2,2,true,d,false,true,0.0-2.0-0.21-0.193-3.193,0,0,0,68,false,stim,false,1,648.0,2,0,1,71781,task1,586261,false,false,706,image-keyboard-response,42
true,6,1,2,2,false,d,false,false,0.0-2.0-0.21-0.194-3.194,0,0,0,90,true,stim,true,1,803.3000000119209,2,0,2,71781,task1,588594,false,false,709,image-keyboard-response,1
true,6,2,2,0,false,q,false,false,0.0-2.0-0.21-0.195-3.195,0,0,0,68,false,stim,true,2,804.2000000029802,2,0,1,71781,task1,590923,false,false,712,image-keyboard-response,2
true,6,2,2,1,false,z,false,false,0.0-2.0-0.21-0.196-3.196,0,0,0,68,false,stim,true,2,474.59999999403954,2,0,0,71781,task1,592916,false,false,715,image-keyboard-response,3
true,6,1,2,1,true,z,false,true,0.0-2.0-0.21-0.197-3.197,0,0,0,90,false,stim,false,2,1238.6000000089407,2,0,0,71781,task1,595681,false,false,718,image-keyboard-response,4
true,6,1,2,1,true,z,false,true,0.0-2.0-0.22-0.198-3.198,0,0,0,90,false,stim,false,2,767.2000000029802,2,0,0,71781,task1,597966,false,false,721,image-keyboard-response,5
true,6,0,2,0,true,q,false,true,0.0-2.0-0.22-0.199-3.199,0,0,0,81,false,stim,false,2,1540.2999999970198,2,0,1,71781,task1,601019,false,false,724,image-keyboard-response,6
true,6,0,2,0,true,q,false,true,0.0-2.0-0.22-0.200-3.200,0,0,0,81,false,stim,false,2,618.4000000059605,2,0,1,71781,task1,603161,false,false,727,image-keyboard-response,7
true,6,0,2,0,true,q,false,true,0.0-2.0-0.22-0.201-3.201,0,0,0,81,false,stim,false,2,413.79999999701977,2,0,1,71781,task1,605095,false,false,730,image-keyboard-response,8
true,6,2,2,2,true,d,false,true,0.0-2.0-0.22-0.202-3.202,0,0,0,68,false,stim,false,1,785.6000000089407,2,0,2,71781,task1,607400,false,false,733,image-keyboard-response,9
true,6,2,2,2,true,d,false,true,0.0-2.0-0.22-0.203-3.203,0,0,0,68,false,stim,false,1,631.7999999970198,2,0,2,71781,task1,609562,false,false,736,image-keyboard-response,10
true,6,1,2,1,true,z,false,true,0.0-2.0-0.22-0.204-3.204,0,0,0,90,false,stim,false,2,1806.7999999970198,2,0,0,71781,task1,612885,false,false,739,image-keyboard-response,11
true,6,2,2,2,true,d,false,true,0.0-2.0-0.22-0.205-3.205,0,0,0,68,false,stim,false,1,808.2999999970198,2,0,2,71781,task1,615220,false,false,742,image-keyboard-response,12
true,6,1,2,1,true,z,false,true,0.0-2.0-0.22-0.206-3.206,0,0,0,90,false,stim,false,2,634.7999999970198,2,0,0,71781,task1,617389,false,false,745,image-keyboard-response,13
true,6,1,2,1,true,z,false,true,0.0-2.0-0.23-0.207-3.207,0,0,0,90,false,stim,false,2,659.5,2,0,0,71781,task1,619587,false,false,748,image-keyboard-response,14
true,6,1,2,1,true,z,false,true,0.0-2.0-0.23-0.208-3.208,0,0,0,90,false,stim,false,2,415.5,2,0,0,71781,task1,621531,false,false,751,image-keyboard-response,15
true,6,2,2,2,true,d,false,true,0.0-2.0-0.23-0.209-3.209,0,0,0,68,false,stim,false,1,451.29999999701977,2,0,2,71781,task1,623511,false,false,754,image-keyboard-response,16
true,6,2,2,2,true,d,false,true,0.0-2.0-0.23-0.210-3.210,0,0,0,68,false,stim,false,1,404.59999999403954,2,0,2,71781,task1,625429,false,false,757,image-keyboard-response,17
true,6,1,2,1,true,z,false,true,0.0-2.0-0.23-0.211-3.211,0,0,0,90,false,stim,false,2,629.6000000089407,2,0,0,71781,task1,627569,false,false,760,image-keyboard-response,18
true,6,0,2,0,true,q,false,true,0.0-2.0-0.23-0.212-3.212,0,0,0,81,false,stim,false,2,499.59999999403954,2,0,1,71781,task1,629603,false,false,763,image-keyboard-response,19
true,6,0,2,0,true,q,false,true,0.0-2.0-0.23-0.213-3.213,0,0,0,81,false,stim,false,2,476.5,2,0,1,71781,task1,631607,false,false,766,image-keyboard-response,20
true,6,0,2,0,true,q,false,true,0.0-2.0-0.23-0.214-3.214,0,0,0,81,false,stim,false,2,410.6000000089407,2,0,1,71781,task1,633536,false,false,769,image-keyboard-response,21
true,6,2,2,2,true,d,false,true,0.0-2.0-0.23-0.215-3.215,0,0,0,68,false,stim,false,1,884.7999999970198,2,0,2,71781,task1,635939,false,false,772,image-keyboard-response,22
true,6,0,2,0,true,q,false,true,0.0-2.0-0.24-0.216-3.216,0,0,0,81,false,stim,false,2,961.0,2,0,1,71781,task1,638419,false,false,775,image-keyboard-response,23
true,6,2,2,2,true,d,false,true,0.0-2.0-0.24-0.217-3.217,0,0,0,68,false,stim,false,1,944.4000000059605,2,0,2,71781,task1,640892,false,false,778,image-keyboard-response,24
true,6,0,2,0,true,q,false,true,0.0-2.0-0.24-0.218-3.218,0,0,0,81,false,stim,false,2,1553.2999999970198,2,0,1,71781,task1,643980,false,false,781,image-keyboard-response,25
true,6,2,2,2,true,d,false,false,0.0-2.0-0.24-0.219-3.219,0,0,0,68,false,stim,false,1,636.0,2,0,2,71781,task1,646154,false,true,784,image-keyboard-response,26
true,6,1,2,1,true,z,false,true,0.0-2.0-0.24-0.220-3.220,0,0,0,90,false,stim,false,2,565.5,2,0,0,71781,task1,648247,false,false,787,image-keyboard-response,27
true,6,1,2,1,true,z,false,false,0.0-2.0-0.24-0.221-3.221,0,0,0,90,false,stim,false,2,748.2000000029802,2,0,0,71781,task1,650521,false,true,790,image-keyboard-response,28
true,6,1,2,2,false,d,false,false,0.0-2.0-0.24-0.222-3.222,0,0,0,90,false,stim,true,1,1313.5,2,0,2,71781,task1,653356,false,false,793,image-keyboard-response,29
true,6,0,2,0,true,q,false,true,0.0-2.0-0.24-0.223-3.223,0,0,0,81,false,stim,false,2,853.4000000059605,2,0,1,71781,task1,655728,false,false,796,image-keyboard-response,30
true,6,2,2,1,false,z,false,false,0.0-2.0-0.24-0.224-3.224,0,0,0,68,false,stim,true,2,528.7999999970198,2,0,0,71781,task1,657777,false,false,799,image-keyboard-response,31
true,6,1,2,1,true,z,false,true,0.0-2.0-0.25-0.225-3.225,0,0,0,90,false,stim,false,2,822.7000000029802,2,0,0,71781,task1,660121,false,false,802,image-keyboard-response,32
true,6,2,2,2,true,d,false,true,0.0-2.0-0.25-0.226-3.226,0,0,0,68,false,stim,false,1,758.2999999970198,2,0,2,71781,task1,662408,false,false,805,image-keyboard-response,33
true,6,2,2,2,true,d,false,true,0.0-2.0-0.25-0.227-3.227,0,0,0,68,false,stim,false,1,814.8000000119209,2,0,2,71781,task1,664748,false,false,808,image-keyboard-response,34
true,6,0,2,0,true,q,false,true,0.0-2.0-0.25-0.228-3.228,0,0,0,81,false,stim,false,2,443.90000000596046,2,0,1,71781,task1,666718,false,false,811,image-keyboard-response,35
true,6,1,2,1,true,z,false,true,0.0-2.0-0.25-0.229-3.229,0,0,0,90,false,stim,false,2,667.5,2,0,0,71781,task1,668896,false,false,814,image-keyboard-response,36
true,6,1,2,1,true,z,false,true,0.0-2.0-0.25-0.230-3.230,0,0,0,90,false,stim,false,2,577.1000000089407,2,0,0,71781,task1,670994,false,false,817,image-keyboard-response,37
true,6,0,2,0,true,q,false,true,0.0-2.0-0.25-0.231-3.231,0,0,0,81,false,stim,false,2,629.2000000029802,2,0,1,71781,task1,673144,false,false,820,image-keyboard-response,38
true,6,2,2,2,true,d,false,false,0.0-2.0-0.25-0.232-3.232,0,0,0,68,false,stim,false,1,481.0,2,0,2,71781,task1,675141,false,true,823,image-keyboard-response,39
true,6,0,2,0,true,q,false,true,0.0-2.0-0.25-0.233-3.233,0,0,0,81,false,stim,false,2,1091.0,2,0,1,71781,task1,677761,false,false,826,image-keyboard-response,40
true,6,1,2,1,true,z,false,true,0.0-2.0-0.26-0.234-3.234,0,0,0,90,false,stim,false,2,478.29999999701977,2,0,0,71781,task1,679764,false,false,829,image-keyboard-response,41
true,7,0,1,1,false,z,false,false,0.0-2.0-0.26-0.235-3.235,0,0,0,81,true,stim,true,0,630.6000000089407,2,0,1,71781,task1,681918,false,false,832,image-keyboard-response,1
true,7,1,1,2,false,d,false,false,0.0-2.0-0.26-0.236-3.236,0,0,0,90,false,stim,true,1,653.5,2,0,0,71781,task1,684092,false,false,835,image-keyboard-response,2
true,7,0,1,1,false,z,false,false,0.0-2.0-0.26-0.237-3.237,0,0,0,81,false,stim,true,0,908.3000000119209,2,0,1,71781,task1,686521,false,false,838,image-keyboard-response,3
true,7,1,1,1,true,z,false,true,0.0-2.0-0.26-0.238-3.238,0,0,0,90,false,stim,false,0,593.3999999910593,2,0,1,71781,task1,688645,false,false,841,image-keyboard-response,4
true,7,0,1,0,true,q,false,true,0.0-2.0-0.26-0.239-3.239,0,0,0,81,false,stim,false,2,1031.7000000029802,2,0,2,71781,task1,691202,false,false,844,image-keyboard-response,5
true,7,2,1,2,true,d,false,true,0.0-2.0-0.26-0.240-3.240,0,0,0,68,false,stim,false,1,706.3999999910593,2,0,0,71781,task1,693437,false,false,847,image-keyboard-response,6
true,7,0,1,0,true,q,false,true,0.0-2.0-0.26-0.241-3.241,0,0,0,81,false,stim,false,2,468.1000000089407,2,0,2,71781,task1,695431,false,false,850,image-keyboard-response,7
true,7,0,1,0,true,q,false,true,0.0-2.0-0.26-0.242-3.242,0,0,0,81,false,stim,false,2,1144.5999999940395,2,0,2,71781,task1,698104,false,false,853,image-keyboard-response,8
true,7,1,1,1,true,z,false,true,0.0-2.0-0.27-0.243-3.243,0,0,0,90,false,stim,false,0,436.1000000089407,2,0,1,71781,task1,700073,false,false,856,image-keyboard-response,9
true,7,1,1,1,true,z,false,true,0.0-2.0-0.27-0.244-3.244,0,0,0,90,false,stim,false,0,530.2999999970198,2,0,1,71781,task1,702126,false,false,859,image-keyboard-response,10
true,7,2,1,2,true,d,false,true,0.0-2.0-0.27-0.245-3.245,0,0,0,68,false,stim,false,1,416.80000001192093,2,0,0,71781,task1,704064,false,false,862,image-keyboard-response,11
true,7,0,1,0,true,q,false,true,0.0-2.0-0.27-0.246-3.246,0,0,0,81,false,stim,false,2,883.7999999970198,2,0,2,71781,task1,706483,false,false,865,image-keyboard-response,12
true,7,0,1,0,true,q,false,true,0.0-2.0-0.27-0.247-3.247,0,0,0,81,false,stim,false,2,413.8999999910593,2,0,2,71781,task1,708428,false,false,868,image-keyboard-response,13
true,7,0,1,0,true,q,false,true,0.0-2.0-0.27-0.248-3.248,0,0,0,81,false,stim,false,2,603.5,2,0,2,71781,task1,710561,false,false,871,image-keyboard-response,14
true,7,2,1,2,true,d,false,true,0.0-2.0-0.27-0.249-3.249,0,0,0,68,false,stim,false,1,992.6000000089407,2,0,0,71781,task1,713075,false,false,874,image-keyboard-response,15
true,7,2,1,2,true,d,false,true,0.0-2.0-0.27-0.250-3.250,0,0,0,68,false,stim,false,1,494.0,2,0,0,71781,task1,715103,false,false,877,image-keyboard-response,16
true,7,1,1,1,true,z,false,true,0.0-2.0-0.27-0.251-3.251,0,0,0,90,false,stim,false,0,1439.199999988079,2,0,1,71781,task1,718070,false,false,880,image-keyboard-response,17
true,7,2,1,2,true,d,false,true,0.0-2.0-0.28-0.252-3.252,0,0,0,68,false,stim,false,1,789.7000000029802,2,0,0,71781,task1,720371,false,false,883,image-keyboard-response,18
true,7,2,1,2,true,d,false,true,0.0-2.0-0.28-0.253-3.253,0,0,0,68,false,stim,false,1,1971.0,2,0,0,71781,task1,723873,false,false,886,image-keyboard-response,19
true,7,2,1,2,true,d,false,true,0.0-2.0-0.28-0.254-3.254,0,0,0,68,false,stim,false,1,527.5,2,0,0,71781,task1,725933,false,false,889,image-keyboard-response,20
true,7,1,1,1,true,z,false,true,0.0-2.0-0.28-0.255-3.255,0,0,0,90,false,stim,false,0,1605.5,2,0,1,71781,task1,729064,false,false,892,image-keyboard-response,21
true,7,0,1,0,true,q,false,true,0.0-2.0-0.28-0.256-3.256,0,0,0,81,false,stim,false,2,1058.5999999940395,2,0,2,71781,task1,731655,false,false,895,image-keyboard-response,22
true,7,1,1,1,true,z,false,true,0.0-2.0-0.28-0.257-3.257,0,0,0,90,false,stim,false,0,1508.5,2,0,1,71781,task1,734687,false,false,898,image-keyboard-response,23
true,7,1,1,1,true,z,false,true,0.0-2.0-0.28-0.258-3.258,0,0,0,90,false,stim,false,0,1854.7999999970198,2,0,1,71781,task1,738096,false,false,901,image-keyboard-response,24
true,7,0,1,0,true,q,false,true,0.0-2.0-0.28-0.259-3.259,0,0,0,81,false,stim,false,2,1102.5,2,0,2,71781,task1,740715,false,false,904,image-keyboard-response,25
true,7,0,1,0,true,q,false,true,0.0-2.0-0.28-0.260-3.260,0,0,0,81,false,stim,false,2,623.2000000029802,2,0,2,71781,task1,742862,false,false,907,image-keyboard-response,26
true,7,0,1,0,true,q,false,true,0.0-2.0-0.29-0.261-3.261,0,0,0,81,false,stim,false,2,447.8999999910593,2,0,2,71781,task1,744846,false,false,910,image-keyboard-response,27
true,7,0,1,0,true,q,false,true,0.0-2.0-0.29-0.262-3.262,0,0,0,81,false,stim,false,2,473.6000000089407,2,0,2,71781,task1,746844,false,false,913,image-keyboard-response,28
true,7,1,1,1,true,z,false,true,0.0-2.0-0.29-0.263-3.263,0,0,0,90,false,stim,false,0,882.0,2,0,1,71781,task1,749248,false,false,916,image-keyboard-response,29
true,7,1,1,1,true,z,false,true,0.0-2.0-0.29-0.264-3.264,0,0,0,90,false,stim,false,0,538.4000000059605,2,0,1,71781,task1,751309,false,false,919,image-keyboard-response,30
true,7,2,1,2,true,d,false,true,0.0-2.0-0.29-0.265-3.265,0,0,0,68,false,stim,false,1,559.5999999940395,2,0,0,71781,task1,753387,false,false,922,image-keyboard-response,31
true,7,2,1,2,true,d,false,true,0.0-2.0-0.29-0.266-3.266,0,0,0,68,false,stim,false,1,848.9000000059605,2,0,0,71781,task1,755765,false,false,925,image-keyboard-response,32
true,7,0,1,0,true,q,false,true,0.0-2.0-0.29-0.267-3.267,0,0,0,81,false,stim,false,2,829.1000000089407,2,0,2,71781,task1,758121,false,false,928,image-keyboard-response,33
true,7,2,1,2,true,d,false,true,0.0-2.0-0.29-0.268-3.268,0,0,0,68,false,stim,false,1,2186.5999999940395,2,0,0,71781,task1,761840,false,false,931,image-keyboard-response,34
true,7,1,1,1,true,z,false,true,0.0-2.0-0.29-0.269-3.269,0,0,0,90,false,stim,false,0,550.5999999940395,2,0,1,71781,task1,763915,false,false,934,image-keyboard-response,35
true,7,2,1,2,true,d,false,true,0.0-2.0-0.30-0.270-3.270,0,0,0,68,false,stim,false,1,810.7999999970198,2,0,0,71781,task1,766249,false,false,937,image-keyboard-response,36
true,7,0,1,0,true,q,false,true,0.0-2.0-0.30-0.271-3.271,0,0,0,81,false,stim,false,2,503.30000001192093,2,0,2,71781,task1,768286,false,false,940,image-keyboard-response,37
true,7,2,1,2,true,d,false,false,0.0-2.0-0.30-0.272-3.272,0,0,0,68,false,stim,false,1,901.3999999910593,2,0,0,71781,task1,770705,false,true,943,image-keyboard-response,38
true,7,1,1,1,true,z,false,true,0.0-2.0-0.30-0.273-3.273,0,0,0,90,false,stim,false,0,1481.2000000029802,2,0,1,71781,task1,773703,false,false,946,image-keyboard-response,39
true,7,0,1,0,true,q,false,true,0.0-2.0-0.30-0.274-3.274,0,0,0,81,false,stim,false,2,467.30000001192093,2,0,2,71781,task1,775702,false,false,949,image-keyboard-response,40
true,7,0,1,0,true,q,false,true,0.0-2.0-0.30-0.275-3.275,0,0,0,81,false,stim,false,2,643.7999999970198,2,0,2,71781,task1,777890,false,false,952,image-keyboard-response,41
true,7,1,1,1,true,z,false,false,0.0-2.0-0.30-0.276-3.276,0,0,0,90,false,stim,false,0,572.4000000059605,2,0,1,71781,task1,779983,false,true,955,image-keyboard-response,42
true,7,2,1,2,true,d,false,true,0.0-2.0-0.30-0.277-3.277,0,0,0,68,false,stim,false,1,612.2000000029802,2,0,0,71781,task1,782137,false,false,958,image-keyboard-response,43
true,8,1,1,2,false,d,false,false,0.0-2.0-0.30-0.278-3.278,0,0,0,90,true,stim,true,1,878.2999999970198,2,0,1,71781,task1,784541,false,false,961,image-keyboard-response,1
true,8,2,1,2,true,d,false,true,0.0-2.0-0.31-0.279-3.279,0,0,0,68,false,stim,false,1,936.0999999940395,2,0,1,71781,task1,786994,false,false,964,image-keyboard-response,2
true,8,0,1,1,false,z,false,true,0.0-2.0-0.31-0.280-3.280,0,0,0,81,false,stim,true,0,501.90000000596046,2,0,2,71781,task1,789011,false,true,967,image-keyboard-response,3
true,8,2,1,1,false,z,false,false,0.0-2.0-0.31-0.281-3.281,0,0,0,68,false,stim,true,2,450.30000001192093,2,0,0,71781,task1,790980,false,false,970,image-keyboard-response,4
true,8,2,1,2,true,d,false,true,0.0-2.0-0.31-0.282-3.282,0,0,0,68,false,stim,false,1,448.40000000596046,2,0,1,71781,task1,792944,false,false,973,image-keyboard-response,5
true,8,1,1,1,true,z,false,true,0.0-2.0-0.31-0.283-3.283,0,0,0,90,false,stim,false,2,662.8999999910593,2,0,0,71781,task1,795133,false,false,976,image-keyboard-response,6
true,8,0,1,1,false,z,false,false,0.0-2.0-0.31-0.284-3.284,0,0,0,81,false,stim,true,0,669.0,2,0,2,71781,task1,797326,false,false,979,image-keyboard-response,7
true,8,1,1,1,true,z,false,true,0.0-2.0-0.31-0.285-3.285,0,0,0,90,false,stim,false,2,460.29999999701977,2,0,0,71781,task1,799305,false,false,982,image-keyboard-response,8
true,8,1,1,1,true,z,false,true,0.0-2.0-0.31-0.286-3.286,0,0,0,90,false,stim,false,0,552.9000000059605,2,0,2,71781,task1,801388,false,false,985,image-keyboard-response,9
true,8,2,1,2,true,d,false,false,0.0-2.0-0.31-0.287-3.287,0,0,0,68,false,stim,false,1,766.5,2,0,1,71781,task1,803681,false,true,988,image-keyboard-response,10
true,8,0,1,2,false,d,true,false,0.0-2.0-0.32-0.288-3.288,0,0,0,81,false,stim,false,1,622.9000000059605,2,0,1,71781,task1,805831,false,false,991,image-keyboard-response,11
true,8,1,1,1,true,z,false,true,0.0-2.0-0.32-0.289-3.289,0,0,0,90,false,stim,false,2,652.0,2,0,0,71781,task1,808014,false,false,994,image-keyboard-response,12
true,8,1,1,1,true,z,false,true,0.0-2.0-0.32-0.290-3.290,0,0,0,90,false,stim,false,2,671.0,2,0,0,71781,task1,810207,false,false,997,image-keyboard-response,13
true,8,1,1,1,true,z,false,true,0.0-2.0-0.32-0.291-3.291,0,0,0,90,false,stim,false,2,393.09999999403954,2,0,0,71781,task1,812132,false,false,1000,image-keyboard-response,14
true,8,1,1,1,true,z,false,true,0.0-2.0-0.32-0.292-3.292,0,0,0,90,false,stim,false,0,397.20000000298023,2,0,2,71781,task1,814050,false,false,1003,image-keyboard-response,15
true,8,2,1,2,true,d,false,true,0.0-2.0-0.32-0.293-3.293,0,0,0,68,false,stim,false,1,589.8999999910593,2,0,1,71781,task1,816158,false,false,1006,image-keyboard-response,16
true,8,1,1,1,true,z,false,true,0.0-2.0-0.32-0.294-3.294,0,0,0,90,false,stim,false,0,570.0,2,0,2,71781,task1,818258,false,false,1009,image-keyboard-response,17
true,8,1,1,1,true,z,false,true,0.0-2.0-0.32-0.295-3.295,0,0,0,90,false,stim,false,0,905.8000000119209,2,0,2,71781,task1,820687,false,false,1012,image-keyboard-response,18
true,8,2,1,2,true,d,false,true,0.0-2.0-0.32-0.296-3.296,0,0,0,68,false,stim,false,1,484.59999999403954,2,0,1,71781,task1,822701,false,false,1015,image-keyboard-response,19
true,8,2,1,2,true,d,false,false,0.0-2.0-0.33-0.297-3.297,0,0,0,68,false,stim,false,1,475.40000000596046,2,0,1,71781,task1,824705,false,true,1018,image-keyboard-response,20
true,8,1,1,1,true,z,false,true,0.0-2.0-0.33-0.298-3.298,0,0,0,90,false,stim,false,0,940.4000000059605,2,0,2,71781,task1,827157,false,false,1021,image-keyboard-response,21
true,8,2,1,1,false,z,false,false,0.0-2.0-0.33-0.299-3.299,0,0,0,68,false,stim,true,2,445.09999999403954,2,0,0,71781,task1,829123,false,false,1024,image-keyboard-response,22
true,8,1,1,1,true,z,false,true,0.0-2.0-0.33-0.300-3.300,0,0,0,90,false,stim,false,2,520.7999999970198,2,0,0,71781,task1,831166,false,false,1027,image-keyboard-response,23
true,8,1,1,1,true,z,false,true,0.0-2.0-0.33-0.301-3.301,0,0,0,90,false,stim,false,2,377.30000001192093,2,0,0,71781,task1,833070,false,false,1030,image-keyboard-response,24
true,8,2,1,2,true,d,false,true,0.0-2.0-0.33-0.302-3.302,0,0,0,68,false,stim,false,1,570.5,2,0,1,71781,task1,835174,false,false,1033,image-keyboard-response,25
true,8,1,1,1,true,z,false,false,0.0-2.0-0.33-0.303-3.303,0,0,0,90,false,stim,false,0,616.0,2,0,2,71781,task1,837322,false,true,1036,image-keyboard-response,26
true,8,1,1,1,true,z,false,false,0.0-2.0-0.33-0.304-3.304,0,0,0,90,false,stim,false,0,965.3999999910593,2,0,2,71781,task1,839817,false,true,1039,image-keyboard-response,27
true,8,2,1,2,true,d,false,true,0.0-2.0-0.33-0.305-3.305,0,0,0,68,false,stim,false,1,807.5,2,0,1,71781,task1,842159,false,false,1042,image-keyboard-response,28
true,8,2,1,1,false,z,true,false,0.0-2.0-0.34-0.306-3.306,0,0,0,68,false,stim,false,0,483.90000000596046,2,0,2,71781,task1,844158,false,false,1045,image-keyboard-response,29
true,8,1,1,1,true,z,false,true,0.0-2.0-0.34-0.307-3.307,0,0,0,90,false,stim,false,2,641.7999999970198,2,0,0,71781,task1,846328,false,false,1048,image-keyboard-response,30
true,8,1,1,1,true,z,false,true,0.0-2.0-0.34-0.308-3.308,0,0,0,90,false,stim,false,2,560.8999999910593,2,0,0,71781,task1,848427,false,false,1051,image-keyboard-response,31
true,8,0,1,1,false,z,false,false,0.0-2.0-0.34-0.309-3.309,0,0,0,81,false,stim,true,0,518.7999999970198,2,0,2,71781,task1,850461,false,false,1054,image-keyboard-response,32
true,8,2,1,2,true,d,false,true,0.0-2.0-0.34-0.310-3.310,0,0,0,68,false,stim,false,1,720.7000000029802,2,0,1,71781,task1,852694,false,false,1057,image-keyboard-response,33
true,8,2,1,2,true,d,false,true,0.0-2.0-0.34-0.311-3.311,0,0,0,68,false,stim,false,1,504.5,2,0,1,71781,task1,854729,false,false,1060,image-keyboard-response,34
true,8,1,1,1,true,z,false,true,0.0-2.0-0.34-0.312-3.312,0,0,0,90,false,stim,false,0,713.7000000029802,2,0,2,71781,task1,856958,false,false,1063,image-keyboard-response,35
true,8,2,1,1,false,z,false,false,0.0-2.0-0.34-0.313-3.313,0,0,0,68,false,stim,true,2,587.6000000089407,2,0,0,71781,task1,859061,false,false,1066,image-keyboard-response,36
true,8,2,1,2,true,d,false,true,0.0-2.0-0.34-0.314-3.314,0,0,0,68,false,stim,false,1,351.0,2,0,1,71781,task1,860920,false,false,1069,image-keyboard-response,37
true,8,1,1,1,true,z,false,false,0.0-2.0-0.35-0.315-3.315,0,0,0,90,false,stim,false,2,481.3999999910593,2,0,0,71781,task1,862924,false,true,1072,image-keyboard-response,38
true,8,1,1,1,true,z,false,true,0.0-2.0-0.35-0.316-3.316,0,0,0,90,false,stim,false,0,1062.6000000089407,2,0,2,71781,task1,865518,false,false,1075,image-keyboard-response,39
true,8,2,1,2,true,d,false,true,0.0-2.0-0.35-0.317-3.317,0,0,0,68,false,stim,false,1,634.5,2,0,1,71781,task1,867691,false,false,1078,image-keyboard-response,40
true,8,2,1,2,true,d,false,true,0.0-2.0-0.35-0.318-3.318,0,0,0,68,false,stim,false,1,419.09999999403954,2,0,1,71781,task1,869646,false,false,1081,image-keyboard-response,41
true,9,1,1,2,false,d,false,true,0.0-2.0-0.35-0.319-3.319,0,0,0,90,true,stim,true,1,646.1000000089407,2,0,2,71781,task1,871820,false,true,1084,image-keyboard-response,1
true,9,2,1,1,false,z,false,false,0.0-2.0-0.35-0.320-3.320,0,0,0,68,false,stim,true,2,589.0999999940395,2,0,1,71781,task1,873929,false,false,1087,image-keyboard-response,2
true,9,1,1,0,false,q,false,false,0.0-2.0-0.35-0.321-3.321,0,0,0,90,false,stim,true,1,1266.0,2,0,0,71781,task1,876723,false,false,1090,image-keyboard-response,3
true,9,1,1,2,false,d,false,false,0.0-2.0-0.35-0.322-3.322,0,0,0,90,false,stim,true,1,711.0,2,0,2,71781,task1,878956,false,false,1093,image-keyboard-response,4
true,9,0,1,0,true,q,false,true,0.0-2.0-0.35-0.323-3.323,0,0,0,81,false,stim,false,1,1151.2000000029802,2,0,0,71781,task1,881616,false,false,1096,image-keyboard-response,5
true,9,1,1,1,true,z,false,true,0.0-2.0-0.36-0.324-3.324,0,0,0,90,false,stim,false,2,901.7000000029802,2,0,1,71781,task1,884034,false,false,1099,image-keyboard-response,6
true,9,1,1,1,true,z,false,true,0.0-2.0-0.36-0.325-3.325,0,0,0,90,false,stim,false,2,774.2000000029802,2,0,1,71781,task1,886347,false,false,1102,image-keyboard-response,7
true,9,0,1,0,true,q,false,true,0.0-2.0-0.36-0.326-3.326,0,0,0,81,false,stim,false,1,683.7000000029802,2,0,0,71781,task1,888551,false,false,1105,image-keyboard-response,8
true,9,0,1,0,true,q,false,true,0.0-2.0-0.36-0.327-3.327,0,0,0,81,false,stim,false,1,492.20000000298023,2,0,0,71781,task1,890591,false,false,1108,image-keyboard-response,9
true,9,0,1,0,true,q,false,false,0.0-2.0-0.36-0.328-3.328,0,0,0,81,false,stim,false,1,441.0,2,0,0,71781,task1,892549,false,true,1111,image-keyboard-response,10
true,9,2,1,2,true,d,false,true,0.0-2.0-0.36-0.329-3.329,0,0,0,68,false,stim,false,1,833.8999999910593,2,0,2,71781,task1,894909,false,false,1114,image-keyboard-response,11
true,9,2,1,2,true,d,false,true,0.0-2.0-0.36-0.330-3.330,0,0,0,68,false,stim,false,1,399.20000000298023,2,0,2,71781,task1,896828,false,false,1117,image-keyboard-response,12
true,9,1,1,1,true,z,false,true,0.0-2.0-0.36-0.331-3.331,0,0,0,90,false,stim,false,2,543.7000000029802,2,0,1,71781,task1,898882,false,false,1120,image-keyboard-response,13
true,9,2,1,2,true,d,false,true,0.0-2.0-0.36-0.332-3.332,0,0,0,68,false,stim,false,1,577.0,2,0,2,71781,task1,900985,false,false,1123,image-keyboard-response,14
true,9,1,1,1,true,z,false,false,0.0-2.0-0.37-0.333-3.333,0,0,0,90,false,stim,false,2,789.2000000029802,2,0,1,71781,task1,903295,false,true,1126,image-keyboard-response,15
true,9,2,1,2,true,d,false,true,0.0-2.0-0.37-0.334-3.334,0,0,0,68,false,stim,false,1,473.09999999403954,2,0,2,71781,task1,905299,false,false,1129,image-keyboard-response,16
true,9,0,1,0,true,q,false,true,0.0-2.0-0.37-0.335-3.335,0,0,0,81,false,stim,false,1,459.79999999701977,2,0,0,71781,task1,907292,false,false,1132,image-keyboard-response,17
true,9,2,1,2,true,d,false,true,0.0-2.0-0.37-0.336-3.336,0,0,0,68,false,stim,false,1,616.5,2,0,2,71781,task1,909431,false,false,1135,image-keyboard-response,18
true,9,0,1,0,true,q,false,true,0.0-2.0-0.37-0.337-3.337,0,0,0,81,false,stim,false,1,640.7999999970198,2,0,0,71781,task1,911586,false,false,1138,image-keyboard-response,19
true,9,1,1,1,true,z,false,true,0.0-2.0-0.37-0.338-3.338,0,0,0,90,false,stim,false,2,647.9000000059605,2,0,1,71781,task1,913760,false,false,1141,image-keyboard-response,20
true,9,1,1,1,true,z,false,true,0.0-2.0-0.37-0.339-3.339,0,0,0,90,false,stim,false,2,526.5,2,0,1,71781,task1,915813,false,false,1144,image-keyboard-response,21
true,9,2,1,2,true,d,false,true,0.0-2.0-0.37-0.340-3.340,0,0,0,68,false,stim,false,1,627.9000000059605,2,0,2,71781,task1,917977,false,false,1147,image-keyboard-response,22
true,9,0,1,0,true,q,false,true,0.0-2.0-0.37-0.341-3.341,0,0,0,81,false,stim,false,1,1220.0999999940395,2,0,0,71781,task1,920729,false,false,1150,image-keyboard-response,23
true,9,2,1,1,false,z,false,false,0.0-2.0-0.38-0.342-3.342,0,0,0,68,false,stim,true,2,539.8000000119209,2,0,1,71781,task1,922799,false,false,1153,image-keyboard-response,24
true,9,2,1,2,true,d,false,true,0.0-2.0-0.38-0.343-3.343,0,0,0,68,false,stim,false,1,417.29999999701977,2,0,2,71781,task1,924743,false,false,1156,image-keyboard-response,25
true,9,2,1,2,true,d,false,true,0.0-2.0-0.38-0.344-3.344,0,0,0,68,false,stim,false,1,545.2999999970198,2,0,2,71781,task1,926814,false,false,1159,image-keyboard-response,26
true,9,1,1,1,true,z,false,true,0.0-2.0-0.38-0.345-3.345,0,0,0,90,false,stim,false,2,910.4000000059605,2,0,1,71781,task1,929247,false,false,1162,image-keyboard-response,27
true,9,1,1,1,true,z,false,true,0.0-2.0-0.38-0.346-3.346,0,0,0,90,false,stim,false,2,443.30000001192093,2,0,1,71781,task1,931226,false,false,1165,image-keyboard-response,28
true,9,0,1,0,true,q,false,true,0.0-2.0-0.38-0.347-3.347,0,0,0,81,false,stim,false,1,644.7999999970198,2,0,0,71781,task1,933399,false,false,1168,image-keyboard-response,29
true,9,2,1,2,true,d,false,true,0.0-2.0-0.38-0.348-3.348,0,0,0,68,false,stim,false,1,574.1000000089407,2,0,2,71781,task1,935508,false,false,1171,image-keyboard-response,30
true,9,0,1,0,true,q,false,false,0.0-2.0-0.38-0.349-3.349,0,0,0,81,false,stim,false,1,1865.2999999970198,2,0,0,71781,task1,938902,false,true,1174,image-keyboard-response,31
true,9,1,1,0,false,q,false,false,0.0-2.0-0.38-0.350-3.350,0,0,0,90,false,stim,true,1,735.5,2,0,0,71781,task1,941186,false,false,1177,image-keyboard-response,32
true,9,0,1,0,true,q,false,true,0.0-2.0-0.39-0.351-3.351,0,0,0,81,false,stim,false,1,900.0,2,0,0,71781,task1,943600,false,false,1180,image-keyboard-response,33
true,9,2,1,2,true,d,false,true,0.0-2.0-0.39-0.352-3.352,0,0,0,68,false,stim,false,1,708.2999999970198,2,0,2,71781,task1,945819,false,false,1183,image-keyboard-response,34
true,9,2,1,2,true,d,false,true,0.0-2.0-0.39-0.353-3.353,0,0,0,68,false,stim,false,1,560.7999999970198,2,0,2,71781,task1,947921,false,false,1186,image-keyboard-response,35
true,9,1,1,1,true,z,false,false,0.0-2.0-0.39-0.354-3.354,0,0,0,90,false,stim,false,2,645.4000000059605,2,0,1,71781,task1,950081,false,true,1189,image-keyboard-response,36
true,9,0,1,0,true,q,false,true,0.0-2.0-0.39-0.355-3.355,0,0,0,81,false,stim,false,1,602.9000000059605,2,0,0,71781,task1,952206,false,false,1192,image-keyboard-response,37
true,9,0,1,0,true,q,false,true,0.0-2.0-0.39-0.356-3.356,0,0,0,81,false,stim,false,1,412.79999999701977,2,0,0,71781,task1,954150,false,false,1195,image-keyboard-response,38
true,9,2,1,2,true,d,false,true,0.0-2.0-0.39-0.357-3.357,0,0,0,68,false,stim,false,1,753.2999999970198,2,0,2,71781,task1,956423,false,false,1198,image-keyboard-response,39
true,9,0,1,1,false,z,true,false,0.0-2.0-0.39-0.358-3.358,0,0,0,81,false,stim,false,2,748.3999999910593,2,0,1,71781,task1,958707,false,false,1201,image-keyboard-response,40
true,9,1,1,1,true,z,false,true,0.0-2.0-0.39-0.359-3.359,0,0,0,90,false,stim,false,2,1009.6000000089407,2,0,1,71781,task1,961236,false,false,1204,image-keyboard-response,41
true,9,2,1,2,true,d,false,true,0.0-2.0-0.40-0.360-3.360,0,0,0,68,false,stim,false,1,833.2999999970198,2,0,2,71781,task1,963595,false,false,1207,image-keyboard-response,42
true,9,0,1,1,false,z,true,false,0.0-2.0-0.40-0.361-3.361,0,0,0,81,false,stim,false,2,1218.7000000029802,2,0,1,71781,task1,966338,false,false,1210,image-keyboard-response,43
true,9,0,1,0,true,q,false,true,0.0-2.0-0.40-0.362-3.362,0,0,0,81,false,stim,false,1,391.59999999403954,2,0,0,71781,task1,968250,false,false,1213,image-keyboard-response,44
true,9,0,1,0,true,q,false,true,0.0-2.0-0.40-0.363-3.363,0,0,0,81,false,stim,false,1,665.4000000059605,2,0,0,71781,task1,970446,false,false,1216,image-keyboard-response,45
true,10,2,2,1,false,z,false,false,0.0-2.0-0.40-0.364-3.364,0,0,0,68,true,stim,true,2,553.5999999940395,2,0,2,71781,task1,972524,false,false,1219,image-keyboard-response,1
true,10,2,2,1,false,z,false,false,0.0-2.0-0.40-0.365-3.365,0,0,0,68,false,stim,true,2,944.2000000029802,2,0,2,71781,task1,974988,false,false,1222,image-keyboard-response,2
true,10,0,2,2,false,d,false,true,0.0-2.0-0.40-0.366-3.366,0,0,0,81,false,stim,true,0,641.6000000089407,2,0,0,71781,task1,977143,false,true,1225,image-keyboard-response,3
true,10,1,2,2,false,d,false,true,0.0-2.0-0.40-0.367-3.367,0,0,0,90,false,stim,true,1,575.7000000029802,2,0,1,71781,task1,979232,false,true,1228,image-keyboard-response,4
true,10,1,2,2,false,d,false,false,0.0-2.0-0.40-0.368-3.368,0,0,0,90,false,stim,true,1,453.09999999403954,2,0,1,71781,task1,981201,false,false,1231,image-keyboard-response,5
true,10,1,2,2,false,d,false,false,0.0-2.0-0.41-0.369-3.369,0,0,0,90,false,stim,true,1,429.20000000298023,2,0,1,71781,task1,983156,false,false,1234,image-keyboard-response,6
true,10,1,2,1,true,z,false,false,0.0-2.0-0.41-0.370-3.370,0,0,0,90,false,stim,false,2,842.9000000059605,2,0,2,71781,task1,985523,false,true,1237,image-keyboard-response,7
true,10,0,2,2,false,d,false,true,0.0-2.0-0.41-0.371-3.371,0,0,0,81,false,stim,true,0,579.9000000059605,2,0,0,71781,task1,987622,false,true,1240,image-keyboard-response,8
true,10,0,2,1,false,z,true,false,0.0-2.0-0.41-0.372-3.372,0,0,0,81,false,stim,false,2,1628.1000000089407,2,0,2,71781,task1,990781,false,false,1243,image-keyboard-response,9
true,10,2,2,2,true,d,false,true,0.0-2.0-0.41-0.373-3.373,0,0,0,68,false,stim,false,1,653.3000000119209,2,0,1,71781,task1,992955,false,false,1246,image-keyboard-response,10
true,10,0,2,2,false,d,false,false,0.0-2.0-0.41-0.374-3.374,0,0,0,81,false,stim,true,0,701.1000000089407,2,0,0,71781,task1,995176,false,false,1249,image-keyboard-response,11
true,10,2,2,2,true,d,false,false,0.0-2.0-0.41-0.375-3.375,0,0,0,68,false,stim,false,0,1473.7999999970198,2,0,0,71781,task1,998172,false,true,1252,image-keyboard-response,12
true,10,2,2,2,true,d,false,true,0.0-2.0-0.41-0.376-3.376,0,0,0,68,false,stim,false,1,458.6000000089407,2,0,1,71781,task1,1000158,false,false,1255,image-keyboard-response,13
true,10,1,2,1,true,z,false,false,0.0-2.0-0.41-0.377-3.377,0,0,0,90,false,stim,false,2,1070.6000000089407,2,0,2,71781,task1,1002749,false,true,1258,image-keyboard-response,14
true,10,2,2,1,false,z,false,false,0.0-2.0-0.42-0.378-3.378,0,0,0,68,false,stim,true,2,394.0,2,0,2,71781,task1,1004659,false,false,1261,image-keyboard-response,15
true,10,0,2,1,false,z,true,false,0.0-2.0-0.42-0.379-3.379,0,0,0,81,false,stim,false,2,547.0999999940395,2,0,2,71781,task1,1006732,false,false,1264,image-keyboard-response,16
true,10,1,2,1,true,z,false,true,0.0-2.0-0.42-0.380-3.380,0,0,0,90,false,stim,false,2,800.0,2,0,2,71781,task1,1009042,false,false,1267,image-keyboard-response,17
true,10,2,2,2,true,d,false,true,0.0-2.0-0.42-0.381-3.381,0,0,0,68,false,stim,false,1,667.7999999970198,2,0,1,71781,task1,1011235,false,false,1270,image-keyboard-response,18
true,10,0,2,2,false,d,false,false,0.0-2.0-0.42-0.382-3.382,0,0,0,81,false,stim,true,0,837.1000000089407,2,0,0,71781,task1,1013596,false,false,1273,image-keyboard-response,19
true,10,1,2,2,false,d,true,false,0.0-2.0-0.42-0.383-3.383,0,0,0,90,false,stim,false,0,837.7000000029802,2,0,0,71781,task1,1015954,false,false,1276,image-keyboard-response,20
true,10,2,2,2,true,d,false,true,0.0-2.0-0.42-0.384-3.384,0,0,0,68,false,stim,false,0,500.3999999910593,2,0,0,71781,task1,1017974,false,false,1279,image-keyboard-response,21
true,10,2,2,2,true,d,false,true,0.0-2.0-0.42-0.385-3.385,0,0,0,68,false,stim,false,1,766.6000000089407,2,0,1,71781,task1,1020278,false,false,1282,image-keyboard-response,22
true,10,2,2,2,true,d,false,true,0.0-2.0-0.42-0.386-3.386,0,0,0,68,false,stim,false,1,484.59999999403954,2,0,1,71781,task1,1022285,false,false,1285,image-keyboard-response,23
true,10,1,2,1,true,z,false,false,0.0-2.0-0.43-0.387-3.387,0,0,0,90,false,stim,false,2,641.2000000029802,2,0,2,71781,task1,1024444,false,true,1288,image-keyboard-response,24
true,10,2,2,2,true,d,false,true,0.0-2.0-0.43-0.388-3.388,0,0,0,68,false,stim,false,1,561.6000000089407,2,0,1,71781,task1,1026539,false,false,1291,image-keyboard-response,25
true,10,1,2,1,true,z,false,true,0.0-2.0-0.43-0.389-3.389,0,0,0,90,false,stim,false,2,895.1999999880791,2,0,2,71781,task1,1028947,false,false,1294,image-keyboard-response,26
true,10,1,2,1,true,z,false,true,0.0-2.0-0.43-0.390-3.390,0,0,0,90,false,stim,false,2,567.2000000029802,2,0,2,71781,task1,1031022,false,false,1297,image-keyboard-response,27
true,10,2,2,2,true,d,false,true,0.0-2.0-0.43-0.391-3.391,0,0,0,68,false,stim,false,0,498.09999999403954,2,0,0,71781,task1,1033046,false,false,1300,image-keyboard-response,28
true,10,2,2,2,true,d,false,true,0.0-2.0-0.43-0.392-3.392,0,0,0,68,false,stim,false,1,687.1999999880791,2,0,1,71781,task1,1035259,false,false,1303,image-keyboard-response,29
true,10,2,2,2,true,d,false,true,0.0-2.0-0.43-0.393-3.393,0,0,0,68,false,stim,false,0,487.40000000596046,2,0,0,71781,task1,1037298,false,false,1306,image-keyboard-response,30
true,10,2,2,2,true,d,false,false,0.0-2.0-0.43-0.394-3.394,0,0,0,68,false,stim,false,0,407.19999998807907,2,0,0,71781,task1,1039237,false,true,1309,image-keyboard-response,31
true,10,2,2,2,true,d,false,true,0.0-2.0-0.43-0.395-3.395,0,0,0,68,false,stim,false,1,672.3999999910593,2,0,1,71781,task1,1041441,false,false,1312,image-keyboard-response,32
true,10,2,2,2,true,d,false,true,0.0-2.0-0.44-0.396-3.396,0,0,0,68,false,stim,false,1,424.0,2,0,1,71781,task1,1043396,false,false,1315,image-keyboard-response,33
true,10,2,2,2,true,d,false,true,0.0-2.0-0.44-0.397-3.397,0,0,0,68,false,stim,false,1,387.70000000298023,2,0,1,71781,task1,1045310,false,false,1318,image-keyboard-response,34
true,10,2,2,2,true,d,false,false,0.0-2.0-0.44-0.398-3.398,0,0,0,68,false,stim,false,0,477.29999999701977,2,0,0,71781,task1,1047313,false,true,1321,image-keyboard-response,35
true,10,2,2,1,false,z,false,false,0.0-2.0-0.44-0.399-3.399,0,0,0,68,false,stim,true,2,524.6999999880791,2,0,2,71781,task1,1049357,false,false,1324,image-keyboard-response,36
true,10,2,2,2,true,d,false,true,0.0-2.0-0.44-0.400-3.400,0,0,0,68,false,stim,false,0,576.5,2,0,0,71781,task1,1051446,false,false,1327,image-keyboard-response,37
true,10,2,2,2,true,d,false,false,0.0-2.0-0.44-0.401-3.401,0,0,0,68,false,stim,false,0,431.59999999403954,2,0,0,71781,task1,1053399,false,true,1330,image-keyboard-response,38
true,10,2,2,2,true,d,false,true,0.0-2.0-0.44-0.402-3.402,0,0,0,68,false,stim,false,1,464.1000000089407,2,0,1,71781,task1,1055399,false,false,1333,image-keyboard-response,39
true,10,1,2,1,true,z,false,true,0.0-2.0-0.44-0.403-3.403,0,0,0,90,false,stim,false,2,492.79999999701977,2,0,2,71781,task1,1057413,false,false,1336,image-keyboard-response,40
true,10,1,2,1,true,z,false,true,0.0-2.0-0.44-0.404-3.404,0,0,0,90,false,stim,false,2,427.20000000298023,2,0,2,71781,task1,1059362,false,false,1339,image-keyboard-response,41
true,10,1,2,1,true,z,false,true,0.0-2.0-0.45-0.405-3.405,0,0,0,90,false,stim,false,2,431.20000000298023,2,0,2,71781,task1,1061311,false,false,1342,image-keyboard-response,42
true,11,2,2,0,false,q,false,true,0.0-2.0-0.45-0.406-3.406,0,0,0,68,true,stim,true,2,741.5,2,0,1,71781,task1,1063581,false,true,1345,image-keyboard-response,1
true,11,2,2,1,false,z,false,false,0.0-2.0-0.45-0.407-3.407,0,0,0,68,false,stim,true,2,747.7999999970198,2,0,0,71781,task1,1065854,false,false,1348,image-keyboard-response,2
true,11,2,2,0,false,q,false,false,0.0-2.0-0.45-0.408-3.408,0,0,0,68,false,stim,true,2,797.8999999910593,2,0,1,71781,task1,1068179,false,false,1351,image-keyboard-response,3
true,11,2,2,0,false,q,false,false,0.0-2.0-0.45-0.409-3.409,0,0,0,68,false,stim,true,2,781.7000000029802,2,0,1,71781,task1,1070494,false,false,1354,image-keyboard-response,4
true,11,1,2,2,false,d,false,false,0.0-2.0-0.45-0.410-3.410,0,0,0,90,false,stim,true,1,476.59999999403954,2,0,2,71781,task1,1072505,false,false,1357,image-keyboard-response,5
true,11,0,2,1,false,z,true,false,0.0-2.0-0.45-0.411-3.411,0,0,0,81,false,stim,false,2,868.4000000059605,2,0,0,71781,task1,1074896,false,false,1360,image-keyboard-response,6
true,11,1,2,2,false,d,false,true,0.0-2.0-0.45-0.412-3.412,0,0,0,90,false,stim,true,1,1129.9000000059605,2,0,2,71781,task1,1077558,false,true,1363,image-keyboard-response,7
true,11,1,2,1,true,z,false,true,0.0-2.0-0.45-0.413-3.413,0,0,0,90,false,stim,false,2,1109.2999999970198,2,0,0,71781,task1,1080192,false,false,1366,image-keyboard-response,8
true,11,1,2,1,true,z,false,true,0.0-2.0-0.46-0.414-3.414,0,0,0,90,false,stim,false,2,685.1000000089407,2,0,0,71781,task1,1082408,false,false,1369,image-keyboard-response,9
true,11,0,2,0,true,q,false,true,0.0-2.0-0.46-0.415-3.415,0,0,0,81,false,stim,false,2,488.69999998807907,2,0,1,71781,task1,1084430,false,false,1372,image-keyboard-response,10
true,11,0,2,0,true,q,false,true,0.0-2.0-0.46-0.416-3.416,0,0,0,81,false,stim,false,2,626.7000000029802,2,0,1,71781,task1,1086584,false,false,1375,image-keyboard-response,11
true,11,1,2,2,false,d,false,false,0.0-2.0-0.46-0.417-3.417,0,0,0,90,false,stim,true,1,633.2000000029802,2,0,2,71781,task1,1088754,false,false,1378,image-keyboard-response,12
true,11,2,2,2,true,d,false,true,0.0-2.0-0.46-0.418-3.418,0,0,0,68,false,stim,false,1,501.40000000596046,2,0,2,71781,task1,1090784,false,false,1381,image-keyboard-response,13
true,11,1,2,0,false,q,true,false,0.0-2.0-0.46-0.419-3.419,0,0,0,90,false,stim,false,2,581.6000000089407,2,0,1,71781,task1,1092887,false,false,1384,image-keyboard-response,14
true,11,0,2,1,false,z,true,false,0.0-2.0-0.46-0.420-3.420,0,0,0,81,false,stim,false,2,471.79999999701977,2,0,0,71781,task1,1094880,false,false,1387,image-keyboard-response,15
true,11,2,2,2,true,d,false,true,0.0-2.0-0.46-0.421-3.421,0,0,0,68,false,stim,false,1,732.2999999970198,2,0,2,71781,task1,1097141,false,false,1390,image-keyboard-response,16
true,11,1,2,1,true,z,false,true,0.0-2.0-0.46-0.422-3.422,0,0,0,90,false,stim,false,2,745.0,2,0,0,71781,task1,1099403,false,false,1393,image-keyboard-response,17
true,11,0,2,0,true,q,false,true,0.0-2.0-0.47-0.423-3.423,0,0,0,81,false,stim,false,2,941.5,2,0,1,71781,task1,1101887,false,false,1396,image-keyboard-response,18
true,11,2,2,2,true,d,false,true,0.0-2.0-0.47-0.424-3.424,0,0,0,68,false,stim,false,1,786.7000000029802,2,0,2,71781,task1,1104188,false,false,1399,image-keyboard-response,19
true,11,0,2,0,true,q,false,true,0.0-2.0-0.47-0.425-3.425,0,0,0,81,false,stim,false,2,1252.5999999940395,2,0,1,71781,task1,1106974,false,false,1402,image-keyboard-response,20
true,11,1,2,1,true,z,false,true,0.0-2.0-0.47-0.426-3.426,0,0,0,90,false,stim,false,2,652.7999999970198,2,0,0,71781,task1,1109155,false,false,1405,image-keyboard-response,21
true,11,1,2,1,true,z,false,false,0.0-2.0-0.47-0.427-3.427,0,0,0,90,false,stim,false,2,540.9000000059605,2,0,0,71781,task1,1111228,false,true,1408,image-keyboard-response,22
true,11,2,2,2,true,d,false,true,0.0-2.0-0.47-0.428-3.428,0,0,0,68,false,stim,false,1,504.20000000298023,2,0,2,71781,task1,1113267,false,false,1411,image-keyboard-response,23
true,11,2,2,2,true,d,false,true,0.0-2.0-0.47-0.429-3.429,0,0,0,68,false,stim,false,1,796.7000000029802,2,0,2,71781,task1,1115596,false,false,1414,image-keyboard-response,24
true,11,0,2,0,true,q,false,true,0.0-2.0-0.47-0.430-3.430,0,0,0,81,false,stim,false,2,840.2999999970198,2,0,1,71781,task1,1117969,false,false,1417,image-keyboard-response,25
true,11,1,2,1,true,z,false,true,0.0-2.0-0.47-0.431-3.431,0,0,0,90,false,stim,false,2,740.0,2,0,0,71781,task1,1120223,false,false,1420,image-keyboard-response,26
true,11,1,2,1,true,z,false,true,0.0-2.0-0.48-0.432-3.432,0,0,0,90,false,stim,false,2,483.5,2,0,0,71781,task1,1122232,false,false,1423,image-keyboard-response,27
true,11,0,2,0,true,q,false,false,0.0-2.0-0.48-0.433-3.433,0,0,0,81,false,stim,false,2,830.2000000029802,2,0,1,71781,task1,1124586,false,true,1426,image-keyboard-response,28
true,11,2,2,2,true,d,false,true,0.0-2.0-0.48-0.434-3.434,0,0,0,68,false,stim,false,1,597.2999999970198,2,0,2,71781,task1,1126705,false,false,1429,image-keyboard-response,29
true,11,0,2,0,true,q,false,true,0.0-2.0-0.48-0.435-3.435,0,0,0,81,false,stim,false,2,583.2999999970198,2,0,1,71781,task1,1128824,false,false,1432,image-keyboard-response,30
true,11,2,2,2,true,d,false,true,0.0-2.0-0.48-0.436-3.436,0,0,0,68,false,stim,false,1,758.7000000029802,2,0,2,71781,task1,1131115,false,false,1435,image-keyboard-response,31
true,11,2,2,2,true,d,false,true,0.0-2.0-0.48-0.437-3.437,0,0,0,68,false,stim,false,1,508.6000000089407,2,0,2,71781,task1,1133152,false,false,1438,image-keyboard-response,32
true,11,1,2,1,true,z,false,true,0.0-2.0-0.48-0.438-3.438,0,0,0,90,false,stim,false,2,701.2000000029802,2,0,0,71781,task1,1135376,false,false,1441,image-keyboard-response,33
true,11,1,2,1,true,z,false,true,0.0-2.0-0.48-0.439-3.439,0,0,0,90,false,stim,false,2,517.1000000089407,2,0,0,71781,task1,1137431,false,false,1444,image-keyboard-response,34
true,11,0,2,0,true,q,false,true,0.0-2.0-0.48-0.440-3.440,0,0,0,81,false,stim,false,2,560.8999999910593,2,0,1,71781,task1,1139528,false,false,1447,image-keyboard-response,35
true,11,1,2,1,true,z,false,true,0.0-2.0-0.49-0.441-3.441,0,0,0,90,false,stim,false,2,680.0,2,0,0,71781,task1,1141738,false,false,1450,image-keyboard-response,36
true,11,0,2,0,true,q,false,true,0.0-2.0-0.49-0.442-3.442,0,0,0,81,false,stim,false,2,617.7000000029802,2,0,1,71781,task1,1143887,false,false,1453,image-keyboard-response,37
true,11,2,2,2,true,d,false,true,0.0-2.0-0.49-0.443-3.443,0,0,0,68,false,stim,false,1,487.20000000298023,2,0,2,71781,task1,1145895,false,false,1456,image-keyboard-response,38
true,11,2,2,2,true,d,false,true,0.0-2.0-0.49-0.444-3.444,0,0,0,68,false,stim,false,1,486.20000000298023,2,0,2,71781,task1,1147905,false,false,1459,image-keyboard-response,39
true,11,0,2,0,true,q,false,true,0.0-2.0-0.49-0.445-3.445,0,0,0,81,false,stim,false,2,681.7999999970198,2,0,1,71781,task1,1150119,false,false,1462,image-keyboard-response,40
true,12,0,2,2,false,d,false,false,0.0-2.0-0.49-0.446-3.446,0,0,0,81,true,stim,true,0,676.6000000089407,2,0,1,71781,task1,1152318,false,false,1465,image-keyboard-response,1
true,12,2,2,1,false,z,false,false,0.0-2.0-0.49-0.447-3.447,0,0,0,68,false,stim,true,2,639.2000000029802,2,0,2,71781,task1,1154486,false,false,1468,image-keyboard-response,2
true,12,1,2,2,false,d,false,false,0.0-2.0-0.49-0.448-3.448,0,0,0,90,false,stim,true,1,435.90000000596046,2,0,0,71781,task1,1156450,false,false,1471,image-keyboard-response,3
true,12,1,2,2,false,d,false,false,0.0-2.0-0.49-0.449-3.449,0,0,0,90,false,stim,true,1,712.5999999940395,2,0,0,71781,task1,1158699,false,false,1474,image-keyboard-response,4
true,12,2,2,1,false,z,false,false,0.0-2.0-0.50-0.450-3.450,0,0,0,68,false,stim,true,2,450.09999999403954,2,0,2,71781,task1,1160668,false,false,1477,image-keyboard-response,5
true,12,0,2,1,false,z,true,false,0.0-2.0-0.50-0.451-3.451,0,0,0,81,false,stim,false,2,1156.5,2,0,2,71781,task1,1163356,false,false,1480,image-keyboard-response,6
true,12,1,2,2,false,d,true,false,0.0-2.0-0.50-0.452-3.452,0,0,0,90,false,stim,false,0,1207.5999999940395,2,0,1,71781,task1,1166082,false,false,1483,image-keyboard-response,7
true,12,0,2,2,false,d,true,false,0.0-2.0-0.50-0.453-3.453,0,0,0,81,false,stim,false,1,979.5999999940395,2,0,0,71781,task1,1168595,false,false,1486,image-keyboard-response,8
true,12,2,2,2,true,d,false,true,0.0-2.0-0.50-0.454-3.454,0,0,0,68,false,stim,false,0,637.0999999940395,2,0,1,71781,task1,1170744,false,false,1489,image-keyboard-response,9
true,12,1,2,1,true,z,false,true,0.0-2.0-0.50-0.455-3.455,0,0,0,90,false,stim,false,2,1285.5999999940395,2,0,2,71781,task1,1173558,false,false,1492,image-keyboard-response,10
true,12,2,2,2,true,d,false,true,0.0-2.0-0.50-0.456-3.456,0,0,0,68,false,stim,false,1,982.2999999970198,2,0,0,71781,task1,1176073,false,false,1495,image-keyboard-response,11
true,12,2,2,2,true,d,false,true,0.0-2.0-0.50-0.457-3.457,0,0,0,68,false,stim,false,0,1274.2999999970198,2,0,1,71781,task1,1178874,false,false,1498,image-keyboard-response,12
true,12,2,2,2,true,d,false,true,0.0-2.0-0.50-0.458-3.458,0,0,0,68,false,stim,false,1,519.2999999970198,2,0,0,71781,task1,1180925,false,false,1501,image-keyboard-response,13
true,12,1,2,1,true,z,false,true,0.0-2.0-0.51-0.459-3.459,0,0,0,90,false,stim,false,2,463.70000000298023,2,0,2,71781,task1,1182934,false,false,1504,image-keyboard-response,14
true,12,2,2,2,true,d,false,true,0.0-2.0-0.51-0.460-3.460,0,0,0,68,false,stim,false,1,467.3999999910593,2,0,0,71781,task1,1184913,false,false,1507,image-keyboard-response,15
true,12,2,2,2,true,d,false,true,0.0-2.0-0.51-0.461-3.461,0,0,0,68,false,stim,false,1,563.8000000119209,2,0,0,71781,task1,1187002,false,false,1510,image-keyboard-response,16
true,12,2,2,2,true,d,false,true,0.0-2.0-0.51-0.462-3.462,0,0,0,68,false,stim,false,0,1067.2000000029802,2,0,1,71781,task1,1189591,false,false,1513,image-keyboard-response,17
true,12,1,2,1,true,z,false,true,0.0-2.0-0.51-0.463-3.463,0,0,0,90,false,stim,false,2,681.9000000059605,2,0,2,71781,task1,1191799,false,false,1516,image-keyboard-response,18
true,12,1,2,1,true,z,false,true,0.0-2.0-0.51-0.464-3.464,0,0,0,90,false,stim,false,2,519.2999999970198,2,0,2,71781,task1,1193839,false,false,1519,image-keyboard-response,19
true,12,2,2,2,true,d,false,true,0.0-2.0-0.51-0.465-3.465,0,0,0,68,false,stim,false,0,482.5,2,0,1,71781,task1,1195833,false,false,1522,image-keyboard-response,20
true,12,2,2,2,true,d,false,true,0.0-2.0-0.51-0.466-3.466,0,0,0,68,false,stim,false,1,741.6000000089407,2,0,0,71781,task1,1198102,false,false,1525,image-keyboard-response,21
true,12,2,2,2,true,d,false,false,0.0-2.0-0.51-0.467-3.467,0,0,0,68,false,stim,false,0,595.5999999940395,2,0,1,71781,task1,1200245,false,true,1528,image-keyboard-response,22
true,12,2,2,2,true,d,false,true,0.0-2.0-0.52-0.468-3.468,0,0,0,68,false,stim,false,0,448.70000000298023,2,0,1,71781,task1,1202220,false,false,1531,image-keyboard-response,23
true,12,2,2,2,true,d,false,true,0.0-2.0-0.52-0.469-3.469,0,0,0,68,false,stim,false,1,634.9000000059605,2,0,0,71781,task1,1204368,false,false,1534,image-keyboard-response,24
true,12,1,2,1,true,z,false,false,0.0-2.0-0.52-0.470-3.470,0,0,0,90,false,stim,false,2,585.0999999940395,2,0,2,71781,task1,1206477,false,true,1537,image-keyboard-response,25
true,12,2,2,2,true,d,false,true,0.0-2.0-0.52-0.471-3.471,0,0,0,68,false,stim,false,0,677.0999999940395,2,0,1,71781,task1,1208666,false,false,1540,image-keyboard-response,26
true,12,2,2,2,true,d,false,true,0.0-2.0-0.52-0.472-3.472,0,0,0,68,false,stim,false,0,548.0,2,0,1,71781,task1,1210739,false,false,1543,image-keyboard-response,27
true,12,1,2,1,true,z,false,true,0.0-2.0-0.52-0.473-3.473,0,0,0,90,false,stim,false,2,577.5,2,0,2,71781,task1,1212849,false,false,1546,image-keyboard-response,28
true,12,1,2,1,true,z,false,true,0.0-2.0-0.52-0.474-3.474,0,0,0,90,false,stim,false,2,555.9000000059605,2,0,2,71781,task1,1214923,false,false,1549,image-keyboard-response,29
true,12,2,2,2,true,d,false,true,0.0-2.0-0.52-0.475-3.475,0,0,0,68,false,stim,false,1,442.90000000596046,2,0,0,71781,task1,1216902,false,false,1552,image-keyboard-response,30
true,12,2,2,2,true,d,false,true,0.0-2.0-0.52-0.476-3.476,0,0,0,68,false,stim,false,1,380.59999999403954,2,0,0,71781,task1,1218812,false,false,1555,image-keyboard-response,31
true,12,1,2,1,true,z,false,true,0.0-2.0-0.53-0.477-3.477,0,0,0,90,false,stim,false,2,510.0,2,0,2,71781,task1,1220856,false,false,1558,image-keyboard-response,32
true,12,2,2,2,true,d,false,true,0.0-2.0-0.53-0.478-3.478,0,0,0,68,false,stim,false,1,479.29999999701977,2,0,0,71781,task1,1222865,false,false,1561,image-keyboard-response,33
true,12,2,2,2,true,d,false,true,0.0-2.0-0.53-0.479-3.479,0,0,0,68,false,stim,false,1,455.90000000596046,2,0,0,71781,task1,1224854,false,false,1564,image-keyboard-response,34
true,12,2,2,2,true,d,false,true,0.0-2.0-0.53-0.480-3.480,0,0,0,68,false,stim,false,0,621.4000000059605,2,0,1,71781,task1,1227005,false,false,1567,image-keyboard-response,35
true,12,2,2,2,true,d,false,true,0.0-2.0-0.53-0.481-3.481,0,0,0,68,false,stim,false,0,439.3999999910593,2,0,1,71781,task1,1228966,false,false,1570,image-keyboard-response,36
true,12,2,2,2,true,d,false,true,0.0-2.0-0.53-0.482-3.482,0,0,0,68,false,stim,false,0,452.79999999701977,2,0,1,71781,task1,1230946,false,false,1573,image-keyboard-response,37
true,12,1,2,1,true,z,false,true,0.0-2.0-0.53-0.483-3.483,0,0,0,90,false,stim,false,2,606.1000000089407,2,0,2,71781,task1,1233082,false,false,1576,image-keyboard-response,38
true,12,2,2,2,true,d,false,true,0.0-2.0-0.53-0.484-3.484,0,0,0,68,false,stim,false,1,884.0999999940395,2,0,0,71781,task1,1235479,false,false,1579,image-keyboard-response,39
true,12,1,2,1,true,z,false,true,0.0-2.0-0.53-0.485-3.485,0,0,0,90,false,stim,false,2,797.0,2,0,2,71781,task1,1237799,false,false,1582,image-keyboard-response,40
true,12,1,2,1,true,z,false,true,0.0-2.0-0.54-0.486-3.486,0,0,0,90,false,stim,false,2,497.80000001192093,2,0,2,71781,task1,1239828,false,false,1585,image-keyboard-response,41
true,12,1,2,1,true,z,false,true,0.0-2.0-0.54-0.487-3.487,0,0,0,90,false,stim,false,2,422.0,2,0,2,71781,task1,1241781,false,false,1588,image-keyboard-response,42
true,12,2,2,2,true,d,false,true,0.0-2.0-0.54-0.488-3.488,0,0,0,68,false,stim,false,0,603.2000000029802,2,0,1,71781,task1,1243921,false,false,1591,image-keyboard-response,43
true,13,2,2,1,false,z,false,false,0.0-2.0-0.54-0.489-3.489,0,0,0,68,true,stim,true,2,1149.5,2,0,0,71781,task1,1246589,false,false,1594,image-keyboard-response,1
true,13,2,2,0,false,q,false,false,0.0-2.0-0.54-0.490-3.490,0,0,0,68,false,stim,true,2,566.6000000089407,2,0,1,71781,task1,1248684,false,false,1597,image-keyboard-response,2
true,13,1,2,2,false,d,false,false,0.0-2.0-0.54-0.491-3.491,0,0,0,90,false,stim,true,1,443.80000001192093,2,0,2,71781,task1,1250648,false,false,1600,image-keyboard-response,3
true,13,0,2,0,true,q,false,true,0.0-2.0-0.54-0.492-3.492,0,0,0,81,false,stim,false,2,645.4000000059605,2,0,1,71781,task1,1252841,false,false,1603,image-keyboard-response,4
true,13,0,2,1,false,z,true,false,0.0-2.0-0.54-0.493-3.493,0,0,0,81,false,stim,false,2,574.2000000029802,2,0,0,71781,task1,1254942,false,false,1606,image-keyboard-response,5
true,13,1,2,1,true,z,false,false,0.0-2.0-0.54-0.494-3.494,0,0,0,90,false,stim,false,2,555.2000000029802,2,0,0,71781,task1,1257016,false,true,1609,image-keyboard-response,6
true,13,0,2,0,true,q,false,true,0.0-2.0-0.55-0.495-3.495,0,0,0,81,false,stim,false,2,824.0,2,0,1,71781,task1,1259368,false,false,1612,image-keyboard-response,7
true,13,2,2,1,false,z,false,false,0.0-2.0-0.55-0.496-3.496,0,0,0,68,false,stim,true,2,787.6000000089407,2,0,0,71781,task1,1261683,false,false,1615,image-keyboard-response,8
true,13,0,2,0,true,q,false,true,0.0-2.0-0.55-0.497-3.497,0,0,0,81,false,stim,false,2,611.9000000059605,2,0,1,71781,task1,1263831,false,false,1618,image-keyboard-response,9
true,13,2,2,2,true,d,false,true,0.0-2.0-0.55-0.498-3.498,0,0,0,68,false,stim,false,1,476.30000001192093,2,0,2,71781,task1,1265836,false,false,1621,image-keyboard-response,10
true,13,0,2,0,true,q,false,true,0.0-2.0-0.55-0.499-3.499,0,0,0,81,false,stim,false,2,591.6000000089407,2,0,1,71781,task1,1267941,false,false,1624,image-keyboard-response,11
true,13,0,2,1,false,z,true,false,0.0-2.0-0.55-0.500-3.500,0,0,0,81,false,stim,false,2,782.5999999940395,2,0,0,71781,task1,1270250,false,false,1627,image-keyboard-response,12
true,13,2,2,1,false,z,false,false,0.0-2.0-0.55-0.501-3.501,0,0,0,68,false,stim,true,2,811.6000000089407,2,0,0,71781,task1,1272593,false,false,1630,image-keyboard-response,13
true,13,2,2,2,true,d,false,true,0.0-2.0-0.55-0.502-3.502,0,0,0,68,false,stim,false,1,626.0999999940395,2,0,2,71781,task1,1274741,false,false,1633,image-keyboard-response,14
true,13,2,2,2,true,d,false,true,0.0-2.0-0.55-0.503-3.503,0,0,0,68,false,stim,false,1,584.7000000029802,2,0,2,71781,task1,1276861,false,false,1636,image-keyboard-response,15
true,13,2,2,2,true,d,false,true,0.0-2.0-0.56-0.504-3.504,0,0,0,68,false,stim,false,1,542.7000000029802,2,0,2,71781,task1,1278929,false,false,1639,image-keyboard-response,16
true,13,1,2,1,true,z,false,true,0.0-2.0-0.56-0.505-3.505,0,0,0,90,false,stim,false,2,726.7999999970198,2,0,0,71781,task1,1281184,false,false,1642,image-keyboard-response,17
true,13,2,2,2,true,d,false,true,0.0-2.0-0.56-0.506-3.506,0,0,0,68,false,stim,false,1,647.2000000029802,2,0,2,71781,task1,1283352,false,false,1645,image-keyboard-response,18
true,13,0,2,0,true,q,false,false,0.0-2.0-0.56-0.507-3.507,0,0,0,81,false,stim,false,2,600.5999999940395,2,0,1,71781,task1,1285481,false,true,1648,image-keyboard-response,19
true,13,1,2,1,true,z,false,true,0.0-2.0-0.56-0.508-3.508,0,0,0,90,false,stim,false,2,654.0,2,0,0,71781,task1,1287652,false,false,1651,image-keyboard-response,20
true,13,0,2,0,true,q,false,true,0.0-2.0-0.56-0.509-3.509,0,0,0,81,false,stim,false,2,486.90000000596046,2,0,1,71781,task1,1289650,false,false,1654,image-keyboard-response,21
true,13,0,2,0,true,q,false,true,0.0-2.0-0.56-0.510-3.510,0,0,0,81,false,stim,false,2,572.8000000119209,2,0,1,71781,task1,1291750,false,false,1657,image-keyboard-response,22
true,13,1,2,1,true,z,false,true,0.0-2.0-0.56-0.511-3.511,0,0,0,90,false,stim,false,2,1014.2000000029802,2,0,0,71781,task1,1294293,false,false,1660,image-keyboard-response,23
true,13,2,2,2,true,d,false,true,0.0-2.0-0.56-0.512-3.512,0,0,0,68,false,stim,false,1,578.7999999970198,2,0,2,71781,task1,1296392,false,false,1663,image-keyboard-response,24
true,13,0,2,0,true,q,false,true,0.0-2.0-0.57-0.513-3.513,0,0,0,81,false,stim,false,2,1337.2000000029802,2,0,1,71781,task1,1299266,false,false,1666,image-keyboard-response,25
true,13,2,2,2,true,d,false,true,0.0-2.0-0.57-0.514-3.514,0,0,0,68,false,stim,false,1,782.7000000029802,2,0,2,71781,task1,1301583,false,false,1669,image-keyboard-response,26
true,13,2,2,2,true,d,false,true,0.0-2.0-0.57-0.515-3.515,0,0,0,68,false,stim,false,1,600.7999999970198,2,0,2,71781,task1,1303709,false,false,1672,image-keyboard-response,27
true,13,0,2,0,true,q,false,true,0.0-2.0-0.57-0.516-3.516,0,0,0,81,false,stim,false,2,989.9000000059605,2,0,1,71781,task1,1306223,false,false,1675,image-keyboard-response,28
true,13,2,2,2,true,d,false,false,0.0-2.0-0.57-0.517-3.517,0,0,0,68,false,stim,false,1,621.8000000119209,2,0,2,71781,task1,1308356,false,true,1678,image-keyboard-response,29
true,13,0,2,0,true,q,false,true,0.0-2.0-0.57-0.518-3.518,0,0,0,81,false,stim,false,2,805.7999999970198,2,0,1,71781,task1,1310681,false,false,1681,image-keyboard-response,30
true,13,1,2,1,true,z,false,false,0.0-2.0-0.57-0.519-3.519,0,0,0,90,false,stim,false,2,705.5,2,0,0,71781,task1,1312904,false,true,1684,image-keyboard-response,31
true,13,1,2,1,true,z,false,true,0.0-2.0-0.57-0.520-3.520,0,0,0,90,false,stim,false,2,630.3000000119209,2,0,0,71781,task1,1315058,false,false,1687,image-keyboard-response,32
true,13,1,2,1,true,z,false,true,0.0-2.0-0.57-0.521-3.521,0,0,0,90,false,stim,false,2,526.7000000029802,2,0,0,71781,task1,1317117,false,false,1690,image-keyboard-response,33
true,13,1,2,1,true,z,false,true,0.0-2.0-0.58-0.522-3.522,0,0,0,90,false,stim,false,2,637.2000000029802,2,0,0,71781,task1,1319285,false,false,1693,image-keyboard-response,34
true,13,0,2,0,true,q,false,true,0.0-2.0-0.58-0.523-3.523,0,0,0,81,false,stim,false,2,568.9000000059605,2,0,1,71781,task1,1321375,false,false,1696,image-keyboard-response,35
true,13,2,2,2,true,d,false,true,0.0-2.0-0.58-0.524-3.524,0,0,0,68,false,stim,false,1,599.5,2,0,2,71781,task1,1323500,false,false,1699,image-keyboard-response,36
true,13,2,2,2,true,d,false,true,0.0-2.0-0.58-0.525-3.525,0,0,0,68,false,stim,false,1,716.2999999970198,2,0,2,71781,task1,1325753,false,false,1702,image-keyboard-response,37
true,13,1,2,1,true,z,false,true,0.0-2.0-0.58-0.526-3.526,0,0,0,90,false,stim,false,2,658.7000000029802,2,1,0,71781,task1,1327943,false,false,1705,image-keyboard-response,38
true,13,1,2,1,true,z,false,true,0.0-2.0-0.58-0.527-3.527,0,0,0,90,false,stim,false,2,566.6000000089407,2,1,0,71781,task1,1330033,false,false,1708,image-keyboard-response,39
true,13,0,2,0,true,q,false,true,0.0-2.0-0.58-0.528-3.528,0,0,0,81,false,stim,false,2,885.1000000089407,2,1,1,71781,task1,1332451,false,false,1711,image-keyboard-response,40
true,13,2,2,2,true,d,false,true,0.0-2.0-0.58-0.529-3.529,0,0,0,68,false,stim,false,1,745.3000000119209,2,1,2,71781,task1,1334719,false,false,1714,image-keyboard-response,41
true,13,0,2,0,true,q,false,true,0.0-2.0-0.58-0.530-3.530,0,0,0,81,false,stim,false,2,771.9000000059605,2,1,1,71781,task1,1337019,false,false,1717,image-keyboard-response,42
true,14,1,0,0,false,q,true,false,0.0-2.0-0.59-0.531-3.531,1,1,1,90,true,stim,false,0,1145.0,2,1,1,71781,task1,1460966,false,false,1840,image-keyboard-response,1
true,14,2,0,2,true,d,false,true,0.0-2.0-0.59-0.532-3.532,1,1,1,68,false,stim,false,2,933.8999999910593,2,1,2,71781,task1,1463425,false,false,1843,image-keyboard-response,2
true,14,0,0,0,true,q,false,true,0.0-2.0-0.59-0.533-3.533,1,1,1,81,false,stim,false,0,674.5999999940395,2,1,1,71781,task1,1465618,false,false,1846,image-keyboard-response,3
true,14,1,0,1,true,z,false,true,0.0-2.0-0.59-0.534-3.534,1,1,1,90,false,stim,false,1,707.3999999910593,2,1,0,71781,task1,1467853,false,false,1849,image-keyboard-response,4
true,14,2,0,2,true,d,false,true,0.0-2.0-0.59-0.535-3.535,1,1,1,68,false,stim,false,2,575.7000000029802,2,1,2,71781,task1,1469957,false,false,1852,image-keyboard-response,5
true,14,2,0,2,true,d,false,true,0.0-2.0-0.59-0.536-3.536,1,1,1,68,false,stim,false,2,453.40000000596046,2,1,2,71781,task1,1471927,false,false,1855,image-keyboard-response,6
true,14,1,0,1,true,z,false,true,0.0-2.0-0.59-0.537-3.537,1,1,1,90,false,stim,false,1,741.0,2,1,0,71781,task1,1474186,false,false,1858,image-keyboard-response,7
true,14,1,0,1,true,z,false,true,0.0-2.0-0.59-0.538-3.538,1,1,1,90,false,stim,false,1,423.1000000089407,2,1,0,71781,task1,1476146,false,false,1861,image-keyboard-response,8
true,14,0,0,0,true,q,false,true,0.0-2.0-0.59-0.539-3.539,1,1,1,81,false,stim,false,0,588.6000000089407,2,0,1,71781,task1,1478270,false,false,1864,image-keyboard-response,9
true,14,0,0,0,true,q,false,true,0.0-2.0-0.60-0.540-3.540,1,1,1,81,false,stim,false,0,590.7000000029802,2,0,1,71781,task1,1480378,false,false,1867,image-keyboard-response,10
true,14,1,0,1,true,z,false,true,0.0-2.0-0.60-0.541-3.541,1,1,1,90,false,stim,false,1,812.3000000119209,2,0,0,71781,task1,1482702,false,false,1870,image-keyboard-response,11
true,14,2,0,2,true,d,false,true,0.0-2.0-0.60-0.542-3.542,1,1,1,68,false,stim,false,2,539.0,2,0,2,71781,task1,1484776,false,false,1873,image-keyboard-response,12
true,14,0,0,0,true,q,false,true,0.0-2.0-0.60-0.543-3.543,1,1,1,81,false,stim,false,0,938.7999999970198,2,0,1,71781,task1,1487230,false,false,1876,image-keyboard-response,13
true,15,2,2,1,false,z,false,false,0.0-2.0-0.60-0.544-3.544,0,0,0,68,true,stim,true,2,561.2999999970198,2,0,2,71781,task1,1489313,false,false,1879,image-keyboard-response,1
true,15,1,2,2,false,d,false,false,0.0-2.0-0.60-0.545-3.545,0,0,0,90,false,stim,true,1,718.3000000119209,2,0,0,71781,task1,1491560,false,false,1882,image-keyboard-response,2
true,15,2,2,1,false,z,false,false,0.0-2.0-0.60-0.546-3.546,0,0,0,68,false,stim,true,2,662.5999999940395,2,0,2,71781,task1,1493748,false,false,1885,image-keyboard-response,3
true,15,0,2,2,false,d,false,false,0.0-2.0-0.60-0.547-3.547,0,0,0,81,false,stim,true,0,676.0,2,0,1,71781,task1,1495943,false,false,1888,image-keyboard-response,4
true,15,0,2,2,false,d,true,false,0.0-2.0-0.60-0.548-3.548,0,0,0,81,false,stim,false,1,861.2999999970198,2,0,0,71781,task1,1498341,false,false,1891,image-keyboard-response,5
true,15,1,2,1,true,z,false,true,0.0-2.0-0.61-0.549-3.549,0,0,0,90,false,stim,false,2,506.6000000089407,2,0,2,71781,task1,1500370,false,false,1894,image-keyboard-response,6
true,15,2,2,2,true,d,false,true,0.0-2.0-0.61-0.550-3.550,0,0,0,68,false,stim,false,1,520.2000000029802,2,0,0,71781,task1,1502409,false,false,1897,image-keyboard-response,7
true,15,2,2,2,true,d,false,true,0.0-2.0-0.61-0.551-3.551,0,0,0,68,false,stim,false,0,412.0,2,0,1,71781,task1,1504333,false,false,1900,image-keyboard-response,8
true,15,1,2,2,false,d,false,false,0.0-2.0-0.61-0.552-3.552,0,0,0,90,false,stim,true,1,580.0,2,0,0,71781,task1,1506462,false,false,1903,image-keyboard-response,9
true,15,1,2,1,true,z,false,false,0.0-2.0-0.61-0.553-3.553,0,0,0,90,false,stim,false,2,564.3999999910593,2,0,2,71781,task1,1508557,false,true,1906,image-keyboard-response,10
true,15,2,2,2,true,d,false,false,0.0-2.0-0.61-0.554-3.554,0,0,0,68,false,stim,false,0,684.8999999910593,2,0,1,71781,task1,1510765,false,true,1909,image-keyboard-response,11
true,15,2,2,1,false,z,false,false,0.0-2.0-0.61-0.555-3.555,0,0,0,68,false,stim,true,2,949.9000000059605,2,0,2,71781,task1,1513249,false,false,1912,image-keyboard-response,12
true,15,2,2,2,true,d,false,true,0.0-2.0-0.61-0.556-3.556,0,0,0,68,false,stim,false,1,1212.5,2,0,0,71781,task1,1515984,false,false,1915,image-keyboard-response,13
true,15,2,2,2,true,d,false,true,0.0-2.0-0.61-0.557-3.557,0,0,0,68,false,stim,false,0,547.0,2,0,1,71781,task1,1518052,false,false,1918,image-keyboard-response,14
true,15,2,2,2,true,d,false,true,0.0-2.0-0.62-0.558-3.558,0,0,0,68,false,stim,false,1,573.1999999880791,2,0,0,71781,task1,1520156,false,false,1921,image-keyboard-response,15
true,15,2,2,2,true,d,false,true,0.0-2.0-0.62-0.559-3.559,0,0,0,68,false,stim,false,0,501.70000000298023,2,0,1,71781,task1,1522171,false,false,1924,image-keyboard-response,16
true,15,1,2,1,true,z,false,true,0.0-2.0-0.62-0.560-3.560,0,0,0,90,false,stim,false,2,472.59999999403954,2,0,2,71781,task1,1524169,false,false,1927,image-keyboard-response,17
true,15,1,2,1,true,z,false,true,0.0-2.0-0.62-0.561-3.561,0,0,0,90,false,stim,false,2,760.2000000029802,2,0,2,71781,task1,1526455,false,false,1930,image-keyboard-response,18
true,15,2,2,2,true,d,false,true,0.0-2.0-0.62-0.562-3.562,0,0,0,68,false,stim,false,0,510.69999998807907,2,0,1,71781,task1,1528487,false,false,1933,image-keyboard-response,19
true,15,2,2,2,true,d,false,true,0.0-2.0-0.62-0.563-3.563,0,0,0,68,false,stim,false,1,527.0999999940395,2,0,0,71781,task1,1530551,false,false,1936,image-keyboard-response,20
true,15,2,2,2,true,d,false,true,0.0-2.0-0.62-0.564-3.564,0,0,0,68,false,stim,false,0,576.1999999880791,2,0,1,71781,task1,1532660,false,false,1939,image-keyboard-response,21
true,15,1,2,1,true,z,false,true,0.0-2.0-0.62-0.565-3.565,0,0,0,90,false,stim,false,2,663.4000000059605,2,0,2,71781,task1,1534845,false,false,1942,image-keyboard-response,22
true,15,2,2,2,true,d,false,true,0.0-2.0-0.62-0.566-3.566,0,0,0,68,false,stim,false,1,505.20000000298023,2,0,0,71781,task1,1536865,false,false,1945,image-keyboard-response,23
true,15,1,2,1,true,z,false,false,0.0-2.0-0.63-0.567-3.567,0,0,0,90,false,stim,false,2,641.2999999970198,2,0,2,71781,task1,1539043,false,true,1948,image-keyboard-response,24
true,15,2,2,2,true,d,false,true,0.0-2.0-0.63-0.568-3.568,0,0,0,68,false,stim,false,0,398.70000000298023,2,0,1,71781,task1,1540962,false,false,1951,image-keyboard-response,25
true,15,1,2,1,true,z,false,true,0.0-2.0-0.63-0.569-3.569,0,0,0,90,false,stim,false,2,572.4000000059605,2,0,2,71781,task1,1543061,false,false,1954,image-keyboard-response,26
true,15,2,2,2,true,d,false,true,0.0-2.0-0.63-0.570-3.570,0,0,0,68,false,stim,false,0,585.2999999970198,2,0,1,71781,task1,1545172,false,false,1957,image-keyboard-response,27
true,15,2,2,2,true,d,false,true,0.0-2.0-0.63-0.571-3.571,0,0,0,68,false,stim,false,1,397.19999998807907,2,0,0,71781,task1,1547095,false,false,1960,image-keyboard-response,28
true,15,2,2,2,true,d,false,true,0.0-2.0-0.63-0.572-3.572,0,0,0,68,false,stim,false,0,466.40000000596046,2,0,1,71781,task1,1549089,false,false,1963,image-keyboard-response,29
true,15,2,2,2,true,d,false,false,0.0-2.0-0.63-0.573-3.573,0,0,0,68,false,stim,false,1,423.79999999701977,2,0,0,71781,task1,1551043,false,true,1966,image-keyboard-response,30
true,15,1,2,1,true,z,false,true,0.0-2.0-0.63-0.574-3.574,0,0,0,90,false,stim,false,2,596.9000000059605,2,0,2,71781,task1,1553172,false,false,1969,image-keyboard-response,31
true,15,2,2,2,true,d,false,true,0.0-2.0-0.63-0.575-3.575,0,0,0,68,false,stim,false,1,568.5,2,0,0,71781,task1,1555257,false,false,1972,image-keyboard-response,32
true,15,1,2,1,true,z,false,true,0.0-2.0-0.64-0.576-3.576,0,0,0,90,false,stim,false,2,830.2999999970198,2,0,2,71781,task1,1557611,false,false,1975,image-keyboard-response,33
true,15,2,2,2,true,d,false,true,0.0-2.0-0.64-0.577-3.577,0,0,0,68,false,stim,false,1,482.09999999403954,2,0,0,71781,task1,1559624,false,false,1978,image-keyboard-response,34
true,15,1,2,1,true,z,false,true,0.0-2.0-0.64-0.578-3.578,0,0,0,90,false,stim,false,2,840.7999999970198,2,0,2,71781,task1,1561999,false,false,1981,image-keyboard-response,35
true,15,2,2,2,true,d,false,true,0.0-2.0-0.64-0.579-3.579,0,0,0,68,false,stim,false,1,559.7999999970198,2,0,0,71781,task1,1564103,false,false,1984,image-keyboard-response,36
true,15,1,2,1,true,z,false,true,0.0-2.0-0.64-0.580-3.580,0,0,0,90,false,stim,false,2,487.6000000089407,2,0,2,71781,task1,1566123,false,false,1987,image-keyboard-response,37
true,15,2,2,2,true,d,false,true,0.0-2.0-0.64-0.581-3.581,0,0,0,68,false,stim,false,0,623.9000000059605,2,0,1,71781,task1,1568262,false,false,1990,image-keyboard-response,38
true,15,2,2,2,true,d,false,false,0.0-2.0-0.64-0.582-3.582,0,0,0,68,false,stim,false,0,906.2999999970198,2,0,1,71781,task1,1570690,false,true,1993,image-keyboard-response,39
true,15,2,2,2,true,d,false,true,0.0-2.0-0.64-0.583-3.583,0,0,0,68,false,stim,false,0,673.8999999910593,2,0,1,71781,task1,1572887,false,false,1996,image-keyboard-response,40
true,15,2,2,2,true,d,false,true,0.0-2.0-0.64-0.584-3.584,0,0,0,68,false,stim,false,1,591.7000000029802,2,0,0,71781,task1,1575008,false,false,1999,image-keyboard-response,41
true,15,2,2,2,true,d,false,true,0.0-2.0-0.65-0.585-3.585,0,0,0,68,false,stim,false,1,455.40000000596046,2,0,0,71781,task1,1577017,false,false,2002,image-keyboard-response,42
true,15,1,2,1,true,z,false,true,0.0-2.0-0.65-0.586-3.586,0,0,0,90,false,stim,false,2,509.5,2,0,2,71781,task1,1579057,false,false,2005,image-keyboard-response,43
true,15,2,2,2,true,d,false,true,0.0-2.0-0.65-0.587-3.587,0,0,0,68,false,stim,false,0,614.3000000119209,2,0,1,71781,task1,1581196,false,false,2008,image-keyboard-response,44
true,16,2,2,1,false,z,false,false,0.0-2.0-0.65-0.588-3.588,0,0,0,68,true,stim,true,2,614.0999999940395,2,0,0,71781,task1,1583331,false,false,2011,image-keyboard-response,1
true,16,2,2,2,true,d,false,true,0.0-2.0-0.65-0.589-3.589,0,0,0,68,false,stim,false,1,506.79999999701977,2,0,2,71781,task1,1585369,false,false,2014,image-keyboard-response,2
