answered,blockNum,choice,condition,corResp,correct,correct_response,explo,fb,internal_node_id,isStable_1,isStable_2,isStable_3,key_press,newBlock,part,persev,persevResp,rt,sessNum,stableAS,stimulus,subject,task,time_elapsed,training,trap,trial_index,trial_type,trialsInBlock
true,1,0,0,2,false,d,true,false,0.0-2.0-0.0-0.0-3.0,0,0,0,81,true,stim,false,-1,858.0,0,0,1,71781,task2,144307,false,false,84,image-keyboard-response,1
true,1,0,0,1,false,z,true,false,0.0-2.0-0.0-0.1-3.1,0,0,0,81,false,stim,false,-1,820.3999999910593,0,0,0,71781,task2,146653,false,false,87,image-keyboard-response,2
true,1,1,0,1,true,z,false,true,0.0-2.0-0.0-0.2-3.2,0,0,0,90,false,stim,false,-1,944.5,0,0,0,71781,task2,149128,false,false,90,image-keyboard-response,3
true,1,0,0,2,false,d,true,false,0.0-2.0-0.0-0.3-3.3,0,0,0,81,false,stim,false,-1,1077.2000000029802,0,0,2,71781,task2,151728,false,false,93,image-keyboard-response,4
true,1,1,0,2,false,d,true,true,0.0-2.0-0.0-0.4-3.4,0,0,0,90,false,stim,false,-1,711.7999999970198,0,0,2,71781,task2,153963,false,true,96,image-keyboard-response,5
true,1,1,0,2,false,d,true,true,0.0-2.0-0.0-0.5-3.5,0,0,0,90,false,stim,false,-1,892.2999999970198,0,0,2,71781,task2,156379,false,true,99,image-keyboard-response,6
true,1,1,0,1,true,z,false,true,0.0-2.0-0.0-0.6-3.6,0,0,0,90,false,stim,false,-1,775.2000000029802,0,0,0,71781,task2,158679,false,false,102,image-keyboard-response,7
true,1,1,0,2,false,d,true,false,0.0-2.0-0.0-0.7-3.7,0,0,0,90,false,stim,false,-1,1659.2000000029802,0,0,1,71781,task2,161850,false,false,105,image-keyboard-response,8
true,1,2,0,2,true,d,false,true,0.0-2.0-0.0-0.8-3.8,0,0,0,68,false,stim,false,-1,738.7000000029802,0,0,1,71781,task2,164111,false,false,108,image-keyboard-response,9
true,1,1,0,2,false,d,true,false,0.0-2.0-0.1-0.9-3.9,0,0,0,90,false,stim,false,-1,981.0,0,0,2,71781,task2,166622,false,false,111,image-keyboard-response,10
true,1,2,0,2,true,d,false,true,0.0-2.0-0.1-0.10-3.10,0,0,0,68,false,stim,false,-1,2850.9000000059605,0,0,1,71781,task2,170992,false,false,114,image-keyboard-response,11
true,1,0,0,2,false,d,true,false,0.0-2.0-0.1-0.11-3.11,0,0,0,81,false,stim,false,-1,884.9000000059605,0,0,2,71781,task2,173397,false,false,117,image-keyboard-response,12
true,1,1,0,1,true,z,false,true,0.0-2.0-0.1-0.12-3.12,0,0,0,90,false,stim,false,-1,385.20000000298023,0,0,0,71781,task2,175298,false,false,120,image-keyboard-response,13
true,1,2,0,2,true,d,false,true,0.0-2.0-0.1-0.13-3.13,0,0,0,68,false,stim,false,-1,1030.3999999910593,0,0,1,71781,task2,177843,false,false,123,image-keyboard-response,14
true,1,1,0,1,true,z,false,true,0.0-2.0-0.1-0.14-3.14,0,0,0,90,false,stim,false,-1,536.1999999880791,0,0,0,71781,task2,179898,false,false,126,image-keyboard-response,15
true,1,1,0,1,true,z,false,true,0.0-2.0-0.1-0.15-3.15,0,0,0,90,false,stim,false,-1,523.7000000029802,0,0,0,71781,task2,181953,false,false,129,image-keyboard-response,16
true,1,1,0,2,false,d,true,false,0.0-2.0-0.1-0.16-3.16,0,0,0,90,false,stim,false,-1,886.2999999970198,0,0,2,71781,task2,184358,false,false,132,image-keyboard-response,17
true,1,2,0,2,true,d,false,true,0.0-2.0-0.1-0.17-3.17,0,0,0,68,false,stim,false,-1,506.20000000298023,0,0,1,71781,task2,186389,false,false,135,image-keyboard-response,18
true,1,2,0,2,true,d,false,false,0.0-2.0-0.2-0.18-3.18,0,0,0,68,false,stim,false,-1,1034.199999988079,0,0,2,71781,task2,188934,false,true,138,image-keyboard-response,19
true,1,0,0,2,false,d,true,false,0.0-2.0-0.2-0.19-3.19,0,0,0,81,false,stim,false,-1,613.2999999970198,0,0,2,71781,task2,191064,false,false,141,image-keyboard-response,20
true,1,1,0,2,false,d,true,false,0.0-2.0-0.2-0.20-3.20,0,0,0,90,false,stim,false,-1,530.0999999940395,0,0,2,71781,task2,193114,false,false,144,image-keyboard-response,21
true,1,2,0,2,true,d,false,true,0.0-2.0-0.2-0.21-3.21,0,0,0,68,false,stim,false,-1,2130.9000000059605,0,0,1,71781,task2,196765,false,false,147,image-keyboard-response,22
true,1,2,0,2,true,d,false,true,0.0-2.0-0.2-0.22-3.22,0,0,0,68,false,stim,false,-1,559.9000000059605,0,0,1,71781,task2,198845,false,false,150,image-keyboard-response,23
true,1,1,0,1,true,z,false,true,0.0-2.0-0.2-0.23-3.23,0,0,0,90,false,stim,false,-1,620.5999999940395,0,0,0,71781,task2,200980,false,false,153,image-keyboard-response,24
true,1,1,0,1,true,z,false,true,0.0-2.0-0.2-0.24-3.24,0,0,0,90,false,stim,false,-1,687.0999999940395,0,0,0,71781,task2,203191,false,false,156,image-keyboard-response,25
true,1,2,0,2,true,d,false,true,0.0-2.0-0.2-0.25-3.25,0,0,0,68,false,stim,false,-1,746.4000000059605,0,0,1,71781,task2,205467,false,false,159,image-keyboard-response,26
true,2,1,1,0,false,q,false,false,0.0-2.0-0.2-0.26-3.26,0,0,0,90,true,stim,true,1,519.0,0,0,0,71781,task2,207492,false,false,162,image-keyboard-response,1
true,2,2,1,0,false,q,false,false,0.0-2.0-0.3-0.27-3.27,0,0,0,68,false,stim,true,2,563.2999999970198,0,0,1,71781,task2,209586,false,false,165,image-keyboard-response,2
true,2,0,1,0,true,q,false,false,0.0-2.0-0.3-0.28-3.28,0,0,0,81,false,stim,false,1,980.2000000029802,0,0,0,71781,task2,212072,false,true,168,image-keyboard-response,3
true,2,1,1,1,true,z,false,true,0.0-2.0-0.3-0.29-3.29,0,0,0,90,false,stim,false,2,1136.4000000059605,0,0,2,71781,task2,214728,false,false,171,image-keyboard-response,4
true,2,2,1,0,false,q,false,false,0.0-2.0-0.3-0.30-3.30,0,0,0,68,false,stim,true,2,1083.2000000029802,0,0,1,71781,task2,217327,false,false,174,image-keyboard-response,5
true,2,1,1,1,true,z,false,true,0.0-2.0-0.3-0.31-3.31,0,0,0,90,false,stim,false,2,748.6000000089407,0,0,2,71781,task2,219593,false,false,177,image-keyboard-response,6
true,2,1,1,1,true,z,false,true,0.0-2.0-0.3-0.32-3.32,0,0,0,90,false,stim,false,2,760.2999999970198,0,0,2,71781,task2,221873,false,false,180,image-keyboard-response,7
true,2,2,1,0,false,q,true,false,0.0-2.0-0.3-0.33-3.33,0,0,0,68,false,stim,false,1,2345.5999999940395,0,0,0,71781,task2,225743,false,false,183,image-keyboard-response,8
true,2,1,1,0,false,q,false,false,0.0-2.0-0.3-0.34-3.34,0,0,0,90,false,stim,true,1,1673.9000000059605,0,0,0,71781,task2,228938,false,false,186,image-keyboard-response,9
false,2,-1,1,0,false,q,true,false,0.0-2.0-0.3-0.35-3.35,0,0,0,,false,stim,false,2,,0,0,1,71781,task2,233479,false,false,189,image-keyboard-response,10
true,2,1,1,0,false,q,false,false,0.0-2.0-0.4-0.36-3.36,0,0,0,90,false,stim,true,1,793.4000000059605,0,0,0,71781,task2,235794,false,false,192,image-keyboard-response,11
true,2,1,1,0,false,q,true,false,0.0-2.0-0.4-0.37-3.37,0,0,0,90,false,stim,false,2,567.0,0,0,1,71781,task2,237884,false,false,195,image-keyboard-response,12
true,2,1,1,1,true,z,false,true,0.0-2.0-0.4-0.38-3.38,0,0,0,90,false,stim,false,2,496.5,0,0,2,71781,task2,239914,false,false,198,image-keyboard-response,13
true,2,1,1,1,true,z,false,true,0.0-2.0-0.4-0.39-3.39,0,0,0,90,false,stim,false,2,595.0,0,0,2,71781,task2,242031,false,false,201,image-keyboard-response,14
true,2,1,1,1,true,z,false,true,0.0-2.0-0.4-0.40-3.40,0,0,0,90,false,stim,false,2,517.2999999970198,0,0,2,71781,task2,244070,false,false,204,image-keyboard-response,15
true,2,0,1,0,true,q,false,true,0.0-2.0-0.4-0.41-3.41,0,0,0,81,false,stim,false,1,717.7000000029802,0,0,0,71781,task2,246306,false,false,207,image-keyboard-response,16
true,2,0,1,0,true,q,false,true,0.0-2.0-0.4-0.42-3.42,0,0,0,81,false,stim,false,1,537.0999999940395,0,0,0,71781,task2,248375,false,false,210,image-keyboard-response,17
true,2,0,1,0,true,q,false,true,0.0-2.0-0.4-0.43-3.43,0,0,0,81,false,stim,false,2,1561.0999999940395,0,0,1,71781,task2,251452,false,false,213,image-keyboard-response,18
true,2,0,1,0,true,q,false,true,0.0-2.0-0.4-0.44-3.44,0,0,0,81,false,stim,false,2,489.29999999701977,0,0,1,71781,task2,253447,false,false,216,image-keyboard-response,19
true,2,1,1,1,true,z,false,true,0.0-2.0-0.5-0.45-3.45,0,0,0,90,false,stim,false,2,578.5,0,0,2,71781,task2,255537,false,false,219,image-keyboard-response,20
true,2,0,1,0,true,q,false,true,0.0-2.0-0.5-0.46-3.46,0,0,0,81,false,stim,false,2,588.3999999910593,0,0,1,71781,task2,257647,false,false,222,image-keyboard-response,21
true,2,0,1,0,true,q,false,false,0.0-2.0-0.5-0.47-3.47,0,0,0,81,false,stim,false,2,601.3000000119209,0,0,1,71781,task2,259762,false,true,225,image-keyboard-response,22
true,2,1,1,1,true,z,false,true,0.0-2.0-0.5-0.48-3.48,0,0,0,90,false,stim,false,2,663.4000000059605,0,0,2,71781,task2,261957,false,false,228,image-keyboard-response,23
true,2,0,1,0,true,q,false,true,0.0-2.0-0.5-0.49-3.49,0,0,0,81,false,stim,false,1,631.8999999910593,0,0,0,71781,task2,264097,false,false,231,image-keyboard-response,24
true,2,0,1,0,true,q,false,true,0.0-2.0-0.5-0.50-3.50,0,0,0,81,false,stim,false,1,734.3000000119209,0,0,0,71781,task2,266363,false,false,234,image-keyboard-response,25
true,2,1,1,1,true,z,false,true,0.0-2.0-0.5-0.51-3.51,0,0,0,90,false,stim,false,2,578.5,0,0,2,71781,task2,268459,false,false,237,image-keyboard-response,26
true,2,0,1,0,true,q,false,true,0.0-2.0-0.5-0.52-3.52,0,0,0,81,false,stim,false,1,1037.8999999910593,0,0,0,71781,task2,271018,false,false,240,image-keyboard-response,27
true,2,0,1,0,true,q,false,true,0.0-2.0-0.5-0.53-3.53,0,0,0,81,false,stim,false,2,567.5,0,0,1,71781,task2,273099,false,false,243,image-keyboard-response,28
true,2,0,1,0,true,q,false,true,0.0-2.0-0.6-0.54-3.54,0,0,0,81,false,stim,false,2,572.8999999910593,0,0,1,71781,task2,275205,false,false,246,image-keyboard-response,29
true,2,1,1,1,true,z,false,true,0.0-2.0-0.6-0.55-3.55,0,0,0,90,false,stim,false,2,634.2000000029802,0,0,2,71781,task2,277349,false,false,249,image-keyboard-response,30
true,2,0,1,0,true,q,false,true,0.0-2.0-0.6-0.56-3.56,0,0,0,81,false,stim,false,1,431.20000000298023,0,0,0,71781,task2,279300,false,false,252,image-keyboard-response,31
true,2,1,1,1,true,z,false,true,0.0-2.0-0.6-0.57-3.57,0,0,0,90,false,stim,false,2,638.3999999910593,0,0,2,71781,task2,281445,false,false,255,image-keyboard-response,32
true,2,0,1,0,true,q,false,true,0.0-2.0-0.6-0.58-3.58,0,0,0,81,false,stim,false,2,566.0,0,1,1,71781,task2,283535,false,false,258,image-keyboard-response,33
true,2,0,1,0,true,q,false,true,0.0-2.0-0.6-0.59-3.59,0,0,0,81,false,stim,false,2,451.79999999701977,0,1,1,71781,task2,285506,false,false,261,image-keyboard-response,34
true,3,1,2,0,false,q,false,false,0.0-2.0-0.6-0.60-3.60,0,1,0,90,true,stim,true,1,703.8999999910593,0,0,2,71781,task2,287741,false,false,264,image-keyboard-response,1
true,3,0,2,2,false,d,false,false,0.0-2.0-0.6-0.61-3.61,0,1,0,81,false,stim,true,0,921.0,0,0,0,71781,task2,290191,false,false,267,image-keyboard-response,2
true,3,1,2,2,false,d,true,false,0.0-2.0-0.6-0.62-3.62,0,1,0,90,false,stim,false,0,909.7000000029802,0,0,0,71781,task2,292616,false,false,270,image-keyboard-response,3
true,3,0,2,0,true,q,false,true,0.0-2.0-0.7-0.63-3.63,0,1,0,81,false,stim,false,0,602.3000000119209,0,1,1,71781,task2,294741,false,false,273,image-keyboard-response,4
true,3,2,2,0,false,q,true,false,0.0-2.0-0.7-0.64-3.64,0,1,0,68,false,stim,false,1,862.7000000029802,0,0,2,71781,task2,297121,false,false,276,image-keyboard-response,5
true,3,0,2,0,true,q,false,true,0.0-2.0-0.7-0.65-3.65,0,1,0,81,false,stim,false,1,564.1999999880791,0,0,2,71781,task2,299207,false,false,279,image-keyboard-response,6
true,3,2,2,2,true,d,false,true,0.0-2.0-0.7-0.66-3.66,0,1,0,68,false,stim,false,0,1121.5,0,0,0,71781,task2,301847,false,false,282,image-keyboard-response,7
true,3,0,2,0,true,q,false,true,0.0-2.0-0.7-0.67-3.67,0,1,0,81,false,stim,false,0,426.69999998807907,0,1,1,71781,task2,303803,false,false,285,image-keyboard-response,8
true,3,2,2,2,true,d,false,false,0.0-2.0-0.7-0.68-3.68,0,1,0,68,false,stim,false,0,505.8999999910593,0,0,0,71781,task2,305818,false,true,288,image-keyboard-response,9
true,3,1,2,2,false,d,true,false,0.0-2.0-0.7-0.69-3.69,0,1,0,90,false,stim,false,0,913.7999999970198,0,0,0,71781,task2,308258,false,false,291,image-keyboard-response,10
true,3,0,2,0,true,q,false,true,0.0-2.0-0.7-0.70-3.70,0,1,0,81,false,stim,false,1,649.5,0,0,2,71781,task2,310428,false,false,294,image-keyboard-response,11
true,3,0,2,0,true,q,false,true,0.0-2.0-0.7-0.71-3.71,0,1,0,81,false,stim,false,0,701.7999999970198,0,1,1,71781,task2,312649,false,false,297,image-keyboard-response,12
true,3,0,2,0,true,q,false,true,0.0-2.0-0.8-0.72-3.72,0,1,0,81,false,stim,false,1,839.2999999970198,0,0,2,71781,task2,315004,false,false,300,image-keyboard-response,13
true,3,0,2,2,false,d,false,false,0.0-2.0-0.8-0.73-3.73,0,1,0,81,false,stim,true,0,954.2999999970198,0,0,0,71781,task2,317485,false,false,303,image-keyboard-response,14
true,3,0,2,0,true,q,false,true,0.0-2.0-0.8-0.74-3.74,0,1,0,81,false,stim,false,0,741.2999999970198,0,1,1,71781,task2,319741,false,false,306,image-keyboard-response,15
true,3,0,2,0,true,q,false,true,0.0-2.0-0.8-0.75-3.75,0,1,0,81,false,stim,false,1,464.20000000298023,0,0,2,71781,task2,321715,false,false,309,image-keyboard-response,16
true,3,0,2,0,true,q,false,true,0.0-2.0-0.8-0.76-3.76,0,1,0,81,false,stim,false,1,452.90000000596046,0,0,2,71781,task2,323672,false,false,312,image-keyboard-response,17
true,3,0,2,0,true,q,false,true,0.0-2.0-0.8-0.77-3.77,0,1,0,81,false,stim,false,0,725.0999999940395,0,1,1,71781,task2,325911,false,false,315,image-keyboard-response,18
true,3,2,2,2,true,d,false,true,0.0-2.0-0.8-0.78-3.78,0,1,0,68,false,stim,false,0,1027.3999999910593,0,0,0,71781,task2,328463,false,false,318,image-keyboard-response,19
true,3,0,2,0,true,q,false,true,0.0-2.0-0.8-0.79-3.79,0,1,0,81,false,stim,false,0,590.7999999970198,0,1,1,71781,task2,330577,false,false,321,image-keyboard-response,20
true,3,2,2,2,true,d,false,true,0.0-2.0-0.8-0.80-3.80,0,1,0,68,false,stim,false,0,723.8000000119209,0,0,0,71781,task2,332828,false,false,324,image-keyboard-response,21
true,3,2,2,2,true,d,false,true,0.0-2.0-0.9-0.81-3.81,0,1,0,68,false,stim,false,0,748.4000000059605,0,0,0,71781,task2,335088,false,false,327,image-keyboard-response,22
true,3,0,2,0,true,q,false,true,0.0-2.0-0.9-0.82-3.82,0,1,0,81,false,stim,false,1,807.2000000029802,0,0,2,71781,task2,337414,false,false,330,image-keyboard-response,23
true,3,0,2,0,true,q,false,true,0.0-2.0-0.9-0.83-3.83,0,1,0,81,false,stim,false,1,560.2000000029802,0,0,2,71781,task2,339500,false,false,333,image-keyboard-response,24
true,3,0,2,0,true,q,false,false,0.0-2.0-0.9-0.84-3.84,0,1,0,81,false,stim,false,1,430.0,0,0,2,71781,task2,341439,false,true,336,image-keyboard-response,25
true,3,0,2,0,true,q,false,true,0.0-2.0-0.9-0.85-3.85,0,1,0,81,false,stim,false,0,712.2999999970198,0,1,1,71781,task2,343670,false,false,339,image-keyboard-response,26
true,3,0,2,0,true,q,false,true,0.0-2.0-0.9-0.86-3.86,0,1,0,81,false,stim,false,0,647.7000000029802,0,1,1,71781,task2,345840,false,false,342,image-keyboard-response,27
true,3,2,2,2,true,d,false,false,0.0-2.0-0.9-0.87-3.87,0,1,0,68,false,stim,false,0,666.5,0,0,0,71781,task2,348026,false,true,345,image-keyboard-response,28
true,3,0,2,2,false,d,false,false,0.0-2.0-0.9-0.88-3.88,0,1,0,81,false,stim,true,0,651.0,0,0,0,71781,task2,350211,false,false,348,image-keyboard-response,29
true,3,0,2,0,true,q,false,true,0.0-2.0-0.9-0.89-3.89,0,1,0,81,false,stim,false,0,906.5,0,0,1,71781,task2,352636,false,false,351,image-keyboard-response,30
true,3,1,2,0,false,q,false,false,0.0-2.0-0.10-0.90-3.90,0,1,0,90,false,stim,true,1,1395.2999999970198,0,0,2,71781,task2,355542,false,false,354,image-keyboard-response,31
true,3,0,2,2,false,d,false,false,0.0-2.0-0.10-0.91-3.91,0,1,0,81,false,stim,true,0,1093.0,0,0,0,71781,task2,358157,false,false,357,image-keyboard-response,32
true,3,2,2,0,false,q,true,false,0.0-2.0-0.10-0.92-3.92,0,1,0,68,false,stim,false,1,1310.7999999970198,0,0,2,71781,task2,360992,false,false,360,image-keyboard-response,33
true,3,0,2,0,true,q,false,false,0.0-2.0-0.10-0.93-3.93,0,1,0,81,false,stim,false,0,416.90000000596046,0,0,1,71781,task2,362917,false,true,363,image-keyboard-response,34
true,4,1,1,1,true,z,false,true,0.0-2.0-0.10-0.94-3.94,0,0,0,90,true,stim,false,0,837.0,0,0,2,71781,task2,365287,false,false,366,image-keyboard-response,1
true,4,0,1,1,false,z,true,true,0.0-2.0-0.10-0.95-3.95,0,0,0,81,false,stim,false,2,697.0,0,0,0,71781,task2,367499,false,true,369,image-keyboard-response,2
true,4,0,1,1,false,z,true,false,0.0-2.0-0.10-0.96-3.96,0,0,0,81,false,stim,false,2,950.1999999880791,0,0,0,71781,task2,369968,false,false,372,image-keyboard-response,3
true,4,2,1,2,true,d,false,true,0.0-2.0-0.10-0.97-3.97,0,0,0,68,false,stim,false,0,1446.0,0,0,1,71781,task2,372933,false,false,375,image-keyboard-response,4
true,4,2,1,2,true,d,false,true,0.0-2.0-0.10-0.98-3.98,0,0,0,68,false,stim,false,0,629.5,0,0,1,71781,task2,375083,false,false,378,image-keyboard-response,5
true,4,0,1,1,false,z,true,false,0.0-2.0-0.11-0.99-3.99,0,0,0,81,false,stim,false,2,981.1000000089407,0,0,0,71781,task2,377584,false,false,381,image-keyboard-response,6
true,4,1,1,1,true,z,false,true,0.0-2.0-0.11-0.100-3.100,0,0,0,90,false,stim,false,2,638.2999999970198,0,0,0,71781,task2,379744,false,false,384,image-keyboard-response,7
true,4,2,1,2,true,d,false,true,0.0-2.0-0.11-0.101-3.101,0,0,0,68,false,stim,false,0,593.3999999910593,0,0,1,71781,task2,381850,false,false,387,image-keyboard-response,8
true,4,1,1,1,true,z,false,true,0.0-2.0-0.11-0.102-3.102,0,0,0,90,false,stim,false,0,703.9000000059605,0,0,2,71781,task2,384079,false,false,390,image-keyboard-response,9
true,4,1,1,1,true,z,false,true,0.0-2.0-0.11-0.103-3.103,0,0,0,90,false,stim,false,0,477.0,0,0,2,71781,task2,386084,false,false,393,image-keyboard-response,10
true,4,2,1,2,true,d,false,true,0.0-2.0-0.11-0.104-3.104,0,0,0,68,false,stim,false,0,1050.300000011921,0,0,1,71781,task2,388659,false,false,396,image-keyboard-response,11
true,4,1,1,1,true,z,false,true,0.0-2.0-0.11-0.105-3.105,0,0,0,90,false,stim,false,0,631.2000000029802,0,0,2,71781,task2,390824,false,false,399,image-keyboard-response,12
true,4,2,1,2,true,d,false,true,0.0-2.0-0.11-0.106-3.106,0,0,0,68,false,stim,false,0,1120.699999988079,0,0,1,71781,task2,393465,false,false,402,image-keyboard-response,13
true,4,1,1,1,true,z,false,false,0.0-2.0-0.11-0.107-3.107,0,0,0,90,false,stim,false,2,924.3000000119209,0,0,0,71781,task2,395919,false,true,405,image-keyboard-response,14
true,4,1,1,1,true,z,false,true,0.0-2.0-0.12-0.108-3.108,0,0,0,90,false,stim,false,0,825.0,0,0,2,71781,task2,398254,false,false,408,image-keyboard-response,15
true,4,1,1,1,true,z,false,true,0.0-2.0-0.12-0.109-3.109,0,0,0,90,false,stim,false,0,705.0,0,0,2,71781,task2,400485,false,false,411,image-keyboard-response,16
true,4,2,1,2,true,d,false,true,0.0-2.0-0.12-0.110-3.110,0,0,0,68,false,stim,false,0,615.0,0,0,1,71781,task2,402629,false,false,414,image-keyboard-response,17
true,4,2,1,2,true,d,false,true,0.0-2.0-0.12-0.111-3.111,0,0,0,68,false,stim,false,0,676.7999999970198,0,0,1,71781,task2,404824,false,false,417,image-keyboard-response,18
true,4,1,1,1,true,z,false,true,0.0-2.0-0.12-0.112-3.112,0,0,0,90,false,stim,false,0,710.9000000059605,0,0,2,71781,task2,407044,false,false,420,image-keyboard-response,19
true,4,2,1,1,false,z,false,false,0.0-2.0-0.12-0.113-3.113,0,0,0,68,false,stim,true,2,1146.4000000059605,0,0,0,71781,task2,409714,false,false,423,image-keyboard-response,20
true,4,1,1,1,true,z,false,true,0.0-2.0-0.12-0.114-3.114,0,0,0,90,false,stim,false,2,1025.0,0,0,0,71781,task2,412259,false,false,426,image-keyboard-response,21
true,4,1,1,1,true,z,false,true,0.0-2.0-0.12-0.115-3.115,0,0,0,90,false,stim,false,2,629.0,0,0,0,71781,task2,414399,false,false,429,image-keyboard-response,22
true,4,2,1,2,true,d,false,true,0.0-2.0-0.12-0.116-3.116,0,0,0,68,false,stim,false,0,644.2999999970198,0,0,1,71781,task2,416564,false,false,432,image-keyboard-response,23
true,4,1,1,1,true,z,false,true,0.0-2.0-0.13-0.117-3.117,0,0,0,90,false,stim,false,0,566.7999999970198,0,0,2,71781,task2,418654,false,false,435,image-keyboard-response,24
true,4,2,1,2,true,d,false,true,0.0-2.0-0.13-0.118-3.118,0,0,0,68,false,stim,false,0,1167.300000011921,0,0,1,71781,task2,421355,false,false,438,image-keyboard-response,25
true,4,1,1,1,true,z,false,false,0.0-2.0-0.13-0.119-3.119,0,0,0,90,false,stim,false,2,565.7000000029802,0,0,0,71781,task2,423455,false,true,441,image-keyboard-response,26
true,4,1,1,1,true,z,false,true,0.0-2.0-0.13-0.120-3.120,0,0,0,90,false,stim,false,0,654.9000000059605,0,0,2,71781,task2,425628,false,false,444,image-keyboard-response,27
true,4,0,1,1,false,z,true,true,0.0-2.0-0.13-0.121-3.121,0,0,0,81,false,stim,false,2,1636.8999999910593,0,0,0,71781,task2,428778,false,true,447,image-keyboard-response,28
true,4,1,1,1,true,z,false,true,0.0-2.0-0.13-0.122-3.122,0,0,0,90,false,stim,false,0,676.0999999940395,0,0,2,71781,task2,430983,false,false,450,image-keyboard-response,29
true,4,0,1,1,false,z,true,false,0.0-2.0-0.13-0.123-3.123,0,0,0,81,false,stim,false,2,599.2000000029802,0,0,0,71781,task2,433108,false,false,453,image-keyboard-response,30
true,4,2,1,2,true,d,false,true,0.0-2.0-0.13-0.124-3.124,0,0,0,68,false,stim,false,0,1105.5,0,0,1,71781,task2,435733,false,false,456,image-keyboard-response,31
true,4,2,1,2,true,d,false,true,0.0-2.0-0.13-0.125-3.125,0,0,0,68,false,stim,false,0,441.5,0,0,1,71781,task2,437688,false,false,459,image-keyboard-response,32
true,4,1,1,1,true,z,false,true,0.0-2.0-0.14-0.126-3.126,0,0,0,90,false,stim,false,0,666.0999999940395,0,1,2,71781,task2,439878,false,false,462,image-keyboard-response,33
true,4,1,1,1,true,z,false,true,0.0-2.0-0.14-0.127-3.127,0,0,0,90,false,stim,false,0,520.3999999910593,0,1,2,71781,task2,441933,false,false,465,image-keyboard-response,34
true,5,2,2,0,false,q,false,false,0.0-2.0-0.14-0.128-3.128,0,0,1,68,true,stim,true,2,914.1999999880791,0,0,1,71781,task2,444362,false,false,468,image-keyboard-response,1
true,5,1,2,1,true,z,false,true,0.0-2.0-0.14-0.129-3.129,0,0,1,90,false,stim,false,1,495.90000000596046,0,1,2,71781,task2,446377,false,false,471,image-keyboard-response,2
true,5,1,2,0,false,q,true,false,0.0-2.0-0.14-0.130-3.130,0,0,1,90,false,stim,false,2,944.8999999910593,0,0,1,71781,task2,448827,false,false,474,image-keyboard-response,3
true,5,0,2,2,false,d,true,false,0.0-2.0-0.14-0.131-3.131,0,0,1,81,false,stim,false,1,868.5,0,0,0,71781,task2,451218,false,false,477,image-keyboard-response,4
true,5,2,2,0,false,q,false,false,0.0-2.0-0.14-0.132-3.132,0,0,1,68,false,stim,true,2,1642.0999999940395,0,0,1,71781,task2,454377,false,false,480,image-keyboard-response,5
true,5,2,2,2,true,d,false,true,0.0-2.0-0.14-0.133-3.133,0,0,1,68,false,stim,false,1,1075.7000000029802,0,0,0,71781,task2,456962,false,false,483,image-keyboard-response,6
true,5,2,2,2,true,d,false,true,0.0-2.0-0.14-0.134-3.134,0,0,1,68,false,stim,false,1,551.0999999940395,0,0,0,71781,task2,459037,false,false,486,image-keyboard-response,7
true,5,0,2,0,true,q,false,true,0.0-2.0-0.15-0.135-3.135,0,0,1,81,false,stim,false,2,570.7999999970198,0,0,1,71781,task2,461126,false,false,489,image-keyboard-response,8
true,5,2,2,2,true,d,false,true,0.0-2.0-0.15-0.136-3.136,0,0,1,68,false,stim,false,1,753.6000000089407,0,0,0,71781,task2,463391,false,false,492,image-keyboard-response,9
true,5,0,2,0,true,q,false,true,0.0-2.0-0.15-0.137-3.137,0,0,1,81,false,stim,false,2,395.90000000596046,0,0,1,71781,task2,465302,false,false,495,image-keyboard-response,10
true,5,1,2,1,true,z,false,true,0.0-2.0-0.15-0.138-3.138,0,0,1,90,false,stim,false,1,532.8999999910593,0,1,2,71781,task2,467356,false,false,498,image-keyboard-response,11
true,5,0,2,0,true,q,false,true,0.0-2.0-0.15-0.139-3.139,0,0,1,81,false,stim,false,2,645.0,0,0,1,71781,task2,469537,false,false,501,image-keyboard-response,12
true,5,2,2,2,true,d,false,true,0.0-2.0-0.15-0.140-3.140,0,0,1,68,false,stim,false,1,508.8999999910593,0,0,0,71781,task2,471566,false,false,504,image-keyboard-response,13
true,5,1,2,1,true,z,false,true,0.0-2.0-0.15-0.141-3.141,0,0,1,90,false,stim,false,1,830.8000000119209,0,1,2,71781,task2,473922,false,false,507,image-keyboard-response,14
true,5,1,2,1,true,z,false,true,0.0-2.0-0.15-0.142-3.142,0,0,1,90,false,stim,false,1,684.0,0,1,2,71781,task2,476125,false,false,510,image-keyboard-response,15
true,5,0,2,2,false,d,true,false,0.0-2.0-0.15-0.143-3.143,0,0,1,81,false,stim,false,1,1620.5999999940395,0,0,0,71781,task2,479280,false,false,513,image-keyboard-response,16
true,5,1,2,1,true,z,false,true,0.0-2.0-0.16-0.144-3.144,0,0,1,90,false,stim,false,1,650.5,0,1,2,71781,task2,481461,false,false,516,image-keyboard-response,17
true,5,1,2,1,true,z,false,true,0.0-2.0-0.16-0.145-3.145,0,0,1,90,false,stim,false,1,575.0,0,1,2,71781,task2,483555,false,false,519,image-keyboard-response,18
true,5,2,2,2,true,d,false,true,0.0-2.0-0.16-0.146-3.146,0,0,1,68,false,stim,false,1,815.2999999970198,0,0,0,71781,task2,485895,false,false,522,image-keyboard-response,19
true,5,2,2,2,true,d,false,true,0.0-2.0-0.16-0.147-3.147,0,0,1,68,false,stim,false,1,682.0999999940395,0,0,0,71781,task2,488095,false,false,525,image-keyboard-response,20
true,5,0,2,0,true,q,false,true,0.0-2.0-0.16-0.148-3.148,0,0,1,81,false,stim,false,2,625.3999999910593,0,0,1,71781,task2,490240,false,false,528,image-keyboard-response,21
true,5,2,2,2,true,d,false,true,0.0-2.0-0.16-0.149-3.149,0,0,1,68,false,stim,false,1,589.5999999940395,0,0,0,71781,task2,492340,false,false,531,image-keyboard-response,22
true,5,0,2,0,true,q,false,true,0.0-2.0-0.16-0.150-3.150,0,0,1,81,false,stim,false,2,613.5,0,0,1,71781,task2,494480,false,false,534,image-keyboard-response,23
true,5,0,2,0,true,q,false,true,0.0-2.0-0.16-0.151-3.151,0,0,1,81,false,stim,false,2,491.19999998807907,0,0,1,71781,task2,496491,false,false,537,image-keyboard-response,24
true,5,1,2,1,true,z,false,true,0.0-2.0-0.16-0.152-3.152,0,0,1,90,false,stim,false,1,562.9000000059605,0,1,2,71781,task2,498564,false,false,540,image-keyboard-response,25
true,5,1,2,1,true,z,false,true,0.0-2.0-0.17-0.153-3.153,0,0,1,90,false,stim,false,1,729.2000000029802,0,1,2,71781,task2,500814,false,false,543,image-keyboard-response,26
true,5,0,2,0,true,q,false,true,0.0-2.0-0.17-0.154-3.154,0,0,1,81,false,stim,false,2,619.2000000029802,0,0,1,71781,task2,502955,false,false,546,image-keyboard-response,27
true,5,2,2,2,true,d,false,true,0.0-2.0-0.17-0.155-3.155,0,0,1,68,false,stim,false,1,772.6000000089407,0,0,0,71781,task2,505244,false,false,549,image-keyboard-response,28
true,5,2,2,2,true,d,false,true,0.0-2.0-0.17-0.156-3.156,0,0,1,68,false,stim,false,1,954.2000000029802,0,0,0,71781,task2,507710,false,false,552,image-keyboard-response,29
true,5,2,2,2,true,d,false,true,0.0-2.0-0.17-0.157-3.157,0,0,1,68,false,stim,false,1,541.2999999970198,0,0,0,71781,task2,509779,false,false,555,image-keyboard-response,30
true,5,0,2,0,true,q,false,true,0.0-2.0-0.17-0.158-3.158,0,0,1,81,false,stim,false,2,643.3999999910593,0,0,1,71781,task2,511935,false,false,558,image-keyboard-response,31
true,5,1,2,1,true,z,false,true,0.0-2.0-0.17-0.159-3.159,0,0,1,90,false,stim,false,1,793.0999999940395,0,0,2,71781,task2,514250,false,false,561,image-keyboard-response,32
true,5,1,2,1,true,z,false,true,0.0-2.0-0.17-0.160-3.160,0,0,1,90,false,stim,false,1,625.4000000059605,0,0,2,71781,task2,516400,false,false,564,image-keyboard-response,33
true,6,0,1,1,false,z,false,false,0.0-2.0-0.17-0.161-3.161,0,0,0,81,true,stim,true,0,1089.5999999940395,0,0,1,71781,task2,519015,false,false,567,image-keyboard-response,1
true,6,1,1,2,false,d,false,false,0.0-2.0-0.18-0.162-3.162,0,0,0,90,false,stim,true,1,522.2000000029802,0,0,2,71781,task2,521050,false,false,570,image-keyboard-response,2
true,6,2,1,1,false,z,true,false,0.0-2.0-0.18-0.163-3.163,0,0,0,68,false,stim,false,0,1393.8999999910593,0,0,1,71781,task2,523970,false,false,573,image-keyboard-response,3
true,6,2,1,1,false,z,false,false,0.0-2.0-0.18-0.164-3.164,0,0,0,68,false,stim,true,2,791.7999999970198,0,0,0,71781,task2,526286,false,false,576,image-keyboard-response,4
true,6,0,1,2,false,d,true,false,0.0-2.0-0.18-0.165-3.165,0,0,0,81,false,stim,false,1,1143.0,0,0,2,71781,task2,528955,false,false,579,image-keyboard-response,5
true,6,1,1,1,true,z,false,true,0.0-2.0-0.18-0.166-3.166,0,0,0,90,false,stim,false,2,1106.2000000029802,0,0,0,71781,task2,531586,false,false,582,image-keyboard-response,6
true,6,1,1,1,true,z,false,true,0.0-2.0-0.18-0.167-3.167,0,0,0,90,false,stim,false,2,496.5,0,0,0,71781,task2,533596,false,false,585,image-keyboard-response,7
true,6,2,1,1,false,z,true,true,0.0-2.0-0.18-0.168-3.168,0,0,0,68,false,stim,false,0,2550.9000000059605,0,0,1,71781,task2,537665,false,true,588,image-keyboard-response,8
true,6,0,1,2,false,d,true,false,0.0-2.0-0.18-0.169-3.169,0,0,0,81,false,stim,false,1,1507.2999999970198,0,0,2,71781,task2,540691,false,false,591,image-keyboard-response,9
true,6,2,1,1,false,z,true,false,0.0-2.0-0.18-0.170-3.170,0,0,0,68,false,stim,false,0,853.5999999940395,0,0,1,71781,task2,543056,false,false,594,image-keyboard-response,10
true,6,1,1,1,true,z,false,true,0.0-2.0-0.19-0.171-3.171,0,0,0,90,false,stim,false,0,906.5999999940395,0,0,1,71781,task2,545492,false,false,597,image-keyboard-response,11
true,6,1,1,1,true,z,false,true,0.0-2.0-0.19-0.172-3.172,0,0,0,90,false,stim,false,2,498.8999999910593,0,0,0,71781,task2,547502,false,false,600,image-keyboard-response,12
true,6,1,1,1,true,z,false,true,0.0-2.0-0.19-0.173-3.173,0,0,0,90,false,stim,false,2,445.70000000298023,0,0,0,71781,task2,549467,false,false,603,image-keyboard-response,13
true,6,2,1,2,true,d,false,true,0.0-2.0-0.19-0.174-3.174,0,0,0,68,false,stim,false,1,1158.199999988079,0,0,2,71781,task2,552146,false,false,606,image-keyboard-response,14
true,6,1,1,1,true,z,false,true,0.0-2.0-0.19-0.175-3.175,0,0,0,90,false,stim,false,0,538.5999999940395,0,0,1,71781,task2,554211,false,false,609,image-keyboard-response,15
true,6,2,1,2,true,d,false,true,0.0-2.0-0.19-0.176-3.176,0,0,0,68,false,stim,false,1,737.8999999910593,0,0,2,71781,task2,556462,false,false,612,image-keyboard-response,16
true,6,1,1,1,true,z,false,true,0.0-2.0-0.19-0.177-3.177,0,0,0,90,false,stim,false,2,472.70000000298023,0,0,0,71781,task2,558447,false,false,615,image-keyboard-response,17
true,6,2,1,2,true,d,false,true,0.0-2.0-0.19-0.178-3.178,0,0,0,68,false,stim,false,1,587.0999999940395,0,0,2,71781,task2,560546,false,false,618,image-keyboard-response,18
true,6,1,1,1,true,z,false,true,0.0-2.0-0.19-0.179-3.179,0,0,0,90,false,stim,false,0,612.5,0,0,1,71781,task2,562686,false,false,621,image-keyboard-response,19
true,6,1,1,1,true,z,false,true,0.0-2.0-0.20-0.180-3.180,0,0,0,90,false,stim,false,2,967.2999999970198,0,0,0,71781,task2,565177,false,false,624,image-keyboard-response,20
true,6,1,1,1,true,z,false,true,0.0-2.0-0.20-0.181-3.181,0,0,0,90,false,stim,false,0,442.29999999701977,0,0,1,71781,task2,567137,false,false,627,image-keyboard-response,21
true,6,1,1,1,true,z,false,true,0.0-2.0-0.20-0.182-3.182,0,0,0,90,false,stim,false,0,574.4000000059605,0,0,1,71781,task2,569237,false,false,630,image-keyboard-response,22
true,6,2,1,2,true,d,false,true,0.0-2.0-0.20-0.183-3.183,0,0,0,68,false,stim,false,1,960.4000000059605,0,0,2,71781,task2,571707,false,false,633,image-keyboard-response,23
true,6,1,1,1,true,z,false,true,0.0-2.0-0.20-0.184-3.184,0,0,0,90,false,stim,false,2,736.2000000029802,0,0,0,71781,task2,573967,false,false,636,image-keyboard-response,24
true,6,2,1,2,true,d,false,true,0.0-2.0-0.20-0.185-3.185,0,0,0,68,false,stim,false,1,820.5,0,0,2,71781,task2,576317,false,false,639,image-keyboard-response,25
true,6,1,1,1,true,z,false,true,0.0-2.0-0.20-0.186-3.186,0,0,0,90,false,stim,false,0,699.7000000029802,0,0,1,71781,task2,578547,false,false,642,image-keyboard-response,26
true,6,1,1,1,true,z,false,true,0.0-2.0-0.20-0.187-3.187,0,0,0,90,false,stim,false,2,959.9000000059605,0,0,0,71781,task2,581027,false,false,645,image-keyboard-response,27
true,6,2,1,2,true,d,false,true,0.0-2.0-0.20-0.188-3.188,0,0,0,68,false,stim,false,1,667.7000000029802,0,0,2,71781,task2,583217,false,false,648,image-keyboard-response,28
true,6,2,1,2,true,d,false,true,0.0-2.0-0.21-0.189-3.189,0,0,0,68,false,stim,false,1,748.3000000119209,0,0,2,71781,task2,585498,false,false,651,image-keyboard-response,29
true,6,2,1,2,true,d,false,true,0.0-2.0-0.21-0.190-3.190,0,0,0,68,false,stim,false,1,590.0999999940395,0,0,2,71781,task2,587608,false,false,654,image-keyboard-response,30
true,6,1,1,1,true,z,false,true,0.0-2.0-0.21-0.191-3.191,0,0,0,90,false,stim,false,2,537.0,0,0,0,71781,task2,589673,false,false,657,image-keyboard-response,31
true,6,1,1,1,true,z,false,true,0.0-2.0-0.21-0.192-3.192,0,0,0,90,false,stim,false,0,500.6000000089407,0,1,1,71781,task2,591688,false,false,660,image-keyboard-response,32
true,6,1,1,1,true,z,false,true,0.0-2.0-0.21-0.193-3.193,0,0,0,90,false,stim,false,2,684.8999999910593,0,0,0,71781,task2,593907,false,false,663,image-keyboard-response,33
true,6,1,1,1,true,z,false,true,0.0-2.0-0.21-0.194-3.194,0,0,0,90,false,stim,false,0,630.3999999910593,0,1,1,71781,task2,596068,false,false,666,image-keyboard-response,34
true,7,2,2,1,false,z,false,false,0.0-2.0-0.21-0.195-3.195,0,1,0,68,true,stim,true,2,599.1999999880791,0,0,2,71781,task2,598188,false,false,669,image-keyboard-response,1
true,7,1,2,2,false,d,false,false,0.0-2.0-0.21-0.196-3.196,0,1,0,90,false,stim,true,1,540.3999999910593,0,0,0,71781,task2,600248,false,false,672,image-keyboard-response,2
true,7,1,2,1,true,z,false,true,0.0-2.0-0.21-0.197-3.197,0,1,0,90,false,stim,false,1,453.40000000596046,0,1,1,71781,task2,602213,false,false,675,image-keyboard-response,3
true,7,0,2,1,false,z,true,false,0.0-2.0-0.22-0.198-3.198,0,1,0,81,false,stim,false,2,677.2000000029802,0,0,2,71781,task2,604418,false,false,678,image-keyboard-response,4
true,7,1,2,1,true,z,false,true,0.0-2.0-0.22-0.199-3.199,0,1,0,90,false,stim,false,2,2055.800000011921,0,0,2,71781,task2,607998,false,false,681,image-keyboard-response,5
true,7,1,2,1,true,z,false,true,0.0-2.0-0.22-0.200-3.200,0,1,0,90,false,stim,false,1,581.2000000029802,0,1,1,71781,task2,610093,false,false,684,image-keyboard-response,6
true,7,1,2,1,true,z,false,true,0.0-2.0-0.22-0.201-3.201,0,1,0,90,false,stim,false,1,951.2000000029802,0,1,1,71781,task2,612564,false,false,687,image-keyboard-response,7
true,7,1,2,1,true,z,false,true,0.0-2.0-0.22-0.202-3.202,0,1,0,90,false,stim,false,2,454.20000000298023,0,0,2,71781,task2,614534,false,false,690,image-keyboard-response,8
true,7,2,2,2,true,d,false,true,0.0-2.0-0.22-0.203-3.203,0,1,0,68,false,stim,false,1,635.5999999940395,0,0,0,71781,task2,616698,false,false,693,image-keyboard-response,9
true,7,1,2,1,true,z,false,true,0.0-2.0-0.22-0.204-3.204,0,1,0,90,false,stim,false,1,668.8999999910593,0,1,1,71781,task2,618899,false,false,696,image-keyboard-response,10
true,7,2,2,2,true,d,false,true,0.0-2.0-0.22-0.205-3.205,0,1,0,68,false,stim,false,1,837.5,0,0,0,71781,task2,621269,false,false,699,image-keyboard-response,11
true,7,2,2,2,true,d,false,true,0.0-2.0-0.22-0.206-3.206,0,1,0,68,false,stim,false,1,768.3999999910593,0,0,0,71781,task2,623569,false,false,702,image-keyboard-response,12
true,7,2,2,2,true,d,false,true,0.0-2.0-0.23-0.207-3.207,0,1,0,68,false,stim,false,1,550.5,0,0,0,71781,task2,625634,false,false,705,image-keyboard-response,13
true,7,1,2,1,true,z,false,true,0.0-2.0-0.23-0.208-3.208,0,1,0,90,false,stim,false,2,598.2000000029802,0,0,2,71781,task2,627750,false,false,708,image-keyboard-response,14
true,7,1,2,1,true,z,false,true,0.0-2.0-0.23-0.209-3.209,0,1,0,90,false,stim,false,1,509.40000000596046,0,1,1,71781,task2,629794,false,false,711,image-keyboard-response,15
true,7,1,2,1,true,z,false,true,0.0-2.0-0.23-0.210-3.210,0,1,0,90,false,stim,false,2,616.0,0,0,2,71781,task2,631934,false,false,714,image-keyboard-response,16
true,7,1,2,1,true,z,false,true,0.0-2.0-0.23-0.211-3.211,0,1,0,90,false,stim,false,1,1250.0999999940395,0,1,1,71781,task2,634704,false,false,717,image-keyboard-response,17
true,7,1,2,1,true,z,false,true,0.0-2.0-0.23-0.212-3.212,0,1,0,90,false,stim,false,2,737.2999999970198,0,0,2,71781,task2,636975,false,false,720,image-keyboard-response,18
true,7,1,2,1,true,z,false,true,0.0-2.0-0.23-0.213-3.213,0,1,0,90,false,stim,false,1,581.0,0,1,1,71781,task2,639070,false,false,723,image-keyboard-response,19
true,7,2,2,2,true,d,false,true,0.0-2.0-0.23-0.214-3.214,0,1,0,68,false,stim,false,1,555.1999999880791,0,0,0,71781,task2,641145,false,false,726,image-keyboard-response,20
true,7,2,2,2,true,d,false,false,0.0-2.0-0.23-0.215-3.215,0,1,0,68,false,stim,false,1,552.7000000029802,0,0,0,71781,task2,643210,false,true,729,image-keyboard-response,21
true,7,1,2,1,true,z,false,false,0.0-2.0-0.24-0.216-3.216,0,1,0,90,false,stim,false,1,511.09999999403954,0,1,1,71781,task2,645235,false,true,732,image-keyboard-response,22
true,7,1,2,1,true,z,false,true,0.0-2.0-0.24-0.217-3.217,0,1,0,90,false,stim,false,2,498.0,0,0,2,71781,task2,647255,false,false,735,image-keyboard-response,23
true,7,1,2,1,true,z,false,false,0.0-2.0-0.24-0.218-3.218,0,1,0,90,false,stim,false,2,578.7999999970198,0,0,2,71781,task2,649371,false,true,738,image-keyboard-response,24
true,7,0,2,1,false,z,true,false,0.0-2.0-0.24-0.219-3.219,0,1,0,81,false,stim,false,2,868.5,0,0,2,71781,task2,651761,false,false,741,image-keyboard-response,25
true,7,0,2,2,false,d,true,true,0.0-2.0-0.24-0.220-3.220,0,1,0,81,false,stim,false,1,1078.5,0,0,0,71781,task2,654357,false,true,744,image-keyboard-response,26
true,7,0,2,2,false,d,true,false,0.0-2.0-0.24-0.221-3.221,0,1,0,81,false,stim,false,1,740.4000000059605,0,0,0,71781,task2,656616,false,false,747,image-keyboard-response,27
true,7,0,2,2,false,d,true,false,0.0-2.0-0.24-0.222-3.222,0,1,0,81,false,stim,false,1,665.0,0,0,0,71781,task2,658811,false,false,750,image-keyboard-response,28
true,7,2,2,1,false,z,true,false,0.0-2.0-0.24-0.223-3.223,0,1,0,68,false,stim,false,1,1256.9000000059605,0,1,1,71781,task2,661587,false,false,753,image-keyboard-response,29
true,7,1,2,1,true,z,false,true,0.0-2.0-0.24-0.224-3.224,0,1,0,90,false,stim,false,1,656.1999999880791,0,0,1,71781,task2,663757,false,false,756,image-keyboard-response,30
true,7,1,2,1,true,z,false,true,0.0-2.0-0.25-0.225-3.225,0,1,0,90,false,stim,false,1,521.4000000059605,0,0,1,71781,task2,665780,false,false,759,image-keyboard-response,31
true,7,1,2,1,true,z,false,true,0.0-2.0-0.25-0.226-3.226,0,1,0,90,false,stim,false,2,981.8000000119209,0,0,2,71781,task2,668275,false,false,762,image-keyboard-response,32
true,7,1,2,1,true,z,false,true,0.0-2.0-0.25-0.227-3.227,0,1,0,90,false,stim,false,1,619.5,0,0,1,71781,task2,670430,false,false,765,image-keyboard-response,33
true,7,1,2,1,true,z,false,true,0.0-2.0-0.25-0.228-3.228,0,1,0,90,false,stim,false,1,396.0,0,0,1,71781,task2,672341,false,false,768,image-keyboard-response,34
true,8,1,2,2,false,d,false,false,0.0-2.0-0.25-0.229-3.229,1,0,0,90,true,stim,true,1,671.0,0,0,2,71781,task2,674531,false,false,771,image-keyboard-response,1
true,8,2,2,2,true,d,false,true,0.0-2.0-0.25-0.230-3.230,1,0,0,68,false,stim,false,2,2219.300000011921,0,1,0,71781,task2,678281,false,false,774,image-keyboard-response,2
true,8,2,2,2,true,d,false,true,0.0-2.0-0.25-0.231-3.231,1,0,0,68,false,stim,false,2,403.40000000596046,0,1,0,71781,task2,680216,false,false,777,image-keyboard-response,3
true,8,1,2,2,false,d,false,false,0.0-2.0-0.25-0.232-3.232,1,0,0,90,false,stim,true,1,539.0,0,0,2,71781,task2,682286,false,false,780,image-keyboard-response,4
true,8,2,2,2,true,d,false,true,0.0-2.0-0.25-0.233-3.233,1,0,0,68,false,stim,false,2,882.0,0,1,0,71781,task2,684681,false,false,783,image-keyboard-response,5
true,8,2,2,2,true,d,false,false,0.0-2.0-0.26-0.234-3.234,1,0,0,68,false,stim,false,2,471.0,0,1,0,71781,task2,686672,false,true,786,image-keyboard-response,6
true,8,0,2,2,false,d,true,true,0.0-2.0-0.26-0.235-3.235,1,0,0,81,false,stim,false,1,963.0,0,0,2,71781,task2,689147,false,true,789,image-keyboard-response,7
true,8,1,2,2,false,d,true,false,0.0-2.0-0.26-0.236-3.236,1,0,0,90,false,stim,false,2,866.0999999940395,0,1,0,71781,task2,691533,false,false,792,image-keyboard-response,8
true,8,2,2,0,false,q,true,false,0.0-2.0-0.26-0.237-3.237,1,0,0,68,false,stim,false,1,736.5,0,0,1,71781,task2,693788,false,false,795,image-keyboard-response,9
true,8,0,2,2,false,d,true,false,0.0-2.0-0.26-0.238-3.238,1,0,0,81,false,stim,false,1,673.0,0,0,2,71781,task2,695992,false,false,798,image-keyboard-response,10
true,8,0,2,2,false,d,true,false,0.0-2.0-0.26-0.239-3.239,1,0,0,81,false,stim,false,1,646.0,0,0,2,71781,task2,698167,false,false,801,image-keyboard-response,11
true,8,0,2,0,true,q,false,true,0.0-2.0-0.26-0.240-3.240,1,0,0,81,false,stim,false,1,1040.6000000089407,0,0,1,71781,task2,700729,false,false,804,image-keyboard-response,12
true,8,1,2,2,false,d,true,false,0.0-2.0-0.26-0.241-3.241,1,0,0,90,false,stim,false,2,548.2999999970198,0,1,0,71781,task2,702788,false,false,807,image-keyboard-response,13
true,8,0,2,0,true,q,false,true,0.0-2.0-0.26-0.242-3.242,1,0,0,81,false,stim,false,1,877.0999999940395,0,0,1,71781,task2,705183,false,false,810,image-keyboard-response,14
true,8,0,2,0,true,q,false,true,0.0-2.0-0.27-0.243-3.243,1,0,0,81,false,stim,false,1,492.0,0,0,1,71781,task2,707199,false,false,813,image-keyboard-response,15
true,8,0,2,2,false,d,true,false,0.0-2.0-0.27-0.244-3.244,1,0,0,81,false,stim,false,2,505.29999999701977,0,1,0,71781,task2,709214,false,false,816,image-keyboard-response,16
true,8,2,2,2,true,d,false,true,0.0-2.0-0.27-0.245-3.245,1,0,0,68,false,stim,false,2,588.5,0,1,0,71781,task2,711329,false,false,819,image-keyboard-response,17
true,8,0,2,0,true,q,false,true,0.0-2.0-0.27-0.246-3.246,1,0,0,81,false,stim,false,1,699.3999999910593,0,0,1,71781,task2,713559,false,false,822,image-keyboard-response,18
true,8,1,2,2,false,d,false,false,0.0-2.0-0.27-0.247-3.247,1,0,0,90,false,stim,true,1,1362.199999988079,0,0,2,71781,task2,716455,false,false,825,image-keyboard-response,19
true,8,2,2,2,true,d,false,true,0.0-2.0-0.27-0.248-3.248,1,0,0,68,false,stim,false,1,1116.2000000029802,0,0,2,71781,task2,719094,false,false,828,image-keyboard-response,20
true,8,2,2,2,true,d,false,true,0.0-2.0-0.27-0.249-3.249,1,0,0,68,false,stim,false,1,716.7000000029802,0,0,2,71781,task2,721330,false,false,831,image-keyboard-response,21
true,8,2,2,2,true,d,false,true,0.0-2.0-0.27-0.250-3.250,1,0,0,68,false,stim,false,2,748.7000000029802,0,1,0,71781,task2,723595,false,false,834,image-keyboard-response,22
true,8,0,2,0,true,q,false,true,0.0-2.0-0.27-0.251-3.251,1,0,0,81,false,stim,false,1,846.4000000059605,0,0,1,71781,task2,725964,false,false,837,image-keyboard-response,23
true,8,2,2,2,true,d,false,true,0.0-2.0-0.28-0.252-3.252,1,0,0,68,false,stim,false,1,989.1999999880791,0,0,2,71781,task2,728476,false,false,840,image-keyboard-response,24
true,8,0,2,0,true,q,false,true,0.0-2.0-0.28-0.253-3.253,1,0,0,81,false,stim,false,1,948.0,0,0,1,71781,task2,730935,false,false,843,image-keyboard-response,25
true,8,2,2,2,true,d,false,true,0.0-2.0-0.28-0.254-3.254,1,0,0,68,false,stim,false,2,639.9000000059605,0,1,0,71781,task2,733095,false,false,846,image-keyboard-response,26
true,8,0,2,0,true,q,false,true,0.0-2.0-0.28-0.255-3.255,1,0,0,81,false,stim,false,1,583.7000000029802,0,0,1,71781,task2,735190,false,false,849,image-keyboard-response,27
true,8,2,2,2,true,d,false,true,0.0-2.0-0.28-0.256-3.256,1,0,0,68,false,stim,false,1,618.6000000089407,0,0,2,71781,task2,737340,false,false,852,image-keyboard-response,28
true,8,2,2,2,true,d,false,true,0.0-2.0-0.28-0.257-3.257,1,0,0,68,false,stim,false,2,1522.0,0,1,0,71781,task2,740396,false,false,855,image-keyboard-response,29
true,8,2,2,2,true,d,false,true,0.0-2.0-0.28-0.258-3.258,1,0,0,68,false,stim,false,2,465.90000000596046,0,0,0,71781,task2,742391,false,false,858,image-keyboard-response,30
true,8,0,2,0,true,q,false,true,0.0-2.0-0.28-0.259-3.259,1,0,0,81,false,stim,false,1,612.0999999940395,0,1,1,71781,task2,744537,false,false,861,image-keyboard-response,31
true,8,2,2,2,true,d,false,true,0.0-2.0-0.28-0.260-3.260,1,0,0,68,false,stim,false,1,667.4000000059605,0,0,2,71781,task2,746727,false,false,864,image-keyboard-response,32
true,8,2,2,2,true,d,false,true,0.0-2.0-0.29-0.261-3.261,1,0,0,68,false,stim,false,1,546.7999999970198,0,0,2,71781,task2,748806,false,false,867,image-keyboard-response,33
true,8,0,2,0,true,q,false,true,0.0-2.0-0.29-0.262-3.262,1,0,0,81,false,stim,false,1,1324.5,0,1,1,71781,task2,751637,false,false,870,image-keyboard-response,34
true,9,0,2,0,true,q,false,true,0.0-2.0-0.29-0.263-3.263,0,1,0,81,true,stim,false,0,580.2000000029802,0,1,1,71781,task2,753727,false,false,873,image-keyboard-response,1
true,9,2,2,1,false,z,false,false,0.0-2.0-0.29-0.264-3.264,0,1,0,68,false,stim,true,2,1111.2999999970198,0,0,0,71781,task2,756358,false,false,876,image-keyboard-response,2
true,9,2,2,0,false,q,false,false,0.0-2.0-0.29-0.265-3.265,0,1,0,68,false,stim,true,2,827.4000000059605,0,0,2,71781,task2,758709,false,false,879,image-keyboard-response,3
true,9,0,2,0,true,q,false,true,0.0-2.0-0.29-0.266-3.266,0,1,0,81,false,stim,false,0,510.5,0,1,1,71781,task2,760743,false,false,882,image-keyboard-response,4
true,9,1,2,0,false,q,true,false,0.0-2.0-0.29-0.267-3.267,0,1,0,90,false,stim,false,2,1224.1000000089407,0,0,2,71781,task2,763490,false,false,885,image-keyboard-response,5
true,9,1,2,1,true,z,false,true,0.0-2.0-0.29-0.268-3.268,0,1,0,90,false,stim,false,2,969.5,0,0,0,71781,task2,765984,false,false,888,image-keyboard-response,6
true,9,1,2,1,true,z,false,true,0.0-2.0-0.29-0.269-3.269,0,1,0,90,false,stim,false,2,727.6000000089407,0,0,0,71781,task2,768245,false,false,891,image-keyboard-response,7
true,9,1,2,1,true,z,false,true,0.0-2.0-0.30-0.270-3.270,0,1,0,90,false,stim,false,2,636.9000000059605,0,0,0,71781,task2,770405,false,false,894,image-keyboard-response,8
true,9,0,2,0,true,q,false,true,0.0-2.0-0.30-0.271-3.271,0,1,0,81,false,stim,false,0,584.7000000029802,0,1,1,71781,task2,772521,false,false,897,image-keyboard-response,9
true,9,0,2,0,true,q,false,true,0.0-2.0-0.30-0.272-3.272,0,1,0,81,false,stim,false,0,837.8999999910593,0,1,1,71781,task2,774876,false,false,900,image-keyboard-response,10
true,9,1,2,1,true,z,false,true,0.0-2.0-0.30-0.273-3.273,0,1,0,90,false,stim,false,2,816.0,0,0,0,71781,task2,777221,false,false,903,image-keyboard-response,11
true,9,0,2,0,true,q,false,true,0.0-2.0-0.30-0.274-3.274,0,1,0,81,false,stim,false,2,675.8000000119209,0,0,2,71781,task2,779416,false,false,906,image-keyboard-response,12
true,9,0,2,0,true,q,false,true,0.0-2.0-0.30-0.275-3.275,0,1,0,81,false,stim,false,2,588.0,0,0,2,71781,task2,781528,false,false,909,image-keyboard-response,13
true,9,1,2,1,true,z,false,true,0.0-2.0-0.30-0.276-3.276,0,1,0,90,false,stim,false,2,535.2999999970198,0,0,0,71781,task2,783577,false,false,912,image-keyboard-response,14
true,9,0,2,0,true,q,false,false,0.0-2.0-0.30-0.277-3.277,0,1,0,81,false,stim,false,0,410.79999999701977,0,1,1,71781,task2,785518,false,true,915,image-keyboard-response,15
true,9,0,2,0,true,q,false,true,0.0-2.0-0.30-0.278-3.278,0,1,0,81,false,stim,false,2,1031.2999999970198,0,0,2,71781,task2,788076,false,false,918,image-keyboard-response,16
true,9,2,2,0,false,q,true,false,0.0-2.0-0.31-0.279-3.279,0,1,0,68,false,stim,false,0,680.5999999940395,0,1,1,71781,task2,790276,false,false,921,image-keyboard-response,17
true,9,0,2,0,true,q,false,true,0.0-2.0-0.31-0.280-3.280,0,1,0,81,false,stim,false,2,691.7999999970198,0,0,2,71781,task2,792488,false,false,924,image-keyboard-response,18
true,9,1,2,0,false,q,true,false,0.0-2.0-0.31-0.281-3.281,0,1,0,90,false,stim,false,0,967.6999999880791,0,1,1,71781,task2,794982,false,false,927,image-keyboard-response,19
true,9,0,2,0,true,q,false,true,0.0-2.0-0.31-0.282-3.282,0,1,0,81,false,stim,false,0,863.0,0,1,1,71781,task2,797362,false,false,930,image-keyboard-response,20
true,9,1,2,1,true,z,false,false,0.0-2.0-0.31-0.283-3.283,0,1,0,90,false,stim,false,2,880.4000000059605,0,0,0,71781,task2,799748,false,true,933,image-keyboard-response,21
true,9,2,2,1,false,z,false,false,0.0-2.0-0.31-0.284-3.284,0,1,0,68,false,stim,true,2,877.3000000119209,0,0,0,71781,task2,802144,false,false,936,image-keyboard-response,22
true,9,0,2,0,true,q,false,true,0.0-2.0-0.31-0.285-3.285,0,1,0,81,false,stim,false,2,650.2999999970198,0,0,2,71781,task2,804319,false,false,939,image-keyboard-response,23
true,9,0,2,1,false,z,true,false,0.0-2.0-0.31-0.286-3.286,0,1,0,81,false,stim,false,2,633.6000000089407,0,0,0,71781,task2,806485,false,false,942,image-keyboard-response,24
true,9,0,2,0,true,q,false,true,0.0-2.0-0.31-0.287-3.287,0,1,0,81,false,stim,false,2,685.4000000059605,0,0,2,71781,task2,808690,false,false,945,image-keyboard-response,25
true,9,1,2,1,true,z,false,true,0.0-2.0-0.32-0.288-3.288,0,1,0,90,false,stim,false,2,755.2999999970198,0,0,0,71781,task2,810976,false,false,948,image-keyboard-response,26
true,9,0,2,0,true,q,false,true,0.0-2.0-0.32-0.289-3.289,0,1,0,81,false,stim,false,0,1013.3999999910593,0,1,1,71781,task2,813517,false,false,951,image-keyboard-response,27
true,9,1,2,1,true,z,false,true,0.0-2.0-0.32-0.290-3.290,0,1,0,90,false,stim,false,2,893.1000000089407,0,0,0,71781,task2,815932,false,false,954,image-keyboard-response,28
true,9,1,2,1,true,z,false,true,0.0-2.0-0.32-0.291-3.291,0,1,0,90,false,stim,false,2,841.2999999970198,0,0,0,71781,task2,818282,false,false,957,image-keyboard-response,29
true,9,0,2,0,true,q,false,true,0.0-2.0-0.32-0.292-3.292,0,1,0,81,false,stim,false,2,499.79999999701977,0,0,2,71781,task2,820307,false,false,960,image-keyboard-response,30
true,9,1,2,0,false,q,true,false,0.0-2.0-0.32-0.293-3.293,0,1,0,90,false,stim,false,0,826.6999999880791,0,0,1,71781,task2,822653,false,false,963,image-keyboard-response,31
true,9,0,2,0,true,q,false,false,0.0-2.0-0.32-0.294-3.294,0,1,0,81,false,stim,false,2,599.5,0,0,2,71781,task2,824774,false,true,966,image-keyboard-response,32
true,10,0,1,1,false,z,false,false,0.0-2.0-0.32-0.295-3.295,0,0,0,81,true,stim,true,0,656.0999999940395,0,0,1,71781,task2,826949,false,false,969,image-keyboard-response,1
true,10,1,1,1,true,z,false,true,0.0-2.0-0.32-0.296-3.296,0,0,0,90,false,stim,false,0,1247.0,0,0,2,71781,task2,829725,false,false,972,image-keyboard-response,2
true,10,1,1,1,true,z,false,true,0.0-2.0-0.33-0.297-3.297,0,0,0,90,false,stim,false,0,576.2999999970198,0,0,2,71781,task2,831820,false,false,975,image-keyboard-response,3
true,10,1,1,0,false,q,false,false,0.0-2.0-0.33-0.298-3.298,0,0,0,90,false,stim,true,1,509.59999999403954,0,0,0,71781,task2,833855,false,false,978,image-keyboard-response,4
true,10,1,1,1,true,z,false,true,0.0-2.0-0.33-0.299-3.299,0,0,0,90,false,stim,false,0,636.0999999940395,0,0,2,71781,task2,836015,false,false,981,image-keyboard-response,5
true,10,2,1,1,false,z,true,false,0.0-2.0-0.33-0.300-3.300,0,0,0,68,false,stim,false,0,749.5999999940395,0,0,1,71781,task2,838296,false,false,984,image-keyboard-response,6
true,10,0,1,0,true,q,false,true,0.0-2.0-0.33-0.301-3.301,0,0,0,81,false,stim,false,1,1717.2000000029802,0,0,0,71781,task2,841532,false,false,987,image-keyboard-response,7
true,10,1,1,1,true,z,false,false,0.0-2.0-0.33-0.302-3.302,0,0,0,90,false,stim,false,0,817.7000000029802,0,0,2,71781,task2,843866,false,true,990,image-keyboard-response,8
true,10,1,1,1,true,z,false,true,0.0-2.0-0.33-0.303-3.303,0,0,0,90,false,stim,false,0,1256.9000000059605,0,0,1,71781,task2,846649,false,false,993,image-keyboard-response,9
true,10,0,1,0,true,q,false,true,0.0-2.0-0.33-0.304-3.304,0,0,0,81,false,stim,false,1,523.2000000029802,0,0,0,71781,task2,848700,false,false,996,image-keyboard-response,10
true,10,1,1,1,true,z,false,true,0.0-2.0-0.33-0.305-3.305,0,0,0,90,false,stim,false,0,917.8000000119209,0,0,1,71781,task2,851145,false,false,999,image-keyboard-response,11
true,10,1,1,1,true,z,false,true,0.0-2.0-0.34-0.306-3.306,0,0,0,90,false,stim,false,0,565.7999999970198,0,0,1,71781,task2,853246,false,false,1002,image-keyboard-response,12
true,10,1,1,1,true,z,false,true,0.0-2.0-0.34-0.307-3.307,0,0,0,90,false,stim,false,0,1442.5999999940395,0,0,2,71781,task2,856206,false,false,1005,image-keyboard-response,13
true,10,1,1,1,true,z,false,false,0.0-2.0-0.34-0.308-3.308,0,0,0,90,false,stim,false,0,501.0,0,0,2,71781,task2,858232,false,true,1008,image-keyboard-response,14
true,10,1,1,1,true,z,false,true,0.0-2.0-0.34-0.309-3.309,0,0,0,90,false,stim,false,0,609.0,0,0,2,71781,task2,860357,false,false,1011,image-keyboard-response,15
true,10,0,1,0,true,q,false,true,0.0-2.0-0.34-0.310-3.310,0,0,0,81,false,stim,false,1,1070.1000000089407,0,0,0,71781,task2,862952,false,false,1014,image-keyboard-response,16
true,10,1,1,1,true,z,false,true,0.0-2.0-0.34-0.311-3.311,0,0,0,90,false,stim,false,0,690.2999999970198,0,0,1,71781,task2,865158,false,false,1017,image-keyboard-response,17
true,10,1,1,1,true,z,false,true,0.0-2.0-0.34-0.312-3.312,0,0,0,90,false,stim,false,0,628.9000000059605,0,0,1,71781,task2,867313,false,false,1020,image-keyboard-response,18
true,10,0,1,0,true,q,false,true,0.0-2.0-0.34-0.313-3.313,0,0,0,81,false,stim,false,1,1129.0,0,0,0,71781,task2,869964,false,false,1023,image-keyboard-response,19
true,10,0,1,0,true,q,false,true,0.0-2.0-0.34-0.314-3.314,0,0,0,81,false,stim,false,1,657.1999999880791,0,0,0,71781,task2,872144,false,false,1026,image-keyboard-response,20
true,10,0,1,0,true,q,false,true,0.0-2.0-0.35-0.315-3.315,0,0,0,81,false,stim,false,1,1069.4000000059605,0,0,0,71781,task2,874724,false,false,1029,image-keyboard-response,21
true,10,1,1,1,true,z,false,true,0.0-2.0-0.35-0.316-3.316,0,0,0,90,false,stim,false,0,950.8000000119209,0,0,2,71781,task2,877204,false,false,1032,image-keyboard-response,22
true,10,1,1,1,true,z,false,true,0.0-2.0-0.35-0.317-3.317,0,0,0,90,false,stim,false,0,545.5,0,0,2,71781,task2,879285,false,false,1035,image-keyboard-response,23
true,10,0,1,1,false,z,false,false,0.0-2.0-0.35-0.318-3.318,0,0,0,81,false,stim,true,0,1089.2000000029802,0,0,1,71781,task2,881895,false,false,1038,image-keyboard-response,24
true,10,1,1,0,false,q,false,false,0.0-2.0-0.35-0.319-3.319,0,0,0,90,false,stim,true,1,571.7999999970198,0,0,0,71781,task2,883996,false,false,1041,image-keyboard-response,25
true,10,1,1,1,true,z,false,true,0.0-2.0-0.35-0.320-3.320,0,0,0,90,false,stim,false,0,1207.2000000029802,0,0,1,71781,task2,886731,false,false,1044,image-keyboard-response,26
true,10,1,1,1,true,z,false,true,0.0-2.0-0.35-0.321-3.321,0,0,0,90,false,stim,false,0,567.0999999940395,0,0,1,71781,task2,888826,false,false,1047,image-keyboard-response,27
true,10,1,1,1,true,z,false,true,0.0-2.0-0.35-0.322-3.322,0,0,0,90,false,stim,false,0,572.1999999880791,0,0,2,71781,task2,890932,false,false,1050,image-keyboard-response,28
true,10,2,1,0,false,q,true,false,0.0-2.0-0.35-0.323-3.323,0,0,0,68,false,stim,false,1,642.0,0,0,0,71781,task2,893102,false,false,1053,image-keyboard-response,29
true,10,1,1,1,true,z,false,true,0.0-2.0-0.36-0.324-3.324,0,0,0,90,false,stim,false,0,419.1000000089407,0,0,1,71781,task2,895032,false,false,1056,image-keyboard-response,30
true,10,0,1,0,true,q,false,true,0.0-2.0-0.36-0.325-3.325,0,0,0,81,false,stim,false,1,880.0,0,0,0,71781,task2,897443,false,false,1059,image-keyboard-response,31
true,10,1,1,1,true,z,false,true,0.0-2.0-0.36-0.326-3.326,0,0,0,90,false,stim,false,0,1080.7000000029802,0,0,2,71781,task2,900043,false,false,1062,image-keyboard-response,32
true,10,1,1,1,true,z,false,true,0.0-2.0-0.36-0.327-3.327,0,0,0,90,false,stim,false,0,800.0999999940395,0,0,1,71781,task2,902364,false,false,1065,image-keyboard-response,33
true,10,0,1,0,true,q,false,true,0.0-2.0-0.36-0.328-3.328,0,0,0,81,false,stim,false,1,1560.7999999970198,0,0,0,71781,task2,905444,false,false,1068,image-keyboard-response,34
true,10,1,1,1,true,z,false,true,0.0-2.0-0.36-0.329-3.329,0,0,0,90,false,stim,false,0,374.19999998807907,0,0,2,71781,task2,907348,false,false,1071,image-keyboard-response,35
true,10,1,1,1,true,z,false,true,0.0-2.0-0.36-0.330-3.330,0,0,0,90,false,stim,false,0,483.70000000298023,0,1,1,71781,task2,909358,false,false,1074,image-keyboard-response,36
true,10,1,1,1,true,z,false,true,0.0-2.0-0.36-0.331-3.331,0,0,0,90,false,stim,false,0,627.5,0,0,2,71781,task2,911504,false,false,1077,image-keyboard-response,37
true,10,0,1,0,true,q,false,true,0.0-2.0-0.36-0.332-3.332,0,0,0,81,false,stim,false,1,976.7000000029802,0,0,0,71781,task2,914003,false,false,1080,image-keyboard-response,38
true,11,0,2,1,false,z,false,true,0.0-2.0-0.37-0.333-3.333,0,1,0,81,true,stim,true,0,536.2999999970198,0,0,0,71781,task2,916063,false,true,1083,image-keyboard-response,1
true,11,1,2,1,true,z,false,true,0.0-2.0-0.37-0.334-3.334,0,1,0,90,false,stim,false,1,904.7000000029802,0,1,1,71781,task2,918484,false,false,1086,image-keyboard-response,2
true,11,1,2,1,true,z,false,true,0.0-2.0-0.37-0.335-3.335,0,1,0,90,false,stim,false,1,502.09999999403954,0,1,1,71781,task2,920515,false,false,1089,image-keyboard-response,3
true,11,0,2,1,false,z,false,false,0.0-2.0-0.37-0.336-3.336,0,1,0,81,false,stim,true,0,643.3999999910593,0,0,0,71781,task2,922690,false,false,1092,image-keyboard-response,4
true,11,1,2,0,false,q,false,false,0.0-2.0-0.37-0.337-3.337,0,1,0,90,false,stim,true,1,395.59999999403954,0,0,2,71781,task2,924610,false,false,1095,image-keyboard-response,5
true,11,1,2,1,true,z,false,true,0.0-2.0-0.37-0.338-3.338,0,1,0,90,false,stim,false,1,428.79999999701977,0,1,1,71781,task2,926561,false,false,1098,image-keyboard-response,6
true,11,1,2,1,true,z,false,true,0.0-2.0-0.37-0.339-3.339,0,1,0,90,false,stim,false,0,1260.4000000059605,0,0,0,71781,task2,929345,false,false,1101,image-keyboard-response,7
true,11,1,2,0,false,q,false,false,0.0-2.0-0.37-0.340-3.340,0,1,0,90,false,stim,true,1,650.0,0,0,2,71781,task2,931516,false,false,1104,image-keyboard-response,8
true,11,2,2,0,false,q,true,false,0.0-2.0-0.37-0.341-3.341,0,1,0,68,false,stim,false,1,1340.0,0,0,2,71781,task2,934376,false,false,1107,image-keyboard-response,9
true,11,1,2,1,true,z,false,true,0.0-2.0-0.38-0.342-3.342,0,1,0,90,false,stim,false,1,600.9000000059605,0,1,1,71781,task2,936502,false,false,1110,image-keyboard-response,10
true,11,1,2,1,true,z,false,true,0.0-2.0-0.38-0.343-3.343,0,1,0,90,false,stim,false,0,521.5,0,0,0,71781,task2,938542,false,false,1113,image-keyboard-response,11
true,11,1,2,1,true,z,false,true,0.0-2.0-0.38-0.344-3.344,0,1,0,90,false,stim,false,0,468.5,0,0,0,71781,task2,940523,false,false,1116,image-keyboard-response,12
true,11,1,2,1,true,z,false,true,0.0-2.0-0.38-0.345-3.345,0,1,0,90,false,stim,false,0,568.0,0,0,0,71781,task2,942622,false,false,1119,image-keyboard-response,13
true,11,0,2,0,true,q,false,true,0.0-2.0-0.38-0.346-3.346,0,1,0,81,false,stim,false,1,611.4000000059605,0,0,2,71781,task2,944767,false,false,1122,image-keyboard-response,14
true,11,0,2,0,true,q,false,true,0.0-2.0-0.38-0.347-3.347,0,1,0,81,false,stim,false,1,722.2999999970198,0,0,2,71781,task2,947012,false,false,1125,image-keyboard-response,15
true,11,0,2,0,true,q,false,true,0.0-2.0-0.38-0.348-3.348,0,1,0,81,false,stim,false,1,462.20000000298023,0,0,2,71781,task2,949002,false,false,1128,image-keyboard-response,16
true,11,1,2,1,true,z,false,true,0.0-2.0-0.38-0.349-3.349,0,1,0,90,false,stim,false,1,807.5,0,1,1,71781,task2,951332,false,false,1131,image-keyboard-response,17
true,11,1,2,1,true,z,false,true,0.0-2.0-0.38-0.350-3.350,0,1,0,90,false,stim,false,1,610.0,0,1,1,71781,task2,953468,false,false,1134,image-keyboard-response,18
true,11,0,2,0,true,q,false,true,0.0-2.0-0.39-0.351-3.351,0,1,0,81,false,stim,false,1,681.3000000119209,0,0,2,71781,task2,955673,false,false,1137,image-keyboard-response,19
true,11,1,2,1,true,z,false,true,0.0-2.0-0.39-0.352-3.352,0,1,0,90,false,stim,false,0,1141.0,0,0,0,71781,task2,958335,false,false,1140,image-keyboard-response,20
true,11,1,2,1,true,z,false,true,0.0-2.0-0.39-0.353-3.353,0,1,0,90,false,stim,false,0,538.4000000059605,0,0,0,71781,task2,960399,false,false,1143,image-keyboard-response,21
true,11,0,2,1,false,z,true,true,0.0-2.0-0.39-0.354-3.354,0,1,0,81,false,stim,false,1,1881.3999999910593,0,1,1,71781,task2,963809,false,true,1146,image-keyboard-response,22
true,11,1,2,0,false,q,false,false,0.0-2.0-0.39-0.355-3.355,0,1,0,90,false,stim,true,1,1090.9000000059605,0,0,2,71781,task2,966420,false,false,1149,image-keyboard-response,23
true,11,1,2,1,true,z,false,true,0.0-2.0-0.39-0.356-3.356,0,1,0,90,false,stim,false,0,793.3999999910593,0,0,0,71781,task2,968725,false,false,1152,image-keyboard-response,24
true,11,0,2,0,true,q,false,true,0.0-2.0-0.39-0.357-3.357,0,1,0,81,false,stim,false,1,1012.1999999880791,0,0,2,71781,task2,971261,false,false,1155,image-keyboard-response,25
true,11,0,2,1,false,z,true,false,0.0-2.0-0.39-0.358-3.358,0,1,0,81,false,stim,false,1,613.1000000089407,0,1,1,71781,task2,973396,false,false,1158,image-keyboard-response,26
true,11,1,2,1,true,z,false,true,0.0-2.0-0.39-0.359-3.359,0,1,0,90,false,stim,false,1,760.1000000089407,0,1,1,71781,task2,975677,false,false,1161,image-keyboard-response,27
true,11,1,2,1,true,z,false,true,0.0-2.0-0.40-0.360-3.360,0,1,0,90,false,stim,false,0,734.7000000029802,0,0,0,71781,task2,977937,false,false,1164,image-keyboard-response,28
true,11,0,2,0,true,q,false,true,0.0-2.0-0.40-0.361-3.361,0,1,0,81,false,stim,false,1,483.3999999910593,0,0,2,71781,task2,979952,false,false,1167,image-keyboard-response,29
true,11,1,2,1,true,z,false,true,0.0-2.0-0.40-0.362-3.362,0,1,0,90,false,stim,false,1,428.59999999403954,0,1,1,71781,task2,981899,false,false,1170,image-keyboard-response,30
true,11,1,2,1,true,z,false,true,0.0-2.0-0.40-0.363-3.363,0,1,0,90,false,stim,false,0,633.0999999940395,0,0,0,71781,task2,984053,false,false,1173,image-keyboard-response,31
true,11,0,2,0,true,q,false,false,0.0-2.0-0.40-0.364-3.364,0,1,0,81,false,stim,false,1,586.2000000029802,0,0,2,71781,task2,986158,false,true,1176,image-keyboard-response,32
true,12,1,2,1,true,z,false,true,0.0-2.0-0.40-0.365-3.365,0,1,0,90,true,stim,false,1,581.0,0,1,1,71781,task2,988269,false,false,1179,image-keyboard-response,1
true,12,1,2,2,false,d,true,false,0.0-2.0-0.40-0.366-3.366,0,1,0,90,false,stim,false,0,975.3999999910593,0,0,2,71781,task2,990764,false,false,1182,image-keyboard-response,2
true,12,1,2,0,false,q,false,false,0.0-2.0-0.40-0.367-3.367,0,1,0,90,false,stim,true,1,375.09999999403954,0,0,0,71781,task2,992650,false,false,1185,image-keyboard-response,3
true,12,1,2,1,true,z,false,true,0.0-2.0-0.40-0.368-3.368,0,1,0,90,false,stim,false,1,366.59999999403954,0,1,1,71781,task2,994526,false,false,1188,image-keyboard-response,4
true,12,2,2,0,false,q,true,false,0.0-2.0-0.41-0.369-3.369,0,1,0,68,false,stim,false,1,901.5,0,0,0,71781,task2,996960,false,false,1191,image-keyboard-response,5
true,12,2,2,1,false,z,true,false,0.0-2.0-0.41-0.370-3.370,0,1,0,68,false,stim,false,1,1478.5,0,1,1,71781,task2,999955,false,false,1194,image-keyboard-response,6
true,12,1,2,0,false,q,false,false,0.0-2.0-0.41-0.371-3.371,0,1,0,90,false,stim,true,1,1023.6000000089407,0,0,0,71781,task2,1002502,false,false,1197,image-keyboard-response,7
true,12,1,2,1,true,z,false,true,0.0-2.0-0.41-0.372-3.372,0,1,0,90,false,stim,false,1,564.0999999940395,0,1,1,71781,task2,1004592,false,false,1200,image-keyboard-response,8
true,12,0,2,0,true,q,false,true,0.0-2.0-0.41-0.373-3.373,0,1,0,81,false,stim,false,1,788.1999999880791,0,0,0,71781,task2,1006916,false,false,1203,image-keyboard-response,9
true,12,1,2,2,false,d,true,false,0.0-2.0-0.41-0.374-3.374,0,1,0,90,false,stim,false,0,826.0999999940395,0,0,2,71781,task2,1009273,false,false,1206,image-keyboard-response,10
true,12,2,2,2,true,d,false,true,0.0-2.0-0.41-0.375-3.375,0,1,0,68,false,stim,false,0,934.5,0,0,2,71781,task2,1011732,false,false,1209,image-keyboard-response,11
true,12,0,2,1,false,z,true,false,0.0-2.0-0.41-0.376-3.376,0,1,0,81,false,stim,false,1,972.7000000029802,0,1,1,71781,task2,1014222,false,false,1212,image-keyboard-response,12
true,12,2,2,2,true,d,false,true,0.0-2.0-0.41-0.377-3.377,0,1,0,68,false,stim,false,0,879.0,0,0,2,71781,task2,1016628,false,false,1215,image-keyboard-response,13
true,12,2,2,2,true,d,false,true,0.0-2.0-0.42-0.378-3.378,0,1,0,68,false,stim,false,0,542.4000000059605,0,0,2,71781,task2,1018693,false,false,1218,image-keyboard-response,14
true,12,2,2,2,true,d,false,true,0.0-2.0-0.42-0.379-3.379,0,1,0,68,false,stim,false,0,505.70000000298023,0,0,2,71781,task2,1020723,false,false,1221,image-keyboard-response,15
true,12,1,2,1,true,z,false,true,0.0-2.0-0.42-0.380-3.380,0,1,0,90,false,stim,false,1,812.1999999880791,0,1,1,71781,task2,1023048,false,false,1224,image-keyboard-response,16
true,12,1,2,1,true,z,false,false,0.0-2.0-0.42-0.381-3.381,0,1,0,90,false,stim,false,1,550.5999999940395,0,1,1,71781,task2,1025119,false,true,1227,image-keyboard-response,17
true,12,1,2,1,true,z,false,true,0.0-2.0-0.42-0.382-3.382,0,1,0,90,false,stim,false,1,641.5999999940395,0,1,1,71781,task2,1027279,false,false,1230,image-keyboard-response,18
true,12,0,2,0,true,q,false,true,0.0-2.0-0.42-0.383-3.383,0,1,0,81,false,stim,false,1,781.7999999970198,0,0,0,71781,task2,1029575,false,false,1233,image-keyboard-response,19
true,12,0,2,0,true,q,false,true,0.0-2.0-0.42-0.384-3.384,0,1,0,81,false,stim,false,1,450.79999999701977,0,0,0,71781,task2,1031556,false,false,1236,image-keyboard-response,20
true,12,0,2,0,true,q,false,true,0.0-2.0-0.42-0.385-3.385,0,1,0,81,false,stim,false,1,482.1000000089407,0,0,0,71781,task2,1033571,false,false,1239,image-keyboard-response,21
true,12,2,2,2,true,d,false,true,0.0-2.0-0.42-0.386-3.386,0,1,0,68,false,stim,false,0,651.2999999970198,0,0,2,71781,task2,1035740,false,false,1242,image-keyboard-response,22
true,12,2,2,2,true,d,false,true,0.0-2.0-0.43-0.387-3.387,0,1,0,68,false,stim,false,0,422.5,0,0,2,71781,task2,1037696,false,false,1245,image-keyboard-response,23
true,12,0,2,0,true,q,false,true,0.0-2.0-0.43-0.388-3.388,0,1,0,81,false,stim,false,1,906.5,0,0,0,71781,task2,1040131,false,false,1248,image-keyboard-response,24
true,12,1,2,1,true,z,false,true,0.0-2.0-0.43-0.389-3.389,0,1,0,90,false,stim,false,1,564.0,0,1,1,71781,task2,1042221,false,false,1251,image-keyboard-response,25
true,12,2,2,2,true,d,false,true,0.0-2.0-0.43-0.390-3.390,0,1,0,68,false,stim,false,0,567.5,0,0,2,71781,task2,1044311,false,false,1254,image-keyboard-response,26
true,12,0,2,0,true,q,false,true,0.0-2.0-0.43-0.391-3.391,0,1,0,81,false,stim,false,1,808.5,0,0,0,71781,task2,1046651,false,false,1257,image-keyboard-response,27
true,12,2,2,2,true,d,false,true,0.0-2.0-0.43-0.392-3.392,0,1,0,68,false,stim,false,0,734.6000000089407,0,0,2,71781,task2,1048912,false,false,1260,image-keyboard-response,28
true,12,1,2,1,true,z,false,true,0.0-2.0-0.43-0.393-3.393,0,1,0,90,false,stim,false,1,1027.2999999970198,0,0,1,71781,task2,1051457,false,false,1263,image-keyboard-response,29
true,12,0,2,0,true,q,false,true,0.0-2.0-0.43-0.394-3.394,0,1,0,81,false,stim,false,1,661.7000000029802,0,0,0,71781,task2,1053642,false,false,1266,image-keyboard-response,30
true,12,1,2,1,true,z,false,true,0.0-2.0-0.43-0.395-3.395,0,1,0,90,false,stim,false,1,572.7000000029802,0,0,1,71781,task2,1055737,false,false,1269,image-keyboard-response,31
true,12,2,2,2,true,d,false,true,0.0-2.0-0.44-0.396-3.396,0,1,0,68,false,stim,false,0,452.20000000298023,0,0,2,71781,task2,1057718,false,false,1272,image-keyboard-response,32
true,12,0,2,0,true,q,false,true,0.0-2.0-0.44-0.397-3.397,0,1,0,81,false,stim,false,1,884.6000000089407,0,0,0,71781,task2,1060118,false,false,1275,image-keyboard-response,33
true,13,0,1,2,false,d,false,false,0.0-2.0-0.44-0.398-3.398,0,0,0,81,true,stim,true,0,563.5,0,0,0,71781,task2,1062213,false,false,1278,image-keyboard-response,1
true,13,1,1,2,false,d,false,false,0.0-2.0-0.44-0.399-3.399,0,0,0,90,false,stim,true,1,419.59999999403954,0,0,1,71781,task2,1064154,false,false,1281,image-keyboard-response,2
true,13,2,1,1,false,z,false,false,0.0-2.0-0.44-0.400-3.400,0,0,0,68,false,stim,true,2,434.20000000298023,0,0,2,71781,task2,1066119,false,false,1284,image-keyboard-response,3
true,13,0,1,2,false,d,true,false,0.0-2.0-0.44-0.401-3.401,0,0,0,81,false,stim,false,1,1427.2000000029802,0,0,1,71781,task2,1069079,false,false,1287,image-keyboard-response,4
true,13,1,1,2,false,d,false,false,0.0-2.0-0.44-0.402-3.402,0,0,0,90,false,stim,true,1,761.4000000059605,0,0,1,71781,task2,1071365,false,false,1290,image-keyboard-response,5
true,13,1,1,2,false,d,true,false,0.0-2.0-0.44-0.403-3.403,0,0,0,90,false,stim,false,0,1476.8999999910593,0,0,0,71781,task2,1074365,false,false,1293,image-keyboard-response,6
true,13,0,1,1,false,z,true,false,0.0-2.0-0.44-0.404-3.404,0,0,0,81,false,stim,false,2,1276.7000000029802,0,0,2,71781,task2,1077165,false,false,1296,image-keyboard-response,7
true,13,2,1,2,true,d,false,false,0.0-2.0-0.45-0.405-3.405,0,0,0,68,false,stim,false,0,951.0,0,0,0,71781,task2,1079641,false,true,1299,image-keyboard-response,8
true,13,2,1,1,false,z,false,true,0.0-2.0-0.45-0.406-3.406,0,0,0,68,false,stim,true,2,1251.6000000089407,0,0,2,71781,task2,1082427,false,true,1302,image-keyboard-response,9
true,13,0,1,2,false,d,false,false,0.0-2.0-0.45-0.407-3.407,0,0,0,81,false,stim,true,0,613.5999999940395,0,0,0,71781,task2,1084557,false,false,1305,image-keyboard-response,10
true,13,2,1,1,false,z,false,false,0.0-2.0-0.45-0.408-3.408,0,0,0,68,false,stim,true,2,564.3000000119209,0,0,2,71781,task2,1086656,false,false,1308,image-keyboard-response,11
true,13,0,1,2,false,d,true,false,0.0-2.0-0.45-0.409-3.409,0,0,0,81,false,stim,false,1,1310.4000000059605,0,0,1,71781,task2,1089473,false,false,1311,image-keyboard-response,12
true,13,2,1,2,true,d,false,true,0.0-2.0-0.45-0.410-3.410,0,0,0,68,false,stim,false,1,470.79999999701977,0,0,1,71781,task2,1091453,false,false,1314,image-keyboard-response,13
true,13,1,1,2,false,d,true,true,0.0-2.0-0.45-0.411-3.411,0,0,0,90,false,stim,false,0,1126.4000000059605,0,0,0,71781,task2,1094094,false,true,1317,image-keyboard-response,14
true,13,0,1,1,false,z,true,false,0.0-2.0-0.45-0.412-3.412,0,0,0,81,false,stim,false,2,782.0,0,0,2,71781,task2,1096399,false,false,1320,image-keyboard-response,15
true,13,2,1,2,true,d,false,true,0.0-2.0-0.45-0.413-3.413,0,0,0,68,false,stim,false,1,641.7999999970198,0,0,1,71781,task2,1098559,false,false,1323,image-keyboard-response,16
true,13,1,1,2,false,d,true,false,0.0-2.0-0.46-0.414-3.414,0,0,0,90,false,stim,false,0,624.0,0,0,0,71781,task2,1100694,false,false,1326,image-keyboard-response,17
true,13,2,1,2,true,d,false,true,0.0-2.0-0.46-0.415-3.415,0,0,0,68,false,stim,false,1,480.19999998807907,0,0,1,71781,task2,1102699,false,false,1329,image-keyboard-response,18
true,13,2,1,2,true,d,false,true,0.0-2.0-0.46-0.416-3.416,0,0,0,68,false,stim,false,0,675.2000000029802,0,0,0,71781,task2,1104895,false,false,1332,image-keyboard-response,19
true,13,2,1,2,true,d,false,true,0.0-2.0-0.46-0.417-3.417,0,0,0,68,false,stim,false,1,548.8999999910593,0,0,1,71781,task2,1106954,false,false,1335,image-keyboard-response,20
true,13,2,1,2,true,d,false,true,0.0-2.0-0.46-0.418-3.418,0,0,0,68,false,stim,false,1,341.59999999403954,0,0,1,71781,task2,1108830,false,false,1338,image-keyboard-response,21
true,13,0,1,1,false,z,true,false,0.0-2.0-0.46-0.419-3.419,0,0,0,81,false,stim,false,2,669.0999999940395,0,0,2,71781,task2,1111025,false,false,1341,image-keyboard-response,22
true,13,2,1,2,true,d,false,false,0.0-2.0-0.46-0.420-3.420,0,0,0,68,false,stim,false,0,547.2000000029802,0,0,0,71781,task2,1113105,false,true,1344,image-keyboard-response,23
true,13,1,1,1,true,z,false,true,0.0-2.0-0.46-0.421-3.421,0,0,0,90,false,stim,false,2,1018.5,0,0,2,71781,task2,1115645,false,false,1347,image-keyboard-response,24
true,13,1,1,1,true,z,false,true,0.0-2.0-0.46-0.422-3.422,0,0,0,90,false,stim,false,2,711.0,0,0,2,71781,task2,1117871,false,false,1350,image-keyboard-response,25
true,13,1,1,1,true,z,false,true,0.0-2.0-0.47-0.423-3.423,0,0,0,90,false,stim,false,2,547.6999999880791,0,0,2,71781,task2,1119942,false,false,1353,image-keyboard-response,26
true,13,2,1,2,true,d,false,true,0.0-2.0-0.47-0.424-3.424,0,0,0,68,false,stim,false,1,617.7999999970198,0,0,1,71781,task2,1122096,false,false,1356,image-keyboard-response,27
true,13,2,1,2,true,d,false,true,0.0-2.0-0.47-0.425-3.425,0,0,0,68,false,stim,false,1,974.6999999880791,0,0,1,71781,task2,1124601,false,false,1359,image-keyboard-response,28
true,13,0,1,2,false,d,false,false,0.0-2.0-0.47-0.426-3.426,0,0,0,81,false,stim,true,0,774.4000000059605,0,0,0,71781,task2,1126887,false,false,1362,image-keyboard-response,29
true,13,2,1,2,true,d,false,true,0.0-2.0-0.47-0.427-3.427,0,0,0,68,false,stim,false,1,658.7000000029802,0,1,1,71781,task2,1129071,false,false,1365,image-keyboard-response,30
true,13,1,1,2,false,d,true,false,0.0-2.0-0.47-0.428-3.428,0,0,0,90,false,stim,false,0,991.3000000119209,0,0,0,71781,task2,1131573,false,false,1368,image-keyboard-response,31
true,13,2,1,2,true,d,false,true,0.0-2.0-0.47-0.429-3.429,0,0,0,68,false,stim,false,0,741.5,0,0,0,71781,task2,1133856,false,false,1371,image-keyboard-response,32
true,13,1,1,1,true,z,false,true,0.0-2.0-0.47-0.430-3.430,0,0,0,90,false,stim,false,2,493.79999999701977,0,0,2,71781,task2,1135877,false,false,1374,image-keyboard-response,33
true,13,1,1,1,true,z,false,true,0.0-2.0-0.47-0.431-3.431,0,0,0,90,false,stim,false,2,736.2000000029802,0,0,2,71781,task2,1138137,false,false,1377,image-keyboard-response,34
true,14,1,2,0,false,q,false,false,0.0-2.0-0.48-0.432-3.432,0,1,0,90,true,stim,true,1,483.5,0,0,2,71781,task2,1140151,false,false,1380,image-keyboard-response,1
true,14,2,2,2,true,d,false,true,0.0-2.0-0.48-0.433-3.433,0,1,0,68,false,stim,false,2,995.7000000029802,0,1,1,71781,task2,1142681,false,false,1383,image-keyboard-response,2
true,14,1,2,0,false,q,false,false,0.0-2.0-0.48-0.434-3.434,0,1,0,90,false,stim,true,1,661.8000000119209,0,0,2,71781,task2,1144882,false,false,1386,image-keyboard-response,3
true,14,2,2,1,false,z,false,false,0.0-2.0-0.48-0.435-3.435,0,1,0,68,false,stim,true,2,659.2000000029802,0,0,0,71781,task2,1147062,false,false,1389,image-keyboard-response,4
true,14,1,2,2,false,d,true,false,0.0-2.0-0.48-0.436-3.436,0,1,0,90,false,stim,false,2,1469.1000000089407,0,1,1,71781,task2,1150068,false,false,1392,image-keyboard-response,5
true,14,2,2,2,true,d,false,true,0.0-2.0-0.48-0.437-3.437,0,1,0,68,false,stim,false,2,527.6999999880791,0,1,1,71781,task2,1152127,false,false,1395,image-keyboard-response,6
true,14,1,2,1,true,z,false,true,0.0-2.0-0.48-0.438-3.438,0,1,0,90,false,stim,false,2,937.1000000089407,0,0,0,71781,task2,1154587,false,false,1398,image-keyboard-response,7
true,14,1,2,1,true,z,false,true,0.0-2.0-0.48-0.439-3.439,0,1,0,90,false,stim,false,2,618.2000000029802,0,0,0,71781,task2,1156740,false,false,1401,image-keyboard-response,8
true,14,1,2,0,false,q,false,false,0.0-2.0-0.48-0.440-3.440,0,1,0,90,false,stim,true,1,702.2999999970198,0,0,2,71781,task2,1158970,false,false,1404,image-keyboard-response,9
true,14,2,2,0,false,q,true,false,0.0-2.0-0.49-0.441-3.441,0,1,0,68,false,stim,false,1,557.3999999910593,0,0,2,71781,task2,1161061,false,false,1407,image-keyboard-response,10
true,14,1,2,1,true,z,false,false,0.0-2.0-0.49-0.442-3.442,0,1,0,90,false,stim,false,2,2007.0,0,0,0,71781,task2,1164594,false,true,1410,image-keyboard-response,11
true,14,2,2,2,true,d,false,true,0.0-2.0-0.49-0.443-3.443,0,1,0,68,false,stim,false,2,423.1000000089407,0,1,1,71781,task2,1166544,false,false,1413,image-keyboard-response,12
true,14,2,2,2,true,d,false,true,0.0-2.0-0.49-0.444-3.444,0,1,0,68,false,stim,false,2,672.4000000059605,0,1,1,71781,task2,1168729,false,false,1416,image-keyboard-response,13
true,14,0,2,0,true,q,false,true,0.0-2.0-0.49-0.445-3.445,0,1,0,81,false,stim,false,1,536.2999999970198,0,0,2,71781,task2,1170777,false,false,1419,image-keyboard-response,14
true,14,0,2,1,false,z,true,false,0.0-2.0-0.49-0.446-3.446,0,1,0,81,false,stim,false,2,891.5,0,0,0,71781,task2,1173199,false,false,1422,image-keyboard-response,15
true,14,2,2,2,true,d,false,true,0.0-2.0-0.49-0.447-3.447,0,1,0,68,false,stim,false,2,493.29999999701977,0,1,1,71781,task2,1175217,false,false,1425,image-keyboard-response,16
true,14,1,2,1,true,z,false,true,0.0-2.0-0.49-0.448-3.448,0,1,0,90,false,stim,false,2,1213.800000011921,0,0,0,71781,task2,1177956,false,false,1428,image-keyboard-response,17
true,14,0,2,0,true,q,false,true,0.0-2.0-0.49-0.449-3.449,0,1,0,81,false,stim,false,1,599.6999999880791,0,0,2,71781,task2,1180075,false,false,1431,image-keyboard-response,18
true,14,1,2,1,true,z,false,true,0.0-2.0-0.50-0.450-3.450,0,1,0,90,false,stim,false,2,560.4000000059605,0,0,0,71781,task2,1182155,false,false,1434,image-keyboard-response,19
true,14,0,2,0,true,q,false,true,0.0-2.0-0.50-0.451-3.451,0,1,0,81,false,stim,false,1,545.5,0,0,2,71781,task2,1184224,false,false,1437,image-keyboard-response,20
true,14,1,2,1,true,z,false,true,0.0-2.0-0.50-0.452-3.452,0,1,0,90,false,stim,false,2,582.5,0,0,0,71781,task2,1186329,false,false,1440,image-keyboard-response,21
true,14,2,2,2,true,d,false,true,0.0-2.0-0.50-0.453-3.453,0,1,0,68,false,stim,false,2,510.1000000089407,0,1,1,71781,task2,1188358,false,false,1443,image-keyboard-response,22
true,14,0,2,0,true,q,false,true,0.0-2.0-0.50-0.454-3.454,0,1,0,81,false,stim,false,1,637.5,0,0,2,71781,task2,1190519,false,false,1446,image-keyboard-response,23
true,14,2,2,2,true,d,false,true,0.0-2.0-0.50-0.455-3.455,0,1,0,68,false,stim,false,2,1090.0,0,1,1,71781,task2,1193138,false,false,1449,image-keyboard-response,24
true,14,1,2,1,true,z,false,true,0.0-2.0-0.50-0.456-3.456,0,1,0,90,false,stim,false,2,667.1999999880791,0,0,0,71781,task2,1195333,false,false,1452,image-keyboard-response,25
true,14,0,2,0,true,q,false,true,0.0-2.0-0.50-0.457-3.457,0,1,0,81,false,stim,false,1,1262.0,0,0,2,71781,task2,1198127,false,false,1455,image-keyboard-response,26
true,14,2,2,2,true,d,false,true,0.0-2.0-0.50-0.458-3.458,0,1,0,68,false,stim,false,2,669.0,0,1,1,71781,task2,1200321,false,false,1458,image-keyboard-response,27
true,14,2,2,2,true,d,false,true,0.0-2.0-0.51-0.459-3.459,0,1,0,68,false,stim,false,2,536.0999999940395,0,1,1,71781,task2,1202389,false,false,1461,image-keyboard-response,28
true,14,0,2,0,true,q,false,true,0.0-2.0-0.51-0.460-3.460,0,1,0,81,false,stim,false,1,900.5,0,0,2,71781,task2,1204805,false,false,1464,image-keyboard-response,29
true,14,0,2,0,true,q,false,true,0.0-2.0-0.51-0.461-3.461,0,1,0,81,false,stim,false,1,603.0,0,0,2,71781,task2,1206924,false,false,1467,image-keyboard-response,30
true,14,1,2,1,true,z,false,true,0.0-2.0-0.51-0.462-3.462,0,1,0,90,false,stim,false,2,1419.5999999940395,0,0,0,71781,task2,1209872,false,false,1470,image-keyboard-response,31
true,14,1,2,1,true,z,false,true,0.0-2.0-0.51-0.463-3.463,0,1,0,90,false,stim,false,2,573.8999999910593,0,0,0,71781,task2,1211979,false,false,1473,image-keyboard-response,32
true,14,1,2,1,true,z,false,true,0.0-2.0-0.51-0.464-3.464,0,1,0,90,false,stim,false,2,544.9000000059605,0,0,0,71781,task2,1214053,false,false,1476,image-keyboard-response,33
true,15,2,1,0,false,q,false,false,0.0-2.0-0.51-0.465-3.465,0,0,0,68,true,stim,true,2,2092.4000000059605,0,0,1,71781,task2,1217666,false,false,1479,image-keyboard-response,1
true,15,0,1,2,false,d,false,false,0.0-2.0-0.51-0.466-3.466,0,0,0,81,false,stim,true,0,505.09999999403954,0,0,2,71781,task2,1219700,false,false,1482,image-keyboard-response,2
true,15,0,1,0,true,q,false,true,0.0-2.0-0.51-0.467-3.467,0,0,0,81,false,stim,false,2,1514.2000000029802,0,0,1,71781,task2,1222744,false,false,1485,image-keyboard-response,3
true,15,0,1,0,true,q,false,true,0.0-2.0-0.52-0.468-3.468,0,0,0,81,false,stim,false,2,573.5999999940395,0,0,1,71781,task2,1224853,false,false,1488,image-keyboard-response,4
true,15,0,1,0,true,q,false,true,0.0-2.0-0.52-0.469-3.469,0,0,0,81,false,stim,false,2,498.0,0,0,1,71781,task2,1226863,false,false,1491,image-keyboard-response,5
true,15,1,1,0,false,q,false,false,0.0-2.0-0.52-0.470-3.470,0,0,0,90,false,stim,true,1,1029.0999999940395,0,0,0,71781,task2,1229412,false,false,1494,image-keyboard-response,6
true,15,0,1,0,true,q,false,true,0.0-2.0-0.52-0.471-3.471,0,0,0,81,false,stim,false,2,736.1999999880791,0,0,1,71781,task2,1231667,false,false,1497,image-keyboard-response,7
true,15,2,1,2,true,d,false,true,0.0-2.0-0.52-0.472-3.472,0,0,0,68,false,stim,false,0,546.7000000029802,0,0,2,71781,task2,1233746,false,false,1500,image-keyboard-response,8
true,15,2,1,2,true,d,false,true,0.0-2.0-0.52-0.473-3.473,0,0,0,68,false,stim,false,0,616.4000000059605,0,0,2,71781,task2,1235900,false,false,1503,image-keyboard-response,9
true,15,2,1,2,true,d,false,true,0.0-2.0-0.52-0.474-3.474,0,0,0,68,false,stim,false,0,500.40000000596046,0,0,2,71781,task2,1237934,false,false,1506,image-keyboard-response,10
true,15,2,1,0,false,q,true,false,0.0-2.0-0.52-0.475-3.475,0,0,0,68,false,stim,false,1,953.8999999910593,0,0,0,71781,task2,1240422,false,false,1509,image-keyboard-response,11
true,15,0,1,0,true,q,false,true,0.0-2.0-0.52-0.476-3.476,0,0,0,81,false,stim,false,1,793.0,0,0,0,71781,task2,1242732,false,false,1512,image-keyboard-response,12
true,15,0,1,0,true,q,false,true,0.0-2.0-0.53-0.477-3.477,0,0,0,81,false,stim,false,1,662.6000000089407,0,0,0,71781,task2,1244916,false,false,1515,image-keyboard-response,13
true,15,0,1,0,true,q,false,true,0.0-2.0-0.53-0.478-3.478,0,0,0,81,false,stim,false,2,391.40000000596046,0,0,1,71781,task2,1246814,false,false,1518,image-keyboard-response,14
true,15,2,1,2,true,d,false,true,0.0-2.0-0.53-0.479-3.479,0,0,0,68,false,stim,false,0,713.2999999970198,0,0,2,71781,task2,1249053,false,false,1521,image-keyboard-response,15
true,15,2,1,2,true,d,false,true,0.0-2.0-0.53-0.480-3.480,0,0,0,68,false,stim,false,0,533.8000000119209,0,0,2,71781,task2,1251107,false,false,1524,image-keyboard-response,16
true,15,0,1,0,true,q,false,true,0.0-2.0-0.53-0.481-3.481,0,0,0,81,false,stim,false,2,795.0,0,0,1,71781,task2,1253436,false,false,1527,image-keyboard-response,17
true,15,0,1,0,true,q,false,true,0.0-2.0-0.53-0.482-3.482,0,0,0,81,false,stim,false,1,706.7999999970198,0,0,0,71781,task2,1255666,false,false,1530,image-keyboard-response,18
true,15,0,1,0,true,q,false,true,0.0-2.0-0.53-0.483-3.483,0,0,0,81,false,stim,false,1,748.2999999970198,0,0,0,71781,task2,1257941,false,false,1533,image-keyboard-response,19
true,15,0,1,0,true,q,false,true,0.0-2.0-0.53-0.484-3.484,0,0,0,81,false,stim,false,2,697.0,0,0,1,71781,task2,1260173,false,false,1536,image-keyboard-response,20
true,15,2,1,2,true,d,false,true,0.0-2.0-0.53-0.485-3.485,0,0,0,68,false,stim,false,0,535.2000000029802,0,0,2,71781,task2,1262214,false,false,1539,image-keyboard-response,21
true,15,0,1,0,true,q,false,false,0.0-2.0-0.54-0.486-3.486,0,0,0,81,false,stim,false,2,842.1000000089407,0,0,1,71781,task2,1264586,false,true,1542,image-keyboard-response,22
true,15,2,1,2,true,d,false,true,0.0-2.0-0.54-0.487-3.487,0,0,0,68,false,stim,false,0,632.5,0,0,2,71781,task2,1266745,false,false,1545,image-keyboard-response,23
true,15,2,1,2,true,d,false,true,0.0-2.0-0.54-0.488-3.488,0,0,0,68,false,stim,false,0,523.1999999880791,0,0,2,71781,task2,1268804,false,false,1548,image-keyboard-response,24
true,15,0,1,0,true,q,false,true,0.0-2.0-0.54-0.489-3.489,0,0,0,81,false,stim,false,1,666.6000000089407,0,0,0,71781,task2,1270968,false,false,1551,image-keyboard-response,25
true,15,1,1,0,false,q,true,false,0.0-2.0-0.54-0.490-3.490,0,0,0,90,false,stim,false,2,733.7999999970198,0,0,1,71781,task2,1273218,false,false,1554,image-keyboard-response,26
true,15,0,1,0,true,q,false,true,0.0-2.0-0.54-0.491-3.491,0,0,0,81,false,stim,false,2,640.2000000029802,0,0,1,71781,task2,1275391,false,false,1557,image-keyboard-response,27
true,15,0,1,0,true,q,false,true,0.0-2.0-0.54-0.492-3.492,0,0,0,81,false,stim,false,1,521.5999999940395,0,0,0,71781,task2,1277439,false,false,1560,image-keyboard-response,28
true,15,0,1,0,true,q,false,true,0.0-2.0-0.54-0.493-3.493,0,0,0,81,false,stim,false,1,561.2999999970198,0,0,0,71781,task2,1279515,false,false,1563,image-keyboard-response,29
true,15,2,1,2,true,d,false,true,0.0-2.0-0.54-0.494-3.494,0,0,0,68,false,stim,false,0,631.0,0,0,2,71781,task2,1281667,false,false,1566,image-keyboard-response,30
true,15,0,1,0,true,q,false,true,0.0-2.0-0.55-0.495-3.495,0,0,0,81,false,stim,false,1,933.7999999970198,0,0,0,71781,task2,1284138,false,false,1569,image-keyboard-response,31
true,15,0,1,0,true,q,false,true,0.0-2.0-0.55-0.496-3.496,0,0,0,81,false,stim,false,2,788.5999999940395,0,0,1,71781,task2,1286461,false,false,1572,image-keyboard-response,32
true,15,2,1,2,true,d,false,false,0.0-2.0-0.55-0.497-3.497,0,0,0,68,false,stim,false,0,474.19999998807907,0,0,2,71781,task2,1288450,false,true,1575,image-keyboard-response,33
true,15,0,1,0,true,q,false,true,0.0-2.0-0.55-0.498-3.498,0,0,0,81,false,stim,false,2,928.5999999940395,0,0,1,71781,task2,1290904,false,false,1578,image-keyboard-response,34
true,15,0,1,0,true,q,false,true,0.0-2.0-0.55-0.499-3.499,0,0,0,81,false,stim,false,2,839.2999999970198,0,0,1,71781,task2,1293263,false,false,1581,image-keyboard-response,35
true,15,2,1,2,true,d,false,true,0.0-2.0-0.55-0.500-3.500,0,0,0,68,false,stim,false,0,470.29999999701977,0,0,2,71781,task2,1295262,false,false,1584,image-keyboard-response,36
true,15,0,1,0,true,q,false,true,0.0-2.0-0.55-0.501-3.501,0,0,0,81,false,stim,false,1,561.1000000089407,0,0,0,71781,task2,1297369,false,false,1587,image-keyboard-response,37
true,15,0,1,0,true,q,false,false,0.0-2.0-0.55-0.502-3.502,0,0,0,81,false,stim,false,1,474.1000000089407,0,0,0,71781,task2,1299368,false,true,1590,image-keyboard-response,38
true,16,2,1,0,false,q,false,true,0.0-2.0-0.55-0.503-3.503,0,0,0,68,true,stim,true,2,645.4000000059605,0,0,2,71781,task2,1301539,false,true,1593,image-keyboard-response,1
true,16,1,1,2,false,d,true,false,0.0-2.0-0.56-0.504-3.504,0,0,0,90,false,stim,false,0,424.5,0,0,0,71781,task2,1303488,false,false,1596,image-keyboard-response,2
true,16,2,1,0,false,q,false,false,0.0-2.0-0.56-0.505-3.505,0,0,0,68,false,stim,true,2,722.2000000029802,0,0,2,71781,task2,1305736,false,false,1599,image-keyboard-response,3
true,16,0,1,2,false,d,false,false,0.0-2.0-0.56-0.506-3.506,0,0,0,81,false,stim,true,0,412.40000000596046,0,0,1,71781,task2,1307681,false,false,1602,image-keyboard-response,4
true,16,1,1,0,false,q,true,false,0.0-2.0-0.56-0.507-3.507,0,0,0,90,false,stim,false,2,939.7999999970198,0,0,2,71781,task2,1310169,false,false,1605,image-keyboard-response,5
true,16,2,1,2,true,d,false,true,0.0-2.0-0.56-0.508-3.508,0,0,0,68,false,stim,false,0,672.9000000059605,0,0,0,71781,task2,1312369,false,false,1608,image-keyboard-response,6
true,16,0,1,0,true,q,false,true,0.0-2.0-0.56-0.509-3.509,0,0,0,81,false,stim,false,2,867.2000000029802,0,0,2,71781,task2,1314766,false,false,1611,image-keyboard-response,7
true,16,1,1,2,false,d,true,false,0.0-2.0-0.56-0.510-3.510,0,0,0,90,false,stim,false,0,1069.8999999910593,0,0,1,71781,task2,1317372,false,false,1614,image-keyboard-response,8
true,16,2,1,2,true,d,false,true,0.0-2.0-0.56-0.511-3.511,0,0,0,68,false,stim,false,0,575.2999999970198,0,0,1,71781,task2,1319460,false,false,1617,image-keyboard-response,9
true,16,0,1,2,false,d,false,false,0.0-2.0-0.56-0.512-3.512,0,0,0,81,false,stim,true,0,553.0,0,0,0,71781,task2,1321538,false,false,1620,image-keyboard-response,10
true,16,2,1,2,true,d,false,true,0.0-2.0-0.57-0.513-3.513,0,0,0,68,false,stim,false,0,805.2000000029802,0,0,0,71781,task2,1323857,false,false,1623,image-keyboard-response,11
true,16,2,1,2,true,d,false,true,0.0-2.0-0.57-0.514-3.514,0,0,0,68,false,stim,false,0,1259.5999999940395,0,0,1,71781,task2,1326646,false,false,1626,image-keyboard-response,12
true,16,2,1,2,true,d,false,true,0.0-2.0-0.57-0.515-3.515,0,0,0,68,false,stim,false,0,505.19999998807907,0,0,1,71781,task2,1328676,false,false,1629,image-keyboard-response,13
true,16,2,1,2,true,d,false,true,0.0-2.0-0.57-0.516-3.516,0,0,0,68,false,stim,false,0,415.19999998807907,0,0,1,71781,task2,1330619,false,false,1632,image-keyboard-response,14
true,16,0,1,0,true,q,false,true,0.0-2.0-0.57-0.517-3.517,0,0,0,81,false,stim,false,2,485.0,0,0,2,71781,task2,1332673,false,false,1635,image-keyboard-response,15
true,16,2,1,2,true,d,false,true,0.0-2.0-0.57-0.518-3.518,0,0,0,68,false,stim,false,0,521.3999999910593,0,0,0,71781,task2,1334727,false,false,1638,image-keyboard-response,16
true,16,0,1,0,true,q,false,true,0.0-2.0-0.57-0.519-3.519,0,0,0,81,false,stim,false,2,532.4000000059605,0,0,2,71781,task2,1336786,false,false,1641,image-keyboard-response,17
true,16,0,1,0,true,q,false,false,0.0-2.0-0.57-0.520-3.520,0,0,0,81,false,stim,false,2,759.2000000029802,0,0,2,71781,task2,1339085,false,true,1644,image-keyboard-response,18
true,16,2,1,2,true,d,false,true,0.0-2.0-0.57-0.521-3.521,0,0,0,68,false,stim,false,0,478.0,0,0,0,71781,task2,1341084,false,false,1647,image-keyboard-response,19
true,16,2,1,2,true,d,false,true,0.0-2.0-0.58-0.522-3.522,0,0,0,68,false,stim,false,0,504.70000000298023,0,0,1,71781,task2,1343113,false,false,1650,image-keyboard-response,20
true,16,2,1,2,true,d,false,true,0.0-2.0-0.58-0.523-3.523,0,0,0,68,false,stim,false,0,600.0999999940395,0,0,0,71781,task2,1345241,false,false,1653,image-keyboard-response,21
true,16,2,1,2,true,d,false,true,0.0-2.0-0.58-0.524-3.524,0,0,0,68,false,stim,false,0,494.29999999701977,0,0,0,71781,task2,1347270,false,false,1656,image-keyboard-response,22
true,16,2,1,2,true,d,false,true,0.0-2.0-0.58-0.525-3.525,0,0,0,68,false,stim,false,0,915.6999999880791,0,0,1,71781,task2,1349710,false,false,1659,image-keyboard-response,23
true,16,0,1,0,true,q,false,true,0.0-2.0-0.58-0.526-3.526,0,0,0,81,false,stim,false,2,706.8999999910593,0,0,2,71781,task2,1351952,false,false,1662,image-keyboard-response,24
true,16,2,1,2,true,d,false,true,0.0-2.0-0.58-0.527-3.527,0,0,0,68,false,stim,false,0,693.1999999880791,0,0,0,71781,task2,1354171,false,false,1665,image-keyboard-response,25
true,16,0,1,0,true,q,false,true,0.0-2.0-0.58-0.528-3.528,0,0,0,81,false,stim,false,2,774.0999999940395,0,0,2,71781,task2,1356471,false,false,1668,image-keyboard-response,26
true,16,2,1,2,true,d,false,true,0.0-2.0-0.58-0.529-3.529,0,0,0,68,false,stim,false,0,1001.2000000029802,0,0,1,71781,task2,1358984,false,false,1671,image-keyboard-response,27
true,16,0,1,0,true,q,false,true,0.0-2.0-0.58-0.530-3.530,0,0,0,81,false,stim,false,2,570.0999999940395,0,0,2,71781,task2,1361084,false,false,1674,image-keyboard-response,28
true,16,0,1,0,true,q,false,true,0.0-2.0-0.59-0.531-3.531,0,0,0,81,false,stim,false,2,1170.7000000029802,0,0,2,71781,task2,1363771,false,false,1677,image-keyboard-response,29
true,16,2,1,2,true,d,false,true,0.0-2.0-0.59-0.532-3.532,0,0,0,68,false,stim,false,0,899.6000000089407,0,0,0,71781,task2,1366200,false,false,1680,image-keyboard-response,30
true,16,2,1,2,true,d,false,true,0.0-2.0-0.59-0.533-3.533,0,0,0,68,false,stim,false,0,824.7999999970198,0,1,1,71781,task2,1368559,false,false,1683,image-keyboard-response,31
true,16,0,1,0,true,q,false,true,0.0-2.0-0.59-0.534-3.534,0,0,0,81,false,stim,false,2,803.0,0,1,2,71781,task2,1370874,false,false,1686,image-keyboard-response,32
true,16,2,1,2,true,d,false,true,0.0-2.0-0.59-0.535-3.535,0,0,0,68,false,stim,false,0,1004.2000000029802,0,1,0,71781,task2,1373406,false,false,1689,image-keyboard-response,33
true,16,2,1,2,true,d,false,true,0.0-2.0-0.59-0.536-3.536,0,0,0,68,false,stim,false,0,517.3999999910593,0,1,1,71781,task2,1375441,false,false,1692,image-keyboard-response,34
true,16,0,1,0,true,q,false,true,0.0-2.0-0.59-0.537-3.537,0,0,0,81,false,stim,false,2,429.8999999910593,0,1,2,71781,task2,1377400,false,false,1695,image-keyboard-response,35
true,17,0,0,2,false,d,true,false,0.0-2.0-0.59-0.538-3.538,1,1,1,81,true,stim,false,2,1292.7999999970198,0,1,0,71781,task2,1501626,false,false,1818,image-keyboard-response,1
true,17,1,0,2,false,d,true,false,0.0-2.0-0.59-0.539-3.539,1,1,1,90,false,stim,false,2,1207.2000000029802,0,1,1,71781,task2,1504345,false,false,1821,image-keyboard-response,2
true,17,1,0,2,false,d,true,false,0.0-2.0-0.60-0.540-3.540,1,1,1,90,false,stim,false,2,1481.0,0,1,1,71781,task2,1507353,false,false,1824,image-keyboard-response,3
true,17,0,0,0,true,q,false,true,0.0-2.0-0.60-0.541-3.541,1,1,1,81,false,stim,false,0,1021.0,0,1,2,71781,task2,1509909,false,false,1827,image-keyboard-response,4
true,17,2,0,2,true,d,false,true,0.0-2.0-0.60-0.542-3.542,1,1,1,68,false,stim,false,2,898.6999999880791,0,1,1,71781,task2,1512323,false,false,1830,image-keyboard-response,5
true,17,2,0,2,true,d,false,true,0.0-2.0-0.60-0.543-3.543,1,1,1,68,false,stim,false,2,982.4000000059605,0,1,0,71781,task2,1514842,false,false,1833,image-keyboard-response,6
true,17,0,0,0,true,q,false,true,0.0-2.0-0.60-0.544-3.544,1,1,1,81,false,stim,false,0,501.69999998807907,0,1,2,71781,task2,1516875,false,false,1836,image-keyboard-response,7
true,17,0,0,0,true,q,false,true,0.0-2.0-0.60-0.545-3.545,1,1,1,81,false,stim,false,0,999.2999999970198,0,1,2,71781,task2,1519408,false,false,1839,image-keyboard-response,8
true,17,2,0,2,true,d,false,true,0.0-2.0-0.60-0.546-3.546,1,1,1,68,false,stim,false,2,506.90000000596046,0,0,0,71781,task2,1521451,false,false,1842,image-keyboard-response,9
true,17,2,0,2,true,d,false,true,0.0-2.0-0.60-0.547-3.547,1,1,1,68,false,stim,false,2,508.29999999701977,0,0,0,71781,task2,1523470,false,false,1845,image-keyboard-response,10
true,17,2,0,2,true,d,false,true,0.0-2.0-0.60-0.548-3.548,1,1,1,68,false,stim,false,2,681.7000000029802,0,1,1,71781,task2,1525678,false,false,1848,image-keyboard-response,11
true,17,2,0,2,true,d,false,true,0.0-2.0-0.61-0.549-3.549,1,1,1,68,false,stim,false,2,678.1999999880791,0,0,0,71781,task2,1527906,false,false,1851,image-keyboard-response,12
true,17,2,0,2,true,d,false,true,0.0-2.0-0.61-0.550-3.550,1,1,1,68,false,stim,false,2,541.6000000089407,0,1,1,71781,task2,1529970,false,false,1854,image-keyboard-response,13
true,18,2,2,2,true,d,false,true,0.0-2.0-0.61-0.551-3.551,0,1,0,68,true,stim,false,2,591.6000000089407,0,1,1,71781,task2,1532089,false,false,1857,image-keyboard-response,1
true,18,0,2,1,false,z,false,false,0.0-2.0-0.61-0.552-3.552,0,1,0,81,false,stim,true,0,593.7999999970198,0,0,2,71781,task2,1534208,false,false,1860,image-keyboard-response,2
true,18,0,2,1,false,z,false,false,0.0-2.0-0.61-0.553-3.553,0,1,0,81,false,stim,true,0,635.6000000089407,0,0,2,71781,task2,1536367,false,false,1863,image-keyboard-response,3
true,18,1,2,1,true,z,false,true,0.0-2.0-0.61-0.554-3.554,0,1,0,90,false,stim,false,0,881.3000000119209,0,0,2,71781,task2,1538780,false,false,1866,image-keyboard-response,4
true,18,2,2,2,true,d,false,true,0.0-2.0-0.61-0.555-3.555,0,1,0,68,false,stim,false,2,517.3000000119209,0,1,1,71781,task2,1540818,false,false,1869,image-keyboard-response,5
true,18,2,2,0,false,q,false,false,0.0-2.0-0.61-0.556-3.556,0,1,0,68,false,stim,true,2,797.3000000119209,0,0,0,71781,task2,1543148,false,false,1872,image-keyboard-response,6
true,18,1,2,0,false,q,true,false,0.0-2.0-0.61-0.557-3.557,0,1,0,90,false,stim,false,2,812.2999999970198,0,0,0,71781,task2,1545481,false,false,1875,image-keyboard-response,7
true,18,2,2,2,true,d,false,true,0.0-2.0-0.62-0.558-3.558,0,1,0,68,false,stim,false,2,756.1000000089407,0,1,1,71781,task2,1547760,false,false,1878,image-keyboard-response,8
true,18,2,2,2,true,d,false,true,0.0-2.0-0.62-0.559-3.559,0,1,0,68,false,stim,false,2,991.0,0,1,1,71781,task2,1550278,false,false,1881,image-keyboard-response,9
true,18,0,2,0,true,q,false,true,0.0-2.0-0.62-0.560-3.560,0,1,0,81,false,stim,false,2,654.6000000089407,0,0,0,71781,task2,1552461,false,false,1884,image-keyboard-response,10
true,18,2,2,2,true,d,false,true,0.0-2.0-0.62-0.561-3.561,0,1,0,68,false,stim,false,2,771.7999999970198,0,1,1,71781,task2,1554760,false,false,1887,image-keyboard-response,11
true,18,1,2,1,true,z,false,true,0.0-2.0-0.62-0.562-3.562,0,1,0,90,false,stim,false,0,613.0,0,0,2,71781,task2,1556888,false,false,1890,image-keyboard-response,12
true,18,1,2,1,true,z,false,true,0.0-2.0-0.62-0.563-3.563,0,1,0,90,false,stim,false,0,562.3999999910593,0,0,2,71781,task2,1558972,false,false,1893,image-keyboard-response,13
true,18,0,2,0,true,q,false,true,0.0-2.0-0.62-0.564-3.564,0,1,0,81,false,stim,false,2,489.20000000298023,0,0,0,71781,task2,1560965,false,false,1896,image-keyboard-response,14
true,18,0,2,0,true,q,false,true,0.0-2.0-0.62-0.565-3.565,0,1,0,81,false,stim,false,2,477.70000000298023,0,0,0,71781,task2,1562954,false,false,1899,image-keyboard-response,15
true,18,1,2,1,true,z,false,true,0.0-2.0-0.62-0.566-3.566,0,1,0,90,false,stim,false,0,727.5999999940395,0,0,2,71781,task2,1565207,false,false,1902,image-keyboard-response,16
true,18,1,2,1,true,z,false,true,0.0-2.0-0.63-0.567-3.567,0,1,0,90,false,stim,false,0,633.7999999970198,0,0,2,71781,task2,1567362,false,false,1905,image-keyboard-response,17
true,18,0,2,0,true,q,false,true,0.0-2.0-0.63-0.568-3.568,0,1,0,81,false,stim,false,2,729.2000000029802,0,0,0,71781,task2,1569625,false,false,1908,image-keyboard-response,18
true,18,2,2,2,true,d,false,true,0.0-2.0-0.63-0.569-3.569,0,1,0,68,false,stim,false,2,555.7999999970198,0,1,1,71781,task2,1571704,false,false,1911,image-keyboard-response,19
true,18,2,2,2,true,d,false,true,0.0-2.0-0.63-0.570-3.570,0,1,0,68,false,stim,false,2,466.79999999701977,0,1,1,71781,task2,1573681,false,false,1914,image-keyboard-response,20
true,18,1,2,1,true,z,false,true,0.0-2.0-0.63-0.571-3.571,0,1,0,90,false,stim,false,0,1008.0,0,0,2,71781,task2,1576221,false,false,1917,image-keyboard-response,21
true,18,0,2,0,true,q,false,true,0.0-2.0-0.63-0.572-3.572,0,1,0,81,false,stim,false,2,707.9000000059605,0,0,0,71781,task2,1578454,false,false,1920,image-keyboard-response,22
true,18,2,2,2,true,d,false,true,0.0-2.0-0.63-0.573-3.573,0,1,0,68,false,stim,false,2,660.1999999880791,0,1,1,71781,task2,1580637,false,false,1923,image-keyboard-response,23
true,18,0,2,0,true,q,false,true,0.0-2.0-0.63-0.574-3.574,0,1,0,81,false,stim,false,2,528.7000000029802,0,0,0,71781,task2,1582697,false,false,1926,image-keyboard-response,24
true,18,1,2,1,true,z,false,true,0.0-2.0-0.63-0.575-3.575,0,1,0,90,false,stim,false,0,506.09999999403954,0,0,2,71781,task2,1584725,false,false,1929,image-keyboard-response,25
true,18,1,2,1,true,z,false,true,0.0-2.0-0.64-0.576-3.576,0,1,0,90,false,stim,false,0,411.40000000596046,0,0,2,71781,task2,1586664,false,false,1932,image-keyboard-response,26
true,18,0,2,0,true,q,false,true,0.0-2.0-0.64-0.577-3.577,0,1,0,81,false,stim,false,2,721.3999999910593,0,0,0,71781,task2,1588907,false,false,1935,image-keyboard-response,27
true,18,0,2,0,true,q,false,true,0.0-2.0-0.64-0.578-3.578,0,1,0,81,false,stim,false,2,699.0,0,0,0,71781,task2,1591135,false,false,1938,image-keyboard-response,28
true,18,2,2,2,true,d,false,true,0.0-2.0-0.64-0.579-3.579,0,1,0,68,false,stim,false,2,1248.2999999970198,0,0,1,71781,task2,1593904,false,false,1941,image-keyboard-response,29
true,18,0,2,0,true,q,false,true,0.0-2.0-0.64-0.580-3.580,0,1,0,81,false,stim,false,2,480.20000000298023,0,0,0,71781,task2,1595918,false,false,1944,image-keyboard-response,30
true,18,2,2,2,true,d,false,false,0.0-2.0-0.64-0.581-3.581,0,1,0,68,false,stim,false,2,703.2999999970198,0,0,1,71781,task2,1598161,false,true,1947,image-keyboard-response,31
true,18,1,2,1,true,z,false,true,0.0-2.0-0.64-0.582-3.582,0,1,0,90,false,stim,false,0,598.5,0,0,2,71781,task2,1600289,false,false,1950,image-keyboard-response,32
true,18,1,2,2,false,d,true,false,0.0-2.0-0.64-0.583-3.583,0,1,0,90,false,stim,false,2,1101.6000000089407,0,0,1,71781,task2,1602927,false,false,1953,image-keyboard-response,33
true,19,1,1,2,false,d,false,false,0.0-2.0-0.64-0.584-3.584,0,0,0,90,true,stim,true,1,852.7999999970198,0,0,2,71781,task2,1605311,false,false,1956,image-keyboard-response,1
true,19,0,1,1,false,z,false,false,0.0-2.0-0.65-0.585-3.585,0,0,0,81,false,stim,true,0,401.09999999403954,0,0,0,71781,task2,1607245,false,false,1959,image-keyboard-response,2
true,19,1,1,0,false,q,true,false,0.0-2.0-0.65-0.586-3.586,0,0,0,90,false,stim,false,2,1135.6000000089407,0,0,1,71781,task2,1609913,false,false,1962,image-keyboard-response,3
true,19,2,1,0,false,q,false,false,0.0-2.0-0.65-0.587-3.587,0,0,0,68,false,stim,true,2,497.40000000596046,0,0,1,71781,task2,1611956,false,false,1965,image-keyboard-response,4
true,19,1,1,1,true,z,false,true,0.0-2.0-0.65-0.588-3.588,0,0,0,90,false,stim,false,0,976.0,0,0,0,71781,task2,1614454,false,false,1968,image-keyboard-response,5
true,19,0,1,2,false,d,true,false,0.0-2.0-0.65-0.589-3.589,0,0,0,81,false,stim,false,1,701.4000000059605,0,0,2,71781,task2,1616678,false,false,1971,image-keyboard-response,6
true,19,2,1,2,true,d,false,true,0.0-2.0-0.65-0.590-3.590,0,0,0,68,false,stim,false,1,1113.2999999970198,0,0,2,71781,task2,1619327,false,false,1974,image-keyboard-response,7
true,19,1,1,1,true,z,false,true,0.0-2.0-0.65-0.591-3.591,0,0,0,90,false,stim,false,0,673.5999999940395,0,0,0,71781,task2,1621524,false,false,1977,image-keyboard-response,8
