answered,blockNum,choice,condition,corResp,correct,correct_response,explo,fb,internal_node_id,isStable_1,isStable_2,isStable_3,key_press,newBlock,part,persev,persevResp,rt,sessNum,stableAS,stimulus,subject,task,time_elapsed,training,trap,trial_index,trial_type,trialsInBlock
true,1,0,0,1,false,z,true,false,0.0-2.0-0.0-0.0-3.0,0,0,0,81,true,stim,false,-1,791.2000000001863,1,0,1,71781,task3,264606,false,false,85,image-keyboard-response,1
true,1,0,0,0,true,q,false,true,0.0-2.0-0.0-0.1-3.1,0,0,0,81,false,stim,false,-1,544.7000000001863,1,0,0,71781,task3,266670,false,false,88,image-keyboard-response,2
true,1,0,0,0,true,q,false,false,0.0-2.0-0.0-0.2-3.2,0,0,0,81,false,stim,false,-1,526.7000000001863,1,0,0,71781,task3,268718,false,true,91,image-keyboard-response,3
true,1,0,0,0,true,q,false,true,0.0-2.0-0.0-0.3-3.3,0,0,0,81,false,stim,false,-1,669.4000000003725,1,0,2,71781,task3,270915,false,false,94,image-keyboard-response,4
true,1,0,0,0,true,q,false,true,0.0-2.0-0.0-0.4-3.4,0,0,0,81,false,stim,false,-1,455.29999999981374,1,0,2,71781,task3,272889,false,false,97,image-keyboard-response,5
true,1,1,0,0,false,q,true,false,0.0-2.0-0.0-0.5-3.5,0,0,0,90,false,stim,false,-1,852.8999999994412,1,0,0,71781,task3,275262,false,false,100,image-keyboard-response,6
true,1,1,0,1,true,z,false,true,0.0-2.0-0.0-0.6-3.6,0,0,0,90,false,stim,false,-1,822.0,1,0,1,71781,task3,277607,false,false,103,image-keyboard-response,7
true,1,1,0,1,true,z,false,true,0.0-2.0-0.0-0.7-3.7,0,0,0,90,false,stim,false,-1,543.5,1,0,1,71781,task3,279678,false,false,106,image-keyboard-response,8
true,1,0,0,0,true,q,false,true,0.0-2.0-0.0-0.8-3.8,0,0,0,81,false,stim,false,-1,567.5,1,0,2,71781,task3,281762,false,false,109,image-keyboard-response,9
true,1,0,0,0,true,q,false,true,0.0-2.0-0.1-0.9-3.9,0,0,0,81,false,stim,false,-1,664.2000000001863,1,0,2,71781,task3,283945,false,false,112,image-keyboard-response,10
true,1,1,0,1,true,z,false,true,0.0-2.0-0.1-0.10-3.10,0,0,0,90,false,stim,false,-1,628.8000000007451,1,0,1,71781,task3,286093,false,false,115,image-keyboard-response,11
true,1,2,0,0,false,q,true,false,0.0-2.0-0.1-0.11-3.11,0,0,0,68,false,stim,false,-1,935.5999999996275,1,0,0,71781,task3,288552,false,false,118,image-keyboard-response,12
true,1,0,0,0,true,q,false,false,0.0-2.0-0.1-0.12-3.12,0,0,0,81,false,stim,false,-1,826.9000000003725,1,0,2,71781,task3,290895,false,true,121,image-keyboard-response,13
true,1,0,0,0,true,q,false,true,0.0-2.0-0.1-0.13-3.13,0,0,0,81,false,stim,false,-1,868.7999999998137,1,0,0,71781,task3,293287,false,false,124,image-keyboard-response,14
true,1,0,0,0,true,q,false,false,0.0-2.0-0.1-0.14-3.14,0,0,0,81,false,stim,false,-1,515.4000000003725,1,0,0,71781,task3,295341,false,true,127,image-keyboard-response,15
true,1,0,0,0,true,q,false,true,0.0-2.0-0.1-0.15-3.15,0,0,0,81,false,stim,false,-1,1102.0999999996275,1,0,2,71781,task3,297954,false,false,130,image-keyboard-response,16
true,1,1,0,1,true,z,false,true,0.0-2.0-0.1-0.16-3.16,0,0,0,90,false,stim,false,-1,747.0,1,0,1,71781,task3,300217,false,false,133,image-keyboard-response,17
true,1,1,0,1,true,z,false,true,0.0-2.0-0.1-0.17-3.17,0,0,0,90,false,stim,false,-1,461.8999999994412,1,0,1,71781,task3,302190,false,false,136,image-keyboard-response,18
true,1,0,0,0,true,q,false,true,0.0-2.0-0.2-0.18-3.18,0,0,0,81,false,stim,false,-1,1371.8999999994412,1,0,0,71781,task3,305077,false,false,139,image-keyboard-response,19
true,1,1,0,1,true,z,false,true,0.0-2.0-0.2-0.19-3.19,0,0,0,90,false,stim,false,-1,820.6000000005588,1,0,1,71781,task3,307427,false,false,142,image-keyboard-response,20
true,1,0,0,0,true,q,false,false,0.0-2.0-0.2-0.20-3.20,0,0,0,81,false,stim,false,-1,521.6000000005588,1,0,2,71781,task3,309469,false,true,145,image-keyboard-response,21
true,1,0,0,0,true,q,false,true,0.0-2.0-0.2-0.21-3.21,0,0,0,81,false,stim,false,-1,701.2000000001863,1,0,0,71781,task3,311692,false,false,148,image-keyboard-response,22
true,1,1,0,0,false,q,true,false,0.0-2.0-0.2-0.22-3.22,0,0,0,90,false,stim,false,-1,1251.5,1,0,2,71781,task3,314460,false,false,151,image-keyboard-response,23
true,1,1,0,1,true,z,false,true,0.0-2.0-0.2-0.23-3.23,0,0,0,90,false,stim,false,-1,629.2000000001863,1,1,1,71781,task3,316609,false,false,154,image-keyboard-response,24
true,1,2,0,0,false,q,true,false,0.0-2.0-0.2-0.24-3.24,0,0,0,68,false,stim,false,-1,1038.2000000001863,1,0,2,71781,task3,319166,false,false,157,image-keyboard-response,25
true,1,1,0,1,true,z,false,false,0.0-2.0-0.2-0.25-3.25,0,0,0,90,false,stim,false,-1,976.3999999994412,1,1,1,71781,task3,321650,false,true,160,image-keyboard-response,26
true,2,1,1,2,false,d,true,false,0.0-2.0-0.2-0.26-3.26,0,1,0,90,true,stim,false,0,971.1999999992549,1,0,0,71781,task3,324138,false,false,163,image-keyboard-response,1
true,2,1,1,1,true,z,false,false,0.0-2.0-0.3-0.27-3.27,0,1,0,90,false,stim,false,1,995.0,1,1,1,71781,task3,326645,false,true,166,image-keyboard-response,2
true,2,0,1,2,false,d,false,false,0.0-2.0-0.3-0.28-3.28,0,1,0,81,false,stim,true,0,660.7000000001863,1,0,2,71781,task3,328828,false,false,169,image-keyboard-response,3
true,2,0,1,2,false,d,false,true,0.0-2.0-0.3-0.29-3.29,0,1,0,81,false,stim,true,0,521.2999999998137,1,0,0,71781,task3,330872,false,true,172,image-keyboard-response,4
true,2,0,1,2,false,d,false,false,0.0-2.0-0.3-0.30-3.30,0,1,0,81,false,stim,true,0,456.6000000005588,1,0,0,71781,task3,332835,false,false,175,image-keyboard-response,5
true,2,0,1,2,false,d,false,false,0.0-2.0-0.3-0.31-3.31,0,1,0,81,false,stim,true,0,768.1000000005588,1,0,0,71781,task3,335128,false,false,178,image-keyboard-response,6
true,2,1,1,1,true,z,false,true,0.0-2.0-0.3-0.32-3.32,0,1,0,90,false,stim,false,1,1194.2000000001863,1,1,1,71781,task3,337842,false,false,181,image-keyboard-response,7
true,2,0,1,2,false,d,false,false,0.0-2.0-0.3-0.33-3.33,0,1,0,81,false,stim,true,0,1244.4000000003725,1,0,2,71781,task3,340609,false,false,184,image-keyboard-response,8
true,2,1,1,1,true,z,false,true,0.0-2.0-0.3-0.34-3.34,0,1,0,90,false,stim,false,1,565.5999999996275,1,1,1,71781,task3,342687,false,false,187,image-keyboard-response,9
true,2,2,1,2,true,d,false,true,0.0-2.0-0.3-0.35-3.35,0,1,0,68,false,stim,false,0,559.5,1,0,2,71781,task3,344756,false,false,190,image-keyboard-response,10
true,2,1,1,1,true,z,false,true,0.0-2.0-0.4-0.36-3.36,0,1,0,90,false,stim,false,1,787.0,1,1,1,71781,task3,347053,false,false,193,image-keyboard-response,11
true,2,2,1,2,true,d,false,true,0.0-2.0-0.4-0.37-3.37,0,1,0,68,false,stim,false,0,462.70000000018626,1,0,2,71781,task3,349047,false,false,196,image-keyboard-response,12
true,2,1,1,1,true,z,false,true,0.0-2.0-0.4-0.38-3.38,0,1,0,90,false,stim,false,1,716.6000000005588,1,1,1,71781,task3,351285,false,false,199,image-keyboard-response,13
true,2,2,1,2,true,d,false,true,0.0-2.0-0.4-0.39-3.39,0,1,0,68,false,stim,false,0,420.09999999962747,1,0,2,71781,task3,353239,false,false,202,image-keyboard-response,14
true,2,2,1,2,true,d,false,true,0.0-2.0-0.4-0.40-3.40,0,1,0,68,false,stim,false,0,632.6000000005588,1,0,2,71781,task3,355392,false,false,205,image-keyboard-response,15
true,2,2,1,2,true,d,false,false,0.0-2.0-0.4-0.41-3.41,0,1,0,68,false,stim,false,0,1708.0999999996275,1,0,0,71781,task3,358629,false,true,208,image-keyboard-response,16
true,2,1,1,2,false,d,true,true,0.0-2.0-0.4-0.42-3.42,0,1,0,90,false,stim,false,0,939.0999999996275,1,0,0,71781,task3,361117,false,true,211,image-keyboard-response,17
true,2,1,1,2,false,d,true,false,0.0-2.0-0.4-0.43-3.43,0,1,0,90,false,stim,false,0,561.6999999992549,1,0,0,71781,task3,363205,false,false,214,image-keyboard-response,18
true,2,1,1,1,true,z,false,true,0.0-2.0-0.4-0.44-3.44,0,1,0,90,false,stim,false,1,793.8999999994412,1,1,1,71781,task3,365518,false,false,217,image-keyboard-response,19
true,2,2,1,2,true,d,false,true,0.0-2.0-0.5-0.45-3.45,0,1,0,68,false,stim,false,0,566.1999999992549,1,0,2,71781,task3,367607,false,false,220,image-keyboard-response,20
true,2,1,1,1,true,z,false,false,0.0-2.0-0.5-0.46-3.46,0,1,0,90,false,stim,false,1,665.5,1,1,1,71781,task3,369799,false,true,223,image-keyboard-response,21
true,2,0,1,1,false,z,true,false,0.0-2.0-0.5-0.47-3.47,0,1,0,81,false,stim,false,1,1353.7999999998137,1,1,1,71781,task3,372682,false,false,226,image-keyboard-response,22
true,2,1,1,2,false,d,true,false,0.0-2.0-0.5-0.48-3.48,0,1,0,90,false,stim,false,0,952.0,1,1,0,71781,task3,375155,false,false,229,image-keyboard-response,23
true,2,2,1,2,true,d,false,true,0.0-2.0-0.5-0.49-3.49,0,1,0,68,false,stim,false,0,590.5,1,0,2,71781,task3,377275,false,false,232,image-keyboard-response,24
true,2,2,1,2,true,d,false,true,0.0-2.0-0.5-0.50-3.50,0,1,0,68,false,stim,false,0,1179.2999999998137,1,1,0,71781,task3,379967,false,false,235,image-keyboard-response,25
true,2,2,1,2,true,d,false,true,0.0-2.0-0.5-0.51-3.51,0,1,0,68,false,stim,false,0,603.1000000005588,1,1,0,71781,task3,382095,false,false,238,image-keyboard-response,26
true,3,2,2,0,false,q,false,false,0.0-2.0-0.5-0.52-3.52,1,1,0,68,true,stim,true,2,700.2999999998137,1,0,2,71781,task3,384322,false,false,241,image-keyboard-response,1
true,3,0,2,1,false,z,true,false,0.0-2.0-0.5-0.53-3.53,1,1,0,81,false,stim,false,1,1290.0,1,1,1,71781,task3,387135,false,false,244,image-keyboard-response,2
true,3,2,2,0,false,q,false,false,0.0-2.0-0.6-0.54-3.54,1,1,0,68,false,stim,true,2,689.0999999996275,1,0,2,71781,task3,389361,false,false,247,image-keyboard-response,3
true,3,2,2,2,true,d,false,true,0.0-2.0-0.6-0.55-3.55,1,1,0,68,false,stim,false,2,433.20000000018626,1,1,0,71781,task3,391329,false,false,250,image-keyboard-response,4
true,3,1,2,0,false,q,true,false,0.0-2.0-0.6-0.56-3.56,1,1,0,90,false,stim,false,2,619.2999999998137,1,0,2,71781,task3,393476,false,false,253,image-keyboard-response,5
true,3,2,2,2,true,d,false,true,0.0-2.0-0.6-0.57-3.57,1,1,0,68,false,stim,false,2,931.2000000001863,1,1,0,71781,task3,395928,false,false,256,image-keyboard-response,6
true,3,1,2,1,true,z,false,true,0.0-2.0-0.6-0.58-3.58,1,1,0,90,false,stim,false,1,1015.0,1,1,1,71781,task3,398457,false,false,259,image-keyboard-response,7
true,3,1,2,1,true,z,false,false,0.0-2.0-0.6-0.59-3.59,1,1,0,90,false,stim,false,1,538.0999999996275,1,1,1,71781,task3,400514,false,true,262,image-keyboard-response,8
true,3,0,2,0,true,q,false,true,0.0-2.0-0.6-0.60-3.60,1,1,0,81,false,stim,false,2,1833.699999999255,1,0,2,71781,task3,403877,false,false,265,image-keyboard-response,9
true,3,0,2,1,false,z,true,false,0.0-2.0-0.6-0.61-3.61,1,1,0,81,false,stim,false,1,1865.2999999998137,1,1,1,71781,task3,407270,false,false,268,image-keyboard-response,10
true,3,2,2,2,true,d,false,true,0.0-2.0-0.6-0.62-3.62,1,1,0,68,false,stim,false,2,533.5,1,1,0,71781,task3,409329,false,false,271,image-keyboard-response,11
true,3,1,2,1,true,z,false,true,0.0-2.0-0.7-0.63-3.63,1,1,0,90,false,stim,false,1,1581.9000000003725,1,1,1,71781,task3,412431,false,false,274,image-keyboard-response,12
true,3,2,2,2,true,d,false,true,0.0-2.0-0.7-0.64-3.64,1,1,0,68,false,stim,false,2,646.5,1,1,0,71781,task3,414603,false,false,277,image-keyboard-response,13
true,3,1,2,1,true,z,false,true,0.0-2.0-0.7-0.65-3.65,1,1,0,90,false,stim,false,1,1352.8999999994412,1,1,1,71781,task3,417477,false,false,280,image-keyboard-response,14
true,3,0,2,0,true,q,false,true,0.0-2.0-0.7-0.66-3.66,1,1,0,81,false,stim,false,2,624.1000000005588,1,0,2,71781,task3,419624,false,false,283,image-keyboard-response,15
true,3,0,2,0,true,q,false,true,0.0-2.0-0.7-0.67-3.67,1,1,0,81,false,stim,false,2,505.09999999962747,1,0,2,71781,task3,421648,false,false,286,image-keyboard-response,16
true,3,2,2,2,true,d,false,true,0.0-2.0-0.7-0.68-3.68,1,1,0,68,false,stim,false,2,1292.7000000001863,1,1,0,71781,task3,424471,false,false,289,image-keyboard-response,17
true,3,1,2,1,true,z,false,true,0.0-2.0-0.7-0.69-3.69,1,1,0,90,false,stim,false,1,710.8999999994412,1,1,1,71781,task3,426699,false,false,292,image-keyboard-response,18
true,3,0,2,0,true,q,false,true,0.0-2.0-0.7-0.70-3.70,1,1,0,81,false,stim,false,2,914.2000000001863,1,0,2,71781,task3,429142,false,false,295,image-keyboard-response,19
true,3,2,2,2,true,d,false,true,0.0-2.0-0.7-0.71-3.71,1,1,0,68,false,stim,false,2,1363.9000000003725,1,1,0,71781,task3,432020,false,false,298,image-keyboard-response,20
true,3,2,2,2,true,d,false,true,0.0-2.0-0.8-0.72-3.72,1,1,0,68,false,stim,false,2,469.40000000037253,1,1,0,71781,task3,434003,false,false,301,image-keyboard-response,21
true,3,1,2,1,true,z,false,false,0.0-2.0-0.8-0.73-3.73,1,1,0,90,false,stim,false,1,681.6999999992549,1,0,1,71781,task3,436221,false,true,304,image-keyboard-response,22
true,3,2,2,2,true,d,false,true,0.0-2.0-0.8-0.74-3.74,1,1,0,68,false,stim,false,2,605.5,1,1,0,71781,task3,438345,false,false,307,image-keyboard-response,23
true,3,0,2,0,true,q,false,false,0.0-2.0-0.8-0.75-3.75,1,1,0,81,false,stim,false,2,575.3999999994412,1,0,2,71781,task3,440442,false,true,310,image-keyboard-response,24
true,4,1,1,1,true,z,false,true,0.0-2.0-0.8-0.76-3.76,1,0,0,90,true,stim,false,0,926.4000000003725,1,0,2,71781,task3,442886,false,false,313,image-keyboard-response,1
true,4,0,1,0,true,q,false,true,0.0-2.0-0.8-0.77-3.77,1,0,0,81,false,stim,false,1,825.5999999996275,1,0,1,71781,task3,445234,false,false,316,image-keyboard-response,2
true,4,1,1,1,true,z,false,true,0.0-2.0-0.8-0.78-3.78,1,0,0,90,false,stim,false,0,1027.0999999996275,1,0,2,71781,task3,447772,false,false,319,image-keyboard-response,3
true,4,2,1,2,true,d,false,true,0.0-2.0-0.8-0.79-3.79,1,0,0,68,false,stim,false,2,705.8999999994412,1,1,0,71781,task3,450000,false,false,322,image-keyboard-response,4
true,4,0,1,0,true,q,false,true,0.0-2.0-0.8-0.80-3.80,1,0,0,81,false,stim,false,1,438.0,1,0,1,71781,task3,451974,false,false,325,image-keyboard-response,5
true,4,2,1,2,true,d,false,true,0.0-2.0-0.9-0.81-3.81,1,0,0,68,false,stim,false,2,841.7999999998137,1,1,0,71781,task3,454338,false,false,328,image-keyboard-response,6
true,4,1,1,1,true,z,false,true,0.0-2.0-0.9-0.82-3.82,1,0,0,90,false,stim,false,0,919.2000000001863,1,0,2,71781,task3,456784,false,false,331,image-keyboard-response,7
true,4,0,1,0,true,q,false,true,0.0-2.0-0.9-0.83-3.83,1,0,0,81,false,stim,false,1,603.7999999998137,1,0,1,71781,task3,458922,false,false,334,image-keyboard-response,8
true,4,1,1,1,true,z,false,false,0.0-2.0-0.9-0.84-3.84,1,0,0,90,false,stim,false,0,898.7000000001863,1,0,2,71781,task3,461347,false,true,337,image-keyboard-response,9
true,4,0,1,0,true,q,false,true,0.0-2.0-0.9-0.85-3.85,1,0,0,81,false,stim,false,1,1676.2999999998137,1,0,1,71781,task3,464544,false,false,340,image-keyboard-response,10
true,4,2,1,2,true,d,false,true,0.0-2.0-0.9-0.86-3.86,1,0,0,68,false,stim,false,2,709.2999999998137,1,1,0,71781,task3,466772,false,false,343,image-keyboard-response,11
true,4,1,1,1,true,z,false,true,0.0-2.0-0.9-0.87-3.87,1,0,0,90,false,stim,false,0,902.5,1,0,2,71781,task3,469195,false,false,346,image-keyboard-response,12
true,4,2,1,2,true,d,false,true,0.0-2.0-0.9-0.88-3.88,1,0,0,68,false,stim,false,2,744.6999999992549,1,1,0,71781,task3,471474,false,false,349,image-keyboard-response,13
true,4,0,1,0,true,q,false,true,0.0-2.0-0.9-0.89-3.89,1,0,0,81,false,stim,false,1,777.1999999992549,1,0,1,71781,task3,473762,false,false,352,image-keyboard-response,14
true,4,0,1,0,true,q,false,true,0.0-2.0-0.10-0.90-3.90,1,0,0,81,false,stim,false,1,523.5,1,0,1,71781,task3,475820,false,false,355,image-keyboard-response,15
true,4,2,1,2,true,d,false,true,0.0-2.0-0.10-0.91-3.91,1,0,0,68,false,stim,false,2,950.3000000007451,1,1,0,71781,task3,478284,false,false,358,image-keyboard-response,16
true,4,1,1,1,true,z,false,true,0.0-2.0-0.10-0.92-3.92,1,0,0,90,false,stim,false,0,1006.6000000005588,1,0,2,71781,task3,480817,false,false,361,image-keyboard-response,17
true,4,1,1,1,true,z,false,true,0.0-2.0-0.10-0.93-3.93,1,0,0,90,false,stim,false,0,486.70000000018626,1,0,2,71781,task3,482820,false,false,364,image-keyboard-response,18
true,4,2,1,2,true,d,false,true,0.0-2.0-0.10-0.94-3.94,1,0,0,68,false,stim,false,2,1535.0999999996275,1,0,0,71781,task3,485868,false,false,367,image-keyboard-response,19
true,4,0,1,0,true,q,false,false,0.0-2.0-0.10-0.95-3.95,1,0,0,81,false,stim,false,1,651.5,1,1,1,71781,task3,488036,false,true,370,image-keyboard-response,20
true,4,0,1,0,true,q,false,true,0.0-2.0-0.10-0.96-3.96,1,0,0,81,false,stim,false,1,652.8999999994412,1,1,1,71781,task3,490215,false,false,373,image-keyboard-response,21
true,4,1,1,1,true,z,false,true,0.0-2.0-0.10-0.97-3.97,1,0,0,90,false,stim,false,0,734.5999999996275,1,0,2,71781,task3,492463,false,false,376,image-keyboard-response,22
true,4,2,1,2,true,d,false,true,0.0-2.0-0.10-0.98-3.98,1,0,0,68,false,stim,false,2,673.4000000003725,1,0,0,71781,task3,494660,false,false,379,image-keyboard-response,23
true,5,2,1,0,false,q,false,false,0.0-2.0-0.11-0.99-3.99,0,1,0,68,true,stim,true,2,439.79999999981374,1,0,0,71781,task3,496619,false,false,382,image-keyboard-response,1
true,5,1,1,2,false,d,false,false,0.0-2.0-0.11-0.100-3.100,0,1,0,90,false,stim,true,1,852.5999999996275,1,0,2,71781,task3,498983,false,false,385,image-keyboard-response,2
true,5,1,1,2,false,d,false,true,0.0-2.0-0.11-0.101-3.101,0,1,0,90,false,stim,true,1,750.2000000001863,1,0,2,71781,task3,501256,false,true,388,image-keyboard-response,3
true,5,1,1,2,false,d,false,false,0.0-2.0-0.11-0.102-3.102,0,1,0,90,false,stim,true,1,545.0,1,0,2,71781,task3,503325,false,false,391,image-keyboard-response,4
true,5,0,1,0,true,q,false,true,0.0-2.0-0.11-0.103-3.103,0,1,0,81,false,stim,false,0,781.8000000007451,1,1,1,71781,task3,505622,false,false,394,image-keyboard-response,5
true,5,2,1,0,false,q,false,false,0.0-2.0-0.11-0.104-3.104,0,1,0,68,false,stim,true,2,730.7000000001863,1,0,0,71781,task3,507871,false,false,397,image-keyboard-response,6
true,5,0,1,0,true,q,false,true,0.0-2.0-0.11-0.105-3.105,0,1,0,81,false,stim,false,0,780.0,1,1,1,71781,task3,510164,false,false,400,image-keyboard-response,7
true,5,1,1,0,false,q,true,true,0.0-2.0-0.11-0.106-3.106,0,1,0,90,false,stim,false,2,655.1000000005588,1,0,0,71781,task3,512353,false,true,403,image-keyboard-response,8
true,5,0,1,0,true,q,false,true,0.0-2.0-0.11-0.107-3.107,0,1,0,81,false,stim,false,0,671.4000000003725,1,1,1,71781,task3,514541,false,false,406,image-keyboard-response,9
true,5,0,1,0,true,q,false,true,0.0-2.0-0.12-0.108-3.108,0,1,0,81,false,stim,false,0,613.7999999998137,1,1,1,71781,task3,516684,false,false,409,image-keyboard-response,10
true,5,0,1,0,true,q,false,true,0.0-2.0-0.12-0.109-3.109,0,1,0,81,false,stim,false,0,434.0,1,1,1,71781,task3,518647,false,false,412,image-keyboard-response,11
true,5,0,1,0,true,q,false,false,0.0-2.0-0.12-0.110-3.110,0,1,0,81,false,stim,false,0,379.59999999962747,1,1,1,71781,task3,520556,false,true,415,image-keyboard-response,12
true,5,1,1,0,false,q,true,true,0.0-2.0-0.12-0.111-3.111,0,1,0,90,false,stim,false,2,684.2000000001863,1,0,0,71781,task3,522759,false,true,418,image-keyboard-response,13
true,5,2,1,2,true,d,false,true,0.0-2.0-0.12-0.112-3.112,0,1,0,68,false,stim,false,1,1628.9000000003725,1,0,2,71781,task3,525902,false,false,421,image-keyboard-response,14
true,5,1,1,0,false,q,true,false,0.0-2.0-0.12-0.113-3.113,0,1,0,90,false,stim,false,2,730.1000000005588,1,0,0,71781,task3,528140,false,false,424,image-keyboard-response,15
true,5,1,1,0,false,q,true,false,0.0-2.0-0.12-0.114-3.114,0,1,0,90,false,stim,false,2,517.5,1,0,0,71781,task3,530178,false,false,427,image-keyboard-response,16
true,5,2,1,2,true,d,false,true,0.0-2.0-0.12-0.115-3.115,0,1,0,68,false,stim,false,1,577.7000000001863,1,0,2,71781,task3,532278,false,false,430,image-keyboard-response,17
true,5,2,1,2,true,d,false,true,0.0-2.0-0.12-0.116-3.116,0,1,0,68,false,stim,false,1,957.2999999998137,1,0,2,71781,task3,534755,false,false,433,image-keyboard-response,18
true,5,2,1,2,true,d,false,true,0.0-2.0-0.13-0.117-3.117,0,1,0,68,false,stim,false,1,686.5,1,0,2,71781,task3,536964,false,false,436,image-keyboard-response,19
true,5,1,1,0,false,q,true,false,0.0-2.0-0.13-0.118-3.118,0,1,0,90,false,stim,false,0,755.6000000005588,1,1,1,71781,task3,539243,false,false,439,image-keyboard-response,20
true,5,0,1,0,true,q,false,false,0.0-2.0-0.13-0.119-3.119,0,1,0,81,false,stim,false,0,430.5,1,1,1,71781,task3,541201,false,true,442,image-keyboard-response,21
true,5,2,1,0,false,q,true,false,0.0-2.0-0.13-0.120-3.120,0,1,0,68,false,stim,false,0,428.59999999962747,1,1,1,71781,task3,543159,false,false,445,image-keyboard-response,22
true,5,2,1,2,true,d,false,true,0.0-2.0-0.13-0.121-3.121,0,1,0,68,false,stim,false,1,668.5,1,0,2,71781,task3,545356,false,false,448,image-keyboard-response,23
true,5,0,1,0,true,q,false,true,0.0-2.0-0.13-0.122-3.122,0,1,0,81,false,stim,false,2,1121.7999999998137,1,1,0,71781,task3,548000,false,false,451,image-keyboard-response,24
true,5,0,1,0,true,q,false,true,0.0-2.0-0.13-0.123-3.123,0,1,0,81,false,stim,false,2,521.5,1,1,0,71781,task3,550047,false,false,454,image-keyboard-response,25
true,5,0,1,0,true,q,false,true,0.0-2.0-0.13-0.124-3.124,0,1,0,81,false,stim,false,2,508.3999999994412,1,1,0,71781,task3,552075,false,false,457,image-keyboard-response,26
true,5,2,1,2,true,d,false,true,0.0-2.0-0.13-0.125-3.125,0,1,0,68,false,stim,false,1,447.3999999994412,1,0,2,71781,task3,554049,false,false,460,image-keyboard-response,27
true,5,0,1,0,true,q,false,true,0.0-2.0-0.14-0.126-3.126,0,1,0,81,false,stim,false,2,657.4000000003725,1,1,0,71781,task3,556219,false,false,463,image-keyboard-response,28
true,6,2,2,1,false,z,false,false,0.0-2.0-0.14-0.127-3.127,1,1,0,68,true,stim,true,2,504.09999999962747,1,0,2,71781,task3,558233,false,false,466,image-keyboard-response,1
true,6,2,2,1,false,z,false,false,0.0-2.0-0.14-0.128-3.128,1,1,0,68,false,stim,true,2,978.5,1,0,2,71781,task3,560733,false,false,469,image-keyboard-response,2
true,6,1,2,1,true,z,false,true,0.0-2.0-0.14-0.129-3.129,1,1,0,90,false,stim,false,2,776.5999999996275,1,0,2,71781,task3,563022,false,false,472,image-keyboard-response,3
true,6,2,2,0,false,q,true,true,0.0-2.0-0.14-0.130-3.130,1,1,0,68,false,stim,false,0,1824.5,1,1,1,71781,task3,566364,false,true,475,image-keyboard-response,4
true,6,2,2,0,false,q,true,false,0.0-2.0-0.14-0.131-3.131,1,1,0,68,false,stim,false,0,896.2000000001863,1,1,1,71781,task3,568793,false,false,478,image-keyboard-response,5
true,6,0,2,0,true,q,false,true,0.0-2.0-0.14-0.132-3.132,1,1,0,81,false,stim,false,0,925.7000000001863,1,1,0,71781,task3,571251,false,false,481,image-keyboard-response,6
true,6,0,2,0,true,q,false,true,0.0-2.0-0.14-0.133-3.133,1,1,0,81,false,stim,false,0,592.9000000003725,1,1,0,71781,task3,573359,false,false,484,image-keyboard-response,7
true,6,0,2,0,true,q,false,true,0.0-2.0-0.14-0.134-3.134,1,1,0,81,false,stim,false,0,1204.1000000005588,1,1,1,71781,task3,576071,false,false,487,image-keyboard-response,8
true,6,1,2,1,true,z,false,true,0.0-2.0-0.15-0.135-3.135,1,1,0,90,false,stim,false,2,764.7000000001863,1,0,2,71781,task3,578365,false,false,490,image-keyboard-response,9
true,6,0,2,0,true,q,false,true,0.0-2.0-0.15-0.136-3.136,1,1,0,81,false,stim,false,0,399.09999999962747,1,0,0,71781,task3,580278,false,false,493,image-keyboard-response,10
true,6,0,2,0,true,q,false,true,0.0-2.0-0.15-0.137-3.137,1,1,0,81,false,stim,false,0,357.29999999981374,1,0,0,71781,task3,582168,false,false,496,image-keyboard-response,11
true,6,0,2,0,true,q,false,true,0.0-2.0-0.15-0.138-3.138,1,1,0,81,false,stim,false,0,353.5,1,0,0,71781,task3,584035,false,false,499,image-keyboard-response,12
true,6,1,2,1,true,z,false,true,0.0-2.0-0.15-0.139-3.139,1,1,0,90,false,stim,false,2,780.2000000001863,1,1,2,71781,task3,586348,false,false,502,image-keyboard-response,13
true,6,0,2,0,true,q,false,true,0.0-2.0-0.15-0.140-3.140,1,1,0,81,false,stim,false,0,811.1000000005588,1,0,1,71781,task3,588676,false,false,505,image-keyboard-response,14
true,7,0,1,1,false,z,false,false,0.0-2.0-0.15-0.141-3.141,0,0,1,81,true,stim,true,0,425.79999999981374,1,0,1,71781,task3,590624,false,false,508,image-keyboard-response,1
true,7,0,1,1,false,z,false,false,0.0-2.0-0.15-0.142-3.142,0,0,1,81,false,stim,true,0,771.2000000001863,1,0,1,71781,task3,592912,false,false,511,image-keyboard-response,2
true,7,1,1,1,true,z,false,true,0.0-2.0-0.15-0.143-3.143,0,0,1,90,false,stim,false,1,728.8999999994412,1,1,2,71781,task3,595166,false,false,514,image-keyboard-response,3
true,7,0,1,2,false,d,false,false,0.0-2.0-0.16-0.144-3.144,0,0,1,81,false,stim,true,0,746.8999999994412,1,0,0,71781,task3,597429,false,false,517,image-keyboard-response,4
true,7,1,1,1,true,z,false,true,0.0-2.0-0.16-0.145-3.145,0,0,1,90,false,stim,false,1,549.4000000003725,1,1,2,71781,task3,599493,false,false,520,image-keyboard-response,5
true,7,1,1,1,true,z,false,true,0.0-2.0-0.16-0.146-3.146,0,0,1,90,false,stim,false,1,730.0,1,1,2,71781,task3,601750,false,false,523,image-keyboard-response,6
true,7,2,1,1,false,z,true,false,0.0-2.0-0.16-0.147-3.147,0,0,1,68,false,stim,false,0,717.2999999998137,1,0,1,71781,task3,603993,false,false,526,image-keyboard-response,7
true,7,2,1,2,true,d,false,true,0.0-2.0-0.16-0.148-3.148,0,0,1,68,false,stim,false,0,959.2000000001863,1,0,0,71781,task3,606472,false,false,529,image-keyboard-response,8
true,7,1,1,1,true,z,false,false,0.0-2.0-0.16-0.149-3.149,0,0,1,90,false,stim,false,0,1067.7999999998137,1,0,1,71781,task3,609060,false,true,532,image-keyboard-response,9
true,7,2,1,2,true,d,false,true,0.0-2.0-0.16-0.150-3.150,0,0,1,68,false,stim,false,0,606.1000000005588,1,0,0,71781,task3,611179,false,false,535,image-keyboard-response,10
true,7,1,1,1,true,z,false,true,0.0-2.0-0.16-0.151-3.151,0,0,1,90,false,stim,false,1,623.3999999994412,1,1,2,71781,task3,613332,false,false,538,image-keyboard-response,11
true,7,0,1,1,false,z,false,true,0.0-2.0-0.16-0.152-3.152,0,0,1,81,false,stim,true,0,1475.5,1,0,1,71781,task3,616328,false,true,541,image-keyboard-response,12
true,7,2,1,2,true,d,false,true,0.0-2.0-0.17-0.153-3.153,0,0,1,68,false,stim,false,0,612.7000000001863,1,0,0,71781,task3,618472,false,false,544,image-keyboard-response,13
true,7,0,1,1,false,z,false,false,0.0-2.0-0.17-0.154-3.154,0,0,1,81,false,stim,true,0,593.0,1,0,1,71781,task3,620585,false,false,547,image-keyboard-response,14
true,7,1,1,1,true,z,false,true,0.0-2.0-0.17-0.155-3.155,0,0,1,90,false,stim,false,1,736.7000000001863,1,1,2,71781,task3,622848,false,false,550,image-keyboard-response,15
true,7,0,1,1,false,z,false,false,0.0-2.0-0.17-0.156-3.156,0,0,1,81,false,stim,true,0,934.7999999998137,1,0,1,71781,task3,625312,false,false,553,image-keyboard-response,16
true,7,2,1,2,true,d,false,true,0.0-2.0-0.17-0.157-3.157,0,0,1,68,false,stim,false,0,891.0,1,0,0,71781,task3,627729,false,false,556,image-keyboard-response,17
true,7,1,1,1,true,z,false,true,0.0-2.0-0.17-0.158-3.158,0,0,1,90,false,stim,false,1,584.8999999994412,1,1,2,71781,task3,629833,false,false,559,image-keyboard-response,18
true,7,2,1,2,true,d,false,true,0.0-2.0-0.17-0.159-3.159,0,0,1,68,false,stim,false,0,677.7000000001863,1,0,0,71781,task3,632035,false,false,562,image-keyboard-response,19
true,7,1,1,1,true,z,false,true,0.0-2.0-0.17-0.160-3.160,0,0,1,90,false,stim,false,0,976.1999999992549,1,0,1,71781,task3,634533,false,false,565,image-keyboard-response,20
true,7,1,1,1,true,z,false,true,0.0-2.0-0.17-0.161-3.161,0,0,1,90,false,stim,false,1,567.0,1,1,2,71781,task3,636627,false,false,568,image-keyboard-response,21
true,7,2,1,2,true,d,false,true,0.0-2.0-0.18-0.162-3.162,0,0,1,68,false,stim,false,0,631.8000000007451,1,1,0,71781,task3,638779,false,false,571,image-keyboard-response,22
true,7,1,1,1,true,z,false,true,0.0-2.0-0.18-0.163-3.163,0,0,1,90,false,stim,false,0,836.7000000001863,1,0,1,71781,task3,641138,false,false,574,image-keyboard-response,23
true,7,2,1,2,true,d,false,true,0.0-2.0-0.18-0.164-3.164,0,0,1,68,false,stim,false,0,574.7000000001863,1,1,0,71781,task3,643226,false,false,577,image-keyboard-response,24
true,7,1,1,1,true,z,false,false,0.0-2.0-0.18-0.165-3.165,0,0,1,90,false,stim,false,1,640.2000000001863,1,1,2,71781,task3,645400,false,true,580,image-keyboard-response,25
true,8,0,2,1,false,z,true,false,0.0-2.0-0.18-0.166-3.166,1,0,1,81,true,stim,false,1,730.7000000001863,1,1,2,71781,task3,647649,false,false,583,image-keyboard-response,1
true,8,2,2,1,false,z,true,false,0.0-2.0-0.18-0.167-3.167,1,0,1,68,false,stim,false,1,632.1000000005588,1,1,2,71781,task3,649787,false,false,586,image-keyboard-response,2
true,8,1,2,2,false,d,false,false,0.0-2.0-0.18-0.168-3.168,1,0,1,90,false,stim,true,1,815.2000000001863,1,0,1,71781,task3,652126,false,false,589,image-keyboard-response,3
true,8,1,2,2,false,d,false,false,0.0-2.0-0.18-0.169-3.169,1,0,1,90,false,stim,true,1,508.1000000005588,1,0,1,71781,task3,654159,false,false,592,image-keyboard-response,4
true,8,2,2,2,true,d,false,true,0.0-2.0-0.18-0.170-3.170,1,0,1,68,false,stim,false,2,553.0,1,1,0,71781,task3,656235,false,false,595,image-keyboard-response,5
true,8,2,2,2,true,d,false,true,0.0-2.0-0.19-0.171-3.171,1,0,1,68,false,stim,false,2,767.7999999998137,1,1,0,71781,task3,658535,false,false,598,image-keyboard-response,6
true,8,1,2,1,true,z,false,true,0.0-2.0-0.19-0.172-3.172,1,0,1,90,false,stim,false,1,1023.0999999996275,1,1,2,71781,task3,661072,false,false,601,image-keyboard-response,7
true,8,1,2,1,true,z,false,true,0.0-2.0-0.19-0.173-3.173,1,0,1,90,false,stim,false,1,390.09999999962747,1,1,2,71781,task3,662986,false,false,604,image-keyboard-response,8
true,8,0,2,2,false,d,true,false,0.0-2.0-0.19-0.174-3.174,1,0,1,81,false,stim,false,1,1083.2000000001863,1,0,1,71781,task3,665579,false,false,607,image-keyboard-response,9
true,8,1,2,2,false,d,false,true,0.0-2.0-0.19-0.175-3.175,1,0,1,90,false,stim,true,1,953.5,1,0,1,71781,task3,668051,false,true,610,image-keyboard-response,10
true,8,1,2,1,true,z,false,false,0.0-2.0-0.19-0.176-3.176,1,0,1,90,false,stim,false,1,939.0,1,1,2,71781,task3,670520,false,true,613,image-keyboard-response,11
true,8,2,2,2,true,d,false,true,0.0-2.0-0.19-0.177-3.177,1,0,1,68,false,stim,false,2,606.6999999992549,1,1,0,71781,task3,672653,false,false,616,image-keyboard-response,12
true,8,1,2,2,false,d,false,false,0.0-2.0-0.19-0.178-3.178,1,0,1,90,false,stim,true,1,704.8000000007451,1,0,1,71781,task3,674886,false,false,619,image-keyboard-response,13
true,8,2,2,2,true,d,false,true,0.0-2.0-0.19-0.179-3.179,1,0,1,68,false,stim,false,2,1019.9000000003725,1,1,0,71781,task3,677435,false,false,622,image-keyboard-response,14
true,8,2,2,2,true,d,false,true,0.0-2.0-0.20-0.180-3.180,1,0,1,68,false,stim,false,1,864.8999999994412,1,0,1,71781,task3,679823,false,false,625,image-keyboard-response,15
true,8,2,2,1,false,z,true,false,0.0-2.0-0.20-0.181-3.181,1,0,1,68,false,stim,false,1,1219.7000000001863,1,1,2,71781,task3,682581,false,false,628,image-keyboard-response,16
true,8,2,2,2,true,d,false,false,0.0-2.0-0.20-0.182-3.182,1,0,1,68,false,stim,false,2,1251.6000000005588,1,1,0,71781,task3,685349,false,true,631,image-keyboard-response,17
true,8,1,2,2,false,d,true,false,0.0-2.0-0.20-0.183-3.183,1,0,1,90,false,stim,false,2,857.2000000001863,1,1,0,71781,task3,687718,false,false,634,image-keyboard-response,18
true,8,2,2,1,false,z,true,false,0.0-2.0-0.20-0.184-3.184,1,0,1,68,false,stim,false,1,2476.5999999996275,1,1,2,71781,task3,691714,false,false,637,image-keyboard-response,19
true,8,2,2,2,true,d,false,true,0.0-2.0-0.20-0.185-3.185,1,0,1,68,false,stim,false,1,938.0,1,0,1,71781,task3,694170,false,false,640,image-keyboard-response,20
true,8,2,2,2,true,d,false,true,0.0-2.0-0.20-0.186-3.186,1,0,1,68,false,stim,false,1,526.5999999996275,1,0,1,71781,task3,696217,false,false,643,image-keyboard-response,21
true,8,1,2,1,true,z,false,true,0.0-2.0-0.20-0.187-3.187,1,0,1,90,false,stim,false,1,542.9000000003725,1,1,2,71781,task3,698275,false,false,646,image-keyboard-response,22
true,8,0,2,2,false,d,true,false,0.0-2.0-0.20-0.188-3.188,1,0,1,81,false,stim,false,2,1136.7000000001863,1,1,0,71781,task3,700929,false,false,649,image-keyboard-response,23
true,8,2,2,2,true,d,false,true,0.0-2.0-0.21-0.189-3.189,1,0,1,68,false,stim,false,2,835.9000000003725,1,0,0,71781,task3,703287,false,false,652,image-keyboard-response,24
true,8,2,2,2,true,d,false,false,0.0-2.0-0.21-0.190-3.190,1,0,1,68,false,stim,false,2,443.5,1,0,0,71781,task3,705246,false,true,655,image-keyboard-response,25
true,8,2,2,2,true,d,false,true,0.0-2.0-0.21-0.191-3.191,1,0,1,68,false,stim,false,1,486.79999999981374,1,0,1,71781,task3,707259,false,false,658,image-keyboard-response,26
true,8,1,2,1,true,z,false,true,0.0-2.0-0.21-0.192-3.192,1,0,1,90,false,stim,false,1,603.0999999996275,1,1,2,71781,task3,709373,false,false,661,image-keyboard-response,27
true,8,1,2,1,true,z,false,true,0.0-2.0-0.21-0.193-3.193,1,0,1,90,false,stim,false,1,429.0,1,1,2,71781,task3,711331,false,false,664,image-keyboard-response,28
true,9,1,1,1,true,z,false,true,0.0-2.0-0.21-0.194-3.194,0,0,1,90,true,stim,false,1,452.90000000037253,1,1,2,71781,task3,713309,false,false,667,image-keyboard-response,1
true,9,2,1,0,false,q,false,false,0.0-2.0-0.21-0.195-3.195,0,0,1,68,false,stim,true,2,744.5,1,0,1,71781,task3,715578,false,false,670,image-keyboard-response,2
true,9,2,1,1,false,z,false,false,0.0-2.0-0.21-0.196-3.196,0,0,1,68,false,stim,true,2,448.20000000018626,1,0,0,71781,task3,717546,false,false,673,image-keyboard-response,3
true,9,1,1,0,false,q,true,false,0.0-2.0-0.21-0.197-3.197,0,0,1,90,false,stim,false,2,1021.7999999998137,1,0,1,71781,task3,720095,false,false,676,image-keyboard-response,4
true,9,0,1,0,true,q,false,false,0.0-2.0-0.22-0.198-3.198,0,0,1,81,false,stim,false,2,666.2999999998137,1,0,1,71781,task3,722272,false,true,679,image-keyboard-response,5
true,9,1,1,1,true,z,false,true,0.0-2.0-0.22-0.199-3.199,0,0,1,90,false,stim,false,2,1254.7999999998137,1,0,0,71781,task3,725054,false,false,682,image-keyboard-response,6
true,9,1,1,1,true,z,false,true,0.0-2.0-0.22-0.200-3.200,0,0,1,90,false,stim,false,2,527.1000000005588,1,0,0,71781,task3,727096,false,false,685,image-keyboard-response,7
true,9,1,1,1,true,z,false,true,0.0-2.0-0.22-0.201-3.201,0,0,1,90,false,stim,false,1,634.2999999998137,1,1,2,71781,task3,729253,false,false,688,image-keyboard-response,8
true,9,1,1,1,true,z,false,false,0.0-2.0-0.22-0.202-3.202,0,0,1,90,false,stim,false,2,693.5,1,0,0,71781,task3,731471,false,true,691,image-keyboard-response,9
true,9,2,1,0,false,q,false,false,0.0-2.0-0.22-0.203-3.203,0,0,1,68,false,stim,true,2,532.7000000001863,1,0,1,71781,task3,733534,false,false,694,image-keyboard-response,10
true,9,1,1,0,false,q,true,false,0.0-2.0-0.22-0.204-3.204,0,0,1,90,false,stim,false,2,884.8999999994412,1,0,1,71781,task3,735943,false,false,697,image-keyboard-response,11
true,9,1,1,1,true,z,false,true,0.0-2.0-0.22-0.205-3.205,0,0,1,90,false,stim,false,1,767.5,1,1,2,71781,task3,738232,false,false,700,image-keyboard-response,12
true,9,1,1,1,true,z,false,true,0.0-2.0-0.22-0.206-3.206,0,0,1,90,false,stim,false,1,534.1000000005588,1,1,2,71781,task3,740299,false,false,703,image-keyboard-response,13
true,9,1,1,1,true,z,false,true,0.0-2.0-0.23-0.207-3.207,0,0,1,90,false,stim,false,1,561.5999999996275,1,1,2,71781,task3,742378,false,false,706,image-keyboard-response,14
true,9,0,1,1,false,z,true,true,0.0-2.0-0.23-0.208-3.208,0,0,1,81,false,stim,false,2,593.2000000001863,1,0,0,71781,task3,744501,false,true,709,image-keyboard-response,15
true,9,1,1,1,true,z,false,true,0.0-2.0-0.23-0.209-3.209,0,0,1,90,false,stim,false,1,849.0,1,1,2,71781,task3,746874,false,false,712,image-keyboard-response,16
true,9,0,1,1,false,z,true,false,0.0-2.0-0.23-0.210-3.210,0,0,1,81,false,stim,false,2,624.6999999992549,1,0,0,71781,task3,749008,false,false,715,image-keyboard-response,17
true,9,0,1,0,true,q,false,true,0.0-2.0-0.23-0.211-3.211,0,0,1,81,false,stim,false,2,1463.2999999998137,1,0,1,71781,task3,752005,false,false,718,image-keyboard-response,18
true,9,0,1,0,true,q,false,true,0.0-2.0-0.23-0.212-3.212,0,0,1,81,false,stim,false,2,490.0,1,0,1,71781,task3,754014,false,false,721,image-keyboard-response,19
true,9,2,1,1,false,z,false,false,0.0-2.0-0.23-0.213-3.213,0,0,1,68,false,stim,true,2,1078.8999999994412,1,0,0,71781,task3,756617,false,false,724,image-keyboard-response,20
true,9,0,1,0,true,q,false,true,0.0-2.0-0.23-0.214-3.214,0,0,1,81,false,stim,false,2,433.59999999962747,1,0,1,71781,task3,758580,false,false,727,image-keyboard-response,21
true,9,1,1,1,true,z,false,false,0.0-2.0-0.23-0.215-3.215,0,0,1,90,false,stim,false,1,545.7000000001863,1,1,2,71781,task3,760644,false,true,730,image-keyboard-response,22
true,9,0,1,1,false,z,true,false,0.0-2.0-0.24-0.216-3.216,0,0,1,81,false,stim,false,2,863.7999999998137,1,0,0,71781,task3,763028,false,false,733,image-keyboard-response,23
true,9,1,1,1,true,z,false,true,0.0-2.0-0.24-0.217-3.217,0,0,1,90,false,stim,false,1,526.7999999998137,1,1,2,71781,task3,765081,false,false,736,image-keyboard-response,24
true,9,2,1,1,false,z,false,false,0.0-2.0-0.24-0.218-3.218,0,0,1,68,false,stim,true,2,1434.2999999998137,1,0,0,71781,task3,768034,false,false,739,image-keyboard-response,25
true,9,1,1,0,false,q,true,false,0.0-2.0-0.24-0.219-3.219,0,0,1,90,false,stim,false,2,1455.0999999996275,1,0,1,71781,task3,771006,false,false,742,image-keyboard-response,26
true,9,1,1,1,true,z,false,true,0.0-2.0-0.24-0.220-3.220,0,0,1,90,false,stim,false,1,826.7999999998137,1,1,2,71781,task3,773345,false,false,745,image-keyboard-response,27
true,9,0,1,0,true,q,false,true,0.0-2.0-0.24-0.221-3.221,0,0,1,81,false,stim,false,2,1030.3999999994412,1,0,1,71781,task3,775908,false,false,748,image-keyboard-response,28
true,9,1,1,1,true,z,false,true,0.0-2.0-0.24-0.222-3.222,0,0,1,90,false,stim,false,1,775.2000000001863,1,1,2,71781,task3,778212,false,false,751,image-keyboard-response,29
true,10,0,1,0,true,q,false,true,0.0-2.0-0.24-0.223-3.223,0,0,1,81,true,stim,false,1,666.1999999992549,1,0,0,71781,task3,780410,false,false,754,image-keyboard-response,1
true,10,0,1,1,false,z,false,false,0.0-2.0-0.24-0.224-3.224,0,0,1,81,false,stim,true,0,580.7999999998137,1,0,1,71781,task3,782504,false,false,757,image-keyboard-response,2
true,10,0,1,0,true,q,false,true,0.0-2.0-0.25-0.225-3.225,0,0,1,81,false,stim,false,1,1078.0,1,0,0,71781,task3,785102,false,false,760,image-keyboard-response,3
true,10,0,1,0,true,q,false,true,0.0-2.0-0.25-0.226-3.226,0,0,1,81,false,stim,false,1,436.19999999925494,1,0,0,71781,task3,787080,false,false,763,image-keyboard-response,4
true,10,1,1,1,true,z,false,false,0.0-2.0-0.25-0.227-3.227,0,0,1,90,false,stim,false,1,853.9000000003725,1,1,2,71781,task3,789448,false,true,766,image-keyboard-response,5
true,10,2,1,1,false,z,true,true,0.0-2.0-0.25-0.228-3.228,0,0,1,68,false,stim,false,1,765.1000000005588,1,1,2,71781,task3,791741,false,true,769,image-keyboard-response,6
true,10,2,1,1,false,z,true,false,0.0-2.0-0.25-0.229-3.229,0,0,1,68,false,stim,false,0,1583.1000000005588,1,0,1,71781,task3,794855,false,false,772,image-keyboard-response,7
true,10,2,1,1,false,z,true,true,0.0-2.0-0.25-0.230-3.230,0,0,1,68,false,stim,false,1,776.2999999998137,1,1,2,71781,task3,797148,false,true,775,image-keyboard-response,8
true,10,0,1,0,true,q,false,true,0.0-2.0-0.25-0.231-3.231,0,0,1,81,false,stim,false,1,465.79999999981374,1,0,0,71781,task3,799161,false,false,778,image-keyboard-response,9
true,10,1,1,1,true,z,false,true,0.0-2.0-0.25-0.232-3.232,0,0,1,90,false,stim,false,0,563.7000000001863,1,0,1,71781,task3,801235,false,false,781,image-keyboard-response,10
true,10,1,1,1,true,z,false,true,0.0-2.0-0.25-0.233-3.233,0,0,1,90,false,stim,false,0,776.9000000003725,1,0,1,71781,task3,803532,false,false,784,image-keyboard-response,11
true,10,2,1,1,false,z,true,false,0.0-2.0-0.26-0.234-3.234,0,0,1,68,false,stim,false,1,602.2000000001863,1,1,2,71781,task3,805667,false,false,787,image-keyboard-response,12
true,10,0,1,0,true,q,false,true,0.0-2.0-0.26-0.235-3.235,0,0,1,81,false,stim,false,1,1529.6000000005588,1,0,0,71781,task3,808720,false,false,790,image-keyboard-response,13
true,10,0,1,0,true,q,false,true,0.0-2.0-0.26-0.236-3.236,0,0,1,81,false,stim,false,1,642.4000000003725,1,0,0,71781,task3,810893,false,false,793,image-keyboard-response,14
true,10,1,1,1,true,z,false,true,0.0-2.0-0.26-0.237-3.237,0,0,1,90,false,stim,false,0,639.7000000001863,1,0,1,71781,task3,813057,false,false,796,image-keyboard-response,15
true,10,1,1,1,true,z,false,true,0.0-2.0-0.26-0.238-3.238,0,0,1,90,false,stim,false,0,649.7000000001863,1,0,1,71781,task3,815224,false,false,799,image-keyboard-response,16
true,10,1,1,1,true,z,false,true,0.0-2.0-0.26-0.239-3.239,0,0,1,90,false,stim,false,0,617.5,1,0,1,71781,task3,817368,false,false,802,image-keyboard-response,17
true,10,0,1,0,true,q,false,true,0.0-2.0-0.26-0.240-3.240,0,0,1,81,false,stim,false,1,733.6000000005588,1,0,0,71781,task3,819621,false,false,805,image-keyboard-response,18
true,10,2,1,1,false,z,true,false,0.0-2.0-0.26-0.241-3.241,0,0,1,68,false,stim,false,1,686.1999999992549,1,1,2,71781,task3,821840,false,false,808,image-keyboard-response,19
true,10,1,1,1,true,z,false,true,0.0-2.0-0.26-0.242-3.242,0,0,1,90,false,stim,false,1,731.2000000001863,1,1,2,71781,task3,824087,false,false,811,image-keyboard-response,20
true,10,1,1,1,true,z,false,true,0.0-2.0-0.27-0.243-3.243,0,0,1,90,false,stim,false,0,738.0,1,0,1,71781,task3,826347,false,false,814,image-keyboard-response,21
true,10,0,1,0,true,q,false,true,0.0-2.0-0.27-0.244-3.244,0,0,1,81,false,stim,false,1,634.9000000003725,1,0,0,71781,task3,828511,false,false,817,image-keyboard-response,22
true,10,0,1,0,true,q,false,true,0.0-2.0-0.27-0.245-3.245,0,0,1,81,false,stim,false,1,455.40000000037253,1,0,0,71781,task3,830483,false,false,820,image-keyboard-response,23
true,10,1,1,1,true,z,false,true,0.0-2.0-0.27-0.246-3.246,0,0,1,90,false,stim,false,1,700.2999999998137,1,0,2,71781,task3,832692,false,false,823,image-keyboard-response,24
true,10,0,1,0,true,q,false,true,0.0-2.0-0.27-0.247-3.247,0,0,1,81,false,stim,false,1,639.2000000001863,1,1,0,71781,task3,834850,false,false,826,image-keyboard-response,25
true,10,1,1,1,true,z,false,true,0.0-2.0-0.27-0.248-3.248,0,0,1,90,false,stim,false,1,586.4000000003725,1,0,2,71781,task3,836954,false,false,829,image-keyboard-response,26
true,10,1,1,1,true,z,false,true,0.0-2.0-0.27-0.249-3.249,0,0,1,90,false,stim,false,0,1830.0,1,0,1,71781,task3,840307,false,false,832,image-keyboard-response,27
true,10,1,1,1,true,z,false,true,0.0-2.0-0.27-0.250-3.250,0,0,1,90,false,stim,false,0,484.5,1,0,1,71781,task3,842315,false,false,835,image-keyboard-response,28
true,11,1,1,0,false,q,false,false,0.0-2.0-0.27-0.251-3.251,1,0,0,90,true,stim,true,1,768.6999999992549,1,0,2,71781,task3,844598,false,false,838,image-keyboard-response,1
true,11,1,1,2,false,d,false,false,0.0-2.0-0.28-0.252-3.252,1,0,0,90,false,stim,true,1,743.7999999998137,1,0,1,71781,task3,846872,false,false,841,image-keyboard-response,2
true,11,1,1,0,false,q,false,false,0.0-2.0-0.28-0.253-3.253,1,0,0,90,false,stim,true,1,991.8999999994412,1,0,2,71781,task3,849391,false,false,844,image-keyboard-response,3
true,11,0,1,0,true,q,false,true,0.0-2.0-0.28-0.254-3.254,1,0,0,81,false,stim,false,0,552.2000000001863,1,1,0,71781,task3,851459,false,false,847,image-keyboard-response,4
true,11,2,1,0,false,q,true,false,0.0-2.0-0.28-0.255-3.255,1,0,0,68,false,stim,false,1,727.5999999996275,1,0,2,71781,task3,853708,false,false,850,image-keyboard-response,5
true,11,0,1,2,false,d,true,false,0.0-2.0-0.28-0.256-3.256,1,0,0,81,false,stim,false,1,1801.0999999996275,1,0,1,71781,task3,857027,false,false,853,image-keyboard-response,6
true,11,0,1,0,true,q,false,true,0.0-2.0-0.28-0.257-3.257,1,0,0,81,false,stim,false,0,596.2000000001863,1,1,0,71781,task3,859149,false,false,856,image-keyboard-response,7
true,11,2,1,2,true,d,false,true,0.0-2.0-0.28-0.258-3.258,1,0,0,68,false,stim,false,1,1172.5,1,1,1,71781,task3,861867,false,false,859,image-keyboard-response,8
true,11,0,1,0,true,q,false,true,0.0-2.0-0.28-0.259-3.259,1,0,0,81,false,stim,false,0,1070.7000000001863,1,0,0,71781,task3,864460,false,false,862,image-keyboard-response,9
true,11,0,1,0,true,q,false,false,0.0-2.0-0.28-0.260-3.260,1,0,0,81,false,stim,false,1,771.2000000001863,1,1,2,71781,task3,866744,false,true,865,image-keyboard-response,10
true,11,2,1,2,true,d,false,true,0.0-2.0-0.29-0.261-3.261,1,0,0,68,false,stim,false,1,608.5999999996275,1,1,1,71781,task3,868873,false,false,868,image-keyboard-response,11
true,11,0,1,0,true,q,false,true,0.0-2.0-0.29-0.262-3.262,1,0,0,81,false,stim,false,0,1056.0,1,0,0,71781,task3,871446,false,false,871,image-keyboard-response,12
true,12,1,2,0,false,q,true,false,0.0-2.0-0.29-0.263-3.263,0,1,1,90,true,stim,false,0,437.40000000037253,1,1,2,71781,task3,873409,false,false,874,image-keyboard-response,1
true,12,0,2,2,false,d,false,false,0.0-2.0-0.29-0.264-3.264,0,1,1,81,false,stim,true,0,682.2000000001863,1,0,0,71781,task3,875624,false,false,877,image-keyboard-response,2
true,12,2,2,2,true,d,false,true,0.0-2.0-0.29-0.265-3.265,0,1,1,68,false,stim,false,2,515.5,1,1,1,71781,task3,877657,false,false,880,image-keyboard-response,3
true,12,2,2,0,false,q,true,false,0.0-2.0-0.29-0.266-3.266,0,1,1,68,false,stim,false,0,1449.1000000005588,1,1,2,71781,task3,880640,false,false,883,image-keyboard-response,4
true,12,0,2,2,false,d,false,false,0.0-2.0-0.29-0.267-3.267,0,1,1,81,false,stim,true,0,836.2999999998137,1,0,0,71781,task3,882989,false,false,886,image-keyboard-response,5
true,12,2,2,2,true,d,false,true,0.0-2.0-0.29-0.268-3.268,0,1,1,68,false,stim,false,2,710.8999999994412,1,1,1,71781,task3,885222,false,false,889,image-keyboard-response,6
true,12,0,2,0,true,q,false,true,0.0-2.0-0.29-0.269-3.269,0,1,1,81,false,stim,false,0,883.2999999998137,1,1,2,71781,task3,887630,false,false,892,image-keyboard-response,7
true,12,0,2,0,true,q,false,true,0.0-2.0-0.30-0.270-3.270,0,1,1,81,false,stim,false,0,580.2000000001863,1,1,2,71781,task3,889718,false,false,895,image-keyboard-response,8
true,12,2,2,2,true,d,false,true,0.0-2.0-0.30-0.271-3.271,0,1,1,68,false,stim,false,2,836.6999999992549,1,0,1,71781,task3,892087,false,false,898,image-keyboard-response,9
true,12,1,2,2,false,d,true,false,0.0-2.0-0.30-0.272-3.272,0,1,1,90,false,stim,false,0,833.3000000007451,1,1,0,71781,task3,894450,false,false,901,image-keyboard-response,10
true,12,2,2,2,true,d,false,true,0.0-2.0-0.30-0.273-3.273,0,1,1,68,false,stim,false,0,748.0999999996275,1,1,0,71781,task3,896714,false,false,904,image-keyboard-response,11
true,13,0,2,0,true,q,false,true,0.0-2.0-0.30-0.274-3.274,1,0,1,81,true,stim,false,0,825.7999999998137,1,1,2,71781,task3,899067,false,false,907,image-keyboard-response,1
true,13,2,2,2,true,d,false,true,0.0-2.0-0.30-0.275-3.275,1,0,1,68,false,stim,false,2,1744.800000000745,1,1,0,71781,task3,902325,false,false,910,image-keyboard-response,2
true,13,0,2,0,true,q,false,false,0.0-2.0-0.30-0.276-3.276,1,0,1,81,false,stim,false,0,579.7999999998137,1,1,2,71781,task3,904423,false,true,913,image-keyboard-response,3
true,13,2,2,0,false,q,false,false,0.0-2.0-0.30-0.277-3.277,1,0,1,68,false,stim,true,2,1026.0,1,0,1,71781,task3,906978,false,false,916,image-keyboard-response,4
true,13,2,2,0,false,q,false,false,0.0-2.0-0.30-0.278-3.278,1,0,1,68,false,stim,true,2,909.5999999996275,1,0,1,71781,task3,909400,false,false,919,image-keyboard-response,5
true,13,2,2,2,true,d,false,true,0.0-2.0-0.31-0.279-3.279,1,0,1,68,false,stim,false,2,1280.6000000005588,1,1,0,71781,task3,912203,false,false,922,image-keyboard-response,6
true,13,1,2,0,false,q,true,false,0.0-2.0-0.31-0.280-3.280,1,0,1,90,false,stim,false,2,1016.7000000001863,1,0,1,71781,task3,914747,false,false,925,image-keyboard-response,7
true,13,0,2,0,true,q,false,true,0.0-2.0-0.31-0.281-3.281,1,0,1,81,false,stim,false,0,685.6000000005588,1,1,2,71781,task3,916951,false,false,928,image-keyboard-response,8
true,13,0,2,0,true,q,false,true,0.0-2.0-0.31-0.282-3.282,1,0,1,81,false,stim,false,0,475.69999999925494,1,1,2,71781,task3,918950,false,false,931,image-keyboard-response,9
true,13,0,2,0,true,q,false,true,0.0-2.0-0.31-0.283-3.283,1,0,1,81,false,stim,false,2,493.70000000018626,1,0,1,71781,task3,920968,false,false,934,image-keyboard-response,10
true,13,0,2,0,true,q,false,false,0.0-2.0-0.31-0.284-3.284,1,0,1,81,false,stim,false,2,647.5,1,0,1,71781,task3,923145,false,true,937,image-keyboard-response,11
true,13,0,2,0,true,q,false,true,0.0-2.0-0.31-0.285-3.285,1,0,1,81,false,stim,false,0,716.2999999998137,1,1,2,71781,task3,925384,false,false,940,image-keyboard-response,12
true,13,2,2,2,true,d,false,true,0.0-2.0-0.31-0.286-3.286,1,0,1,68,false,stim,false,2,880.0,1,1,0,71781,task3,927792,false,false,943,image-keyboard-response,13
true,13,2,2,2,true,d,false,true,0.0-2.0-0.31-0.287-3.287,1,0,1,68,false,stim,false,2,489.0,1,1,0,71781,task3,929816,false,false,946,image-keyboard-response,14
true,13,2,2,2,true,d,false,true,0.0-2.0-0.32-0.288-3.288,1,0,1,68,false,stim,false,2,400.70000000018626,1,1,0,71781,task3,931739,false,false,949,image-keyboard-response,15
true,13,0,2,0,true,q,false,false,0.0-2.0-0.32-0.289-3.289,1,0,1,81,false,stim,false,0,761.0999999996275,1,1,2,71781,task3,934033,false,true,952,image-keyboard-response,16
true,13,2,2,2,true,d,false,true,0.0-2.0-0.32-0.290-3.290,1,0,1,68,false,stim,false,2,679.6999999992549,1,1,0,71781,task3,936221,false,false,955,image-keyboard-response,17
true,13,2,2,0,false,q,true,true,0.0-2.0-0.32-0.291-3.291,1,0,1,68,false,stim,false,0,605.2000000001863,1,1,2,71781,task3,938344,false,true,958,image-keyboard-response,18
true,13,0,2,0,true,q,false,true,0.0-2.0-0.32-0.292-3.292,1,0,1,81,false,stim,false,2,1030.4000000003725,1,0,1,71781,task3,940888,false,false,961,image-keyboard-response,19
true,13,0,2,0,true,q,false,true,0.0-2.0-0.32-0.293-3.293,1,0,1,81,false,stim,false,2,1064.0,1,0,1,71781,task3,943471,false,false,964,image-keyboard-response,20
true,13,2,2,0,false,q,true,false,0.0-2.0-0.32-0.294-3.294,1,0,1,68,false,stim,false,0,887.7999999998137,1,1,2,71781,task3,945884,false,false,967,image-keyboard-response,21
true,13,2,2,2,true,d,false,true,0.0-2.0-0.32-0.295-3.295,1,0,1,68,false,stim,false,2,1126.7000000001863,1,0,0,71781,task3,948521,false,false,970,image-keyboard-response,22
true,13,0,2,0,true,q,false,true,0.0-2.0-0.32-0.296-3.296,1,0,1,81,false,stim,false,2,535.8000000007451,1,0,1,71781,task3,950580,false,false,973,image-keyboard-response,23
true,14,2,1,1,false,z,false,true,0.0-2.0-0.33-0.297-3.297,0,0,1,68,true,stim,true,2,918.0,1,0,0,71781,task3,953023,false,true,976,image-keyboard-response,1
true,14,0,1,0,true,q,false,true,0.0-2.0-0.33-0.298-3.298,0,0,1,81,false,stim,false,0,746.7000000001863,1,1,2,71781,task3,955307,false,false,979,image-keyboard-response,2
true,14,0,1,0,true,q,false,true,0.0-2.0-0.33-0.299-3.299,0,0,1,81,false,stim,false,0,539.3000000007451,1,1,2,71781,task3,957370,false,false,982,image-keyboard-response,3
true,14,0,1,1,false,z,false,false,0.0-2.0-0.33-0.300-3.300,0,0,1,81,false,stim,true,0,732.5999999996275,1,0,1,71781,task3,959623,false,false,985,image-keyboard-response,4
true,14,2,1,1,false,z,false,false,0.0-2.0-0.33-0.301-3.301,0,0,1,68,false,stim,true,2,1016.8999999994412,1,0,0,71781,task3,962157,false,false,988,image-keyboard-response,5
true,14,0,1,0,true,q,false,true,0.0-2.0-0.33-0.302-3.302,0,0,1,81,false,stim,false,0,505.80000000074506,1,1,2,71781,task3,964191,false,false,991,image-keyboard-response,6
true,14,1,1,1,true,z,false,false,0.0-2.0-0.33-0.303-3.303,0,0,1,90,false,stim,false,0,957.8000000007451,1,0,1,71781,task3,966669,false,true,994,image-keyboard-response,7
true,14,1,1,1,true,z,false,true,0.0-2.0-0.33-0.304-3.304,0,0,1,90,false,stim,false,2,1069.5,1,1,0,71781,task3,969257,false,false,997,image-keyboard-response,8
true,14,2,1,1,false,z,true,false,0.0-2.0-0.33-0.305-3.305,0,0,1,68,false,stim,false,0,760.3000000007451,1,1,1,71781,task3,971539,false,false,1000,image-keyboard-response,9
true,14,0,1,0,true,q,false,false,0.0-2.0-0.34-0.306-3.306,0,0,1,81,false,stim,false,0,774.0,1,0,2,71781,task3,973853,false,true,1003,image-keyboard-response,10
true,14,1,1,0,false,q,true,false,0.0-2.0-0.34-0.307-3.307,0,0,1,90,false,stim,false,0,1042.2000000001863,1,0,2,71781,task3,976407,false,false,1006,image-keyboard-response,11
true,14,2,1,0,false,q,true,false,0.0-2.0-0.34-0.308-3.308,0,0,1,68,false,stim,false,0,681.7999999998137,1,0,2,71781,task3,978605,false,false,1009,image-keyboard-response,12
true,15,1,2,1,true,z,false,true,0.0-2.0-0.34-0.309-3.309,1,1,0,90,true,stim,false,1,674.9000000003725,1,1,0,71781,task3,980809,false,false,1012,image-keyboard-response,1
true,15,1,2,1,true,z,false,true,0.0-2.0-0.34-0.310-3.310,1,1,0,90,false,stim,false,1,775.7000000001863,1,1,0,71781,task3,983103,false,false,1015,image-keyboard-response,2
true,15,0,2,1,false,z,true,false,0.0-2.0-0.34-0.311-3.311,1,1,0,81,false,stim,false,1,1223.7999999998137,1,1,1,71781,task3,985835,false,false,1018,image-keyboard-response,3
true,15,1,2,1,true,z,false,true,0.0-2.0-0.34-0.312-3.312,1,1,0,90,false,stim,false,1,832.1000000005588,1,1,1,71781,task3,988189,false,false,1021,image-keyboard-response,4
true,15,1,2,1,true,z,false,true,0.0-2.0-0.34-0.313-3.313,1,1,0,90,false,stim,false,1,586.2999999998137,1,1,1,71781,task3,990301,false,false,1024,image-keyboard-response,5
true,15,1,2,1,true,z,false,true,0.0-2.0-0.34-0.314-3.314,1,1,0,90,false,stim,false,1,527.7999999998137,1,1,0,71781,task3,992360,false,false,1027,image-keyboard-response,6
true,15,1,2,1,true,z,false,true,0.0-2.0-0.35-0.315-3.315,1,1,0,90,false,stim,false,1,781.5,1,1,1,71781,task3,994664,false,false,1030,image-keyboard-response,7
true,15,1,2,1,true,z,false,true,0.0-2.0-0.35-0.316-3.316,1,1,0,90,false,stim,false,1,620.5,1,1,0,71781,task3,996813,false,false,1033,image-keyboard-response,8
true,15,1,2,1,true,z,false,true,0.0-2.0-0.35-0.317-3.317,1,1,0,90,false,stim,false,1,549.5,1,1,0,71781,task3,998893,false,false,1036,image-keyboard-response,9
true,15,1,2,1,true,z,false,true,0.0-2.0-0.35-0.318-3.318,1,1,0,90,false,stim,false,1,437.70000000018626,1,1,0,71781,task3,1000856,false,false,1039,image-keyboard-response,10
true,15,0,2,2,false,d,false,false,0.0-2.0-0.35-0.319-3.319,1,1,0,81,false,stim,true,0,655.7000000001863,1,0,2,71781,task3,1003049,false,false,1042,image-keyboard-response,11
true,15,2,2,2,true,d,false,true,0.0-2.0-0.35-0.320-3.320,1,1,0,68,false,stim,false,0,999.0,1,0,2,71781,task3,1005570,false,false,1045,image-keyboard-response,12
true,15,2,2,2,true,d,false,true,0.0-2.0-0.35-0.321-3.321,1,1,0,68,false,stim,false,0,739.0,1,0,2,71781,task3,1007834,false,false,1048,image-keyboard-response,13
true,15,1,2,1,true,z,false,true,0.0-2.0-0.35-0.322-3.322,1,1,0,90,false,stim,false,1,692.0,1,1,1,71781,task3,1010068,false,false,1051,image-keyboard-response,14
true,15,1,2,1,true,z,false,true,0.0-2.0-0.35-0.323-3.323,1,1,0,90,false,stim,false,1,528.4000000003725,1,1,1,71781,task3,1012116,false,false,1054,image-keyboard-response,15
true,15,1,2,1,true,z,false,true,0.0-2.0-0.36-0.324-3.324,1,1,0,90,false,stim,false,1,635.3999999994412,1,1,0,71781,task3,1014275,false,false,1057,image-keyboard-response,16
true,15,2,2,2,true,d,false,false,0.0-2.0-0.36-0.325-3.325,1,1,0,68,false,stim,false,0,716.9000000003725,1,0,2,71781,task3,1016523,false,true,1060,image-keyboard-response,17
true,15,1,2,1,true,z,false,true,0.0-2.0-0.36-0.326-3.326,1,1,0,90,false,stim,false,1,1050.4000000003725,1,1,0,71781,task3,1019096,false,false,1063,image-keyboard-response,18
true,15,1,2,1,true,z,false,true,0.0-2.0-0.36-0.327-3.327,1,1,0,90,false,stim,false,1,630.0,1,0,1,71781,task3,1021240,false,false,1066,image-keyboard-response,19
true,15,0,2,2,false,d,false,false,0.0-2.0-0.36-0.328-3.328,1,1,0,81,false,stim,true,0,641.0999999996275,1,0,2,71781,task3,1023402,false,false,1069,image-keyboard-response,20
true,15,1,2,1,true,z,false,true,0.0-2.0-0.36-0.329-3.329,1,1,0,90,false,stim,false,1,614.2999999998137,1,0,1,71781,task3,1025551,false,false,1072,image-keyboard-response,21
true,15,1,2,1,true,z,false,true,0.0-2.0-0.36-0.330-3.330,1,1,0,90,false,stim,false,1,386.70000000018626,1,0,1,71781,task3,1027469,false,false,1075,image-keyboard-response,22
true,16,2,1,0,false,q,false,false,0.0-2.0-0.36-0.331-3.331,1,0,0,68,true,stim,true,2,694.5,1,0,2,71781,task3,1029697,false,false,1078,image-keyboard-response,1
true,16,1,1,1,true,z,false,true,0.0-2.0-0.36-0.332-3.332,1,0,0,90,false,stim,false,1,469.20000000018626,1,1,0,71781,task3,1031687,false,false,1081,image-keyboard-response,2
true,16,1,1,2,false,d,false,false,0.0-2.0-0.37-0.333-3.333,1,0,0,90,false,stim,true,1,591.9000000003725,1,0,1,71781,task3,1033815,false,false,1084,image-keyboard-response,3
true,16,1,1,0,false,q,true,false,0.0-2.0-0.37-0.334-3.334,1,0,0,90,false,stim,false,2,883.4000000003725,1,0,2,71781,task3,1036232,false,false,1087,image-keyboard-response,4
true,16,2,1,0,false,q,false,false,0.0-2.0-0.37-0.335-3.335,1,0,0,68,false,stim,true,2,750.3999999994412,1,0,2,71781,task3,1038501,false,false,1090,image-keyboard-response,5
true,16,1,1,2,false,d,false,false,0.0-2.0-0.37-0.336-3.336,1,0,0,90,false,stim,true,1,1411.2999999998137,1,0,1,71781,task3,1041424,false,false,1093,image-keyboard-response,6
true,16,0,1,0,true,q,false,true,0.0-2.0-0.37-0.337-3.337,1,0,0,81,false,stim,false,2,777.3999999994412,1,0,2,71781,task3,1043718,false,false,1096,image-keyboard-response,7
true,16,1,1,1,true,z,false,true,0.0-2.0-0.37-0.338-3.338,1,0,0,90,false,stim,false,1,1346.9000000003725,1,1,0,71781,task3,1046590,false,false,1099,image-keyboard-response,8
true,16,1,1,1,true,z,false,true,0.0-2.0-0.37-0.339-3.339,1,0,0,90,false,stim,false,1,627.0999999996275,1,1,0,71781,task3,1048738,false,false,1102,image-keyboard-response,9
true,16,1,1,1,true,z,false,true,0.0-2.0-0.37-0.340-3.340,1,0,0,90,false,stim,false,1,536.7999999998137,1,1,0,71781,task3,1050805,false,false,1105,image-keyboard-response,10
true,16,2,1,2,true,d,false,true,0.0-2.0-0.37-0.341-3.341,1,0,0,68,false,stim,false,1,1132.5,1,0,1,71781,task3,1053460,false,false,1108,image-keyboard-response,11
true,16,1,1,1,true,z,false,true,0.0-2.0-0.38-0.342-3.342,1,0,0,90,false,stim,false,1,688.8999999994412,1,1,0,71781,task3,1055669,false,false,1111,image-keyboard-response,12
true,16,2,1,2,true,d,false,true,0.0-2.0-0.38-0.343-3.343,1,0,0,68,false,stim,false,1,1503.0999999996275,1,0,1,71781,task3,1058701,false,false,1114,image-keyboard-response,13
true,16,0,1,0,true,q,false,true,0.0-2.0-0.38-0.344-3.344,1,0,0,81,false,stim,false,2,588.7999999998137,1,0,2,71781,task3,1060811,false,false,1117,image-keyboard-response,14
true,16,0,1,0,true,q,false,true,0.0-2.0-0.38-0.345-3.345,1,0,0,81,false,stim,false,2,601.0,1,0,2,71781,task3,1062948,false,false,1120,image-keyboard-response,15
true,16,0,1,0,true,q,false,true,0.0-2.0-0.38-0.346-3.346,1,0,0,81,false,stim,false,2,489.59999999962747,1,0,2,71781,task3,1064952,false,false,1123,image-keyboard-response,16
true,16,2,1,2,true,d,false,true,0.0-2.0-0.38-0.347-3.347,1,0,0,68,false,stim,false,1,906.5999999996275,1,0,1,71781,task3,1067385,false,false,1126,image-keyboard-response,17
true,16,2,1,2,true,d,false,true,0.0-2.0-0.38-0.348-3.348,1,0,0,68,false,stim,false,1,712.8000000007451,1,0,1,71781,task3,1069623,false,false,1129,image-keyboard-response,18
true,16,1,1,1,true,z,false,true,0.0-2.0-0.38-0.349-3.349,1,0,0,90,false,stim,false,1,1064.2999999998137,1,1,0,71781,task3,1072216,false,false,1132,image-keyboard-response,19
true,16,1,1,1,true,z,false,true,0.0-2.0-0.38-0.350-3.350,1,0,0,90,false,stim,false,1,435.5,1,1,0,71781,task3,1074179,false,false,1135,image-keyboard-response,20
true,16,2,1,2,true,d,false,true,0.0-2.0-0.39-0.351-3.351,1,0,0,68,false,stim,false,1,1457.199999999255,1,0,1,71781,task3,1077163,false,false,1138,image-keyboard-response,21
true,16,1,1,1,true,z,false,true,0.0-2.0-0.39-0.352-3.352,1,0,0,90,false,stim,false,1,955.2000000001863,1,1,0,71781,task3,1079630,false,false,1141,image-keyboard-response,22
true,16,0,1,0,true,q,false,true,0.0-2.0-0.39-0.353-3.353,1,0,0,81,false,stim,false,2,682.2000000001863,1,0,2,71781,task3,1081840,false,false,1144,image-keyboard-response,23
true,16,0,1,0,true,q,false,true,0.0-2.0-0.39-0.354-3.354,1,0,0,81,false,stim,false,2,805.5,1,0,2,71781,task3,1084192,false,false,1147,image-keyboard-response,24
true,16,2,1,2,true,d,false,true,0.0-2.0-0.39-0.355-3.355,1,0,0,68,false,stim,false,1,975.7000000001863,1,1,1,71781,task3,1086691,false,false,1150,image-keyboard-response,25
true,16,2,1,2,true,d,false,true,0.0-2.0-0.39-0.356-3.356,1,0,0,68,false,stim,false,1,569.4000000003725,1,1,1,71781,task3,1088777,false,false,1153,image-keyboard-response,26
true,16,0,1,0,true,q,false,true,0.0-2.0-0.39-0.357-3.357,1,0,0,81,false,stim,false,2,689.0999999996275,1,0,2,71781,task3,1090997,false,false,1156,image-keyboard-response,27
true,16,1,1,1,true,z,false,true,0.0-2.0-0.39-0.358-3.358,1,0,0,90,false,stim,false,1,903.8000000007451,1,0,0,71781,task3,1093430,false,false,1159,image-keyboard-response,28
true,16,1,1,1,true,z,false,true,0.0-2.0-0.39-0.359-3.359,1,0,0,90,false,stim,false,1,497.90000000037253,1,0,0,71781,task3,1095444,false,false,1162,image-keyboard-response,29
true,17,0,1,2,false,d,false,false,0.0-2.0-0.40-0.360-3.360,0,1,0,81,true,stim,true,0,616.8000000007451,1,0,2,71781,task3,1097588,false,false,1165,image-keyboard-response,1
true,17,1,1,0,false,q,false,false,0.0-2.0-0.40-0.361-3.361,0,1,0,90,false,stim,true,1,436.79999999981374,1,0,0,71781,task3,1099556,false,false,1168,image-keyboard-response,2
true,17,1,1,0,false,q,false,false,0.0-2.0-0.40-0.362-3.362,0,1,0,90,false,stim,true,1,1440.0,1,0,0,71781,task3,1102530,false,false,1171,image-keyboard-response,3
true,17,2,1,2,true,d,false,true,0.0-2.0-0.40-0.363-3.363,0,1,0,68,false,stim,false,2,771.5999999996275,1,1,1,71781,task3,1104830,false,false,1174,image-keyboard-response,4
true,17,1,1,2,false,d,true,false,0.0-2.0-0.40-0.364-3.364,0,1,0,90,false,stim,false,0,1003.7999999998137,1,0,2,71781,task3,1107347,false,false,1177,image-keyboard-response,5
true,17,2,1,2,true,d,false,true,0.0-2.0-0.40-0.365-3.365,0,1,0,68,false,stim,false,0,862.9000000003725,1,0,2,71781,task3,1109730,false,false,1180,image-keyboard-response,6
true,17,2,1,2,true,d,false,true,0.0-2.0-0.40-0.366-3.366,0,1,0,68,false,stim,false,2,650.3999999994412,1,1,1,71781,task3,1111903,false,false,1183,image-keyboard-response,7
true,17,2,1,2,true,d,false,true,0.0-2.0-0.40-0.367-3.367,0,1,0,68,false,stim,false,2,521.0,1,1,1,71781,task3,1113943,false,false,1186,image-keyboard-response,8
true,17,0,1,0,true,q,false,true,0.0-2.0-0.40-0.368-3.368,0,1,0,81,false,stim,false,1,740.5,1,0,0,71781,task3,1116210,false,false,1189,image-keyboard-response,9
true,17,2,1,2,true,d,false,true,0.0-2.0-0.41-0.369-3.369,0,1,0,68,false,stim,false,2,789.0999999996275,1,1,1,71781,task3,1118518,false,false,1192,image-keyboard-response,10
true,17,2,1,2,true,d,false,true,0.0-2.0-0.41-0.370-3.370,0,1,0,68,false,stim,false,0,1310.7000000001863,1,0,2,71781,task3,1121352,false,false,1195,image-keyboard-response,11
true,17,0,1,0,true,q,false,true,0.0-2.0-0.41-0.371-3.371,0,1,0,81,false,stim,false,1,637.7000000001863,1,0,0,71781,task3,1123520,false,false,1198,image-keyboard-response,12
true,17,2,1,2,true,d,false,true,0.0-2.0-0.41-0.372-3.372,0,1,0,68,false,stim,false,0,580.3000000007451,1,0,2,71781,task3,1125639,false,false,1201,image-keyboard-response,13
true,17,2,1,2,true,d,false,false,0.0-2.0-0.41-0.373-3.373,0,1,0,68,false,stim,false,0,486.0,1,0,2,71781,task3,1127657,false,true,1204,image-keyboard-response,14
true,17,0,1,0,true,q,false,true,0.0-2.0-0.41-0.374-3.374,0,1,0,81,false,stim,false,1,679.7000000001863,1,0,0,71781,task3,1129870,false,false,1207,image-keyboard-response,15
true,17,0,1,0,true,q,false,true,0.0-2.0-0.41-0.375-3.375,0,1,0,81,false,stim,false,1,789.5999999996275,1,0,0,71781,task3,1132183,false,false,1210,image-keyboard-response,16
true,17,2,1,2,true,d,false,true,0.0-2.0-0.41-0.376-3.376,0,1,0,68,false,stim,false,2,606.0999999996275,1,1,1,71781,task3,1134317,false,false,1213,image-keyboard-response,17
true,17,2,1,2,true,d,false,true,0.0-2.0-0.41-0.377-3.377,0,1,0,68,false,stim,false,2,648.7000000001863,1,1,1,71781,task3,1136486,false,false,1216,image-keyboard-response,18
true,17,0,1,2,false,d,false,false,0.0-2.0-0.42-0.378-3.378,0,1,0,81,false,stim,true,0,1014.7999999998137,1,0,2,71781,task3,1139024,false,false,1219,image-keyboard-response,19
true,17,2,1,2,true,d,false,true,0.0-2.0-0.42-0.379-3.379,0,1,0,68,false,stim,false,2,1994.8999999994412,1,1,1,71781,task3,1142536,false,false,1222,image-keyboard-response,20
true,17,0,1,0,true,q,false,true,0.0-2.0-0.42-0.380-3.380,0,1,0,81,false,stim,false,1,438.5,1,0,0,71781,task3,1144505,false,false,1225,image-keyboard-response,21
true,17,0,1,0,true,q,false,true,0.0-2.0-0.42-0.381-3.381,0,1,0,81,false,stim,false,1,531.7999999998137,1,0,0,71781,task3,1146563,false,false,1228,image-keyboard-response,22
true,17,2,1,2,true,d,false,true,0.0-2.0-0.42-0.382-3.382,0,1,0,68,false,stim,false,2,590.3000000007451,1,1,1,71781,task3,1148666,false,false,1231,image-keyboard-response,23
true,17,2,1,2,true,d,false,true,0.0-2.0-0.42-0.383-3.383,0,1,0,68,false,stim,false,2,891.5,1,1,1,71781,task3,1151085,false,false,1234,image-keyboard-response,24
true,18,1,2,2,false,d,true,false,0.0-2.0-0.42-0.384-3.384,0,1,1,90,true,stim,false,2,794.4000000003725,1,1,2,71781,task3,1153393,false,false,1237,image-keyboard-response,1
true,18,0,2,1,false,z,false,false,0.0-2.0-0.42-0.385-3.385,0,1,1,81,false,stim,true,0,1376.7000000001863,1,0,0,71781,task3,1156305,false,false,1240,image-keyboard-response,2
true,18,2,2,2,true,d,false,true,0.0-2.0-0.42-0.386-3.386,0,1,1,68,false,stim,false,2,887.6000000005588,1,1,2,71781,task3,1158725,false,false,1243,image-keyboard-response,3
true,18,2,2,2,true,d,false,true,0.0-2.0-0.43-0.387-3.387,0,1,1,68,false,stim,false,2,502.5,1,1,2,71781,task3,1160748,false,false,1246,image-keyboard-response,4
true,18,2,2,2,true,d,false,false,0.0-2.0-0.43-0.388-3.388,0,1,1,68,false,stim,false,2,439.0,1,1,2,71781,task3,1162707,false,true,1249,image-keyboard-response,5
true,18,0,2,1,false,z,false,false,0.0-2.0-0.43-0.389-3.389,0,1,1,81,false,stim,true,0,1121.1000000005588,1,0,0,71781,task3,1165341,false,false,1252,image-keyboard-response,6
true,18,1,2,1,true,z,false,true,0.0-2.0-0.43-0.390-3.390,0,1,1,90,false,stim,false,0,661.7999999998137,1,0,0,71781,task3,1167524,false,false,1255,image-keyboard-response,7
true,18,1,2,1,true,z,false,true,0.0-2.0-0.43-0.391-3.391,0,1,1,90,false,stim,false,0,623.4000000003725,1,0,0,71781,task3,1169668,false,false,1258,image-keyboard-response,8
true,18,2,2,2,true,d,false,true,0.0-2.0-0.43-0.392-3.392,0,1,1,68,false,stim,false,2,614.2000000001863,1,1,1,71781,task3,1171802,false,false,1261,image-keyboard-response,9
true,18,2,2,2,true,d,false,true,0.0-2.0-0.43-0.393-3.393,0,1,1,68,false,stim,false,2,870.7000000001863,1,1,1,71781,task3,1174194,false,false,1264,image-keyboard-response,10
true,18,2,2,2,true,d,false,true,0.0-2.0-0.43-0.394-3.394,0,1,1,68,false,stim,false,2,654.4000000003725,1,1,1,71781,task3,1176372,false,false,1267,image-keyboard-response,11
true,18,2,2,2,true,d,false,true,0.0-2.0-0.43-0.395-3.395,0,1,1,68,false,stim,false,2,1137.699999999255,1,0,2,71781,task3,1179045,false,false,1270,image-keyboard-response,12
true,18,2,2,2,true,d,false,true,0.0-2.0-0.44-0.396-3.396,0,1,1,68,false,stim,false,2,715.6000000005588,1,0,2,71781,task3,1181278,false,false,1273,image-keyboard-response,13
true,18,2,2,2,true,d,false,true,0.0-2.0-0.44-0.397-3.397,0,1,1,68,false,stim,false,2,1552.1000000005588,1,1,1,71781,task3,1184346,false,false,1276,image-keyboard-response,14
true,18,2,2,2,true,d,false,true,0.0-2.0-0.44-0.398-3.398,0,1,1,68,false,stim,false,2,532.8999999994412,1,1,1,71781,task3,1186410,false,false,1279,image-keyboard-response,15
true,19,1,2,1,true,z,false,true,0.0-2.0-0.44-0.399-3.399,1,1,0,90,true,stim,false,1,651.5999999996275,1,1,0,71781,task3,1188588,false,false,1282,image-keyboard-response,1
true,19,2,2,2,true,d,false,true,0.0-2.0-0.44-0.400-3.400,1,1,0,68,false,stim,false,2,608.7000000001863,1,1,1,71781,task3,1190710,false,false,1285,image-keyboard-response,2
true,19,2,2,1,false,z,false,false,0.0-2.0-0.44-0.401-3.401,1,1,0,68,false,stim,true,2,878.1000000005588,1,0,2,71781,task3,1193116,false,false,1288,image-keyboard-response,3
true,19,2,2,1,false,z,false,false,0.0-2.0-0.44-0.402-3.402,1,1,0,68,false,stim,true,2,581.6000000005588,1,0,2,71781,task3,1195234,false,false,1291,image-keyboard-response,4
true,19,1,2,1,true,z,false,true,0.0-2.0-0.44-0.403-3.403,1,1,0,90,false,stim,false,1,572.5,1,1,0,71781,task3,1197322,false,false,1294,image-keyboard-response,5
true,19,1,2,1,true,z,false,true,0.0-2.0-0.44-0.404-3.404,1,1,0,90,false,stim,false,1,490.29999999981374,1,1,0,71781,task3,1199330,false,false,1297,image-keyboard-response,6
true,19,1,2,1,true,z,false,true,0.0-2.0-0.45-0.405-3.405,1,1,0,90,false,stim,false,1,526.2999999998137,1,1,0,71781,task3,1201389,false,false,1300,image-keyboard-response,7
true,19,0,2,1,false,z,true,false,0.0-2.0-0.45-0.406-3.406,1,1,0,81,false,stim,false,2,848.7000000001863,1,0,2,71781,task3,1203777,false,false,1303,image-keyboard-response,8
true,19,1,2,1,true,z,false,true,0.0-2.0-0.45-0.407-3.407,1,1,0,90,false,stim,false,2,449.3999999994412,1,0,2,71781,task3,1205742,false,false,1306,image-keyboard-response,9
true,19,1,2,1,true,z,false,true,0.0-2.0-0.45-0.408-3.408,1,1,0,90,false,stim,false,1,511.5,1,0,0,71781,task3,1207780,false,false,1309,image-keyboard-response,10
true,19,1,2,1,true,z,false,true,0.0-2.0-0.45-0.409-3.409,1,1,0,90,false,stim,false,2,633.9000000003725,1,1,2,71781,task3,1209938,false,false,1312,image-keyboard-response,11
true,19,2,2,2,true,d,false,false,0.0-2.0-0.45-0.410-3.410,1,1,0,68,false,stim,false,2,846.9000000003725,1,1,1,71781,task3,1212296,false,true,1315,image-keyboard-response,12
true,19,1,2,1,true,z,false,true,0.0-2.0-0.45-0.411-3.411,1,1,0,90,false,stim,false,1,501.30000000074506,1,0,0,71781,task3,1214315,false,false,1318,image-keyboard-response,13
true,19,0,2,2,false,d,true,false,0.0-2.0-0.45-0.412-3.412,1,1,0,81,false,stim,false,2,740.1000000005588,1,1,1,71781,task3,1216578,false,false,1321,image-keyboard-response,14
true,20,2,2,2,true,d,false,true,0.0-2.0-0.45-0.413-3.413,0,1,1,68,true,stim,false,2,685.8000000007451,1,1,1,71781,task3,1218801,false,false,1324,image-keyboard-response,1
true,20,1,2,1,true,z,false,true,0.0-2.0-0.46-0.414-3.414,0,1,1,90,false,stim,false,1,703.2999999998137,1,1,2,71781,task3,1221020,false,false,1327,image-keyboard-response,2
true,20,1,2,1,true,z,false,true,0.0-2.0-0.46-0.415-3.415,0,1,1,90,false,stim,false,1,433.80000000074506,1,1,2,71781,task3,1222976,false,false,1330,image-keyboard-response,3
true,20,2,2,2,true,d,false,true,0.0-2.0-0.46-0.416-3.416,0,1,1,68,false,stim,false,2,1055.2999999998137,1,1,1,71781,task3,1225544,false,false,1333,image-keyboard-response,4
true,20,2,2,2,true,d,false,true,0.0-2.0-0.46-0.417-3.417,0,1,1,68,false,stim,false,2,603.0999999996275,1,1,1,71781,task3,1227672,false,false,1336,image-keyboard-response,5
true,20,2,2,2,true,d,false,true,0.0-2.0-0.46-0.418-3.418,0,1,1,68,false,stim,false,2,518.4000000003725,1,1,1,71781,task3,1229711,false,false,1339,image-keyboard-response,6
true,20,1,2,0,false,q,false,false,0.0-2.0-0.46-0.419-3.419,0,1,1,90,false,stim,true,1,704.8999999994412,1,0,0,71781,task3,1231939,false,false,1342,image-keyboard-response,7
true,20,1,2,1,true,z,false,true,0.0-2.0-0.46-0.420-3.420,0,1,1,90,false,stim,false,1,795.5,1,0,2,71781,task3,1234256,false,false,1345,image-keyboard-response,8
true,20,2,2,0,false,q,true,false,0.0-2.0-0.46-0.421-3.421,0,1,1,68,false,stim,false,1,938.0999999996275,1,1,0,71781,task3,1236727,false,false,1348,image-keyboard-response,9
true,20,0,2,0,true,q,false,false,0.0-2.0-0.46-0.422-3.422,0,1,1,81,false,stim,false,1,640.5,1,1,0,71781,task3,1238898,false,true,1351,image-keyboard-response,10
true,20,1,2,0,false,q,false,false,0.0-2.0-0.47-0.423-3.423,0,1,1,90,false,stim,true,1,517.5,1,1,0,71781,task3,1240937,false,false,1354,image-keyboard-response,11
true,20,1,2,0,false,q,false,false,0.0-2.0-0.47-0.424-3.424,0,1,1,90,false,stim,true,1,1303.699999999255,1,1,0,71781,task3,1243775,false,false,1357,image-keyboard-response,12
true,21,1,1,2,false,d,false,false,0.0-2.0-0.47-0.425-3.425,1,0,0,90,true,stim,true,1,857.1000000005588,1,0,2,71781,task3,1246173,false,false,1360,image-keyboard-response,1
true,21,2,1,1,false,z,false,false,0.0-2.0-0.47-0.426-3.426,1,0,0,68,false,stim,true,2,546.7000000001863,1,0,1,71781,task3,1248231,false,false,1363,image-keyboard-response,2
true,21,2,1,1,false,z,false,false,0.0-2.0-0.47-0.427-3.427,1,0,0,68,false,stim,true,2,750.8999999994412,1,0,1,71781,task3,1250510,false,false,1366,image-keyboard-response,3
true,21,0,1,2,false,d,true,false,0.0-2.0-0.47-0.428-3.428,1,0,0,81,false,stim,false,1,1078.0999999996275,1,0,2,71781,task3,1253122,false,false,1369,image-keyboard-response,4
true,21,2,1,2,true,d,false,true,0.0-2.0-0.47-0.429-3.429,1,0,0,68,false,stim,false,1,560.0999999996275,1,0,2,71781,task3,1255197,false,false,1372,image-keyboard-response,5
true,21,1,1,1,true,z,false,true,0.0-2.0-0.47-0.430-3.430,1,0,0,90,false,stim,false,2,1112.0,1,0,1,71781,task3,1257840,false,false,1375,image-keyboard-response,6
true,21,2,1,0,false,q,true,true,0.0-2.0-0.47-0.431-3.431,1,0,0,68,false,stim,false,0,1441.5,1,1,0,71781,task3,1260812,false,true,1378,image-keyboard-response,7
true,21,1,1,1,true,z,false,true,0.0-2.0-0.48-0.432-3.432,1,0,0,90,false,stim,false,2,474.8999999994412,1,0,1,71781,task3,1262831,false,false,1381,image-keyboard-response,8
true,21,2,1,2,true,d,false,true,0.0-2.0-0.48-0.433-3.433,1,0,0,68,false,stim,false,1,687.4000000003725,1,0,2,71781,task3,1265044,false,false,1384,image-keyboard-response,9
true,21,2,1,0,false,q,true,false,0.0-2.0-0.48-0.434-3.434,1,0,0,68,false,stim,false,0,1049.7999999998137,1,1,0,71781,task3,1267608,false,false,1387,image-keyboard-response,10
true,21,2,1,2,true,d,false,true,0.0-2.0-0.48-0.435-3.435,1,0,0,68,false,stim,false,1,615.9000000003725,1,0,2,71781,task3,1269742,false,false,1390,image-keyboard-response,11
true,21,2,1,2,true,d,false,true,0.0-2.0-0.48-0.436-3.436,1,0,0,68,false,stim,false,1,727.7000000001863,1,0,2,71781,task3,1272011,false,false,1393,image-keyboard-response,12
true,21,1,1,1,true,z,false,true,0.0-2.0-0.48-0.437-3.437,1,0,0,90,false,stim,false,2,845.4000000003725,1,0,1,71781,task3,1274402,false,false,1396,image-keyboard-response,13
true,21,2,1,0,false,q,true,false,0.0-2.0-0.48-0.438-3.438,1,0,0,68,false,stim,false,0,1178.1000000005588,1,1,0,71781,task3,1277106,false,false,1399,image-keyboard-response,14
true,21,1,1,0,false,q,true,false,0.0-2.0-0.48-0.439-3.439,1,0,0,90,false,stim,false,0,1000.0999999996275,1,1,0,71781,task3,1279634,false,false,1402,image-keyboard-response,15
true,21,1,1,1,true,z,false,true,0.0-2.0-0.48-0.440-3.440,1,0,0,90,false,stim,false,2,1264.0,1,0,1,71781,task3,1282418,false,false,1405,image-keyboard-response,16
true,21,2,1,2,true,d,false,true,0.0-2.0-0.49-0.441-3.441,1,0,0,68,false,stim,false,1,809.6000000005588,1,0,2,71781,task3,1284742,false,false,1408,image-keyboard-response,17
true,21,1,1,1,true,z,false,true,0.0-2.0-0.49-0.442-3.442,1,0,0,90,false,stim,false,2,1135.0,1,1,1,71781,task3,1287409,false,false,1411,image-keyboard-response,18
true,21,1,1,1,true,z,false,true,0.0-2.0-0.49-0.443-3.443,1,0,0,90,false,stim,false,2,627.6999999992549,1,1,1,71781,task3,1289572,false,false,1414,image-keyboard-response,19
true,21,0,1,0,true,q,false,true,0.0-2.0-0.49-0.444-3.444,1,0,0,81,false,stim,false,0,680.7999999998137,1,1,0,71781,task3,1291761,false,false,1417,image-keyboard-response,20
true,21,0,1,0,true,q,false,true,0.0-2.0-0.49-0.445-3.445,1,0,0,81,false,stim,false,0,568.0,1,1,0,71781,task3,1293856,false,false,1420,image-keyboard-response,21
true,21,1,1,1,true,z,false,true,0.0-2.0-0.49-0.446-3.446,1,0,0,90,false,stim,false,2,1277.7000000001863,1,1,1,71781,task3,1296664,false,false,1423,image-keyboard-response,22
true,22,0,2,0,true,q,false,true,0.0-2.0-0.49-0.447-3.447,1,1,0,81,true,stim,false,0,820.0,1,1,0,71781,task3,1299010,false,false,1426,image-keyboard-response,1
true,22,2,2,0,false,q,false,false,0.0-2.0-0.49-0.448-3.448,1,1,0,68,false,stim,true,2,651.2000000001863,1,0,2,71781,task3,1301184,false,false,1429,image-keyboard-response,2
true,22,2,2,0,false,q,false,false,0.0-2.0-0.49-0.449-3.449,1,1,0,68,false,stim,true,2,1053.7999999998137,1,0,2,71781,task3,1303772,false,false,1432,image-keyboard-response,3
true,22,1,2,1,true,z,false,true,0.0-2.0-0.50-0.450-3.450,1,1,0,90,false,stim,false,1,1178.699999999255,1,1,1,71781,task3,1306481,false,false,1435,image-keyboard-response,4
true,22,1,2,0,false,q,true,false,0.0-2.0-0.50-0.451-3.451,1,1,0,90,false,stim,false,2,1148.0,1,0,2,71781,task3,1309153,false,false,1438,image-keyboard-response,5
true,22,0,2,0,true,q,false,true,0.0-2.0-0.50-0.452-3.452,1,1,0,81,false,stim,false,0,744.0999999996275,1,1,0,71781,task3,1311427,false,false,1441,image-keyboard-response,6
true,22,0,2,0,true,q,false,true,0.0-2.0-0.50-0.453-3.453,1,1,0,81,false,stim,false,2,566.1000000005588,1,1,2,71781,task3,1313526,false,false,1444,image-keyboard-response,7
true,22,0,2,0,true,q,false,true,0.0-2.0-0.50-0.454-3.454,1,1,0,81,false,stim,false,2,964.8999999994412,1,1,2,71781,task3,1316009,false,false,1447,image-keyboard-response,8
true,22,1,2,1,true,z,false,true,0.0-2.0-0.50-0.455-3.455,1,1,0,90,false,stim,false,1,1536.0999999996275,1,0,1,71781,task3,1319072,false,false,1450,image-keyboard-response,9
true,22,1,2,1,true,z,false,true,0.0-2.0-0.50-0.456-3.456,1,1,0,90,false,stim,false,1,619.9000000003725,1,0,1,71781,task3,1321205,false,false,1453,image-keyboard-response,10
true,22,0,2,0,true,q,false,true,0.0-2.0-0.50-0.457-3.457,1,1,0,81,false,stim,false,0,711.0,1,0,0,71781,task3,1323440,false,false,1456,image-keyboard-response,11
true,23,0,1,1,false,z,false,false,0.0-2.0-0.50-0.458-3.458,0,0,1,81,true,stim,true,0,623.1999999992549,1,0,0,71781,task3,1325588,false,false,1459,image-keyboard-response,1
true,23,1,1,0,false,q,false,false,0.0-2.0-0.51-0.459-3.459,0,0,1,90,false,stim,true,1,782.7000000001863,1,0,1,71781,task3,1327901,false,false,1462,image-keyboard-response,2
true,23,1,1,0,false,q,false,true,0.0-2.0-0.51-0.460-3.460,0,0,1,90,false,stim,true,1,818.1000000005588,1,0,1,71781,task3,1330251,false,true,1465,image-keyboard-response,3
true,23,0,1,0,true,q,false,true,0.0-2.0-0.51-0.461-3.461,0,0,1,81,false,stim,false,0,816.9000000003725,1,1,2,71781,task3,1332588,false,false,1468,image-keyboard-response,4
true,23,1,1,1,true,z,false,false,0.0-2.0-0.51-0.462-3.462,0,0,1,90,false,stim,false,0,658.7999999998137,1,0,0,71781,task3,1334771,false,true,1471,image-keyboard-response,5
true,23,2,1,1,false,z,true,false,0.0-2.0-0.51-0.463-3.463,0,0,1,68,false,stim,false,0,1645.2999999998137,1,0,0,71781,task3,1337934,false,false,1474,image-keyboard-response,6
true,23,1,1,0,false,q,false,false,0.0-2.0-0.51-0.464-3.464,0,0,1,90,false,stim,true,1,1013.7999999998137,1,0,1,71781,task3,1340469,false,false,1477,image-keyboard-response,7
true,23,0,1,1,false,z,false,false,0.0-2.0-0.51-0.465-3.465,0,0,1,81,false,stim,true,0,416.70000000018626,1,0,0,71781,task3,1342407,false,false,1480,image-keyboard-response,8
true,23,0,1,0,true,q,false,true,0.0-2.0-0.51-0.466-3.466,0,0,1,81,false,stim,false,0,393.5,1,1,2,71781,task3,1344321,false,false,1483,image-keyboard-response,9
true,23,0,1,0,true,q,false,false,0.0-2.0-0.51-0.467-3.467,0,0,1,81,false,stim,false,0,791.7000000001863,1,0,2,71781,task3,1346631,false,true,1486,image-keyboard-response,10
true,23,0,1,0,true,q,false,true,0.0-2.0-0.52-0.468-3.468,0,0,1,81,false,stim,false,0,513.2000000001863,1,0,2,71781,task3,1348669,false,false,1489,image-keyboard-response,11
true,23,0,1,1,false,z,false,false,0.0-2.0-0.52-0.469-3.469,0,0,1,81,false,stim,true,0,650.7000000001863,1,1,0,71781,task3,1350843,false,false,1492,image-keyboard-response,12
true,23,0,1,0,true,q,false,true,0.0-2.0-0.52-0.470-3.470,0,0,1,81,false,stim,false,0,629.7000000001863,1,0,2,71781,task3,1352996,false,false,1495,image-keyboard-response,13
true,23,0,1,0,true,q,false,true,0.0-2.0-0.52-0.471-3.471,0,0,1,81,false,stim,false,0,582.0999999996275,1,0,2,71781,task3,1355094,false,false,1498,image-keyboard-response,14
true,24,2,2,1,false,z,true,false,0.0-2.0-0.52-0.472-3.472,1,1,0,68,true,stim,false,1,532.0,1,1,0,71781,task3,1357148,false,false,1501,image-keyboard-response,1
true,24,2,2,0,false,q,true,false,0.0-2.0-0.52-0.473-3.473,1,1,0,68,false,stim,false,0,843.8999999994412,1,1,1,71781,task3,1359512,false,false,1504,image-keyboard-response,2
true,24,0,2,0,true,q,false,true,0.0-2.0-0.52-0.474-3.474,1,1,0,81,false,stim,false,0,683.2999999998137,1,1,1,71781,task3,1361711,false,false,1507,image-keyboard-response,3
true,24,1,2,1,true,z,false,true,0.0-2.0-0.52-0.475-3.475,1,1,0,90,false,stim,false,1,791.6000000005588,1,1,0,71781,task3,1364024,false,false,1510,image-keyboard-response,4
true,24,0,2,0,true,q,false,true,0.0-2.0-0.52-0.476-3.476,1,1,0,81,false,stim,false,0,761.0,1,1,1,71781,task3,1366306,false,false,1513,image-keyboard-response,5
true,24,1,2,1,true,z,false,true,0.0-2.0-0.53-0.477-3.477,1,1,0,90,false,stim,false,1,1058.4000000003725,1,1,0,71781,task3,1368879,false,false,1516,image-keyboard-response,6
true,24,0,2,2,false,d,false,false,0.0-2.0-0.53-0.478-3.478,1,1,0,81,false,stim,true,0,655.7000000001863,1,0,2,71781,task3,1371054,false,false,1519,image-keyboard-response,7
true,24,0,2,0,true,q,false,true,0.0-2.0-0.53-0.479-3.479,1,1,0,81,false,stim,false,0,944.7999999998137,1,1,1,71781,task3,1373527,false,false,1522,image-keyboard-response,8
true,24,0,2,0,true,q,false,true,0.0-2.0-0.53-0.480-3.480,1,1,0,81,false,stim,false,0,714.7000000001863,1,1,1,71781,task3,1375755,false,false,1525,image-keyboard-response,9
true,24,1,2,1,true,z,false,true,0.0-2.0-0.53-0.481-3.481,1,1,0,90,false,stim,false,1,690.9000000003725,1,0,0,71781,task3,1377973,false,false,1528,image-keyboard-response,10
true,24,1,2,2,false,d,true,true,0.0-2.0-0.53-0.482-3.482,1,1,0,90,false,stim,false,0,765.2000000001863,1,1,2,71781,task3,1380271,false,true,1531,image-keyboard-response,11
true,24,0,2,0,true,q,false,true,0.0-2.0-0.53-0.483-3.483,1,1,0,81,false,stim,false,0,626.2000000001863,1,1,1,71781,task3,1382416,false,false,1534,image-keyboard-response,12
true,24,1,2,2,false,d,true,false,0.0-2.0-0.53-0.484-3.484,1,1,0,90,false,stim,false,0,668.7000000001863,1,1,2,71781,task3,1384605,false,false,1537,image-keyboard-response,13
true,24,1,2,1,true,z,false,true,0.0-2.0-0.53-0.485-3.485,1,1,0,90,false,stim,false,1,1550.5,1,0,0,71781,task3,1387686,false,false,1540,image-keyboard-response,14
true,25,1,2,2,false,d,false,false,0.0-2.0-0.54-0.486-3.486,0,1,1,90,true,stim,true,1,499.79999999981374,1,0,0,71781,task3,1389715,false,false,1543,image-keyboard-response,1
true,25,1,2,2,false,d,false,true,0.0-2.0-0.54-0.487-3.487,0,1,1,90,false,stim,true,1,689.1999999992549,1,0,0,71781,task3,1391928,false,true,1546,image-keyboard-response,2
true,25,1,2,2,false,d,true,false,0.0-2.0-0.54-0.488-3.488,0,1,1,90,false,stim,false,2,1029.5999999996275,1,1,2,71781,task3,1394472,false,false,1549,image-keyboard-response,3
true,25,0,2,0,true,q,false,true,0.0-2.0-0.54-0.489-3.489,0,1,1,81,false,stim,false,0,662.4000000003725,1,1,1,71781,task3,1396661,false,false,1552,image-keyboard-response,4
true,25,1,2,2,false,d,false,true,0.0-2.0-0.54-0.490-3.490,0,1,1,90,false,stim,true,1,749.8000000007451,1,0,0,71781,task3,1398938,false,true,1555,image-keyboard-response,5
true,25,0,2,2,false,d,true,false,0.0-2.0-0.54-0.491-3.491,0,1,1,81,false,stim,false,2,517.6000000005588,1,1,2,71781,task3,1400986,false,false,1558,image-keyboard-response,6
true,25,2,2,2,true,d,false,true,0.0-2.0-0.54-0.492-3.492,0,1,1,68,false,stim,false,2,584.0,1,1,2,71781,task3,1403094,false,false,1561,image-keyboard-response,7
true,25,0,2,0,true,q,false,true,0.0-2.0-0.54-0.493-3.493,0,1,1,81,false,stim,false,0,549.2000000001863,1,1,1,71781,task3,1405162,false,false,1564,image-keyboard-response,8
true,25,0,2,0,true,q,false,true,0.0-2.0-0.54-0.494-3.494,0,1,1,81,false,stim,false,0,512.5,1,1,1,71781,task3,1407187,false,false,1567,image-keyboard-response,9
true,25,2,2,2,true,d,false,true,0.0-2.0-0.55-0.495-3.495,0,1,1,68,false,stim,false,2,484.79999999981374,1,1,2,71781,task3,1409184,false,false,1570,image-keyboard-response,10
true,25,1,2,2,false,d,false,false,0.0-2.0-0.55-0.496-3.496,0,1,1,90,false,stim,true,1,968.4000000003725,1,1,0,71781,task3,1411672,false,false,1573,image-keyboard-response,11
true,25,0,2,0,true,q,false,true,0.0-2.0-0.55-0.497-3.497,0,1,1,81,false,stim,false,0,550.7000000001863,1,1,1,71781,task3,1413745,false,false,1576,image-keyboard-response,12
true,26,0,0,2,false,d,true,false,0.0-2.0-0.55-0.498-3.498,1,1,1,81,true,stim,false,2,2187.5,1,1,2,71781,task3,1538687,false,false,1699,image-keyboard-response,1
true,26,0,0,2,false,d,true,true,0.0-2.0-0.55-0.499-3.499,1,1,1,81,false,stim,false,2,1343.800000000745,1,1,0,71781,task3,1541557,false,true,1702,image-keyboard-response,2
true,26,0,0,0,true,q,false,true,0.0-2.0-0.55-0.500-3.500,1,1,1,81,false,stim,false,0,1508.1000000005588,1,1,1,71781,task3,1544590,false,false,1705,image-keyboard-response,3
true,26,1,0,2,false,d,true,false,0.0-2.0-0.55-0.501-3.501,1,1,1,90,false,stim,false,2,725.5,1,1,0,71781,task3,1546848,false,false,1708,image-keyboard-response,4
true,26,0,0,0,true,q,false,true,0.0-2.0-0.55-0.502-3.502,1,1,1,81,false,stim,false,0,575.4000000003725,1,1,1,71781,task3,1548938,false,false,1711,image-keyboard-response,5
true,26,1,0,2,false,d,true,false,0.0-2.0-0.55-0.503-3.503,1,1,1,90,false,stim,false,2,963.5999999996275,1,1,2,71781,task3,1551421,false,false,1714,image-keyboard-response,6
true,26,0,0,0,true,q,false,true,0.0-2.0-0.56-0.504-3.504,1,1,1,81,false,stim,false,0,578.3000000007451,1,0,1,71781,task3,1553529,false,false,1717,image-keyboard-response,7
true,26,2,0,2,true,d,false,false,0.0-2.0-0.56-0.505-3.505,1,1,1,68,false,stim,false,2,955.6000000005588,1,1,2,71781,task3,1556007,false,true,1720,image-keyboard-response,8
true,26,0,0,0,true,q,false,true,0.0-2.0-0.56-0.506-3.506,1,1,1,81,false,stim,false,0,712.7999999998137,1,0,1,71781,task3,1558236,false,false,1723,image-keyboard-response,9
true,26,0,0,0,true,q,false,true,0.0-2.0-0.56-0.507-3.507,1,1,1,81,false,stim,false,0,793.7000000001863,1,0,1,71781,task3,1560555,false,false,1726,image-keyboard-response,10
true,27,0,2,2,false,d,true,true,0.0-2.0-0.56-0.508-3.508,1,0,1,81,true,stim,false,2,738.3999999994412,1,1,0,71781,task3,1562818,false,true,1729,image-keyboard-response,1
true,27,1,2,2,false,d,true,false,0.0-2.0-0.56-0.509-3.509,1,0,1,90,false,stim,false,2,883.8000000007451,1,1,2,71781,task3,1565216,false,false,1732,image-keyboard-response,2
true,27,0,2,2,false,d,true,false,0.0-2.0-0.56-0.510-3.510,1,0,1,81,false,stim,false,2,428.0,1,1,0,71781,task3,1567160,false,false,1735,image-keyboard-response,3
true,27,0,2,2,false,d,true,false,0.0-2.0-0.56-0.511-3.511,1,0,1,81,false,stim,false,2,864.0,1,1,2,71781,task3,1569544,false,false,1738,image-keyboard-response,4
true,27,0,2,2,false,d,true,true,0.0-2.0-0.56-0.512-3.512,1,0,1,81,false,stim,false,2,533.7999999998137,1,1,0,71781,task3,1571592,false,true,1741,image-keyboard-response,5
true,27,0,2,1,false,z,false,false,0.0-2.0-0.57-0.513-3.513,1,0,1,81,false,stim,true,0,359.6000000005588,1,0,1,71781,task3,1573477,false,false,1744,image-keyboard-response,6
true,27,2,2,2,true,d,false,true,0.0-2.0-0.57-0.514-3.514,1,0,1,68,false,stim,false,2,415.90000000037253,1,1,2,71781,task3,1575424,false,false,1747,image-keyboard-response,7
true,27,0,2,2,false,d,true,false,0.0-2.0-0.57-0.515-3.515,1,0,1,81,false,stim,false,2,450.8999999994412,1,1,0,71781,task3,1577394,false,false,1750,image-keyboard-response,8
true,27,2,2,2,true,d,false,true,0.0-2.0-0.57-0.516-3.516,1,0,1,68,false,stim,false,2,647.8000000007451,1,0,2,71781,task3,1579566,false,false,1753,image-keyboard-response,9
true,27,0,2,1,false,z,false,false,0.0-2.0-0.57-0.517-3.517,1,0,1,81,false,stim,true,0,863.7999999998137,1,1,1,71781,task3,1581951,false,false,1756,image-keyboard-response,10
true,27,2,2,2,true,d,false,true,0.0-2.0-0.57-0.518-3.518,1,0,1,68,false,stim,false,2,441.0,1,0,2,71781,task3,1583929,false,false,1759,image-keyboard-response,11
true,27,1,2,1,true,z,false,false,0.0-2.0-0.57-0.519-3.519,1,0,1,90,false,stim,false,0,1487.3999999994412,1,1,1,71781,task3,1586956,false,true,1762,image-keyboard-response,12
true,27,1,2,2,false,d,true,true,0.0-2.0-0.57-0.520-3.520,1,0,1,90,false,stim,false,2,869.7000000001863,1,1,0,71781,task3,1589350,false,true,1765,image-keyboard-response,13
true,28,1,2,2,false,d,true,false,0.0-2.0-0.57-0.521-3.521,1,1,0,90,true,stim,false,2,559.7999999998137,1,1,0,71781,task3,1591442,false,false,1768,image-keyboard-response,1
true,28,0,2,2,false,d,true,false,0.0-2.0-0.58-0.522-3.522,1,1,0,81,false,stim,false,2,515.9000000003725,1,1,0,71781,task3,1593483,false,false,1771,image-keyboard-response,2
true,28,2,2,1,false,z,true,false,0.0-2.0-0.58-0.523-3.523,1,1,0,68,false,stim,false,1,876.3999999994412,1,1,1,71781,task3,1595895,false,false,1774,image-keyboard-response,3
true,28,2,2,2,true,d,false,true,0.0-2.0-0.58-0.524-3.524,1,1,0,68,false,stim,false,2,806.7999999998137,1,1,0,71781,task3,1598224,false,false,1777,image-keyboard-response,4
true,28,2,2,1,false,z,false,false,0.0-2.0-0.58-0.525-3.525,1,1,0,68,false,stim,true,2,881.2999999998137,1,0,2,71781,task3,1600633,false,false,1780,image-keyboard-response,5
true,28,2,2,2,true,d,false,true,0.0-2.0-0.58-0.526-3.526,1,1,0,68,false,stim,false,2,645.0999999996275,1,1,0,71781,task3,1602815,false,false,1783,image-keyboard-response,6
true,28,2,2,1,false,z,false,false,0.0-2.0-0.58-0.527-3.527,1,1,0,68,false,stim,true,2,563.8000000007451,1,0,2,71781,task3,1604900,false,false,1786,image-keyboard-response,7
true,28,1,2,1,true,z,false,true,0.0-2.0-0.58-0.528-3.528,1,1,0,90,false,stim,false,1,646.3999999994412,1,1,1,71781,task3,1607072,false,false,1789,image-keyboard-response,8
true,28,0,2,1,false,z,true,false,0.0-2.0-0.58-0.529-3.529,1,1,0,81,false,stim,false,2,606.6000000005588,1,0,2,71781,task3,1609211,false,false,1792,image-keyboard-response,9
true,28,1,2,1,true,z,false,true,0.0-2.0-0.58-0.530-3.530,1,1,0,90,false,stim,false,1,1500.3999999994412,1,1,1,71781,task3,1612234,false,false,1795,image-keyboard-response,10
true,28,1,2,1,true,z,false,true,0.0-2.0-0.59-0.531-3.531,1,1,0,90,false,stim,false,2,1187.5,1,0,2,71781,task3,1614936,false,false,1798,image-keyboard-response,11
true,28,1,2,1,true,z,false,true,0.0-2.0-0.59-0.532-3.532,1,1,0,90,false,stim,false,2,539.1000000005588,1,0,2,71781,task3,1616989,false,false,1801,image-keyboard-response,12
true,28,1,2,1,true,z,false,true,0.0-2.0-0.59-0.533-3.533,1,1,0,90,false,stim,false,1,2130.0999999996275,1,1,1,71781,task3,1620648,false,false,1804,image-keyboard-response,13
false,28,-1,2,2,false,d,true,false,0.0-2.0-0.59-0.534-3.534,1,1,0,,false,stim,false,2,,1,1,0,71781,task3,1625194,false,false,1807,image-keyboard-response,14
true,28,2,2,2,true,d,false,true,0.0-2.0-0.59-0.535-3.535,1,1,0,68,false,stim,false,2,551.4000000003725,1,1,0,71781,task3,1627263,false,false,1810,image-keyboard-response,15
true,28,1,2,1,true,z,false,true,0.0-2.0-0.59-0.536-3.536,1,1,0,90,false,stim,false,2,1003.7999999998137,1,0,2,71781,task3,1629801,false,false,1813,image-keyboard-response,16
true,28,1,2,1,true,z,false,true,0.0-2.0-0.59-0.537-3.537,1,1,0,90,false,stim,false,1,661.2000000001863,1,1,1,71781,task3,1632000,false,false,1816,image-keyboard-response,17
true,28,2,2,2,true,d,false,true,0.0-2.0-0.59-0.538-3.538,1,1,0,68,false,stim,false,2,524.1000000005588,1,1,0,71781,task3,1634048,false,false,1819,image-keyboard-response,18
true,28,1,2,1,true,z,false,true,0.0-2.0-0.59-0.539-3.539,1,1,0,90,false,stim,false,1,653.0999999996275,1,1,1,71781,task3,1636221,false,false,1822,image-keyboard-response,19
true,28,2,2,2,true,d,false,true,0.0-2.0-0.60-0.540-3.540,1,1,0,68,false,stim,false,2,719.0999999996275,1,1,0,71781,task3,1638461,false,false,1825,image-keyboard-response,20
true,28,1,2,1,true,z,false,true,0.0-2.0-0.60-0.541-3.541,1,1,0,90,false,stim,false,1,894.0,1,1,1,71781,task3,1640878,false,false,1828,image-keyboard-response,21
true,28,1,2,1,true,z,false,false,0.0-2.0-0.60-0.542-3.542,1,1,0,90,false,stim,false,2,802.0,1,0,2,71781,task3,1643202,false,true,1831,image-keyboard-response,22
true,28,2,2,2,true,d,false,true,0.0-2.0-0.60-0.543-3.543,1,1,0,68,false,stim,false,2,557.4000000003725,1,1,0,71781,task3,1645273,false,false,1834,image-keyboard-response,23
true,28,2,2,2,true,d,false,true,0.0-2.0-0.60-0.544-3.544,1,1,0,68,false,stim,false,2,886.4000000003725,1,1,0,71781,task3,1647687,false,false,1837,image-keyboard-response,24
true,28,0,2,1,false,z,true,false,0.0-2.0-0.60-0.545-3.545,1,1,0,81,false,stim,false,2,836.0999999996275,1,0,2,71781,task3,1650045,false,false,1840,image-keyboard-response,25
true,28,1,2,1,true,z,false,true,0.0-2.0-0.60-0.546-3.546,1,1,0,90,false,stim,false,2,595.1999999992549,1,0,2,71781,task3,1652163,false,false,1843,image-keyboard-response,26
true,28,1,2,1,true,z,false,true,0.0-2.0-0.60-0.547-3.547,1,1,0,90,false,stim,false,1,551.5999999996275,1,1,1,71781,task3,1654237,false,false,1846,image-keyboard-response,27
true,29,1,2,1,true,z,false,true,0.0-2.0-0.60-0.548-3.548,1,1,0,90,true,stim,false,1,500.40000000037253,1,1,1,71781,task3,1656270,false,false,1849,image-keyboard-response,1
true,29,2,2,2,true,d,false,true,0.0-2.0-0.61-0.549-3.549,1,1,0,68,false,stim,false,2,619.8000000007451,1,1,0,71781,task3,1658415,false,false,1852,image-keyboard-response,2
true,29,2,2,2,true,d,false,false,0.0-2.0-0.61-0.550-3.550,1,1,0,68,false,stim,false,2,486.29999999981374,1,1,0,71781,task3,1660424,false,true,1855,image-keyboard-response,3
true,29,1,2,1,true,z,false,true,0.0-2.0-0.61-0.551-3.551,1,1,0,90,false,stim,false,1,677.4000000003725,1,1,1,71781,task3,1662616,false,false,1858,image-keyboard-response,4
true,29,0,2,2,false,d,true,true,0.0-2.0-0.61-0.552-3.552,1,1,0,81,false,stim,false,2,843.1999999992549,1,1,0,71781,task3,1664990,false,true,1861,image-keyboard-response,5
true,29,1,2,0,false,q,false,false,0.0-2.0-0.61-0.553-3.553,1,1,0,90,false,stim,true,1,600.9000000003725,1,0,2,71781,task3,1667122,false,false,1864,image-keyboard-response,6
true,29,1,2,1,true,z,false,true,0.0-2.0-0.61-0.554-3.554,1,1,0,90,false,stim,false,1,621.0,1,1,1,71781,task3,1669277,false,false,1867,image-keyboard-response,7
true,29,2,2,0,false,q,true,true,0.0-2.0-0.61-0.555-3.555,1,1,0,68,false,stim,false,1,928.3999999994412,1,0,2,71781,task3,1671720,false,true,1870,image-keyboard-response,8
true,29,1,2,1,true,z,false,true,0.0-2.0-0.61-0.556-3.556,1,1,0,90,false,stim,false,1,597.2000000001863,1,1,1,71781,task3,1673839,false,false,1873,image-keyboard-response,9
true,29,2,2,0,false,q,true,true,0.0-2.0-0.61-0.557-3.557,1,1,0,68,false,stim,false,1,968.8999999994412,1,0,2,71781,task3,1676322,false,true,1876,image-keyboard-response,10
true,29,1,2,1,true,z,false,true,0.0-2.0-0.62-0.558-3.558,1,1,0,90,false,stim,false,1,1085.7000000001863,1,1,1,71781,task3,1678931,false,false,1879,image-keyboard-response,11
true,29,1,2,1,true,z,false,true,0.0-2.0-0.62-0.559-3.559,1,1,0,90,false,stim,false,1,495.0,1,1,1,71781,task3,1680965,false,false,1882,image-keyboard-response,12
true,29,0,2,2,false,d,true,false,0.0-2.0-0.62-0.560-3.560,1,1,0,81,false,stim,false,2,545.7999999998137,1,1,0,71781,task3,1683032,false,false,1885,image-keyboard-response,13
true,29,2,2,0,false,q,true,false,0.0-2.0-0.62-0.561-3.561,1,1,0,68,false,stim,false,1,606.0,1,0,2,71781,task3,1685151,false,false,1888,image-keyboard-response,14
true,29,0,2,2,false,d,true,false,0.0-2.0-0.62-0.562-3.562,1,1,0,81,false,stim,false,2,1357.7999999998137,1,1,0,71781,task3,1688030,false,false,1891,image-keyboard-response,15
true,29,1,2,1,true,z,false,true,0.0-2.0-0.62-0.563-3.563,1,1,0,90,false,stim,false,1,510.79999999981374,1,1,1,71781,task3,1690059,false,false,1894,image-keyboard-response,16
true,29,2,2,0,false,q,true,false,0.0-2.0-0.62-0.564-3.564,1,1,0,68,false,stim,false,1,798.9000000003725,1,0,2,71781,task3,1692373,false,false,1897,image-keyboard-response,17
true,29,2,2,2,true,d,false,true,0.0-2.0-0.62-0.565-3.565,1,1,0,68,false,stim,false,2,629.7999999998137,1,1,0,71781,task3,1694521,false,false,1900,image-keyboard-response,18
true,29,0,2,0,true,q,false,true,0.0-2.0-0.62-0.566-3.566,1,1,0,81,false,stim,false,1,490.09999999962747,1,0,2,71781,task3,1696548,false,false,1903,image-keyboard-response,19
true,29,1,2,1,true,z,false,true,0.0-2.0-0.63-0.567-3.567,1,1,0,90,false,stim,false,1,661.0999999996275,1,1,1,71781,task3,1698738,false,false,1906,image-keyboard-response,20
true,29,1,2,1,true,z,false,false,0.0-2.0-0.63-0.568-3.568,1,1,0,90,false,stim,false,1,604.2999999998137,1,1,1,71781,task3,1700865,false,true,1909,image-keyboard-response,21
true,29,2,2,2,true,d,false,true,0.0-2.0-0.63-0.569-3.569,1,1,0,68,false,stim,false,2,1044.7000000001863,1,1,0,71781,task3,1703431,false,false,1912,image-keyboard-response,22
true,29,0,2,0,true,q,false,true,0.0-2.0-0.63-0.570-3.570,1,1,0,81,false,stim,false,1,602.8999999994412,1,0,2,71781,task3,1705600,false,false,1915,image-keyboard-response,23
true,29,2,2,2,true,d,false,false,0.0-2.0-0.63-0.571-3.571,1,1,0,68,false,stim,false,2,734.8000000007451,1,1,0,71781,task3,1707859,false,true,1918,image-keyboard-response,24
true,29,0,2,0,true,q,false,true,0.0-2.0-0.63-0.572-3.572,1,1,0,81,false,stim,false,1,654.0,1,0,2,71781,task3,1710041,false,false,1921,image-keyboard-response,25
true,29,1,2,2,false,d,true,false,0.0-2.0-0.63-0.573-3.573,1,1,0,90,false,stim,false,2,706.9000000003725,1,1,0,71781,task3,1712275,false,false,1924,image-keyboard-response,26
true,29,0,2,0,true,q,false,true,0.0-2.0-0.63-0.574-3.574,1,1,0,81,false,stim,false,1,579.0,1,0,2,71781,task3,1714390,false,false,1927,image-keyboard-response,27
true,29,2,2,1,false,z,true,false,0.0-2.0-0.63-0.575-3.575,1,1,0,68,false,stim,false,1,995.5999999996275,1,0,1,71781,task3,1716907,false,false,1930,image-keyboard-response,28
true,30,0,1,2,false,d,true,false,0.0-2.0-0.64-0.576-3.576,1,0,0,81,true,stim,false,1,1173.5,1,0,1,71781,task3,1719604,false,false,1933,image-keyboard-response,1
true,30,0,1,1,false,z,false,false,0.0-2.0-0.64-0.577-3.577,1,0,0,81,false,stim,true,0,698.7999999998137,1,0,2,71781,task3,1721829,false,false,1936,image-keyboard-response,2
true,30,2,1,2,true,d,false,true,0.0-2.0-0.64-0.578-3.578,1,0,0,68,false,stim,false,2,1141.800000000745,1,1,0,71781,task3,1724498,false,false,1939,image-keyboard-response,3
true,30,1,1,2,false,d,false,false,0.0-2.0-0.64-0.579-3.579,1,0,0,90,false,stim,true,1,422.8999999994412,1,0,1,71781,task3,1726441,false,false,1942,image-keyboard-response,4
true,30,1,1,2,false,d,false,false,0.0-2.0-0.64-0.580-3.580,1,0,0,90,false,stim,true,1,594.9000000003725,1,0,1,71781,task3,1728569,false,false,1945,image-keyboard-response,5
true,30,2,1,2,true,d,false,true,0.0-2.0-0.64-0.581-3.581,1,0,0,68,false,stim,false,2,680.0,1,1,0,71781,task3,1730772,false,false,1948,image-keyboard-response,6
true,30,1,1,1,true,z,false,true,0.0-2.0-0.64-0.582-3.582,1,0,0,90,false,stim,false,0,590.6999999992549,1,0,2,71781,task3,1732892,false,false,1951,image-keyboard-response,7
true,30,1,1,1,true,z,false,true,0.0-2.0-0.64-0.583-3.583,1,0,0,90,false,stim,false,0,565.2999999998137,1,0,2,71781,task3,1734975,false,false,1954,image-keyboard-response,8
true,30,2,1,2,true,d,false,true,0.0-2.0-0.64-0.584-3.584,1,0,0,68,false,stim,false,2,721.5,1,1,0,71781,task3,1737208,false,false,1957,image-keyboard-response,9
true,30,1,1,1,true,z,false,true,0.0-2.0-0.65-0.585-3.585,1,0,0,90,false,stim,false,0,802.7000000001863,1,0,2,71781,task3,1739532,false,false,1960,image-keyboard-response,10
true,30,2,1,2,true,d,false,true,0.0-2.0-0.65-0.586-3.586,1,0,0,68,false,stim,false,2,1109.5,1,1,0,71781,task3,1742164,false,false,1963,image-keyboard-response,11
true,30,2,1,2,true,d,false,false,0.0-2.0-0.65-0.587-3.587,1,0,0,68,false,stim,false,2,748.3999999994412,1,1,0,71781,task3,1744429,false,true,1966,image-keyboard-response,12
true,30,1,1,1,true,z,false,false,0.0-2.0-0.65-0.588-3.588,1,0,0,90,false,stim,false,0,947.4000000003725,1,0,2,71781,task3,1746895,false,true,1969,image-keyboard-response,13
true,30,1,1,2,false,d,false,true,0.0-2.0-0.65-0.589-3.589,1,0,0,90,false,stim,true,1,1335.0,1,0,1,71781,task3,1749760,false,true,1972,image-keyboard-response,14
true,30,1,1,2,false,d,false,false,0.0-2.0-0.65-0.590-3.590,1,0,0,90,false,stim,true,1,487.8999999994412,1,0,1,71781,task3,1751763,false,false,1975,image-keyboard-response,15
