answered,blockNum,choice,condition,corResp,correct,correct_response,explo,fb,internal_node_id,isStable_1,isStable_2,isStable_3,key_press,newBlock,part,persev,persevResp,rt,sessNum,stableAS,stimulus,subject,task,time_elapsed,training,trap,trial_index,trial_type,trialsInBlock
true,1,0,0,1,false,z,true,false,0.0-2.0-0.0-0.0-3.0,0,0,0,81,true,stim,false,-1,1003.0,2,0,0,72955,task2,73067,false,false,81,image-keyboard-response,1
true,1,1,0,2,false,d,true,false,0.0-2.0-0.0-0.1-3.1,0,0,0,90,false,stim,false,-1,745.0,2,0,2,72955,task2,75322,false,false,84,image-keyboard-response,2
true,1,2,0,2,true,d,false,true,0.0-2.0-0.0-0.2-3.2,0,0,0,68,false,stim,false,-1,643.9999999999854,2,0,2,72955,task2,77475,false,false,87,image-keyboard-response,3
true,1,1,0,0,false,q,true,false,0.0-2.0-0.0-0.3-3.3,0,0,0,90,false,stim,false,-1,670.0,2,0,1,72955,task2,79655,false,false,90,image-keyboard-response,4
true,1,0,0,0,true,q,false,true,0.0-2.0-0.0-0.4-3.4,0,0,0,81,false,stim,false,-1,560.0000000000146,2,0,1,72955,task2,81725,false,false,93,image-keyboard-response,5
true,1,1,0,1,true,z,false,true,0.0-2.0-0.0-0.5-3.5,0,0,0,90,false,stim,false,-1,483.00000000001455,2,0,0,72955,task2,83716,false,false,96,image-keyboard-response,6
true,1,2,0,2,true,d,false,true,0.0-2.0-0.0-0.6-3.6,0,0,0,68,false,stim,false,-1,488.0,2,0,2,72955,task2,85712,false,false,99,image-keyboard-response,7
true,1,1,0,1,true,z,false,true,0.0-2.0-0.0-0.7-3.7,0,0,0,90,false,stim,false,-1,738.0,2,0,0,72955,task2,87961,false,false,102,image-keyboard-response,8
true,1,0,0,0,true,q,false,true,0.0-2.0-0.0-0.8-3.8,0,0,0,81,false,stim,false,-1,519.0,2,0,1,72955,task2,89990,false,false,105,image-keyboard-response,9
true,1,0,0,0,true,q,false,true,0.0-2.0-0.1-0.9-3.9,0,0,0,81,false,stim,false,-1,607.0000000000146,2,0,1,72955,task2,92106,false,false,108,image-keyboard-response,10
true,1,1,0,1,true,z,false,true,0.0-2.0-0.1-0.10-3.10,0,0,0,90,false,stim,false,-1,461.0,2,0,0,72955,task2,94074,false,false,111,image-keyboard-response,11
true,1,2,0,2,true,d,false,true,0.0-2.0-0.1-0.11-3.11,0,0,0,68,false,stim,false,-1,445.0,2,0,2,72955,task2,96029,false,false,114,image-keyboard-response,12
true,1,1,0,1,true,z,false,true,0.0-2.0-0.1-0.12-3.12,0,0,0,90,false,stim,false,-1,637.0,2,0,0,72955,task2,98174,false,false,117,image-keyboard-response,13
true,1,0,0,0,true,q,false,true,0.0-2.0-0.1-0.13-3.13,0,0,0,81,false,stim,false,-1,460.0,2,0,1,72955,task2,100143,false,false,120,image-keyboard-response,14
true,1,2,0,2,true,d,false,true,0.0-2.0-0.1-0.14-3.14,0,0,0,68,false,stim,false,-1,545.0,2,0,2,72955,task2,102197,false,false,123,image-keyboard-response,15
true,1,2,0,2,true,d,false,true,0.0-2.0-0.1-0.15-3.15,0,0,0,68,false,stim,false,-1,581.0,2,0,2,72955,task2,104286,false,false,126,image-keyboard-response,16
true,1,0,0,0,true,q,false,false,0.0-2.0-0.1-0.16-3.16,0,0,0,81,false,stim,false,-1,984.0,2,0,1,72955,task2,106780,false,true,129,image-keyboard-response,17
true,1,1,0,1,true,z,false,true,0.0-2.0-0.1-0.17-3.17,0,0,0,90,false,stim,false,-1,499.0,2,0,0,72955,task2,108789,false,false,132,image-keyboard-response,18
true,1,2,0,2,true,d,false,true,0.0-2.0-0.2-0.18-3.18,0,0,0,68,false,stim,false,-1,608.0,2,0,2,72955,task2,110906,false,false,135,image-keyboard-response,19
true,1,1,0,1,true,z,false,true,0.0-2.0-0.2-0.19-3.19,0,0,0,90,false,stim,false,-1,626.0,2,0,0,72955,task2,113042,false,false,138,image-keyboard-response,20
true,1,2,0,2,true,d,false,true,0.0-2.0-0.2-0.20-3.20,0,0,0,68,false,stim,false,-1,538.0000000000146,2,0,2,72955,task2,115088,false,false,141,image-keyboard-response,21
true,1,1,0,1,true,z,false,true,0.0-2.0-0.2-0.21-3.21,0,0,0,90,false,stim,false,-1,576.9999999999854,2,0,0,72955,task2,117175,false,false,144,image-keyboard-response,22
true,1,0,0,0,true,q,false,true,0.0-2.0-0.2-0.22-3.22,0,0,0,81,false,stim,false,-1,596.0,2,0,1,72955,task2,119285,false,false,147,image-keyboard-response,23
true,1,0,0,0,true,q,false,false,0.0-2.0-0.2-0.23-3.23,0,0,0,81,false,stim,false,-1,488.0,2,0,1,72955,task2,121283,false,true,150,image-keyboard-response,24
true,1,2,0,2,true,d,false,true,0.0-2.0-0.2-0.24-3.24,0,0,0,68,false,stim,false,-1,593.0,2,0,2,72955,task2,123384,false,false,153,image-keyboard-response,25
true,1,1,0,1,true,z,false,false,0.0-2.0-0.2-0.25-3.25,0,0,0,90,false,stim,false,-1,523.0,2,0,0,72955,task2,125417,false,true,156,image-keyboard-response,26
true,2,0,1,2,false,d,false,true,0.0-2.0-0.2-0.26-3.26,0,0,0,81,true,stim,true,0,569.0,2,0,1,72955,task2,127496,false,true,159,image-keyboard-response,1
true,2,1,1,0,false,q,false,false,0.0-2.0-0.3-0.27-3.27,0,0,0,90,false,stim,true,1,576.0,2,0,0,72955,task2,129614,false,false,162,image-keyboard-response,2
true,2,2,1,1,false,z,false,false,0.0-2.0-0.3-0.28-3.28,0,0,0,68,false,stim,true,2,821.0,2,0,2,72955,task2,131944,false,false,165,image-keyboard-response,3
true,2,1,1,0,false,q,false,true,0.0-2.0-0.3-0.29-3.29,0,0,0,90,false,stim,true,1,770.0,2,0,0,72955,task2,134223,false,true,168,image-keyboard-response,4
true,2,0,1,2,false,d,false,false,0.0-2.0-0.3-0.30-3.30,0,0,0,81,false,stim,true,0,705.0,2,0,1,72955,task2,136438,false,false,171,image-keyboard-response,5
true,2,2,1,1,false,z,false,false,0.0-2.0-0.3-0.31-3.31,0,0,0,68,false,stim,true,2,660.0,2,0,2,72955,task2,138616,false,false,174,image-keyboard-response,6
true,2,1,1,1,true,z,false,true,0.0-2.0-0.3-0.32-3.32,0,0,0,90,false,stim,false,2,762.0,2,0,2,72955,task2,140887,false,false,177,image-keyboard-response,7
true,2,1,1,0,false,q,false,false,0.0-2.0-0.3-0.33-3.33,0,0,0,90,false,stim,true,1,712.0,2,0,0,72955,task2,143109,false,false,180,image-keyboard-response,8
true,2,1,1,2,false,d,true,false,0.0-2.0-0.3-0.34-3.34,0,0,0,90,false,stim,false,0,1046.0,2,0,1,72955,task2,145664,false,false,183,image-keyboard-response,9
true,2,0,1,2,false,d,false,false,0.0-2.0-0.3-0.35-3.35,0,0,0,81,false,stim,true,0,650.0,2,0,1,72955,task2,147823,false,false,186,image-keyboard-response,10
true,2,1,1,1,true,z,false,true,0.0-2.0-0.4-0.36-3.36,0,0,0,90,false,stim,false,2,822.0,2,0,2,72955,task2,150154,false,false,189,image-keyboard-response,11
true,2,2,1,2,true,d,false,false,0.0-2.0-0.4-0.37-3.37,0,0,0,68,false,stim,false,0,524.0,2,0,1,72955,task2,152188,false,true,192,image-keyboard-response,12
true,2,1,1,1,true,z,false,true,0.0-2.0-0.4-0.38-3.38,0,0,0,90,false,stim,false,2,754.0,2,0,2,72955,task2,154450,false,false,195,image-keyboard-response,13
true,2,2,1,0,false,q,true,false,0.0-2.0-0.4-0.39-3.39,0,0,0,68,false,stim,false,1,1000.0,2,0,0,72955,task2,156960,false,false,198,image-keyboard-response,14
true,2,1,1,0,false,q,false,false,0.0-2.0-0.4-0.40-3.40,0,0,0,90,false,stim,true,1,729.0,2,0,0,72955,task2,159200,false,false,201,image-keyboard-response,15
true,2,1,1,1,true,z,false,true,0.0-2.0-0.4-0.41-3.41,0,0,0,90,false,stim,false,2,846.0,2,0,2,72955,task2,161554,false,false,204,image-keyboard-response,16
true,2,1,1,2,false,d,true,false,0.0-2.0-0.4-0.42-3.42,0,0,0,90,false,stim,false,0,1028.0,2,0,1,72955,task2,164092,false,false,207,image-keyboard-response,17
true,2,0,1,0,true,q,false,true,0.0-2.0-0.4-0.43-3.43,0,0,0,81,false,stim,false,1,1088.0,2,0,0,72955,task2,166688,false,false,210,image-keyboard-response,18
true,2,0,1,2,false,d,false,false,0.0-2.0-0.4-0.44-3.44,0,0,0,81,false,stim,true,0,480.0,2,0,1,72955,task2,168676,false,false,213,image-keyboard-response,19
true,2,0,1,0,true,q,false,false,0.0-2.0-0.5-0.45-3.45,0,0,0,81,false,stim,false,1,748.0,2,0,0,72955,task2,170934,false,true,216,image-keyboard-response,20
true,2,0,1,0,true,q,false,true,0.0-2.0-0.5-0.46-3.46,0,0,0,81,false,stim,false,1,565.0,2,0,0,72955,task2,173007,false,false,219,image-keyboard-response,21
true,2,1,1,1,true,z,false,true,0.0-2.0-0.5-0.47-3.47,0,0,0,90,false,stim,false,2,906.9999999999709,2,0,2,72955,task2,175433,false,false,222,image-keyboard-response,22
true,2,2,1,2,true,d,false,true,0.0-2.0-0.5-0.48-3.48,0,0,0,68,false,stim,false,0,512.9999999999709,2,0,1,72955,task2,177456,false,false,225,image-keyboard-response,23
true,2,0,1,0,true,q,false,true,0.0-2.0-0.5-0.49-3.49,0,0,0,81,false,stim,false,1,491.0,2,0,0,72955,task2,179456,false,false,228,image-keyboard-response,24
true,2,2,1,2,true,d,false,true,0.0-2.0-0.5-0.50-3.50,0,0,0,68,false,stim,false,0,793.0,2,0,1,72955,task2,181758,false,false,231,image-keyboard-response,25
true,2,1,1,1,true,z,false,true,0.0-2.0-0.5-0.51-3.51,0,0,0,90,false,stim,false,2,498.0,2,0,2,72955,task2,183765,false,false,234,image-keyboard-response,26
true,2,1,1,1,true,z,false,true,0.0-2.0-0.5-0.52-3.52,0,0,0,90,false,stim,false,2,712.0,2,0,2,72955,task2,185987,false,false,237,image-keyboard-response,27
true,2,2,1,2,true,d,false,true,0.0-2.0-0.5-0.53-3.53,0,0,0,68,false,stim,false,0,821.0,2,0,1,72955,task2,188317,false,false,240,image-keyboard-response,28
true,2,0,1,0,true,q,false,true,0.0-2.0-0.6-0.54-3.54,0,0,0,81,false,stim,false,1,459.0,2,0,0,72955,task2,190286,false,false,243,image-keyboard-response,29
true,2,2,1,2,true,d,false,false,0.0-2.0-0.6-0.55-3.55,0,0,0,68,false,stim,false,0,613.9999999999709,2,0,1,72955,task2,192409,false,true,246,image-keyboard-response,30
true,2,1,1,1,true,z,false,true,0.0-2.0-0.6-0.56-3.56,0,0,0,90,false,stim,false,2,659.0,2,0,2,72955,task2,194577,false,false,249,image-keyboard-response,31
true,2,2,1,2,true,d,false,true,0.0-2.0-0.6-0.57-3.57,0,0,0,68,false,stim,false,0,1006.0,2,0,1,72955,task2,197093,false,false,252,image-keyboard-response,32
true,2,1,1,1,true,z,false,true,0.0-2.0-0.6-0.58-3.58,0,0,0,90,false,stim,false,2,728.0,2,0,2,72955,task2,199328,false,false,255,image-keyboard-response,33
true,2,2,1,2,true,d,false,true,0.0-2.0-0.6-0.59-3.59,0,0,0,68,false,stim,false,0,634.9999999999709,2,0,1,72955,task2,201472,false,false,258,image-keyboard-response,34
true,2,1,1,1,true,z,false,true,0.0-2.0-0.6-0.60-3.60,0,0,0,90,false,stim,false,2,542.9999999999709,2,0,2,72955,task2,203523,false,false,261,image-keyboard-response,35
true,3,0,1,2,false,d,false,false,0.0-2.0-0.6-0.61-3.61,0,0,0,81,true,stim,true,0,652.9999999999709,2,0,0,72955,task2,205686,false,false,264,image-keyboard-response,1
true,3,0,1,2,false,d,false,false,0.0-2.0-0.6-0.62-3.62,0,0,0,81,false,stim,true,0,556.0,2,0,0,72955,task2,207752,false,false,267,image-keyboard-response,2
true,3,1,1,2,false,d,true,false,0.0-2.0-0.7-0.63-3.63,0,0,0,90,false,stim,false,0,810.0,2,0,0,72955,task2,210071,false,false,270,image-keyboard-response,3
true,3,2,1,2,true,d,false,true,0.0-2.0-0.7-0.64-3.64,0,0,0,68,false,stim,false,0,471.9999999999709,2,0,0,72955,task2,212053,false,false,273,image-keyboard-response,4
true,3,2,1,2,true,d,false,true,0.0-2.0-0.7-0.65-3.65,0,0,0,68,false,stim,false,0,643.0,2,0,0,72955,task2,214205,false,false,276,image-keyboard-response,5
true,3,2,1,0,false,q,false,false,0.0-2.0-0.7-0.66-3.66,0,0,0,68,false,stim,true,2,603.0,2,0,1,72955,task2,216318,false,false,279,image-keyboard-response,6
true,3,1,1,0,false,q,false,true,0.0-2.0-0.7-0.67-3.67,0,0,0,90,false,stim,true,1,968.0,2,0,2,72955,task2,218795,false,true,282,image-keyboard-response,7
true,3,0,1,0,true,q,false,false,0.0-2.0-0.7-0.68-3.68,0,0,0,81,false,stim,false,2,876.0,2,0,1,72955,task2,221180,false,true,285,image-keyboard-response,8
true,3,1,1,0,false,q,false,false,0.0-2.0-0.7-0.69-3.69,0,0,0,90,false,stim,true,1,737.0000000000291,2,0,2,72955,task2,223427,false,false,288,image-keyboard-response,9
true,3,1,1,0,false,q,true,false,0.0-2.0-0.7-0.70-3.70,0,0,0,90,false,stim,false,2,619.0,2,0,1,72955,task2,225556,false,false,291,image-keyboard-response,10
true,3,1,1,0,false,q,false,false,0.0-2.0-0.7-0.71-3.71,0,0,0,90,false,stim,true,1,817.0,2,0,2,72955,task2,227880,false,false,294,image-keyboard-response,11
true,3,2,1,2,true,d,false,true,0.0-2.0-0.8-0.72-3.72,0,0,0,68,false,stim,false,0,718.0,2,0,0,72955,task2,230106,false,false,297,image-keyboard-response,12
true,3,2,1,0,false,q,true,false,0.0-2.0-0.8-0.73-3.73,0,0,0,68,false,stim,false,1,516.0,2,0,2,72955,task2,232132,false,false,300,image-keyboard-response,13
true,3,2,1,0,false,q,false,false,0.0-2.0-0.8-0.74-3.74,0,0,0,68,false,stim,true,2,741.0,2,0,1,72955,task2,234383,false,false,303,image-keyboard-response,14
true,3,2,1,2,true,d,false,true,0.0-2.0-0.8-0.75-3.75,0,0,0,68,false,stim,false,0,835.0,2,0,0,72955,task2,236727,false,false,306,image-keyboard-response,15
true,3,0,1,0,true,q,false,true,0.0-2.0-0.8-0.76-3.76,0,0,0,81,false,stim,false,1,500.0,2,0,2,72955,task2,238736,false,false,309,image-keyboard-response,16
true,3,1,1,0,false,q,true,false,0.0-2.0-0.8-0.77-3.77,0,0,0,90,false,stim,false,2,609.0,2,0,1,72955,task2,240854,false,false,312,image-keyboard-response,17
true,3,0,1,0,true,q,false,false,0.0-2.0-0.8-0.78-3.78,0,0,0,81,false,stim,false,1,839.0,2,0,2,72955,task2,243202,false,true,315,image-keyboard-response,18
true,3,0,1,0,true,q,false,false,0.0-2.0-0.8-0.79-3.79,0,0,0,81,false,stim,false,2,713.0,2,0,1,72955,task2,245423,false,true,318,image-keyboard-response,19
true,3,2,1,2,true,d,false,true,0.0-2.0-0.8-0.80-3.80,0,0,0,68,false,stim,false,0,582.0,2,0,0,72955,task2,247515,false,false,321,image-keyboard-response,20
true,3,2,1,2,true,d,false,true,0.0-2.0-0.9-0.81-3.81,0,0,0,68,false,stim,false,0,668.0,2,0,0,72955,task2,249721,false,false,324,image-keyboard-response,21
true,3,2,1,2,true,d,false,true,0.0-2.0-0.9-0.82-3.82,0,0,0,68,false,stim,false,0,619.0,2,0,0,72955,task2,251849,false,false,327,image-keyboard-response,22
true,3,2,1,0,false,q,false,false,0.0-2.0-0.9-0.83-3.83,0,0,0,68,false,stim,true,2,645.9999999999709,2,0,1,72955,task2,254004,false,false,330,image-keyboard-response,23
true,3,1,1,0,false,q,true,false,0.0-2.0-0.9-0.84-3.84,0,0,0,90,false,stim,false,2,604.0000000000291,2,0,1,72955,task2,256116,false,false,333,image-keyboard-response,24
true,3,0,1,0,true,q,false,true,0.0-2.0-0.9-0.85-3.85,0,0,0,81,false,stim,false,1,627.0000000000291,2,0,2,72955,task2,258253,false,false,336,image-keyboard-response,25
true,3,2,1,2,true,d,false,true,0.0-2.0-0.9-0.86-3.86,0,0,0,68,false,stim,false,0,663.0,2,0,0,72955,task2,260426,false,false,339,image-keyboard-response,26
true,3,0,1,0,true,q,false,true,0.0-2.0-0.9-0.87-3.87,0,0,0,81,false,stim,false,2,720.0,2,0,1,72955,task2,262656,false,false,342,image-keyboard-response,27
true,3,0,1,0,true,q,false,true,0.0-2.0-0.9-0.88-3.88,0,0,0,81,false,stim,false,1,541.0,2,0,2,72955,task2,264707,false,false,345,image-keyboard-response,28
true,3,0,1,0,true,q,false,true,0.0-2.0-0.9-0.89-3.89,0,0,0,81,false,stim,false,1,589.0,2,0,2,72955,task2,266805,false,false,348,image-keyboard-response,29
true,3,2,1,2,true,d,false,true,0.0-2.0-0.10-0.90-3.90,0,0,0,68,false,stim,false,0,602.0,2,0,0,72955,task2,268916,false,false,351,image-keyboard-response,30
true,3,0,1,2,false,d,false,false,0.0-2.0-0.10-0.91-3.91,0,0,0,81,false,stim,true,0,417.0,2,0,0,72955,task2,270840,false,false,354,image-keyboard-response,31
true,3,2,1,2,true,d,false,true,0.0-2.0-0.10-0.92-3.92,0,0,0,68,false,stim,false,0,611.0,2,0,0,72955,task2,272960,false,false,357,image-keyboard-response,32
true,3,2,1,0,false,q,false,false,0.0-2.0-0.10-0.93-3.93,0,0,0,68,false,stim,true,2,531.0,2,0,1,72955,task2,275001,false,false,360,image-keyboard-response,33
true,3,0,1,0,true,q,false,true,0.0-2.0-0.10-0.94-3.94,0,0,0,81,false,stim,false,1,662.0,2,0,2,72955,task2,277172,false,false,363,image-keyboard-response,34
true,3,0,1,0,true,q,false,true,0.0-2.0-0.10-0.95-3.95,0,0,0,81,false,stim,false,1,689.0,2,0,2,72955,task2,279368,false,false,366,image-keyboard-response,35
true,3,0,1,0,true,q,false,true,0.0-2.0-0.10-0.96-3.96,0,0,0,81,false,stim,false,1,788.0,2,0,2,72955,task2,281664,false,false,369,image-keyboard-response,36
true,3,0,1,0,true,q,false,true,0.0-2.0-0.10-0.97-3.97,0,0,0,81,false,stim,false,2,594.0,2,0,1,72955,task2,283768,false,false,372,image-keyboard-response,37
true,3,0,1,0,true,q,false,true,0.0-2.0-0.10-0.98-3.98,0,0,0,81,false,stim,false,2,610.9999999999418,2,0,1,72955,task2,285889,false,false,375,image-keyboard-response,38
true,4,0,2,2,false,d,false,false,0.0-2.0-0.11-0.99-3.99,1,0,0,81,true,stim,true,0,730.0,2,0,1,72955,task2,288130,false,false,378,image-keyboard-response,1
true,4,0,2,2,false,d,false,false,0.0-2.0-0.11-0.100-3.100,1,0,0,81,false,stim,true,0,547.0,2,0,1,72955,task2,290221,false,false,381,image-keyboard-response,2
true,4,2,2,2,true,d,false,true,0.0-2.0-0.11-0.101-3.101,1,0,0,68,false,stim,false,2,699.0,2,1,0,72955,task2,292427,false,false,384,image-keyboard-response,3
true,4,0,2,1,false,z,false,false,0.0-2.0-0.11-0.102-3.102,1,0,0,81,false,stim,true,0,528.0,2,0,2,72955,task2,294464,false,false,387,image-keyboard-response,4
true,4,2,2,1,false,z,true,false,0.0-2.0-0.11-0.103-3.103,1,0,0,68,false,stim,false,0,894.0000000000582,2,0,2,72955,task2,296867,false,false,390,image-keyboard-response,5
true,4,1,2,2,false,d,true,false,0.0-2.0-0.11-0.104-3.104,1,0,0,90,false,stim,false,0,894.0,2,0,1,72955,task2,299270,false,false,393,image-keyboard-response,6
true,4,2,2,2,true,d,false,true,0.0-2.0-0.11-0.105-3.105,1,0,0,68,false,stim,false,2,824.0,2,1,0,72955,task2,301603,false,false,396,image-keyboard-response,7
true,4,0,2,1,false,z,false,false,0.0-2.0-0.11-0.106-3.106,1,0,0,81,false,stim,true,0,1174.0,2,0,2,72955,task2,304286,false,false,399,image-keyboard-response,8
true,4,2,2,2,true,d,false,true,0.0-2.0-0.11-0.107-3.107,1,0,0,68,false,stim,false,2,895.0,2,1,0,72955,task2,306693,false,false,402,image-keyboard-response,9
true,4,2,2,2,true,d,false,true,0.0-2.0-0.12-0.108-3.108,1,0,0,68,false,stim,false,2,768.0,2,1,0,72955,task2,308972,false,false,405,image-keyboard-response,10
true,4,2,2,2,true,d,false,true,0.0-2.0-0.12-0.109-3.109,1,0,0,68,false,stim,false,0,1417.0,2,0,1,72955,task2,311898,false,false,408,image-keyboard-response,11
true,4,2,2,2,true,d,false,true,0.0-2.0-0.12-0.110-3.110,1,0,0,68,false,stim,false,2,943.0,2,1,0,72955,task2,314351,false,false,411,image-keyboard-response,12
true,4,2,2,1,false,z,true,false,0.0-2.0-0.12-0.111-3.111,1,0,0,68,false,stim,false,0,1316.0,2,0,2,72955,task2,317177,false,false,414,image-keyboard-response,13
true,4,2,2,2,true,d,false,true,0.0-2.0-0.12-0.112-3.112,1,0,0,68,false,stim,false,0,1055.0,2,0,1,72955,task2,319741,false,false,417,image-keyboard-response,14
true,4,2,2,2,true,d,false,false,0.0-2.0-0.12-0.113-3.113,1,0,0,68,false,stim,false,2,619.0,2,1,0,72955,task2,321878,false,true,420,image-keyboard-response,15
true,4,2,2,1,false,z,true,true,0.0-2.0-0.12-0.114-3.114,1,0,0,68,false,stim,false,0,808.0000000000582,2,0,2,72955,task2,324195,false,true,423,image-keyboard-response,16
true,4,2,2,1,false,z,true,true,0.0-2.0-0.12-0.115-3.115,1,0,0,68,false,stim,false,0,736.0,2,0,2,72955,task2,326440,false,true,426,image-keyboard-response,17
true,4,0,2,2,false,d,false,false,0.0-2.0-0.12-0.116-3.116,1,0,0,81,false,stim,true,0,1034.0000000000582,2,0,1,72955,task2,328981,false,false,429,image-keyboard-response,18
true,4,2,2,1,false,z,true,false,0.0-2.0-0.13-0.117-3.117,1,0,0,68,false,stim,false,0,708.0,2,0,2,72955,task2,331198,false,false,432,image-keyboard-response,19
true,4,1,2,2,false,d,true,false,0.0-2.0-0.13-0.118-3.118,1,0,0,90,false,stim,false,0,671.0,2,0,1,72955,task2,333378,false,false,435,image-keyboard-response,20
true,4,1,2,2,false,d,true,false,0.0-2.0-0.13-0.119-3.119,1,0,0,90,false,stim,false,0,591.0,2,0,1,72955,task2,335478,false,false,438,image-keyboard-response,21
true,4,2,2,1,false,z,true,false,0.0-2.0-0.13-0.120-3.120,1,0,0,68,false,stim,false,0,657.0,2,0,2,72955,task2,337646,false,false,441,image-keyboard-response,22
true,4,2,2,2,true,d,false,true,0.0-2.0-0.13-0.121-3.121,1,0,0,68,false,stim,false,0,563.9999999999418,2,0,1,72955,task2,339718,false,false,444,image-keyboard-response,23
true,4,0,2,1,false,z,false,false,0.0-2.0-0.13-0.122-3.122,1,0,0,81,false,stim,true,0,598.0,2,0,2,72955,task2,341825,false,false,447,image-keyboard-response,24
true,4,0,2,2,false,d,true,false,0.0-2.0-0.13-0.123-3.123,1,0,0,81,false,stim,false,2,1317.0,2,1,0,72955,task2,344651,false,false,450,image-keyboard-response,25
true,4,1,2,2,false,d,true,false,0.0-2.0-0.13-0.124-3.124,1,0,0,90,false,stim,false,2,688.0,2,1,0,72955,task2,346849,false,false,453,image-keyboard-response,26
true,4,2,2,2,true,d,false,true,0.0-2.0-0.13-0.125-3.125,1,0,0,68,false,stim,false,2,491.0,2,1,0,72955,task2,348849,false,false,456,image-keyboard-response,27
true,4,1,2,1,true,z,false,true,0.0-2.0-0.14-0.126-3.126,1,0,0,90,false,stim,false,0,1238.0,2,0,2,72955,task2,351596,false,false,459,image-keyboard-response,28
true,4,2,2,2,true,d,false,true,0.0-2.0-0.14-0.127-3.127,1,0,0,68,false,stim,false,2,609.0,2,1,0,72955,task2,353715,false,false,462,image-keyboard-response,29
true,4,2,2,2,true,d,false,true,0.0-2.0-0.14-0.128-3.128,1,0,0,68,false,stim,false,2,660.0,2,0,0,72955,task2,355884,false,false,465,image-keyboard-response,30
true,4,2,2,2,true,d,false,true,0.0-2.0-0.14-0.129-3.129,1,0,0,68,false,stim,false,2,509.9999999999418,2,0,0,72955,task2,357902,false,false,468,image-keyboard-response,31
true,4,2,2,2,true,d,false,false,0.0-2.0-0.14-0.130-3.130,1,0,0,68,false,stim,false,0,738.0,2,0,1,72955,task2,360150,false,true,471,image-keyboard-response,32
true,4,1,2,1,true,z,false,true,0.0-2.0-0.14-0.131-3.131,1,0,0,90,false,stim,false,0,824.9999999999418,2,0,2,72955,task2,362484,false,false,474,image-keyboard-response,33
true,4,1,2,1,true,z,false,false,0.0-2.0-0.14-0.132-3.132,1,0,0,90,false,stim,false,0,704.9999999999418,2,0,2,72955,task2,364699,false,true,477,image-keyboard-response,34
true,5,1,1,1,true,z,false,false,0.0-2.0-0.14-0.133-3.133,0,0,0,90,true,stim,false,2,855.0,2,0,1,72955,task2,367073,false,true,480,image-keyboard-response,1
true,5,0,1,1,false,z,true,false,0.0-2.0-0.14-0.134-3.134,0,0,0,81,false,stim,false,2,1310.0,2,0,1,72955,task2,369891,false,false,483,image-keyboard-response,2
true,5,2,1,1,false,z,false,false,0.0-2.0-0.15-0.135-3.135,0,0,0,68,false,stim,true,2,854.0,2,0,0,72955,task2,372255,false,false,486,image-keyboard-response,3
true,5,2,1,0,false,q,true,false,0.0-2.0-0.15-0.136-3.136,0,0,0,68,false,stim,false,1,1047.0,2,0,2,72955,task2,374812,false,false,489,image-keyboard-response,4
true,5,2,1,1,false,z,false,false,0.0-2.0-0.15-0.137-3.137,0,0,0,68,false,stim,true,2,851.0,2,0,1,72955,task2,377172,false,false,492,image-keyboard-response,5
true,5,0,1,1,false,z,true,false,0.0-2.0-0.15-0.138-3.138,0,0,0,81,false,stim,false,2,784.0,2,0,0,72955,task2,379467,false,false,495,image-keyboard-response,6
true,5,0,1,1,false,z,true,true,0.0-2.0-0.15-0.139-3.139,0,0,0,81,false,stim,false,2,858.0,2,0,1,72955,task2,381835,false,true,498,image-keyboard-response,7
true,5,0,1,1,false,z,true,false,0.0-2.0-0.15-0.140-3.140,0,0,0,81,false,stim,false,2,711.0,2,0,0,72955,task2,384058,false,false,501,image-keyboard-response,8
true,5,1,1,0,false,q,false,true,0.0-2.0-0.15-0.141-3.141,0,0,0,90,false,stim,true,1,909.0,2,0,2,72955,task2,386477,false,true,504,image-keyboard-response,9
true,5,1,1,0,false,q,false,true,0.0-2.0-0.15-0.142-3.142,0,0,0,90,false,stim,true,1,858.0,2,0,2,72955,task2,388843,false,true,507,image-keyboard-response,10
true,5,0,1,1,false,z,true,false,0.0-2.0-0.15-0.143-3.143,0,0,0,81,false,stim,false,2,925.0,2,0,1,72955,task2,391278,false,false,510,image-keyboard-response,11
true,5,2,1,1,false,z,false,false,0.0-2.0-0.16-0.144-3.144,0,0,0,68,false,stim,true,2,1023.0,2,0,0,72955,task2,393811,false,false,513,image-keyboard-response,12
true,5,1,1,1,true,z,false,true,0.0-2.0-0.16-0.145-3.145,0,0,0,90,false,stim,false,2,651.0,2,0,0,72955,task2,395972,false,false,516,image-keyboard-response,13
true,5,1,1,0,false,q,false,false,0.0-2.0-0.16-0.146-3.146,0,0,0,90,false,stim,true,1,767.0,2,0,2,72955,task2,398248,false,false,519,image-keyboard-response,14
true,5,1,1,1,true,z,false,true,0.0-2.0-0.16-0.147-3.147,0,0,0,90,false,stim,false,2,528.0,2,0,1,72955,task2,400283,false,false,522,image-keyboard-response,15
true,5,1,1,1,true,z,false,false,0.0-2.0-0.16-0.148-3.148,0,0,0,90,false,stim,false,2,587.0,2,0,1,72955,task2,402379,false,true,525,image-keyboard-response,16
true,5,1,1,0,false,q,false,false,0.0-2.0-0.16-0.149-3.149,0,0,0,90,false,stim,true,1,1156.0,2,0,2,72955,task2,405045,false,false,528,image-keyboard-response,17
true,5,1,1,1,true,z,false,true,0.0-2.0-0.16-0.150-3.150,0,0,0,90,false,stim,false,2,1078.0000000000582,2,0,0,72955,task2,407632,false,false,531,image-keyboard-response,18
true,5,0,1,1,false,z,true,false,0.0-2.0-0.16-0.151-3.151,0,0,0,81,false,stim,false,2,702.0,2,0,1,72955,task2,409845,false,false,534,image-keyboard-response,19
true,5,2,1,0,false,q,true,false,0.0-2.0-0.16-0.152-3.152,0,0,0,68,false,stim,false,1,1011.0,2,0,2,72955,task2,412393,false,false,537,image-keyboard-response,20
true,5,1,1,1,true,z,false,true,0.0-2.0-0.17-0.153-3.153,0,0,0,90,false,stim,false,2,811.0,2,0,0,72955,task2,414714,false,false,540,image-keyboard-response,21
true,5,1,1,1,true,z,false,true,0.0-2.0-0.17-0.154-3.154,0,0,0,90,false,stim,false,2,681.0,2,0,0,72955,task2,416904,false,false,543,image-keyboard-response,22
true,5,0,1,1,false,z,true,true,0.0-2.0-0.17-0.155-3.155,0,0,0,81,false,stim,false,2,1284.0,2,0,1,72955,task2,419697,false,true,546,image-keyboard-response,23
true,5,1,1,1,true,z,false,true,0.0-2.0-0.17-0.156-3.156,0,0,0,90,false,stim,false,2,751.0,2,0,0,72955,task2,421957,false,false,549,image-keyboard-response,24
true,5,2,1,0,false,q,true,false,0.0-2.0-0.17-0.157-3.157,0,0,0,68,false,stim,false,1,1093.0,2,0,2,72955,task2,424558,false,false,552,image-keyboard-response,25
true,5,1,1,0,false,q,false,false,0.0-2.0-0.17-0.158-3.158,0,0,0,90,false,stim,true,1,742.0,2,0,2,72955,task2,426809,false,false,555,image-keyboard-response,26
true,5,0,1,0,true,q,false,true,0.0-2.0-0.17-0.159-3.159,0,0,0,81,false,stim,false,1,523.0,2,0,2,72955,task2,428840,false,false,558,image-keyboard-response,27
true,5,0,1,1,false,z,true,false,0.0-2.0-0.17-0.160-3.160,0,0,0,81,false,stim,false,2,609.9999999999418,2,0,1,72955,task2,430957,false,false,561,image-keyboard-response,28
true,5,0,1,1,false,z,true,false,0.0-2.0-0.17-0.161-3.161,0,0,0,81,false,stim,false,2,768.9999999999418,2,0,1,72955,task2,433236,false,false,564,image-keyboard-response,29
true,5,1,1,1,true,z,false,true,0.0-2.0-0.18-0.162-3.162,0,0,0,90,false,stim,false,2,998.0,2,0,0,72955,task2,435743,false,false,567,image-keyboard-response,30
true,5,1,1,1,true,z,false,true,0.0-2.0-0.18-0.163-3.163,0,0,0,90,false,stim,false,2,681.0,2,0,0,72955,task2,437933,false,false,570,image-keyboard-response,31
true,5,2,1,1,false,z,false,false,0.0-2.0-0.18-0.164-3.164,0,0,0,68,false,stim,true,2,803.9999999999418,2,1,1,72955,task2,440248,false,false,573,image-keyboard-response,32
true,5,1,1,1,true,z,false,true,0.0-2.0-0.18-0.165-3.165,0,0,0,90,false,stim,false,2,875.0,2,1,1,72955,task2,442629,false,false,576,image-keyboard-response,33
true,5,0,1,0,true,q,false,true,0.0-2.0-0.18-0.166-3.166,0,0,0,81,false,stim,false,1,777.0,2,0,2,72955,task2,444915,false,false,579,image-keyboard-response,34
true,5,1,1,1,true,z,false,true,0.0-2.0-0.18-0.167-3.167,0,0,0,90,false,stim,false,2,563.0,2,1,1,72955,task2,446987,false,false,582,image-keyboard-response,35
true,6,0,2,1,false,z,false,false,0.0-2.0-0.18-0.168-3.168,0,1,0,81,true,stim,true,0,800.0,2,0,2,72955,task2,449296,false,false,585,image-keyboard-response,1
true,6,0,2,1,false,z,false,true,0.0-2.0-0.18-0.169-3.169,0,1,0,81,false,stim,true,0,592.0,2,0,2,72955,task2,451396,false,true,588,image-keyboard-response,2
true,6,1,2,2,false,d,false,false,0.0-2.0-0.18-0.170-3.170,0,1,0,90,false,stim,true,1,602.0,2,0,0,72955,task2,453507,false,false,591,image-keyboard-response,3
true,6,1,2,2,false,d,false,false,0.0-2.0-0.19-0.171-3.171,0,1,0,90,false,stim,true,1,522.0,2,0,0,72955,task2,455537,false,false,594,image-keyboard-response,4
true,6,1,2,1,true,z,false,false,0.0-2.0-0.19-0.172-3.172,0,1,0,90,false,stim,false,0,731.0,2,0,2,72955,task2,457776,false,true,597,image-keyboard-response,5
true,6,1,2,1,true,z,false,true,0.0-2.0-0.19-0.173-3.173,0,1,0,90,false,stim,false,1,543.0,2,1,1,72955,task2,459829,false,false,600,image-keyboard-response,6
true,6,1,2,1,true,z,false,true,0.0-2.0-0.19-0.174-3.174,0,1,0,90,false,stim,false,1,609.0000000000582,2,1,1,72955,task2,461948,false,false,603,image-keyboard-response,7
true,6,0,2,1,false,z,false,false,0.0-2.0-0.19-0.175-3.175,0,1,0,81,false,stim,true,0,817.0,2,0,2,72955,task2,464275,false,false,606,image-keyboard-response,8
true,6,1,2,1,true,z,false,true,0.0-2.0-0.19-0.176-3.176,0,1,0,90,false,stim,false,1,769.0,2,1,1,72955,task2,466555,false,false,609,image-keyboard-response,9
true,6,2,2,1,false,z,true,false,0.0-2.0-0.19-0.177-3.177,0,1,0,68,false,stim,false,0,587.0,2,0,2,72955,task2,468652,false,false,612,image-keyboard-response,10
true,6,0,2,2,false,d,true,false,0.0-2.0-0.19-0.178-3.178,0,1,0,81,false,stim,false,1,1434.0,2,0,0,72955,task2,471595,false,false,615,image-keyboard-response,11
true,6,2,2,2,true,d,false,true,0.0-2.0-0.19-0.179-3.179,0,1,0,68,false,stim,false,1,654.0,2,0,0,72955,task2,473759,false,false,618,image-keyboard-response,12
true,6,0,2,1,false,z,false,false,0.0-2.0-0.20-0.180-3.180,0,1,0,81,false,stim,true,0,615.0,2,0,2,72955,task2,475883,false,false,621,image-keyboard-response,13
true,6,1,2,1,true,z,false,true,0.0-2.0-0.20-0.181-3.181,0,1,0,90,false,stim,false,1,843.0000000000582,2,1,1,72955,task2,478236,false,false,624,image-keyboard-response,14
true,6,1,2,1,true,z,false,true,0.0-2.0-0.20-0.182-3.182,0,1,0,90,false,stim,false,1,717.0,2,1,1,72955,task2,480464,false,false,627,image-keyboard-response,15
true,6,2,2,2,true,d,false,true,0.0-2.0-0.20-0.183-3.183,0,1,0,68,false,stim,false,1,799.0,2,0,0,72955,task2,482774,false,false,630,image-keyboard-response,16
true,6,1,2,1,true,z,false,false,0.0-2.0-0.20-0.184-3.184,0,1,0,90,false,stim,false,0,1120.0,2,0,2,72955,task2,485402,false,true,633,image-keyboard-response,17
true,6,0,2,1,false,z,false,false,0.0-2.0-0.20-0.185-3.185,0,1,0,81,false,stim,true,0,727.0,2,0,2,72955,task2,487637,false,false,636,image-keyboard-response,18
true,6,2,2,2,true,d,false,true,0.0-2.0-0.20-0.186-3.186,0,1,0,68,false,stim,false,1,1019.9999999999418,2,0,0,72955,task2,490166,false,false,639,image-keyboard-response,19
true,6,1,2,1,true,z,false,true,0.0-2.0-0.20-0.187-3.187,0,1,0,90,false,stim,false,1,676.9999999999418,2,1,1,72955,task2,492352,false,false,642,image-keyboard-response,20
true,6,2,2,2,true,d,false,true,0.0-2.0-0.20-0.188-3.188,0,1,0,68,false,stim,false,1,767.0,2,0,0,72955,task2,494629,false,false,645,image-keyboard-response,21
true,6,2,2,2,true,d,false,true,0.0-2.0-0.21-0.189-3.189,0,1,0,68,false,stim,false,1,712.0000000000582,2,0,0,72955,task2,496849,false,false,648,image-keyboard-response,22
true,6,1,2,1,true,z,false,true,0.0-2.0-0.21-0.190-3.190,0,1,0,90,false,stim,false,1,793.0,2,1,1,72955,task2,499151,false,false,651,image-keyboard-response,23
true,6,2,2,1,false,z,true,false,0.0-2.0-0.21-0.191-3.191,0,1,0,68,false,stim,false,0,589.0,2,0,2,72955,task2,501250,false,false,654,image-keyboard-response,24
true,6,2,2,1,false,z,true,false,0.0-2.0-0.21-0.192-3.192,0,1,0,68,false,stim,false,0,610.0,2,0,2,72955,task2,503369,false,false,657,image-keyboard-response,25
true,6,2,2,2,true,d,false,true,0.0-2.0-0.21-0.193-3.193,0,1,0,68,false,stim,false,1,961.0,2,0,0,72955,task2,505840,false,false,660,image-keyboard-response,26
true,6,1,2,1,true,z,false,true,0.0-2.0-0.21-0.194-3.194,0,1,0,90,false,stim,false,1,667.0,2,1,1,72955,task2,508016,false,false,663,image-keyboard-response,27
true,6,2,2,2,true,d,false,true,0.0-2.0-0.21-0.195-3.195,0,1,0,68,false,stim,false,1,1222.0000000001164,2,0,0,72955,task2,510748,false,false,666,image-keyboard-response,28
true,6,1,2,1,true,z,false,true,0.0-2.0-0.21-0.196-3.196,0,1,0,90,false,stim,false,1,765.0000000001164,2,1,1,72955,task2,513070,false,false,669,image-keyboard-response,29
true,6,1,2,1,true,z,false,true,0.0-2.0-0.21-0.197-3.197,0,1,0,90,false,stim,false,0,784.9999999999418,2,0,2,72955,task2,515365,false,false,672,image-keyboard-response,30
true,6,2,2,2,true,d,false,true,0.0-2.0-0.22-0.198-3.198,0,1,0,68,false,stim,false,1,744.0000000000582,2,0,0,72955,task2,517619,false,false,675,image-keyboard-response,31
true,6,1,2,1,true,z,false,true,0.0-2.0-0.22-0.199-3.199,0,1,0,90,false,stim,false,1,858.0,2,1,1,72955,task2,519987,false,false,678,image-keyboard-response,32
true,6,1,2,1,true,z,false,false,0.0-2.0-0.22-0.200-3.200,0,1,0,90,false,stim,false,1,803.0,2,1,1,72955,task2,522299,false,true,681,image-keyboard-response,33
true,6,1,2,1,true,z,false,true,0.0-2.0-0.22-0.201-3.201,0,1,0,90,false,stim,false,0,692.0,2,0,2,72955,task2,524501,false,false,684,image-keyboard-response,34
true,6,2,2,2,true,d,false,true,0.0-2.0-0.22-0.202-3.202,0,1,0,68,false,stim,false,1,690.0,2,0,0,72955,task2,526701,false,false,687,image-keyboard-response,35
true,7,2,2,1,false,z,false,false,0.0-2.0-0.22-0.203-3.203,0,1,0,68,true,stim,true,2,890.0,2,0,0,72955,task2,529101,false,false,690,image-keyboard-response,1
true,7,1,2,1,true,z,false,true,0.0-2.0-0.22-0.204-3.204,0,1,0,90,false,stim,false,1,707.0,2,1,1,72955,task2,531318,false,false,693,image-keyboard-response,2
true,7,1,2,2,false,d,false,false,0.0-2.0-0.22-0.205-3.205,0,1,0,90,false,stim,true,1,948.0,2,0,2,72955,task2,533775,false,false,696,image-keyboard-response,3
true,7,1,2,2,false,d,false,true,0.0-2.0-0.22-0.206-3.206,0,1,0,90,false,stim,true,1,676.0,2,0,2,72955,task2,535960,false,true,699,image-keyboard-response,4
true,7,2,2,1,false,z,false,false,0.0-2.0-0.23-0.207-3.207,0,1,0,68,false,stim,true,2,847.0000000001164,2,0,0,72955,task2,538320,false,false,702,image-keyboard-response,5
true,7,1,2,2,false,d,false,false,0.0-2.0-0.23-0.208-3.208,0,1,0,90,false,stim,true,1,659.0000000001164,2,0,2,72955,task2,540488,false,false,705,image-keyboard-response,6
true,7,1,2,2,false,d,false,true,0.0-2.0-0.23-0.209-3.209,0,1,0,90,false,stim,true,1,517.0,2,0,2,72955,task2,542515,false,true,708,image-keyboard-response,7
true,7,1,2,1,true,z,false,true,0.0-2.0-0.23-0.210-3.210,0,1,0,90,false,stim,false,1,1191.0,2,1,1,72955,task2,545216,false,false,711,image-keyboard-response,8
true,7,1,2,1,true,z,false,true,0.0-2.0-0.23-0.211-3.211,0,1,0,90,false,stim,false,1,729.0,2,1,1,72955,task2,547454,false,false,714,image-keyboard-response,9
true,7,0,2,1,false,z,true,false,0.0-2.0-0.23-0.212-3.212,0,1,0,81,false,stim,false,2,654.0,2,0,0,72955,task2,549616,false,false,717,image-keyboard-response,10
true,7,1,2,1,true,z,false,true,0.0-2.0-0.23-0.213-3.213,0,1,0,90,false,stim,false,1,722.0,2,1,1,72955,task2,551849,false,false,720,image-keyboard-response,11
true,7,1,2,1,true,z,false,true,0.0-2.0-0.23-0.214-3.214,0,1,0,90,false,stim,false,2,1187.0,2,0,0,72955,task2,554545,false,false,723,image-keyboard-response,12
true,7,1,2,2,false,d,false,false,0.0-2.0-0.23-0.215-3.215,0,1,0,90,false,stim,true,1,630.0,2,0,2,72955,task2,556684,false,false,726,image-keyboard-response,13
true,7,1,2,1,true,z,false,true,0.0-2.0-0.24-0.216-3.216,0,1,0,90,false,stim,false,1,647.0,2,1,1,72955,task2,558841,false,false,729,image-keyboard-response,14
true,7,1,2,2,false,d,false,false,0.0-2.0-0.24-0.217-3.217,0,1,0,90,false,stim,true,1,804.0,2,0,2,72955,task2,561154,false,false,732,image-keyboard-response,15
true,7,2,2,2,true,d,false,false,0.0-2.0-0.24-0.218-3.218,0,1,0,68,false,stim,false,1,778.0000000001164,2,0,2,72955,task2,563441,false,true,735,image-keyboard-response,16
true,7,1,2,1,true,z,false,true,0.0-2.0-0.24-0.219-3.219,0,1,0,90,false,stim,false,1,660.0,2,1,1,72955,task2,565611,false,false,738,image-keyboard-response,17
true,7,1,2,1,true,z,false,true,0.0-2.0-0.24-0.220-3.220,0,1,0,90,false,stim,false,2,608.0,2,0,0,72955,task2,567728,false,false,741,image-keyboard-response,18
true,7,1,2,1,true,z,false,true,0.0-2.0-0.24-0.221-3.221,0,1,0,90,false,stim,false,2,702.0,2,0,0,72955,task2,569941,false,false,744,image-keyboard-response,19
true,7,1,2,1,true,z,false,true,0.0-2.0-0.24-0.222-3.222,0,1,0,90,false,stim,false,2,726.0,2,0,0,72955,task2,572175,false,false,747,image-keyboard-response,20
true,7,0,2,2,false,d,true,false,0.0-2.0-0.24-0.223-3.223,0,1,0,81,false,stim,false,1,573.0,2,0,2,72955,task2,574258,false,false,750,image-keyboard-response,21
true,7,1,2,1,true,z,false,true,0.0-2.0-0.24-0.224-3.224,0,1,0,90,false,stim,false,1,758.0,2,1,1,72955,task2,576524,false,false,753,image-keyboard-response,22
true,7,1,2,1,true,z,false,true,0.0-2.0-0.25-0.225-3.225,0,1,0,90,false,stim,false,2,598.0,2,0,0,72955,task2,578632,false,false,756,image-keyboard-response,23
true,7,1,2,2,false,d,false,true,0.0-2.0-0.25-0.226-3.226,0,1,0,90,false,stim,true,1,463.0,2,0,2,72955,task2,580604,false,true,759,image-keyboard-response,24
true,7,1,2,1,true,z,false,true,0.0-2.0-0.25-0.227-3.227,0,1,0,90,false,stim,false,1,619.0,2,1,1,72955,task2,582731,false,false,762,image-keyboard-response,25
true,7,1,2,2,false,d,false,false,0.0-2.0-0.25-0.228-3.228,0,1,0,90,false,stim,true,1,382.0,2,0,2,72955,task2,584623,false,false,765,image-keyboard-response,26
true,7,1,2,1,true,z,false,true,0.0-2.0-0.25-0.229-3.229,0,1,0,90,false,stim,false,1,539.0,2,1,1,72955,task2,586672,false,false,768,image-keyboard-response,27
true,7,1,2,2,false,d,false,false,0.0-2.0-0.25-0.230-3.230,0,1,0,90,false,stim,true,1,565.0,2,0,2,72955,task2,588747,false,false,771,image-keyboard-response,28
true,7,1,2,1,true,z,false,true,0.0-2.0-0.25-0.231-3.231,0,1,0,90,false,stim,false,2,525.0,2,0,0,72955,task2,590782,false,false,774,image-keyboard-response,29
true,7,1,2,1,true,z,false,true,0.0-2.0-0.25-0.232-3.232,0,1,0,90,false,stim,false,2,522.0,2,0,0,72955,task2,592813,false,false,777,image-keyboard-response,30
true,7,1,2,1,true,z,false,true,0.0-2.0-0.25-0.233-3.233,0,1,0,90,false,stim,false,1,714.9999999998836,2,0,1,72955,task2,595037,false,false,780,image-keyboard-response,31
true,7,2,2,2,true,d,false,true,0.0-2.0-0.26-0.234-3.234,0,1,0,68,false,stim,false,1,837.0,2,0,2,72955,task2,597384,false,false,783,image-keyboard-response,32
true,8,1,1,0,false,q,false,false,0.0-2.0-0.26-0.235-3.235,0,0,0,90,true,stim,true,1,807.0,2,0,0,72955,task2,599701,false,false,786,image-keyboard-response,1
true,8,1,1,2,false,d,false,false,0.0-2.0-0.26-0.236-3.236,0,0,0,90,false,stim,true,1,706.0,2,0,1,72955,task2,601915,false,false,789,image-keyboard-response,2
true,8,2,1,0,false,q,false,false,0.0-2.0-0.26-0.237-3.237,0,0,0,68,false,stim,true,2,742.0,2,0,2,72955,task2,604167,false,false,792,image-keyboard-response,3
true,8,0,1,2,false,d,true,false,0.0-2.0-0.26-0.238-3.238,0,0,0,81,false,stim,false,1,1807.0,2,0,1,72955,task2,607484,false,false,795,image-keyboard-response,4
true,8,0,1,0,true,q,false,true,0.0-2.0-0.26-0.239-3.239,0,0,0,81,false,stim,false,1,588.0,2,0,0,72955,task2,609579,false,false,798,image-keyboard-response,5
true,8,2,1,2,true,d,false,true,0.0-2.0-0.26-0.240-3.240,0,0,0,68,false,stim,false,1,779.0,2,0,1,72955,task2,611872,false,false,801,image-keyboard-response,6
true,8,1,1,0,false,q,true,false,0.0-2.0-0.26-0.241-3.241,0,0,0,90,false,stim,false,2,635.0,2,0,2,72955,task2,614017,false,false,804,image-keyboard-response,7
true,8,0,1,0,true,q,false,true,0.0-2.0-0.26-0.242-3.242,0,0,0,81,false,stim,false,1,958.0,2,0,0,72955,task2,616482,false,false,807,image-keyboard-response,8
true,8,2,1,2,true,d,false,true,0.0-2.0-0.27-0.243-3.243,0,0,0,68,false,stim,false,1,528.0000000001164,2,0,1,72955,task2,618519,false,false,810,image-keyboard-response,9
true,8,0,1,0,true,q,false,true,0.0-2.0-0.27-0.244-3.244,0,0,0,81,false,stim,false,1,902.0,2,0,0,72955,task2,620930,false,false,813,image-keyboard-response,10
true,8,2,1,0,false,q,false,false,0.0-2.0-0.27-0.245-3.245,0,0,0,68,false,stim,true,2,680.0,2,0,2,72955,task2,623119,false,false,816,image-keyboard-response,11
true,8,0,1,0,true,q,false,true,0.0-2.0-0.27-0.246-3.246,0,0,0,81,false,stim,false,2,579.0,2,0,2,72955,task2,625208,false,false,819,image-keyboard-response,12
true,8,0,1,0,true,q,false,true,0.0-2.0-0.27-0.247-3.247,0,0,0,81,false,stim,false,1,647.9999999998836,2,0,0,72955,task2,627364,false,false,822,image-keyboard-response,13
true,8,2,1,2,true,d,false,true,0.0-2.0-0.27-0.248-3.248,0,0,0,68,false,stim,false,1,584.9999999998836,2,0,1,72955,task2,629504,false,false,825,image-keyboard-response,14
true,8,0,1,0,true,q,false,true,0.0-2.0-0.27-0.249-3.249,0,0,0,81,false,stim,false,1,776.0000000001164,2,0,0,72955,task2,631790,false,false,828,image-keyboard-response,15
true,8,2,1,2,true,d,false,true,0.0-2.0-0.27-0.250-3.250,0,0,0,68,false,stim,false,1,633.0,2,0,1,72955,task2,633933,false,false,831,image-keyboard-response,16
true,8,0,1,0,true,q,false,true,0.0-2.0-0.27-0.251-3.251,0,0,0,81,false,stim,false,2,545.9999999998836,2,0,2,72955,task2,635989,false,false,834,image-keyboard-response,17
true,8,0,1,0,true,q,false,true,0.0-2.0-0.28-0.252-3.252,0,0,0,81,false,stim,false,1,708.0,2,0,0,72955,task2,638207,false,false,837,image-keyboard-response,18
true,8,0,1,2,false,d,true,false,0.0-2.0-0.28-0.253-3.253,0,0,0,81,false,stim,false,1,801.0,2,0,1,72955,task2,640517,false,false,840,image-keyboard-response,19
true,8,0,1,2,false,d,true,false,0.0-2.0-0.28-0.254-3.254,0,0,0,81,false,stim,false,1,890.0,2,0,1,72955,task2,642916,false,false,843,image-keyboard-response,20
true,8,0,1,0,true,q,false,true,0.0-2.0-0.28-0.255-3.255,0,0,0,81,false,stim,false,2,744.0,2,0,2,72955,task2,645169,false,false,846,image-keyboard-response,21
true,8,0,1,0,true,q,false,true,0.0-2.0-0.28-0.256-3.256,0,0,0,81,false,stim,false,1,598.0,2,0,0,72955,task2,647277,false,false,849,image-keyboard-response,22
true,8,2,1,2,true,d,false,true,0.0-2.0-0.28-0.257-3.257,0,0,0,68,false,stim,false,1,500.0,2,0,1,72955,task2,649287,false,false,852,image-keyboard-response,23
true,8,0,1,0,true,q,false,true,0.0-2.0-0.28-0.258-3.258,0,0,0,81,false,stim,false,2,642.0000000001164,2,0,2,72955,task2,651439,false,false,855,image-keyboard-response,24
true,8,0,1,0,true,q,false,true,0.0-2.0-0.28-0.259-3.259,0,0,0,81,false,stim,false,2,669.9999999998836,2,0,2,72955,task2,653618,false,false,858,image-keyboard-response,25
true,8,0,1,0,true,q,false,true,0.0-2.0-0.28-0.260-3.260,0,0,0,81,false,stim,false,1,745.0,2,0,0,72955,task2,655871,false,false,861,image-keyboard-response,26
true,8,2,1,2,true,d,false,true,0.0-2.0-0.29-0.261-3.261,0,0,0,68,false,stim,false,1,596.0,2,0,1,72955,task2,657977,false,false,864,image-keyboard-response,27
true,8,2,1,2,true,d,false,true,0.0-2.0-0.29-0.262-3.262,0,0,0,68,false,stim,false,1,839.9999999998836,2,0,1,72955,task2,660327,false,false,867,image-keyboard-response,28
true,8,0,1,0,true,q,false,false,0.0-2.0-0.29-0.263-3.263,0,0,0,81,false,stim,false,2,663.9999999998836,2,0,2,72955,task2,662502,false,true,870,image-keyboard-response,29
true,8,0,1,0,true,q,false,true,0.0-2.0-0.29-0.264-3.264,0,0,0,81,false,stim,false,2,587.0,2,0,2,72955,task2,664599,false,false,873,image-keyboard-response,30
true,8,0,1,0,true,q,false,true,0.0-2.0-0.29-0.265-3.265,0,0,0,81,false,stim,false,1,834.0,2,0,0,72955,task2,666942,false,false,876,image-keyboard-response,31
true,8,0,1,0,true,q,false,true,0.0-2.0-0.29-0.266-3.266,0,0,0,81,false,stim,false,1,847.0,2,0,0,72955,task2,669298,false,false,879,image-keyboard-response,32
true,8,0,1,0,true,q,false,true,0.0-2.0-0.29-0.267-3.267,0,0,0,81,false,stim,false,1,906.0000000001164,2,0,0,72955,task2,671713,false,false,882,image-keyboard-response,33
true,8,2,1,0,false,q,false,true,0.0-2.0-0.29-0.268-3.268,0,0,0,68,false,stim,true,2,650.9999999998836,2,0,2,72955,task2,673874,false,true,885,image-keyboard-response,34
true,8,0,1,2,false,d,true,false,0.0-2.0-0.29-0.269-3.269,0,0,0,81,false,stim,false,1,557.0,2,0,1,72955,task2,675941,false,false,888,image-keyboard-response,35
true,8,0,1,0,true,q,false,true,0.0-2.0-0.30-0.270-3.270,0,0,0,81,false,stim,false,2,927.0,2,0,2,72955,task2,678378,false,false,891,image-keyboard-response,36
true,8,0,1,0,true,q,false,true,0.0-2.0-0.30-0.271-3.271,0,0,0,81,false,stim,false,1,913.0,2,0,0,72955,task2,680801,false,false,894,image-keyboard-response,37
true,9,0,1,1,false,z,false,false,0.0-2.0-0.30-0.272-3.272,0,0,0,81,true,stim,true,0,2097.0,2,0,2,72955,task2,684407,false,false,897,image-keyboard-response,1
true,9,2,1,0,false,q,false,false,0.0-2.0-0.30-0.273-3.273,0,0,0,68,false,stim,true,2,1084.9999999998836,2,0,1,72955,task2,687001,false,false,900,image-keyboard-response,2
true,9,0,1,1,false,z,false,false,0.0-2.0-0.30-0.274-3.274,0,0,0,81,false,stim,true,0,2389.0,2,0,2,72955,task2,690902,false,false,903,image-keyboard-response,3
true,9,0,1,1,false,z,false,false,0.0-2.0-0.30-0.275-3.275,0,0,0,81,false,stim,true,0,1077.0,2,0,0,72955,task2,693489,false,false,906,image-keyboard-response,4
true,9,1,1,0,false,q,true,false,0.0-2.0-0.30-0.276-3.276,0,0,0,90,false,stim,false,2,1314.0,2,0,1,72955,task2,696313,false,false,909,image-keyboard-response,5
true,9,2,1,0,false,q,false,true,0.0-2.0-0.30-0.277-3.277,0,0,0,68,false,stim,true,2,1315.0000000001164,2,0,1,72955,task2,699136,false,true,912,image-keyboard-response,6
true,9,1,1,1,true,z,false,true,0.0-2.0-0.30-0.278-3.278,0,0,0,90,false,stim,false,0,1566.0,2,0,0,72955,task2,702212,false,false,915,image-keyboard-response,7
true,9,1,1,1,true,z,false,true,0.0-2.0-0.31-0.279-3.279,0,0,0,90,false,stim,false,0,789.0,2,0,0,72955,task2,704509,false,false,918,image-keyboard-response,8
true,9,1,1,1,true,z,false,true,0.0-2.0-0.31-0.280-3.280,0,0,0,90,false,stim,false,0,721.0,2,0,2,72955,task2,706740,false,false,921,image-keyboard-response,9
true,9,1,1,1,true,z,false,true,0.0-2.0-0.31-0.281-3.281,0,0,0,90,false,stim,false,0,743.0,2,0,2,72955,task2,708993,false,false,924,image-keyboard-response,10
true,9,1,1,1,true,z,false,true,0.0-2.0-0.31-0.282-3.282,0,0,0,90,false,stim,false,0,959.0,2,0,0,72955,task2,711463,false,false,927,image-keyboard-response,11
true,9,1,1,1,true,z,false,false,0.0-2.0-0.31-0.283-3.283,0,0,0,90,false,stim,false,0,774.0,2,0,2,72955,task2,713747,false,true,930,image-keyboard-response,12
true,9,2,1,0,false,q,false,false,0.0-2.0-0.31-0.284-3.284,0,0,0,68,false,stim,true,2,1810.0000000001164,2,0,1,72955,task2,717065,false,false,933,image-keyboard-response,13
false,9,-1,1,0,false,q,true,false,0.0-2.0-0.31-0.285-3.285,0,0,0,,false,stim,false,2,,2,0,1,72955,task2,721575,false,false,936,image-keyboard-response,14
true,9,1,1,1,true,z,false,true,0.0-2.0-0.31-0.286-3.286,0,0,0,90,false,stim,false,0,944.0,2,0,0,72955,task2,724029,false,false,939,image-keyboard-response,15
true,9,0,1,0,true,q,false,true,0.0-2.0-0.31-0.287-3.287,0,0,0,81,false,stim,false,2,1016.0,2,0,1,72955,task2,726555,false,false,942,image-keyboard-response,16
true,9,1,1,1,true,z,false,true,0.0-2.0-0.32-0.288-3.288,0,0,0,90,false,stim,false,0,1355.0,2,0,0,72955,task2,729456,false,false,945,image-keyboard-response,17
true,9,0,1,0,true,q,false,true,0.0-2.0-0.32-0.289-3.289,0,0,0,81,false,stim,false,2,1281.0,2,0,1,72955,task2,732247,false,false,948,image-keyboard-response,18
true,9,0,1,0,true,q,false,true,0.0-2.0-0.32-0.290-3.290,0,0,0,81,false,stim,false,2,1257.0000000001164,2,0,1,72955,task2,735013,false,false,951,image-keyboard-response,19
true,9,1,1,1,true,z,false,true,0.0-2.0-0.32-0.291-3.291,0,0,0,90,false,stim,false,0,1664.0,2,0,2,72955,task2,738186,false,false,954,image-keyboard-response,20
true,9,1,1,1,true,z,false,true,0.0-2.0-0.32-0.292-3.292,0,0,0,90,false,stim,false,0,1454.0,2,0,2,72955,task2,741150,false,false,957,image-keyboard-response,21
true,9,0,1,1,false,z,false,false,0.0-2.0-0.32-0.293-3.293,0,0,0,81,false,stim,true,0,2540.0,2,0,0,72955,task2,745197,false,false,960,image-keyboard-response,22
true,9,0,1,1,false,z,false,false,0.0-2.0-0.32-0.294-3.294,0,0,0,81,false,stim,true,0,817.0000000001164,2,0,2,72955,task2,747524,false,false,963,image-keyboard-response,23
true,9,0,1,0,true,q,false,true,0.0-2.0-0.32-0.295-3.295,0,0,0,81,false,stim,false,2,531.0,2,0,1,72955,task2,749564,false,false,966,image-keyboard-response,24
true,9,1,1,1,true,z,false,true,0.0-2.0-0.32-0.296-3.296,0,0,0,90,false,stim,false,0,1016.0,2,0,0,72955,task2,752088,false,false,969,image-keyboard-response,25
true,9,1,1,1,true,z,false,true,0.0-2.0-0.33-0.297-3.297,0,0,0,90,false,stim,false,0,1035.0,2,0,2,72955,task2,754633,false,false,972,image-keyboard-response,26
true,9,0,1,1,false,z,false,false,0.0-2.0-0.33-0.298-3.298,0,0,0,81,false,stim,true,0,1686.0,2,0,0,72955,task2,757829,false,false,975,image-keyboard-response,27
true,9,0,1,0,true,q,false,true,0.0-2.0-0.33-0.299-3.299,0,0,0,81,false,stim,false,2,600.0,2,0,1,72955,task2,759939,false,false,978,image-keyboard-response,28
true,9,1,1,1,true,z,false,true,0.0-2.0-0.33-0.300-3.300,0,0,0,90,false,stim,false,0,1767.0000000001164,2,0,2,72955,task2,763216,false,false,981,image-keyboard-response,29
true,9,0,1,0,true,q,false,true,0.0-2.0-0.33-0.301-3.301,0,0,0,81,false,stim,false,2,1727.0000000001164,2,0,1,72955,task2,766452,false,false,984,image-keyboard-response,30
true,9,1,1,1,true,z,false,true,0.0-2.0-0.33-0.302-3.302,0,0,0,90,false,stim,false,0,544.0,2,0,0,72955,task2,768506,false,false,987,image-keyboard-response,31
true,9,0,1,0,true,q,false,false,0.0-2.0-0.33-0.303-3.303,0,0,0,81,false,stim,false,2,2815.0,2,0,1,72955,task2,772831,false,true,990,image-keyboard-response,32
true,9,1,1,1,true,z,false,true,0.0-2.0-0.33-0.304-3.304,0,0,0,90,false,stim,false,0,1136.9999999998836,2,0,0,72955,task2,775478,false,false,993,image-keyboard-response,33
true,9,1,1,1,true,z,false,true,0.0-2.0-0.33-0.305-3.305,0,0,0,90,false,stim,false,0,1352.0,2,0,2,72955,task2,778339,false,false,996,image-keyboard-response,34
true,9,1,1,1,true,z,false,true,0.0-2.0-0.34-0.306-3.306,0,0,0,90,false,stim,false,0,1065.0,2,0,2,72955,task2,780913,false,false,999,image-keyboard-response,35
true,9,1,1,1,true,z,false,true,0.0-2.0-0.34-0.307-3.307,0,0,0,90,false,stim,false,0,1857.0,2,0,0,72955,task2,784312,false,false,1002,image-keyboard-response,36
true,9,0,1,0,true,q,false,true,0.0-2.0-0.34-0.308-3.308,0,0,0,81,false,stim,false,2,2417.0,2,1,1,72955,task2,788238,false,false,1005,image-keyboard-response,37
true,9,1,1,1,true,z,false,true,0.0-2.0-0.34-0.309-3.309,0,0,0,90,false,stim,false,0,2312.0,2,0,2,72955,task2,792061,false,false,1008,image-keyboard-response,38
true,10,1,2,0,false,q,false,false,0.0-2.0-0.34-0.310-3.310,0,1,0,90,true,stim,true,1,2040.0,2,0,0,72955,task2,795611,false,false,1011,image-keyboard-response,1
true,10,0,2,0,true,q,false,true,0.0-2.0-0.34-0.311-3.311,0,1,0,81,false,stim,false,0,1266.9999999998836,2,1,1,72955,task2,798388,false,false,1014,image-keyboard-response,2
true,10,0,2,0,true,q,false,true,0.0-2.0-0.34-0.312-3.312,0,1,0,81,false,stim,false,0,1584.0,2,1,1,72955,task2,801480,false,false,1017,image-keyboard-response,3
true,10,1,2,2,false,d,false,false,0.0-2.0-0.34-0.313-3.313,0,1,0,90,false,stim,true,1,1089.9999999998836,2,0,2,72955,task2,804082,false,false,1020,image-keyboard-response,4
true,10,1,2,0,false,q,false,false,0.0-2.0-0.34-0.314-3.314,0,1,0,90,false,stim,true,1,2203.0000000001164,2,0,0,72955,task2,807795,false,false,1023,image-keyboard-response,5
true,10,0,2,0,true,q,false,true,0.0-2.0-0.35-0.315-3.315,0,1,0,81,false,stim,false,0,1201.0,2,1,1,72955,task2,810508,false,false,1026,image-keyboard-response,6
true,10,0,2,0,true,q,false,true,0.0-2.0-0.35-0.316-3.316,0,1,0,81,false,stim,false,0,1456.0,2,1,1,72955,task2,813474,false,false,1029,image-keyboard-response,7
true,10,0,2,0,true,q,false,true,0.0-2.0-0.35-0.317-3.317,0,1,0,81,false,stim,false,0,1547.0,2,1,1,72955,task2,816532,false,false,1032,image-keyboard-response,8
true,10,1,2,0,false,q,false,false,0.0-2.0-0.35-0.318-3.318,0,1,0,90,false,stim,true,1,1538.0,2,0,0,72955,task2,819581,false,false,1035,image-keyboard-response,9
true,10,2,2,2,true,d,false,true,0.0-2.0-0.35-0.319-3.319,0,1,0,68,false,stim,false,1,1647.0,2,0,2,72955,task2,822738,false,false,1038,image-keyboard-response,10
true,10,2,2,0,false,q,true,false,0.0-2.0-0.35-0.320-3.320,0,1,0,68,false,stim,false,1,1372.9999999998836,2,0,0,72955,task2,825620,false,false,1041,image-keyboard-response,11
true,10,2,2,2,true,d,false,false,0.0-2.0-0.35-0.321-3.321,0,1,0,68,false,stim,false,1,964.0,2,0,2,72955,task2,828094,false,true,1044,image-keyboard-response,12
true,10,2,2,2,true,d,false,false,0.0-2.0-0.35-0.322-3.322,0,1,0,68,false,stim,false,1,1419.0,2,0,2,72955,task2,831023,false,true,1047,image-keyboard-response,13
true,10,1,2,0,false,q,false,false,0.0-2.0-0.35-0.323-3.323,0,1,0,90,false,stim,true,1,956.0,2,0,0,72955,task2,833490,false,false,1050,image-keyboard-response,14
true,10,0,2,0,true,q,false,true,0.0-2.0-0.36-0.324-3.324,0,1,0,81,false,stim,false,0,964.0,2,1,1,72955,task2,835966,false,false,1053,image-keyboard-response,15
true,10,2,2,2,true,d,false,true,0.0-2.0-0.36-0.325-3.325,0,1,0,68,false,stim,false,1,1406.0,2,0,2,72955,task2,838884,false,false,1056,image-keyboard-response,16
true,10,0,2,0,true,q,false,true,0.0-2.0-0.36-0.326-3.326,0,1,0,81,false,stim,false,1,1906.0000000001164,2,0,0,72955,task2,842300,false,false,1059,image-keyboard-response,17
true,10,0,2,0,true,q,false,true,0.0-2.0-0.36-0.327-3.327,0,1,0,81,false,stim,false,0,1082.0,2,1,1,72955,task2,844892,false,false,1062,image-keyboard-response,18
true,10,0,2,0,true,q,false,true,0.0-2.0-0.36-0.328-3.328,0,1,0,81,false,stim,false,0,584.0,2,1,1,72955,task2,846986,false,false,1065,image-keyboard-response,19
true,10,2,2,2,true,d,false,true,0.0-2.0-0.36-0.329-3.329,0,1,0,68,false,stim,false,1,1391.0,2,0,2,72955,task2,849887,false,false,1068,image-keyboard-response,20
true,10,0,2,0,true,q,false,true,0.0-2.0-0.36-0.330-3.330,0,1,0,81,false,stim,false,1,1599.9999999998836,2,0,0,72955,task2,852997,false,false,1071,image-keyboard-response,21
true,10,0,2,0,true,q,false,true,0.0-2.0-0.36-0.331-3.331,0,1,0,81,false,stim,false,1,1537.0,2,0,0,72955,task2,856045,false,false,1074,image-keyboard-response,22
true,10,2,2,2,true,d,false,true,0.0-2.0-0.36-0.332-3.332,0,1,0,68,false,stim,false,1,1752.0,2,0,2,72955,task2,859309,false,false,1077,image-keyboard-response,23
true,10,0,2,0,true,q,false,true,0.0-2.0-0.37-0.333-3.333,0,1,0,81,false,stim,false,1,1042.9999999998836,2,0,0,72955,task2,861911,false,false,1080,image-keyboard-response,24
true,10,2,2,2,true,d,false,true,0.0-2.0-0.37-0.334-3.334,0,1,0,68,false,stim,false,1,1904.9999999998836,2,0,2,72955,task2,865326,false,false,1083,image-keyboard-response,25
true,10,0,2,0,true,q,false,true,0.0-2.0-0.37-0.335-3.335,0,1,0,81,false,stim,false,1,816.0000000001164,2,0,0,72955,task2,855271,false,false,1086,image-keyboard-response,26
true,10,2,2,2,true,d,false,true,0.0-2.0-0.37-0.336-3.336,0,1,0,68,false,stim,false,1,617.0,2,0,2,72955,task2,857397,false,false,1089,image-keyboard-response,27
true,10,0,2,0,true,q,false,false,0.0-2.0-0.37-0.337-3.337,0,1,0,81,false,stim,false,0,729.0,2,1,1,72955,task2,859635,false,true,1092,image-keyboard-response,28
true,10,0,2,0,true,q,false,true,0.0-2.0-0.37-0.338-3.338,0,1,0,81,false,stim,false,0,1181.0,2,0,1,72955,task2,862326,false,false,1095,image-keyboard-response,29
true,10,0,2,0,true,q,false,true,0.0-2.0-0.37-0.339-3.339,0,1,0,81,false,stim,false,1,1146.0,2,0,0,72955,task2,864983,false,false,1098,image-keyboard-response,30
true,10,2,2,2,true,d,false,true,0.0-2.0-0.37-0.340-3.340,0,1,0,68,false,stim,false,1,1018.0,2,0,2,72955,task2,867518,false,false,1101,image-keyboard-response,31
true,10,0,2,0,true,q,false,true,0.0-2.0-0.37-0.341-3.341,0,1,0,81,false,stim,false,0,757.0000000001164,2,0,1,72955,task2,869786,false,false,1104,image-keyboard-response,32
true,10,2,2,2,true,d,false,true,0.0-2.0-0.38-0.342-3.342,0,1,0,68,false,stim,false,1,752.0,2,0,2,72955,task2,872048,false,false,1107,image-keyboard-response,33
true,11,0,1,1,false,z,false,false,0.0-2.0-0.38-0.343-3.343,0,0,0,81,true,stim,true,0,704.0,2,0,0,72955,task2,874262,false,false,1110,image-keyboard-response,1
true,11,2,1,0,false,q,false,false,0.0-2.0-0.38-0.344-3.344,0,0,0,68,false,stim,true,2,980.0,2,0,2,72955,task2,876753,false,false,1113,image-keyboard-response,2
true,11,0,1,2,false,d,false,false,0.0-2.0-0.38-0.345-3.345,0,0,0,81,false,stim,true,0,1042.9999999998836,2,0,1,72955,task2,879304,false,false,1116,image-keyboard-response,3
true,11,2,1,1,false,z,true,false,0.0-2.0-0.38-0.346-3.346,0,0,0,68,false,stim,false,0,929.0,2,0,0,72955,task2,881744,false,false,1119,image-keyboard-response,4
true,11,1,1,2,false,d,true,false,0.0-2.0-0.38-0.347-3.347,0,0,0,90,false,stim,false,0,909.0,2,0,1,72955,task2,884163,false,false,1122,image-keyboard-response,5
true,11,2,1,2,true,d,false,true,0.0-2.0-0.38-0.348-3.348,0,0,0,68,false,stim,false,0,521.0,2,0,1,72955,task2,886194,false,false,1125,image-keyboard-response,6
true,11,1,1,1,true,z,false,true,0.0-2.0-0.38-0.349-3.349,0,0,0,90,false,stim,false,0,577.0,2,0,0,72955,task2,888283,false,false,1128,image-keyboard-response,7
true,11,0,1,0,true,q,false,true,0.0-2.0-0.38-0.350-3.350,0,0,0,81,false,stim,false,2,470.0,2,0,2,72955,task2,890262,false,false,1131,image-keyboard-response,8
true,11,0,1,0,true,q,false,true,0.0-2.0-0.39-0.351-3.351,0,0,0,81,false,stim,false,2,674.9999999998836,2,0,2,72955,task2,892447,false,false,1134,image-keyboard-response,9
true,11,1,1,1,true,z,false,true,0.0-2.0-0.39-0.352-3.352,0,0,0,90,false,stim,false,0,630.0,2,0,0,72955,task2,894587,false,false,1137,image-keyboard-response,10
true,11,1,1,0,false,q,true,false,0.0-2.0-0.39-0.353-3.353,0,0,0,90,false,stim,false,2,703.0,2,0,2,72955,task2,896800,false,false,1140,image-keyboard-response,11
true,11,0,1,1,false,z,false,false,0.0-2.0-0.39-0.354-3.354,0,0,0,81,false,stim,true,0,1017.0,2,0,0,72955,task2,899325,false,false,1143,image-keyboard-response,12
true,11,0,1,2,false,d,false,false,0.0-2.0-0.39-0.355-3.355,0,0,0,81,false,stim,true,0,881.0,2,0,1,72955,task2,901716,false,false,1146,image-keyboard-response,13
true,11,0,1,0,true,q,false,true,0.0-2.0-0.39-0.356-3.356,0,0,0,81,false,stim,false,2,1278.0,2,0,2,72955,task2,904504,false,false,1149,image-keyboard-response,14
true,11,0,1,2,false,d,false,false,0.0-2.0-0.39-0.357-3.357,0,0,0,81,false,stim,true,0,901.0000000001164,2,0,1,72955,task2,906916,false,false,1152,image-keyboard-response,15
true,11,2,1,2,true,d,false,true,0.0-2.0-0.39-0.358-3.358,0,0,0,68,false,stim,false,0,702.0,2,0,1,72955,task2,909128,false,false,1155,image-keyboard-response,16
true,11,1,1,1,true,z,false,true,0.0-2.0-0.39-0.359-3.359,0,0,0,90,false,stim,false,0,881.0,2,0,0,72955,task2,911519,false,false,1158,image-keyboard-response,17
true,11,2,1,2,true,d,false,true,0.0-2.0-0.40-0.360-3.360,0,0,0,68,false,stim,false,0,785.0,2,0,1,72955,task2,913814,false,false,1161,image-keyboard-response,18
true,11,1,1,1,true,z,false,true,0.0-2.0-0.40-0.361-3.361,0,0,0,90,false,stim,false,0,728.9999999998836,2,0,0,72955,task2,916054,false,false,1164,image-keyboard-response,19
true,11,0,1,0,true,q,false,true,0.0-2.0-0.40-0.362-3.362,0,0,0,81,false,stim,false,2,572.0,2,0,2,72955,task2,918137,false,false,1167,image-keyboard-response,20
true,11,1,1,1,true,z,false,true,0.0-2.0-0.40-0.363-3.363,0,0,0,90,false,stim,false,0,657.0,2,0,0,72955,task2,920303,false,false,1170,image-keyboard-response,21
true,11,0,1,0,true,q,false,true,0.0-2.0-0.40-0.364-3.364,0,0,0,81,false,stim,false,2,774.9999999998836,2,0,2,72955,task2,922590,false,false,1173,image-keyboard-response,22
true,11,0,1,0,true,q,false,false,0.0-2.0-0.40-0.365-3.365,0,0,0,81,false,stim,false,2,809.0,2,0,2,72955,task2,924909,false,true,1176,image-keyboard-response,23
true,11,1,1,1,true,z,false,true,0.0-2.0-0.40-0.366-3.366,0,0,0,90,false,stim,false,0,803.0,2,0,0,72955,task2,927223,false,false,1179,image-keyboard-response,24
true,11,2,1,2,true,d,false,true,0.0-2.0-0.40-0.367-3.367,0,0,0,68,false,stim,false,0,613.9999999998836,2,0,1,72955,task2,929348,false,false,1182,image-keyboard-response,25
true,11,2,1,2,true,d,false,true,0.0-2.0-0.40-0.368-3.368,0,0,0,68,false,stim,false,0,741.9999999998836,2,0,1,72955,task2,931600,false,false,1185,image-keyboard-response,26
true,11,2,1,2,true,d,false,true,0.0-2.0-0.41-0.369-3.369,0,0,0,68,false,stim,false,0,618.0,2,0,1,72955,task2,933728,false,false,1188,image-keyboard-response,27
true,11,0,1,0,true,q,false,false,0.0-2.0-0.41-0.370-3.370,0,0,0,81,false,stim,false,2,532.0,2,0,2,72955,task2,935769,false,true,1191,image-keyboard-response,28
true,11,2,1,2,true,d,false,true,0.0-2.0-0.41-0.371-3.371,0,0,0,68,false,stim,false,0,1163.0,2,0,1,72955,task2,938441,false,false,1194,image-keyboard-response,29
true,11,1,1,1,true,z,false,true,0.0-2.0-0.41-0.372-3.372,0,0,0,90,false,stim,false,0,569.9999999998836,2,0,0,72955,task2,940521,false,false,1197,image-keyboard-response,30
true,11,1,1,0,false,q,true,true,0.0-2.0-0.41-0.373-3.373,0,0,0,90,false,stim,false,2,786.0,2,0,2,72955,task2,942817,false,true,1200,image-keyboard-response,31
true,11,2,1,2,true,d,false,true,0.0-2.0-0.41-0.374-3.374,0,0,0,68,false,stim,false,0,832.0,2,0,1,72955,task2,945165,false,false,1203,image-keyboard-response,32
true,11,1,1,1,true,z,false,true,0.0-2.0-0.41-0.375-3.375,0,0,0,90,false,stim,false,0,539.0,2,0,0,72955,task2,947214,false,false,1206,image-keyboard-response,33
true,11,1,1,0,false,q,true,false,0.0-2.0-0.41-0.376-3.376,0,0,0,90,false,stim,false,2,551.9999999998836,2,0,2,72955,task2,949276,false,false,1209,image-keyboard-response,34
true,12,1,1,2,false,d,false,false,0.0-2.0-0.41-0.377-3.377,0,0,0,90,true,stim,true,1,902.9999999998836,2,0,0,72955,task2,951691,false,false,1212,image-keyboard-response,1
true,12,2,1,0,false,q,false,false,0.0-2.0-0.42-0.378-3.378,0,0,0,68,false,stim,true,2,665.0,2,0,1,72955,task2,953867,false,false,1215,image-keyboard-response,2
true,12,2,1,1,false,z,true,true,0.0-2.0-0.42-0.379-3.379,0,0,0,68,false,stim,false,0,862.0000000001164,2,0,2,72955,task2,956238,false,true,1218,image-keyboard-response,3
true,12,2,1,1,false,z,true,false,0.0-2.0-0.42-0.380-3.380,0,0,0,68,false,stim,false,0,678.0,2,0,2,72955,task2,958426,false,false,1221,image-keyboard-response,4
true,12,2,1,2,true,d,false,true,0.0-2.0-0.42-0.381-3.381,0,0,0,68,false,stim,false,1,995.9999999998836,2,0,0,72955,task2,960931,false,false,1224,image-keyboard-response,5
true,12,2,1,1,false,z,true,false,0.0-2.0-0.42-0.382-3.382,0,0,0,68,false,stim,false,0,1326.0000000001164,2,0,2,72955,task2,963768,false,false,1227,image-keyboard-response,6
true,12,2,1,2,true,d,false,true,0.0-2.0-0.42-0.383-3.383,0,0,0,68,false,stim,false,1,751.0,2,0,0,72955,task2,966030,false,false,1230,image-keyboard-response,7
true,12,2,1,2,true,d,false,true,0.0-2.0-0.42-0.384-3.384,0,0,0,68,false,stim,false,1,633.0,2,0,0,72955,task2,968173,false,false,1233,image-keyboard-response,8
true,12,0,1,0,true,q,false,true,0.0-2.0-0.42-0.385-3.385,0,0,0,81,false,stim,false,2,731.0,2,0,1,72955,task2,970423,false,false,1236,image-keyboard-response,9
true,12,0,1,0,true,q,false,true,0.0-2.0-0.42-0.386-3.386,0,0,0,81,false,stim,false,2,677.0,2,0,1,72955,task2,972610,false,false,1239,image-keyboard-response,10
true,12,0,1,2,false,d,true,false,0.0-2.0-0.43-0.387-3.387,0,0,0,81,false,stim,false,1,1438.0,2,0,0,72955,task2,975558,false,false,1242,image-keyboard-response,11
true,12,0,1,0,true,q,false,true,0.0-2.0-0.43-0.388-3.388,0,0,0,81,false,stim,false,2,716.0,2,0,1,72955,task2,977783,false,false,1245,image-keyboard-response,12
true,12,2,1,2,true,d,false,true,0.0-2.0-0.43-0.389-3.389,0,0,0,68,false,stim,false,1,931.0000000001164,2,0,0,72955,task2,980225,false,false,1248,image-keyboard-response,13
true,12,2,1,2,true,d,false,true,0.0-2.0-0.43-0.390-3.390,0,0,0,68,false,stim,false,1,737.0,2,0,0,72955,task2,982472,false,false,1251,image-keyboard-response,14
true,12,2,1,1,false,z,true,false,0.0-2.0-0.43-0.391-3.391,0,0,0,68,false,stim,false,0,825.0000000001164,2,0,2,72955,task2,984807,false,false,1254,image-keyboard-response,15
true,12,0,1,0,true,q,false,true,0.0-2.0-0.43-0.392-3.392,0,0,0,81,false,stim,false,2,1010.9999999998836,2,0,1,72955,task2,987328,false,false,1257,image-keyboard-response,16
true,12,1,1,1,true,z,false,true,0.0-2.0-0.43-0.393-3.393,0,0,0,90,false,stim,false,0,1246.0,2,0,2,72955,task2,990083,false,false,1260,image-keyboard-response,17
true,12,1,1,1,true,z,false,true,0.0-2.0-0.43-0.394-3.394,0,0,0,90,false,stim,false,0,933.0,2,0,2,72955,task2,992526,false,false,1263,image-keyboard-response,18
true,12,0,1,0,true,q,false,true,0.0-2.0-0.43-0.395-3.395,0,0,0,81,false,stim,false,2,1121.0000000001164,2,0,1,72955,task2,995158,false,false,1266,image-keyboard-response,19
true,12,0,1,0,true,q,false,true,0.0-2.0-0.44-0.396-3.396,0,0,0,81,false,stim,false,2,756.0,2,0,1,72955,task2,997426,false,false,1269,image-keyboard-response,20
true,12,1,1,1,true,z,false,true,0.0-2.0-0.44-0.397-3.397,0,0,0,90,false,stim,false,0,857.0000000001164,2,0,2,72955,task2,999793,false,false,1272,image-keyboard-response,21
true,12,2,1,2,true,d,false,false,0.0-2.0-0.44-0.398-3.398,0,0,0,68,false,stim,false,1,703.0,2,0,0,72955,task2,1002006,false,true,1275,image-keyboard-response,22
true,12,2,1,2,true,d,false,true,0.0-2.0-0.44-0.399-3.399,0,0,0,68,false,stim,false,1,743.9999999998836,2,0,0,72955,task2,1004263,false,false,1278,image-keyboard-response,23
true,12,2,1,2,true,d,false,true,0.0-2.0-0.44-0.400-3.400,0,0,0,68,false,stim,false,1,617.9999999998836,2,0,0,72955,task2,1006393,false,false,1281,image-keyboard-response,24
true,12,0,1,0,true,q,false,true,0.0-2.0-0.44-0.401-3.401,0,0,0,81,false,stim,false,2,1192.0,2,0,1,72955,task2,1009095,false,false,1284,image-keyboard-response,25
true,12,0,1,0,true,q,false,true,0.0-2.0-0.44-0.402-3.402,0,0,0,81,false,stim,false,2,753.0000000001164,2,0,1,72955,task2,1011358,false,false,1287,image-keyboard-response,26
true,12,2,1,1,false,z,true,false,0.0-2.0-0.44-0.403-3.403,0,0,0,68,false,stim,false,0,856.0,2,0,2,72955,task2,1013725,false,false,1290,image-keyboard-response,27
true,12,1,1,1,true,z,false,true,0.0-2.0-0.44-0.404-3.404,0,0,0,90,false,stim,false,0,537.0,2,0,2,72955,task2,1015786,false,false,1293,image-keyboard-response,28
true,12,2,1,2,true,d,false,true,0.0-2.0-0.45-0.405-3.405,0,0,0,68,false,stim,false,1,591.0000000001164,2,0,0,72955,task2,1017888,false,false,1296,image-keyboard-response,29
true,12,1,1,1,true,z,false,true,0.0-2.0-0.45-0.406-3.406,0,0,0,90,false,stim,false,0,569.9999999998836,2,0,2,72955,task2,1019969,false,false,1299,image-keyboard-response,30
true,12,2,1,2,true,d,false,true,0.0-2.0-0.45-0.407-3.407,0,0,0,68,false,stim,false,1,695.9999999998836,2,0,0,72955,task2,1022180,false,false,1302,image-keyboard-response,31
true,12,0,1,0,true,q,false,true,0.0-2.0-0.45-0.408-3.408,0,0,0,81,false,stim,false,2,1193.0,2,0,1,72955,task2,1024885,false,false,1305,image-keyboard-response,32
true,12,0,1,0,true,q,false,false,0.0-2.0-0.45-0.409-3.409,0,0,0,81,false,stim,false,2,923.9999999998836,2,0,1,72955,task2,1027318,false,true,1308,image-keyboard-response,33
true,12,0,1,0,true,q,false,true,0.0-2.0-0.45-0.410-3.410,0,0,0,81,false,stim,false,2,1068.0,2,0,1,72955,task2,1029895,false,false,1311,image-keyboard-response,34
true,12,2,1,2,true,d,false,true,0.0-2.0-0.45-0.411-3.411,0,0,0,68,false,stim,false,1,1262.9999999998836,2,1,0,72955,task2,1032671,false,false,1314,image-keyboard-response,35
true,12,1,1,1,true,z,false,true,0.0-2.0-0.45-0.412-3.412,0,0,0,90,false,stim,false,0,690.0,2,0,2,72955,task2,1034870,false,false,1317,image-keyboard-response,36
true,13,1,2,0,false,q,false,false,0.0-2.0-0.45-0.413-3.413,1,0,0,90,true,stim,true,1,681.0000000002328,2,0,2,72955,task2,1037061,false,false,1320,image-keyboard-response,1
true,13,2,2,2,true,d,false,true,0.0-2.0-0.46-0.414-3.414,1,0,0,68,false,stim,false,2,2048.0,2,1,0,72955,task2,1040619,false,false,1323,image-keyboard-response,2
true,13,2,2,2,true,d,false,false,0.0-2.0-0.46-0.415-3.415,1,0,0,68,false,stim,false,0,918.9999999997672,2,0,1,72955,task2,1043047,false,true,1326,image-keyboard-response,3
true,13,2,2,0,false,q,true,false,0.0-2.0-0.46-0.416-3.416,1,0,0,68,false,stim,false,1,1100.0,2,0,2,72955,task2,1045655,false,false,1329,image-keyboard-response,4
true,13,2,2,2,true,d,false,true,0.0-2.0-0.46-0.417-3.417,1,0,0,68,false,stim,false,2,695.0,2,1,0,72955,task2,1047861,false,false,1332,image-keyboard-response,5
true,13,2,2,0,false,q,true,false,0.0-2.0-0.46-0.418-3.418,1,0,0,68,false,stim,false,1,981.0,2,0,2,72955,task2,1050350,false,false,1335,image-keyboard-response,6
true,13,0,2,2,false,d,false,false,0.0-2.0-0.46-0.419-3.419,1,0,0,81,false,stim,true,0,957.0,2,0,1,72955,task2,1052819,false,false,1338,image-keyboard-response,7
true,13,1,2,2,false,d,true,false,0.0-2.0-0.46-0.420-3.420,1,0,0,90,false,stim,false,0,941.0,2,0,1,72955,task2,1055270,false,false,1341,image-keyboard-response,8
true,13,0,2,0,true,q,false,true,0.0-2.0-0.46-0.421-3.421,1,0,0,81,false,stim,false,1,900.0,2,0,2,72955,task2,1057680,false,false,1344,image-keyboard-response,9
true,13,2,2,2,true,d,false,true,0.0-2.0-0.46-0.422-3.422,1,0,0,68,false,stim,false,2,575.0,2,1,0,72955,task2,1059765,false,false,1347,image-keyboard-response,10
true,13,2,2,2,true,d,false,true,0.0-2.0-0.47-0.423-3.423,1,0,0,68,false,stim,false,2,800.0,2,1,0,72955,task2,1062076,false,false,1350,image-keyboard-response,11
true,13,2,2,2,true,d,false,true,0.0-2.0-0.47-0.424-3.424,1,0,0,68,false,stim,false,0,675.0,2,0,1,72955,task2,1064261,false,false,1353,image-keyboard-response,12
true,13,0,2,0,true,q,false,true,0.0-2.0-0.47-0.425-3.425,1,0,0,81,false,stim,false,1,554.0,2,0,2,72955,task2,1066324,false,false,1356,image-keyboard-response,13
true,13,2,2,2,true,d,false,true,0.0-2.0-0.47-0.426-3.426,1,0,0,68,false,stim,false,2,773.0,2,1,0,72955,task2,1068607,false,false,1359,image-keyboard-response,14
true,13,0,2,0,true,q,false,true,0.0-2.0-0.47-0.427-3.427,1,0,0,81,false,stim,false,1,2022.0,2,0,2,72955,task2,1072139,false,false,1362,image-keyboard-response,15
true,13,2,2,2,true,d,false,false,0.0-2.0-0.47-0.428-3.428,1,0,0,68,false,stim,false,0,759.0,2,0,1,72955,task2,1074409,false,true,1365,image-keyboard-response,16
true,13,0,2,0,true,q,false,true,0.0-2.0-0.47-0.429-3.429,1,0,0,81,false,stim,false,1,970.0,2,0,2,72955,task2,1076890,false,false,1368,image-keyboard-response,17
true,13,1,2,2,false,d,true,false,0.0-2.0-0.47-0.430-3.430,1,0,0,90,false,stim,false,0,1500.0,2,0,1,72955,task2,1079902,false,false,1371,image-keyboard-response,18
true,13,2,2,2,true,d,false,false,0.0-2.0-0.47-0.431-3.431,1,0,0,68,false,stim,false,2,913.0,2,1,0,72955,task2,1082329,false,true,1374,image-keyboard-response,19
true,13,0,2,2,false,d,false,false,0.0-2.0-0.48-0.432-3.432,1,0,0,81,false,stim,true,0,913.0,2,0,1,72955,task2,1084752,false,false,1377,image-keyboard-response,20
true,13,0,2,2,false,d,true,false,0.0-2.0-0.48-0.433-3.433,1,0,0,81,false,stim,false,2,960.0,2,1,0,72955,task2,1087222,false,false,1380,image-keyboard-response,21
true,13,2,2,2,true,d,false,true,0.0-2.0-0.48-0.434-3.434,1,0,0,68,false,stim,false,2,521.0000000002328,2,1,0,72955,task2,1089253,false,false,1383,image-keyboard-response,22
true,13,0,2,0,true,q,false,true,0.0-2.0-0.48-0.435-3.435,1,0,0,81,false,stim,false,1,701.9999999997672,2,0,2,72955,task2,1091466,false,false,1386,image-keyboard-response,23
true,13,2,2,2,true,d,false,true,0.0-2.0-0.48-0.436-3.436,1,0,0,68,false,stim,false,0,732.0,2,0,1,72955,task2,1093710,false,false,1389,image-keyboard-response,24
true,13,2,2,0,false,q,true,false,0.0-2.0-0.48-0.437-3.437,1,0,0,68,false,stim,false,1,809.0,2,0,2,72955,task2,1096031,false,false,1392,image-keyboard-response,25
true,13,2,2,2,true,d,false,true,0.0-2.0-0.48-0.438-3.438,1,0,0,68,false,stim,false,2,708.0,2,1,0,72955,task2,1098249,false,false,1395,image-keyboard-response,26
true,13,0,2,0,true,q,false,true,0.0-2.0-0.48-0.439-3.439,1,0,0,81,false,stim,false,1,995.0000000002328,2,0,2,72955,task2,1100754,false,false,1398,image-keyboard-response,27
true,13,2,2,2,true,d,false,true,0.0-2.0-0.48-0.440-3.440,1,0,0,68,false,stim,false,0,610.0,2,0,1,72955,task2,1102881,false,false,1401,image-keyboard-response,28
true,13,0,2,0,true,q,false,true,0.0-2.0-0.49-0.441-3.441,1,0,0,81,false,stim,false,1,1056.0,2,0,2,72955,task2,1105449,false,false,1404,image-keyboard-response,29
true,13,2,2,2,true,d,false,true,0.0-2.0-0.49-0.442-3.442,1,0,0,68,false,stim,false,2,643.0,2,1,0,72955,task2,1107603,false,false,1407,image-keyboard-response,30
true,13,0,2,0,true,q,false,true,0.0-2.0-0.49-0.443-3.443,1,0,0,81,false,stim,false,1,972.0,2,0,2,72955,task2,1110086,false,false,1410,image-keyboard-response,31
true,13,2,2,2,true,d,false,true,0.0-2.0-0.49-0.444-3.444,1,0,0,68,false,stim,false,0,655.0,2,0,1,72955,task2,1112251,false,false,1413,image-keyboard-response,32
true,13,0,2,2,false,d,false,false,0.0-2.0-0.49-0.445-3.445,1,0,0,81,false,stim,true,0,762.0000000002328,2,0,1,72955,task2,1114524,false,false,1416,image-keyboard-response,33
true,13,2,2,2,true,d,false,true,0.0-2.0-0.49-0.446-3.446,1,0,0,68,false,stim,false,2,792.0,2,1,0,72955,task2,1116826,false,false,1419,image-keyboard-response,34
true,13,0,2,0,true,q,false,true,0.0-2.0-0.49-0.447-3.447,1,0,0,81,false,stim,false,1,1464.0,2,0,2,72955,task2,1119802,false,false,1422,image-keyboard-response,35
true,14,2,2,0,false,q,false,false,0.0-2.0-0.49-0.448-3.448,1,0,0,68,true,stim,true,2,1368.0,2,0,1,72955,task2,1122682,false,false,1425,image-keyboard-response,1
true,14,2,2,2,true,d,false,true,0.0-2.0-0.49-0.449-3.449,1,0,0,68,false,stim,false,2,858.0,2,1,0,72955,task2,1125049,false,false,1428,image-keyboard-response,2
true,14,2,2,2,true,d,false,true,0.0-2.0-0.50-0.450-3.450,1,0,0,68,false,stim,false,2,1018.0,2,1,0,72955,task2,1127578,false,false,1431,image-keyboard-response,3
true,14,0,2,2,false,d,false,false,0.0-2.0-0.50-0.451-3.451,1,0,0,81,false,stim,true,0,1216.0,2,0,2,72955,task2,1130306,false,false,1434,image-keyboard-response,4
true,14,2,2,2,true,d,false,false,0.0-2.0-0.50-0.452-3.452,1,0,0,68,false,stim,false,2,889.0,2,1,0,72955,task2,1132742,false,true,1437,image-keyboard-response,5
true,14,1,2,2,false,d,true,false,0.0-2.0-0.50-0.453-3.453,1,0,0,90,false,stim,false,0,1163.0,2,0,2,72955,task2,1135416,false,false,1440,image-keyboard-response,6
true,14,2,2,2,true,d,false,true,0.0-2.0-0.50-0.454-3.454,1,0,0,68,false,stim,false,2,2706.0,2,1,0,72955,task2,1139631,false,false,1443,image-keyboard-response,7
true,14,2,2,2,true,d,false,true,0.0-2.0-0.50-0.455-3.455,1,0,0,68,false,stim,false,0,690.0,2,0,2,72955,task2,1141831,false,false,1446,image-keyboard-response,8
true,14,0,2,0,true,q,false,true,0.0-2.0-0.50-0.456-3.456,1,0,0,81,false,stim,false,2,1801.0000000002328,2,0,1,72955,task2,1145141,false,false,1449,image-keyboard-response,9
true,14,0,2,0,true,q,false,true,0.0-2.0-0.50-0.457-3.457,1,0,0,81,false,stim,false,2,644.0,2,0,1,72955,task2,1147295,false,false,1452,image-keyboard-response,10
true,14,0,2,0,true,q,false,true,0.0-2.0-0.50-0.458-3.458,1,0,0,81,false,stim,false,2,724.0,2,0,1,72955,task2,1149529,false,false,1455,image-keyboard-response,11
true,14,2,2,2,true,d,false,true,0.0-2.0-0.51-0.459-3.459,1,0,0,68,false,stim,false,0,831.0,2,0,2,72955,task2,1151872,false,false,1458,image-keyboard-response,12
true,14,2,2,2,true,d,false,true,0.0-2.0-0.51-0.460-3.460,1,0,0,68,false,stim,false,2,1149.0,2,1,0,72955,task2,1154531,false,false,1461,image-keyboard-response,13
true,14,2,2,2,true,d,false,true,0.0-2.0-0.51-0.461-3.461,1,0,0,68,false,stim,false,0,1118.0,2,0,2,72955,task2,1157159,false,false,1464,image-keyboard-response,14
true,14,0,2,0,true,q,false,true,0.0-2.0-0.51-0.462-3.462,1,0,0,81,false,stim,false,2,986.0,2,0,1,72955,task2,1159655,false,false,1467,image-keyboard-response,15
true,14,2,2,2,true,d,false,true,0.0-2.0-0.51-0.463-3.463,1,0,0,68,false,stim,false,0,1676.0,2,0,2,72955,task2,1162841,false,false,1470,image-keyboard-response,16
true,14,2,2,2,true,d,false,true,0.0-2.0-0.51-0.464-3.464,1,0,0,68,false,stim,false,2,1498.9999999997672,2,1,0,72955,task2,1165850,false,false,1473,image-keyboard-response,17
true,14,0,2,0,true,q,false,true,0.0-2.0-0.51-0.465-3.465,1,0,0,81,false,stim,false,2,787.0,2,0,1,72955,task2,1168148,false,false,1476,image-keyboard-response,18
true,14,2,2,2,true,d,false,true,0.0-2.0-0.51-0.466-3.466,1,0,0,68,false,stim,false,2,819.0,2,1,0,72955,task2,1170475,false,false,1479,image-keyboard-response,19
true,14,0,2,0,true,q,false,true,0.0-2.0-0.51-0.467-3.467,1,0,0,81,false,stim,false,2,795.9999999997672,2,0,1,72955,task2,1172783,false,false,1482,image-keyboard-response,20
true,14,2,2,2,true,d,false,true,0.0-2.0-0.52-0.468-3.468,1,0,0,68,false,stim,false,0,818.0,2,0,2,72955,task2,1175112,false,false,1485,image-keyboard-response,21
true,14,2,2,2,true,d,false,true,0.0-2.0-0.52-0.469-3.469,1,0,0,68,false,stim,false,2,1163.0000000002328,2,1,0,72955,task2,1177785,false,false,1488,image-keyboard-response,22
true,14,0,2,0,true,q,false,true,0.0-2.0-0.52-0.470-3.470,1,0,0,81,false,stim,false,2,827.0,2,0,1,72955,task2,1180123,false,false,1491,image-keyboard-response,23
true,14,0,2,0,true,q,false,true,0.0-2.0-0.52-0.471-3.471,1,0,0,81,false,stim,false,2,812.0,2,0,1,72955,task2,1182447,false,false,1494,image-keyboard-response,24
true,14,0,2,0,true,q,false,true,0.0-2.0-0.52-0.472-3.472,1,0,0,81,false,stim,false,2,728.0,2,0,1,72955,task2,1184685,false,false,1497,image-keyboard-response,25
true,14,2,2,2,true,d,false,true,0.0-2.0-0.52-0.473-3.473,1,0,0,68,false,stim,false,0,606.0,2,0,2,72955,task2,1186801,false,false,1500,image-keyboard-response,26
true,14,2,2,2,true,d,false,true,0.0-2.0-0.52-0.474-3.474,1,0,0,68,false,stim,false,0,733.0,2,0,2,72955,task2,1189048,false,false,1503,image-keyboard-response,27
true,14,2,2,2,true,d,false,false,0.0-2.0-0.52-0.475-3.475,1,0,0,68,false,stim,false,2,711.0,2,1,0,72955,task2,1191270,false,true,1506,image-keyboard-response,28
true,14,1,2,2,false,d,true,true,0.0-2.0-0.52-0.476-3.476,1,0,0,90,false,stim,false,2,1037.0,2,1,0,72955,task2,1193817,false,true,1509,image-keyboard-response,29
true,14,2,2,2,true,d,false,true,0.0-2.0-0.53-0.477-3.477,1,0,0,68,false,stim,false,0,793.0,2,0,2,72955,task2,1196122,false,false,1512,image-keyboard-response,30
true,14,1,2,2,false,d,true,false,0.0-2.0-0.53-0.478-3.478,1,0,0,90,false,stim,false,2,634.0000000002328,2,0,0,72955,task2,1198266,false,false,1515,image-keyboard-response,31
true,14,0,2,0,true,q,false,true,0.0-2.0-0.53-0.479-3.479,1,0,0,81,false,stim,false,2,596.0,2,0,1,72955,task2,1200371,false,false,1518,image-keyboard-response,32
true,14,0,2,0,true,q,false,true,0.0-2.0-0.53-0.480-3.480,1,0,0,81,false,stim,false,2,666.0,2,0,1,72955,task2,1202546,false,false,1521,image-keyboard-response,33
true,14,2,2,2,true,d,false,true,0.0-2.0-0.53-0.481-3.481,1,0,0,68,false,stim,false,0,724.0,2,1,2,72955,task2,1204781,false,false,1524,image-keyboard-response,34
true,14,1,2,2,false,d,true,true,0.0-2.0-0.53-0.482-3.482,1,0,0,90,false,stim,false,2,1056.0,2,0,0,72955,task2,1207349,false,true,1527,image-keyboard-response,35
true,15,2,2,2,true,d,false,true,0.0-2.0-0.53-0.483-3.483,0,0,1,68,true,stim,false,2,635.0,2,1,2,72955,task2,1209493,false,false,1530,image-keyboard-response,1
true,15,1,2,0,false,q,true,false,0.0-2.0-0.53-0.484-3.484,0,0,1,90,false,stim,false,2,609.0000000002328,2,0,0,72955,task2,1211613,false,false,1533,image-keyboard-response,2
true,15,0,2,2,false,d,false,false,0.0-2.0-0.53-0.485-3.485,0,0,1,81,false,stim,true,0,952.0,2,0,1,72955,task2,1214073,false,false,1536,image-keyboard-response,3
true,15,2,2,2,true,d,false,true,0.0-2.0-0.54-0.486-3.486,0,0,1,68,false,stim,false,2,806.9999999997672,2,1,2,72955,task2,1216391,false,false,1539,image-keyboard-response,4
true,15,1,2,0,false,q,true,false,0.0-2.0-0.54-0.487-3.487,0,0,1,90,false,stim,false,2,789.0,2,0,0,72955,task2,1218691,false,false,1542,image-keyboard-response,5
true,15,0,2,0,true,q,false,true,0.0-2.0-0.54-0.488-3.488,0,0,1,81,false,stim,false,2,987.0,2,0,0,72955,task2,1221189,false,false,1545,image-keyboard-response,6
true,15,0,2,0,true,q,false,true,0.0-2.0-0.54-0.489-3.489,0,0,1,81,false,stim,false,2,716.0,2,0,0,72955,task2,1223417,false,false,1548,image-keyboard-response,7
true,15,1,2,2,false,d,true,false,0.0-2.0-0.54-0.490-3.490,0,0,1,90,false,stim,false,0,841.0,2,0,1,72955,task2,1225770,false,false,1551,image-keyboard-response,8
true,15,2,2,2,true,d,false,true,0.0-2.0-0.54-0.491-3.491,0,0,1,68,false,stim,false,0,597.0,2,0,1,72955,task2,1227876,false,false,1554,image-keyboard-response,9
true,15,2,2,2,true,d,false,true,0.0-2.0-0.54-0.492-3.492,0,0,1,68,false,stim,false,0,734.0,2,0,1,72955,task2,1230120,false,false,1557,image-keyboard-response,10
true,15,2,2,2,true,d,false,false,0.0-2.0-0.54-0.493-3.493,0,0,1,68,false,stim,false,2,589.0,2,1,2,72955,task2,1232220,false,true,1560,image-keyboard-response,11
true,15,1,2,2,false,d,true,false,0.0-2.0-0.54-0.494-3.494,0,0,1,90,false,stim,false,2,892.0000000002328,2,1,2,72955,task2,1234622,false,false,1563,image-keyboard-response,12
true,15,2,2,2,true,d,false,true,0.0-2.0-0.55-0.495-3.495,0,0,1,68,false,stim,false,0,667.0,2,0,1,72955,task2,1236802,false,false,1566,image-keyboard-response,13
true,15,0,2,2,false,d,true,false,0.0-2.0-0.55-0.496-3.496,0,0,1,81,false,stim,false,2,736.0,2,1,2,72955,task2,1239049,false,false,1569,image-keyboard-response,14
true,15,0,2,0,true,q,false,true,0.0-2.0-0.55-0.497-3.497,0,0,1,81,false,stim,false,2,1029.0,2,0,0,72955,task2,1241588,false,false,1572,image-keyboard-response,15
true,15,0,2,0,true,q,false,false,0.0-2.0-0.55-0.498-3.498,0,0,1,81,false,stim,false,2,1205.0,2,0,0,72955,task2,1244304,false,true,1575,image-keyboard-response,16
true,15,2,2,2,true,d,false,true,0.0-2.0-0.55-0.499-3.499,0,0,1,68,false,stim,false,2,1107.0,2,1,2,72955,task2,1246922,false,false,1578,image-keyboard-response,17
true,15,0,2,0,true,q,false,true,0.0-2.0-0.55-0.500-3.500,0,0,1,81,false,stim,false,2,1053.0,2,0,0,72955,task2,1249484,false,false,1581,image-keyboard-response,18
true,15,2,2,2,true,d,false,true,0.0-2.0-0.55-0.501-3.501,0,0,1,68,false,stim,false,2,703.0000000002328,2,1,2,72955,task2,1251699,false,false,1584,image-keyboard-response,19
true,15,2,2,2,true,d,false,true,0.0-2.0-0.55-0.502-3.502,0,0,1,68,false,stim,false,0,567.0,2,0,1,72955,task2,1253777,false,false,1587,image-keyboard-response,20
true,15,2,2,2,true,d,false,true,0.0-2.0-0.55-0.503-3.503,0,0,1,68,false,stim,false,0,612.9999999997672,2,0,1,72955,task2,1255900,false,false,1590,image-keyboard-response,21
true,15,0,2,0,true,q,false,true,0.0-2.0-0.56-0.504-3.504,0,0,1,81,false,stim,false,2,690.9999999997672,2,0,0,72955,task2,1258103,false,false,1593,image-keyboard-response,22
true,15,2,2,2,true,d,false,true,0.0-2.0-0.56-0.505-3.505,0,0,1,68,false,stim,false,0,1016.0,2,0,1,72955,task2,1260629,false,false,1596,image-keyboard-response,23
true,15,2,2,2,true,d,false,false,0.0-2.0-0.56-0.506-3.506,0,0,1,68,false,stim,false,2,616.0,2,1,2,72955,task2,1262755,false,true,1599,image-keyboard-response,24
true,15,2,2,2,true,d,false,true,0.0-2.0-0.56-0.507-3.507,0,0,1,68,false,stim,false,2,740.0,2,1,2,72955,task2,1265015,false,false,1602,image-keyboard-response,25
true,15,2,2,2,true,d,false,true,0.0-2.0-0.56-0.508-3.508,0,0,1,68,false,stim,false,2,714.0000000002328,2,1,2,72955,task2,1267240,false,false,1605,image-keyboard-response,26
true,15,0,2,0,true,q,false,true,0.0-2.0-0.56-0.509-3.509,0,0,1,81,false,stim,false,2,880.9999999997672,2,1,0,72955,task2,1269629,false,false,1608,image-keyboard-response,27
true,15,0,2,0,true,q,false,true,0.0-2.0-0.56-0.510-3.510,0,0,1,81,false,stim,false,2,718.0,2,1,0,72955,task2,1271858,false,false,1611,image-keyboard-response,28
true,15,2,2,2,true,d,false,true,0.0-2.0-0.56-0.511-3.511,0,0,1,68,false,stim,false,0,776.0,2,0,1,72955,task2,1274146,false,false,1614,image-keyboard-response,29
true,15,2,2,2,true,d,false,true,0.0-2.0-0.56-0.512-3.512,0,0,1,68,false,stim,false,0,949.0,2,0,1,72955,task2,1276606,false,false,1617,image-keyboard-response,30
true,15,2,2,2,true,d,false,true,0.0-2.0-0.57-0.513-3.513,0,0,1,68,false,stim,false,2,843.0,2,0,2,72955,task2,1278959,false,false,1620,image-keyboard-response,31
true,16,2,2,1,false,z,false,true,0.0-2.0-0.57-0.514-3.514,1,0,0,68,true,stim,true,2,1051.0,2,0,1,72955,task2,1281521,false,true,1623,image-keyboard-response,1
true,16,2,2,1,false,z,false,false,0.0-2.0-0.57-0.515-3.515,1,0,0,68,false,stim,true,2,652.0,2,0,1,72955,task2,1283685,false,false,1626,image-keyboard-response,2
true,16,0,2,0,true,q,false,true,0.0-2.0-0.57-0.516-3.516,1,0,0,81,false,stim,false,0,639.0,2,1,0,72955,task2,1285835,false,false,1629,image-keyboard-response,3
true,16,2,2,0,false,q,false,false,0.0-2.0-0.57-0.517-3.517,1,0,0,68,false,stim,true,2,836.0,2,0,2,72955,task2,1288183,false,false,1632,image-keyboard-response,4
true,16,2,2,0,false,q,true,false,0.0-2.0-0.57-0.518-3.518,1,0,0,68,false,stim,false,0,604.0,2,1,0,72955,task2,1290297,false,false,1635,image-keyboard-response,5
true,16,2,2,1,false,z,false,false,0.0-2.0-0.57-0.519-3.519,1,0,0,68,false,stim,true,2,748.0,2,0,1,72955,task2,1292554,false,false,1638,image-keyboard-response,6
true,16,1,2,0,false,q,true,false,0.0-2.0-0.57-0.520-3.520,1,0,0,90,false,stim,false,2,731.0,2,0,2,72955,task2,1294796,false,false,1641,image-keyboard-response,7
true,16,0,2,0,true,q,false,true,0.0-2.0-0.57-0.521-3.521,1,0,0,81,false,stim,false,0,750.0,2,1,0,72955,task2,1297057,false,false,1644,image-keyboard-response,8
true,16,0,2,0,true,q,false,true,0.0-2.0-0.58-0.522-3.522,1,0,0,81,false,stim,false,0,727.0,2,1,0,72955,task2,1299296,false,false,1647,image-keyboard-response,9
true,16,1,2,1,true,z,false,true,0.0-2.0-0.58-0.523-3.523,1,0,0,90,false,stim,false,2,1552.0,2,0,1,72955,task2,1302360,false,false,1650,image-keyboard-response,10
true,16,1,2,1,true,z,false,true,0.0-2.0-0.58-0.524-3.524,1,0,0,90,false,stim,false,2,724.0,2,0,1,72955,task2,1304593,false,false,1653,image-keyboard-response,11
true,16,0,2,0,true,q,false,true,0.0-2.0-0.58-0.525-3.525,1,0,0,81,false,stim,false,0,692.9999999997672,2,1,0,72955,task2,1306798,false,false,1656,image-keyboard-response,12
true,16,0,2,0,true,q,false,false,0.0-2.0-0.58-0.526-3.526,1,0,0,81,false,stim,false,0,572.0,2,1,0,72955,task2,1308880,false,true,1659,image-keyboard-response,13
true,16,0,2,0,true,q,false,true,0.0-2.0-0.58-0.527-3.527,1,0,0,81,false,stim,false,2,792.0,2,0,2,72955,task2,1311183,false,false,1662,image-keyboard-response,14
true,16,0,2,0,true,q,false,true,0.0-2.0-0.58-0.528-3.528,1,0,0,81,false,stim,false,2,661.0,2,0,2,72955,task2,1313354,false,false,1665,image-keyboard-response,15
true,16,0,2,0,true,q,false,true,0.0-2.0-0.58-0.529-3.529,1,0,0,81,false,stim,false,2,659.9999999997672,2,0,2,72955,task2,1315525,false,false,1668,image-keyboard-response,16
true,16,1,2,1,true,z,false,true,0.0-2.0-0.58-0.530-3.530,1,0,0,90,false,stim,false,2,743.0000000002328,2,0,1,72955,task2,1317778,false,false,1671,image-keyboard-response,17
true,16,2,2,0,false,q,false,false,0.0-2.0-0.59-0.531-3.531,1,0,0,68,false,stim,true,2,793.9999999997672,2,0,2,72955,task2,1320082,false,false,1674,image-keyboard-response,18
true,16,1,2,1,true,z,false,true,0.0-2.0-0.59-0.532-3.532,1,0,0,90,false,stim,false,2,1070.0,2,0,1,72955,task2,1322662,false,false,1677,image-keyboard-response,19
true,16,0,2,0,true,q,false,true,0.0-2.0-0.59-0.533-3.533,1,0,0,81,false,stim,false,0,750.0,2,1,0,72955,task2,1324924,false,false,1680,image-keyboard-response,20
true,16,0,2,0,true,q,false,true,0.0-2.0-0.59-0.534-3.534,1,0,0,81,false,stim,false,0,922.0,2,1,0,72955,task2,1327358,false,false,1683,image-keyboard-response,21
true,16,0,2,1,false,z,true,false,0.0-2.0-0.59-0.535-3.535,1,0,0,81,false,stim,false,2,803.0,2,0,1,72955,task2,1329671,false,false,1686,image-keyboard-response,22
true,16,1,2,0,false,q,true,false,0.0-2.0-0.59-0.536-3.536,1,0,0,90,false,stim,false,2,748.0,2,0,2,72955,task2,1331932,false,false,1689,image-keyboard-response,23
true,16,0,2,0,true,q,false,true,0.0-2.0-0.59-0.537-3.537,1,0,0,81,false,stim,false,0,1144.9999999997672,2,1,0,72955,task2,1334588,false,false,1692,image-keyboard-response,24
true,16,1,2,1,true,z,false,true,0.0-2.0-0.59-0.538-3.538,1,0,0,90,false,stim,false,2,984.0,2,0,1,72955,task2,1337082,false,false,1695,image-keyboard-response,25
true,16,2,2,0,false,q,false,false,0.0-2.0-0.59-0.539-3.539,1,0,0,68,false,stim,true,2,669.0,2,0,2,72955,task2,1339259,false,false,1698,image-keyboard-response,26
true,16,1,2,0,false,q,true,false,0.0-2.0-0.60-0.540-3.540,1,0,0,90,false,stim,false,2,928.0,2,1,2,72955,task2,1341704,false,false,1701,image-keyboard-response,27
true,16,1,2,1,true,z,false,true,0.0-2.0-0.60-0.541-3.541,1,0,0,90,false,stim,false,2,776.0,2,1,1,72955,task2,1343992,false,false,1704,image-keyboard-response,28
true,16,0,2,0,true,q,false,true,0.0-2.0-0.60-0.542-3.542,1,0,0,81,false,stim,false,0,626.0,2,1,0,72955,task2,1346128,false,false,1707,image-keyboard-response,29
true,16,0,2,1,false,z,true,false,0.0-2.0-0.60-0.543-3.543,1,0,0,81,false,stim,false,2,765.0,2,1,1,72955,task2,1348403,false,false,1710,image-keyboard-response,30
true,16,1,2,1,true,z,false,true,0.0-2.0-0.60-0.544-3.544,1,0,0,90,false,stim,false,2,609.0,2,1,1,72955,task2,1350525,false,false,1713,image-keyboard-response,31
true,17,0,0,0,true,q,false,false,0.0-2.0-0.60-0.545-3.545,1,1,1,81,true,stim,false,0,1410.0,2,1,0,72955,task2,1358841,false,true,1722,image-keyboard-response,1
true,17,1,0,0,false,q,true,false,0.0-2.0-0.60-0.546-3.546,1,1,1,90,false,stim,false,0,731.0,2,1,0,72955,task2,1361081,false,false,1725,image-keyboard-response,2
true,17,1,0,0,false,q,true,false,0.0-2.0-0.60-0.547-3.547,1,1,1,90,false,stim,false,0,1419.0,2,1,2,72955,task2,1364011,false,false,1728,image-keyboard-response,3
true,17,2,0,0,false,q,true,false,0.0-2.0-0.60-0.548-3.548,1,1,1,68,false,stim,false,0,821.0,2,1,2,72955,task2,1366343,false,false,1731,image-keyboard-response,4
true,17,2,0,0,false,q,true,false,0.0-2.0-0.61-0.549-3.549,1,1,1,68,false,stim,false,0,666.0000000002328,2,1,0,72955,task2,1368519,false,false,1734,image-keyboard-response,5
true,17,0,0,0,true,q,false,true,0.0-2.0-0.61-0.550-3.550,1,1,1,81,false,stim,false,0,927.9999999997672,2,1,2,72955,task2,1370958,false,false,1737,image-keyboard-response,6
true,17,0,0,0,true,q,false,true,0.0-2.0-0.61-0.551-3.551,1,1,1,81,false,stim,false,0,759.0,2,1,2,72955,task2,1373228,false,false,1740,image-keyboard-response,7
true,17,0,0,0,true,q,false,true,0.0-2.0-0.61-0.552-3.552,1,1,1,81,false,stim,false,0,726.0,2,1,2,72955,task2,1375463,false,false,1743,image-keyboard-response,8
true,17,2,0,1,false,z,true,false,0.0-2.0-0.61-0.553-3.553,1,1,1,68,false,stim,false,1,997.0,2,0,1,72955,task2,1377971,false,false,1746,image-keyboard-response,9
true,17,1,0,1,true,z,false,true,0.0-2.0-0.61-0.554-3.554,1,1,1,90,false,stim,false,1,611.9999999997672,2,0,1,72955,task2,1380123,false,false,1749,image-keyboard-response,10
true,17,0,0,0,true,q,false,true,0.0-2.0-0.61-0.555-3.555,1,1,1,81,false,stim,false,0,552.0,2,1,0,72955,task2,1382186,false,false,1752,image-keyboard-response,11
true,17,1,0,1,true,z,false,true,0.0-2.0-0.61-0.556-3.556,1,1,1,90,false,stim,false,1,706.0,2,0,1,72955,task2,1384401,false,false,1755,image-keyboard-response,12
true,17,0,0,0,true,q,false,true,0.0-2.0-0.61-0.557-3.557,1,1,1,81,false,stim,false,0,638.0000000002328,2,1,0,72955,task2,1386549,false,false,1758,image-keyboard-response,13
true,18,0,2,0,true,q,false,true,0.0-2.0-0.62-0.558-3.558,1,0,0,81,true,stim,false,0,645.0,2,1,0,72955,task2,1388707,false,false,1761,image-keyboard-response,1
true,18,1,2,0,false,q,false,false,0.0-2.0-0.62-0.559-3.559,1,0,0,90,false,stim,true,1,884.0,2,0,1,72955,task2,1391101,false,false,1764,image-keyboard-response,2
true,18,1,2,0,false,q,false,false,0.0-2.0-0.62-0.560-3.560,1,0,0,90,false,stim,true,1,895.0,2,0,1,72955,task2,1393507,false,false,1767,image-keyboard-response,3
true,18,1,2,0,false,q,false,false,0.0-2.0-0.62-0.561-3.561,1,0,0,90,false,stim,true,1,590.0,2,0,1,72955,task2,1395606,false,false,1770,image-keyboard-response,4
true,18,0,2,0,true,q,false,true,0.0-2.0-0.62-0.562-3.562,1,0,0,81,false,stim,false,0,642.9999999997672,2,1,0,72955,task2,1397760,false,false,1773,image-keyboard-response,5
true,18,0,2,1,false,z,false,false,0.0-2.0-0.62-0.563-3.563,1,0,0,81,false,stim,true,0,1004.9999999997672,2,0,2,72955,task2,1400276,false,false,1776,image-keyboard-response,6
true,18,0,2,1,false,z,false,false,0.0-2.0-0.62-0.564-3.564,1,0,0,81,false,stim,true,0,703.0,2,0,2,72955,task2,1402488,false,false,1779,image-keyboard-response,7
true,18,0,2,0,true,q,false,true,0.0-2.0-0.62-0.565-3.565,1,0,0,81,false,stim,false,0,778.0,2,1,0,72955,task2,1404776,false,false,1782,image-keyboard-response,8
true,18,2,2,1,false,z,true,false,0.0-2.0-0.62-0.566-3.566,1,0,0,68,false,stim,false,0,675.0000000002328,2,0,2,72955,task2,1406964,false,false,1785,image-keyboard-response,9
true,18,2,2,0,false,q,true,false,0.0-2.0-0.63-0.567-3.567,1,0,0,68,false,stim,false,1,582.0,2,0,1,72955,task2,1409056,false,false,1788,image-keyboard-response,10
true,18,0,2,0,true,q,false,true,0.0-2.0-0.63-0.568-3.568,1,0,0,81,false,stim,false,1,507.0,2,0,1,72955,task2,1411074,false,false,1791,image-keyboard-response,11
true,18,0,2,0,true,q,false,false,0.0-2.0-0.63-0.569-3.569,1,0,0,81,false,stim,false,1,552.0,2,0,1,72955,task2,1413135,false,true,1794,image-keyboard-response,12
true,18,0,2,0,true,q,false,true,0.0-2.0-0.63-0.570-3.570,1,0,0,81,false,stim,false,0,1009.0,2,1,0,72955,task2,1415656,false,false,1797,image-keyboard-response,13
true,18,0,2,0,true,q,false,true,0.0-2.0-0.63-0.571-3.571,1,0,0,81,false,stim,false,0,675.0,2,1,0,72955,task2,1417841,false,false,1800,image-keyboard-response,14
true,18,1,2,1,true,z,false,true,0.0-2.0-0.63-0.572-3.572,1,0,0,90,false,stim,false,0,1014.0,2,0,2,72955,task2,1420371,false,false,1803,image-keyboard-response,15
true,18,1,2,1,true,z,false,true,0.0-2.0-0.63-0.573-3.573,1,0,0,90,false,stim,false,0,562.0,2,0,2,72955,task2,1422444,false,false,1806,image-keyboard-response,16
true,18,1,2,1,true,z,false,false,0.0-2.0-0.63-0.574-3.574,1,0,0,90,false,stim,false,0,680.0,2,0,2,72955,task2,1424634,false,true,1809,image-keyboard-response,17
true,18,0,2,0,true,q,false,true,0.0-2.0-0.63-0.575-3.575,1,0,0,81,false,stim,false,0,1066.0,2,1,0,72955,task2,1427212,false,false,1812,image-keyboard-response,18
true,18,0,2,0,true,q,false,false,0.0-2.0-0.64-0.576-3.576,1,0,0,81,false,stim,false,0,766.0,2,1,0,72955,task2,1429488,false,true,1815,image-keyboard-response,19
true,18,1,2,1,true,z,false,true,0.0-2.0-0.64-0.577-3.577,1,0,0,90,false,stim,false,0,1831.0,2,0,2,72955,task2,1432830,false,false,1818,image-keyboard-response,20
true,18,0,2,0,true,q,false,true,0.0-2.0-0.64-0.578-3.578,1,0,0,81,false,stim,false,0,779.0,2,1,0,72955,task2,1435120,false,false,1821,image-keyboard-response,21
true,18,0,2,0,true,q,false,true,0.0-2.0-0.64-0.579-3.579,1,0,0,81,false,stim,false,0,930.0,2,1,0,72955,task2,1437561,false,false,1824,image-keyboard-response,22
true,18,1,2,1,true,z,false,true,0.0-2.0-0.64-0.580-3.580,1,0,0,90,false,stim,false,0,886.0,2,0,2,72955,task2,1439957,false,false,1827,image-keyboard-response,23
true,18,1,2,1,true,z,false,true,0.0-2.0-0.64-0.581-3.581,1,0,0,90,false,stim,false,0,944.0,2,0,2,72955,task2,1442413,false,false,1830,image-keyboard-response,24
true,18,2,2,0,false,q,true,false,0.0-2.0-0.64-0.582-3.582,1,0,0,68,false,stim,false,1,785.0,2,0,1,72955,task2,1444706,false,false,1833,image-keyboard-response,25
true,18,0,2,0,true,q,false,true,0.0-2.0-0.64-0.583-3.583,1,0,0,81,false,stim,false,1,538.0,2,0,1,72955,task2,1446754,false,false,1836,image-keyboard-response,26
true,18,0,2,0,true,q,false,true,0.0-2.0-0.64-0.584-3.584,1,0,0,81,false,stim,false,1,861.0,2,0,1,72955,task2,1449126,false,false,1839,image-keyboard-response,27
true,18,1,2,1,true,z,false,true,0.0-2.0-0.65-0.585-3.585,1,0,0,90,false,stim,false,0,1106.0,2,0,2,72955,task2,1451743,false,false,1842,image-keyboard-response,28
true,18,0,2,0,true,q,false,true,0.0-2.0-0.65-0.586-3.586,1,0,0,81,false,stim,false,1,922.0,2,0,1,72955,task2,1454177,false,false,1845,image-keyboard-response,29
true,18,0,2,0,true,q,false,true,0.0-2.0-0.65-0.587-3.587,1,0,0,81,false,stim,false,1,861.0000000002328,2,0,1,72955,task2,1456550,false,false,1848,image-keyboard-response,30
true,18,0,2,0,true,q,false,true,0.0-2.0-0.65-0.588-3.588,1,0,0,81,false,stim,false,0,769.0,2,0,0,72955,task2,1458831,false,false,1851,image-keyboard-response,31
true,18,1,2,1,true,z,false,false,0.0-2.0-0.65-0.589-3.589,1,0,0,90,false,stim,false,0,872.0000000002328,2,0,2,72955,task2,1461215,false,true,1854,image-keyboard-response,32
true,18,0,2,0,true,q,false,true,0.0-2.0-0.65-0.590-3.590,1,0,0,81,false,stim,false,0,800.0,2,0,0,72955,task2,1463526,false,false,1857,image-keyboard-response,33
true,18,1,2,0,false,q,false,false,0.0-2.0-0.65-0.591-3.591,1,0,0,90,false,stim,true,1,1109.0,2,0,1,72955,task2,1466144,false,false,1860,image-keyboard-response,34
true,19,0,1,1,false,z,false,false,0.0-2.0-0.65-0.592-3.592,0,0,0,81,true,stim,true,0,1016.0,2,0,0,72955,task2,1468669,false,false,1863,image-keyboard-response,1
true,19,2,1,2,true,d,false,false,0.0-2.0-0.65-0.593-3.593,0,0,0,68,false,stim,false,1,866.0,2,0,2,72955,task2,1471046,false,true,1866,image-keyboard-response,2
true,19,0,1,2,false,d,false,false,0.0-2.0-0.66-0.594-3.594,0,0,0,81,false,stim,true,0,1049.0,2,0,1,72955,task2,1473606,false,false,1869,image-keyboard-response,3
true,19,0,1,1,false,z,false,false,0.0-2.0-0.66-0.595-3.595,0,0,0,81,false,stim,true,0,884.0,2,0,0,72955,task2,1476002,false,false,1872,image-keyboard-response,4
true,19,2,1,1,false,z,true,false,0.0-2.0-0.66-0.596-3.596,0,0,0,68,false,stim,false,0,825.0,2,0,0,72955,task2,1478337,false,false,1875,image-keyboard-response,5
true,19,1,1,2,false,d,true,false,0.0-2.0-0.66-0.597-3.597,0,0,0,90,false,stim,false,0,1227.0,2,0,1,72955,task2,1481075,false,false,1878,image-keyboard-response,6
true,19,1,1,2,false,d,false,false,0.0-2.0-0.66-0.598-3.598,0,0,0,90,false,stim,true,1,1047.0,2,0,2,72955,task2,1483630,false,false,1881,image-keyboard-response,7
true,19,0,1,2,false,d,true,false,0.0-2.0-0.66-0.599-3.599,0,0,0,81,false,stim,false,1,643.0,2,0,2,72955,task2,1485784,false,false,1884,image-keyboard-response,8
true,19,0,1,2,false,d,false,false,0.0-2.0-0.66-0.600-3.600,0,0,0,81,false,stim,true,0,1200.0000000002328,2,0,1,72955,task2,1488494,false,false,1887,image-keyboard-response,9
true,19,2,1,2,true,d,false,true,0.0-2.0-0.66-0.601-3.601,0,0,0,68,false,stim,false,1,1140.0000000002328,2,0,2,72955,task2,1491147,false,false,1890,image-keyboard-response,10
true,19,0,1,1,false,z,false,false,0.0-2.0-0.66-0.602-3.602,0,0,0,81,false,stim,true,0,996.0,2,0,0,72955,task2,1493655,false,false,1893,image-keyboard-response,11
true,19,2,1,2,true,d,false,true,0.0-2.0-0.67-0.603-3.603,0,0,0,68,false,stim,false,1,865.0,2,0,2,72955,task2,1496036,false,false,1896,image-keyboard-response,12
true,19,2,1,2,true,d,false,true,0.0-2.0-0.67-0.604-3.604,0,0,0,68,false,stim,false,0,1062.0,2,0,1,72955,task2,1498611,false,false,1899,image-keyboard-response,13
true,19,1,1,1,true,z,false,true,0.0-2.0-0.67-0.605-3.605,0,0,0,90,false,stim,false,0,768.0,2,0,0,72955,task2,1500894,false,false,1902,image-keyboard-response,14
true,19,1,1,1,true,z,false,false,0.0-2.0-0.67-0.606-3.606,0,0,0,90,false,stim,false,0,836.0,2,0,0,72955,task2,1503237,false,true,1905,image-keyboard-response,15
true,19,2,1,2,true,d,false,true,0.0-2.0-0.67-0.607-3.607,0,0,0,68,false,stim,false,0,592.0000000002328,2,0,1,72955,task2,1505340,false,false,1908,image-keyboard-response,16
true,19,2,1,2,true,d,false,true,0.0-2.0-0.67-0.608-3.608,0,0,0,68,false,stim,false,1,902.0,2,0,2,72955,task2,1507753,false,false,1911,image-keyboard-response,17
true,19,1,1,1,true,z,false,true,0.0-2.0-0.67-0.609-3.609,0,0,0,90,false,stim,false,0,723.9999999997672,2,0,0,72955,task2,1509988,false,false,1914,image-keyboard-response,18
true,19,2,1,2,true,d,false,true,0.0-2.0-0.67-0.610-3.610,0,0,0,68,false,stim,false,1,560.0,2,0,2,72955,task2,1512058,false,false,1917,image-keyboard-response,19
true,19,2,1,2,true,d,false,true,0.0-2.0-0.67-0.611-3.611,0,0,0,68,false,stim,false,0,670.0,2,0,1,72955,task2,1514238,false,false,1920,image-keyboard-response,20
true,19,1,1,1,true,z,false,true,0.0-2.0-0.68-0.612-3.612,0,0,0,90,false,stim,false,0,645.0,2,0,0,72955,task2,1516394,false,false,1923,image-keyboard-response,21
true,19,2,1,2,true,d,false,true,0.0-2.0-0.68-0.613-3.613,0,0,0,68,false,stim,false,0,817.0,2,0,1,72955,task2,1518721,false,false,1926,image-keyboard-response,22
true,19,2,1,2,true,d,false,true,0.0-2.0-0.68-0.614-3.614,0,0,0,68,false,stim,false,0,875.0,2,0,1,72955,task2,1521106,false,false,1929,image-keyboard-response,23
true,19,1,1,1,true,z,false,true,0.0-2.0-0.68-0.615-3.615,0,0,0,90,false,stim,false,0,871.0,2,0,0,72955,task2,1523488,false,false,1932,image-keyboard-response,24
true,19,1,1,1,true,z,false,true,0.0-2.0-0.68-0.616-3.616,0,0,0,90,false,stim,false,0,874.0,2,0,0,72955,task2,1525873,false,false,1935,image-keyboard-response,25
