answered,blockNum,choice,condition,corResp,correct,correct_response,explo,fb,internal_node_id,isStable_1,isStable_2,isStable_3,key_press,newBlock,part,persev,persevResp,rt,sessNum,stableAS,stimulus,subject,task,time_elapsed,training,trap,trial_index,trial_type,trialsInBlock
true,1,2,0,2,true,d,false,true,0.0-2.0-0.0-0.0-3.0,0,0,0,68,true,stim,false,-1,1575,1,0,2,72955,task3,148208,false,false,169,image-keyboard-response,1
true,1,2,0,2,true,d,false,true,0.0-2.0-0.0-0.1-3.1,0,0,0,68,false,stim,false,-1,465,1,0,2,72955,task3,150195,false,false,172,image-keyboard-response,2
true,1,0,0,1,false,z,true,true,0.0-2.0-0.0-0.2-3.2,0,0,0,81,false,stim,false,-1,698,1,0,1,72955,task3,152415,false,true,175,image-keyboard-response,3
true,1,2,0,2,true,d,false,true,0.0-2.0-0.0-0.3-3.3,0,0,0,68,false,stim,false,-1,625,1,0,2,72955,task3,154570,false,false,178,image-keyboard-response,4
true,1,1,0,1,true,z,false,true,0.0-2.0-0.0-0.4-3.4,0,0,0,90,false,stim,false,-1,450,1,0,0,72955,task3,156546,false,false,181,image-keyboard-response,5
true,1,1,0,1,true,z,false,true,0.0-2.0-0.0-0.5-3.5,0,0,0,90,false,stim,false,-1,438,1,0,0,72955,task3,158517,false,false,184,image-keyboard-response,6
true,1,1,0,1,true,z,false,true,0.0-2.0-0.0-0.6-3.6,0,0,0,90,false,stim,false,-1,340,1,0,0,72955,task3,160384,false,false,187,image-keyboard-response,7
true,1,0,0,1,false,z,true,false,0.0-2.0-0.0-0.7-3.7,0,0,0,81,false,stim,false,-1,451,1,0,1,72955,task3,162361,false,false,190,image-keyboard-response,8
true,1,0,0,1,false,z,true,false,0.0-2.0-0.0-0.8-3.8,0,0,0,81,false,stim,false,-1,736,1,0,1,72955,task3,164630,false,false,193,image-keyboard-response,9
true,1,2,0,2,true,d,false,true,0.0-2.0-0.1-0.9-3.9,0,0,0,68,false,stim,false,-1,825,1,0,2,72955,task3,166982,false,false,196,image-keyboard-response,10
true,1,2,0,2,true,d,false,true,0.0-2.0-0.1-0.10-3.10,0,0,0,68,false,stim,false,-1,457,1,0,2,72955,task3,168966,false,false,199,image-keyboard-response,11
true,1,1,0,1,true,z,false,true,0.0-2.0-0.1-0.11-3.11,0,0,0,90,false,stim,false,-1,541,1,0,0,72955,task3,171032,false,false,202,image-keyboard-response,12
true,1,1,0,2,false,d,true,false,0.0-2.0-0.1-0.12-3.12,0,0,0,90,false,stim,false,-1,409,1,0,2,72955,task3,172965,false,false,205,image-keyboard-response,13
true,1,1,0,1,true,z,false,true,0.0-2.0-0.1-0.13-3.13,0,0,0,90,false,stim,false,-1,651,1,0,1,72955,task3,175141,false,false,208,image-keyboard-response,14
true,1,1,0,1,true,z,false,false,0.0-2.0-0.1-0.14-3.14,0,0,0,90,false,stim,false,-1,432,1,0,1,72955,task3,177105,false,true,211,image-keyboard-response,15
true,1,1,0,1,true,z,false,true,0.0-2.0-0.1-0.15-3.15,0,0,0,90,false,stim,false,-1,629,1,0,0,72955,task3,179266,false,false,214,image-keyboard-response,16
true,1,1,0,1,true,z,false,true,0.0-2.0-0.1-0.16-3.16,0,0,0,90,false,stim,false,-1,483,1,0,0,72955,task3,181270,false,false,217,image-keyboard-response,17
true,1,2,0,1,false,z,true,false,0.0-2.0-0.1-0.17-3.17,0,0,0,68,false,stim,false,-1,1125,1,0,1,72955,task3,183928,false,false,220,image-keyboard-response,18
true,1,0,0,1,false,z,true,false,0.0-2.0-0.2-0.18-3.18,0,0,0,81,false,stim,false,-1,647,1,0,1,72955,task3,186099,false,false,223,image-keyboard-response,19
true,1,1,0,1,true,z,false,true,0.0-2.0-0.2-0.19-3.19,0,0,0,90,false,stim,false,-1,385,1,0,0,72955,task3,188003,false,false,226,image-keyboard-response,20
true,1,1,0,1,true,z,false,true,0.0-2.0-0.2-0.20-3.20,0,0,0,90,false,stim,false,-1,393,1,0,0,72955,task3,189929,false,false,229,image-keyboard-response,21
true,1,2,0,2,true,d,false,true,0.0-2.0-0.2-0.21-3.21,0,0,0,68,false,stim,false,-1,660,1,1,2,72955,task3,192112,false,false,232,image-keyboard-response,22
true,1,1,0,1,true,z,false,true,0.0-2.0-0.2-0.22-3.22,0,0,0,90,false,stim,false,-1,539,1,0,0,72955,task3,194171,false,false,235,image-keyboard-response,23
true,1,2,0,2,true,d,false,true,0.0-2.0-0.2-0.23-3.23,0,0,0,68,false,stim,false,-1,609,1,1,2,72955,task3,196301,false,false,238,image-keyboard-response,24
true,2,1,2,1,true,z,false,true,0.0-2.0-0.2-0.24-3.24,0,1,1,90,true,stim,false,1,859,1,1,1,72955,task3,198693,false,false,241,image-keyboard-response,1
true,2,1,2,1,true,z,false,true,0.0-2.0-0.2-0.25-3.25,0,1,1,90,false,stim,false,1,598,1,1,1,72955,task3,200806,false,false,244,image-keyboard-response,2
true,2,2,2,2,true,d,false,true,0.0-2.0-0.2-0.26-3.26,0,1,1,68,false,stim,false,2,571,1,1,2,72955,task3,202886,false,false,247,image-keyboard-response,3
true,2,1,2,1,true,z,false,true,0.0-2.0-0.3-0.27-3.27,0,1,1,90,false,stim,false,1,633,1,1,1,72955,task3,205044,false,false,250,image-keyboard-response,4
true,2,1,2,1,true,z,false,true,0.0-2.0-0.3-0.28-3.28,0,1,1,90,false,stim,false,1,371,1,1,1,72955,task3,206946,false,false,253,image-keyboard-response,5
true,2,1,2,0,false,q,false,false,0.0-2.0-0.3-0.29-3.29,0,1,1,90,false,stim,true,1,635,1,0,0,72955,task3,209100,false,false,256,image-keyboard-response,6
true,2,1,2,1,true,z,false,true,0.0-2.0-0.3-0.30-3.30,0,1,1,90,false,stim,false,1,454,1,1,1,72955,task3,211079,false,false,259,image-keyboard-response,7
true,2,2,2,2,true,d,false,true,0.0-2.0-0.3-0.31-3.31,0,1,1,68,false,stim,false,2,863,1,1,2,72955,task3,213472,false,false,262,image-keyboard-response,8
true,2,0,2,0,true,q,false,true,0.0-2.0-0.3-0.32-3.32,0,1,1,81,false,stim,false,1,811,1,0,0,72955,task3,215803,false,false,265,image-keyboard-response,9
true,2,2,2,2,true,d,false,true,0.0-2.0-0.3-0.33-3.33,0,1,1,68,false,stim,false,2,684,1,1,2,72955,task3,218001,false,false,268,image-keyboard-response,10
true,2,0,2,0,true,q,false,true,0.0-2.0-0.3-0.34-3.34,0,1,1,81,false,stim,false,1,558,1,0,0,72955,task3,220083,false,false,271,image-keyboard-response,11
true,2,2,2,2,true,d,false,true,0.0-2.0-0.3-0.35-3.35,0,1,1,68,false,stim,false,2,645,1,1,2,72955,task3,222251,false,false,274,image-keyboard-response,12
true,2,0,2,1,false,z,true,false,0.0-2.0-0.4-0.36-3.36,0,1,1,81,false,stim,false,1,626,1,1,1,72955,task3,224400,false,false,277,image-keyboard-response,13
true,2,0,2,0,true,q,false,true,0.0-2.0-0.4-0.37-3.37,0,1,1,81,false,stim,false,1,496,1,0,0,72955,task3,226420,false,false,280,image-keyboard-response,14
true,2,1,2,1,true,z,false,true,0.0-2.0-0.4-0.38-3.38,0,1,1,90,false,stim,false,1,418,1,1,1,72955,task3,228356,false,false,283,image-keyboard-response,15
true,2,0,2,0,true,q,false,true,0.0-2.0-0.4-0.39-3.39,0,1,1,81,false,stim,false,1,558,1,0,0,72955,task3,230444,false,false,286,image-keyboard-response,16
true,2,2,2,2,true,d,false,true,0.0-2.0-0.4-0.40-3.40,0,1,1,68,false,stim,false,2,502,1,1,2,72955,task3,232473,false,false,289,image-keyboard-response,17
true,2,2,2,2,true,d,false,true,0.0-2.0-0.4-0.41-3.41,0,1,1,68,false,stim,false,2,507,1,1,2,72955,task3,234493,false,false,292,image-keyboard-response,18
true,2,1,2,0,false,q,false,false,0.0-2.0-0.4-0.42-3.42,0,1,1,90,false,stim,true,1,771,1,0,0,72955,task3,236790,false,false,295,image-keyboard-response,19
true,2,2,2,2,true,d,false,true,0.0-2.0-0.4-0.43-3.43,0,1,1,68,false,stim,false,2,635,1,1,2,72955,task3,238936,false,false,298,image-keyboard-response,20
true,2,1,2,1,true,z,false,true,0.0-2.0-0.4-0.44-3.44,0,1,1,90,false,stim,false,1,647,1,1,1,72955,task3,241118,false,false,301,image-keyboard-response,21
true,2,2,2,2,true,d,false,true,0.0-2.0-0.5-0.45-3.45,0,1,1,68,false,stim,false,2,521,1,1,2,72955,task3,243171,false,false,304,image-keyboard-response,22
true,2,2,2,2,true,d,false,true,0.0-2.0-0.5-0.46-3.46,0,1,1,68,false,stim,false,2,526,1,1,2,72955,task3,245225,false,false,307,image-keyboard-response,23
true,2,0,2,1,false,z,true,false,0.0-2.0-0.5-0.47-3.47,0,1,1,81,false,stim,false,1,728,1,0,1,72955,task3,247476,false,false,310,image-keyboard-response,24
true,2,1,2,1,true,z,false,true,0.0-2.0-0.5-0.48-3.48,0,1,1,90,false,stim,false,1,496,1,0,1,72955,task3,249495,false,false,313,image-keyboard-response,25
true,2,2,2,2,true,d,false,true,0.0-2.0-0.5-0.49-3.49,0,1,1,68,false,stim,false,2,532,1,1,2,72955,task3,251531,false,false,316,image-keyboard-response,26
true,2,0,2,0,true,q,false,true,0.0-2.0-0.5-0.50-3.50,0,1,1,81,false,stim,false,1,759,1,0,0,72955,task3,253822,false,false,319,image-keyboard-response,27
true,2,0,2,0,true,q,false,false,0.0-2.0-0.5-0.51-3.51,0,1,1,81,false,stim,false,1,399,1,0,0,72955,task3,255745,false,true,322,image-keyboard-response,28
true,3,1,1,2,false,d,false,false,0.0-2.0-0.5-0.52-3.52,0,0,1,90,true,stim,true,1,646,1,0,1,72955,task3,257922,false,false,325,image-keyboard-response,1
true,3,1,1,1,true,z,false,true,0.0-2.0-0.5-0.53-3.53,0,0,1,90,false,stim,false,0,908,1,0,0,72955,task3,260354,false,false,328,image-keyboard-response,2
true,3,1,1,1,true,z,false,true,0.0-2.0-0.6-0.54-3.54,0,0,1,90,false,stim,false,0,676,1,0,0,72955,task3,262552,false,false,331,image-keyboard-response,3
true,3,0,1,2,false,d,true,false,0.0-2.0-0.6-0.55-3.55,0,0,1,81,false,stim,false,1,802,1,0,1,72955,task3,264878,false,false,334,image-keyboard-response,4
true,3,0,1,2,false,d,true,false,0.0-2.0-0.6-0.56-3.56,0,0,1,81,false,stim,false,2,385,1,1,2,72955,task3,266794,false,false,337,image-keyboard-response,5
true,3,1,1,1,true,z,false,true,0.0-2.0-0.6-0.57-3.57,0,0,1,90,false,stim,false,0,536,1,0,0,72955,task3,268844,false,false,340,image-keyboard-response,6
true,3,2,1,2,true,d,false,true,0.0-2.0-0.6-0.58-3.58,0,0,1,68,false,stim,false,2,613,1,1,2,72955,task3,270987,false,false,343,image-keyboard-response,7
true,3,2,1,2,true,d,false,true,0.0-2.0-0.6-0.59-3.59,0,0,1,68,false,stim,false,2,489,1,1,2,72955,task3,272995,false,false,346,image-keyboard-response,8
true,3,2,1,2,true,d,false,true,0.0-2.0-0.6-0.60-3.60,0,0,1,68,false,stim,false,1,468,1,0,1,72955,task3,274990,false,false,349,image-keyboard-response,9
true,3,1,1,1,true,z,false,true,0.0-2.0-0.6-0.61-3.61,0,0,1,90,false,stim,false,0,388,1,0,0,72955,task3,276910,false,false,352,image-keyboard-response,10
true,3,2,1,2,true,d,false,true,0.0-2.0-0.6-0.62-3.62,0,0,1,68,false,stim,false,1,549,1,1,1,72955,task3,278987,false,false,355,image-keyboard-response,11
true,3,1,1,1,true,z,false,true,0.0-2.0-0.7-0.63-3.63,0,0,1,90,false,stim,false,0,523,1,1,0,72955,task3,281027,false,false,358,image-keyboard-response,12
true,3,2,1,2,true,d,false,true,0.0-2.0-0.7-0.64-3.64,0,0,1,68,false,stim,false,2,469,1,0,2,72955,task3,283022,false,false,361,image-keyboard-response,13
true,3,2,1,2,true,d,false,true,0.0-2.0-0.7-0.65-3.65,0,0,1,68,false,stim,false,1,388,1,1,1,72955,task3,284941,false,false,364,image-keyboard-response,14
true,3,2,1,2,true,d,false,false,0.0-2.0-0.7-0.66-3.66,0,0,1,68,false,stim,false,1,513,1,1,1,72955,task3,286981,false,true,367,image-keyboard-response,15
true,4,2,2,1,false,z,false,false,0.0-2.0-0.7-0.67-3.67,1,1,0,68,true,stim,true,2,482,1,0,2,72955,task3,288983,false,false,370,image-keyboard-response,1
true,4,1,2,1,true,z,false,true,0.0-2.0-0.7-0.68-3.68,1,1,0,90,false,stim,false,1,432,1,1,0,72955,task3,290948,false,false,373,image-keyboard-response,2
true,4,2,2,1,false,z,false,false,0.0-2.0-0.7-0.69-3.69,1,1,0,68,false,stim,true,2,468,1,0,2,72955,task3,292948,false,false,376,image-keyboard-response,3
true,4,1,2,2,false,d,true,false,0.0-2.0-0.7-0.70-3.70,1,1,0,90,false,stim,false,2,762,1,1,1,72955,task3,295244,false,false,379,image-keyboard-response,4
true,4,1,2,1,true,z,false,true,0.0-2.0-0.7-0.71-3.71,1,1,0,90,false,stim,false,1,1080,1,1,0,72955,task3,297845,false,false,382,image-keyboard-response,5
true,4,0,2,1,false,z,true,false,0.0-2.0-0.8-0.72-3.72,1,1,0,81,false,stim,false,2,418,1,0,2,72955,task3,299782,false,false,385,image-keyboard-response,6
true,4,0,2,2,false,d,true,false,0.0-2.0-0.8-0.73-3.73,1,1,0,81,false,stim,false,2,776,1,1,1,72955,task3,302088,false,false,388,image-keyboard-response,7
true,4,2,2,1,false,z,false,false,0.0-2.0-0.8-0.74-3.74,1,1,0,68,false,stim,true,2,1209,1,0,2,72955,task3,304822,false,false,391,image-keyboard-response,8
true,4,1,2,1,true,z,false,true,0.0-2.0-0.8-0.75-3.75,1,1,0,90,false,stim,false,1,748,1,1,0,72955,task3,307093,false,false,394,image-keyboard-response,9
true,4,1,2,2,false,d,true,false,0.0-2.0-0.8-0.76-3.76,1,1,0,90,false,stim,false,2,552,1,1,1,72955,task3,309178,false,false,397,image-keyboard-response,10
true,4,1,2,1,true,z,false,true,0.0-2.0-0.8-0.77-3.77,1,1,0,90,false,stim,false,2,628,1,1,2,72955,task3,311338,false,false,400,image-keyboard-response,11
true,4,1,2,1,true,z,false,true,0.0-2.0-0.8-0.78-3.78,1,1,0,90,false,stim,false,1,472,1,0,0,72955,task3,313331,false,false,403,image-keyboard-response,12
true,4,1,2,1,true,z,false,true,0.0-2.0-0.8-0.79-3.79,1,1,0,90,false,stim,false,1,421,1,0,0,72955,task3,315279,false,false,406,image-keyboard-response,13
true,4,2,2,2,true,d,false,true,0.0-2.0-0.8-0.80-3.80,1,1,0,68,false,stim,false,2,567,1,1,1,72955,task3,317373,false,false,409,image-keyboard-response,14
true,5,1,2,1,true,z,false,true,0.0-2.0-0.9-0.81-3.81,0,1,1,90,true,stim,false,1,456,1,1,2,72955,task3,319364,false,false,412,image-keyboard-response,1
true,5,1,2,2,false,d,false,true,0.0-2.0-0.9-0.82-3.82,0,1,1,90,false,stim,true,1,503,1,0,0,72955,task3,321393,false,true,415,image-keyboard-response,2
true,5,2,2,2,true,d,false,true,0.0-2.0-0.9-0.83-3.83,0,1,1,68,false,stim,false,2,401,1,1,1,72955,task3,323324,false,false,418,image-keyboard-response,3
true,5,2,2,2,true,d,false,true,0.0-2.0-0.9-0.84-3.84,0,1,1,68,false,stim,false,2,526,1,1,1,72955,task3,325382,false,false,421,image-keyboard-response,4
true,5,2,2,2,true,d,false,true,0.0-2.0-0.9-0.85-3.85,0,1,1,68,false,stim,false,2,761,1,1,1,72955,task3,327665,false,false,424,image-keyboard-response,5
true,5,1,2,2,false,d,false,false,0.0-2.0-0.9-0.86-3.86,0,1,1,90,false,stim,true,1,504,1,0,0,72955,task3,329692,false,false,427,image-keyboard-response,6
true,5,1,2,2,false,d,false,false,0.0-2.0-0.9-0.87-3.87,0,1,1,90,false,stim,true,1,701,1,0,0,72955,task3,331919,false,false,430,image-keyboard-response,7
true,5,1,2,1,true,z,false,true,0.0-2.0-0.9-0.88-3.88,0,1,1,90,false,stim,false,1,654,1,1,2,72955,task3,334088,false,false,433,image-keyboard-response,8
true,5,1,2,1,true,z,false,true,0.0-2.0-0.9-0.89-3.89,0,1,1,90,false,stim,false,1,518,1,1,2,72955,task3,336138,false,false,436,image-keyboard-response,9
true,5,0,2,2,false,d,true,false,0.0-2.0-0.10-0.90-3.90,0,1,1,81,false,stim,false,1,484,1,0,0,72955,task3,338151,false,false,439,image-keyboard-response,10
true,5,1,2,1,true,z,false,true,0.0-2.0-0.10-0.91-3.91,0,1,1,90,false,stim,false,1,483,1,0,2,72955,task3,340167,false,false,442,image-keyboard-response,11
true,5,2,2,2,true,d,false,true,0.0-2.0-0.10-0.92-3.92,0,1,1,68,false,stim,false,1,863,1,1,0,72955,task3,342546,false,false,445,image-keyboard-response,12
true,5,0,2,2,false,d,true,false,0.0-2.0-0.10-0.93-3.93,0,1,1,81,false,stim,false,2,576,1,1,1,72955,task3,344641,false,false,448,image-keyboard-response,13
true,5,2,2,2,true,d,false,true,0.0-2.0-0.10-0.94-3.94,0,1,1,68,false,stim,false,1,627,1,1,0,72955,task3,346792,false,false,451,image-keyboard-response,14
true,5,1,2,1,true,z,false,true,0.0-2.0-0.10-0.95-3.95,0,1,1,90,false,stim,false,1,487,1,0,2,72955,task3,348802,false,false,454,image-keyboard-response,15
true,6,2,2,2,true,d,false,true,0.0-2.0-0.10-0.96-3.96,1,1,0,68,true,stim,false,2,379,1,1,1,72955,task3,350709,false,false,457,image-keyboard-response,1
true,6,1,2,0,false,q,false,false,0.0-2.0-0.10-0.97-3.97,1,1,0,90,false,stim,true,1,762,1,0,2,72955,task3,352991,false,false,460,image-keyboard-response,2
true,6,2,2,2,true,d,false,true,0.0-2.0-0.10-0.98-3.98,1,1,0,68,false,stim,false,2,644,1,1,1,72955,task3,355156,false,false,463,image-keyboard-response,3
true,6,2,2,2,true,d,false,false,0.0-2.0-0.11-0.99-3.99,1,1,0,68,false,stim,false,2,440,1,1,1,72955,task3,357119,false,true,466,image-keyboard-response,4
true,6,2,2,0,false,q,true,false,0.0-2.0-0.11-0.100-3.100,1,1,0,68,false,stim,false,1,763,1,0,2,72955,task3,359407,false,false,469,image-keyboard-response,5
true,6,2,2,2,true,d,false,true,0.0-2.0-0.11-0.101-3.101,1,1,0,68,false,stim,false,2,873,1,1,0,72955,task3,361799,false,false,472,image-keyboard-response,6
true,6,0,2,2,false,d,true,false,0.0-2.0-0.11-0.102-3.102,1,1,0,81,false,stim,false,2,1104,1,1,1,72955,task3,364429,false,false,475,image-keyboard-response,7
true,6,0,2,0,true,q,false,true,0.0-2.0-0.11-0.103-3.103,1,1,0,81,false,stim,false,1,453,1,0,2,72955,task3,366410,false,false,478,image-keyboard-response,8
true,6,2,2,2,true,d,false,false,0.0-2.0-0.11-0.104-3.104,1,1,0,68,false,stim,false,2,511,1,1,0,72955,task3,368451,false,true,481,image-keyboard-response,9
true,6,2,2,2,true,d,false,true,0.0-2.0-0.11-0.105-3.105,1,1,0,68,false,stim,false,2,653,1,1,1,72955,task3,370624,false,false,484,image-keyboard-response,10
true,6,0,2,0,true,q,false,true,0.0-2.0-0.11-0.106-3.106,1,1,0,81,false,stim,false,1,592,1,1,2,72955,task3,372747,false,false,487,image-keyboard-response,11
true,6,1,2,2,false,d,true,false,0.0-2.0-0.11-0.107-3.107,1,1,0,90,false,stim,false,2,468,1,0,0,72955,task3,374742,false,false,490,image-keyboard-response,12
true,6,0,2,0,true,q,false,true,0.0-2.0-0.12-0.108-3.108,1,1,0,81,false,stim,false,1,677,1,1,2,72955,task3,376949,false,false,493,image-keyboard-response,13
true,6,2,2,2,true,d,false,true,0.0-2.0-0.12-0.109-3.109,1,1,0,68,false,stim,false,2,544,1,1,1,72955,task3,379015,false,false,496,image-keyboard-response,14
true,6,2,2,2,true,d,false,true,0.0-2.0-0.12-0.110-3.110,1,1,0,68,false,stim,false,2,519,1,1,1,72955,task3,381054,false,false,499,image-keyboard-response,15
true,7,2,2,2,true,d,false,true,0.0-2.0-0.12-0.111-3.111,0,1,1,68,true,stim,false,2,488,1,1,1,72955,task3,383075,false,false,502,image-keyboard-response,1
true,7,0,2,0,true,q,false,true,0.0-2.0-0.12-0.112-3.112,0,1,1,81,false,stim,false,0,535,1,1,2,72955,task3,385136,false,false,505,image-keyboard-response,2
true,7,2,2,1,false,z,false,false,0.0-2.0-0.12-0.113-3.113,0,1,1,68,false,stim,true,2,659,1,0,0,72955,task3,387327,false,false,508,image-keyboard-response,3
true,7,2,2,0,false,q,true,false,0.0-2.0-0.12-0.114-3.114,0,1,1,68,false,stim,false,0,652,1,1,2,72955,task3,389502,false,false,511,image-keyboard-response,4
true,7,1,2,1,true,z,false,true,0.0-2.0-0.12-0.115-3.115,0,1,1,90,false,stim,false,2,844,1,0,0,72955,task3,391877,false,false,514,image-keyboard-response,5
true,7,1,2,1,true,z,false,true,0.0-2.0-0.12-0.116-3.116,0,1,1,90,false,stim,false,2,546,1,0,0,72955,task3,393943,false,false,517,image-keyboard-response,6
true,7,0,2,0,true,q,false,false,0.0-2.0-0.13-0.117-3.117,0,1,1,81,false,stim,false,0,494,1,1,2,72955,task3,395958,false,true,520,image-keyboard-response,7
true,7,2,2,2,true,d,false,false,0.0-2.0-0.13-0.118-3.118,0,1,1,68,false,stim,false,2,665,1,1,1,72955,task3,398146,false,true,523,image-keyboard-response,8
true,7,0,2,2,false,d,true,false,0.0-2.0-0.13-0.119-3.119,0,1,1,81,false,stim,false,2,991,1,1,1,72955,task3,400670,false,false,526,image-keyboard-response,9
true,7,1,2,1,true,z,false,true,0.0-2.0-0.13-0.120-3.120,0,1,1,90,false,stim,false,2,652,1,1,0,72955,task3,402848,false,false,529,image-keyboard-response,10
true,7,2,2,0,false,q,true,true,0.0-2.0-0.13-0.121-3.121,0,1,1,68,false,stim,false,0,690,1,1,2,72955,task3,405068,false,true,532,image-keyboard-response,11
true,7,2,2,0,false,q,true,false,0.0-2.0-0.13-0.122-3.122,0,1,1,68,false,stim,false,0,493,1,1,2,72955,task3,407088,false,false,535,image-keyboard-response,12
true,7,1,2,1,true,z,false,true,0.0-2.0-0.13-0.123-3.123,0,1,1,90,false,stim,false,2,692,1,1,0,72955,task3,409302,false,false,538,image-keyboard-response,13
true,7,1,2,2,false,d,true,false,0.0-2.0-0.13-0.124-3.124,0,1,1,90,false,stim,false,2,456,1,0,1,72955,task3,411282,false,false,541,image-keyboard-response,14
true,8,1,2,1,true,z,false,true,0.0-2.0-0.13-0.125-3.125,1,0,1,90,true,stim,false,1,511,1,1,0,72955,task3,413321,false,false,544,image-keyboard-response,1
true,8,0,2,0,true,q,false,true,0.0-2.0-0.14-0.126-3.126,1,0,1,81,false,stim,false,0,717,1,1,2,72955,task3,415559,false,false,547,image-keyboard-response,2
true,8,2,2,0,false,q,false,false,0.0-2.0-0.14-0.127-3.127,1,0,1,68,false,stim,true,2,433,1,0,1,72955,task3,417524,false,false,550,image-keyboard-response,3
true,8,0,2,0,true,q,false,true,0.0-2.0-0.14-0.128-3.128,1,0,1,81,false,stim,false,0,683,1,1,2,72955,task3,419740,false,false,553,image-keyboard-response,4
true,8,1,2,1,true,z,false,true,0.0-2.0-0.14-0.129-3.129,1,0,1,90,false,stim,false,1,545,1,1,0,72955,task3,421818,false,false,556,image-keyboard-response,5
true,8,0,2,0,true,q,false,true,0.0-2.0-0.14-0.130-3.130,1,0,1,81,false,stim,false,2,434,1,0,1,72955,task3,423772,false,false,559,image-keyboard-response,6
true,8,0,2,0,true,q,false,true,0.0-2.0-0.14-0.131-3.131,1,0,1,81,false,stim,false,0,495,1,1,2,72955,task3,425800,false,false,562,image-keyboard-response,7
true,8,0,2,0,true,q,false,true,0.0-2.0-0.14-0.132-3.132,1,0,1,81,false,stim,false,2,687,1,0,1,72955,task3,428005,false,false,565,image-keyboard-response,8
true,8,1,2,1,true,z,false,false,0.0-2.0-0.14-0.133-3.133,1,0,1,90,false,stim,false,1,403,1,1,0,72955,task3,429939,false,true,568,image-keyboard-response,9
true,8,2,2,1,false,z,true,false,0.0-2.0-0.14-0.134-3.134,1,0,1,68,false,stim,false,1,783,1,1,0,72955,task3,432252,false,false,571,image-keyboard-response,10
true,8,0,2,1,false,z,true,false,0.0-2.0-0.15-0.135-3.135,1,0,1,81,false,stim,false,1,478,1,1,0,72955,task3,434263,false,false,574,image-keyboard-response,11
true,8,0,2,0,true,q,false,true,0.0-2.0-0.15-0.136-3.136,1,0,1,81,false,stim,false,2,571,1,0,1,72955,task3,436355,false,false,577,image-keyboard-response,12
true,8,0,2,0,true,q,false,true,0.0-2.0-0.15-0.137-3.137,1,0,1,81,false,stim,false,0,502,1,1,2,72955,task3,438386,false,false,580,image-keyboard-response,13
true,8,0,2,0,true,q,false,true,0.0-2.0-0.15-0.138-3.138,1,0,1,81,false,stim,false,0,763,1,1,2,72955,task3,440678,false,false,583,image-keyboard-response,14
true,8,1,2,1,true,z,false,false,0.0-2.0-0.15-0.139-3.139,1,0,1,90,false,stim,false,1,377,1,1,0,72955,task3,442576,false,true,586,image-keyboard-response,15
true,8,0,2,0,true,q,false,true,0.0-2.0-0.15-0.140-3.140,1,0,1,81,false,stim,false,2,524,1,0,1,72955,task3,444621,false,false,589,image-keyboard-response,16
true,8,0,2,0,true,q,false,true,0.0-2.0-0.15-0.141-3.141,1,0,1,81,false,stim,false,2,358,1,0,1,72955,task3,446507,false,false,592,image-keyboard-response,17
true,8,0,2,1,false,z,true,false,0.0-2.0-0.15-0.142-3.142,1,0,1,81,false,stim,false,1,400,1,1,0,72955,task3,448430,false,false,595,image-keyboard-response,18
true,8,0,2,0,true,q,false,true,0.0-2.0-0.15-0.143-3.143,1,0,1,81,false,stim,false,0,665,1,1,2,72955,task3,450626,false,false,598,image-keyboard-response,19
true,8,0,2,0,true,q,false,true,0.0-2.0-0.16-0.144-3.144,1,0,1,81,false,stim,false,2,593,1,0,1,72955,task3,452748,false,false,601,image-keyboard-response,20
true,8,0,2,0,true,q,false,true,0.0-2.0-0.16-0.145-3.145,1,0,1,81,false,stim,false,2,427,1,0,1,72955,task3,454701,false,false,604,image-keyboard-response,21
true,8,2,2,1,false,z,true,false,0.0-2.0-0.16-0.146-3.146,1,0,1,68,false,stim,false,1,428,1,1,0,72955,task3,456639,false,false,607,image-keyboard-response,22
true,8,0,2,0,true,q,false,true,0.0-2.0-0.16-0.147-3.147,1,0,1,81,false,stim,false,0,607,1,1,2,72955,task3,458768,false,false,610,image-keyboard-response,23
true,8,0,2,0,true,q,false,true,0.0-2.0-0.16-0.148-3.148,1,0,1,81,false,stim,false,2,435,1,0,1,72955,task3,460729,false,false,613,image-keyboard-response,24
true,8,0,2,0,true,q,false,true,0.0-2.0-0.16-0.149-3.149,1,0,1,81,false,stim,false,0,405,1,1,2,72955,task3,462663,false,false,616,image-keyboard-response,25
true,8,0,2,0,true,q,false,true,0.0-2.0-0.16-0.150-3.150,1,0,1,81,false,stim,false,0,434,1,1,2,72955,task3,464627,false,false,619,image-keyboard-response,26
true,8,1,2,1,true,z,false,true,0.0-2.0-0.16-0.151-3.151,1,0,1,90,false,stim,false,1,456,1,0,0,72955,task3,466611,false,false,622,image-keyboard-response,27
true,8,1,2,1,true,z,false,true,0.0-2.0-0.16-0.152-3.152,1,0,1,90,false,stim,false,1,446,1,0,0,72955,task3,468586,false,false,625,image-keyboard-response,28
true,8,1,2,1,true,z,false,true,0.0-2.0-0.17-0.153-3.153,1,0,1,90,false,stim,false,1,398,1,0,0,72955,task3,470503,false,false,628,image-keyboard-response,29
true,9,0,1,0,true,q,false,true,0.0-2.0-0.17-0.154-3.154,0,0,1,81,true,stim,false,0,502,1,1,2,72955,task3,472525,false,false,631,image-keyboard-response,1
true,9,1,1,2,false,d,false,false,0.0-2.0-0.17-0.155-3.155,0,0,1,90,false,stim,true,1,513,1,0,0,72955,task3,474572,false,false,634,image-keyboard-response,2
true,9,1,1,2,false,d,false,false,0.0-2.0-0.17-0.156-3.156,0,0,1,90,false,stim,true,1,633,1,0,0,72955,task3,476737,false,false,637,image-keyboard-response,3
true,9,0,1,0,true,q,false,true,0.0-2.0-0.17-0.157-3.157,0,0,1,81,false,stim,false,0,510,1,1,2,72955,task3,478776,false,false,640,image-keyboard-response,4
true,9,0,1,1,false,z,false,false,0.0-2.0-0.17-0.158-3.158,0,0,1,81,false,stim,true,0,634,1,0,1,72955,task3,480920,false,false,643,image-keyboard-response,5
true,9,2,1,1,false,z,true,false,0.0-2.0-0.17-0.159-3.159,0,0,1,68,false,stim,false,0,554,1,0,1,72955,task3,483005,false,false,646,image-keyboard-response,6
true,9,0,1,0,true,q,false,true,0.0-2.0-0.17-0.160-3.160,0,0,1,81,false,stim,false,0,590,1,0,2,72955,task3,485125,false,false,649,image-keyboard-response,7
true,9,1,1,1,true,z,false,true,0.0-2.0-0.17-0.161-3.161,0,0,1,90,false,stim,false,0,421,1,1,1,72955,task3,487073,false,false,652,image-keyboard-response,8
true,9,0,1,0,true,q,false,true,0.0-2.0-0.18-0.162-3.162,0,0,1,81,false,stim,false,0,638,1,0,2,72955,task3,489239,false,false,655,image-keyboard-response,9
true,9,2,1,2,true,d,false,true,0.0-2.0-0.18-0.163-3.163,0,0,1,68,false,stim,false,1,610,1,1,0,72955,task3,491377,false,false,658,image-keyboard-response,10
true,9,2,1,2,true,d,false,true,0.0-2.0-0.18-0.164-3.164,0,0,1,68,false,stim,false,1,407,1,1,0,72955,task3,493304,false,false,661,image-keyboard-response,11
true,10,1,2,1,true,z,false,true,0.0-2.0-0.18-0.165-3.165,1,1,0,90,true,stim,false,1,953,1,1,1,72955,task3,495783,false,false,664,image-keyboard-response,1
true,10,1,2,1,true,z,false,true,0.0-2.0-0.18-0.166-3.166,1,1,0,90,false,stim,false,1,469,1,1,1,72955,task3,497783,false,false,667,image-keyboard-response,2
true,10,0,2,1,false,z,false,false,0.0-2.0-0.18-0.167-3.167,1,1,0,81,false,stim,true,0,917,1,0,2,72955,task3,500231,false,false,670,image-keyboard-response,3
true,10,1,2,1,true,z,false,true,0.0-2.0-0.18-0.168-3.168,1,1,0,90,false,stim,false,1,540,1,1,1,72955,task3,502302,false,false,673,image-keyboard-response,4
true,10,2,2,2,true,d,false,true,0.0-2.0-0.18-0.169-3.169,1,1,0,68,false,stim,false,2,518,1,1,0,72955,task3,504347,false,false,676,image-keyboard-response,5
true,10,2,2,1,false,z,true,false,0.0-2.0-0.18-0.170-3.170,1,1,0,68,false,stim,false,0,408,1,0,2,72955,task3,506285,false,false,679,image-keyboard-response,6
true,10,2,2,2,true,d,false,true,0.0-2.0-0.19-0.171-3.171,1,1,0,68,false,stim,false,2,641,1,1,0,72955,task3,508449,false,false,682,image-keyboard-response,7
true,10,2,2,2,true,d,false,false,0.0-2.0-0.19-0.172-3.172,1,1,0,68,false,stim,false,2,422,1,1,0,72955,task3,510399,false,true,685,image-keyboard-response,8
true,10,1,2,1,true,z,false,true,0.0-2.0-0.19-0.173-3.173,1,1,0,90,false,stim,false,0,442,1,0,2,72955,task3,512368,false,false,688,image-keyboard-response,9
true,10,2,2,2,true,d,false,true,0.0-2.0-0.19-0.174-3.174,1,1,0,68,false,stim,false,2,556,1,1,0,72955,task3,514447,false,false,691,image-keyboard-response,10
true,10,1,2,1,true,z,false,true,0.0-2.0-0.19-0.175-3.175,1,1,0,90,false,stim,false,0,558,1,0,2,72955,task3,516531,false,false,694,image-keyboard-response,11
true,10,1,2,1,true,z,false,false,0.0-2.0-0.19-0.176-3.176,1,1,0,90,false,stim,false,1,414,1,1,1,72955,task3,518470,false,true,697,image-keyboard-response,12
true,10,1,2,1,true,z,false,true,0.0-2.0-0.19-0.177-3.177,1,1,0,90,false,stim,false,0,550,1,0,2,72955,task3,520539,false,false,700,image-keyboard-response,13
true,10,1,2,1,true,z,false,true,0.0-2.0-0.19-0.178-3.178,1,1,0,90,false,stim,false,1,585,1,1,1,72955,task3,522658,false,false,703,image-keyboard-response,14
true,10,1,2,1,true,z,false,false,0.0-2.0-0.19-0.179-3.179,1,1,0,90,false,stim,false,1,455,1,1,1,72955,task3,524642,false,true,706,image-keyboard-response,15
true,10,1,2,1,true,z,false,true,0.0-2.0-0.20-0.180-3.180,1,1,0,90,false,stim,false,1,452,1,1,1,72955,task3,526622,false,false,709,image-keyboard-response,16
true,10,2,2,1,false,z,true,false,0.0-2.0-0.20-0.181-3.181,1,1,0,68,false,stim,false,0,554,1,0,2,72955,task3,528709,false,false,712,image-keyboard-response,17
true,10,2,2,2,true,d,false,true,0.0-2.0-0.20-0.182-3.182,1,1,0,68,false,stim,false,2,371,1,1,0,72955,task3,530606,false,false,715,image-keyboard-response,18
true,10,1,2,1,true,z,false,true,0.0-2.0-0.20-0.183-3.183,1,1,0,90,false,stim,false,1,604,1,1,1,72955,task3,532741,false,false,718,image-keyboard-response,19
true,10,1,2,1,true,z,false,true,0.0-2.0-0.20-0.184-3.184,1,1,0,90,false,stim,false,0,401,1,0,2,72955,task3,534668,false,false,721,image-keyboard-response,20
true,10,2,2,2,true,d,false,true,0.0-2.0-0.20-0.185-3.185,1,1,0,68,false,stim,false,2,681,1,1,0,72955,task3,536881,false,false,724,image-keyboard-response,21
true,10,2,2,2,true,d,false,true,0.0-2.0-0.20-0.186-3.186,1,1,0,68,false,stim,false,2,490,1,1,0,72955,task3,538888,false,false,727,image-keyboard-response,22
true,10,1,2,1,true,z,false,true,0.0-2.0-0.20-0.187-3.187,1,1,0,90,false,stim,false,1,554,1,1,1,72955,task3,540971,false,false,730,image-keyboard-response,23
true,10,1,2,1,true,z,false,true,0.0-2.0-0.20-0.188-3.188,1,1,0,90,false,stim,false,0,460,1,0,2,72955,task3,542959,false,false,733,image-keyboard-response,24
true,10,1,2,1,true,z,false,true,0.0-2.0-0.21-0.189-3.189,1,1,0,90,false,stim,false,0,451,1,0,2,72955,task3,544931,false,false,736,image-keyboard-response,25
true,10,1,2,1,true,z,false,true,0.0-2.0-0.21-0.190-3.190,1,1,0,90,false,stim,false,1,474,1,1,1,72955,task3,546938,false,false,739,image-keyboard-response,26
true,10,1,2,1,true,z,false,true,0.0-2.0-0.21-0.191-3.191,1,1,0,90,false,stim,false,0,600,1,0,2,72955,task3,549062,false,false,742,image-keyboard-response,27
true,10,2,2,2,true,d,false,true,0.0-2.0-0.21-0.192-3.192,1,1,0,68,false,stim,false,2,541,1,1,0,72955,task3,551139,false,false,745,image-keyboard-response,28
true,11,1,2,2,false,d,false,false,0.0-2.0-0.21-0.193-3.193,1,1,0,90,true,stim,true,1,716,1,0,2,72955,task3,553379,false,false,748,image-keyboard-response,1
true,11,2,2,2,true,d,false,true,0.0-2.0-0.21-0.194-3.194,1,1,0,68,false,stim,false,2,1413,1,1,0,72955,task3,556325,false,false,751,image-keyboard-response,2
true,11,1,2,1,true,z,false,true,0.0-2.0-0.21-0.195-3.195,1,1,0,90,false,stim,false,1,469,1,1,1,72955,task3,558329,false,false,754,image-keyboard-response,3
true,11,2,2,2,true,d,false,true,0.0-2.0-0.21-0.196-3.196,1,1,0,68,false,stim,false,2,594,1,1,0,72955,task3,560450,false,false,757,image-keyboard-response,4
true,11,1,2,1,true,z,false,true,0.0-2.0-0.21-0.197-3.197,1,1,0,90,false,stim,false,1,882,1,1,1,72955,task3,562842,false,false,760,image-keyboard-response,5
true,11,1,2,2,false,d,false,false,0.0-2.0-0.22-0.198-3.198,1,1,0,90,false,stim,true,1,646,1,0,2,72955,task3,565021,false,false,763,image-keyboard-response,6
true,11,1,2,1,true,z,false,true,0.0-2.0-0.22-0.199-3.199,1,1,0,90,false,stim,false,1,765,1,1,1,72955,task3,567307,false,false,766,image-keyboard-response,7
false,11,-1,2,2,false,d,true,false,0.0-2.0-0.22-0.200-3.200,1,1,0,,false,stim,false,2,,1,1,0,72955,task3,571849,false,false,769,image-keyboard-response,8
true,11,2,2,2,true,d,false,true,0.0-2.0-0.22-0.201-3.201,1,1,0,68,false,stim,false,2,703,1,1,0,72955,task3,574077,false,false,772,image-keyboard-response,9
true,11,1,2,1,true,z,false,true,0.0-2.0-0.22-0.202-3.202,1,1,0,90,false,stim,false,1,718,1,0,1,72955,task3,576336,false,false,775,image-keyboard-response,10
true,11,2,2,2,true,d,false,true,0.0-2.0-0.22-0.203-3.203,1,1,0,68,false,stim,false,2,744,1,1,0,72955,task3,578617,false,false,778,image-keyboard-response,11
true,11,2,2,1,false,z,true,false,0.0-2.0-0.22-0.204-3.204,1,1,0,68,false,stim,false,1,801,1,0,1,72955,task3,580949,false,false,781,image-keyboard-response,12
true,11,1,2,2,false,d,false,false,0.0-2.0-0.22-0.205-3.205,1,1,0,90,false,stim,true,1,1107,1,1,2,72955,task3,583584,false,false,784,image-keyboard-response,13
true,12,0,2,2,false,d,true,false,0.0-2.0-0.22-0.206-3.206,1,0,1,81,true,stim,false,2,717,1,1,2,72955,task3,585835,false,false,787,image-keyboard-response,1
true,12,2,2,2,true,d,false,true,0.0-2.0-0.23-0.207-3.207,1,0,1,68,false,stim,false,2,608,1,1,0,72955,task3,587976,false,false,790,image-keyboard-response,2
true,12,2,2,2,true,d,false,true,0.0-2.0-0.23-0.208-3.208,1,0,1,68,false,stim,false,2,674,1,1,2,72955,task3,590178,false,false,793,image-keyboard-response,3
true,12,2,2,2,true,d,false,true,0.0-2.0-0.23-0.209-3.209,1,0,1,68,false,stim,false,2,677,1,1,0,72955,task3,592374,false,false,796,image-keyboard-response,4
true,12,2,2,2,true,d,false,true,0.0-2.0-0.23-0.210-3.210,1,0,1,68,false,stim,false,2,680,1,1,2,72955,task3,594589,false,false,799,image-keyboard-response,5
true,12,2,2,2,true,d,false,true,0.0-2.0-0.23-0.211-3.211,1,0,1,68,false,stim,false,2,740,1,1,0,72955,task3,596867,false,false,802,image-keyboard-response,6
true,12,1,2,0,false,q,false,false,0.0-2.0-0.23-0.212-3.212,1,0,1,90,false,stim,true,1,1071,1,0,1,72955,task3,599481,false,false,805,image-keyboard-response,7
true,12,1,2,0,false,q,false,false,0.0-2.0-0.23-0.213-3.213,1,0,1,90,false,stim,true,1,599,1,0,1,72955,task3,601618,false,false,808,image-keyboard-response,8
true,12,2,2,2,true,d,false,true,0.0-2.0-0.23-0.214-3.214,1,0,1,68,false,stim,false,2,516,1,1,2,72955,task3,603675,false,false,811,image-keyboard-response,9
true,12,0,2,0,true,q,false,true,0.0-2.0-0.23-0.215-3.215,1,0,1,81,false,stim,false,1,594,1,0,1,72955,task3,605775,false,false,814,image-keyboard-response,10
true,12,0,2,0,true,q,false,false,0.0-2.0-0.24-0.216-3.216,1,0,1,81,false,stim,false,1,1479,1,0,1,72955,task3,608767,false,true,817,image-keyboard-response,11
true,12,2,2,2,true,d,false,true,0.0-2.0-0.24-0.217-3.217,1,0,1,68,false,stim,false,2,930,1,1,2,72955,task3,611239,false,false,820,image-keyboard-response,12
true,12,0,2,0,true,q,false,false,0.0-2.0-0.24-0.218-3.218,1,0,1,81,false,stim,false,1,1032,1,0,1,72955,task3,613783,false,true,823,image-keyboard-response,13
true,12,2,2,2,true,d,false,true,0.0-2.0-0.24-0.219-3.219,1,0,1,68,false,stim,false,2,755,1,1,0,72955,task3,616048,false,false,826,image-keyboard-response,14
true,12,2,2,2,true,d,false,true,0.0-2.0-0.24-0.220-3.220,1,0,1,68,false,stim,false,2,882,1,1,2,72955,task3,618461,false,false,829,image-keyboard-response,15
true,12,2,2,2,true,d,false,true,0.0-2.0-0.24-0.221-3.221,1,0,1,68,false,stim,false,2,1724,1,1,2,72955,task3,621711,false,false,832,image-keyboard-response,16
true,12,2,2,0,false,q,true,true,0.0-2.0-0.24-0.222-3.222,1,0,1,68,false,stim,false,1,2926,1,0,1,72955,task3,626154,false,true,835,image-keyboard-response,17
true,12,2,2,2,true,d,false,true,0.0-2.0-0.24-0.223-3.223,1,0,1,68,false,stim,false,2,684,1,1,0,72955,task3,628365,false,false,838,image-keyboard-response,18
true,12,2,2,2,true,d,false,true,0.0-2.0-0.24-0.224-3.224,1,0,1,68,false,stim,false,2,670,1,1,0,72955,task3,630547,false,false,841,image-keyboard-response,19
true,12,1,2,0,false,q,false,true,0.0-2.0-0.25-0.225-3.225,1,0,1,90,false,stim,true,1,1174,1,0,1,72955,task3,633238,false,true,844,image-keyboard-response,20
true,12,1,2,0,false,q,false,false,0.0-2.0-0.25-0.226-3.226,1,0,1,90,false,stim,true,1,496,1,0,1,72955,task3,635255,false,false,847,image-keyboard-response,21
true,12,2,2,2,true,d,false,true,0.0-2.0-0.25-0.227-3.227,1,0,1,68,false,stim,false,2,825,1,0,0,72955,task3,637604,false,false,850,image-keyboard-response,22
true,12,2,2,2,true,d,false,true,0.0-2.0-0.25-0.228-3.228,1,0,1,68,false,stim,false,2,555,1,0,0,72955,task3,639693,false,false,853,image-keyboard-response,23
true,12,2,2,2,true,d,false,true,0.0-2.0-0.25-0.229-3.229,1,0,1,68,false,stim,false,2,1237,1,1,2,72955,task3,642445,false,false,856,image-keyboard-response,24
true,12,2,2,2,true,d,false,true,0.0-2.0-0.25-0.230-3.230,1,0,1,68,false,stim,false,2,740,1,1,2,72955,task3,644709,false,false,859,image-keyboard-response,25
true,13,1,1,2,false,d,true,false,0.0-2.0-0.25-0.231-3.231,0,0,1,90,true,stim,false,0,941,1,0,1,72955,task3,647181,false,false,862,image-keyboard-response,1
true,13,2,1,2,true,d,false,false,0.0-2.0-0.25-0.232-3.232,0,0,1,68,false,stim,false,2,434,1,1,2,72955,task3,649144,false,true,865,image-keyboard-response,2
true,13,1,1,0,false,q,true,false,0.0-2.0-0.25-0.233-3.233,0,0,1,90,false,stim,false,2,812,1,0,0,72955,task3,651492,false,false,868,image-keyboard-response,3
true,13,0,1,0,true,q,false,true,0.0-2.0-0.26-0.234-3.234,0,0,1,81,false,stim,false,2,528,1,0,0,72955,task3,653548,false,false,871,image-keyboard-response,4
true,13,0,1,2,false,d,false,true,0.0-2.0-0.26-0.235-3.235,0,0,1,81,false,stim,true,0,1591,1,0,1,72955,task3,656671,false,true,874,image-keyboard-response,5
true,13,1,1,2,false,d,true,false,0.0-2.0-0.26-0.236-3.236,0,0,1,90,false,stim,false,2,991,1,1,2,72955,task3,659192,false,false,877,image-keyboard-response,6
true,13,0,1,0,true,q,false,true,0.0-2.0-0.26-0.237-3.237,0,0,1,81,false,stim,false,2,414,1,0,0,72955,task3,661134,false,false,880,image-keyboard-response,7
true,13,2,1,2,true,d,false,true,0.0-2.0-0.26-0.238-3.238,0,0,1,68,false,stim,false,2,457,1,1,2,72955,task3,663106,false,false,883,image-keyboard-response,8
true,13,0,1,2,false,d,false,false,0.0-2.0-0.26-0.239-3.239,0,0,1,81,false,stim,true,0,662,1,0,1,72955,task3,665303,false,false,886,image-keyboard-response,9
true,13,0,1,2,false,d,false,false,0.0-2.0-0.26-0.240-3.240,0,0,1,81,false,stim,true,0,481,1,0,1,72955,task3,667311,false,false,889,image-keyboard-response,10
true,13,0,1,0,true,q,false,false,0.0-2.0-0.26-0.241-3.241,0,0,1,81,false,stim,false,2,937,1,0,0,72955,task3,669773,false,true,892,image-keyboard-response,11
true,13,2,1,2,true,d,false,true,0.0-2.0-0.26-0.242-3.242,0,0,1,68,false,stim,false,2,571,1,1,2,72955,task3,671861,false,false,895,image-keyboard-response,12
true,13,1,1,2,false,d,true,false,0.0-2.0-0.27-0.243-3.243,0,0,1,90,false,stim,false,0,619,1,0,1,72955,task3,674008,false,false,898,image-keyboard-response,13
true,13,1,1,0,false,q,true,false,0.0-2.0-0.27-0.244-3.244,0,0,1,90,false,stim,false,2,673,1,0,0,72955,task3,676217,false,false,901,image-keyboard-response,14
true,13,2,1,2,true,d,false,true,0.0-2.0-0.27-0.245-3.245,0,0,1,68,false,stim,false,2,429,1,1,2,72955,task3,678169,false,false,904,image-keyboard-response,15
true,13,2,1,2,true,d,false,true,0.0-2.0-0.27-0.246-3.246,0,0,1,68,false,stim,false,2,428,1,1,2,72955,task3,680119,false,false,907,image-keyboard-response,16
true,13,2,1,2,true,d,false,true,0.0-2.0-0.27-0.247-3.247,0,0,1,68,false,stim,false,2,448,1,1,2,72955,task3,682106,false,false,910,image-keyboard-response,17
true,13,2,1,2,true,d,false,true,0.0-2.0-0.27-0.248-3.248,0,0,1,68,false,stim,false,0,582,1,0,1,72955,task3,684223,false,false,913,image-keyboard-response,18
true,13,2,1,0,false,q,false,false,0.0-2.0-0.27-0.249-3.249,0,0,1,68,false,stim,true,2,368,1,0,0,72955,task3,686109,false,false,916,image-keyboard-response,19
true,13,2,1,2,true,d,false,true,0.0-2.0-0.27-0.250-3.250,0,0,1,68,false,stim,false,0,415,1,0,1,72955,task3,688043,false,false,919,image-keyboard-response,20
true,13,0,1,0,true,q,false,true,0.0-2.0-0.27-0.251-3.251,0,0,1,81,false,stim,false,2,690,1,0,0,72955,task3,690250,false,false,922,image-keyboard-response,21
true,13,2,1,2,true,d,false,true,0.0-2.0-0.28-0.252-3.252,0,0,1,68,false,stim,false,2,437,1,1,2,72955,task3,692218,false,false,925,image-keyboard-response,22
true,13,2,1,2,true,d,false,true,0.0-2.0-0.28-0.253-3.253,0,0,1,68,false,stim,false,0,632,1,0,1,72955,task3,694392,false,false,928,image-keyboard-response,23
true,13,2,1,2,true,d,false,true,0.0-2.0-0.28-0.254-3.254,0,0,1,68,false,stim,false,0,383,1,0,1,72955,task3,696313,false,false,931,image-keyboard-response,24
true,14,2,1,2,true,d,false,true,0.0-2.0-0.28-0.255-3.255,0,0,1,68,true,stim,false,2,714,1,1,2,72955,task3,698552,false,false,934,image-keyboard-response,1
true,14,2,1,0,false,q,false,false,0.0-2.0-0.28-0.256-3.256,0,0,1,68,false,stim,true,2,448,1,0,1,72955,task3,700529,false,false,937,image-keyboard-response,2
true,14,0,1,1,false,z,false,true,0.0-2.0-0.28-0.257-3.257,0,0,1,81,false,stim,true,0,510,1,0,0,72955,task3,702575,false,true,940,image-keyboard-response,3
true,14,0,1,1,false,z,false,false,0.0-2.0-0.28-0.258-3.258,0,0,1,81,false,stim,true,0,508,1,0,0,72955,task3,704595,false,false,943,image-keyboard-response,4
true,14,0,1,1,false,z,false,false,0.0-2.0-0.28-0.259-3.259,0,0,1,81,false,stim,true,0,448,1,0,0,72955,task3,706569,false,false,946,image-keyboard-response,5
true,14,2,1,2,true,d,false,true,0.0-2.0-0.28-0.260-3.260,0,0,1,68,false,stim,false,2,503,1,1,2,72955,task3,708604,false,false,949,image-keyboard-response,6
true,14,2,1,2,true,d,false,true,0.0-2.0-0.29-0.261-3.261,0,0,1,68,false,stim,false,2,568,1,1,2,72955,task3,710709,false,false,952,image-keyboard-response,7
true,14,1,1,1,true,z,false,true,0.0-2.0-0.29-0.262-3.262,0,0,1,90,false,stim,false,0,770,1,0,0,72955,task3,713012,false,false,955,image-keyboard-response,8
true,14,2,1,2,true,d,false,true,0.0-2.0-0.29-0.263-3.263,0,0,1,68,false,stim,false,2,632,1,1,2,72955,task3,715163,false,false,958,image-keyboard-response,9
true,14,2,1,2,true,d,false,true,0.0-2.0-0.29-0.264-3.264,0,0,1,68,false,stim,false,2,446,1,1,2,72955,task3,717125,false,false,961,image-keyboard-response,10
true,14,1,1,1,true,z,false,true,0.0-2.0-0.29-0.265-3.265,0,0,1,90,false,stim,false,0,1257,1,0,0,72955,task3,719919,false,false,964,image-keyboard-response,11
true,14,2,1,0,false,q,false,false,0.0-2.0-0.29-0.266-3.266,0,0,1,68,false,stim,true,2,1270,1,0,1,72955,task3,722723,false,false,967,image-keyboard-response,12
true,14,1,1,0,false,q,true,false,0.0-2.0-0.29-0.267-3.267,0,0,1,90,false,stim,false,2,1534,1,0,1,72955,task3,725796,false,false,970,image-keyboard-response,13
true,14,1,1,1,true,z,false,true,0.0-2.0-0.29-0.268-3.268,0,0,1,90,false,stim,false,0,1116,1,0,0,72955,task3,728432,false,false,973,image-keyboard-response,14
true,14,0,1,0,true,q,false,false,0.0-2.0-0.29-0.269-3.269,0,0,1,81,false,stim,false,2,1268,1,0,1,72955,task3,731239,false,true,976,image-keyboard-response,15
true,14,2,1,0,false,q,false,false,0.0-2.0-0.30-0.270-3.270,0,0,1,68,false,stim,true,2,667,1,0,1,72955,task3,733439,false,false,979,image-keyboard-response,16
true,14,1,1,0,false,q,true,true,0.0-2.0-0.30-0.271-3.271,0,0,1,90,false,stim,false,2,1020,1,0,1,72955,task3,735992,false,true,982,image-keyboard-response,17
true,14,1,1,1,true,z,false,true,0.0-2.0-0.30-0.272-3.272,0,0,1,90,false,stim,false,0,1038,1,0,0,72955,task3,738551,false,false,985,image-keyboard-response,18
true,14,1,1,1,true,z,false,true,0.0-2.0-0.30-0.273-3.273,0,0,1,90,false,stim,false,0,996,1,0,0,72955,task3,741064,false,false,988,image-keyboard-response,19
true,14,1,1,1,true,z,false,true,0.0-2.0-0.30-0.274-3.274,0,0,1,90,false,stim,false,0,971,1,0,0,72955,task3,743573,false,false,991,image-keyboard-response,20
true,14,2,1,2,true,d,false,true,0.0-2.0-0.30-0.275-3.275,0,0,1,68,false,stim,false,2,920,1,0,2,72955,task3,746024,false,false,994,image-keyboard-response,21
true,14,2,1,2,true,d,false,true,0.0-2.0-0.30-0.276-3.276,0,0,1,68,false,stim,false,2,601,1,0,2,72955,task3,748149,false,false,997,image-keyboard-response,22
true,14,2,1,2,true,d,false,true,0.0-2.0-0.30-0.277-3.277,0,0,1,68,false,stim,false,2,485,1,0,2,72955,task3,750168,false,false,1000,image-keyboard-response,23
true,14,1,1,0,false,q,true,false,0.0-2.0-0.30-0.278-3.278,0,0,1,90,false,stim,false,2,472,1,1,1,72955,task3,752174,false,false,1003,image-keyboard-response,24
true,15,1,1,2,false,d,false,false,0.0-2.0-0.31-0.279-3.279,0,1,0,90,true,stim,true,1,638,1,0,0,72955,task3,754340,false,false,1006,image-keyboard-response,1
true,15,2,1,0,false,q,false,false,0.0-2.0-0.31-0.280-3.280,0,1,0,68,false,stim,true,2,608,1,0,2,72955,task3,756463,false,false,1009,image-keyboard-response,2
true,15,0,1,2,false,d,true,false,0.0-2.0-0.31-0.281-3.281,0,1,0,81,false,stim,false,1,577,1,0,0,72955,task3,758569,false,false,1012,image-keyboard-response,3
true,15,0,1,0,true,q,false,true,0.0-2.0-0.31-0.282-3.282,0,1,0,81,false,stim,false,2,901,1,0,2,72955,task3,761003,false,false,1015,image-keyboard-response,4
true,15,2,1,2,true,d,false,true,0.0-2.0-0.31-0.283-3.283,0,1,0,68,false,stim,false,1,391,1,0,0,72955,task3,762923,false,false,1018,image-keyboard-response,5
true,15,1,1,0,false,q,true,false,0.0-2.0-0.31-0.284-3.284,0,1,0,90,false,stim,false,0,812,1,1,1,72955,task3,765264,false,false,1021,image-keyboard-response,6
true,15,0,1,0,true,q,false,false,0.0-2.0-0.31-0.285-3.285,0,1,0,81,false,stim,false,2,471,1,0,2,72955,task3,767263,false,true,1024,image-keyboard-response,7
true,15,2,1,0,false,q,true,false,0.0-2.0-0.31-0.286-3.286,0,1,0,68,false,stim,false,0,1105,1,1,1,72955,task3,769886,false,false,1027,image-keyboard-response,8
true,15,0,1,0,true,q,false,true,0.0-2.0-0.31-0.287-3.287,0,1,0,81,false,stim,false,0,398,1,1,1,72955,task3,771810,false,false,1030,image-keyboard-response,9
true,15,0,1,0,true,q,false,true,0.0-2.0-0.32-0.288-3.288,0,1,0,81,false,stim,false,2,415,1,0,2,72955,task3,773767,false,false,1033,image-keyboard-response,10
true,15,0,1,0,true,q,false,true,0.0-2.0-0.32-0.289-3.289,0,1,0,81,false,stim,false,0,447,1,1,1,72955,task3,775740,false,false,1036,image-keyboard-response,11
true,15,0,1,0,true,q,false,true,0.0-2.0-0.32-0.290-3.290,0,1,0,81,false,stim,false,0,445,1,1,1,72955,task3,777728,false,false,1039,image-keyboard-response,12
true,15,2,1,2,true,d,false,true,0.0-2.0-0.32-0.291-3.291,0,1,0,68,false,stim,false,1,469,1,0,0,72955,task3,779732,false,false,1042,image-keyboard-response,13
true,15,2,1,2,true,d,false,true,0.0-2.0-0.32-0.292-3.292,0,1,0,68,false,stim,false,1,645,1,0,0,72955,task3,781908,false,false,1045,image-keyboard-response,14
true,15,0,1,0,true,q,false,false,0.0-2.0-0.32-0.293-3.293,0,1,0,81,false,stim,false,2,463,1,0,2,72955,task3,783898,false,true,1048,image-keyboard-response,15
true,15,2,1,2,true,d,false,true,0.0-2.0-0.32-0.294-3.294,0,1,0,68,false,stim,false,1,565,1,0,0,72955,task3,785999,false,false,1051,image-keyboard-response,16
true,15,0,1,0,true,q,false,true,0.0-2.0-0.32-0.295-3.295,0,1,0,81,false,stim,false,2,667,1,0,2,72955,task3,788202,false,false,1054,image-keyboard-response,17
true,15,0,1,0,true,q,false,true,0.0-2.0-0.32-0.296-3.296,0,1,0,81,false,stim,false,0,426,1,1,1,72955,task3,790169,false,false,1057,image-keyboard-response,18
true,15,2,1,2,true,d,false,false,0.0-2.0-0.33-0.297-3.297,0,1,0,68,false,stim,false,1,430,1,0,0,72955,task3,792132,false,true,1060,image-keyboard-response,19
true,15,0,1,0,true,q,false,true,0.0-2.0-0.33-0.298-3.298,0,1,0,81,false,stim,false,2,547,1,0,2,72955,task3,794210,false,false,1063,image-keyboard-response,20
true,15,0,1,0,true,q,false,true,0.0-2.0-0.33-0.299-3.299,0,1,0,81,false,stim,false,0,880,1,1,1,72955,task3,796623,false,false,1066,image-keyboard-response,21
true,15,0,1,0,true,q,false,true,0.0-2.0-0.33-0.300-3.300,0,1,0,81,false,stim,false,0,1431,1,1,1,72955,task3,799594,false,false,1069,image-keyboard-response,22
true,15,2,1,0,false,q,false,false,0.0-2.0-0.33-0.301-3.301,0,1,0,68,false,stim,true,2,1652,1,0,2,72955,task3,802776,false,false,1072,image-keyboard-response,23
true,15,0,1,2,false,d,true,false,0.0-2.0-0.33-0.302-3.302,0,1,0,81,false,stim,false,1,1324,1,0,0,72955,task3,805617,false,false,1075,image-keyboard-response,24
true,15,2,1,2,true,d,false,true,0.0-2.0-0.33-0.303-3.303,0,1,0,68,false,stim,false,1,699,1,0,0,72955,task3,807843,false,false,1078,image-keyboard-response,25
true,15,0,1,0,true,q,false,true,0.0-2.0-0.33-0.304-3.304,0,1,0,81,false,stim,false,0,734,1,0,1,72955,task3,810088,false,false,1081,image-keyboard-response,26
true,15,0,1,0,true,q,false,true,0.0-2.0-0.33-0.305-3.305,0,1,0,81,false,stim,false,2,1199,1,1,2,72955,task3,812810,false,false,1084,image-keyboard-response,27
true,15,0,1,0,true,q,false,true,0.0-2.0-0.34-0.306-3.306,0,1,0,81,false,stim,false,2,1256,1,1,2,72955,task3,815590,false,false,1087,image-keyboard-response,28
true,16,0,1,1,false,z,false,false,0.0-2.0-0.34-0.307-3.307,0,0,1,81,true,stim,true,0,1834,1,0,1,72955,task3,818957,false,false,1090,image-keyboard-response,1
true,16,0,1,0,true,q,false,true,0.0-2.0-0.34-0.308-3.308,0,0,1,81,false,stim,false,0,672,1,1,2,72955,task3,821145,false,false,1093,image-keyboard-response,2
true,16,0,1,1,false,z,false,false,0.0-2.0-0.34-0.309-3.309,0,0,1,81,false,stim,true,0,1821,1,0,1,72955,task3,824504,false,false,1096,image-keyboard-response,3
true,16,2,1,1,false,z,false,false,0.0-2.0-0.34-0.310-3.310,0,0,1,68,false,stim,true,2,960,1,0,0,72955,task3,826984,false,false,1099,image-keyboard-response,4
true,16,2,1,1,false,z,true,false,0.0-2.0-0.34-0.311-3.311,0,0,1,68,false,stim,false,0,869,1,0,1,72955,task3,829394,false,false,1102,image-keyboard-response,5
true,16,1,1,1,true,z,false,true,0.0-2.0-0.34-0.312-3.312,0,0,1,90,false,stim,false,2,777,1,0,0,72955,task3,831691,false,false,1105,image-keyboard-response,6
true,16,0,1,0,true,q,false,true,0.0-2.0-0.34-0.313-3.313,0,0,1,81,false,stim,false,0,1057,1,1,2,72955,task3,834282,false,false,1108,image-keyboard-response,7
true,16,1,1,1,true,z,false,true,0.0-2.0-0.34-0.314-3.314,0,0,1,90,false,stim,false,2,681,1,0,0,72955,task3,836498,false,false,1111,image-keyboard-response,8
true,16,1,1,1,true,z,false,true,0.0-2.0-0.35-0.315-3.315,0,0,1,90,false,stim,false,2,1146,1,0,0,72955,task3,839164,false,false,1114,image-keyboard-response,9
true,16,1,1,0,false,q,true,false,0.0-2.0-0.35-0.316-3.316,0,0,1,90,false,stim,false,0,530,1,1,2,72955,task3,841219,false,false,1117,image-keyboard-response,10
true,16,1,1,1,true,z,false,true,0.0-2.0-0.35-0.317-3.317,0,0,1,90,false,stim,false,0,640,1,0,1,72955,task3,843373,false,false,1120,image-keyboard-response,11
true,16,1,1,1,true,z,false,true,0.0-2.0-0.35-0.318-3.318,0,0,1,90,false,stim,false,2,479,1,0,0,72955,task3,845394,false,false,1123,image-keyboard-response,12
true,16,1,1,1,true,z,false,true,0.0-2.0-0.35-0.319-3.319,0,0,1,90,false,stim,false,2,482,1,0,0,72955,task3,847416,false,false,1126,image-keyboard-response,13
true,16,0,1,0,true,q,false,true,0.0-2.0-0.35-0.320-3.320,0,0,1,81,false,stim,false,0,630,1,1,2,72955,task3,849584,false,false,1129,image-keyboard-response,14
true,16,1,1,1,true,z,false,true,0.0-2.0-0.35-0.321-3.321,0,0,1,90,false,stim,false,0,869,1,0,1,72955,task3,851973,false,false,1132,image-keyboard-response,15
true,16,1,1,1,true,z,false,true,0.0-2.0-0.35-0.322-3.322,0,0,1,90,false,stim,false,0,686,1,0,1,72955,task3,854190,false,false,1135,image-keyboard-response,16
true,16,0,1,0,true,q,false,true,0.0-2.0-0.35-0.323-3.323,0,0,1,81,false,stim,false,0,529,1,1,2,72955,task3,856236,false,false,1138,image-keyboard-response,17
true,16,1,1,1,true,z,false,true,0.0-2.0-0.36-0.324-3.324,0,0,1,90,false,stim,false,2,1007,1,0,0,72955,task3,858769,false,false,1141,image-keyboard-response,18
true,16,0,1,0,true,q,false,true,0.0-2.0-0.36-0.325-3.325,0,0,1,81,false,stim,false,0,1361,1,1,2,72955,task3,861656,false,false,1144,image-keyboard-response,19
true,16,0,1,1,false,z,true,false,0.0-2.0-0.36-0.326-3.326,0,0,1,81,false,stim,false,2,872,1,0,0,72955,task3,864052,false,false,1147,image-keyboard-response,20
true,16,1,1,1,true,z,false,true,0.0-2.0-0.36-0.327-3.327,0,0,1,90,false,stim,false,0,613,1,0,1,72955,task3,866197,false,false,1150,image-keyboard-response,21
true,16,1,1,1,true,z,false,true,0.0-2.0-0.36-0.328-3.328,0,0,1,90,false,stim,false,2,437,1,0,0,72955,task3,868162,false,false,1153,image-keyboard-response,22
true,16,0,1,1,false,z,false,false,0.0-2.0-0.36-0.329-3.329,0,0,1,81,false,stim,true,0,732,1,1,1,72955,task3,870415,false,false,1156,image-keyboard-response,23
true,16,1,1,0,false,q,true,false,0.0-2.0-0.36-0.330-3.330,0,0,1,90,false,stim,false,0,761,1,1,2,72955,task3,872697,false,false,1159,image-keyboard-response,24
true,16,1,1,1,true,z,false,true,0.0-2.0-0.36-0.331-3.331,0,0,1,90,false,stim,false,0,538,1,1,1,72955,task3,874763,false,false,1162,image-keyboard-response,25
true,16,0,1,0,true,q,false,true,0.0-2.0-0.36-0.332-3.332,0,0,1,81,false,stim,false,0,1924,1,1,2,72955,task3,878221,false,false,1165,image-keyboard-response,26
true,17,1,2,0,false,q,false,false,0.0-2.0-0.37-0.333-3.333,0,1,1,90,true,stim,true,1,861,1,0,0,72955,task3,880606,false,false,1168,image-keyboard-response,1
true,17,0,2,0,true,q,false,true,0.0-2.0-0.37-0.334-3.334,0,1,1,81,false,stim,false,0,565,1,1,2,72955,task3,882690,false,false,1171,image-keyboard-response,2
true,17,1,2,1,true,z,false,true,0.0-2.0-0.37-0.335-3.335,0,1,1,90,false,stim,false,1,505,1,1,1,72955,task3,884721,false,false,1174,image-keyboard-response,3
true,17,1,2,0,false,q,false,false,0.0-2.0-0.37-0.336-3.336,0,1,1,90,false,stim,true,1,894,1,0,0,72955,task3,887149,false,false,1177,image-keyboard-response,4
true,17,1,2,0,false,q,false,false,0.0-2.0-0.37-0.337-3.337,0,1,1,90,false,stim,true,1,852,1,0,0,72955,task3,889538,false,false,1180,image-keyboard-response,5
true,17,0,2,0,true,q,false,true,0.0-2.0-0.37-0.338-3.338,0,1,1,81,false,stim,false,0,852,1,1,2,72955,task3,891916,false,false,1183,image-keyboard-response,6
true,17,0,2,0,true,q,false,true,0.0-2.0-0.37-0.339-3.339,0,1,1,81,false,stim,false,0,722,1,1,2,72955,task3,894178,false,false,1186,image-keyboard-response,7
true,17,2,2,1,false,z,true,false,0.0-2.0-0.37-0.340-3.340,0,1,1,68,false,stim,false,1,634,1,0,1,72955,task3,896334,false,false,1189,image-keyboard-response,8
true,17,0,2,1,false,z,true,false,0.0-2.0-0.37-0.341-3.341,0,1,1,81,false,stim,false,1,812,1,0,1,72955,task3,898687,false,false,1192,image-keyboard-response,9
true,17,1,2,1,true,z,false,true,0.0-2.0-0.38-0.342-3.342,0,1,1,90,false,stim,false,1,428,1,0,1,72955,task3,900642,false,false,1195,image-keyboard-response,10
true,17,2,2,0,false,q,true,false,0.0-2.0-0.38-0.343-3.343,0,1,1,68,false,stim,false,1,605,1,1,0,72955,task3,902781,false,false,1198,image-keyboard-response,11
true,17,0,2,0,true,q,false,true,0.0-2.0-0.38-0.344-3.344,0,1,1,81,false,stim,false,0,563,1,1,2,72955,task3,904880,false,false,1201,image-keyboard-response,12
true,18,0,2,0,true,q,false,true,0.0-2.0-0.38-0.345-3.345,1,0,1,81,true,stim,false,0,586,1,1,0,72955,task3,907001,false,false,1204,image-keyboard-response,1
true,18,1,2,2,false,d,false,false,0.0-2.0-0.38-0.346-3.346,1,0,1,90,false,stim,true,1,1348,1,0,1,72955,task3,909879,false,false,1207,image-keyboard-response,2
true,18,0,2,0,true,q,false,false,0.0-2.0-0.38-0.347-3.347,1,0,1,81,false,stim,false,0,593,1,1,2,72955,task3,911985,false,true,1210,image-keyboard-response,3
true,18,2,2,2,true,d,false,false,0.0-2.0-0.38-0.348-3.348,1,0,1,68,false,stim,false,1,670,1,0,1,72955,task3,914186,false,true,1213,image-keyboard-response,4
true,18,1,2,0,false,q,true,false,0.0-2.0-0.38-0.349-3.349,1,0,1,90,false,stim,false,0,757,1,1,0,72955,task3,916482,false,false,1216,image-keyboard-response,5
true,18,1,2,0,false,q,true,false,0.0-2.0-0.38-0.350-3.350,1,0,1,90,false,stim,false,0,1770,1,1,2,72955,task3,919780,false,false,1219,image-keyboard-response,6
true,18,2,2,0,false,q,true,true,0.0-2.0-0.39-0.351-3.351,1,0,1,68,false,stim,false,0,606,1,1,2,72955,task3,921923,false,true,1222,image-keyboard-response,7
true,18,1,2,2,false,d,false,false,0.0-2.0-0.39-0.352-3.352,1,0,1,90,false,stim,true,1,730,1,0,1,72955,task3,924167,false,false,1225,image-keyboard-response,8
true,18,0,2,0,true,q,false,true,0.0-2.0-0.39-0.353-3.353,1,0,1,81,false,stim,false,0,473,1,1,0,72955,task3,926170,false,false,1228,image-keyboard-response,9
true,18,0,2,2,false,d,true,false,0.0-2.0-0.39-0.354-3.354,1,0,1,81,false,stim,false,1,389,1,0,1,72955,task3,928095,false,false,1231,image-keyboard-response,10
true,18,2,2,0,false,q,true,false,0.0-2.0-0.39-0.355-3.355,1,0,1,68,false,stim,false,0,591,1,0,2,72955,task3,930217,false,false,1234,image-keyboard-response,11
true,18,2,2,0,false,q,true,false,0.0-2.0-0.39-0.356-3.356,1,0,1,68,false,stim,false,0,421,1,0,2,72955,task3,932147,false,false,1237,image-keyboard-response,12
true,18,2,2,2,true,d,false,true,0.0-2.0-0.39-0.357-3.357,1,0,1,68,false,stim,false,1,532,1,1,1,72955,task3,934208,false,false,1240,image-keyboard-response,13
true,18,0,2,0,true,q,false,true,0.0-2.0-0.39-0.358-3.358,1,0,1,81,false,stim,false,0,523,1,1,0,72955,task3,936244,false,false,1243,image-keyboard-response,14
true,18,0,2,0,true,q,false,true,0.0-2.0-0.39-0.359-3.359,1,0,1,81,false,stim,false,0,502,1,1,0,72955,task3,938284,false,false,1246,image-keyboard-response,15
true,19,2,2,2,true,d,false,true,0.0-2.0-0.40-0.360-3.360,1,1,0,68,true,stim,false,2,714,1,1,1,72955,task3,940531,false,false,1249,image-keyboard-response,1
true,19,0,2,0,true,q,false,false,0.0-2.0-0.40-0.361-3.361,1,1,0,81,false,stim,false,0,505,1,1,0,72955,task3,942570,false,true,1252,image-keyboard-response,2
true,19,0,2,0,true,q,false,true,0.0-2.0-0.40-0.362-3.362,1,1,0,81,false,stim,false,0,484,1,1,0,72955,task3,944578,false,false,1255,image-keyboard-response,3
true,19,0,2,0,true,q,false,true,0.0-2.0-0.40-0.363-3.363,1,1,0,81,false,stim,false,0,468,1,1,0,72955,task3,946574,false,false,1258,image-keyboard-response,4
true,19,1,2,1,true,z,false,true,0.0-2.0-0.40-0.364-3.364,1,1,0,90,false,stim,false,0,850,1,0,2,72955,task3,948957,false,false,1261,image-keyboard-response,5
true,19,1,2,1,true,z,false,false,0.0-2.0-0.40-0.365-3.365,1,1,0,90,false,stim,false,0,365,1,0,2,72955,task3,950862,false,true,1264,image-keyboard-response,6
true,19,0,2,2,false,d,true,false,0.0-2.0-0.40-0.366-3.366,1,1,0,81,false,stim,false,2,569,1,1,1,72955,task3,952953,false,false,1267,image-keyboard-response,7
true,19,1,2,1,true,z,false,true,0.0-2.0-0.40-0.367-3.367,1,1,0,90,false,stim,false,0,742,1,0,2,72955,task3,955220,false,false,1270,image-keyboard-response,8
true,19,2,2,2,true,d,false,true,0.0-2.0-0.40-0.368-3.368,1,1,0,68,false,stim,false,2,437,1,1,1,72955,task3,957193,false,false,1273,image-keyboard-response,9
true,19,0,2,0,true,q,false,true,0.0-2.0-0.41-0.369-3.369,1,1,0,81,false,stim,false,0,656,1,1,0,72955,task3,959382,false,false,1276,image-keyboard-response,10
true,19,1,2,1,true,z,false,true,0.0-2.0-0.41-0.370-3.370,1,1,0,90,false,stim,false,0,607,1,0,2,72955,task3,961525,false,false,1279,image-keyboard-response,11
true,19,2,2,2,true,d,false,true,0.0-2.0-0.41-0.371-3.371,1,1,0,68,false,stim,false,2,400,1,0,1,72955,task3,963451,false,false,1282,image-keyboard-response,12
true,19,0,2,1,false,z,false,false,0.0-2.0-0.41-0.372-3.372,1,1,0,81,false,stim,true,0,737,1,1,2,72955,task3,965713,false,false,1285,image-keyboard-response,13
true,19,2,2,2,true,d,false,false,0.0-2.0-0.41-0.373-3.373,1,1,0,68,false,stim,false,2,680,1,0,1,72955,task3,967927,false,true,1288,image-keyboard-response,14
true,19,1,2,1,true,z,false,true,0.0-2.0-0.41-0.374-3.374,1,1,0,90,false,stim,false,0,392,1,1,2,72955,task3,969849,false,false,1291,image-keyboard-response,15
true,19,0,2,0,true,q,false,true,0.0-2.0-0.41-0.375-3.375,1,1,0,81,false,stim,false,0,388,1,0,0,72955,task3,971765,false,false,1294,image-keyboard-response,16
true,20,0,1,1,false,z,false,false,0.0-2.0-0.41-0.376-3.376,0,0,1,81,true,stim,true,0,612,1,0,0,72955,task3,973911,false,false,1297,image-keyboard-response,1
true,20,2,1,0,false,q,false,false,0.0-2.0-0.41-0.377-3.377,0,0,1,68,false,stim,true,2,561,1,0,1,72955,task3,975996,false,false,1300,image-keyboard-response,2
true,20,1,1,1,true,z,false,true,0.0-2.0-0.42-0.378-3.378,0,0,1,90,false,stim,false,1,647,1,1,2,72955,task3,978178,false,false,1303,image-keyboard-response,3
true,20,0,1,1,false,z,false,false,0.0-2.0-0.42-0.379-3.379,0,0,1,81,false,stim,true,0,516,1,0,0,72955,task3,980223,false,false,1306,image-keyboard-response,4
true,20,1,1,1,true,z,false,true,0.0-2.0-0.42-0.380-3.380,0,0,1,90,false,stim,false,1,462,1,1,2,72955,task3,982199,false,false,1309,image-keyboard-response,5
true,20,0,1,0,true,q,false,true,0.0-2.0-0.42-0.381-3.381,0,0,1,81,false,stim,false,2,612,1,0,1,72955,task3,984338,false,false,1312,image-keyboard-response,6
true,20,0,1,0,true,q,false,true,0.0-2.0-0.42-0.382-3.382,0,0,1,81,false,stim,false,2,552,1,0,1,72955,task3,986408,false,false,1315,image-keyboard-response,7
true,20,0,1,0,true,q,false,false,0.0-2.0-0.42-0.383-3.383,0,0,1,81,false,stim,false,2,427,1,0,1,72955,task3,988359,false,true,1318,image-keyboard-response,8
true,20,2,1,1,false,z,true,false,0.0-2.0-0.42-0.384-3.384,0,0,1,68,false,stim,false,0,681,1,0,0,72955,task3,990578,false,false,1321,image-keyboard-response,9
true,20,1,1,1,true,z,false,true,0.0-2.0-0.42-0.385-3.385,0,0,1,90,false,stim,false,0,588,1,0,0,72955,task3,992695,false,false,1324,image-keyboard-response,10
true,20,1,1,1,true,z,false,true,0.0-2.0-0.42-0.386-3.386,0,0,1,90,false,stim,false,1,526,1,1,2,72955,task3,994753,false,false,1327,image-keyboard-response,11
true,20,1,1,1,true,z,false,true,0.0-2.0-0.43-0.387-3.387,0,0,1,90,false,stim,false,0,436,1,0,0,72955,task3,996703,false,false,1330,image-keyboard-response,12
true,20,1,1,1,true,z,false,true,0.0-2.0-0.43-0.388-3.388,0,0,1,90,false,stim,false,1,496,1,1,2,72955,task3,998723,false,false,1333,image-keyboard-response,13
true,20,0,1,0,true,q,false,true,0.0-2.0-0.43-0.389-3.389,0,0,1,81,false,stim,false,2,742,1,0,1,72955,task3,1000979,false,false,1336,image-keyboard-response,14
true,20,1,1,1,true,z,false,true,0.0-2.0-0.43-0.390-3.390,0,0,1,90,false,stim,false,1,512,1,1,2,72955,task3,1003030,false,false,1339,image-keyboard-response,15
true,20,1,1,1,true,z,false,true,0.0-2.0-0.43-0.391-3.391,0,0,1,90,false,stim,false,1,522,1,1,2,72955,task3,1005088,false,false,1342,image-keyboard-response,16
true,20,1,1,0,false,q,true,true,0.0-2.0-0.43-0.392-3.392,0,0,1,90,false,stim,false,2,711,1,0,1,72955,task3,1007319,false,true,1345,image-keyboard-response,17
true,20,1,1,0,false,q,true,false,0.0-2.0-0.43-0.393-3.393,0,0,1,90,false,stim,false,2,547,1,0,1,72955,task3,1009385,false,false,1348,image-keyboard-response,18
true,20,1,1,1,true,z,false,true,0.0-2.0-0.43-0.394-3.394,0,0,1,90,false,stim,false,0,576,1,0,0,72955,task3,1011490,false,false,1351,image-keyboard-response,19
true,20,1,1,1,true,z,false,true,0.0-2.0-0.43-0.395-3.395,0,0,1,90,false,stim,false,0,453,1,0,0,72955,task3,1013470,false,false,1354,image-keyboard-response,20
true,20,1,1,1,true,z,false,true,0.0-2.0-0.44-0.396-3.396,0,0,1,90,false,stim,false,0,458,1,0,0,72955,task3,1015456,false,false,1357,image-keyboard-response,21
true,20,0,1,0,true,q,false,true,0.0-2.0-0.44-0.397-3.397,0,0,1,81,false,stim,false,2,587,1,1,1,72955,task3,1017575,false,false,1360,image-keyboard-response,22
true,20,1,1,1,true,z,false,true,0.0-2.0-0.44-0.398-3.398,0,0,1,90,false,stim,false,0,521,1,0,0,72955,task3,1019628,false,false,1363,image-keyboard-response,23
true,20,1,1,1,true,z,false,true,0.0-2.0-0.44-0.399-3.399,0,0,1,90,false,stim,false,0,470,1,0,0,72955,task3,1021637,false,false,1366,image-keyboard-response,24
true,20,1,1,1,true,z,false,true,0.0-2.0-0.44-0.400-3.400,0,0,1,90,false,stim,false,1,834,1,0,2,72955,task3,1023988,false,false,1369,image-keyboard-response,25
true,21,0,1,0,true,q,false,false,0.0-2.0-0.44-0.401-3.401,0,1,0,81,true,stim,false,0,703,1,1,1,72955,task3,1026221,false,true,1372,image-keyboard-response,1
true,21,1,1,2,false,d,false,false,0.0-2.0-0.44-0.402-3.402,0,1,0,90,false,stim,true,1,469,1,0,2,72955,task3,1028217,false,false,1375,image-keyboard-response,2
true,21,2,1,0,false,q,true,false,0.0-2.0-0.44-0.403-3.403,0,1,0,68,false,stim,false,0,846,1,1,1,72955,task3,1030585,false,false,1378,image-keyboard-response,3
true,21,0,1,2,false,d,true,false,0.0-2.0-0.44-0.404-3.404,0,1,0,81,false,stim,false,1,786,1,0,2,72955,task3,1032894,false,false,1381,image-keyboard-response,4
true,21,1,1,0,false,q,false,false,0.0-2.0-0.45-0.405-3.405,0,1,0,90,false,stim,true,1,853,1,0,0,72955,task3,1035272,false,false,1384,image-keyboard-response,5
true,21,2,1,0,false,q,true,false,0.0-2.0-0.45-0.406-3.406,0,1,0,68,false,stim,false,0,677,1,1,1,72955,task3,1037475,false,false,1387,image-keyboard-response,6
true,21,2,1,0,false,q,true,false,0.0-2.0-0.45-0.407-3.407,0,1,0,68,false,stim,false,1,828,1,0,0,72955,task3,1039827,false,false,1390,image-keyboard-response,7
true,21,2,1,2,true,d,false,true,0.0-2.0-0.45-0.408-3.408,0,1,0,68,false,stim,false,1,1247,1,0,2,72955,task3,1042605,false,false,1393,image-keyboard-response,8
true,21,2,1,2,true,d,false,true,0.0-2.0-0.45-0.409-3.409,0,1,0,68,false,stim,false,1,614,1,0,2,72955,task3,1044763,false,false,1396,image-keyboard-response,9
true,21,0,1,0,true,q,false,true,0.0-2.0-0.45-0.410-3.410,0,1,0,81,false,stim,false,1,462,1,0,0,72955,task3,1046746,false,false,1399,image-keyboard-response,10
true,21,1,1,0,false,q,true,false,0.0-2.0-0.45-0.411-3.411,0,1,0,90,false,stim,false,0,677,1,1,1,72955,task3,1048976,false,false,1402,image-keyboard-response,11
true,21,0,1,0,true,q,false,true,0.0-2.0-0.45-0.412-3.412,0,1,0,81,false,stim,false,0,524,1,1,1,72955,task3,1051041,false,false,1405,image-keyboard-response,12
true,21,2,1,2,true,d,false,false,0.0-2.0-0.45-0.413-3.413,0,1,0,68,false,stim,false,1,449,1,0,2,72955,task3,1053003,false,true,1408,image-keyboard-response,13
true,21,0,1,0,true,q,false,false,0.0-2.0-0.46-0.414-3.414,0,1,0,81,false,stim,false,0,536,1,1,1,72955,task3,1055054,false,true,1411,image-keyboard-response,14
true,21,2,1,2,true,d,false,true,0.0-2.0-0.46-0.415-3.415,0,1,0,68,false,stim,false,1,531,1,0,2,72955,task3,1057107,false,false,1414,image-keyboard-response,15
true,21,0,1,0,true,q,false,false,0.0-2.0-0.46-0.416-3.416,0,1,0,81,false,stim,false,1,452,1,0,0,72955,task3,1059089,false,true,1417,image-keyboard-response,16
true,21,0,1,0,true,q,false,false,0.0-2.0-0.46-0.417-3.417,0,1,0,81,false,stim,false,0,384,1,1,1,72955,task3,1061013,false,true,1420,image-keyboard-response,17
true,21,0,1,0,true,q,false,true,0.0-2.0-0.46-0.418-3.418,0,1,0,81,false,stim,false,1,560,1,0,0,72955,task3,1063109,false,false,1423,image-keyboard-response,18
true,21,0,1,0,true,q,false,false,0.0-2.0-0.46-0.419-3.419,0,1,0,81,false,stim,false,0,509,1,1,1,72955,task3,1065158,false,true,1426,image-keyboard-response,19
true,21,0,1,0,true,q,false,true,0.0-2.0-0.46-0.420-3.420,0,1,0,81,false,stim,false,1,779,1,0,0,72955,task3,1067467,false,false,1429,image-keyboard-response,20
true,21,2,1,2,true,d,false,true,0.0-2.0-0.46-0.421-3.421,0,1,0,68,false,stim,false,1,526,1,0,2,72955,task3,1069534,false,false,1432,image-keyboard-response,21
true,21,2,1,2,true,d,false,true,0.0-2.0-0.46-0.422-3.422,0,1,0,68,false,stim,false,1,694,1,0,2,72955,task3,1071748,false,false,1435,image-keyboard-response,22
true,21,0,1,0,true,q,false,true,0.0-2.0-0.47-0.423-3.423,0,1,0,81,false,stim,false,1,571,1,0,0,72955,task3,1073851,false,false,1438,image-keyboard-response,23
true,21,2,1,2,true,d,false,true,0.0-2.0-0.47-0.424-3.424,0,1,0,68,false,stim,false,1,593,1,0,2,72955,task3,1075959,false,false,1441,image-keyboard-response,24
true,21,2,1,2,true,d,false,true,0.0-2.0-0.47-0.425-3.425,0,1,0,68,false,stim,false,1,882,1,0,2,72955,task3,1078370,false,false,1444,image-keyboard-response,25
true,21,0,1,0,true,q,false,true,0.0-2.0-0.47-0.426-3.426,0,1,0,81,false,stim,false,1,509,1,0,0,72955,task3,1080408,false,false,1447,image-keyboard-response,26
true,21,1,1,0,false,q,true,false,0.0-2.0-0.47-0.427-3.427,0,1,0,90,false,stim,false,0,405,1,1,1,72955,task3,1082343,false,false,1450,image-keyboard-response,27
true,21,0,1,0,true,q,false,true,0.0-2.0-0.47-0.428-3.428,0,1,0,81,false,stim,false,1,634,1,0,0,72955,task3,1084513,false,false,1453,image-keyboard-response,28
true,21,2,1,0,false,q,true,false,0.0-2.0-0.47-0.429-3.429,0,1,0,68,false,stim,false,0,487,1,1,1,72955,task3,1086536,false,false,1456,image-keyboard-response,29
true,21,2,1,0,false,q,true,false,0.0-2.0-0.47-0.430-3.430,0,1,0,68,false,stim,false,0,692,1,1,1,72955,task3,1088761,false,false,1459,image-keyboard-response,30
true,22,2,1,1,false,z,false,false,0.0-2.0-0.47-0.431-3.431,0,1,0,68,true,stim,true,2,512,1,0,2,72955,task3,1090791,false,false,1462,image-keyboard-response,1
true,22,0,1,0,true,q,false,true,0.0-2.0-0.48-0.432-3.432,0,1,0,81,false,stim,false,0,702,1,1,1,72955,task3,1093021,false,false,1465,image-keyboard-response,2
true,22,0,1,1,false,z,true,false,0.0-2.0-0.48-0.433-3.433,0,1,0,81,false,stim,false,2,565,1,0,2,72955,task3,1095100,false,false,1468,image-keyboard-response,3
true,22,0,1,2,false,d,false,true,0.0-2.0-0.48-0.434-3.434,0,1,0,81,false,stim,true,0,610,1,0,0,72955,task3,1097235,false,true,1471,image-keyboard-response,4
true,22,2,1,1,false,z,false,false,0.0-2.0-0.48-0.435-3.435,0,1,0,68,false,stim,true,2,525,1,0,2,72955,task3,1099289,false,false,1474,image-keyboard-response,5
true,22,0,1,2,false,d,false,false,0.0-2.0-0.48-0.436-3.436,0,1,0,81,false,stim,true,0,554,1,0,0,72955,task3,1101372,false,false,1477,image-keyboard-response,6
true,22,0,1,2,false,d,false,false,0.0-2.0-0.48-0.437-3.437,0,1,0,81,false,stim,true,0,502,1,0,0,72955,task3,1103401,false,false,1480,image-keyboard-response,7
true,22,0,1,0,true,q,false,true,0.0-2.0-0.48-0.438-3.438,0,1,0,81,false,stim,false,0,464,1,1,1,72955,task3,1105404,false,false,1483,image-keyboard-response,8
true,22,1,1,1,true,z,false,true,0.0-2.0-0.48-0.439-3.439,0,1,0,90,false,stim,false,2,1125,1,0,2,72955,task3,1108065,false,false,1486,image-keyboard-response,9
false,22,-1,1,0,false,q,true,false,0.0-2.0-0.48-0.440-3.440,0,1,0,,false,stim,false,0,,1,1,1,72955,task3,1112588,false,false,1489,image-keyboard-response,10
true,22,1,1,0,false,q,true,false,0.0-2.0-0.49-0.441-3.441,0,1,0,90,false,stim,false,0,925,1,1,1,72955,task3,1115056,false,false,1492,image-keyboard-response,11
true,22,2,1,1,false,z,false,false,0.0-2.0-0.49-0.442-3.442,0,1,0,68,false,stim,true,2,499,1,0,2,72955,task3,1117089,false,false,1495,image-keyboard-response,12
true,22,1,1,1,true,z,false,true,0.0-2.0-0.49-0.443-3.443,0,1,0,90,false,stim,false,2,568,1,0,2,72955,task3,1119198,false,false,1498,image-keyboard-response,13
true,22,0,1,2,false,d,false,false,0.0-2.0-0.49-0.444-3.444,0,1,0,81,false,stim,true,0,752,1,0,0,72955,task3,1121491,false,false,1501,image-keyboard-response,14
true,22,2,1,2,true,d,false,true,0.0-2.0-0.49-0.445-3.445,0,1,0,68,false,stim,false,0,915,1,0,0,72955,task3,1123944,false,false,1504,image-keyboard-response,15
true,22,2,1,2,true,d,false,true,0.0-2.0-0.49-0.446-3.446,0,1,0,68,false,stim,false,0,996,1,0,0,72955,task3,1126475,false,false,1507,image-keyboard-response,16
true,22,1,1,1,true,z,false,false,0.0-2.0-0.49-0.447-3.447,0,1,0,90,false,stim,false,2,1170,1,0,2,72955,task3,1129171,false,true,1510,image-keyboard-response,17
true,22,0,1,0,true,q,false,true,0.0-2.0-0.49-0.448-3.448,0,1,0,81,false,stim,false,0,754,1,1,1,72955,task3,1131465,false,false,1513,image-keyboard-response,18
true,22,0,1,0,true,q,false,true,0.0-2.0-0.49-0.449-3.449,0,1,0,81,false,stim,false,0,470,1,1,1,72955,task3,1133450,false,false,1516,image-keyboard-response,19
true,22,0,1,0,true,q,false,true,0.0-2.0-0.50-0.450-3.450,0,1,0,81,false,stim,false,0,469,1,1,1,72955,task3,1135448,false,false,1519,image-keyboard-response,20
true,22,2,1,2,true,d,false,true,0.0-2.0-0.50-0.451-3.451,0,1,0,68,false,stim,false,0,997,1,0,0,72955,task3,1137977,false,false,1522,image-keyboard-response,21
true,22,2,1,2,true,d,false,true,0.0-2.0-0.50-0.452-3.452,0,1,0,68,false,stim,false,0,746,1,0,0,72955,task3,1140246,false,false,1525,image-keyboard-response,22
true,22,0,1,1,false,z,true,false,0.0-2.0-0.50-0.453-3.453,0,1,0,81,false,stim,false,2,547,1,1,2,72955,task3,1142327,false,false,1528,image-keyboard-response,23
true,22,2,1,0,false,q,true,false,0.0-2.0-0.50-0.454-3.454,0,1,0,68,false,stim,false,0,2246,1,0,1,72955,task3,1146106,false,false,1531,image-keyboard-response,24
true,22,0,1,1,false,z,true,true,0.0-2.0-0.50-0.455-3.455,0,1,0,81,false,stim,false,2,2111,1,1,2,72955,task3,1149741,false,true,1534,image-keyboard-response,25
true,22,1,1,0,false,q,true,false,0.0-2.0-0.50-0.456-3.456,0,1,0,90,false,stim,false,0,654,1,0,1,72955,task3,1151924,false,false,1537,image-keyboard-response,26
true,22,0,1,1,false,z,true,false,0.0-2.0-0.50-0.457-3.457,0,1,0,81,false,stim,false,2,439,1,1,2,72955,task3,1153900,false,false,1540,image-keyboard-response,27
true,23,2,1,0,false,q,false,false,0.0-2.0-0.50-0.458-3.458,0,0,1,68,true,stim,true,2,653,1,0,0,72955,task3,1156083,false,false,1543,image-keyboard-response,1
true,23,2,1,1,false,z,true,true,0.0-2.0-0.51-0.459-3.459,0,0,1,68,false,stim,false,1,991,1,1,2,72955,task3,1158601,false,true,1546,image-keyboard-response,2
true,23,2,1,1,false,z,true,true,0.0-2.0-0.51-0.460-3.460,0,0,1,68,false,stim,false,1,619,1,1,2,72955,task3,1160748,false,true,1549,image-keyboard-response,3
true,23,2,1,1,false,z,true,false,0.0-2.0-0.51-0.461-3.461,0,0,1,68,false,stim,false,1,449,1,1,2,72955,task3,1162729,false,false,1552,image-keyboard-response,4
true,23,1,1,0,false,q,true,false,0.0-2.0-0.51-0.462-3.462,0,0,1,90,false,stim,false,2,979,1,0,0,72955,task3,1165245,false,false,1555,image-keyboard-response,5
true,23,0,1,1,false,z,false,true,0.0-2.0-0.51-0.463-3.463,0,0,1,81,false,stim,true,0,732,1,0,1,72955,task3,1167499,false,true,1558,image-keyboard-response,6
true,23,0,1,1,false,z,false,false,0.0-2.0-0.51-0.464-3.464,0,0,1,81,false,stim,true,0,578,1,0,1,72955,task3,1169616,false,false,1561,image-keyboard-response,7
true,23,0,1,0,true,q,false,true,0.0-2.0-0.51-0.465-3.465,0,0,1,81,false,stim,false,2,470,1,0,0,72955,task3,1171608,false,false,1564,image-keyboard-response,8
true,23,0,1,1,false,z,false,false,0.0-2.0-0.51-0.466-3.466,0,0,1,81,false,stim,true,0,448,1,0,1,72955,task3,1173599,false,false,1567,image-keyboard-response,9
true,23,0,1,0,true,q,false,true,0.0-2.0-0.51-0.467-3.467,0,0,1,81,false,stim,false,2,434,1,0,0,72955,task3,1175565,false,false,1570,image-keyboard-response,10
true,23,0,1,0,true,q,false,false,0.0-2.0-0.52-0.468-3.468,0,0,1,81,false,stim,false,2,443,1,0,0,72955,task3,1177534,false,true,1573,image-keyboard-response,11
true,23,2,1,1,false,z,true,false,0.0-2.0-0.52-0.469-3.469,0,0,1,68,false,stim,false,0,430,1,0,1,72955,task3,1179500,false,false,1576,image-keyboard-response,12
true,23,0,1,0,true,q,false,true,0.0-2.0-0.52-0.470-3.470,0,0,1,81,false,stim,false,2,720,1,0,0,72955,task3,1181750,false,false,1579,image-keyboard-response,13
true,23,0,1,0,true,q,false,true,0.0-2.0-0.52-0.471-3.471,0,0,1,81,false,stim,false,2,407,1,0,0,72955,task3,1183692,false,false,1582,image-keyboard-response,14
true,23,2,1,1,false,z,true,false,0.0-2.0-0.52-0.472-3.472,0,0,1,68,false,stim,false,1,666,1,1,2,72955,task3,1185877,false,false,1585,image-keyboard-response,15
true,23,1,1,1,true,z,false,false,0.0-2.0-0.52-0.473-3.473,0,0,1,90,false,stim,false,0,511,1,0,1,72955,task3,1187911,false,true,1588,image-keyboard-response,16
true,23,2,1,1,false,z,true,false,0.0-2.0-0.52-0.474-3.474,0,0,1,68,false,stim,false,0,773,1,0,1,72955,task3,1190203,false,false,1591,image-keyboard-response,17
false,23,-1,1,1,false,z,true,false,0.0-2.0-0.52-0.475-3.475,0,0,1,,false,stim,false,1,,1,1,2,72955,task3,1194744,false,false,1594,image-keyboard-response,18
true,23,2,1,1,false,z,true,false,0.0-2.0-0.52-0.476-3.476,0,0,1,68,false,stim,false,1,516,1,1,2,72955,task3,1196788,false,false,1597,image-keyboard-response,19
true,23,0,1,0,true,q,false,true,0.0-2.0-0.53-0.477-3.477,0,0,1,81,false,stim,false,2,2411,1,0,0,72955,task3,1200732,false,false,1600,image-keyboard-response,20
true,23,0,1,1,false,z,true,false,0.0-2.0-0.53-0.478-3.478,0,0,1,81,false,stim,false,1,555,1,1,2,72955,task3,1202841,false,false,1603,image-keyboard-response,21
true,23,0,1,1,false,z,false,true,0.0-2.0-0.53-0.479-3.479,0,0,1,81,false,stim,true,0,649,1,0,1,72955,task3,1205029,false,true,1606,image-keyboard-response,22
true,23,0,1,1,false,z,false,false,0.0-2.0-0.53-0.480-3.480,0,0,1,81,false,stim,true,0,503,1,0,1,72955,task3,1207075,false,false,1609,image-keyboard-response,23
true,23,1,1,0,false,q,true,false,0.0-2.0-0.53-0.481-3.481,0,0,1,90,false,stim,false,2,560,1,0,0,72955,task3,1209169,false,false,1612,image-keyboard-response,24
true,23,2,1,0,false,q,false,false,0.0-2.0-0.53-0.482-3.482,0,0,1,68,false,stim,true,2,531,1,0,0,72955,task3,1211242,false,false,1615,image-keyboard-response,25
true,23,0,1,1,false,z,false,false,0.0-2.0-0.53-0.483-3.483,0,0,1,81,false,stim,true,0,458,1,1,1,72955,task3,1213209,false,false,1618,image-keyboard-response,26
true,23,0,1,1,false,z,true,false,0.0-2.0-0.53-0.484-3.484,0,0,1,81,false,stim,false,1,609,1,0,2,72955,task3,1215358,false,false,1621,image-keyboard-response,27
true,23,1,1,1,true,z,false,true,0.0-2.0-0.53-0.485-3.485,0,0,1,90,false,stim,false,1,519,1,0,2,72955,task3,1217421,false,false,1624,image-keyboard-response,28
true,23,1,1,0,false,q,true,true,0.0-2.0-0.54-0.486-3.486,0,0,1,90,false,stim,false,2,504,1,0,0,72955,task3,1219465,false,true,1627,image-keyboard-response,29
true,24,1,1,1,true,z,false,true,0.0-2.0-0.54-0.487-3.487,0,1,0,90,true,stim,false,1,500,1,1,1,72955,task3,1221492,false,false,1630,image-keyboard-response,1
true,24,1,1,2,false,d,false,false,0.0-2.0-0.54-0.488-3.488,0,1,0,90,false,stim,true,1,442,1,0,2,72955,task3,1223458,false,false,1633,image-keyboard-response,2
true,24,1,1,2,false,d,false,false,0.0-2.0-0.54-0.489-3.489,0,1,0,90,false,stim,true,1,335,1,0,2,72955,task3,1225315,false,false,1636,image-keyboard-response,3
true,24,1,1,1,true,z,false,true,0.0-2.0-0.54-0.490-3.490,0,1,0,90,false,stim,false,1,729,1,1,1,72955,task3,1227569,false,false,1639,image-keyboard-response,4
true,24,1,1,1,true,z,false,true,0.0-2.0-0.54-0.491-3.491,0,1,0,90,false,stim,false,0,515,1,0,0,72955,task3,1229626,false,false,1642,image-keyboard-response,5
true,24,1,1,1,true,z,false,true,0.0-2.0-0.54-0.492-3.492,0,1,0,90,false,stim,false,0,497,1,0,0,72955,task3,1231649,false,false,1645,image-keyboard-response,6
true,24,0,1,1,false,z,true,false,0.0-2.0-0.54-0.493-3.493,0,1,0,81,false,stim,false,1,765,1,1,1,72955,task3,1233957,false,false,1648,image-keyboard-response,7
true,24,1,1,2,false,d,false,false,0.0-2.0-0.54-0.494-3.494,0,1,0,90,false,stim,true,1,453,1,0,2,72955,task3,1235933,false,false,1651,image-keyboard-response,8
true,24,1,1,2,false,d,false,false,0.0-2.0-0.55-0.495-3.495,0,1,0,90,false,stim,true,1,484,1,0,2,72955,task3,1237945,false,false,1654,image-keyboard-response,9
true,24,1,1,1,true,z,false,true,0.0-2.0-0.55-0.496-3.496,0,1,0,90,false,stim,false,1,648,1,1,1,72955,task3,1240109,false,false,1657,image-keyboard-response,10
true,24,2,1,2,true,d,false,true,0.0-2.0-0.55-0.497-3.497,0,1,0,68,false,stim,false,1,427,1,0,2,72955,task3,1242077,false,false,1660,image-keyboard-response,11
true,24,0,1,1,false,z,false,false,0.0-2.0-0.55-0.498-3.498,0,1,0,81,false,stim,true,0,535,1,0,0,72955,task3,1244142,false,false,1663,image-keyboard-response,12
true,24,1,1,1,true,z,false,true,0.0-2.0-0.55-0.499-3.499,0,1,0,90,false,stim,false,1,659,1,1,1,72955,task3,1246310,false,false,1666,image-keyboard-response,13
true,24,0,1,1,false,z,false,false,0.0-2.0-0.55-0.500-3.500,0,1,0,81,false,stim,true,0,846,1,0,0,72955,task3,1248675,false,false,1669,image-keyboard-response,14
true,24,1,1,1,true,z,false,true,0.0-2.0-0.55-0.501-3.501,0,1,0,90,false,stim,false,1,1086,1,1,1,72955,task3,1251296,false,false,1672,image-keyboard-response,15
true,24,2,1,1,false,z,true,true,0.0-2.0-0.55-0.502-3.502,0,1,0,68,false,stim,false,0,598,1,0,0,72955,task3,1253420,false,true,1675,image-keyboard-response,16
true,24,2,1,2,true,d,false,true,0.0-2.0-0.55-0.503-3.503,0,1,0,68,false,stim,false,1,402,1,0,2,72955,task3,1255364,false,false,1678,image-keyboard-response,17
true,24,2,1,1,false,z,true,false,0.0-2.0-0.56-0.504-3.504,0,1,0,68,false,stim,false,0,499,1,0,0,72955,task3,1257400,false,false,1681,image-keyboard-response,18
true,24,1,1,1,true,z,false,true,0.0-2.0-0.56-0.505-3.505,0,1,0,90,false,stim,false,1,465,1,1,1,72955,task3,1259407,false,false,1684,image-keyboard-response,19
true,24,2,1,1,false,z,true,true,0.0-2.0-0.56-0.506-3.506,0,1,0,68,false,stim,false,0,657,1,0,0,72955,task3,1261603,false,true,1687,image-keyboard-response,20
true,24,2,1,1,false,z,true,false,0.0-2.0-0.56-0.507-3.507,0,1,0,68,false,stim,false,0,518,1,0,0,72955,task3,1263651,false,false,1690,image-keyboard-response,21
true,24,2,1,2,true,d,false,true,0.0-2.0-0.56-0.508-3.508,0,1,0,68,false,stim,false,1,1083,1,0,2,72955,task3,1266259,false,false,1693,image-keyboard-response,22
true,24,1,1,1,true,z,false,true,0.0-2.0-0.56-0.509-3.509,0,1,0,90,false,stim,false,1,748,1,1,1,72955,task3,1268531,false,false,1696,image-keyboard-response,23
true,24,1,1,1,true,z,false,true,0.0-2.0-0.56-0.510-3.510,0,1,0,90,false,stim,false,1,1272,1,1,1,72955,task3,1271341,false,false,1699,image-keyboard-response,24
true,24,2,1,2,true,d,false,true,0.0-2.0-0.56-0.511-3.511,0,1,0,68,false,stim,false,1,733,1,0,2,72955,task3,1273622,false,false,1702,image-keyboard-response,25
true,24,2,1,2,true,d,false,true,0.0-2.0-0.56-0.512-3.512,0,1,0,68,false,stim,false,1,829,1,0,2,72955,task3,1275981,false,false,1705,image-keyboard-response,26
true,24,1,1,1,true,z,false,true,0.0-2.0-0.57-0.513-3.513,0,1,0,90,false,stim,false,1,901,1,0,1,72955,task3,1278417,false,false,1708,image-keyboard-response,27
true,24,2,1,1,false,z,true,false,0.0-2.0-0.57-0.514-3.514,0,1,0,68,false,stim,false,0,1106,1,1,0,72955,task3,1281038,false,false,1711,image-keyboard-response,28
true,24,1,1,2,false,d,false,false,0.0-2.0-0.57-0.515-3.515,0,1,0,90,false,stim,true,1,729,1,0,2,72955,task3,1283300,false,false,1714,image-keyboard-response,29
true,25,2,1,1,false,z,false,false,0.0-2.0-0.57-0.516-3.516,1,0,0,68,true,stim,true,2,598,1,0,2,72955,task3,1285440,false,false,1717,image-keyboard-response,1
true,25,1,1,1,true,z,false,true,0.0-2.0-0.57-0.517-3.517,1,0,0,90,false,stim,false,1,710,1,1,0,72955,task3,1287692,false,false,1720,image-keyboard-response,2
true,25,2,1,1,false,z,false,false,0.0-2.0-0.57-0.518-3.518,1,0,0,68,false,stim,true,2,1128,1,0,2,72955,task3,1290359,false,false,1723,image-keyboard-response,3
true,25,1,1,2,false,d,false,false,0.0-2.0-0.57-0.519-3.519,1,0,0,90,false,stim,true,1,1064,1,0,1,72955,task3,1292965,false,false,1726,image-keyboard-response,4
true,25,2,1,2,true,d,false,true,0.0-2.0-0.57-0.520-3.520,1,0,0,68,false,stim,false,1,571,1,0,1,72955,task3,1295063,false,false,1729,image-keyboard-response,5
true,25,1,1,1,true,z,false,true,0.0-2.0-0.57-0.521-3.521,1,0,0,90,false,stim,false,1,918,1,1,0,72955,task3,1297506,false,false,1732,image-keyboard-response,6
true,25,1,1,1,true,z,false,true,0.0-2.0-0.58-0.522-3.522,1,0,0,90,false,stim,false,1,774,1,1,0,72955,task3,1299808,false,false,1735,image-keyboard-response,7
true,25,0,1,2,false,d,true,false,0.0-2.0-0.58-0.523-3.523,1,0,0,81,false,stim,false,1,689,1,0,1,72955,task3,1302010,false,false,1738,image-keyboard-response,8
true,25,2,1,1,false,z,false,false,0.0-2.0-0.58-0.524-3.524,1,0,0,68,false,stim,true,2,1075,1,1,2,72955,task3,1304609,false,false,1741,image-keyboard-response,9
true,25,0,1,1,false,z,true,false,0.0-2.0-0.58-0.525-3.525,1,0,0,81,false,stim,false,2,525,1,1,2,72955,task3,1306677,false,false,1744,image-keyboard-response,10
true,25,1,1,1,true,z,false,true,0.0-2.0-0.58-0.526-3.526,1,0,0,90,false,stim,false,1,1327,1,1,0,72955,task3,1309539,false,false,1747,image-keyboard-response,11
true,25,1,1,1,true,z,false,false,0.0-2.0-0.58-0.527-3.527,1,0,0,90,false,stim,false,1,520,1,1,0,72955,task3,1311578,false,true,1750,image-keyboard-response,12
true,25,1,1,2,false,d,false,false,0.0-2.0-0.58-0.528-3.528,1,0,0,90,false,stim,true,1,469,1,1,1,72955,task3,1313582,false,false,1753,image-keyboard-response,13
true,26,2,0,1,false,z,true,false,0.0-2.0-0.58-0.529-3.529,1,1,1,68,true,stim,false,1,2429,1,1,2,72955,task3,1352271,false,false,1791,image-keyboard-response,1
true,26,0,0,2,false,d,true,false,0.0-2.0-0.58-0.530-3.530,1,1,1,81,false,stim,false,2,750,1,1,1,72955,task3,1354553,false,false,1794,image-keyboard-response,2
true,26,1,0,1,true,z,false,true,0.0-2.0-0.59-0.531-3.531,1,1,1,90,false,stim,false,1,597,1,1,2,72955,task3,1356670,false,false,1797,image-keyboard-response,3
true,26,1,0,2,false,d,true,false,0.0-2.0-0.59-0.532-3.532,1,1,1,90,false,stim,false,2,475,1,1,1,72955,task3,1358687,false,false,1800,image-keyboard-response,4
true,26,0,0,1,false,z,true,false,0.0-2.0-0.59-0.533-3.533,1,1,1,81,false,stim,false,1,721,1,1,0,72955,task3,1360954,false,false,1803,image-keyboard-response,5
true,26,1,0,1,true,z,false,true,0.0-2.0-0.59-0.534-3.534,1,1,1,90,false,stim,false,1,700,1,1,2,72955,task3,1363183,false,false,1806,image-keyboard-response,6
true,26,1,0,1,true,z,false,false,0.0-2.0-0.59-0.535-3.535,1,1,1,90,false,stim,false,1,661,1,1,2,72955,task3,1365374,false,true,1809,image-keyboard-response,7
true,26,2,0,1,false,z,true,false,0.0-2.0-0.59-0.536-3.536,1,1,1,68,false,stim,false,1,850,1,1,0,72955,task3,1367743,false,false,1812,image-keyboard-response,8
true,26,2,0,2,true,d,false,true,0.0-2.0-0.59-0.537-3.537,1,1,1,68,false,stim,false,2,571,1,1,1,72955,task3,1369824,false,false,1815,image-keyboard-response,9
true,26,2,0,2,true,d,false,true,0.0-2.0-0.59-0.538-3.538,1,1,1,68,false,stim,false,2,683,1,1,1,72955,task3,1372046,false,false,1818,image-keyboard-response,10
true,26,1,0,1,true,z,false,true,0.0-2.0-0.59-0.539-3.539,1,1,1,90,false,stim,false,1,586,1,0,0,72955,task3,1374159,false,false,1821,image-keyboard-response,11
true,26,2,0,2,true,d,false,true,0.0-2.0-0.60-0.540-3.540,1,1,1,68,false,stim,false,2,529,1,1,1,72955,task3,1376214,false,false,1824,image-keyboard-response,12
true,26,1,0,1,true,z,false,true,0.0-2.0-0.60-0.541-3.541,1,1,1,90,false,stim,false,1,420,1,0,0,72955,task3,1378173,false,false,1827,image-keyboard-response,13
true,26,2,0,2,true,d,false,true,0.0-2.0-0.60-0.542-3.542,1,1,1,68,false,stim,false,2,583,1,1,1,72955,task3,1380295,false,false,1830,image-keyboard-response,14
true,26,1,0,1,true,z,false,true,0.0-2.0-0.60-0.543-3.543,1,1,1,90,false,stim,false,1,453,1,0,2,72955,task3,1382276,false,false,1833,image-keyboard-response,15
true,27,1,1,0,false,q,false,false,0.0-2.0-0.60-0.544-3.544,0,1,0,90,true,stim,true,1,445,1,0,2,72955,task3,1384248,false,false,1836,image-keyboard-response,1
true,27,1,1,0,false,q,false,false,0.0-2.0-0.60-0.545-3.545,0,1,0,90,false,stim,true,1,568,1,0,2,72955,task3,1386336,false,false,1839,image-keyboard-response,2
true,27,1,1,2,false,d,false,false,0.0-2.0-0.60-0.546-3.546,0,1,0,90,false,stim,true,1,601,1,0,0,72955,task3,1388464,false,false,1842,image-keyboard-response,3
true,27,2,1,2,true,d,false,true,0.0-2.0-0.60-0.547-3.547,0,1,0,68,false,stim,false,2,649,1,1,1,72955,task3,1390632,false,false,1845,image-keyboard-response,4
true,27,0,1,2,false,d,true,false,0.0-2.0-0.60-0.548-3.548,0,1,0,81,false,stim,false,1,571,1,0,0,72955,task3,1392745,false,false,1848,image-keyboard-response,5
true,27,2,1,0,false,q,true,false,0.0-2.0-0.61-0.549-3.549,0,1,0,68,false,stim,false,1,849,1,0,2,72955,task3,1395118,false,false,1851,image-keyboard-response,6
true,27,0,1,2,false,d,true,false,0.0-2.0-0.61-0.550-3.550,0,1,0,81,false,stim,false,1,1064,1,0,0,72955,task3,1397696,false,false,1854,image-keyboard-response,7
true,27,0,1,0,true,q,false,false,0.0-2.0-0.61-0.551-3.551,0,1,0,81,false,stim,false,1,937,1,0,2,72955,task3,1400160,false,true,1857,image-keyboard-response,8
true,27,1,1,2,false,d,false,false,0.0-2.0-0.61-0.552-3.552,0,1,0,90,false,stim,true,1,873,1,0,0,72955,task3,1402566,false,false,1860,image-keyboard-response,9
true,27,2,1,2,true,d,false,true,0.0-2.0-0.61-0.553-3.553,0,1,0,68,false,stim,false,1,583,1,0,0,72955,task3,1404663,false,false,1863,image-keyboard-response,10
true,27,2,1,2,true,d,false,true,0.0-2.0-0.61-0.554-3.554,0,1,0,68,false,stim,false,2,746,1,1,1,72955,task3,1406948,false,false,1866,image-keyboard-response,11
true,27,2,1,2,true,d,false,true,0.0-2.0-0.61-0.555-3.555,0,1,0,68,false,stim,false,2,471,1,1,1,72955,task3,1408935,false,false,1869,image-keyboard-response,12
true,27,2,1,2,true,d,false,false,0.0-2.0-0.61-0.556-3.556,0,1,0,68,false,stim,false,2,429,1,1,1,72955,task3,1410882,false,true,1872,image-keyboard-response,13
true,27,2,1,0,false,q,true,false,0.0-2.0-0.61-0.557-3.557,0,1,0,68,false,stim,false,1,1007,1,0,2,72955,task3,1413425,false,false,1875,image-keyboard-response,14
true,27,2,1,2,true,d,false,true,0.0-2.0-0.62-0.558-3.558,0,1,0,68,false,stim,false,1,632,1,0,0,72955,task3,1415585,false,false,1878,image-keyboard-response,15
true,27,2,1,2,true,d,false,true,0.0-2.0-0.62-0.559-3.559,0,1,0,68,false,stim,false,1,478,1,0,0,72955,task3,1417592,false,false,1881,image-keyboard-response,16
true,27,2,1,2,true,d,false,true,0.0-2.0-0.62-0.560-3.560,0,1,0,68,false,stim,false,2,645,1,1,1,72955,task3,1419757,false,false,1884,image-keyboard-response,17
true,27,2,1,2,true,d,false,true,0.0-2.0-0.62-0.561-3.561,0,1,0,68,false,stim,false,2,447,1,1,1,72955,task3,1421732,false,false,1887,image-keyboard-response,18
true,27,1,1,0,false,q,false,false,0.0-2.0-0.62-0.562-3.562,0,1,0,90,false,stim,true,1,554,1,0,2,72955,task3,1423807,false,false,1890,image-keyboard-response,19
true,27,2,1,2,true,d,false,true,0.0-2.0-0.62-0.563-3.563,0,1,0,68,false,stim,false,1,685,1,0,0,72955,task3,1426028,false,false,1893,image-keyboard-response,20
true,27,2,1,2,true,d,false,true,0.0-2.0-0.62-0.564-3.564,0,1,0,68,false,stim,false,2,408,1,1,1,72955,task3,1427946,false,false,1896,image-keyboard-response,21
true,27,0,1,0,true,q,false,true,0.0-2.0-0.62-0.565-3.565,0,1,0,81,false,stim,false,1,566,1,1,2,72955,task3,1430039,false,false,1899,image-keyboard-response,22
true,27,0,1,0,true,q,false,true,0.0-2.0-0.62-0.566-3.566,0,1,0,81,false,stim,false,1,470,1,1,2,72955,task3,1432071,false,false,1902,image-keyboard-response,23
true,27,2,1,2,true,d,false,true,0.0-2.0-0.63-0.567-3.567,0,1,0,68,false,stim,false,2,548,1,1,1,72955,task3,1434162,false,false,1905,image-keyboard-response,24
true,27,2,1,2,true,d,false,true,0.0-2.0-0.63-0.568-3.568,0,1,0,68,false,stim,false,1,457,1,0,0,72955,task3,1436151,false,false,1908,image-keyboard-response,25
true,27,0,1,0,true,q,false,true,0.0-2.0-0.63-0.569-3.569,0,1,0,81,false,stim,false,1,509,1,1,2,72955,task3,1438192,false,false,1911,image-keyboard-response,26
true,28,0,2,0,true,q,false,false,0.0-2.0-0.63-0.570-3.570,0,1,1,81,true,stim,false,0,456,1,1,2,72955,task3,1440169,false,true,1914,image-keyboard-response,1
true,28,2,2,2,true,d,false,true,0.0-2.0-0.63-0.571-3.571,0,1,1,68,false,stim,false,2,484,1,1,1,72955,task3,1442197,false,false,1917,image-keyboard-response,2
true,28,2,2,1,false,z,false,false,0.0-2.0-0.63-0.572-3.572,0,1,1,68,false,stim,true,2,521,1,0,0,72955,task3,1444245,false,false,1920,image-keyboard-response,3
true,28,1,2,1,true,z,false,true,0.0-2.0-0.63-0.573-3.573,0,1,1,90,false,stim,false,2,1129,1,0,0,72955,task3,1446893,false,false,1923,image-keyboard-response,4
true,28,2,2,0,false,q,true,false,0.0-2.0-0.63-0.574-3.574,0,1,1,68,false,stim,false,0,616,1,1,2,72955,task3,1449038,false,false,1926,image-keyboard-response,5
true,28,2,2,2,true,d,false,true,0.0-2.0-0.63-0.575-3.575,0,1,1,68,false,stim,false,2,512,1,1,1,72955,task3,1451085,false,false,1929,image-keyboard-response,6
true,28,2,2,2,true,d,false,true,0.0-2.0-0.64-0.576-3.576,0,1,1,68,false,stim,false,2,582,1,1,1,72955,task3,1453195,false,false,1932,image-keyboard-response,7
true,28,2,2,2,true,d,false,true,0.0-2.0-0.64-0.577-3.577,0,1,1,68,false,stim,false,2,648,1,1,1,72955,task3,1455382,false,false,1935,image-keyboard-response,8
true,28,2,2,2,true,d,false,true,0.0-2.0-0.64-0.578-3.578,0,1,1,68,false,stim,false,2,626,1,1,1,72955,task3,1457551,false,false,1938,image-keyboard-response,9
true,28,1,2,0,false,q,true,false,0.0-2.0-0.64-0.579-3.579,0,1,1,90,false,stim,false,0,604,1,1,2,72955,task3,1459685,false,false,1941,image-keyboard-response,10
true,28,0,2,0,true,q,false,true,0.0-2.0-0.64-0.580-3.580,0,1,1,81,false,stim,false,0,770,1,1,2,72955,task3,1461983,false,false,1944,image-keyboard-response,11
true,28,1,2,1,true,z,false,true,0.0-2.0-0.64-0.581-3.581,0,1,1,90,false,stim,false,2,448,1,0,0,72955,task3,1463965,false,false,1947,image-keyboard-response,12
true,28,1,2,1,true,z,false,true,0.0-2.0-0.64-0.582-3.582,0,1,1,90,false,stim,false,2,478,1,0,0,72955,task3,1465976,false,false,1950,image-keyboard-response,13
true,28,1,2,1,true,z,false,true,0.0-2.0-0.64-0.583-3.583,0,1,1,90,false,stim,false,2,440,1,0,0,72955,task3,1467938,false,false,1953,image-keyboard-response,14
true,28,0,2,0,true,q,false,true,0.0-2.0-0.64-0.584-3.584,0,1,1,81,false,stim,false,0,574,1,1,2,72955,task3,1470038,false,false,1956,image-keyboard-response,15
true,28,0,2,0,true,q,false,true,0.0-2.0-0.65-0.585-3.585,0,1,1,81,false,stim,false,0,488,1,1,2,72955,task3,1472049,false,false,1959,image-keyboard-response,16
true,28,0,2,0,true,q,false,true,0.0-2.0-0.65-0.586-3.586,0,1,1,81,false,stim,false,0,501,1,1,2,72955,task3,1474062,false,false,1962,image-keyboard-response,17
true,28,0,2,0,true,q,false,true,0.0-2.0-0.65-0.587-3.587,0,1,1,81,false,stim,false,0,508,1,1,2,72955,task3,1476100,false,false,1965,image-keyboard-response,18
true,28,2,2,2,true,d,false,true,0.0-2.0-0.65-0.588-3.588,0,1,1,68,false,stim,false,2,557,1,1,1,72955,task3,1478191,false,false,1968,image-keyboard-response,19
true,28,2,2,2,true,d,false,true,0.0-2.0-0.65-0.589-3.589,0,1,1,68,false,stim,false,2,618,1,1,1,72955,task3,1480332,false,false,1971,image-keyboard-response,20
true,28,1,2,1,true,z,false,true,0.0-2.0-0.65-0.590-3.590,0,1,1,90,false,stim,false,2,697,1,0,0,72955,task3,1482562,false,false,1974,image-keyboard-response,21
true,28,1,2,1,true,z,false,true,0.0-2.0-0.65-0.591-3.591,0,1,1,90,false,stim,false,2,519,1,0,0,72955,task3,1484614,false,false,1977,image-keyboard-response,22
true,28,1,2,1,true,z,false,true,0.0-2.0-0.65-0.592-3.592,0,1,1,90,false,stim,false,2,482,1,0,0,72955,task3,1486635,false,false,1980,image-keyboard-response,23
true,28,2,2,2,true,d,false,true,0.0-2.0-0.65-0.593-3.593,0,1,1,68,false,stim,false,2,671,1,1,1,72955,task3,1488825,false,false,1983,image-keyboard-response,24
true,29,2,1,2,true,d,false,true,0.0-2.0-0.66-0.594-3.594,0,1,0,68,true,stim,false,2,449,1,1,1,72955,task3,1490812,false,false,1986,image-keyboard-response,1
true,29,1,1,2,false,d,false,false,0.0-2.0-0.66-0.595-3.595,0,1,0,90,false,stim,true,1,707,1,0,0,72955,task3,1493050,false,false,1989,image-keyboard-response,2
true,29,0,1,1,false,z,false,false,0.0-2.0-0.66-0.596-3.596,0,1,0,81,false,stim,true,0,872,1,0,2,72955,task3,1495465,false,false,1992,image-keyboard-response,3
true,29,2,1,2,true,d,false,true,0.0-2.0-0.66-0.597-3.597,0,1,0,68,false,stim,false,1,1018,1,0,0,72955,task3,1498015,false,false,1995,image-keyboard-response,4
true,29,2,1,2,true,d,false,true,0.0-2.0-0.66-0.598-3.598,0,1,0,68,false,stim,false,2,689,1,1,1,72955,task3,1500244,false,false,1998,image-keyboard-response,5
true,29,2,1,1,false,z,true,false,0.0-2.0-0.66-0.599-3.599,0,1,0,68,false,stim,false,0,549,1,0,2,72955,task3,1502367,false,false,2001,image-keyboard-response,6
true,29,1,1,1,true,z,false,false,0.0-2.0-0.66-0.600-3.600,0,1,0,90,false,stim,false,0,982,1,0,2,72955,task3,1504884,false,true,2004,image-keyboard-response,7
true,29,2,1,2,true,d,false,false,0.0-2.0-0.66-0.601-3.601,0,1,0,68,false,stim,false,1,607,1,0,0,72955,task3,1507031,false,true,2007,image-keyboard-response,8
true,29,2,1,2,true,d,false,true,0.0-2.0-0.66-0.602-3.602,0,1,0,68,false,stim,false,2,515,1,1,1,72955,task3,1509064,false,false,2010,image-keyboard-response,9
true,29,0,1,2,false,d,true,false,0.0-2.0-0.67-0.603-3.603,0,1,0,81,false,stim,false,1,1045,1,0,0,72955,task3,1511639,false,false,2013,image-keyboard-response,10
true,29,0,1,1,false,z,false,false,0.0-2.0-0.67-0.604-3.604,0,1,0,81,false,stim,true,0,872,1,0,2,72955,task3,1514036,false,false,2016,image-keyboard-response,11
true,29,2,1,1,false,z,true,false,0.0-2.0-0.67-0.605-3.605,0,1,0,68,false,stim,false,0,550,1,0,2,72955,task3,1516124,false,false,2019,image-keyboard-response,12
true,29,1,1,1,true,z,false,false,0.0-2.0-0.67-0.606-3.606,0,1,0,90,false,stim,false,0,445,1,0,2,72955,task3,1518099,false,true,2022,image-keyboard-response,13
true,29,2,1,2,true,d,false,true,0.0-2.0-0.67-0.607-3.607,0,1,0,68,false,stim,false,2,666,1,1,1,72955,task3,1520300,false,false,2025,image-keyboard-response,14
true,29,2,1,2,true,d,false,false,0.0-2.0-0.67-0.608-3.608,0,1,0,68,false,stim,false,2,464,1,1,1,72955,task3,1522284,false,true,2028,image-keyboard-response,15
true,29,2,1,2,true,d,false,false,0.0-2.0-0.67-0.609-3.609,0,1,0,68,false,stim,false,1,501,1,0,0,72955,task3,1524305,false,true,2031,image-keyboard-response,16
true,29,2,1,2,true,d,false,true,0.0-2.0-0.67-0.610-3.610,0,1,0,68,false,stim,false,2,514,1,1,1,72955,task3,1526338,false,false,2034,image-keyboard-response,17
true,29,0,1,2,false,d,true,false,0.0-2.0-0.67-0.611-3.611,0,1,0,81,false,stim,false,1,531,1,0,0,72955,task3,1528396,false,false,2037,image-keyboard-response,18
true,29,0,1,1,false,z,false,false,0.0-2.0-0.68-0.612-3.612,0,1,0,81,false,stim,true,0,1166,1,0,2,72955,task3,1531091,false,false,2040,image-keyboard-response,19
true,29,1,1,1,true,z,false,true,0.0-2.0-0.68-0.613-3.613,0,1,0,90,false,stim,false,0,668,1,0,2,72955,task3,1533303,false,false,2043,image-keyboard-response,20
true,29,2,1,2,true,d,false,true,0.0-2.0-0.68-0.614-3.614,0,1,0,68,false,stim,false,2,628,1,1,1,72955,task3,1535453,false,false,2046,image-keyboard-response,21
true,29,2,1,1,false,z,true,false,0.0-2.0-0.68-0.615-3.615,0,1,0,68,false,stim,false,0,649,1,0,2,72955,task3,1537624,false,false,2049,image-keyboard-response,22
true,29,2,1,2,true,d,false,true,0.0-2.0-0.68-0.616-3.616,0,1,0,68,false,stim,false,2,555,1,1,1,72955,task3,1539701,false,false,2052,image-keyboard-response,23
true,29,1,1,2,false,d,false,false,0.0-2.0-0.68-0.617-3.617,0,1,0,90,false,stim,true,1,819,1,0,0,72955,task3,1542064,false,false,2055,image-keyboard-response,24
true,29,2,1,2,true,d,false,false,0.0-2.0-0.68-0.618-3.618,0,1,0,68,false,stim,false,1,581,1,0,0,72955,task3,1544174,false,true,2058,image-keyboard-response,25
true,29,0,1,2,false,d,true,false,0.0-2.0-0.68-0.619-3.619,0,1,0,81,false,stim,false,1,356,1,0,0,72955,task3,1546071,false,false,2061,image-keyboard-response,26
true,29,2,1,2,true,d,false,true,0.0-2.0-0.68-0.620-3.620,0,1,0,68,false,stim,false,2,616,1,0,1,72955,task3,1548218,false,false,2064,image-keyboard-response,27
true,29,1,1,2,false,d,false,false,0.0-2.0-0.69-0.621-3.621,0,1,0,90,false,stim,true,1,555,1,0,0,72955,task3,1550310,false,false,2067,image-keyboard-response,28
true,29,0,1,2,false,d,true,false,0.0-2.0-0.69-0.622-3.622,0,1,0,81,false,stim,false,1,506,1,0,0,72955,task3,1552349,false,false,2070,image-keyboard-response,29
true,30,2,1,0,false,q,false,false,0.0-2.0-0.69-0.623-3.623,0,0,1,68,true,stim,true,2,516,1,0,1,72955,task3,1554401,false,false,2073,image-keyboard-response,1
true,30,2,1,0,false,q,false,false,0.0-2.0-0.69-0.624-3.624,0,0,1,68,false,stim,true,2,429,1,0,0,72955,task3,1556375,false,false,2076,image-keyboard-response,2
true,30,1,1,1,true,z,false,true,0.0-2.0-0.69-0.625-3.625,0,0,1,90,false,stim,false,1,643,1,1,2,72955,task3,1558531,false,false,2079,image-keyboard-response,3
true,30,1,1,1,true,z,false,true,0.0-2.0-0.69-0.626-3.626,0,0,1,90,false,stim,false,1,635,1,1,2,72955,task3,1560696,false,false,2082,image-keyboard-response,4
true,30,1,1,1,true,z,false,true,0.0-2.0-0.69-0.627-3.627,0,0,1,90,false,stim,false,1,453,1,1,2,72955,task3,1562676,false,false,2085,image-keyboard-response,5
true,30,0,1,0,true,q,false,true,0.0-2.0-0.69-0.628-3.628,0,0,1,81,false,stim,false,2,570,1,0,1,72955,task3,1564765,false,false,2088,image-keyboard-response,6
true,30,0,1,0,true,q,false,false,0.0-2.0-0.69-0.629-3.629,0,0,1,81,false,stim,false,2,423,1,0,1,72955,task3,1566706,false,true,2091,image-keyboard-response,7
true,30,0,1,0,true,q,false,true,0.0-2.0-0.70-0.630-3.630,0,0,1,81,false,stim,false,2,433,1,0,1,72955,task3,1568667,false,false,2094,image-keyboard-response,8
true,30,1,1,1,true,z,false,true,0.0-2.0-0.70-0.631-3.631,0,0,1,90,false,stim,false,1,808,1,1,2,72955,task3,1571001,false,false,2097,image-keyboard-response,9
true,30,2,1,0,false,q,false,false,0.0-2.0-0.70-0.632-3.632,0,0,1,68,false,stim,true,2,596,1,0,0,72955,task3,1573116,false,false,2100,image-keyboard-response,10
true,30,1,1,0,false,q,true,false,0.0-2.0-0.70-0.633-3.633,0,0,1,90,false,stim,false,2,631,1,0,0,72955,task3,1575306,false,false,2103,image-keyboard-response,11
