answered,blockNum,choice,condition,corResp,correct,correct_response,explo,fb,internal_node_id,isStable_1,isStable_2,isStable_3,key_press,newBlock,part,persev,persevResp,rt,sessNum,stableAS,stimulus,subject,task,time_elapsed,training,trap,trial_index,trial_type,trialsInBlock
true,1,0,0,1,false,z,true,false,0.0-2.0-0.0-0.0-3.0,0,0,0,81,true,stim,false,-1,711.7000000476837,1,0,0,74339,task2,197732,false,false,135,image-keyboard-response,1
true,1,0,0,0,true,q,false,true,0.0-2.0-0.0-0.1-3.1,0,0,0,81,false,stim,false,-1,579.2000000476837,1,0,1,74339,task2,199820,false,false,138,image-keyboard-response,2
true,1,0,0,1,false,z,true,false,0.0-2.0-0.0-0.2-3.2,0,0,0,81,false,stim,false,-1,504.19999980926514,1,0,2,74339,task2,201864,false,false,141,image-keyboard-response,3
true,1,0,0,1,false,z,true,false,0.0-2.0-0.0-0.3-3.3,0,0,0,81,false,stim,false,-1,2402.2000000476837,1,0,0,74339,task2,205796,false,false,144,image-keyboard-response,4
true,1,0,0,0,true,q,false,true,0.0-2.0-0.0-0.4-3.4,0,0,0,81,false,stim,false,-1,422.2999999523163,1,0,1,74339,task2,207730,false,false,147,image-keyboard-response,5
true,1,1,0,1,true,z,false,false,0.0-2.0-0.0-0.5-3.5,0,0,0,90,false,stim,false,-1,519.2999999523163,1,0,0,74339,task2,209768,false,true,150,image-keyboard-response,6
true,1,1,0,1,true,z,false,true,0.0-2.0-0.0-0.6-3.6,0,0,0,90,false,stim,false,-1,655.0,1,0,2,74339,task2,211937,false,false,153,image-keyboard-response,7
true,1,0,0,0,true,q,false,true,0.0-2.0-0.0-0.7-3.7,0,0,0,81,false,stim,false,-1,641.1000001430511,1,0,1,74339,task2,214085,false,false,156,image-keyboard-response,8
true,1,1,0,1,true,z,false,true,0.0-2.0-0.0-0.8-3.8,0,0,0,90,false,stim,false,-1,511.59999990463257,1,0,2,74339,task2,216120,false,false,159,image-keyboard-response,9
true,1,1,0,1,true,z,false,true,0.0-2.0-0.1-0.9-3.9,0,0,0,90,false,stim,false,-1,485.7999999523163,1,0,2,74339,task2,218124,false,false,162,image-keyboard-response,10
true,1,0,0,0,true,q,false,true,0.0-2.0-0.1-0.10-3.10,0,0,0,81,false,stim,false,-1,841.9000000953674,1,0,1,74339,task2,220493,false,false,165,image-keyboard-response,11
true,1,0,0,0,true,q,false,true,0.0-2.0-0.1-0.11-3.11,0,0,0,81,false,stim,false,-1,483.5,1,0,1,74339,task2,222505,false,false,168,image-keyboard-response,12
true,1,2,0,1,false,z,true,false,0.0-2.0-0.1-0.12-3.12,0,0,0,68,false,stim,false,-1,523.9000000953674,1,0,0,74339,task2,224559,false,false,171,image-keyboard-response,13
true,1,1,0,1,true,z,false,true,0.0-2.0-0.1-0.13-3.13,0,0,0,90,false,stim,false,-1,722.1000001430511,1,0,2,74339,task2,226803,false,false,174,image-keyboard-response,14
true,1,1,0,1,true,z,false,true,0.0-2.0-0.1-0.14-3.14,0,0,0,90,false,stim,false,-1,518.6999998092651,1,0,2,74339,task2,228848,false,false,177,image-keyboard-response,15
true,1,1,0,1,true,z,false,true,0.0-2.0-0.1-0.15-3.15,0,0,0,90,false,stim,false,-1,547.8999998569489,1,0,0,74339,task2,230922,false,false,180,image-keyboard-response,16
true,1,0,0,0,true,q,false,true,0.0-2.0-0.1-0.16-3.16,0,0,0,81,false,stim,false,-1,717.7000000476837,1,0,1,74339,task2,233158,false,false,183,image-keyboard-response,17
true,1,1,0,1,true,z,false,true,0.0-2.0-0.1-0.17-3.17,0,0,0,90,false,stim,false,-1,480.5,1,0,0,74339,task2,235160,false,false,186,image-keyboard-response,18
true,1,0,0,0,true,q,false,true,0.0-2.0-0.2-0.18-3.18,0,0,0,81,false,stim,false,-1,763.2999999523163,1,0,1,74339,task2,237461,false,false,189,image-keyboard-response,19
true,1,1,0,1,true,z,false,true,0.0-2.0-0.2-0.19-3.19,0,0,0,90,false,stim,false,-1,392.40000009536743,1,0,2,74339,task2,239375,false,false,192,image-keyboard-response,20
true,1,1,0,1,true,z,false,true,0.0-2.0-0.2-0.20-3.20,0,0,0,90,false,stim,false,-1,390.2999999523163,1,0,0,74339,task2,241297,false,false,195,image-keyboard-response,21
true,1,1,0,1,true,z,false,true,0.0-2.0-0.2-0.21-3.21,0,0,0,90,false,stim,false,-1,731.3999998569489,1,0,2,74339,task2,243550,false,false,198,image-keyboard-response,22
true,1,0,0,0,true,q,false,false,0.0-2.0-0.2-0.22-3.22,0,0,0,81,false,stim,false,-1,648.0999999046326,1,0,1,74339,task2,245714,false,true,201,image-keyboard-response,23
true,1,1,0,1,true,z,false,true,0.0-2.0-0.2-0.23-3.23,0,0,0,90,false,stim,false,-1,498.59999990463257,1,1,0,74339,task2,247732,false,false,204,image-keyboard-response,24
true,1,0,0,0,true,q,false,true,0.0-2.0-0.2-0.24-3.24,0,0,0,81,false,stim,false,-1,451.7999999523163,1,0,1,74339,task2,249697,false,false,207,image-keyboard-response,25
true,1,1,0,1,true,z,false,true,0.0-2.0-0.2-0.25-3.25,0,0,0,90,false,stim,false,-1,607.3999998569489,1,1,0,74339,task2,251839,false,false,210,image-keyboard-response,26
true,2,1,2,2,false,d,false,true,0.0-2.0-0.2-0.26-3.26,1,0,0,90,true,stim,true,1,571.0,1,0,2,74339,task2,253920,false,true,213,image-keyboard-response,1
true,2,1,2,2,false,d,false,false,0.0-2.0-0.3-0.27-3.27,1,0,0,90,false,stim,true,1,441.0,1,0,2,74339,task2,255877,false,false,216,image-keyboard-response,2
true,2,1,2,1,true,z,false,true,0.0-2.0-0.3-0.28-3.28,1,0,0,90,false,stim,false,1,555.7999999523163,1,1,0,74339,task2,257952,false,false,219,image-keyboard-response,3
true,2,1,2,2,false,d,false,false,0.0-2.0-0.3-0.29-3.29,1,0,0,90,false,stim,true,1,511.5,1,0,2,74339,task2,259994,false,false,222,image-keyboard-response,4
true,2,0,2,2,false,d,false,false,0.0-2.0-0.3-0.30-3.30,1,0,0,81,false,stim,true,0,682.2999999523163,1,0,1,74339,task2,262198,false,false,225,image-keyboard-response,5
true,2,0,2,2,false,d,false,false,0.0-2.0-0.3-0.31-3.31,1,0,0,81,false,stim,true,0,562.0,1,0,1,74339,task2,264274,false,false,228,image-keyboard-response,6
true,2,1,2,2,false,d,true,false,0.0-2.0-0.3-0.32-3.32,1,0,0,90,false,stim,false,0,600.7000000476837,1,0,1,74339,task2,266400,false,false,231,image-keyboard-response,7
true,2,1,2,1,true,z,false,true,0.0-2.0-0.3-0.33-3.33,1,0,0,90,false,stim,false,1,767.7999999523163,1,1,0,74339,task2,268699,false,false,234,image-keyboard-response,8
true,2,1,2,1,true,z,false,true,0.0-2.0-0.3-0.34-3.34,1,0,0,90,false,stim,false,1,497.7000000476837,1,1,0,74339,task2,270731,false,false,237,image-keyboard-response,9
true,2,2,2,2,true,d,false,true,0.0-2.0-0.3-0.35-3.35,1,0,0,68,false,stim,false,1,576.8000001907349,1,0,2,74339,task2,272820,false,false,240,image-keyboard-response,10
true,2,2,2,2,true,d,false,false,0.0-2.0-0.4-0.36-3.36,1,0,0,68,false,stim,false,1,467.5,1,0,2,74339,task2,274804,false,true,243,image-keyboard-response,11
true,2,1,2,1,true,z,false,true,0.0-2.0-0.4-0.37-3.37,1,0,0,90,false,stim,false,1,712.1999998092651,1,1,0,74339,task2,277044,false,false,246,image-keyboard-response,12
true,2,2,2,2,true,d,false,false,0.0-2.0-0.4-0.38-3.38,1,0,0,68,false,stim,false,0,569.7000000476837,1,0,1,74339,task2,279141,false,true,249,image-keyboard-response,13
true,2,1,2,2,false,d,true,false,0.0-2.0-0.4-0.39-3.39,1,0,0,90,false,stim,false,0,664.4000000953674,1,0,1,74339,task2,281327,false,false,252,image-keyboard-response,14
true,2,0,2,2,false,d,false,false,0.0-2.0-0.4-0.40-3.40,1,0,0,81,false,stim,true,0,709.2000000476837,1,0,1,74339,task2,283558,false,false,255,image-keyboard-response,15
true,2,1,2,2,false,d,false,false,0.0-2.0-0.4-0.41-3.41,1,0,0,90,false,stim,true,1,1043.7999999523163,1,0,2,74339,task2,286131,false,false,258,image-keyboard-response,16
true,2,2,2,2,true,d,false,true,0.0-2.0-0.4-0.42-3.42,1,0,0,68,false,stim,false,1,962.1000001430511,1,0,2,74339,task2,288623,false,false,261,image-keyboard-response,17
true,2,1,2,1,true,z,false,true,0.0-2.0-0.4-0.43-3.43,1,0,0,90,false,stim,false,1,843.1000001430511,1,1,0,74339,task2,290989,false,false,264,image-keyboard-response,18
true,2,1,2,1,true,z,false,false,0.0-2.0-0.4-0.44-3.44,1,0,0,90,false,stim,false,1,548.7000000476837,1,1,0,74339,task2,293064,false,true,267,image-keyboard-response,19
true,2,1,2,1,true,z,false,true,0.0-2.0-0.5-0.45-3.45,1,0,0,90,false,stim,false,1,457.7999999523163,1,1,0,74339,task2,295047,false,false,270,image-keyboard-response,20
true,2,2,2,2,true,d,false,true,0.0-2.0-0.5-0.46-3.46,1,0,0,68,false,stim,false,0,867.7000000476837,1,0,1,74339,task2,297455,false,false,273,image-keyboard-response,21
true,2,2,2,2,true,d,false,true,0.0-2.0-0.5-0.47-3.47,1,0,0,68,false,stim,false,1,572.7000000476837,1,0,2,74339,task2,299550,false,false,276,image-keyboard-response,22
true,2,2,2,2,true,d,false,true,0.0-2.0-0.5-0.48-3.48,1,0,0,68,false,stim,false,0,380.89999985694885,1,0,1,74339,task2,301463,false,false,279,image-keyboard-response,23
true,2,1,2,1,true,z,false,true,0.0-2.0-0.5-0.49-3.49,1,0,0,90,false,stim,false,1,517.1000001430511,1,1,0,74339,task2,303490,false,false,282,image-keyboard-response,24
true,2,2,2,2,true,d,false,true,0.0-2.0-0.5-0.50-3.50,1,0,0,68,false,stim,false,0,536.0,1,0,1,74339,task2,305552,false,false,285,image-keyboard-response,25
true,2,1,2,1,true,z,false,false,0.0-2.0-0.5-0.51-3.51,1,0,0,90,false,stim,false,1,526.5999999046326,1,1,0,74339,task2,307601,false,true,288,image-keyboard-response,26
true,2,2,2,2,true,d,false,true,0.0-2.0-0.5-0.52-3.52,1,0,0,68,false,stim,false,1,457.59999990463257,1,0,2,74339,task2,309589,false,false,291,image-keyboard-response,27
true,2,2,2,2,true,d,false,true,0.0-2.0-0.5-0.53-3.53,1,0,0,68,false,stim,false,1,411.89999985694885,1,0,2,74339,task2,311521,false,false,294,image-keyboard-response,28
true,2,1,2,1,true,z,false,false,0.0-2.0-0.6-0.54-3.54,1,0,0,90,false,stim,false,1,578.8000001907349,1,0,0,74339,task2,313624,false,true,297,image-keyboard-response,29
true,2,2,2,2,true,d,false,true,0.0-2.0-0.6-0.55-3.55,1,0,0,68,false,stim,false,0,451.69999980926514,1,0,1,74339,task2,315599,false,false,300,image-keyboard-response,30
true,2,0,2,1,false,z,true,true,0.0-2.0-0.6-0.56-3.56,1,0,0,81,false,stim,false,1,575.7000000476837,1,0,0,74339,task2,318010,false,true,303,image-keyboard-response,31
true,2,2,2,2,true,d,false,true,0.0-2.0-0.6-0.57-3.57,1,0,0,68,false,stim,false,1,496.5,1,1,2,74339,task2,320037,false,false,306,image-keyboard-response,32
true,2,2,2,2,true,d,false,true,0.0-2.0-0.6-0.58-3.58,1,0,0,68,false,stim,false,0,347.09999990463257,1,0,1,74339,task2,321908,false,false,309,image-keyboard-response,33
true,3,2,2,2,true,d,false,true,0.0-2.0-0.6-0.59-3.59,0,0,1,68,true,stim,false,2,417.0,1,1,2,74339,task2,323836,false,false,312,image-keyboard-response,1
true,3,2,2,2,true,d,false,true,0.0-2.0-0.6-0.60-3.60,0,0,1,68,false,stim,false,2,367.10000014305115,1,1,2,74339,task2,325725,false,false,315,image-keyboard-response,2
true,3,2,2,0,false,q,false,false,0.0-2.0-0.6-0.61-3.61,0,0,1,68,false,stim,true,2,405.10000014305115,1,0,1,74339,task2,327646,false,false,318,image-keyboard-response,3
true,3,0,2,0,true,q,false,false,0.0-2.0-0.6-0.62-3.62,0,0,1,81,false,stim,false,1,453.2999999523163,1,0,0,74339,task2,329624,false,true,321,image-keyboard-response,4
true,3,2,2,2,true,d,false,true,0.0-2.0-0.7-0.63-3.63,0,0,1,68,false,stim,false,2,382.7000000476837,1,1,2,74339,task2,331528,false,false,324,image-keyboard-response,5
true,3,2,2,0,false,q,false,true,0.0-2.0-0.7-0.64-3.64,0,0,1,68,false,stim,true,2,362.2999999523163,1,0,1,74339,task2,333414,false,true,327,image-keyboard-response,6
true,3,2,2,0,false,q,false,false,0.0-2.0-0.7-0.65-3.65,0,0,1,68,false,stim,true,2,364.09999990463257,1,0,1,74339,task2,335300,false,false,330,image-keyboard-response,7
true,3,2,2,2,true,d,false,true,0.0-2.0-0.7-0.66-3.66,0,0,1,68,false,stim,false,2,415.59999990463257,1,1,2,74339,task2,337242,false,false,333,image-keyboard-response,8
true,3,0,2,0,true,q,false,true,0.0-2.0-0.7-0.67-3.67,0,0,1,81,false,stim,false,1,519.0,1,0,0,74339,task2,339283,false,false,336,image-keyboard-response,9
true,3,2,2,0,false,q,false,false,0.0-2.0-0.7-0.68-3.68,0,0,1,68,false,stim,true,2,503.2999999523163,1,0,1,74339,task2,341311,false,false,339,image-keyboard-response,10
true,3,0,2,0,true,q,false,true,0.0-2.0-0.7-0.69-3.69,0,0,1,81,false,stim,false,1,567.3999998569489,1,0,0,74339,task2,343406,false,false,342,image-keyboard-response,11
true,3,2,2,2,true,d,false,true,0.0-2.0-0.7-0.70-3.70,0,0,1,68,false,stim,false,2,423.2999999523163,1,1,2,74339,task2,345352,false,false,345,image-keyboard-response,12
true,3,0,2,0,true,q,false,true,0.0-2.0-0.7-0.71-3.71,0,0,1,81,false,stim,false,1,538.4000000953674,1,0,0,74339,task2,347417,false,false,348,image-keyboard-response,13
true,3,1,2,0,false,q,true,false,0.0-2.0-0.8-0.72-3.72,0,0,1,90,false,stim,false,2,528.9000000953674,1,0,1,74339,task2,349473,false,false,351,image-keyboard-response,14
true,3,0,2,0,true,q,false,true,0.0-2.0-0.8-0.73-3.73,0,0,1,81,false,stim,false,1,544.2999999523163,1,0,0,74339,task2,351549,false,false,354,image-keyboard-response,15
true,3,0,2,0,true,q,false,true,0.0-2.0-0.8-0.74-3.74,0,0,1,81,false,stim,false,2,440.10000014305115,1,0,1,74339,task2,353506,false,false,357,image-keyboard-response,16
true,3,2,2,2,true,d,false,true,0.0-2.0-0.8-0.75-3.75,0,0,1,68,false,stim,false,2,647.4000000953674,1,1,2,74339,task2,355685,false,false,360,image-keyboard-response,17
true,3,0,2,0,true,q,false,true,0.0-2.0-0.8-0.76-3.76,0,0,1,81,false,stim,false,1,488.2000000476837,1,0,0,74339,task2,357698,false,false,363,image-keyboard-response,18
true,3,2,2,2,true,d,false,true,0.0-2.0-0.8-0.77-3.77,0,0,1,68,false,stim,false,2,711.9000000953674,1,1,2,74339,task2,359934,false,false,366,image-keyboard-response,19
true,3,0,2,0,true,q,false,true,0.0-2.0-0.8-0.78-3.78,0,0,1,81,false,stim,false,1,370.2000000476837,1,0,0,74339,task2,361835,false,false,369,image-keyboard-response,20
true,3,0,2,0,true,q,false,true,0.0-2.0-0.8-0.79-3.79,0,0,1,81,false,stim,false,2,549.0,1,0,1,74339,task2,363902,false,false,372,image-keyboard-response,21
true,3,2,2,2,true,d,false,true,0.0-2.0-0.8-0.80-3.80,0,0,1,68,false,stim,false,2,586.9000000953674,1,1,2,74339,task2,366017,false,false,375,image-keyboard-response,22
true,3,0,2,0,true,q,false,true,0.0-2.0-0.9-0.81-3.81,0,0,1,81,false,stim,false,1,414.09999990463257,1,0,0,74339,task2,367940,false,false,378,image-keyboard-response,23
true,3,0,2,2,false,d,true,true,0.0-2.0-0.9-0.82-3.82,0,0,1,81,false,stim,false,2,1134.6000001430511,1,1,2,74339,task2,370586,false,true,381,image-keyboard-response,24
true,3,0,2,2,false,d,true,false,0.0-2.0-0.9-0.83-3.83,0,0,1,81,false,stim,false,2,479.60000014305115,1,1,2,74339,task2,372594,false,false,384,image-keyboard-response,25
true,3,2,2,0,false,q,false,false,0.0-2.0-0.9-0.84-3.84,0,0,1,68,false,stim,true,2,571.0,1,0,1,74339,task2,374684,false,false,387,image-keyboard-response,26
true,3,0,2,0,true,q,false,true,0.0-2.0-0.9-0.85-3.85,0,0,1,81,false,stim,false,2,706.2999999523163,1,0,1,74339,task2,376910,false,false,390,image-keyboard-response,27
true,3,2,2,2,true,d,false,true,0.0-2.0-0.9-0.86-3.86,0,0,1,68,false,stim,false,2,661.5999999046326,1,0,2,74339,task2,379088,false,false,393,image-keyboard-response,28
true,3,0,2,0,true,q,false,true,0.0-2.0-0.9-0.87-3.87,0,0,1,81,false,stim,false,1,442.5,1,0,0,74339,task2,381054,false,false,396,image-keyboard-response,29
true,3,0,2,0,true,q,false,false,0.0-2.0-0.9-0.88-3.88,0,0,1,81,false,stim,false,1,444.09999990463257,1,0,0,74339,task2,383024,false,true,399,image-keyboard-response,30
true,3,0,2,0,true,q,false,true,0.0-2.0-0.9-0.89-3.89,0,0,1,81,false,stim,false,2,610.7000000476837,1,0,1,74339,task2,385160,false,false,402,image-keyboard-response,31
true,4,2,1,1,false,z,false,false,0.0-2.0-0.10-0.90-3.90,0,0,0,68,true,stim,true,2,592.3000001907349,1,0,2,74339,task2,387258,false,false,405,image-keyboard-response,1
true,4,0,1,2,false,d,false,true,0.0-2.0-0.10-0.91-3.91,0,0,0,81,false,stim,true,0,449.60000014305115,1,0,1,74339,task2,389226,false,true,408,image-keyboard-response,2
true,4,0,1,1,false,z,true,false,0.0-2.0-0.10-0.92-3.92,0,0,0,81,false,stim,false,2,511.40000009536743,1,0,2,74339,task2,391258,false,false,411,image-keyboard-response,3
true,4,1,1,1,true,z,false,true,0.0-2.0-0.10-0.93-3.93,0,0,0,90,false,stim,false,2,580.2000000476837,1,0,2,74339,task2,393356,false,false,414,image-keyboard-response,4
true,4,0,1,2,false,d,false,false,0.0-2.0-0.10-0.94-3.94,0,0,0,81,false,stim,true,0,495.2000000476837,1,0,1,74339,task2,395382,false,false,417,image-keyboard-response,5
true,4,0,1,2,false,d,false,false,0.0-2.0-0.10-0.95-3.95,0,0,0,81,false,stim,true,0,656.2000000476837,1,0,1,74339,task2,397560,false,false,420,image-keyboard-response,6
true,4,0,1,2,false,d,false,false,0.0-2.0-0.10-0.96-3.96,0,0,0,81,false,stim,true,0,513.6000001430511,1,0,0,74339,task2,399598,false,false,423,image-keyboard-response,7
true,4,0,1,2,false,d,false,true,0.0-2.0-0.10-0.97-3.97,0,0,0,81,false,stim,true,0,377.40000009536743,1,0,0,74339,task2,401501,false,true,426,image-keyboard-response,8
true,4,0,1,2,false,d,false,false,0.0-2.0-0.10-0.98-3.98,0,0,0,81,false,stim,true,0,441.60000014305115,1,0,0,74339,task2,403477,false,false,429,image-keyboard-response,9
true,4,0,1,2,false,d,false,false,0.0-2.0-0.11-0.99-3.99,0,0,0,81,false,stim,true,0,389.69999980926514,1,0,0,74339,task2,405393,false,false,432,image-keyboard-response,10
true,4,1,1,2,false,d,true,false,0.0-2.0-0.11-0.100-3.100,0,0,0,90,false,stim,false,0,457.5,1,0,1,74339,task2,407381,false,false,435,image-keyboard-response,11
true,4,1,1,1,true,z,false,true,0.0-2.0-0.11-0.101-3.101,0,0,0,90,false,stim,false,2,551.3000001907349,1,0,2,74339,task2,409456,false,false,438,image-keyboard-response,12
true,4,2,1,2,true,d,false,true,0.0-2.0-0.11-0.102-3.102,0,0,0,68,false,stim,false,0,523.3000001907349,1,0,1,74339,task2,411510,false,false,441,image-keyboard-response,13
true,4,1,1,1,true,z,false,true,0.0-2.0-0.11-0.103-3.103,0,0,0,90,false,stim,false,2,769.5,1,0,2,74339,task2,413799,false,false,444,image-keyboard-response,14
true,4,1,1,1,true,z,false,true,0.0-2.0-0.11-0.104-3.104,0,0,0,90,false,stim,false,2,527.3999998569489,1,0,2,74339,task2,415851,false,false,447,image-keyboard-response,15
true,4,2,1,2,true,d,false,true,0.0-2.0-0.11-0.105-3.105,0,0,0,68,false,stim,false,0,498.09999990463257,1,0,1,74339,task2,417868,false,false,450,image-keyboard-response,16
true,4,1,1,2,false,d,true,false,0.0-2.0-0.11-0.106-3.106,0,0,0,90,false,stim,false,0,678.6000001430511,1,0,0,74339,task2,420072,false,false,453,image-keyboard-response,17
true,4,0,1,2,false,d,false,false,0.0-2.0-0.11-0.107-3.107,0,0,0,81,false,stim,true,0,534.4000000953674,1,0,0,74339,task2,422136,false,false,456,image-keyboard-response,18
true,4,2,1,2,true,d,false,false,0.0-2.0-0.12-0.108-3.108,0,0,0,68,false,stim,false,0,895.0,1,0,1,74339,task2,424556,false,true,459,image-keyboard-response,19
true,4,1,1,1,true,z,false,true,0.0-2.0-0.12-0.109-3.109,0,0,0,90,false,stim,false,2,1082.4000000953674,1,0,2,74339,task2,427167,false,false,462,image-keyboard-response,20
true,4,1,1,1,true,z,false,true,0.0-2.0-0.12-0.110-3.110,0,0,0,90,false,stim,false,2,346.59999990463257,1,0,2,74339,task2,429046,false,false,465,image-keyboard-response,21
true,4,2,1,2,true,d,false,true,0.0-2.0-0.12-0.111-3.111,0,0,0,68,false,stim,false,0,593.3000001907349,1,0,0,74339,task2,431167,false,false,468,image-keyboard-response,22
true,4,2,1,2,true,d,false,true,0.0-2.0-0.12-0.112-3.112,0,0,0,68,false,stim,false,0,386.10000014305115,1,0,0,74339,task2,433084,false,false,471,image-keyboard-response,23
true,4,2,1,1,false,z,false,false,0.0-2.0-0.12-0.113-3.113,0,0,0,68,false,stim,true,2,540.9000000953674,1,0,2,74339,task2,435145,false,false,474,image-keyboard-response,24
true,4,2,1,2,true,d,false,true,0.0-2.0-0.12-0.114-3.114,0,0,0,68,false,stim,false,0,432.2999999523163,1,0,1,74339,task2,437105,false,false,477,image-keyboard-response,25
true,4,2,1,2,true,d,false,true,0.0-2.0-0.12-0.115-3.115,0,0,0,68,false,stim,false,0,494.60000014305115,1,0,0,74339,task2,439118,false,false,480,image-keyboard-response,26
true,4,2,1,2,true,d,false,false,0.0-2.0-0.12-0.116-3.116,0,0,0,68,false,stim,false,0,506.7999999523163,1,0,1,74339,task2,441157,false,true,483,image-keyboard-response,27
true,4,2,1,2,true,d,false,true,0.0-2.0-0.13-0.117-3.117,0,0,0,68,false,stim,false,0,438.19999980926514,1,0,0,74339,task2,443105,false,false,486,image-keyboard-response,28
true,4,1,1,1,true,z,false,true,0.0-2.0-0.13-0.118-3.118,0,0,0,90,false,stim,false,2,417.7000000476837,1,0,2,74339,task2,445052,false,false,489,image-keyboard-response,29
true,4,2,1,2,true,d,false,true,0.0-2.0-0.13-0.119-3.119,0,0,0,68,false,stim,false,0,778.5,1,0,0,74339,task2,447364,false,false,492,image-keyboard-response,30
true,4,2,1,2,true,d,false,true,0.0-2.0-0.13-0.120-3.120,0,0,0,68,false,stim,false,0,466.0,1,0,1,74339,task2,449352,false,false,495,image-keyboard-response,31
true,4,2,1,2,true,d,false,false,0.0-2.0-0.13-0.121-3.121,0,0,0,68,false,stim,false,0,446.40000009536743,1,0,1,74339,task2,451318,false,true,498,image-keyboard-response,32
true,4,1,1,2,false,d,true,false,0.0-2.0-0.13-0.122-3.122,0,0,0,90,false,stim,false,0,550.5,1,0,0,74339,task2,453393,false,false,501,image-keyboard-response,33
true,4,2,1,2,true,d,false,true,0.0-2.0-0.13-0.123-3.123,0,0,0,68,false,stim,false,0,816.5999999046326,1,0,1,74339,task2,455732,false,false,504,image-keyboard-response,34
true,4,1,1,1,true,z,false,true,0.0-2.0-0.13-0.124-3.124,0,0,0,90,false,stim,false,2,478.2999999523163,1,0,2,74339,task2,457742,false,false,507,image-keyboard-response,35
true,5,1,1,0,false,q,false,true,0.0-2.0-0.13-0.125-3.125,0,0,0,90,true,stim,true,1,458.2999999523163,1,0,2,74339,task2,459732,false,true,510,image-keyboard-response,1
true,5,2,1,0,false,q,false,false,0.0-2.0-0.14-0.126-3.126,0,0,0,68,false,stim,true,2,505.90000009536743,1,0,0,74339,task2,461761,false,false,513,image-keyboard-response,2
true,5,2,1,1,false,z,false,false,0.0-2.0-0.14-0.127-3.127,0,0,0,68,false,stim,true,2,436.30000019073486,1,0,1,74339,task2,463728,false,false,516,image-keyboard-response,3
true,5,2,1,0,false,q,true,false,0.0-2.0-0.14-0.128-3.128,0,0,0,68,false,stim,false,1,599.6000001430511,1,0,2,74339,task2,465852,false,false,519,image-keyboard-response,4
true,5,2,1,1,false,z,false,false,0.0-2.0-0.14-0.129-3.129,0,0,0,68,false,stim,true,2,486.7999999523163,1,0,1,74339,task2,467858,false,false,522,image-keyboard-response,5
true,5,1,1,1,true,z,false,true,0.0-2.0-0.14-0.130-3.130,0,0,0,90,false,stim,false,2,825.8000001907349,1,0,1,74339,task2,470212,false,false,525,image-keyboard-response,6
true,5,1,1,0,false,q,false,false,0.0-2.0-0.14-0.131-3.131,0,0,0,90,false,stim,true,1,408.7999999523163,1,0,2,74339,task2,472142,false,false,528,image-keyboard-response,7
true,5,1,1,0,false,q,true,false,0.0-2.0-0.14-0.132-3.132,0,0,0,90,false,stim,false,2,444.2000000476837,1,0,0,74339,task2,474119,false,false,531,image-keyboard-response,8
true,5,1,1,0,false,q,false,true,0.0-2.0-0.14-0.133-3.133,0,0,0,90,false,stim,true,1,495.09999990463257,1,0,2,74339,task2,476134,false,true,534,image-keyboard-response,9
true,5,0,1,0,true,q,false,true,0.0-2.0-0.14-0.134-3.134,0,0,0,81,false,stim,false,2,718.2000000476837,1,0,0,74339,task2,478371,false,false,537,image-keyboard-response,10
true,5,1,1,1,true,z,false,true,0.0-2.0-0.15-0.135-3.135,0,0,0,90,false,stim,false,2,437.5,1,0,1,74339,task2,480339,false,false,540,image-keyboard-response,11
true,5,0,1,0,true,q,false,true,0.0-2.0-0.15-0.136-3.136,0,0,0,81,false,stim,false,2,400.80000019073486,1,0,0,74339,task2,482264,false,false,543,image-keyboard-response,12
true,5,0,1,0,true,q,false,true,0.0-2.0-0.15-0.137-3.137,0,0,0,81,false,stim,false,2,401.5,1,0,0,74339,task2,484198,false,false,546,image-keyboard-response,13
true,5,1,1,0,false,q,false,false,0.0-2.0-0.15-0.138-3.138,0,0,0,90,false,stim,true,1,483.2000000476837,1,0,2,74339,task2,486200,false,false,549,image-keyboard-response,14
true,5,0,1,0,true,q,false,true,0.0-2.0-0.15-0.139-3.139,0,0,0,81,false,stim,false,2,512.6000001430511,1,0,0,74339,task2,488241,false,false,552,image-keyboard-response,15
true,5,1,1,1,true,z,false,true,0.0-2.0-0.15-0.140-3.140,0,0,0,90,false,stim,false,2,494.2999999523163,1,0,1,74339,task2,490265,false,false,555,image-keyboard-response,16
true,5,2,1,0,false,q,true,false,0.0-2.0-0.15-0.141-3.141,0,0,0,68,false,stim,false,1,451.60000014305115,1,0,2,74339,task2,492244,false,false,558,image-keyboard-response,17
true,5,1,1,1,true,z,false,true,0.0-2.0-0.15-0.142-3.142,0,0,0,90,false,stim,false,2,397.69999980926514,1,0,1,74339,task2,494171,false,false,561,image-keyboard-response,18
true,5,0,1,0,true,q,false,true,0.0-2.0-0.15-0.143-3.143,0,0,0,81,false,stim,false,1,591.1000001430511,1,0,2,74339,task2,496281,false,false,564,image-keyboard-response,19
true,5,0,1,0,true,q,false,true,0.0-2.0-0.16-0.144-3.144,0,0,0,81,false,stim,false,2,399.0,1,0,0,74339,task2,498211,false,false,567,image-keyboard-response,20
true,5,1,1,1,true,z,false,true,0.0-2.0-0.16-0.145-3.145,0,0,0,90,false,stim,false,2,754.5999999046326,1,0,1,74339,task2,500486,false,false,570,image-keyboard-response,21
true,5,0,1,0,true,q,false,true,0.0-2.0-0.16-0.146-3.146,0,0,0,81,false,stim,false,2,430.10000014305115,1,0,0,74339,task2,502437,false,false,573,image-keyboard-response,22
true,5,1,1,1,true,z,false,true,0.0-2.0-0.16-0.147-3.147,0,0,0,90,false,stim,false,2,745.6000001430511,1,0,1,74339,task2,504704,false,false,576,image-keyboard-response,23
true,5,0,1,0,true,q,false,true,0.0-2.0-0.16-0.148-3.148,0,0,0,81,false,stim,false,1,378.2999999523163,1,0,2,74339,task2,506602,false,false,579,image-keyboard-response,24
true,5,0,1,0,true,q,false,true,0.0-2.0-0.16-0.149-3.149,0,0,0,81,false,stim,false,1,366.89999985694885,1,0,2,74339,task2,508500,false,false,582,image-keyboard-response,25
true,5,0,1,0,true,q,false,true,0.0-2.0-0.16-0.150-3.150,0,0,0,81,false,stim,false,2,340.10000014305115,1,0,0,74339,task2,510360,false,false,585,image-keyboard-response,26
true,5,0,1,0,true,q,false,true,0.0-2.0-0.16-0.151-3.151,0,0,0,81,false,stim,false,1,504.0,1,0,2,74339,task2,512386,false,false,588,image-keyboard-response,27
true,5,0,1,1,false,z,true,false,0.0-2.0-0.16-0.152-3.152,0,0,0,81,false,stim,false,2,520.9000000953674,1,0,1,74339,task2,514433,false,false,591,image-keyboard-response,28
true,5,0,1,0,true,q,false,true,0.0-2.0-0.17-0.153-3.153,0,0,0,81,false,stim,false,1,508.0,1,0,2,74339,task2,516463,false,false,594,image-keyboard-response,29
true,5,1,1,1,true,z,false,true,0.0-2.0-0.17-0.154-3.154,0,0,0,90,false,stim,false,2,383.2999999523163,1,0,1,74339,task2,518369,false,false,597,image-keyboard-response,30
true,5,0,1,0,true,q,false,true,0.0-2.0-0.17-0.155-3.155,0,0,0,81,false,stim,false,1,399.09999990463257,1,0,2,74339,task2,520287,false,false,600,image-keyboard-response,31
true,5,0,1,0,true,q,false,true,0.0-2.0-0.17-0.156-3.156,0,0,0,81,false,stim,false,2,540.0999999046326,1,0,0,74339,task2,522361,false,false,603,image-keyboard-response,32
true,5,0,1,0,true,q,false,true,0.0-2.0-0.17-0.157-3.157,0,0,0,81,false,stim,false,2,450.90000009536743,1,0,0,74339,task2,524332,false,false,606,image-keyboard-response,33
true,5,0,1,1,false,z,true,true,0.0-2.0-0.17-0.158-3.158,0,0,0,81,false,stim,false,2,751.6000001430511,1,0,1,74339,task2,526608,false,true,609,image-keyboard-response,34
true,5,0,1,0,true,q,false,true,0.0-2.0-0.17-0.159-3.159,0,0,0,81,false,stim,false,2,487.40000009536743,1,0,0,74339,task2,528626,false,false,612,image-keyboard-response,35
true,5,1,1,0,false,q,false,true,0.0-2.0-0.17-0.160-3.160,0,0,0,90,false,stim,true,1,608.2999999523163,1,1,2,74339,task2,530754,false,true,615,image-keyboard-response,36
true,5,0,1,1,false,z,true,false,0.0-2.0-0.17-0.161-3.161,0,0,0,81,false,stim,false,2,488.09999990463257,1,0,1,74339,task2,532774,false,false,618,image-keyboard-response,37
true,6,0,2,1,false,z,false,false,0.0-2.0-0.18-0.162-3.162,0,0,1,81,true,stim,true,0,555.5,1,0,0,74339,task2,534858,false,false,621,image-keyboard-response,1
true,6,0,2,1,false,z,false,false,0.0-2.0-0.18-0.163-3.163,0,0,1,81,false,stim,true,0,545.0,1,0,0,74339,task2,536923,false,false,624,image-keyboard-response,2
true,6,1,2,0,false,q,false,false,0.0-2.0-0.18-0.164-3.164,0,0,1,90,false,stim,true,1,598.2000000476837,1,0,1,74339,task2,539050,false,false,627,image-keyboard-response,3
true,6,1,2,0,false,q,true,false,0.0-2.0-0.18-0.165-3.165,0,0,1,90,false,stim,false,0,409.89999985694885,1,1,2,74339,task2,540987,false,false,630,image-keyboard-response,4
true,6,1,2,1,true,z,false,true,0.0-2.0-0.18-0.166-3.166,0,0,1,90,false,stim,false,0,348.60000014305115,1,0,0,74339,task2,542854,false,false,633,image-keyboard-response,5
true,6,2,2,0,false,q,true,false,0.0-2.0-0.18-0.167-3.167,0,0,1,68,false,stim,false,1,580.4000000953674,1,0,1,74339,task2,544963,false,false,636,image-keyboard-response,6
true,6,1,2,0,false,q,true,false,0.0-2.0-0.18-0.168-3.168,0,0,1,90,false,stim,false,0,478.09999990463257,1,1,2,74339,task2,546957,false,false,639,image-keyboard-response,7
true,6,2,2,0,false,q,true,false,0.0-2.0-0.18-0.169-3.169,0,0,1,68,false,stim,false,1,652.6000001430511,1,0,1,74339,task2,549131,false,false,642,image-keyboard-response,8
true,6,2,2,0,false,q,true,false,0.0-2.0-0.18-0.170-3.170,0,0,1,68,false,stim,false,0,885.0999999046326,1,1,2,74339,task2,551533,false,false,645,image-keyboard-response,9
true,6,1,2,0,false,q,false,false,0.0-2.0-0.19-0.171-3.171,0,0,1,90,false,stim,true,1,728.3999998569489,1,0,1,74339,task2,553781,false,false,648,image-keyboard-response,10
true,6,0,2,0,true,q,false,true,0.0-2.0-0.19-0.172-3.172,0,0,1,81,false,stim,false,0,582.4000000953674,1,1,2,74339,task2,555890,false,false,651,image-keyboard-response,11
true,6,0,2,1,false,z,false,true,0.0-2.0-0.19-0.173-3.173,0,0,1,81,false,stim,true,0,581.2000000476837,1,0,0,74339,task2,557998,false,true,654,image-keyboard-response,12
true,6,0,2,1,false,z,false,false,0.0-2.0-0.19-0.174-3.174,0,0,1,81,false,stim,true,0,431.2000000476837,1,0,0,74339,task2,559957,false,false,657,image-keyboard-response,13
true,6,0,2,0,true,q,false,true,0.0-2.0-0.19-0.175-3.175,0,0,1,81,false,stim,false,0,614.6000001430511,1,1,2,74339,task2,562093,false,false,660,image-keyboard-response,14
true,6,1,2,1,true,z,false,true,0.0-2.0-0.19-0.176-3.176,0,0,1,90,false,stim,false,0,698.9000000953674,1,0,0,74339,task2,564321,false,false,663,image-keyboard-response,15
true,6,2,2,0,false,q,true,false,0.0-2.0-0.19-0.177-3.177,0,0,1,68,false,stim,false,1,654.0,1,0,1,74339,task2,566505,false,false,666,image-keyboard-response,16
true,6,0,2,0,true,q,false,true,0.0-2.0-0.19-0.178-3.178,0,0,1,81,false,stim,false,0,562.0999999046326,1,1,2,74339,task2,568586,false,false,669,image-keyboard-response,17
true,6,1,2,0,false,q,false,false,0.0-2.0-0.19-0.179-3.179,0,0,1,90,false,stim,true,1,413.90000009536743,1,0,1,74339,task2,570527,false,false,672,image-keyboard-response,18
true,6,0,2,1,false,z,false,false,0.0-2.0-0.20-0.180-3.180,0,0,1,81,false,stim,true,0,523.2999999523163,1,0,0,74339,task2,572569,false,false,675,image-keyboard-response,19
true,6,0,2,0,true,q,false,true,0.0-2.0-0.20-0.181-3.181,0,0,1,81,false,stim,false,0,797.7000000476837,1,1,2,74339,task2,574877,false,false,678,image-keyboard-response,20
true,6,1,2,1,true,z,false,false,0.0-2.0-0.20-0.182-3.182,0,0,1,90,false,stim,false,0,458.2000000476837,1,0,0,74339,task2,576861,false,true,681,image-keyboard-response,21
true,6,0,2,0,true,q,false,true,0.0-2.0-0.20-0.183-3.183,0,0,1,81,false,stim,false,1,645.0,1,0,1,74339,task2,579031,false,false,684,image-keyboard-response,22
true,6,0,2,1,false,z,false,false,0.0-2.0-0.20-0.184-3.184,0,0,1,81,false,stim,true,0,525.2999999523163,1,0,0,74339,task2,581077,false,false,687,image-keyboard-response,23
true,6,0,2,0,true,q,false,false,0.0-2.0-0.20-0.185-3.185,0,0,1,81,false,stim,false,1,469.09999990463257,1,0,1,74339,task2,583055,false,true,690,image-keyboard-response,24
true,6,0,2,0,true,q,false,true,0.0-2.0-0.20-0.186-3.186,0,0,1,81,false,stim,false,0,371.0,1,1,2,74339,task2,584947,false,false,693,image-keyboard-response,25
true,6,0,2,0,true,q,false,true,0.0-2.0-0.20-0.187-3.187,0,0,1,81,false,stim,false,1,717.1000001430511,1,0,1,74339,task2,587198,false,false,696,image-keyboard-response,26
true,6,0,2,0,true,q,false,true,0.0-2.0-0.20-0.188-3.188,0,0,1,81,false,stim,false,0,474.69999980926514,1,1,2,74339,task2,589202,false,false,699,image-keyboard-response,27
true,6,0,2,0,true,q,false,true,0.0-2.0-0.21-0.189-3.189,0,0,1,81,false,stim,false,1,336.7999999523163,1,0,1,74339,task2,591061,false,false,702,image-keyboard-response,28
true,6,1,2,1,true,z,false,true,0.0-2.0-0.21-0.190-3.190,0,0,1,90,false,stim,false,0,606.7999999523163,1,0,0,74339,task2,593188,false,false,705,image-keyboard-response,29
true,6,1,2,1,true,z,false,true,0.0-2.0-0.21-0.191-3.191,0,0,1,90,false,stim,false,0,448.90000009536743,1,0,0,74339,task2,595165,false,false,708,image-keyboard-response,30
true,6,1,2,1,true,z,false,true,0.0-2.0-0.21-0.192-3.192,0,0,1,90,false,stim,false,0,347.2000000476837,1,0,0,74339,task2,597044,false,false,711,image-keyboard-response,31
true,6,0,2,0,true,q,false,false,0.0-2.0-0.21-0.193-3.193,0,0,1,81,false,stim,false,0,511.5,1,0,2,74339,task2,599085,false,true,714,image-keyboard-response,32
true,6,0,2,0,true,q,false,true,0.0-2.0-0.21-0.194-3.194,0,0,1,81,false,stim,false,0,349.80000019073486,1,0,2,74339,task2,600967,false,false,717,image-keyboard-response,33
true,6,0,2,0,true,q,false,true,0.0-2.0-0.21-0.195-3.195,0,0,1,81,false,stim,false,1,389.30000019073486,1,0,1,74339,task2,602878,false,false,720,image-keyboard-response,34
true,7,0,1,2,false,d,false,false,0.0-2.0-0.21-0.196-3.196,0,0,0,81,true,stim,true,0,387.09999990463257,1,0,2,74339,task2,604799,false,false,723,image-keyboard-response,1
true,7,0,1,1,false,z,false,false,0.0-2.0-0.21-0.197-3.197,0,0,0,81,false,stim,true,0,364.2000000476837,1,0,1,74339,task2,606682,false,false,726,image-keyboard-response,2
true,7,1,1,2,false,d,false,false,0.0-2.0-0.22-0.198-3.198,0,0,0,90,false,stim,true,1,481.7999999523163,1,0,0,74339,task2,608686,false,false,729,image-keyboard-response,3
true,7,0,1,2,false,d,false,false,0.0-2.0-0.22-0.199-3.199,0,0,0,81,false,stim,true,0,471.7000000476837,1,0,2,74339,task2,610677,false,false,732,image-keyboard-response,4
true,7,1,1,2,false,d,true,false,0.0-2.0-0.22-0.200-3.200,0,0,0,90,false,stim,false,0,574.2999999523163,1,0,2,74339,task2,612776,false,false,735,image-keyboard-response,5
true,7,2,1,2,true,d,false,true,0.0-2.0-0.22-0.201-3.201,0,0,0,68,false,stim,false,1,862.1999998092651,1,0,0,74339,task2,615161,false,false,738,image-keyboard-response,6
true,7,2,1,2,true,d,false,true,0.0-2.0-0.22-0.202-3.202,0,0,0,68,false,stim,false,1,371.7000000476837,1,0,0,74339,task2,617052,false,false,741,image-keyboard-response,7
true,7,2,1,1,false,z,true,true,0.0-2.0-0.22-0.203-3.203,0,0,0,68,false,stim,false,0,523.7999999523163,1,0,1,74339,task2,619108,false,true,744,image-keyboard-response,8
true,7,2,1,2,true,d,false,true,0.0-2.0-0.22-0.204-3.204,0,0,0,68,false,stim,false,0,486.39999985694885,1,0,2,74339,task2,621122,false,false,747,image-keyboard-response,9
true,7,2,1,1,false,z,true,false,0.0-2.0-0.22-0.205-3.205,0,0,0,68,false,stim,false,0,255.59999990463257,1,0,1,74339,task2,622901,false,false,750,image-keyboard-response,10
true,7,2,1,1,false,z,true,false,0.0-2.0-0.22-0.206-3.206,0,0,0,68,false,stim,false,0,325.2000000476837,1,0,1,74339,task2,624756,false,false,753,image-keyboard-response,11
true,7,2,1,2,true,d,false,false,0.0-2.0-0.23-0.207-3.207,0,0,0,68,false,stim,false,0,625.6000001430511,1,0,2,74339,task2,626905,false,true,756,image-keyboard-response,12
true,7,2,1,1,false,z,true,false,0.0-2.0-0.23-0.208-3.208,0,0,0,68,false,stim,false,0,444.09999990463257,1,0,1,74339,task2,628879,false,false,759,image-keyboard-response,13
true,7,1,1,2,false,d,true,false,0.0-2.0-0.23-0.209-3.209,0,0,0,90,false,stim,false,0,398.60000014305115,1,0,2,74339,task2,630792,false,false,762,image-keyboard-response,14
true,7,2,1,2,true,d,false,true,0.0-2.0-0.23-0.210-3.210,0,0,0,68,false,stim,false,1,768.3999998569489,1,0,0,74339,task2,633085,false,false,765,image-keyboard-response,15
true,7,2,1,2,true,d,false,true,0.0-2.0-0.23-0.211-3.211,0,0,0,68,false,stim,false,1,557.2000000476837,1,0,0,74339,task2,635165,false,false,768,image-keyboard-response,16
true,7,2,1,2,true,d,false,true,0.0-2.0-0.23-0.212-3.212,0,0,0,68,false,stim,false,1,426.89999985694885,1,0,0,74339,task2,637111,false,false,771,image-keyboard-response,17
true,7,0,1,2,false,d,false,false,0.0-2.0-0.23-0.213-3.213,0,0,0,81,false,stim,true,0,861.3999998569489,1,0,2,74339,task2,639497,false,false,774,image-keyboard-response,18
true,7,0,1,1,false,z,false,false,0.0-2.0-0.23-0.214-3.214,0,0,0,81,false,stim,true,0,897.2999999523163,1,0,1,74339,task2,641917,false,false,777,image-keyboard-response,19
true,7,1,1,1,true,z,false,true,0.0-2.0-0.23-0.215-3.215,0,0,0,90,false,stim,false,0,516.3999998569489,1,0,1,74339,task2,643965,false,false,780,image-keyboard-response,20
true,7,1,1,1,true,z,false,true,0.0-2.0-0.24-0.216-3.216,0,0,0,90,false,stim,false,0,431.2000000476837,1,0,1,74339,task2,645928,false,false,783,image-keyboard-response,21
true,7,1,1,2,false,d,true,false,0.0-2.0-0.24-0.217-3.217,0,0,0,90,false,stim,false,0,824.5999999046326,1,0,2,74339,task2,648279,false,false,786,image-keyboard-response,22
true,7,2,1,2,true,d,false,true,0.0-2.0-0.24-0.218-3.218,0,0,0,68,false,stim,false,1,513.5999999046326,1,0,0,74339,task2,650326,false,false,789,image-keyboard-response,23
true,7,2,1,2,true,d,false,true,0.0-2.0-0.24-0.219-3.219,0,0,0,68,false,stim,false,1,472.10000014305115,1,0,0,74339,task2,652313,false,false,792,image-keyboard-response,24
true,7,2,1,1,false,z,true,false,0.0-2.0-0.24-0.220-3.220,0,0,0,68,false,stim,false,0,816.2000000476837,1,0,1,74339,task2,654652,false,false,795,image-keyboard-response,25
true,7,1,1,2,false,d,true,false,0.0-2.0-0.24-0.221-3.221,0,0,0,90,false,stim,false,0,752.4000000953674,1,0,2,74339,task2,656931,false,false,798,image-keyboard-response,26
true,7,2,1,2,true,d,false,true,0.0-2.0-0.24-0.222-3.222,0,0,0,68,false,stim,false,1,566.6999998092651,1,0,0,74339,task2,659027,false,false,801,image-keyboard-response,27
true,7,0,1,2,false,d,false,false,0.0-2.0-0.24-0.223-3.223,0,0,0,81,false,stim,true,0,514.0,1,0,2,74339,task2,661071,false,false,804,image-keyboard-response,28
true,7,0,1,1,false,z,false,false,0.0-2.0-0.24-0.224-3.224,0,0,0,81,false,stim,true,0,742.7999999523163,1,0,1,74339,task2,663344,false,false,807,image-keyboard-response,29
true,7,2,1,2,true,d,false,true,0.0-2.0-0.25-0.225-3.225,0,0,0,68,false,stim,false,1,464.89999985694885,1,0,0,74339,task2,665330,false,false,810,image-keyboard-response,30
true,7,2,1,2,true,d,false,true,0.0-2.0-0.25-0.226-3.226,0,0,0,68,false,stim,false,0,382.5,1,0,2,74339,task2,667244,false,false,813,image-keyboard-response,31
true,7,2,1,1,false,z,true,false,0.0-2.0-0.25-0.227-3.227,0,0,0,68,false,stim,false,0,332.7999999523163,1,0,1,74339,task2,669100,false,false,816,image-keyboard-response,32
true,7,2,1,2,true,d,false,true,0.0-2.0-0.25-0.228-3.228,0,0,0,68,false,stim,false,1,297.10000014305115,1,0,0,74339,task2,670922,false,false,819,image-keyboard-response,33
true,7,2,1,2,true,d,false,true,0.0-2.0-0.25-0.229-3.229,0,0,0,68,false,stim,false,0,495.7999999523163,1,0,2,74339,task2,672934,false,false,822,image-keyboard-response,34
true,8,2,1,1,false,z,false,false,0.0-2.0-0.25-0.230-3.230,0,0,0,68,true,stim,true,2,826.2000000476837,1,0,2,74339,task2,675290,false,false,825,image-keyboard-response,1
true,8,2,1,0,false,q,false,false,0.0-2.0-0.25-0.231-3.231,0,0,0,68,false,stim,true,2,364.09999990463257,1,0,0,74339,task2,677168,false,false,828,image-keyboard-response,2
true,8,2,1,0,false,q,true,false,0.0-2.0-0.25-0.232-3.232,0,0,0,68,false,stim,false,1,742.3999998569489,1,0,1,74339,task2,679424,false,false,831,image-keyboard-response,3
true,8,1,1,0,false,q,false,false,0.0-2.0-0.25-0.233-3.233,0,0,0,90,false,stim,true,1,551.5,1,0,1,74339,task2,681494,false,false,834,image-keyboard-response,4
true,8,2,1,1,false,z,false,false,0.0-2.0-0.26-0.234-3.234,0,0,0,68,false,stim,true,2,849.0,1,0,2,74339,task2,683874,false,false,837,image-keyboard-response,5
true,8,0,1,0,true,q,false,true,0.0-2.0-0.26-0.235-3.235,0,0,0,81,false,stim,false,1,1072.5,1,0,1,74339,task2,686464,false,false,840,image-keyboard-response,6
true,8,2,1,0,false,q,false,false,0.0-2.0-0.26-0.236-3.236,0,0,0,68,false,stim,true,2,603.8999998569489,1,0,0,74339,task2,688591,false,false,843,image-keyboard-response,7
true,8,0,1,0,true,q,false,true,0.0-2.0-0.26-0.237-3.237,0,0,0,81,false,stim,false,1,367.40000009536743,1,0,1,74339,task2,690481,false,false,846,image-keyboard-response,8
true,8,0,1,0,true,q,false,true,0.0-2.0-0.26-0.238-3.238,0,0,0,81,false,stim,false,1,342.2000000476837,1,0,1,74339,task2,692342,false,false,849,image-keyboard-response,9
true,8,0,1,1,false,z,true,false,0.0-2.0-0.26-0.239-3.239,0,0,0,81,false,stim,false,2,486.2999999523163,1,0,2,74339,task2,694361,false,false,852,image-keyboard-response,10
true,8,1,1,0,false,q,true,false,0.0-2.0-0.26-0.240-3.240,0,0,0,90,false,stim,false,2,1067.5,1,0,0,74339,task2,696954,false,false,855,image-keyboard-response,11
true,8,1,1,1,true,z,false,false,0.0-2.0-0.26-0.241-3.241,0,0,0,90,false,stim,false,2,779.6999998092651,1,0,2,74339,task2,699260,false,true,858,image-keyboard-response,12
true,8,0,1,0,true,q,false,true,0.0-2.0-0.26-0.242-3.242,0,0,0,81,false,stim,false,2,399.2000000476837,1,0,0,74339,task2,701192,false,false,861,image-keyboard-response,13
true,8,0,1,0,true,q,false,true,0.0-2.0-0.27-0.243-3.243,0,0,0,81,false,stim,false,1,316.5,1,0,1,74339,task2,703031,false,false,864,image-keyboard-response,14
true,8,0,1,1,false,z,true,false,0.0-2.0-0.27-0.244-3.244,0,0,0,81,false,stim,false,2,300.0,1,0,2,74339,task2,704858,false,false,867,image-keyboard-response,15
true,8,0,1,0,true,q,false,true,0.0-2.0-0.27-0.245-3.245,0,0,0,81,false,stim,false,2,567.5,1,0,0,74339,task2,706944,false,false,870,image-keyboard-response,16
true,8,0,1,0,true,q,false,true,0.0-2.0-0.27-0.246-3.246,0,0,0,81,false,stim,false,2,313.7000000476837,1,0,0,74339,task2,708791,false,false,873,image-keyboard-response,17
true,8,0,1,0,true,q,false,false,0.0-2.0-0.27-0.247-3.247,0,0,0,81,false,stim,false,1,364.40000009536743,1,0,1,74339,task2,710683,false,true,876,image-keyboard-response,18
true,8,0,1,0,true,q,false,true,0.0-2.0-0.27-0.248-3.248,0,0,0,81,false,stim,false,2,351.7999999523163,1,0,0,74339,task2,712557,false,false,879,image-keyboard-response,19
true,8,1,1,1,true,z,false,true,0.0-2.0-0.27-0.249-3.249,0,0,0,90,false,stim,false,2,497.10000014305115,1,0,2,74339,task2,714573,false,false,882,image-keyboard-response,20
true,8,0,1,0,true,q,false,true,0.0-2.0-0.27-0.250-3.250,0,0,0,81,false,stim,false,1,800.6000001430511,1,0,1,74339,task2,716896,false,false,885,image-keyboard-response,21
true,8,1,1,1,true,z,false,true,0.0-2.0-0.27-0.251-3.251,0,0,0,90,false,stim,false,2,459.0,1,0,2,74339,task2,718871,false,false,888,image-keyboard-response,22
true,8,0,1,0,true,q,false,true,0.0-2.0-0.28-0.252-3.252,0,0,0,81,false,stim,false,1,374.59999990463257,1,0,1,74339,task2,720772,false,false,891,image-keyboard-response,23
true,8,1,1,1,true,z,false,true,0.0-2.0-0.28-0.253-3.253,0,0,0,90,false,stim,false,2,306.59999990463257,1,0,2,74339,task2,722593,false,false,894,image-keyboard-response,24
true,8,0,1,1,false,z,true,false,0.0-2.0-0.28-0.254-3.254,0,0,0,81,false,stim,false,2,366.89999985694885,1,0,2,74339,task2,724480,false,false,897,image-keyboard-response,25
true,8,0,1,0,true,q,false,true,0.0-2.0-0.28-0.255-3.255,0,0,0,81,false,stim,false,2,501.2000000476837,1,0,0,74339,task2,726503,false,false,900,image-keyboard-response,26
true,8,1,1,0,false,q,false,false,0.0-2.0-0.28-0.256-3.256,0,0,0,90,false,stim,true,1,565.7000000476837,1,0,1,74339,task2,728579,false,false,903,image-keyboard-response,27
true,8,0,1,0,true,q,false,true,0.0-2.0-0.28-0.257-3.257,0,0,0,81,false,stim,false,2,569.5999999046326,1,0,0,74339,task2,730678,false,false,906,image-keyboard-response,28
true,8,0,1,0,true,q,false,true,0.0-2.0-0.28-0.258-3.258,0,0,0,81,false,stim,false,2,305.90000009536743,1,0,0,74339,task2,732503,false,false,909,image-keyboard-response,29
true,8,0,1,0,true,q,false,true,0.0-2.0-0.28-0.259-3.259,0,0,0,81,false,stim,false,1,467.30000019073486,1,0,1,74339,task2,734503,false,false,912,image-keyboard-response,30
true,8,1,1,1,true,z,false,true,0.0-2.0-0.28-0.260-3.260,0,0,0,90,false,stim,false,2,409.0,1,0,2,74339,task2,736436,false,false,915,image-keyboard-response,31
true,8,0,1,0,true,q,false,true,0.0-2.0-0.29-0.261-3.261,0,0,0,81,false,stim,false,2,930.5,1,0,0,74339,task2,738894,false,false,918,image-keyboard-response,32
true,8,1,1,1,true,z,false,true,0.0-2.0-0.29-0.262-3.262,0,0,0,90,false,stim,false,2,734.7000000476837,1,1,2,74339,task2,741151,false,false,921,image-keyboard-response,33
true,8,1,1,1,true,z,false,true,0.0-2.0-0.29-0.263-3.263,0,0,0,90,false,stim,false,2,408.0,1,1,2,74339,task2,743085,false,false,924,image-keyboard-response,34
true,8,0,1,0,true,q,false,true,0.0-2.0-0.29-0.264-3.264,0,0,0,81,false,stim,false,1,385.0,1,0,1,74339,task2,744993,false,false,927,image-keyboard-response,35
true,8,0,1,0,true,q,false,true,0.0-2.0-0.29-0.265-3.265,0,0,0,81,false,stim,false,2,434.2000000476837,1,0,0,74339,task2,746945,false,false,930,image-keyboard-response,36
true,9,1,2,1,true,z,false,true,0.0-2.0-0.29-0.266-3.266,0,0,1,90,true,stim,false,0,680.6000001430511,1,0,1,74339,task2,749144,false,false,933,image-keyboard-response,1
true,9,1,2,1,true,z,false,true,0.0-2.0-0.29-0.267-3.267,0,0,1,90,false,stim,false,1,480.5,1,1,2,74339,task2,751144,false,false,936,image-keyboard-response,2
true,9,0,2,2,false,d,false,false,0.0-2.0-0.29-0.268-3.268,0,0,1,81,false,stim,true,0,558.2000000476837,1,0,0,74339,task2,753217,false,false,939,image-keyboard-response,3
true,9,0,2,1,false,z,false,false,0.0-2.0-0.29-0.269-3.269,0,0,1,81,false,stim,true,0,358.2999999523163,1,0,1,74339,task2,755095,false,false,942,image-keyboard-response,4
true,9,1,2,1,true,z,false,true,0.0-2.0-0.30-0.270-3.270,0,0,1,90,false,stim,false,0,352.30000019073486,1,0,1,74339,task2,756977,false,false,945,image-keyboard-response,5
true,9,1,2,1,true,z,false,true,0.0-2.0-0.30-0.271-3.271,0,0,1,90,false,stim,false,0,318.2000000476837,1,0,1,74339,task2,758820,false,false,948,image-keyboard-response,6
true,9,1,2,2,false,d,true,true,0.0-2.0-0.30-0.272-3.272,0,0,1,90,false,stim,false,0,411.09999990463257,1,0,0,74339,task2,760756,false,true,951,image-keyboard-response,7
true,9,1,2,2,false,d,true,false,0.0-2.0-0.30-0.273-3.273,0,0,1,90,false,stim,false,0,263.2999999523163,1,0,0,74339,task2,762531,false,false,954,image-keyboard-response,8
true,9,1,2,1,true,z,false,true,0.0-2.0-0.30-0.274-3.274,0,0,1,90,false,stim,false,1,351.7000000476837,1,1,2,74339,task2,764391,false,false,957,image-keyboard-response,9
true,9,1,2,1,true,z,false,true,0.0-2.0-0.30-0.275-3.275,0,0,1,90,false,stim,false,1,268.0,1,1,2,74339,task2,766176,false,false,960,image-keyboard-response,10
true,9,1,2,2,false,d,true,false,0.0-2.0-0.30-0.276-3.276,0,0,1,90,false,stim,false,0,355.7999999523163,1,0,0,74339,task2,768056,false,false,963,image-keyboard-response,11
true,9,1,2,1,true,z,false,true,0.0-2.0-0.30-0.277-3.277,0,0,1,90,false,stim,false,1,340.10000014305115,1,1,2,74339,task2,769915,false,false,966,image-keyboard-response,12
true,9,1,2,1,true,z,false,true,0.0-2.0-0.30-0.278-3.278,0,0,1,90,false,stim,false,0,445.10000014305115,1,0,1,74339,task2,771882,false,false,969,image-keyboard-response,13
true,9,1,2,1,true,z,false,true,0.0-2.0-0.31-0.279-3.279,0,0,1,90,false,stim,false,1,415.90000009536743,1,1,2,74339,task2,773822,false,false,972,image-keyboard-response,14
true,9,1,2,1,true,z,false,false,0.0-2.0-0.31-0.280-3.280,0,0,1,90,false,stim,false,1,350.2999999523163,1,1,2,74339,task2,775698,false,true,975,image-keyboard-response,15
true,9,1,2,2,false,d,true,false,0.0-2.0-0.31-0.281-3.281,0,0,1,90,false,stim,false,0,313.7000000476837,1,0,0,74339,task2,777538,false,false,978,image-keyboard-response,16
true,9,2,2,2,true,d,false,true,0.0-2.0-0.31-0.282-3.282,0,0,1,68,false,stim,false,0,586.0,1,0,0,74339,task2,779653,false,false,981,image-keyboard-response,17
true,9,1,2,1,true,z,false,true,0.0-2.0-0.31-0.283-3.283,0,0,1,90,false,stim,false,1,355.5,1,1,2,74339,task2,781529,false,false,984,image-keyboard-response,18
true,9,1,2,1,true,z,false,true,0.0-2.0-0.31-0.284-3.284,0,0,1,90,false,stim,false,0,488.40000009536743,1,0,1,74339,task2,783550,false,false,987,image-keyboard-response,19
true,9,1,2,1,true,z,false,true,0.0-2.0-0.31-0.285-3.285,0,0,1,90,false,stim,false,0,404.09999990463257,1,0,1,74339,task2,785479,false,false,990,image-keyboard-response,20
true,9,2,2,2,true,d,false,true,0.0-2.0-0.31-0.286-3.286,0,0,1,68,false,stim,false,0,424.2000000476837,1,0,0,74339,task2,787433,false,false,993,image-keyboard-response,21
true,9,1,2,1,true,z,false,true,0.0-2.0-0.31-0.287-3.287,0,0,1,90,false,stim,false,0,438.89999985694885,1,0,1,74339,task2,789406,false,false,996,image-keyboard-response,22
true,9,1,2,1,true,z,false,true,0.0-2.0-0.32-0.288-3.288,0,0,1,90,false,stim,false,0,319.40000009536743,1,0,1,74339,task2,791247,false,false,999,image-keyboard-response,23
true,9,1,2,1,true,z,false,true,0.0-2.0-0.32-0.289-3.289,0,0,1,90,false,stim,false,1,489.7999999523163,1,1,2,74339,task2,793260,false,false,1002,image-keyboard-response,24
true,9,2,2,2,true,d,false,true,0.0-2.0-0.32-0.290-3.290,0,0,1,68,false,stim,false,0,351.0,1,0,0,74339,task2,795132,false,false,1005,image-keyboard-response,25
true,9,1,2,1,true,z,false,true,0.0-2.0-0.32-0.291-3.291,0,0,1,90,false,stim,false,0,469.09999990463257,1,0,1,74339,task2,797134,false,false,1008,image-keyboard-response,26
true,9,2,2,2,true,d,false,true,0.0-2.0-0.32-0.292-3.292,0,0,1,68,false,stim,false,0,455.19999980926514,1,0,0,74339,task2,799120,false,false,1011,image-keyboard-response,27
true,9,2,2,2,true,d,false,true,0.0-2.0-0.32-0.293-3.293,0,0,1,68,false,stim,false,0,470.2000000476837,1,0,0,74339,task2,801114,false,false,1014,image-keyboard-response,28
true,9,1,2,1,true,z,false,true,0.0-2.0-0.32-0.294-3.294,0,0,1,90,false,stim,false,1,501.0,1,1,2,74339,task2,803145,false,false,1017,image-keyboard-response,29
true,9,1,2,1,true,z,false,true,0.0-2.0-0.32-0.295-3.295,0,0,1,90,false,stim,false,1,605.4000000953674,1,0,2,74339,task2,805277,false,false,1020,image-keyboard-response,30
true,9,1,2,1,true,z,false,true,0.0-2.0-0.32-0.296-3.296,0,0,1,90,false,stim,false,0,813.0999999046326,1,0,1,74339,task2,807623,false,false,1023,image-keyboard-response,31
true,9,2,2,2,true,d,false,true,0.0-2.0-0.33-0.297-3.297,0,0,1,68,false,stim,false,0,486.09999990463257,1,0,0,74339,task2,809641,false,false,1026,image-keyboard-response,32
true,9,1,2,1,true,z,false,true,0.0-2.0-0.33-0.298-3.298,0,0,1,90,false,stim,false,1,298.40000009536743,1,0,2,74339,task2,811468,false,false,1029,image-keyboard-response,33
true,9,2,2,2,true,d,false,false,0.0-2.0-0.33-0.299-3.299,0,0,1,68,false,stim,false,0,486.0,1,0,0,74339,task2,813471,false,true,1032,image-keyboard-response,34
true,10,1,1,2,false,d,false,true,0.0-2.0-0.33-0.300-3.300,0,0,0,90,true,stim,true,1,345.40000009536743,1,0,1,74339,task2,815343,false,true,1035,image-keyboard-response,1
true,10,1,1,0,false,q,false,false,0.0-2.0-0.33-0.301-3.301,0,0,0,90,false,stim,true,1,365.7000000476837,1,0,2,74339,task2,817237,false,false,1038,image-keyboard-response,2
true,10,1,1,2,false,d,false,false,0.0-2.0-0.33-0.302-3.302,0,0,0,90,false,stim,true,1,340.0,1,0,1,74339,task2,819106,false,false,1041,image-keyboard-response,3
true,10,1,1,0,false,q,false,false,0.0-2.0-0.33-0.303-3.303,0,0,0,90,false,stim,true,1,343.7999999523163,1,0,2,74339,task2,820984,false,false,1044,image-keyboard-response,4
true,10,1,1,2,false,d,false,false,0.0-2.0-0.33-0.304-3.304,0,0,0,90,false,stim,true,1,371.60000014305115,1,0,1,74339,task2,822888,false,false,1047,image-keyboard-response,5
true,10,2,1,1,false,z,false,false,0.0-2.0-0.33-0.305-3.305,0,0,0,68,false,stim,true,2,785.6000001430511,1,0,0,74339,task2,825207,false,false,1050,image-keyboard-response,6
true,10,0,1,1,false,z,true,false,0.0-2.0-0.34-0.306-3.306,0,0,0,81,false,stim,false,2,588.9000000953674,1,0,0,74339,task2,827313,false,false,1053,image-keyboard-response,7
true,10,2,1,0,false,q,true,false,0.0-2.0-0.34-0.307-3.307,0,0,0,68,false,stim,false,1,504.09999990463257,1,0,2,74339,task2,829335,false,false,1056,image-keyboard-response,8
true,10,2,1,2,true,d,false,true,0.0-2.0-0.34-0.308-3.308,0,0,0,68,false,stim,false,1,464.19999980926514,1,0,1,74339,task2,831322,false,false,1059,image-keyboard-response,9
true,10,2,1,2,true,d,false,true,0.0-2.0-0.34-0.309-3.309,0,0,0,68,false,stim,false,1,426.59999990463257,1,0,1,74339,task2,833275,false,false,1062,image-keyboard-response,10
true,10,1,1,0,false,q,false,false,0.0-2.0-0.34-0.310-3.310,0,0,0,90,false,stim,true,1,738.0,1,0,2,74339,task2,835546,false,false,1065,image-keyboard-response,11
true,10,0,1,1,false,z,true,false,0.0-2.0-0.34-0.311-3.311,0,0,0,81,false,stim,false,2,623.7999999523163,1,0,0,74339,task2,837700,false,false,1068,image-keyboard-response,12
true,10,1,1,1,true,z,false,true,0.0-2.0-0.34-0.312-3.312,0,0,0,90,false,stim,false,2,592.1000001430511,1,0,0,74339,task2,839821,false,false,1071,image-keyboard-response,13
true,10,2,1,2,true,d,false,true,0.0-2.0-0.34-0.313-3.313,0,0,0,68,false,stim,false,1,565.4000000953674,1,0,1,74339,task2,841915,false,false,1074,image-keyboard-response,14
true,10,0,1,0,true,q,false,true,0.0-2.0-0.34-0.314-3.314,0,0,0,81,false,stim,false,1,405.7000000476837,1,0,2,74339,task2,843847,false,false,1077,image-keyboard-response,15
true,10,0,1,0,true,q,false,true,0.0-2.0-0.35-0.315-3.315,0,0,0,81,false,stim,false,1,499.39999985694885,1,0,2,74339,task2,845855,false,false,1080,image-keyboard-response,16
true,10,1,1,1,true,z,false,true,0.0-2.0-0.35-0.316-3.316,0,0,0,90,false,stim,false,2,547.8999998569489,1,0,0,74339,task2,847921,false,false,1083,image-keyboard-response,17
true,10,1,1,1,true,z,false,true,0.0-2.0-0.35-0.317-3.317,0,0,0,90,false,stim,false,2,436.19999980926514,1,0,0,74339,task2,849888,false,false,1086,image-keyboard-response,18
true,10,0,1,0,true,q,false,true,0.0-2.0-0.35-0.318-3.318,0,0,0,81,false,stim,false,1,753.9000000953674,1,0,2,74339,task2,852171,false,false,1089,image-keyboard-response,19
true,10,2,1,2,true,d,false,true,0.0-2.0-0.35-0.319-3.319,0,0,0,68,false,stim,false,1,517.5,1,0,1,74339,task2,854215,false,false,1092,image-keyboard-response,20
true,10,1,1,1,true,z,false,true,0.0-2.0-0.35-0.320-3.320,0,0,0,90,false,stim,false,2,961.7000000476837,1,0,0,74339,task2,856702,false,false,1095,image-keyboard-response,21
true,10,0,1,0,true,q,false,true,0.0-2.0-0.35-0.321-3.321,0,0,0,81,false,stim,false,1,952.1000001430511,1,0,2,74339,task2,859172,false,false,1098,image-keyboard-response,22
true,10,2,1,2,true,d,false,true,0.0-2.0-0.35-0.322-3.322,0,0,0,68,false,stim,false,1,495.89999985694885,1,0,1,74339,task2,861207,false,false,1101,image-keyboard-response,23
true,10,2,1,2,true,d,false,false,0.0-2.0-0.35-0.323-3.323,0,0,0,68,false,stim,false,1,424.89999985694885,1,0,1,74339,task2,863154,false,true,1104,image-keyboard-response,24
true,10,2,1,2,true,d,false,true,0.0-2.0-0.36-0.324-3.324,0,0,0,68,false,stim,false,1,367.0,1,0,1,74339,task2,865052,false,false,1107,image-keyboard-response,25
true,10,1,1,0,false,q,false,false,0.0-2.0-0.36-0.325-3.325,0,0,0,90,false,stim,true,1,540.0,1,0,2,74339,task2,867118,false,false,1110,image-keyboard-response,26
true,10,0,1,0,true,q,false,true,0.0-2.0-0.36-0.326-3.326,0,0,0,81,false,stim,false,1,600.7999999523163,1,0,2,74339,task2,869227,false,false,1113,image-keyboard-response,27
true,10,1,1,1,true,z,false,true,0.0-2.0-0.36-0.327-3.327,0,0,0,90,false,stim,false,2,494.10000014305115,1,0,0,74339,task2,871247,false,false,1116,image-keyboard-response,28
true,10,1,1,1,true,z,false,true,0.0-2.0-0.36-0.328-3.328,0,0,0,90,false,stim,false,2,539.9000000953674,1,0,0,74339,task2,873307,false,false,1119,image-keyboard-response,29
true,10,2,1,2,true,d,false,true,0.0-2.0-0.36-0.329-3.329,0,0,0,68,false,stim,false,1,641.9000000953674,1,0,1,74339,task2,875466,false,false,1122,image-keyboard-response,30
true,10,0,1,0,true,q,false,true,0.0-2.0-0.36-0.330-3.330,0,0,0,81,false,stim,false,1,608.7000000476837,1,0,2,74339,task2,877606,false,false,1125,image-keyboard-response,31
true,10,2,1,2,true,d,false,true,0.0-2.0-0.36-0.331-3.331,0,0,0,68,false,stim,false,1,834.5,1,0,1,74339,task2,879973,false,false,1128,image-keyboard-response,32
true,10,1,1,1,true,z,false,true,0.0-2.0-0.36-0.332-3.332,0,0,0,90,false,stim,false,2,889.5999999046326,1,0,0,74339,task2,882383,false,false,1131,image-keyboard-response,33
true,10,0,1,0,true,q,false,true,0.0-2.0-0.37-0.333-3.333,0,0,0,81,false,stim,false,1,475.09999990463257,1,0,2,74339,task2,884383,false,false,1134,image-keyboard-response,34
true,10,0,1,0,true,q,false,true,0.0-2.0-0.37-0.334-3.334,0,0,0,81,false,stim,false,1,460.0,1,0,2,74339,task2,886358,false,false,1137,image-keyboard-response,35
true,10,2,1,2,true,d,false,true,0.0-2.0-0.37-0.335-3.335,0,0,0,68,false,stim,false,1,555.5,1,0,1,74339,task2,888446,false,false,1140,image-keyboard-response,36
true,10,2,1,2,true,d,false,true,0.0-2.0-0.37-0.336-3.336,0,0,0,68,false,stim,false,1,474.90000009536743,1,0,1,74339,task2,890440,false,false,1143,image-keyboard-response,37
true,10,1,1,0,false,q,false,false,0.0-2.0-0.37-0.337-3.337,0,0,0,90,false,stim,true,1,605.1000001430511,1,0,2,74339,task2,892576,false,false,1146,image-keyboard-response,38
true,11,1,1,0,false,q,false,false,0.0-2.0-0.37-0.338-3.338,0,0,0,90,true,stim,true,1,386.10000014305115,1,0,0,74339,task2,894488,false,false,1149,image-keyboard-response,1
true,11,1,1,0,false,q,false,false,0.0-2.0-0.37-0.339-3.339,0,0,0,90,false,stim,true,1,411.60000014305115,1,0,0,74339,task2,896419,false,false,1152,image-keyboard-response,2
true,11,0,1,0,true,q,false,true,0.0-2.0-0.37-0.340-3.340,0,0,0,81,false,stim,false,1,384.0,1,0,0,74339,task2,898330,false,false,1155,image-keyboard-response,3
true,11,2,1,1,false,z,false,false,0.0-2.0-0.37-0.341-3.341,0,0,0,68,false,stim,true,2,521.2999999523163,1,0,1,74339,task2,900376,false,false,1158,image-keyboard-response,4
true,11,2,1,1,false,z,false,false,0.0-2.0-0.38-0.342-3.342,0,0,0,68,false,stim,true,2,676.4000000953674,1,0,1,74339,task2,902565,false,false,1161,image-keyboard-response,5
true,11,0,1,0,true,q,false,true,0.0-2.0-0.38-0.343-3.343,0,0,0,81,false,stim,false,1,417.2999999523163,1,0,0,74339,task2,904513,false,false,1164,image-keyboard-response,6
true,11,0,1,2,false,d,false,false,0.0-2.0-0.38-0.344-3.344,0,0,0,81,false,stim,true,0,678.0,1,0,2,74339,task2,906701,false,false,1167,image-keyboard-response,7
true,11,0,1,0,true,q,false,true,0.0-2.0-0.38-0.345-3.345,0,0,0,81,false,stim,false,1,368.2999999523163,1,0,0,74339,task2,908595,false,false,1170,image-keyboard-response,8
true,11,1,1,2,false,d,true,false,0.0-2.0-0.38-0.346-3.346,0,0,0,90,false,stim,false,0,378.09999990463257,1,0,2,74339,task2,910502,false,false,1173,image-keyboard-response,9
true,11,0,1,0,true,q,false,false,0.0-2.0-0.38-0.347-3.347,0,0,0,81,false,stim,false,1,487.59999990463257,1,0,0,74339,task2,912509,false,true,1176,image-keyboard-response,10
true,11,2,1,2,true,d,false,true,0.0-2.0-0.38-0.348-3.348,0,0,0,68,false,stim,false,0,612.5999999046326,1,0,2,74339,task2,914653,false,false,1179,image-keyboard-response,11
true,11,1,1,1,true,z,false,true,0.0-2.0-0.38-0.349-3.349,0,0,0,90,false,stim,false,2,1058.4000000953674,1,0,1,74339,task2,917232,false,false,1182,image-keyboard-response,12
true,11,1,1,1,true,z,false,true,0.0-2.0-0.38-0.350-3.350,0,0,0,90,false,stim,false,2,786.7000000476837,1,0,1,74339,task2,919536,false,false,1185,image-keyboard-response,13
true,11,0,1,0,true,q,false,true,0.0-2.0-0.39-0.351-3.351,0,0,0,81,false,stim,false,1,587.5,1,0,0,74339,task2,921655,false,false,1188,image-keyboard-response,14
true,11,2,1,2,true,d,false,true,0.0-2.0-0.39-0.352-3.352,0,0,0,68,false,stim,false,0,499.90000009536743,1,0,2,74339,task2,923661,false,false,1191,image-keyboard-response,15
true,11,2,1,2,true,d,false,true,0.0-2.0-0.39-0.353-3.353,0,0,0,68,false,stim,false,0,741.8999998569489,1,0,2,74339,task2,925930,false,false,1194,image-keyboard-response,16
true,11,1,1,1,true,z,false,true,0.0-2.0-0.39-0.354-3.354,0,0,0,90,false,stim,false,2,510.89999985694885,1,0,1,74339,task2,927961,false,false,1197,image-keyboard-response,17
true,11,1,1,1,true,z,false,true,0.0-2.0-0.39-0.355-3.355,0,0,0,90,false,stim,false,2,384.2999999523163,1,0,1,74339,task2,929869,false,false,1200,image-keyboard-response,18
true,11,1,1,1,true,z,false,true,0.0-2.0-0.39-0.356-3.356,0,0,0,90,false,stim,false,2,395.09999990463257,1,0,1,74339,task2,931795,false,false,1203,image-keyboard-response,19
true,11,2,1,2,true,d,false,true,0.0-2.0-0.39-0.357-3.357,0,0,0,68,false,stim,false,0,541.5,1,0,2,74339,task2,933859,false,false,1206,image-keyboard-response,20
true,11,0,1,0,true,q,false,true,0.0-2.0-0.39-0.358-3.358,0,0,0,81,false,stim,false,1,471.5,1,0,0,74339,task2,935851,false,false,1209,image-keyboard-response,21
true,11,0,1,0,true,q,false,true,0.0-2.0-0.39-0.359-3.359,0,0,0,81,false,stim,false,1,422.90000009536743,1,0,0,74339,task2,937800,false,false,1212,image-keyboard-response,22
true,11,0,1,0,true,q,false,true,0.0-2.0-0.40-0.360-3.360,0,0,0,81,false,stim,false,1,433.7000000476837,1,0,0,74339,task2,939763,false,false,1215,image-keyboard-response,23
true,11,2,1,2,true,d,false,true,0.0-2.0-0.40-0.361-3.361,0,0,0,68,false,stim,false,0,587.0,1,0,2,74339,task2,941881,false,false,1218,image-keyboard-response,24
true,11,0,1,0,true,q,false,false,0.0-2.0-0.40-0.362-3.362,0,0,0,81,false,stim,false,1,590.7999999523163,1,0,0,74339,task2,944001,false,true,1221,image-keyboard-response,25
true,11,2,1,2,true,d,false,true,0.0-2.0-0.40-0.363-3.363,0,0,0,68,false,stim,false,0,447.89999985694885,1,0,2,74339,task2,945977,false,false,1224,image-keyboard-response,26
true,11,1,1,1,true,z,false,true,0.0-2.0-0.40-0.364-3.364,0,0,0,90,false,stim,false,2,609.3000001907349,1,0,1,74339,task2,948117,false,false,1227,image-keyboard-response,27
true,11,2,1,2,true,d,false,true,0.0-2.0-0.40-0.365-3.365,0,0,0,68,false,stim,false,0,508.7000000476837,1,0,2,74339,task2,950155,false,false,1230,image-keyboard-response,28
true,11,1,1,1,true,z,false,true,0.0-2.0-0.40-0.366-3.366,0,0,0,90,false,stim,false,2,516.7000000476837,1,0,1,74339,task2,952194,false,false,1233,image-keyboard-response,29
true,11,0,1,0,true,q,false,true,0.0-2.0-0.40-0.367-3.367,0,0,0,81,false,stim,false,1,480.0,1,0,0,74339,task2,954203,false,false,1236,image-keyboard-response,30
true,11,1,1,1,true,z,false,true,0.0-2.0-0.40-0.368-3.368,0,0,0,90,false,stim,false,2,396.2000000476837,1,0,1,74339,task2,956131,false,false,1239,image-keyboard-response,31
true,11,0,1,0,true,q,false,true,0.0-2.0-0.41-0.369-3.369,0,0,0,81,false,stim,false,1,768.0,1,0,0,74339,task2,958422,false,false,1242,image-keyboard-response,32
true,11,1,1,1,true,z,false,true,0.0-2.0-0.41-0.370-3.370,0,0,0,90,false,stim,false,2,348.69999980926514,1,0,1,74339,task2,960296,false,false,1245,image-keyboard-response,33
true,11,2,1,2,true,d,false,true,0.0-2.0-0.41-0.371-3.371,0,0,0,68,false,stim,false,0,454.7000000476837,1,0,2,74339,task2,962270,false,false,1248,image-keyboard-response,34
true,11,0,1,0,true,q,false,false,0.0-2.0-0.41-0.372-3.372,0,0,0,81,false,stim,false,1,500.7000000476837,1,1,0,74339,task2,964298,false,true,1251,image-keyboard-response,35
true,11,2,1,2,true,d,false,true,0.0-2.0-0.41-0.373-3.373,0,0,0,68,false,stim,false,0,751.0,1,0,2,74339,task2,966577,false,false,1254,image-keyboard-response,36
true,11,2,1,2,true,d,false,true,0.0-2.0-0.41-0.374-3.374,0,0,0,68,false,stim,false,0,455.40000009536743,1,0,2,74339,task2,968562,false,false,1257,image-keyboard-response,37
true,12,1,2,2,false,d,false,false,0.0-2.0-0.41-0.375-3.375,1,0,0,90,true,stim,true,1,580.2999999523163,1,0,1,74339,task2,970666,false,false,1260,image-keyboard-response,1
true,12,0,2,0,true,q,false,true,0.0-2.0-0.41-0.376-3.376,1,0,0,81,false,stim,false,0,596.2999999523163,1,1,0,74339,task2,972786,false,false,1263,image-keyboard-response,2
true,12,1,2,2,false,d,false,false,0.0-2.0-0.41-0.377-3.377,1,0,0,90,false,stim,true,1,829.4000000953674,1,0,1,74339,task2,975147,false,false,1266,image-keyboard-response,3
true,12,2,2,1,false,z,false,false,0.0-2.0-0.42-0.378-3.378,1,0,0,68,false,stim,true,2,467.5,1,0,2,74339,task2,977138,false,false,1269,image-keyboard-response,4
true,12,2,2,2,true,d,false,false,0.0-2.0-0.42-0.379-3.379,1,0,0,68,false,stim,false,1,585.0,1,0,1,74339,task2,979255,false,true,1272,image-keyboard-response,5
true,12,2,2,1,false,z,false,false,0.0-2.0-0.42-0.380-3.380,1,0,0,68,false,stim,true,2,501.40000009536743,1,0,2,74339,task2,981279,false,false,1275,image-keyboard-response,6
true,12,0,2,2,false,d,true,false,0.0-2.0-0.42-0.381-3.381,1,0,0,81,false,stim,false,1,568.2000000476837,1,0,1,74339,task2,983373,false,false,1278,image-keyboard-response,7
true,12,1,2,2,false,d,false,false,0.0-2.0-0.42-0.382-3.382,1,0,0,90,false,stim,true,1,718.5,1,0,1,74339,task2,985614,false,false,1281,image-keyboard-response,8
true,12,0,2,0,true,q,false,true,0.0-2.0-0.42-0.383-3.383,1,0,0,81,false,stim,false,0,729.5,1,1,0,74339,task2,987874,false,false,1284,image-keyboard-response,9
true,12,0,2,1,false,z,true,false,0.0-2.0-0.42-0.384-3.384,1,0,0,81,false,stim,false,2,730.2999999523163,1,0,2,74339,task2,990124,false,false,1287,image-keyboard-response,10
true,12,0,2,0,true,q,false,true,0.0-2.0-0.42-0.385-3.385,1,0,0,81,false,stim,false,0,509.0,1,1,0,74339,task2,992157,false,false,1290,image-keyboard-response,11
true,12,0,2,0,true,q,false,true,0.0-2.0-0.42-0.386-3.386,1,0,0,81,false,stim,false,0,490.19999980926514,1,1,0,74339,task2,994168,false,false,1293,image-keyboard-response,12
true,12,1,2,1,true,z,false,true,0.0-2.0-0.43-0.387-3.387,1,0,0,90,false,stim,false,2,476.5,1,0,2,74339,task2,996163,false,false,1296,image-keyboard-response,13
true,12,1,2,1,true,z,false,true,0.0-2.0-0.43-0.388-3.388,1,0,0,90,false,stim,false,2,404.80000019073486,1,0,2,74339,task2,998087,false,false,1299,image-keyboard-response,14
true,12,1,2,2,false,d,false,false,0.0-2.0-0.43-0.389-3.389,1,0,0,90,false,stim,true,1,592.0999999046326,1,0,1,74339,task2,1000211,false,false,1302,image-keyboard-response,15
true,12,2,2,2,true,d,false,true,0.0-2.0-0.43-0.390-3.390,1,0,0,68,false,stim,false,1,421.7999999523163,1,0,1,74339,task2,1002161,false,false,1305,image-keyboard-response,16
true,12,0,2,0,true,q,false,true,0.0-2.0-0.43-0.391-3.391,1,0,0,81,false,stim,false,0,573.0999999046326,1,1,0,74339,task2,1004254,false,false,1308,image-keyboard-response,17
true,12,1,2,1,true,z,false,true,0.0-2.0-0.43-0.392-3.392,1,0,0,90,false,stim,false,2,480.40000009536743,1,0,2,74339,task2,1006257,false,false,1311,image-keyboard-response,18
true,12,0,2,0,true,q,false,true,0.0-2.0-0.43-0.393-3.393,1,0,0,81,false,stim,false,0,568.2000000476837,1,1,0,74339,task2,1008355,false,false,1314,image-keyboard-response,19
true,12,0,2,0,true,q,false,true,0.0-2.0-0.43-0.394-3.394,1,0,0,81,false,stim,false,0,514.0,1,1,0,74339,task2,1010391,false,false,1317,image-keyboard-response,20
true,12,2,2,2,true,d,false,true,0.0-2.0-0.43-0.395-3.395,1,0,0,68,false,stim,false,1,735.3999998569489,1,0,1,74339,task2,1012657,false,false,1320,image-keyboard-response,21
true,12,0,2,0,true,q,false,true,0.0-2.0-0.44-0.396-3.396,1,0,0,81,false,stim,false,0,606.2000000476837,1,1,0,74339,task2,1014788,false,false,1323,image-keyboard-response,22
true,12,1,2,1,true,z,false,true,0.0-2.0-0.44-0.397-3.397,1,0,0,90,false,stim,false,2,948.5999999046326,1,0,2,74339,task2,1017269,false,false,1326,image-keyboard-response,23
true,12,0,2,0,true,q,false,true,0.0-2.0-0.44-0.398-3.398,1,0,0,81,false,stim,false,0,511.7000000476837,1,1,0,74339,task2,1019314,false,false,1329,image-keyboard-response,24
true,12,0,2,0,true,q,false,true,0.0-2.0-0.44-0.399-3.399,1,0,0,81,false,stim,false,0,360.40000009536743,1,1,0,74339,task2,1021192,false,false,1332,image-keyboard-response,25
true,12,1,2,1,true,z,false,true,0.0-2.0-0.44-0.400-3.400,1,0,0,90,false,stim,false,2,1082.5999999046326,1,0,2,74339,task2,1023792,false,false,1335,image-keyboard-response,26
true,12,2,2,2,true,d,false,true,0.0-2.0-0.44-0.401-3.401,1,0,0,68,false,stim,false,1,435.10000014305115,1,0,1,74339,task2,1025746,false,false,1338,image-keyboard-response,27
true,12,1,2,1,true,z,false,true,0.0-2.0-0.44-0.402-3.402,1,0,0,90,false,stim,false,2,988.3000001907349,1,0,2,74339,task2,1028258,false,false,1341,image-keyboard-response,28
true,12,2,2,2,true,d,false,true,0.0-2.0-0.44-0.403-3.403,1,0,0,68,false,stim,false,1,446.7999999523163,1,1,1,74339,task2,1030228,false,false,1344,image-keyboard-response,29
true,12,2,2,2,true,d,false,true,0.0-2.0-0.44-0.404-3.404,1,0,0,68,false,stim,false,1,431.7999999523163,1,1,1,74339,task2,1032179,false,false,1347,image-keyboard-response,30
true,12,0,2,0,true,q,false,true,0.0-2.0-0.45-0.405-3.405,1,0,0,81,false,stim,false,0,390.09999990463257,1,0,0,74339,task2,1034092,false,false,1350,image-keyboard-response,31
true,12,2,2,1,false,z,false,false,0.0-2.0-0.45-0.406-3.406,1,0,0,68,false,stim,true,2,704.9000000953674,1,0,2,74339,task2,1036327,false,false,1353,image-keyboard-response,32
true,12,2,2,2,true,d,false,true,0.0-2.0-0.45-0.407-3.407,1,0,0,68,false,stim,false,1,604.0,1,1,1,74339,task2,1038461,false,false,1356,image-keyboard-response,33
true,13,1,2,0,false,q,false,false,0.0-2.0-0.45-0.408-3.408,0,1,0,90,true,stim,true,1,466.89999985694885,1,0,2,74339,task2,1040452,false,false,1359,image-keyboard-response,1
true,13,0,2,2,false,d,false,false,0.0-2.0-0.45-0.409-3.409,0,1,0,81,false,stim,true,0,502.5,1,0,0,74339,task2,1042479,false,false,1362,image-keyboard-response,2
true,13,2,2,2,true,d,false,true,0.0-2.0-0.45-0.410-3.410,0,1,0,68,false,stim,false,2,719.0,1,1,1,74339,task2,1044727,false,false,1365,image-keyboard-response,3
true,13,2,2,2,true,d,false,true,0.0-2.0-0.45-0.411-3.411,0,1,0,68,false,stim,false,2,540.0999999046326,1,1,1,74339,task2,1046797,false,false,1368,image-keyboard-response,4
true,13,1,2,0,false,q,false,false,0.0-2.0-0.45-0.412-3.412,0,1,0,90,false,stim,true,1,574.9000000953674,1,0,2,74339,task2,1048898,false,false,1371,image-keyboard-response,5
true,13,1,2,2,false,d,true,false,0.0-2.0-0.45-0.413-3.413,0,1,0,90,false,stim,false,0,790.0,1,0,0,74339,task2,1051206,false,false,1374,image-keyboard-response,6
true,13,2,2,2,true,d,false,true,0.0-2.0-0.46-0.414-3.414,0,1,0,68,false,stim,false,2,657.0999999046326,1,1,1,74339,task2,1053396,false,false,1377,image-keyboard-response,7
true,13,2,2,2,true,d,false,true,0.0-2.0-0.46-0.415-3.415,0,1,0,68,false,stim,false,2,447.59999990463257,1,1,1,74339,task2,1055370,false,false,1380,image-keyboard-response,8
true,13,2,2,2,true,d,false,true,0.0-2.0-0.46-0.416-3.416,0,1,0,68,false,stim,false,0,316.90000009536743,1,0,0,74339,task2,1057207,false,false,1383,image-keyboard-response,9
true,13,2,2,2,true,d,false,true,0.0-2.0-0.46-0.417-3.417,0,1,0,68,false,stim,false,0,339.69999980926514,1,0,0,74339,task2,1059070,false,false,1386,image-keyboard-response,10
true,13,2,2,0,false,q,true,false,0.0-2.0-0.46-0.418-3.418,0,1,0,68,false,stim,false,1,438.2000000476837,1,0,2,74339,task2,1061029,false,false,1389,image-keyboard-response,11
true,13,0,2,0,true,q,false,true,0.0-2.0-0.46-0.419-3.419,0,1,0,81,false,stim,false,1,670.7000000476837,1,0,2,74339,task2,1063231,false,false,1392,image-keyboard-response,12
true,13,2,2,2,true,d,false,true,0.0-2.0-0.46-0.420-3.420,0,1,0,68,false,stim,false,0,457.10000014305115,1,0,0,74339,task2,1065218,false,false,1395,image-keyboard-response,13
true,13,2,2,2,true,d,false,true,0.0-2.0-0.46-0.421-3.421,0,1,0,68,false,stim,false,2,466.7999999523163,1,1,1,74339,task2,1067206,false,false,1398,image-keyboard-response,14
true,13,2,2,0,false,q,true,false,0.0-2.0-0.46-0.422-3.422,0,1,0,68,false,stim,false,1,384.09999990463257,1,0,2,74339,task2,1069151,false,false,1401,image-keyboard-response,15
true,13,2,2,2,true,d,false,true,0.0-2.0-0.47-0.423-3.423,0,1,0,68,false,stim,false,2,421.80000019073486,1,1,1,74339,task2,1071093,false,false,1404,image-keyboard-response,16
true,13,0,2,0,true,q,false,true,0.0-2.0-0.47-0.424-3.424,0,1,0,81,false,stim,false,1,586.0999999046326,1,0,2,74339,task2,1073207,false,false,1407,image-keyboard-response,17
true,13,0,2,0,true,q,false,true,0.0-2.0-0.47-0.425-3.425,0,1,0,81,false,stim,false,1,411.90000009536743,1,0,2,74339,task2,1075143,false,false,1410,image-keyboard-response,18
true,13,2,2,2,true,d,false,false,0.0-2.0-0.47-0.426-3.426,0,1,0,68,false,stim,false,0,394.40000009536743,1,0,0,74339,task2,1077061,false,true,1413,image-keyboard-response,19
true,13,2,2,2,true,d,false,true,0.0-2.0-0.47-0.427-3.427,0,1,0,68,false,stim,false,0,410.2000000476837,1,0,0,74339,task2,1078995,false,false,1416,image-keyboard-response,20
true,13,2,2,2,true,d,false,true,0.0-2.0-0.47-0.428-3.428,0,1,0,68,false,stim,false,2,635.1000001430511,1,1,1,74339,task2,1081158,false,false,1419,image-keyboard-response,21
true,13,2,2,2,true,d,false,true,0.0-2.0-0.47-0.429-3.429,0,1,0,68,false,stim,false,0,540.5,1,0,0,74339,task2,1083220,false,false,1422,image-keyboard-response,22
true,13,2,2,2,true,d,false,true,0.0-2.0-0.47-0.430-3.430,0,1,0,68,false,stim,false,2,552.7000000476837,1,1,1,74339,task2,1085298,false,false,1425,image-keyboard-response,23
true,13,0,2,0,true,q,false,true,0.0-2.0-0.47-0.431-3.431,0,1,0,81,false,stim,false,1,670.3999998569489,1,0,2,74339,task2,1087496,false,false,1428,image-keyboard-response,24
true,13,2,2,2,true,d,false,true,0.0-2.0-0.48-0.432-3.432,0,1,0,68,false,stim,false,2,581.2999999523163,1,1,1,74339,task2,1089603,false,false,1431,image-keyboard-response,25
true,13,0,2,0,true,q,false,true,0.0-2.0-0.48-0.433-3.433,0,1,0,81,false,stim,false,1,528.5,1,0,2,74339,task2,1091664,false,false,1434,image-keyboard-response,26
true,13,2,2,0,false,q,true,false,0.0-2.0-0.48-0.434-3.434,0,1,0,68,false,stim,false,1,552.2999999523163,1,0,2,74339,task2,1093747,false,false,1437,image-keyboard-response,27
true,13,2,2,2,true,d,false,true,0.0-2.0-0.48-0.435-3.435,0,1,0,68,false,stim,false,2,423.5,1,1,1,74339,task2,1095697,false,false,1440,image-keyboard-response,28
true,13,0,2,0,true,q,false,true,0.0-2.0-0.48-0.436-3.436,0,1,0,81,false,stim,false,1,494.59999990463257,1,0,2,74339,task2,1097719,false,false,1443,image-keyboard-response,29
true,13,2,2,2,true,d,false,true,0.0-2.0-0.48-0.437-3.437,0,1,0,68,false,stim,false,0,613.1999998092651,1,0,0,74339,task2,1099851,false,false,1446,image-keyboard-response,30
true,13,2,2,2,true,d,false,true,0.0-2.0-0.48-0.438-3.438,0,1,0,68,false,stim,false,0,372.7999999523163,1,0,0,74339,task2,1101749,false,false,1449,image-keyboard-response,31
true,13,0,2,2,false,d,true,false,0.0-2.0-0.48-0.439-3.439,0,1,0,81,false,stim,false,2,1246.9000000953674,1,0,1,74339,task2,1104529,false,false,1452,image-keyboard-response,32
true,13,2,2,2,true,d,false,true,0.0-2.0-0.48-0.440-3.440,0,1,0,68,false,stim,false,0,462.0,1,0,0,74339,task2,1106521,false,false,1455,image-keyboard-response,33
true,13,2,2,2,true,d,false,true,0.0-2.0-0.49-0.441-3.441,0,1,0,68,false,stim,false,2,398.0,1,0,1,74339,task2,1108445,false,false,1458,image-keyboard-response,34
true,14,0,2,0,true,q,false,true,0.0-2.0-0.49-0.442-3.442,0,0,1,81,true,stim,false,0,616.7000000476837,1,1,2,74339,task2,1110587,false,false,1461,image-keyboard-response,1
true,14,2,2,1,false,z,false,false,0.0-2.0-0.49-0.443-3.443,0,0,1,68,false,stim,true,2,420.39999985694885,1,0,1,74339,task2,1112530,false,false,1464,image-keyboard-response,2
true,14,0,2,0,true,q,false,true,0.0-2.0-0.49-0.444-3.444,0,0,1,81,false,stim,false,0,665.5,1,1,2,74339,task2,1114726,false,false,1467,image-keyboard-response,3
true,14,0,2,0,true,q,false,true,0.0-2.0-0.49-0.445-3.445,0,0,1,81,false,stim,false,0,353.7000000476837,1,1,2,74339,task2,1116614,false,false,1470,image-keyboard-response,4
true,14,0,2,1,false,z,true,false,0.0-2.0-0.49-0.446-3.446,0,0,1,81,false,stim,false,2,499.40000009536743,1,0,0,74339,task2,1118636,false,false,1473,image-keyboard-response,5
true,14,2,2,1,false,z,false,false,0.0-2.0-0.49-0.447-3.447,0,0,1,68,false,stim,true,2,561.5,1,0,0,74339,task2,1120728,false,false,1476,image-keyboard-response,6
true,14,2,2,1,false,z,false,false,0.0-2.0-0.49-0.448-3.448,0,0,1,68,false,stim,true,2,331.09999990463257,1,0,0,74339,task2,1122590,false,false,1479,image-keyboard-response,7
true,14,2,2,1,false,z,false,false,0.0-2.0-0.49-0.449-3.449,0,0,1,68,false,stim,true,2,745.0,1,0,1,74339,task2,1124865,false,false,1482,image-keyboard-response,8
true,14,1,2,1,true,z,false,true,0.0-2.0-0.50-0.450-3.450,0,0,1,90,false,stim,false,2,411.5,1,0,0,74339,task2,1126807,false,false,1485,image-keyboard-response,9
true,14,0,2,0,true,q,false,true,0.0-2.0-0.50-0.451-3.451,0,0,1,81,false,stim,false,0,541.6999998092651,1,1,2,74339,task2,1128876,false,false,1488,image-keyboard-response,10
true,14,1,2,1,true,z,false,false,0.0-2.0-0.50-0.452-3.452,0,0,1,90,false,stim,false,2,630.7000000476837,1,0,0,74339,task2,1131027,false,true,1491,image-keyboard-response,11
true,14,1,2,1,true,z,false,false,0.0-2.0-0.50-0.453-3.453,0,0,1,90,false,stim,false,2,895.0999999046326,1,0,1,74339,task2,1133433,false,true,1494,image-keyboard-response,12
true,14,1,2,1,true,z,false,true,0.0-2.0-0.50-0.454-3.454,0,0,1,90,false,stim,false,2,617.0999999046326,1,0,0,74339,task2,1135578,false,false,1497,image-keyboard-response,13
true,14,0,2,1,false,z,true,false,0.0-2.0-0.50-0.455-3.455,0,0,1,81,false,stim,false,2,782.7000000476837,1,0,1,74339,task2,1137881,false,false,1500,image-keyboard-response,14
true,14,0,2,0,true,q,false,true,0.0-2.0-0.50-0.456-3.456,0,0,1,81,false,stim,false,0,453.7999999523163,1,1,2,74339,task2,1140001,false,false,1503,image-keyboard-response,15
true,14,0,2,0,true,q,false,true,0.0-2.0-0.50-0.457-3.457,0,0,1,81,false,stim,false,0,489.0,1,1,2,74339,task2,1142016,false,false,1506,image-keyboard-response,16
true,14,1,2,1,true,z,false,true,0.0-2.0-0.50-0.458-3.458,0,0,1,90,false,stim,false,2,708.8999998569489,1,0,1,74339,task2,1144251,false,false,1509,image-keyboard-response,17
true,14,1,2,1,true,z,false,true,0.0-2.0-0.51-0.459-3.459,0,0,1,90,false,stim,false,2,416.09999990463257,1,0,0,74339,task2,1146190,false,false,1512,image-keyboard-response,18
true,14,1,2,1,true,z,false,false,0.0-2.0-0.51-0.460-3.460,0,0,1,90,false,stim,false,2,343.39999985694885,1,0,0,74339,task2,1148065,false,true,1515,image-keyboard-response,19
true,14,1,2,1,true,z,false,true,0.0-2.0-0.51-0.461-3.461,0,0,1,90,false,stim,false,2,397.2999999523163,1,0,1,74339,task2,1149992,false,false,1518,image-keyboard-response,20
true,14,1,2,1,true,z,false,true,0.0-2.0-0.51-0.462-3.462,0,0,1,90,false,stim,false,2,295.2000000476837,1,0,1,74339,task2,1151811,false,false,1521,image-keyboard-response,21
true,14,0,2,0,true,q,false,false,0.0-2.0-0.51-0.463-3.463,0,0,1,81,false,stim,false,0,593.5,1,1,2,74339,task2,1153934,false,true,1524,image-keyboard-response,22
true,14,0,2,0,true,q,false,true,0.0-2.0-0.51-0.464-3.464,0,0,1,81,false,stim,false,0,378.7999999523163,1,1,2,74339,task2,1155844,false,false,1527,image-keyboard-response,23
true,14,0,2,0,true,q,false,true,0.0-2.0-0.51-0.465-3.465,0,0,1,81,false,stim,false,0,400.39999985694885,1,1,2,74339,task2,1157769,false,false,1530,image-keyboard-response,24
true,14,0,2,1,false,z,true,false,0.0-2.0-0.51-0.466-3.466,0,0,1,81,false,stim,false,2,343.5,1,0,1,74339,task2,1159635,false,false,1533,image-keyboard-response,25
true,14,1,2,1,true,z,false,true,0.0-2.0-0.51-0.467-3.467,0,0,1,90,false,stim,false,2,426.5,1,0,0,74339,task2,1161591,false,false,1536,image-keyboard-response,26
true,14,1,2,1,true,z,false,true,0.0-2.0-0.52-0.468-3.468,0,0,1,90,false,stim,false,2,394.90000009536743,1,0,1,74339,task2,1163515,false,false,1539,image-keyboard-response,27
true,14,0,2,0,true,q,false,true,0.0-2.0-0.52-0.469-3.469,0,0,1,81,false,stim,false,0,535.5999999046326,1,1,2,74339,task2,1165574,false,false,1542,image-keyboard-response,28
true,14,1,2,1,true,z,false,false,0.0-2.0-0.52-0.470-3.470,0,0,1,90,false,stim,false,2,455.7000000476837,1,0,1,74339,task2,1167559,false,true,1545,image-keyboard-response,29
true,14,1,2,0,false,q,true,false,0.0-2.0-0.52-0.471-3.471,0,0,1,90,false,stim,false,0,389.7000000476837,1,1,2,74339,task2,1169481,false,false,1548,image-keyboard-response,30
true,14,1,2,1,true,z,false,true,0.0-2.0-0.52-0.472-3.472,0,0,1,90,false,stim,false,2,534.2000000476837,1,0,0,74339,task2,1171543,false,false,1551,image-keyboard-response,31
true,14,1,2,1,true,z,false,true,0.0-2.0-0.52-0.473-3.473,0,0,1,90,false,stim,false,2,343.90000009536743,1,0,0,74339,task2,1173408,false,false,1554,image-keyboard-response,32
true,15,1,2,0,false,q,false,false,0.0-2.0-0.52-0.474-3.474,0,0,1,90,true,stim,true,1,378.59999990463257,1,0,0,74339,task2,1175316,false,false,1557,image-keyboard-response,1
true,15,1,2,2,false,d,false,false,0.0-2.0-0.52-0.475-3.475,0,0,1,90,false,stim,true,1,453.0,1,0,1,74339,task2,1177302,false,false,1560,image-keyboard-response,2
true,15,0,2,0,true,q,false,false,0.0-2.0-0.52-0.476-3.476,0,0,1,81,false,stim,false,0,666.7999999523163,1,1,2,74339,task2,1179494,false,true,1563,image-keyboard-response,3
true,15,1,2,2,false,d,false,false,0.0-2.0-0.53-0.477-3.477,0,0,1,90,false,stim,true,1,716.2999999523163,1,0,1,74339,task2,1181747,false,false,1566,image-keyboard-response,4
true,15,2,2,2,true,d,false,true,0.0-2.0-0.53-0.478-3.478,0,0,1,68,false,stim,false,1,520.2000000476837,1,0,1,74339,task2,1183797,false,false,1569,image-keyboard-response,5
true,15,2,2,2,true,d,false,true,0.0-2.0-0.53-0.479-3.479,0,0,1,68,false,stim,false,1,319.40000009536743,1,0,1,74339,task2,1185648,false,false,1572,image-keyboard-response,6
true,15,2,2,0,false,q,true,false,0.0-2.0-0.53-0.480-3.480,0,0,1,68,false,stim,false,1,438.2000000476837,1,0,0,74339,task2,1187616,false,false,1575,image-keyboard-response,7
true,15,2,2,0,false,q,true,false,0.0-2.0-0.53-0.481-3.481,0,0,1,68,false,stim,false,0,892.6000001430511,1,1,2,74339,task2,1190040,false,false,1578,image-keyboard-response,8
true,15,1,2,0,false,q,true,false,0.0-2.0-0.53-0.482-3.482,0,0,1,90,false,stim,false,0,635.7000000476837,1,1,2,74339,task2,1192201,false,false,1581,image-keyboard-response,9
true,15,0,2,0,true,q,false,true,0.0-2.0-0.53-0.483-3.483,0,0,1,81,false,stim,false,1,850.6000001430511,1,0,0,74339,task2,1194570,false,false,1584,image-keyboard-response,10
true,15,0,2,0,true,q,false,true,0.0-2.0-0.53-0.484-3.484,0,0,1,81,false,stim,false,0,427.0,1,1,2,74339,task2,1196525,false,false,1587,image-keyboard-response,11
true,15,0,2,0,true,q,false,true,0.0-2.0-0.53-0.485-3.485,0,0,1,81,false,stim,false,1,509.2999999523163,1,0,0,74339,task2,1198562,false,false,1590,image-keyboard-response,12
true,15,0,2,0,true,q,false,true,0.0-2.0-0.54-0.486-3.486,0,0,1,81,false,stim,false,1,395.80000019073486,1,0,0,74339,task2,1200473,false,false,1593,image-keyboard-response,13
true,15,2,2,2,true,d,false,true,0.0-2.0-0.54-0.487-3.487,0,0,1,68,false,stim,false,1,681.7000000476837,1,0,1,74339,task2,1202677,false,false,1596,image-keyboard-response,14
true,15,0,2,0,true,q,false,false,0.0-2.0-0.54-0.488-3.488,0,0,1,81,false,stim,false,0,526.5,1,1,2,74339,task2,1204735,false,true,1599,image-keyboard-response,15
true,15,0,2,0,true,q,false,true,0.0-2.0-0.54-0.489-3.489,0,0,1,81,false,stim,false,1,311.19999980926514,1,0,0,74339,task2,1206579,false,false,1602,image-keyboard-response,16
true,15,2,2,2,true,d,false,true,0.0-2.0-0.54-0.490-3.490,0,0,1,68,false,stim,false,1,671.2000000476837,1,0,1,74339,task2,1208782,false,false,1605,image-keyboard-response,17
true,15,1,2,0,false,q,true,false,0.0-2.0-0.54-0.491-3.491,0,0,1,90,false,stim,false,0,1099.3999998569489,1,1,2,74339,task2,1211415,false,false,1608,image-keyboard-response,18
true,15,0,2,0,true,q,false,false,0.0-2.0-0.54-0.492-3.492,0,0,1,81,false,stim,false,1,575.0999999046326,1,0,0,74339,task2,1213523,false,true,1611,image-keyboard-response,19
true,15,2,2,2,true,d,false,true,0.0-2.0-0.54-0.493-3.493,0,0,1,68,false,stim,false,1,595.0999999046326,1,0,1,74339,task2,1215648,false,false,1614,image-keyboard-response,20
true,15,0,2,0,true,q,false,true,0.0-2.0-0.54-0.494-3.494,0,0,1,81,false,stim,false,0,377.19999980926514,1,1,2,74339,task2,1217548,false,false,1617,image-keyboard-response,21
true,15,0,2,2,false,d,true,false,0.0-2.0-0.55-0.495-3.495,0,0,1,81,false,stim,false,1,442.40000009536743,1,0,1,74339,task2,1219516,false,false,1620,image-keyboard-response,22
true,15,0,2,0,true,q,false,true,0.0-2.0-0.55-0.496-3.496,0,0,1,81,false,stim,false,1,439.2999999523163,1,0,0,74339,task2,1221479,false,false,1623,image-keyboard-response,23
true,15,0,2,0,true,q,false,true,0.0-2.0-0.55-0.497-3.497,0,0,1,81,false,stim,false,0,1042.2000000476837,1,1,2,74339,task2,1224048,false,false,1626,image-keyboard-response,24
true,15,0,2,0,true,q,false,true,0.0-2.0-0.55-0.498-3.498,0,0,1,81,false,stim,false,1,518.4000000953674,1,0,0,74339,task2,1226086,false,false,1629,image-keyboard-response,25
true,15,2,2,2,true,d,false,true,0.0-2.0-0.55-0.499-3.499,0,0,1,68,false,stim,false,1,407.2999999523163,1,0,1,74339,task2,1228018,false,false,1632,image-keyboard-response,26
true,15,0,2,0,true,q,false,true,0.0-2.0-0.55-0.500-3.500,0,0,1,81,false,stim,false,1,468.2000000476837,1,0,0,74339,task2,1230015,false,false,1635,image-keyboard-response,27
true,15,2,2,0,false,q,true,true,0.0-2.0-0.55-0.501-3.501,0,0,1,68,false,stim,false,0,514.9000000953674,1,1,2,74339,task2,1232060,false,true,1638,image-keyboard-response,28
true,15,2,2,0,false,q,true,false,0.0-2.0-0.55-0.502-3.502,0,0,1,68,false,stim,false,0,556.8999998569489,1,1,2,74339,task2,1234141,false,false,1641,image-keyboard-response,29
true,15,2,2,2,true,d,false,true,0.0-2.0-0.55-0.503-3.503,0,0,1,68,false,stim,false,1,1619.7999999523163,1,1,1,74339,task2,1237279,false,false,1644,image-keyboard-response,30
true,15,0,2,0,true,q,false,true,0.0-2.0-0.56-0.504-3.504,0,0,1,81,false,stim,false,0,470.0,1,1,2,74339,task2,1239270,false,false,1647,image-keyboard-response,31
true,15,0,2,0,true,q,false,true,0.0-2.0-0.56-0.505-3.505,0,0,1,81,false,stim,false,0,362.5,1,1,2,74339,task2,1241160,false,false,1650,image-keyboard-response,32
true,15,0,2,0,true,q,false,true,0.0-2.0-0.56-0.506-3.506,0,0,1,81,false,stim,false,1,524.9000000953674,1,1,0,74339,task2,1243214,false,false,1653,image-keyboard-response,33
true,16,1,0,0,false,q,true,true,0.0-2.0-0.56-0.507-3.507,1,1,1,90,true,stim,false,0,763.2999999523163,1,1,2,74339,task2,1257277,false,true,1668,image-keyboard-response,1
true,16,2,0,2,true,d,false,true,0.0-2.0-0.56-0.508-3.508,1,1,1,68,false,stim,false,2,815.9000000953674,1,1,1,74339,task2,1259601,false,false,1671,image-keyboard-response,2
true,16,0,0,0,true,q,false,true,0.0-2.0-0.56-0.509-3.509,1,1,1,81,false,stim,false,0,519.7999999523163,1,1,0,74339,task2,1261655,false,false,1674,image-keyboard-response,3
true,16,2,0,2,true,d,false,true,0.0-2.0-0.56-0.510-3.510,1,1,1,68,false,stim,false,2,574.5,1,1,1,74339,task2,1263753,false,false,1677,image-keyboard-response,4
true,16,2,0,2,true,d,false,true,0.0-2.0-0.56-0.511-3.511,1,1,1,68,false,stim,false,2,507.60000014305115,1,1,1,74339,task2,1265780,false,false,1680,image-keyboard-response,5
true,16,0,0,0,true,q,false,true,0.0-2.0-0.56-0.512-3.512,1,1,1,81,false,stim,false,0,924.7000000476837,1,1,0,74339,task2,1268228,false,false,1683,image-keyboard-response,6
true,16,2,0,2,true,d,false,true,0.0-2.0-0.57-0.513-3.513,1,1,1,68,false,stim,false,2,635.7999999523163,1,1,1,74339,task2,1270386,false,false,1686,image-keyboard-response,7
true,16,1,0,0,false,q,true,false,0.0-2.0-0.57-0.514-3.514,1,1,1,90,false,stim,false,0,613.8999998569489,1,1,2,74339,task2,1272523,false,false,1689,image-keyboard-response,8
true,16,0,0,0,true,q,false,true,0.0-2.0-0.57-0.515-3.515,1,1,1,81,false,stim,false,0,751.5999999046326,1,0,0,74339,task2,1274798,false,false,1692,image-keyboard-response,9
true,16,2,0,2,true,d,false,true,0.0-2.0-0.57-0.516-3.516,1,1,1,68,false,stim,false,2,646.5999999046326,1,0,1,74339,task2,1276973,false,false,1695,image-keyboard-response,10
true,16,2,0,2,true,d,false,true,0.0-2.0-0.57-0.517-3.517,1,1,1,68,false,stim,false,2,483.7000000476837,1,0,1,74339,task2,1278981,false,false,1698,image-keyboard-response,11
true,16,0,0,0,true,q,false,true,0.0-2.0-0.57-0.518-3.518,1,1,1,81,false,stim,false,0,547.0,1,0,0,74339,task2,1281061,false,false,1701,image-keyboard-response,12
true,16,1,0,0,false,q,true,false,0.0-2.0-0.57-0.519-3.519,1,1,1,90,false,stim,false,0,1462.5,1,0,2,74339,task2,1284048,false,false,1704,image-keyboard-response,13
true,17,0,1,2,false,d,false,false,0.0-2.0-0.57-0.520-3.520,0,0,0,81,true,stim,true,0,572.3000001907349,1,0,0,74339,task2,1286153,false,false,1707,image-keyboard-response,1
true,17,1,1,1,true,z,false,true,0.0-2.0-0.57-0.521-3.521,0,0,0,90,false,stim,false,0,986.2000000476837,1,0,2,74339,task2,1288662,false,false,1710,image-keyboard-response,2
true,17,0,1,2,false,d,false,false,0.0-2.0-0.58-0.522-3.522,0,0,0,81,false,stim,true,0,366.0,1,0,0,74339,task2,1290559,false,false,1713,image-keyboard-response,3
true,17,2,1,0,false,q,false,false,0.0-2.0-0.58-0.523-3.523,0,0,0,68,false,stim,true,2,631.0,1,0,1,74339,task2,1292713,false,false,1716,image-keyboard-response,4
true,17,1,1,1,true,z,false,true,0.0-2.0-0.58-0.524-3.524,0,0,0,90,false,stim,false,0,731.0999999046326,1,0,2,74339,task2,1294966,false,false,1719,image-keyboard-response,5
true,17,1,1,2,false,d,true,false,0.0-2.0-0.58-0.525-3.525,0,0,0,90,false,stim,false,0,509.7000000476837,1,0,0,74339,task2,1297003,false,false,1722,image-keyboard-response,6
true,17,1,1,1,true,z,false,true,0.0-2.0-0.58-0.526-3.526,0,0,0,90,false,stim,false,0,748.7999999523163,1,0,2,74339,task2,1299277,false,false,1725,image-keyboard-response,7
true,17,2,1,2,true,d,false,true,0.0-2.0-0.58-0.527-3.527,0,0,0,68,false,stim,false,0,1022.3999998569489,1,0,0,74339,task2,1301828,false,false,1728,image-keyboard-response,8
true,17,2,1,0,false,q,false,false,0.0-2.0-0.58-0.528-3.528,0,0,0,68,false,stim,true,2,641.1000001430511,1,0,1,74339,task2,1303999,false,false,1731,image-keyboard-response,9
true,17,1,1,1,true,z,false,true,0.0-2.0-0.58-0.529-3.529,0,0,0,90,false,stim,false,0,651.2000000476837,1,0,2,74339,task2,1306182,false,false,1734,image-keyboard-response,10
true,17,1,1,0,false,q,true,false,0.0-2.0-0.58-0.530-3.530,0,0,0,90,false,stim,false,2,441.10000014305115,1,0,1,74339,task2,1308152,false,false,1737,image-keyboard-response,11
true,17,1,1,1,true,z,false,true,0.0-2.0-0.59-0.531-3.531,0,0,0,90,false,stim,false,0,457.0,1,0,2,74339,task2,1310134,false,false,1740,image-keyboard-response,12
true,17,2,1,2,true,d,false,true,0.0-2.0-0.59-0.532-3.532,0,0,0,68,false,stim,false,0,597.5999999046326,1,0,0,74339,task2,1312257,false,false,1743,image-keyboard-response,13
true,17,1,1,1,true,z,false,true,0.0-2.0-0.59-0.533-3.533,0,0,0,90,false,stim,false,0,638.5,1,0,2,74339,task2,1314426,false,false,1746,image-keyboard-response,14
true,17,2,1,2,true,d,false,true,0.0-2.0-0.59-0.534-3.534,0,0,0,68,false,stim,false,0,617.1999998092651,1,0,0,74339,task2,1316569,false,false,1749,image-keyboard-response,15
true,17,1,1,1,true,z,false,true,0.0-2.0-0.59-0.535-3.535,0,0,0,90,false,stim,false,0,491.7999999523163,1,0,2,74339,task2,1318579,false,false,1752,image-keyboard-response,16
true,17,0,1,0,true,q,false,true,0.0-2.0-0.59-0.536-3.536,0,0,0,81,false,stim,false,2,704.3999998569489,1,0,1,74339,task2,1320816,false,false,1755,image-keyboard-response,17
true,17,0,1,0,true,q,false,true,0.0-2.0-0.59-0.537-3.537,0,0,0,81,false,stim,false,2,740.0999999046326,1,0,1,74339,task2,1323077,false,false,1758,image-keyboard-response,18
true,17,2,1,2,true,d,false,true,0.0-2.0-0.59-0.538-3.538,0,0,0,68,false,stim,false,0,763.7000000476837,1,0,0,74339,task2,1325365,false,false,1761,image-keyboard-response,19
true,17,0,1,0,true,q,false,true,0.0-2.0-0.59-0.539-3.539,0,0,0,81,false,stim,false,2,661.9000000953674,1,0,1,74339,task2,1327559,false,false,1764,image-keyboard-response,20
true,17,2,1,2,true,d,false,true,0.0-2.0-0.60-0.540-3.540,0,0,0,68,false,stim,false,0,933.1000001430511,1,0,0,74339,task2,1330017,false,false,1767,image-keyboard-response,21
true,17,0,1,0,true,q,false,true,0.0-2.0-0.60-0.541-3.541,0,0,0,81,false,stim,false,2,412.59999990463257,1,0,1,74339,task2,1331951,false,false,1770,image-keyboard-response,22
true,17,2,1,2,true,d,false,true,0.0-2.0-0.60-0.542-3.542,0,0,0,68,false,stim,false,0,720.5999999046326,1,0,0,74339,task2,1334190,false,false,1773,image-keyboard-response,23
true,17,1,1,1,true,z,false,true,0.0-2.0-0.60-0.543-3.543,0,0,0,90,false,stim,false,0,1291.0999999046326,1,0,2,74339,task2,1337010,false,false,1776,image-keyboard-response,24
true,17,0,1,0,true,q,false,true,0.0-2.0-0.60-0.544-3.544,0,0,0,81,false,stim,false,2,678.2000000476837,1,0,1,74339,task2,1339212,false,false,1779,image-keyboard-response,25
true,17,1,1,1,true,z,false,true,0.0-2.0-0.60-0.545-3.545,0,0,0,90,false,stim,false,0,586.7000000476837,1,0,2,74339,task2,1341323,false,false,1782,image-keyboard-response,26
true,17,0,1,0,true,q,false,true,0.0-2.0-0.60-0.546-3.546,0,0,0,81,false,stim,false,2,624.4000000953674,1,0,1,74339,task2,1343469,false,false,1785,image-keyboard-response,27
true,17,1,1,1,true,z,false,true,0.0-2.0-0.60-0.547-3.547,0,0,0,90,false,stim,false,0,574.3999998569489,1,0,2,74339,task2,1345576,false,false,1788,image-keyboard-response,28
true,17,2,1,2,true,d,false,true,0.0-2.0-0.60-0.548-3.548,0,0,0,68,false,stim,false,0,489.90000009536743,1,0,0,74339,task2,1347599,false,false,1791,image-keyboard-response,29
true,17,0,1,0,true,q,false,true,0.0-2.0-0.61-0.549-3.549,0,0,0,81,false,stim,false,2,1209.0999999046326,1,0,1,74339,task2,1350324,false,false,1794,image-keyboard-response,30
true,17,2,1,2,true,d,false,true,0.0-2.0-0.61-0.550-3.550,0,0,0,68,false,stim,false,0,1052.1000001430511,1,0,0,74339,task2,1352908,false,false,1797,image-keyboard-response,31
true,17,0,1,0,true,q,false,true,0.0-2.0-0.61-0.551-3.551,0,0,0,81,false,stim,false,2,665.5,1,0,1,74339,task2,1355105,false,false,1800,image-keyboard-response,32
true,17,1,1,1,true,z,false,true,0.0-2.0-0.61-0.552-3.552,0,0,0,90,false,stim,false,0,636.5999999046326,1,1,2,74339,task2,1357273,false,false,1803,image-keyboard-response,33
true,17,2,1,2,true,d,false,true,0.0-2.0-0.61-0.553-3.553,0,0,0,68,false,stim,false,0,810.9000000953674,1,0,0,74339,task2,1359615,false,false,1806,image-keyboard-response,34
true,17,1,1,1,true,z,false,true,0.0-2.0-0.61-0.554-3.554,0,0,0,90,false,stim,false,0,694.4000000953674,1,1,2,74339,task2,1361839,false,false,1809,image-keyboard-response,35
true,17,0,1,0,true,q,false,true,0.0-2.0-0.61-0.555-3.555,0,0,0,81,false,stim,false,2,627.5999999046326,1,0,1,74339,task2,1363994,false,false,1812,image-keyboard-response,36
true,17,2,1,2,true,d,false,true,0.0-2.0-0.61-0.556-3.556,0,0,0,68,false,stim,false,0,862.5999999046326,1,0,0,74339,task2,1366383,false,false,1815,image-keyboard-response,37
true,18,1,2,1,true,z,false,true,0.0-2.0-0.61-0.557-3.557,0,0,1,90,true,stim,false,1,669.2000000476837,1,1,2,74339,task2,1368583,false,false,1818,image-keyboard-response,1
true,18,0,2,2,false,d,false,false,0.0-2.0-0.62-0.558-3.558,0,0,1,81,false,stim,true,0,519.5999999046326,1,0,1,74339,task2,1370634,false,false,1821,image-keyboard-response,2
true,18,1,2,1,true,z,false,true,0.0-2.0-0.62-0.559-3.559,0,0,1,90,false,stim,false,1,852.2999999523163,1,1,2,74339,task2,1373008,false,false,1824,image-keyboard-response,3
true,18,0,2,2,false,d,false,false,0.0-2.0-0.62-0.560-3.560,0,0,1,81,false,stim,true,0,664.7999999523163,1,0,1,74339,task2,1375194,false,false,1827,image-keyboard-response,4
true,18,2,2,1,false,z,false,false,0.0-2.0-0.62-0.561-3.561,0,0,1,68,false,stim,true,2,661.6000001430511,1,0,0,74339,task2,1377377,false,false,1830,image-keyboard-response,5
true,18,0,2,1,false,z,true,false,0.0-2.0-0.62-0.562-3.562,0,0,1,81,false,stim,false,2,513.2999999523163,1,0,0,74339,task2,1379411,false,false,1833,image-keyboard-response,6
true,18,1,2,1,true,z,false,true,0.0-2.0-0.62-0.563-3.563,0,0,1,90,false,stim,false,2,606.5999999046326,1,0,0,74339,task2,1381547,false,false,1836,image-keyboard-response,7
true,18,1,2,1,true,z,false,true,0.0-2.0-0.62-0.564-3.564,0,0,1,90,false,stim,false,1,389.40000009536743,1,1,2,74339,task2,1383454,false,false,1839,image-keyboard-response,8
true,18,1,2,2,false,d,true,false,0.0-2.0-0.62-0.565-3.565,0,0,1,90,false,stim,false,0,397.90000009536743,1,0,1,74339,task2,1385382,false,false,1842,image-keyboard-response,9
true,18,1,2,1,true,z,false,true,0.0-2.0-0.62-0.566-3.566,0,0,1,90,false,stim,false,1,438.90000009536743,1,1,2,74339,task2,1387348,false,false,1845,image-keyboard-response,10
true,18,1,2,1,true,z,false,true,0.0-2.0-0.63-0.567-3.567,0,0,1,90,false,stim,false,2,378.40000009536743,1,0,0,74339,task2,1389256,false,false,1848,image-keyboard-response,11
true,18,1,2,1,true,z,false,true,0.0-2.0-0.63-0.568-3.568,0,0,1,90,false,stim,false,2,503.60000014305115,1,0,0,74339,task2,1391285,false,false,1851,image-keyboard-response,12
true,18,2,2,2,true,d,false,true,0.0-2.0-0.63-0.569-3.569,0,0,1,68,false,stim,false,0,1109.5,1,0,1,74339,task2,1393919,false,false,1854,image-keyboard-response,13
true,18,1,2,1,true,z,false,true,0.0-2.0-0.63-0.570-3.570,0,0,1,90,false,stim,false,1,459.39999985694885,1,1,2,74339,task2,1395907,false,false,1857,image-keyboard-response,14
true,18,2,2,2,true,d,false,true,0.0-2.0-0.63-0.571-3.571,0,0,1,68,false,stim,false,0,639.8000001907349,1,0,1,74339,task2,1398078,false,false,1860,image-keyboard-response,15
true,18,1,2,1,true,z,false,true,0.0-2.0-0.63-0.572-3.572,0,0,1,90,false,stim,false,1,404.5,1,1,2,74339,task2,1400013,false,false,1863,image-keyboard-response,16
true,18,1,2,1,true,z,false,true,0.0-2.0-0.63-0.573-3.573,0,0,1,90,false,stim,false,2,1476.0,1,0,0,74339,task2,1403019,false,false,1866,image-keyboard-response,17
true,18,1,2,1,true,z,false,true,0.0-2.0-0.63-0.574-3.574,0,0,1,90,false,stim,false,1,492.5,1,1,2,74339,task2,1405036,false,false,1869,image-keyboard-response,18
true,18,2,2,2,true,d,false,true,0.0-2.0-0.63-0.575-3.575,0,0,1,68,false,stim,false,0,486.5,1,0,1,74339,task2,1407048,false,false,1872,image-keyboard-response,19
true,18,1,2,1,true,z,false,true,0.0-2.0-0.64-0.576-3.576,0,0,1,90,false,stim,false,2,617.2000000476837,1,0,0,74339,task2,1409198,false,false,1875,image-keyboard-response,20
true,18,2,2,2,true,d,false,true,0.0-2.0-0.64-0.577-3.577,0,0,1,68,false,stim,false,0,521.4000000953674,1,0,1,74339,task2,1411246,false,false,1878,image-keyboard-response,21
true,18,1,2,1,true,z,false,true,0.0-2.0-0.64-0.578-3.578,0,0,1,90,false,stim,false,1,727.7999999523163,1,1,2,74339,task2,1413497,false,false,1881,image-keyboard-response,22
true,18,1,2,1,true,z,false,true,0.0-2.0-0.64-0.579-3.579,0,0,1,90,false,stim,false,1,417.90000009536743,1,1,2,74339,task2,1415434,false,false,1884,image-keyboard-response,23
true,18,2,2,2,true,d,false,true,0.0-2.0-0.64-0.580-3.580,0,0,1,68,false,stim,false,0,611.4000000953674,1,0,1,74339,task2,1417576,false,false,1887,image-keyboard-response,24
true,18,1,2,1,true,z,false,true,0.0-2.0-0.64-0.581-3.581,0,0,1,90,false,stim,false,2,1113.5,1,0,0,74339,task2,1420206,false,false,1890,image-keyboard-response,25
true,18,1,2,1,true,z,false,true,0.0-2.0-0.64-0.582-3.582,0,0,1,90,false,stim,false,2,364.90000009536743,1,0,0,74339,task2,1422091,false,false,1893,image-keyboard-response,26
true,18,2,2,1,false,z,true,false,0.0-2.0-0.64-0.583-3.583,0,0,1,68,false,stim,false,1,1209.0999999046326,1,0,2,74339,task2,1424830,false,false,1896,image-keyboard-response,27
true,18,2,2,2,true,d,false,true,0.0-2.0-0.64-0.584-3.584,0,0,1,68,false,stim,false,0,559.3999998569489,1,1,1,74339,task2,1426911,false,false,1899,image-keyboard-response,28
true,18,1,2,1,true,z,false,true,0.0-2.0-0.65-0.585-3.585,0,0,1,90,false,stim,false,1,621.7000000476837,1,0,2,74339,task2,1429076,false,false,1902,image-keyboard-response,29
true,18,2,2,2,true,d,false,true,0.0-2.0-0.65-0.586-3.586,0,0,1,68,false,stim,false,0,696.5,1,1,1,74339,task2,1431291,false,false,1905,image-keyboard-response,30
true,18,1,2,1,true,z,false,true,0.0-2.0-0.65-0.587-3.587,0,0,1,90,false,stim,false,2,767.3999998569489,1,0,0,74339,task2,1433587,false,false,1908,image-keyboard-response,31
true,19,1,2,0,false,q,false,false,0.0-2.0-0.65-0.588-3.588,0,1,0,90,true,stim,true,1,468.5,1,0,0,74339,task2,1435581,false,false,1911,image-keyboard-response,1
true,19,1,2,2,false,d,false,false,0.0-2.0-0.65-0.589-3.589,0,1,0,90,false,stim,true,1,592.1999998092651,1,0,2,74339,task2,1437702,false,false,1914,image-keyboard-response,2
true,19,2,2,2,true,d,false,true,0.0-2.0-0.65-0.590-3.590,0,1,0,68,false,stim,false,2,646.7999999523163,1,1,1,74339,task2,1439869,false,false,1917,image-keyboard-response,3
