answered,blockNum,choice,condition,corResp,correct,correct_response,explo,fb,internal_node_id,isStable_1,isStable_2,isStable_3,key_press,newBlock,part,persev,persevResp,rt,sessNum,stableAS,stimulus,subject,task,time_elapsed,training,trap,trial_index,trial_type,trialsInBlock
true,1,1,0,1,true,z,false,true,0.0-2.0-0.0-0.0-3.0,0,0,0,90,true,stim,false,-1,624.0,2,0,1,74339,task1,67145,false,false,88,image-keyboard-response,1
true,1,1,0,2,false,d,true,false,0.0-2.0-0.0-0.1-3.1,0,0,0,90,false,stim,false,-1,323.90000009536743,2,0,2,74339,task1,69012,false,false,91,image-keyboard-response,2
true,1,0,0,2,false,d,true,false,0.0-2.0-0.0-0.2-3.2,0,0,0,81,false,stim,false,-1,560.6999998092651,2,0,2,74339,task1,71090,false,false,94,image-keyboard-response,3
true,1,1,0,1,true,z,false,true,0.0-2.0-0.0-0.3-3.3,0,0,0,90,false,stim,false,-1,628.2999999523163,2,0,1,74339,task1,73235,false,false,97,image-keyboard-response,4
true,1,1,0,2,false,d,true,false,0.0-2.0-0.0-0.4-3.4,0,0,0,90,false,stim,false,-1,534.7000000476837,2,0,0,74339,task1,75304,false,false,100,image-keyboard-response,5
true,1,0,0,2,false,d,true,false,0.0-2.0-0.0-0.5-3.5,0,0,0,81,false,stim,false,-1,842.2000000476837,2,0,0,74339,task1,77730,false,false,103,image-keyboard-response,6
true,1,2,0,2,true,d,false,true,0.0-2.0-0.0-0.6-3.6,0,0,0,68,false,stim,false,-1,639.1999998092651,2,0,2,74339,task1,79902,false,false,106,image-keyboard-response,7
true,1,1,0,1,true,z,false,true,0.0-2.0-0.0-0.7-3.7,0,0,0,90,false,stim,false,-1,507.90000009536743,2,0,1,74339,task1,81944,false,false,109,image-keyboard-response,8
true,1,2,0,2,true,d,false,true,0.0-2.0-0.0-0.8-3.8,0,0,0,68,false,stim,false,-1,364.59999990463257,2,0,0,74339,task1,83820,false,false,112,image-keyboard-response,9
true,1,1,0,1,true,z,false,false,0.0-2.0-0.1-0.9-3.9,0,0,0,90,false,stim,false,-1,473.39999985694885,2,0,1,74339,task1,85818,false,true,115,image-keyboard-response,10
true,1,2,0,2,true,d,false,true,0.0-2.0-0.1-0.10-3.10,0,0,0,68,false,stim,false,-1,446.2000000476837,2,0,0,74339,task1,87779,false,false,118,image-keyboard-response,11
true,1,2,0,1,false,z,true,true,0.0-2.0-0.1-0.11-3.11,0,0,0,68,false,stim,false,-1,985.0999999046326,2,0,1,74339,task1,90288,false,true,121,image-keyboard-response,12
true,1,2,0,2,true,d,false,true,0.0-2.0-0.1-0.12-3.12,0,0,0,68,false,stim,false,-1,479.7000000476837,2,0,2,74339,task1,92288,false,false,124,image-keyboard-response,13
true,1,2,0,1,false,z,true,true,0.0-2.0-0.1-0.13-3.13,0,0,0,68,false,stim,false,-1,327.90000009536743,2,0,1,74339,task1,94146,false,true,127,image-keyboard-response,14
true,1,2,0,2,true,d,false,true,0.0-2.0-0.1-0.14-3.14,0,0,0,68,false,stim,false,-1,307.09999990463257,2,0,2,74339,task1,95974,false,false,130,image-keyboard-response,15
true,1,2,0,2,true,d,false,true,0.0-2.0-0.1-0.15-3.15,0,0,0,68,false,stim,false,-1,405.7000000476837,2,0,0,74339,task1,97906,false,false,133,image-keyboard-response,16
true,1,2,0,2,true,d,false,true,0.0-2.0-0.1-0.16-3.16,0,0,0,68,false,stim,false,-1,334.0,2,0,0,74339,task1,99768,false,false,136,image-keyboard-response,17
true,1,2,0,2,true,d,false,false,0.0-2.0-0.1-0.17-3.17,0,0,0,68,false,stim,false,-1,372.90000009536743,2,0,2,74339,task1,101666,false,true,139,image-keyboard-response,18
true,1,2,0,2,true,d,false,true,0.0-2.0-0.2-0.18-3.18,0,0,0,68,false,stim,false,-1,335.2999999523163,2,0,0,74339,task1,103540,false,false,142,image-keyboard-response,19
true,1,2,0,2,true,d,false,true,0.0-2.0-0.2-0.19-3.19,0,0,0,68,false,stim,false,-1,365.0,2,0,2,74339,task1,105436,false,false,145,image-keyboard-response,20
true,1,2,0,2,true,d,false,true,0.0-2.0-0.2-0.20-3.20,0,0,0,68,false,stim,false,-1,290.40000009536743,2,0,0,74339,task1,107251,false,false,148,image-keyboard-response,21
true,1,2,0,2,true,d,false,false,0.0-2.0-0.2-0.21-3.21,0,0,0,68,false,stim,false,-1,337.2999999523163,2,0,2,74339,task1,109116,false,true,151,image-keyboard-response,22
true,1,2,0,1,false,z,true,false,0.0-2.0-0.2-0.22-3.22,0,0,0,68,false,stim,false,-1,334.7000000476837,2,0,1,74339,task1,110987,false,false,154,image-keyboard-response,23
true,1,2,0,2,true,d,false,true,0.0-2.0-0.2-0.23-3.23,0,0,0,68,false,stim,false,-1,362.2000000476837,2,0,2,74339,task1,112880,false,false,157,image-keyboard-response,24
true,1,2,0,2,true,d,false,true,0.0-2.0-0.2-0.24-3.24,0,0,0,68,false,stim,false,-1,314.7999999523163,2,0,0,74339,task1,114706,false,false,160,image-keyboard-response,25
true,1,2,0,1,false,z,true,false,0.0-2.0-0.2-0.25-3.25,0,0,0,68,false,stim,false,-1,342.0,2,0,1,74339,task1,116569,false,false,163,image-keyboard-response,26
true,2,1,1,2,false,d,false,false,0.0-2.0-0.2-0.26-3.26,0,0,0,90,true,stim,true,1,450.7000000476837,2,0,1,74339,task1,118551,false,false,166,image-keyboard-response,1
true,2,2,1,1,false,z,false,false,0.0-2.0-0.3-0.27-3.27,0,0,0,68,false,stim,true,2,480.7000000476837,2,0,0,74339,task1,120571,false,false,169,image-keyboard-response,2
true,2,0,1,2,false,d,true,false,0.0-2.0-0.3-0.28-3.28,0,0,0,81,false,stim,false,1,708.2000000476837,2,0,1,74339,task1,122803,false,false,172,image-keyboard-response,3
true,2,2,1,0,false,q,false,false,0.0-2.0-0.3-0.29-3.29,0,0,0,68,false,stim,true,2,507.0,2,0,2,74339,task1,124838,false,false,175,image-keyboard-response,4
true,2,2,1,2,true,d,false,false,0.0-2.0-0.3-0.30-3.30,0,0,0,68,false,stim,false,1,605.2999999523163,2,0,1,74339,task1,126996,false,true,178,image-keyboard-response,5
true,2,2,1,1,false,z,false,false,0.0-2.0-0.3-0.31-3.31,0,0,0,68,false,stim,true,2,726.2000000476837,2,0,0,74339,task1,129293,false,false,181,image-keyboard-response,6
true,2,1,1,1,true,z,false,true,0.0-2.0-0.3-0.32-3.32,0,0,0,90,false,stim,false,2,339.60000014305115,2,0,0,74339,task1,131191,false,false,184,image-keyboard-response,7
true,2,1,1,0,false,q,true,true,0.0-2.0-0.3-0.33-3.33,0,0,0,90,false,stim,false,2,581.3999998569489,2,0,2,74339,task1,133293,false,true,187,image-keyboard-response,8
true,2,1,1,2,false,d,false,false,0.0-2.0-0.3-0.34-3.34,0,0,0,90,false,stim,true,1,358.39999985694885,2,0,1,74339,task1,135182,false,false,190,image-keyboard-response,9
true,2,1,1,0,false,q,true,false,0.0-2.0-0.3-0.35-3.35,0,0,0,90,false,stim,false,2,492.60000014305115,2,0,2,74339,task1,137201,false,false,193,image-keyboard-response,10
true,2,1,1,2,false,d,false,false,0.0-2.0-0.4-0.36-3.36,0,0,0,90,false,stim,true,1,394.7000000476837,2,0,1,74339,task1,139128,false,false,196,image-keyboard-response,11
true,2,1,1,1,true,z,false,true,0.0-2.0-0.4-0.37-3.37,0,0,0,90,false,stim,false,2,407.7000000476837,2,0,0,74339,task1,141045,false,false,199,image-keyboard-response,12
true,2,1,1,0,false,q,true,false,0.0-2.0-0.4-0.38-3.38,0,0,0,90,false,stim,false,2,350.39999985694885,2,0,2,74339,task1,142922,false,false,202,image-keyboard-response,13
true,2,1,1,1,true,z,false,true,0.0-2.0-0.4-0.39-3.39,0,0,0,90,false,stim,false,2,598.4000000953674,2,0,0,74339,task1,145058,false,false,205,image-keyboard-response,14
true,2,1,1,1,true,z,false,true,0.0-2.0-0.4-0.40-3.40,0,0,0,90,false,stim,false,2,528.3000001907349,2,0,0,74339,task1,147122,false,false,208,image-keyboard-response,15
true,2,2,1,2,true,d,false,true,0.0-2.0-0.4-0.41-3.41,0,0,0,68,false,stim,false,1,475.40000009536743,2,0,1,74339,task1,149126,false,false,211,image-keyboard-response,16
true,2,2,1,0,false,q,false,false,0.0-2.0-0.4-0.42-3.42,0,0,0,68,false,stim,true,2,510.90000009536743,2,0,2,74339,task1,151160,false,false,214,image-keyboard-response,17
true,2,0,1,0,true,q,false,true,0.0-2.0-0.4-0.43-3.43,0,0,0,81,false,stim,false,2,472.5,2,0,2,74339,task1,153154,false,false,217,image-keyboard-response,18
true,2,2,1,2,true,d,false,true,0.0-2.0-0.4-0.44-3.44,0,0,0,68,false,stim,false,1,621.7999999523163,2,0,1,74339,task1,155292,false,false,220,image-keyboard-response,19
true,2,2,1,2,true,d,false,true,0.0-2.0-0.5-0.45-3.45,0,0,0,68,false,stim,false,1,591.8999998569489,2,0,1,74339,task1,157397,false,false,223,image-keyboard-response,20
true,2,2,1,2,true,d,false,false,0.0-2.0-0.5-0.46-3.46,0,0,0,68,false,stim,false,1,400.2000000476837,2,0,1,74339,task1,159323,false,true,226,image-keyboard-response,21
true,2,0,1,0,true,q,false,true,0.0-2.0-0.5-0.47-3.47,0,0,0,81,false,stim,false,2,666.8999998569489,2,0,2,74339,task1,161508,false,false,229,image-keyboard-response,22
true,2,2,1,2,true,d,false,true,0.0-2.0-0.5-0.48-3.48,0,0,0,68,false,stim,false,1,794.5999999046326,2,0,1,74339,task1,163834,false,false,232,image-keyboard-response,23
true,2,1,1,1,true,z,false,true,0.0-2.0-0.5-0.49-3.49,0,0,0,90,false,stim,false,2,536.7000000476837,2,0,0,74339,task1,165893,false,false,235,image-keyboard-response,24
true,2,2,1,0,false,q,false,false,0.0-2.0-0.5-0.50-3.50,0,0,0,68,false,stim,true,2,676.0,2,0,2,74339,task1,168146,false,false,238,image-keyboard-response,25
true,2,1,1,1,true,z,false,true,0.0-2.0-0.5-0.51-3.51,0,0,0,90,false,stim,false,2,537.0999999046326,2,0,0,74339,task1,170197,false,false,241,image-keyboard-response,26
true,2,0,1,0,true,q,false,true,0.0-2.0-0.5-0.52-3.52,0,0,0,81,false,stim,false,2,567.1999998092651,2,0,2,74339,task1,172289,false,false,244,image-keyboard-response,27
true,2,1,1,1,true,z,false,true,0.0-2.0-0.5-0.53-3.53,0,0,0,90,false,stim,false,2,553.0,2,0,0,74339,task1,174388,false,false,247,image-keyboard-response,28
true,2,2,1,2,true,d,false,true,0.0-2.0-0.6-0.54-3.54,0,0,0,68,false,stim,false,1,636.7000000476837,2,0,1,74339,task1,176548,false,false,250,image-keyboard-response,29
true,2,0,1,0,true,q,false,true,0.0-2.0-0.6-0.55-3.55,0,0,0,81,false,stim,false,2,557.7000000476837,2,0,2,74339,task1,178625,false,false,253,image-keyboard-response,30
true,2,2,1,2,true,d,false,true,0.0-2.0-0.6-0.56-3.56,0,0,0,68,false,stim,false,1,820.9000000953674,2,0,1,74339,task1,180966,false,false,256,image-keyboard-response,31
true,2,1,1,1,true,z,false,true,0.0-2.0-0.6-0.57-3.57,0,0,0,90,false,stim,false,2,498.2000000476837,2,0,0,74339,task1,183002,false,false,259,image-keyboard-response,32
true,2,0,1,0,true,q,false,false,0.0-2.0-0.6-0.58-3.58,0,0,0,81,false,stim,false,2,819.9000000953674,2,0,2,74339,task1,185367,false,true,262,image-keyboard-response,33
true,2,1,1,1,true,z,false,true,0.0-2.0-0.6-0.59-3.59,0,0,0,90,false,stim,false,2,515.7000000476837,2,0,0,74339,task1,187412,false,false,265,image-keyboard-response,34
true,2,2,1,0,false,q,false,true,0.0-2.0-0.6-0.60-3.60,0,0,0,68,false,stim,true,2,680.7999999523163,2,0,2,74339,task1,189624,false,true,268,image-keyboard-response,35
true,2,0,1,2,false,d,true,false,0.0-2.0-0.6-0.61-3.61,0,0,0,81,false,stim,false,1,669.2999999523163,2,0,1,74339,task1,191824,false,false,271,image-keyboard-response,36
true,2,1,1,1,true,z,false,true,0.0-2.0-0.6-0.62-3.62,0,0,0,90,false,stim,false,2,595.8999998569489,2,0,0,74339,task1,194014,false,false,274,image-keyboard-response,37
true,2,2,1,2,true,d,false,false,0.0-2.0-0.7-0.63-3.63,0,0,0,68,false,stim,false,1,513.0,2,0,1,74339,task1,196072,false,true,277,image-keyboard-response,38
true,2,0,1,0,true,q,false,true,0.0-2.0-0.7-0.64-3.64,0,0,0,81,false,stim,false,2,678.7000000476837,2,0,2,74339,task1,198283,false,false,280,image-keyboard-response,39
true,2,0,1,0,true,q,false,true,0.0-2.0-0.7-0.65-3.65,0,0,0,81,false,stim,false,2,381.7999999523163,2,0,2,74339,task1,200201,false,false,283,image-keyboard-response,40
true,3,0,1,0,true,q,false,true,0.0-2.0-0.7-0.66-3.66,0,0,0,81,true,stim,false,2,692.5,2,0,1,74339,task1,202428,false,false,286,image-keyboard-response,1
true,3,1,1,0,false,q,false,true,0.0-2.0-0.7-0.67-3.67,0,0,0,90,false,stim,true,1,474.40000009536743,2,0,0,74339,task1,204433,false,true,289,image-keyboard-response,2
true,3,0,1,0,true,q,false,true,0.0-2.0-0.7-0.68-3.68,0,0,0,81,false,stim,false,2,636.3999998569489,2,0,1,74339,task1,206594,false,false,292,image-keyboard-response,3
true,3,0,1,1,false,z,false,false,0.0-2.0-0.7-0.69-3.69,0,0,0,81,false,stim,true,0,499.2000000476837,2,0,2,74339,task1,208615,false,false,295,image-keyboard-response,4
true,3,1,1,0,false,q,false,false,0.0-2.0-0.7-0.70-3.70,0,0,0,90,false,stim,true,1,460.5,2,0,0,74339,task1,210607,false,false,298,image-keyboard-response,5
true,3,0,1,0,true,q,false,true,0.0-2.0-0.7-0.71-3.71,0,0,0,81,false,stim,false,1,507.40000009536743,2,0,0,74339,task1,213607,false,false,301,image-keyboard-response,6
true,3,0,1,0,true,q,false,false,0.0-2.0-0.8-0.72-3.72,0,0,0,81,false,stim,false,1,368.40000009536743,2,0,0,74339,task1,215488,false,true,304,image-keyboard-response,7
true,3,1,1,0,false,q,false,false,0.0-2.0-0.8-0.73-3.73,0,0,0,90,false,stim,true,1,480.09999990463257,2,0,0,74339,task1,217489,false,false,307,image-keyboard-response,8
true,3,1,1,0,false,q,false,false,0.0-2.0-0.8-0.74-3.74,0,0,0,90,false,stim,true,1,408.7999999523163,2,0,0,74339,task1,219422,false,false,310,image-keyboard-response,9
true,3,0,1,0,true,q,false,true,0.0-2.0-0.8-0.75-3.75,0,0,0,81,false,stim,false,2,874.7000000476837,2,0,1,74339,task1,221821,false,false,313,image-keyboard-response,10
true,3,0,1,0,true,q,false,true,0.0-2.0-0.8-0.76-3.76,0,0,0,81,false,stim,false,2,427.90000009536743,2,0,1,74339,task1,223764,false,false,316,image-keyboard-response,11
true,3,0,1,1,false,z,false,false,0.0-2.0-0.8-0.77-3.77,0,0,0,81,false,stim,true,0,479.40000009536743,2,0,2,74339,task1,225770,false,false,319,image-keyboard-response,12
true,3,0,1,0,true,q,false,true,0.0-2.0-0.8-0.78-3.78,0,0,0,81,false,stim,false,2,639.7000000476837,2,0,1,74339,task1,227943,false,false,322,image-keyboard-response,13
true,3,0,1,1,false,z,false,false,0.0-2.0-0.8-0.79-3.79,0,0,0,81,false,stim,true,0,561.0,2,0,2,74339,task1,230039,false,false,325,image-keyboard-response,14
true,3,1,1,1,true,z,false,true,0.0-2.0-0.8-0.80-3.80,0,0,0,90,false,stim,false,0,395.5,2,0,2,74339,task1,231964,false,false,328,image-keyboard-response,15
true,3,0,1,0,true,q,false,true,0.0-2.0-0.9-0.81-3.81,0,0,0,81,false,stim,false,2,577.7999999523163,2,0,1,74339,task1,234067,false,false,331,image-keyboard-response,16
true,3,0,1,0,true,q,false,true,0.0-2.0-0.9-0.82-3.82,0,0,0,81,false,stim,false,2,541.7000000476837,2,0,1,74339,task1,236135,false,false,334,image-keyboard-response,17
true,3,2,1,0,false,q,true,false,0.0-2.0-0.9-0.83-3.83,0,0,0,68,false,stim,false,1,706.7999999523163,2,0,0,74339,task1,238365,false,false,337,image-keyboard-response,18
true,3,2,1,0,false,q,true,false,0.0-2.0-0.9-0.84-3.84,0,0,0,68,false,stim,false,1,515.6000001430511,2,0,0,74339,task1,240410,false,false,340,image-keyboard-response,19
true,3,1,1,1,true,z,false,true,0.0-2.0-0.9-0.85-3.85,0,0,0,90,false,stim,false,0,948.0,2,0,2,74339,task1,242878,false,false,343,image-keyboard-response,20
true,3,1,1,0,false,q,false,false,0.0-2.0-0.9-0.86-3.86,0,0,0,90,false,stim,true,1,371.7000000476837,2,0,0,74339,task1,244776,false,false,346,image-keyboard-response,21
true,3,0,1,0,true,q,false,true,0.0-2.0-0.9-0.87-3.87,0,0,0,81,false,stim,false,2,543.8000001907349,2,0,1,74339,task1,246852,false,false,349,image-keyboard-response,22
true,3,1,1,1,true,z,false,true,0.0-2.0-0.9-0.88-3.88,0,0,0,90,false,stim,false,0,1392.9000000953674,2,0,2,74339,task1,249774,false,false,352,image-keyboard-response,23
true,3,1,1,1,true,z,false,true,0.0-2.0-0.9-0.89-3.89,0,0,0,90,false,stim,false,0,518.9000000953674,2,0,2,74339,task1,251823,false,false,355,image-keyboard-response,24
true,3,0,1,0,true,q,false,true,0.0-2.0-0.10-0.90-3.90,0,0,0,81,false,stim,false,1,442.2999999523163,2,0,0,74339,task1,253797,false,false,358,image-keyboard-response,25
true,3,1,1,1,true,z,false,true,0.0-2.0-0.10-0.91-3.91,0,0,0,90,false,stim,false,0,658.5999999046326,2,0,2,74339,task1,255986,false,false,361,image-keyboard-response,26
true,3,1,1,1,true,z,false,true,0.0-2.0-0.10-0.92-3.92,0,0,0,90,false,stim,false,0,501.59999990463257,2,0,2,74339,task1,258017,false,false,364,image-keyboard-response,27
true,3,0,1,0,true,q,false,true,0.0-2.0-0.10-0.93-3.93,0,0,0,81,false,stim,false,2,548.7999999523163,2,0,1,74339,task1,260098,false,false,367,image-keyboard-response,28
true,3,0,1,0,true,q,false,true,0.0-2.0-0.10-0.94-3.94,0,0,0,81,false,stim,false,1,497.5,2,0,0,74339,task1,262119,false,false,370,image-keyboard-response,29
true,3,1,1,1,true,z,false,true,0.0-2.0-0.10-0.95-3.95,0,0,0,90,false,stim,false,0,552.7000000476837,2,0,2,74339,task1,264181,false,false,373,image-keyboard-response,30
true,3,0,1,0,true,q,false,true,0.0-2.0-0.10-0.96-3.96,0,0,0,81,false,stim,false,2,553.5,2,0,1,74339,task1,266252,false,false,376,image-keyboard-response,31
true,3,0,1,0,true,q,false,true,0.0-2.0-0.10-0.97-3.97,0,0,0,81,false,stim,false,1,587.2000000476837,2,0,0,74339,task1,268363,false,false,379,image-keyboard-response,32
true,3,0,1,0,true,q,false,true,0.0-2.0-0.10-0.98-3.98,0,0,0,81,false,stim,false,2,516.7999999523163,2,0,1,74339,task1,270407,false,false,382,image-keyboard-response,33
true,3,0,1,0,true,q,false,true,0.0-2.0-0.11-0.99-3.99,0,0,0,81,false,stim,false,2,362.5,2,0,1,74339,task1,272298,false,false,385,image-keyboard-response,34
true,3,1,1,1,true,z,false,true,0.0-2.0-0.11-0.100-3.100,0,0,0,90,false,stim,false,0,530.5,2,0,2,74339,task1,274363,false,false,388,image-keyboard-response,35
true,3,1,1,1,true,z,false,true,0.0-2.0-0.11-0.101-3.101,0,0,0,90,false,stim,false,0,309.2000000476837,2,0,2,74339,task1,276196,false,false,391,image-keyboard-response,36
true,3,0,1,0,true,q,false,true,0.0-2.0-0.11-0.102-3.102,0,0,0,81,false,stim,false,2,694.7000000476837,2,0,1,74339,task1,278403,false,false,394,image-keyboard-response,37
true,3,1,1,1,true,z,false,true,0.0-2.0-0.11-0.103-3.103,0,0,0,90,false,stim,false,0,743.2999999523163,2,0,2,74339,task1,280670,false,false,397,image-keyboard-response,38
true,3,0,1,0,true,q,false,true,0.0-2.0-0.11-0.104-3.104,0,0,0,81,false,stim,false,2,532.0,2,0,1,74339,task1,282741,false,false,400,image-keyboard-response,39
true,3,0,1,0,true,q,false,true,0.0-2.0-0.11-0.105-3.105,0,0,0,81,false,stim,false,1,606.7000000476837,2,0,0,74339,task1,284868,false,false,403,image-keyboard-response,40
true,4,0,1,2,false,d,false,false,0.0-2.0-0.11-0.106-3.106,0,0,0,81,true,stim,true,0,379.7999999523163,2,0,0,74339,task1,286776,false,false,406,image-keyboard-response,1
true,4,0,1,2,false,d,false,false,0.0-2.0-0.11-0.107-3.107,0,0,0,81,false,stim,true,0,392.90000009536743,2,0,0,74339,task1,288699,false,false,409,image-keyboard-response,2
true,4,1,1,2,false,d,true,false,0.0-2.0-0.12-0.108-3.108,0,0,0,90,false,stim,false,0,619.1999998092651,2,0,0,74339,task1,290867,false,false,412,image-keyboard-response,3
true,4,1,1,0,false,q,false,true,0.0-2.0-0.12-0.109-3.109,0,0,0,90,false,stim,true,1,885.4000000953674,2,0,2,74339,task1,293288,false,true,415,image-keyboard-response,4
true,4,0,1,2,false,d,false,false,0.0-2.0-0.12-0.110-3.110,0,0,0,81,false,stim,true,0,515.0,2,0,1,74339,task1,295332,false,false,418,image-keyboard-response,5
true,4,0,1,2,false,d,false,false,0.0-2.0-0.12-0.111-3.111,0,0,0,81,false,stim,true,0,361.7000000476837,2,0,1,74339,task1,297209,false,false,421,image-keyboard-response,6
true,4,1,1,2,false,d,true,false,0.0-2.0-0.12-0.112-3.112,0,0,0,90,false,stim,false,0,377.89999985694885,2,0,1,74339,task1,299127,false,false,424,image-keyboard-response,7
true,4,2,1,2,true,d,false,false,0.0-2.0-0.12-0.113-3.113,0,0,0,68,false,stim,false,0,496.7999999523163,2,0,0,74339,task1,301146,false,true,427,image-keyboard-response,8
true,4,1,1,0,false,q,false,false,0.0-2.0-0.12-0.114-3.114,0,0,0,90,false,stim,true,1,824.6999998092651,2,0,2,74339,task1,303506,false,false,430,image-keyboard-response,9
true,4,1,1,2,false,d,true,false,0.0-2.0-0.12-0.115-3.115,0,0,0,90,false,stim,false,0,725.7000000476837,2,0,0,74339,task1,305756,false,false,433,image-keyboard-response,10
true,4,1,1,0,false,q,false,true,0.0-2.0-0.12-0.116-3.116,0,0,0,90,false,stim,true,1,740.0,2,0,2,74339,task1,308022,false,true,436,image-keyboard-response,11
true,4,0,1,2,false,d,false,false,0.0-2.0-0.13-0.117-3.117,0,0,0,81,false,stim,true,0,559.2000000476837,2,0,0,74339,task1,310115,false,false,439,image-keyboard-response,12
true,4,1,1,2,false,d,true,false,0.0-2.0-0.13-0.118-3.118,0,0,0,90,false,stim,false,0,797.0,2,0,1,74339,task1,312440,false,false,442,image-keyboard-response,13
true,4,1,1,0,false,q,false,false,0.0-2.0-0.13-0.119-3.119,0,0,0,90,false,stim,true,1,628.5999999046326,2,0,2,74339,task1,314590,false,false,445,image-keyboard-response,14
true,4,2,1,2,true,d,false,true,0.0-2.0-0.13-0.120-3.120,0,0,0,68,false,stim,false,0,663.4000000953674,2,0,0,74339,task1,316801,false,false,448,image-keyboard-response,15
true,4,2,1,2,true,d,false,true,0.0-2.0-0.13-0.121-3.121,0,0,0,68,false,stim,false,0,551.6000001430511,2,0,0,74339,task1,318879,false,false,451,image-keyboard-response,16
true,4,2,1,2,true,d,false,true,0.0-2.0-0.13-0.122-3.122,0,0,0,68,false,stim,false,0,518.9000000953674,2,0,1,74339,task1,320925,false,false,454,image-keyboard-response,17
true,4,1,1,0,false,q,false,false,0.0-2.0-0.13-0.123-3.123,0,0,0,90,false,stim,true,1,601.8000001907349,2,0,2,74339,task1,323049,false,false,457,image-keyboard-response,18
true,4,2,1,2,true,d,false,false,0.0-2.0-0.13-0.124-3.124,0,0,0,68,false,stim,false,0,408.2000000476837,2,0,1,74339,task1,324986,false,true,460,image-keyboard-response,19
true,4,2,1,0,false,q,true,false,0.0-2.0-0.13-0.125-3.125,0,0,0,68,false,stim,false,1,488.0,2,0,2,74339,task1,327005,false,false,463,image-keyboard-response,20
true,4,0,1,0,true,q,false,true,0.0-2.0-0.14-0.126-3.126,0,0,0,81,false,stim,false,1,743.8000001907349,2,0,2,74339,task1,329287,false,false,466,image-keyboard-response,21
true,4,0,1,0,true,q,false,true,0.0-2.0-0.14-0.127-3.127,0,0,0,81,false,stim,false,1,425.10000014305115,2,0,2,74339,task1,331235,false,false,469,image-keyboard-response,22
true,4,0,1,0,true,q,false,true,0.0-2.0-0.14-0.128-3.128,0,0,0,81,false,stim,false,1,371.0,2,0,2,74339,task1,333137,false,false,472,image-keyboard-response,23
true,4,2,1,2,true,d,false,true,0.0-2.0-0.14-0.129-3.129,0,0,0,68,false,stim,false,0,526.0999999046326,2,0,0,74339,task1,335198,false,false,475,image-keyboard-response,24
true,4,2,1,2,true,d,false,true,0.0-2.0-0.14-0.130-3.130,0,0,0,68,false,stim,false,0,552.2999999523163,2,0,1,74339,task1,337276,false,false,478,image-keyboard-response,25
true,4,2,1,2,true,d,false,true,0.0-2.0-0.14-0.131-3.131,0,0,0,68,false,stim,false,0,332.69999980926514,2,0,1,74339,task1,339142,false,false,481,image-keyboard-response,26
true,4,2,1,2,true,d,false,true,0.0-2.0-0.14-0.132-3.132,0,0,0,68,false,stim,false,0,500.7000000476837,2,0,0,74339,task1,341184,false,false,484,image-keyboard-response,27
true,4,2,1,2,true,d,false,true,0.0-2.0-0.14-0.133-3.133,0,0,0,68,false,stim,false,0,372.2999999523163,2,0,0,74339,task1,343076,false,false,487,image-keyboard-response,28
true,4,2,1,2,true,d,false,false,0.0-2.0-0.14-0.134-3.134,0,0,0,68,false,stim,false,0,742.3999998569489,2,0,1,74339,task1,345347,false,true,490,image-keyboard-response,29
true,4,0,1,0,true,q,false,true,0.0-2.0-0.15-0.135-3.135,0,0,0,81,false,stim,false,1,785.7000000476837,2,0,2,74339,task1,347665,false,false,493,image-keyboard-response,30
true,4,2,1,2,true,d,false,false,0.0-2.0-0.15-0.136-3.136,0,0,0,68,false,stim,false,0,457.7000000476837,2,0,0,74339,task1,349657,false,true,496,image-keyboard-response,31
true,4,2,1,2,true,d,false,true,0.0-2.0-0.15-0.137-3.137,0,0,0,68,false,stim,false,0,351.60000014305115,2,0,1,74339,task1,351540,false,false,499,image-keyboard-response,32
true,4,2,1,2,true,d,false,true,0.0-2.0-0.15-0.138-3.138,0,0,0,68,false,stim,false,0,325.09999990463257,2,0,0,74339,task1,353394,false,false,502,image-keyboard-response,33
true,4,2,1,0,false,q,true,false,0.0-2.0-0.15-0.139-3.139,0,0,0,68,false,stim,false,1,561.9000000953674,2,0,2,74339,task1,355475,false,false,505,image-keyboard-response,34
true,4,0,1,0,true,q,false,true,0.0-2.0-0.15-0.140-3.140,0,0,0,81,false,stim,false,1,362.7000000476837,2,0,2,74339,task1,357379,false,false,508,image-keyboard-response,35
true,4,2,1,2,true,d,false,true,0.0-2.0-0.15-0.141-3.141,0,0,0,68,false,stim,false,0,788.4000000953674,2,0,1,74339,task1,359709,false,false,511,image-keyboard-response,36
true,4,2,1,2,true,d,false,true,0.0-2.0-0.15-0.142-3.142,0,0,0,68,false,stim,false,0,333.5,2,0,1,74339,task1,361574,false,false,514,image-keyboard-response,37
true,4,2,1,2,true,d,false,true,0.0-2.0-0.15-0.143-3.143,0,0,0,68,false,stim,false,0,604.5,2,0,0,74339,task1,363696,false,false,517,image-keyboard-response,38
true,4,2,1,2,true,d,false,true,0.0-2.0-0.16-0.144-3.144,0,0,0,68,false,stim,false,0,645.2999999523163,2,0,1,74339,task1,365879,false,false,520,image-keyboard-response,39
true,5,2,1,0,false,q,false,false,0.0-2.0-0.16-0.145-3.145,0,0,0,68,true,stim,true,2,412.7999999523163,2,0,0,74339,task1,367812,false,false,523,image-keyboard-response,1
true,5,2,1,0,false,q,false,false,0.0-2.0-0.16-0.146-3.146,0,0,0,68,false,stim,true,2,374.40000009536743,2,0,0,74339,task1,369715,false,false,526,image-keyboard-response,2
true,5,0,1,1,false,z,false,false,0.0-2.0-0.16-0.147-3.147,0,0,0,81,false,stim,true,0,801.2000000476837,2,0,2,74339,task1,372047,false,false,529,image-keyboard-response,3
true,5,2,1,1,false,z,false,false,0.0-2.0-0.16-0.148-3.148,0,0,0,68,false,stim,true,2,759.5999999046326,2,0,1,74339,task1,374339,false,false,532,image-keyboard-response,4
true,5,2,1,1,false,z,false,false,0.0-2.0-0.16-0.149-3.149,0,0,0,68,false,stim,true,2,415.59999990463257,2,0,1,74339,task1,376284,false,false,535,image-keyboard-response,5
true,5,1,1,0,false,q,true,false,0.0-2.0-0.16-0.150-3.150,0,0,0,90,false,stim,false,2,712.5,2,0,0,74339,task1,378530,false,false,538,image-keyboard-response,6
true,5,1,1,1,true,z,false,true,0.0-2.0-0.16-0.151-3.151,0,0,0,90,false,stim,false,0,804.2999999523163,2,0,2,74339,task1,380864,false,false,541,image-keyboard-response,7
true,5,1,1,1,true,z,false,true,0.0-2.0-0.16-0.152-3.152,0,0,0,90,false,stim,false,0,338.5,2,0,2,74339,task1,382734,false,false,544,image-keyboard-response,8
true,5,1,1,1,true,z,false,true,0.0-2.0-0.17-0.153-3.153,0,0,0,90,false,stim,false,0,383.59999990463257,2,0,2,74339,task1,384651,false,false,547,image-keyboard-response,9
true,5,0,1,0,true,q,false,true,0.0-2.0-0.17-0.154-3.154,0,0,0,81,false,stim,false,2,651.9000000953674,2,0,0,74339,task1,386823,false,false,550,image-keyboard-response,10
true,5,0,1,0,true,q,false,true,0.0-2.0-0.17-0.155-3.155,0,0,0,81,false,stim,false,2,296.30000019073486,2,0,0,74339,task1,388636,false,false,553,image-keyboard-response,11
true,5,1,1,1,true,z,false,true,0.0-2.0-0.17-0.156-3.156,0,0,0,90,false,stim,false,0,725.9000000953674,2,0,2,74339,task1,390891,false,false,556,image-keyboard-response,12
true,5,0,1,1,false,z,true,false,0.0-2.0-0.17-0.157-3.157,0,0,0,81,false,stim,false,2,757.7999999523163,2,0,1,74339,task1,393158,false,false,559,image-keyboard-response,13
true,5,1,1,1,true,z,false,true,0.0-2.0-0.17-0.158-3.158,0,0,0,90,false,stim,false,2,608.6000001430511,2,0,1,74339,task1,395295,false,false,562,image-keyboard-response,14
true,5,1,1,1,true,z,false,true,0.0-2.0-0.17-0.159-3.159,0,0,0,90,false,stim,false,2,393.2000000476837,2,0,1,74339,task1,397201,false,false,565,image-keyboard-response,15
true,5,1,1,1,true,z,false,true,0.0-2.0-0.17-0.160-3.160,0,0,0,90,false,stim,false,0,436.59999990463257,2,0,2,74339,task1,399163,false,false,568,image-keyboard-response,16
true,5,0,1,0,true,q,false,true,0.0-2.0-0.17-0.161-3.161,0,0,0,81,false,stim,false,2,355.0,2,0,0,74339,task1,401052,false,false,571,image-keyboard-response,17
true,5,1,1,1,true,z,false,true,0.0-2.0-0.18-0.162-3.162,0,0,0,90,false,stim,false,2,419.2999999523163,2,0,1,74339,task1,403003,false,false,574,image-keyboard-response,18
true,5,1,1,1,true,z,false,true,0.0-2.0-0.18-0.163-3.163,0,0,0,90,false,stim,false,2,324.09999990463257,2,0,1,74339,task1,404858,false,false,577,image-keyboard-response,19
true,5,1,1,1,true,z,false,true,0.0-2.0-0.18-0.164-3.164,0,0,0,90,false,stim,false,2,378.2000000476837,2,0,1,74339,task1,406768,false,false,580,image-keyboard-response,20
true,5,1,1,1,true,z,false,true,0.0-2.0-0.18-0.165-3.165,0,0,0,90,false,stim,false,0,620.0,2,0,2,74339,task1,408914,false,false,583,image-keyboard-response,21
true,5,0,1,0,true,q,false,true,0.0-2.0-0.18-0.166-3.166,0,0,0,81,false,stim,false,2,602.0,2,0,0,74339,task1,411046,false,false,586,image-keyboard-response,22
true,5,0,1,0,true,q,false,false,0.0-2.0-0.18-0.167-3.167,0,0,0,81,false,stim,false,2,298.69999980926514,2,0,0,74339,task1,412875,false,true,589,image-keyboard-response,23
true,5,1,1,1,true,z,false,true,0.0-2.0-0.18-0.168-3.168,0,0,0,90,false,stim,false,0,521.6000001430511,2,0,2,74339,task1,414926,false,false,592,image-keyboard-response,24
true,5,0,1,0,true,q,false,true,0.0-2.0-0.18-0.169-3.169,0,0,0,81,false,stim,false,2,561.6000001430511,2,0,0,74339,task1,417017,false,false,595,image-keyboard-response,25
true,5,1,1,1,true,z,false,true,0.0-2.0-0.18-0.170-3.170,0,0,0,90,false,stim,false,0,537.2999999523163,2,0,2,74339,task1,419075,false,false,598,image-keyboard-response,26
true,5,1,1,1,true,z,false,true,0.0-2.0-0.19-0.171-3.171,0,0,0,90,false,stim,false,0,364.19999980926514,2,0,2,74339,task1,421008,false,false,601,image-keyboard-response,27
true,5,1,1,1,true,z,false,true,0.0-2.0-0.19-0.172-3.172,0,0,0,90,false,stim,false,0,298.2999999523163,2,0,2,74339,task1,422830,false,false,604,image-keyboard-response,28
true,5,1,1,0,false,q,true,false,0.0-2.0-0.19-0.173-3.173,0,0,0,90,false,stim,false,2,458.90000009536743,2,0,0,74339,task1,424810,false,false,607,image-keyboard-response,29
true,5,1,1,1,true,z,false,true,0.0-2.0-0.19-0.174-3.174,0,0,0,90,false,stim,false,2,338.2999999523163,2,0,1,74339,task1,426658,false,false,610,image-keyboard-response,30
true,5,0,1,0,true,q,false,true,0.0-2.0-0.19-0.175-3.175,0,0,0,81,false,stim,false,2,433.0,2,0,0,74339,task1,428621,false,false,613,image-keyboard-response,31
true,5,1,1,1,true,z,false,true,0.0-2.0-0.19-0.176-3.176,0,0,0,90,false,stim,false,2,471.39999985694885,2,0,1,74339,task1,430633,false,false,616,image-keyboard-response,32
true,5,1,1,1,true,z,false,false,0.0-2.0-0.19-0.177-3.177,0,0,0,90,false,stim,false,2,638.1000001430511,2,0,1,74339,task1,432803,false,true,619,image-keyboard-response,33
true,5,1,1,1,true,z,false,true,0.0-2.0-0.19-0.178-3.178,0,0,0,90,false,stim,false,0,464.59999990463257,2,0,2,74339,task1,434793,false,false,622,image-keyboard-response,34
true,5,0,1,0,true,q,false,true,0.0-2.0-0.19-0.179-3.179,0,0,0,81,false,stim,false,2,473.2000000476837,2,0,0,74339,task1,436776,false,false,625,image-keyboard-response,35
true,5,1,1,1,true,z,false,true,0.0-2.0-0.20-0.180-3.180,0,0,0,90,false,stim,false,2,474.5,2,0,1,74339,task1,438780,false,false,628,image-keyboard-response,36
true,5,1,1,1,true,z,false,true,0.0-2.0-0.20-0.181-3.181,0,0,0,90,false,stim,false,0,367.0,2,0,2,74339,task1,440676,false,false,631,image-keyboard-response,37
true,5,1,1,1,true,z,false,true,0.0-2.0-0.20-0.182-3.182,0,0,0,90,false,stim,false,0,507.39999985694885,2,0,2,74339,task1,442694,false,false,634,image-keyboard-response,38
true,5,0,1,0,true,q,false,true,0.0-2.0-0.20-0.183-3.183,0,0,0,81,false,stim,false,2,488.90000009536743,2,0,0,74339,task1,444708,false,false,637,image-keyboard-response,39
true,5,1,1,1,true,z,false,true,0.0-2.0-0.20-0.184-3.184,0,0,0,90,false,stim,false,2,469.5,2,0,1,74339,task1,446691,false,false,640,image-keyboard-response,40
true,5,0,1,0,true,q,false,false,0.0-2.0-0.20-0.185-3.185,0,0,0,81,false,stim,false,2,473.10000014305115,2,0,0,74339,task1,448699,false,true,643,image-keyboard-response,41
true,5,1,1,1,true,z,false,true,0.0-2.0-0.20-0.186-3.186,0,0,0,90,false,stim,false,0,514.5,2,0,2,74339,task1,450744,false,false,646,image-keyboard-response,42
true,5,0,1,0,true,q,false,true,0.0-2.0-0.20-0.187-3.187,0,0,0,81,false,stim,false,2,470.39999985694885,2,0,0,74339,task1,452738,false,false,649,image-keyboard-response,43
true,5,1,1,1,true,z,false,true,0.0-2.0-0.20-0.188-3.188,0,0,0,90,false,stim,false,2,449.7999999523163,2,0,1,74339,task1,454719,false,false,652,image-keyboard-response,44
true,5,0,1,0,true,q,false,true,0.0-2.0-0.21-0.189-3.189,0,0,0,81,false,stim,false,2,473.5,2,0,0,74339,task1,456716,false,false,655,image-keyboard-response,45
true,6,1,1,0,false,q,false,false,0.0-2.0-0.21-0.190-3.190,0,0,0,90,true,stim,true,1,461.2999999523163,2,0,1,74339,task1,458714,false,false,658,image-keyboard-response,1
true,6,0,1,2,false,d,false,false,0.0-2.0-0.21-0.191-3.191,0,0,0,81,false,stim,true,0,521.5,2,0,0,74339,task1,460779,false,false,661,image-keyboard-response,2
true,6,1,1,2,false,d,false,false,0.0-2.0-0.21-0.192-3.192,0,0,0,90,false,stim,true,1,425.40000009536743,2,0,2,74339,task1,462733,false,false,664,image-keyboard-response,3
true,6,0,1,2,false,d,false,false,0.0-2.0-0.21-0.193-3.193,0,0,0,81,false,stim,true,0,479.10000014305115,2,0,0,74339,task1,464747,false,false,667,image-keyboard-response,4
true,6,2,1,0,false,q,true,false,0.0-2.0-0.21-0.194-3.194,0,0,0,68,false,stim,false,1,604.2999999523163,2,0,1,74339,task1,466877,false,false,670,image-keyboard-response,5
true,6,2,1,2,true,d,false,true,0.0-2.0-0.21-0.195-3.195,0,0,0,68,false,stim,false,1,700.5,2,0,2,74339,task1,469108,false,false,673,image-keyboard-response,6
true,6,0,1,0,true,q,false,false,0.0-2.0-0.21-0.196-3.196,0,0,0,81,false,stim,false,1,755.0,2,0,1,74339,task1,471399,false,true,676,image-keyboard-response,7
true,6,2,1,2,true,d,false,true,0.0-2.0-0.21-0.197-3.197,0,0,0,68,false,stim,false,1,1002.2999999523163,2,0,2,74339,task1,473951,false,false,679,image-keyboard-response,8
true,6,2,1,2,true,d,false,true,0.0-2.0-0.22-0.198-3.198,0,0,0,68,false,stim,false,0,589.2999999523163,2,0,0,74339,task1,476081,false,false,682,image-keyboard-response,9
true,6,2,1,2,true,d,false,true,0.0-2.0-0.22-0.199-3.199,0,0,0,68,false,stim,false,1,386.40000009536743,2,0,2,74339,task1,477999,false,false,685,image-keyboard-response,10
true,6,2,1,2,true,d,false,false,0.0-2.0-0.22-0.200-3.200,0,0,0,68,false,stim,false,0,339.2000000476837,2,0,0,74339,task1,479876,false,true,688,image-keyboard-response,11
true,6,2,1,0,false,q,true,false,0.0-2.0-0.22-0.201-3.201,0,0,0,68,false,stim,false,1,665.2999999523163,2,0,1,74339,task1,482084,false,false,691,image-keyboard-response,12
true,6,1,1,0,false,q,false,false,0.0-2.0-0.22-0.202-3.202,0,0,0,90,false,stim,true,1,400.7000000476837,2,0,1,74339,task1,484000,false,false,694,image-keyboard-response,13
true,6,2,1,2,true,d,false,true,0.0-2.0-0.22-0.203-3.203,0,0,0,68,false,stim,false,1,547.7999999523163,2,0,2,74339,task1,486083,false,false,697,image-keyboard-response,14
true,6,0,1,0,true,q,false,true,0.0-2.0-0.22-0.204-3.204,0,0,0,81,false,stim,false,1,499.39999985694885,2,0,1,74339,task1,488125,false,false,700,image-keyboard-response,15
true,6,2,1,2,true,d,false,true,0.0-2.0-0.22-0.205-3.205,0,0,0,68,false,stim,false,1,1131.8000001907349,2,0,2,74339,task1,490793,false,false,703,image-keyboard-response,16
true,6,2,1,2,true,d,false,true,0.0-2.0-0.22-0.206-3.206,0,0,0,68,false,stim,false,0,367.39999985694885,2,0,0,74339,task1,492682,false,false,706,image-keyboard-response,17
true,6,2,1,2,true,d,false,true,0.0-2.0-0.23-0.207-3.207,0,0,0,68,false,stim,false,1,654.8000001907349,2,0,2,74339,task1,494860,false,false,709,image-keyboard-response,18
true,6,2,1,2,true,d,false,true,0.0-2.0-0.23-0.208-3.208,0,0,0,68,false,stim,false,1,331.2999999523163,2,0,2,74339,task1,496710,false,false,712,image-keyboard-response,19
true,6,0,1,2,false,d,false,false,0.0-2.0-0.23-0.209-3.209,0,0,0,81,false,stim,true,0,565.7999999523163,2,0,0,74339,task1,498818,false,false,715,image-keyboard-response,20
true,6,2,1,2,true,d,false,true,0.0-2.0-0.23-0.210-3.210,0,0,0,68,false,stim,false,0,667.2999999523163,2,0,0,74339,task1,501024,false,false,718,image-keyboard-response,21
true,6,2,1,2,true,d,false,true,0.0-2.0-0.23-0.211-3.211,0,0,0,68,false,stim,false,0,360.19999980926514,2,0,0,74339,task1,502923,false,false,721,image-keyboard-response,22
true,6,2,1,2,true,d,false,true,0.0-2.0-0.23-0.212-3.212,0,0,0,68,false,stim,false,1,607.5999999046326,2,0,2,74339,task1,505051,false,false,724,image-keyboard-response,23
true,6,0,1,0,true,q,false,true,0.0-2.0-0.23-0.213-3.213,0,0,0,81,false,stim,false,1,653.0999999046326,2,0,1,74339,task1,507239,false,false,727,image-keyboard-response,24
true,6,0,1,0,true,q,false,true,0.0-2.0-0.23-0.214-3.214,0,0,0,81,false,stim,false,1,361.7000000476837,2,0,1,74339,task1,509119,false,false,730,image-keyboard-response,25
true,6,0,1,0,true,q,false,true,0.0-2.0-0.23-0.215-3.215,0,0,0,81,false,stim,false,1,331.89999985694885,2,0,1,74339,task1,510973,false,false,733,image-keyboard-response,26
true,6,2,1,2,true,d,false,true,0.0-2.0-0.24-0.216-3.216,0,0,0,68,false,stim,false,0,402.2999999523163,2,0,0,74339,task1,512901,false,false,736,image-keyboard-response,27
true,6,0,1,0,true,q,false,true,0.0-2.0-0.24-0.217-3.217,0,0,0,81,false,stim,false,1,520.7000000476837,2,0,1,74339,task1,514954,false,false,739,image-keyboard-response,28
true,6,0,1,2,false,d,false,true,0.0-2.0-0.24-0.218-3.218,0,0,0,81,false,stim,true,0,576.4000000953674,2,0,0,74339,task1,517052,false,true,742,image-keyboard-response,29
true,6,2,1,2,true,d,false,true,0.0-2.0-0.24-0.219-3.219,0,0,0,68,false,stim,false,1,551.5,2,0,2,74339,task1,519140,false,false,745,image-keyboard-response,30
true,6,0,1,2,false,d,false,false,0.0-2.0-0.24-0.220-3.220,0,0,0,81,false,stim,true,0,746.2000000476837,2,0,0,74339,task1,521411,false,false,748,image-keyboard-response,31
true,6,2,1,2,true,d,false,true,0.0-2.0-0.24-0.221-3.221,0,0,0,68,false,stim,false,1,363.60000014305115,2,0,2,74339,task1,523309,false,false,751,image-keyboard-response,32
true,6,0,1,0,true,q,false,true,0.0-2.0-0.24-0.222-3.222,0,0,0,81,false,stim,false,1,665.8999998569489,2,0,1,74339,task1,525498,false,false,754,image-keyboard-response,33
true,6,0,1,0,true,q,false,false,0.0-2.0-0.24-0.223-3.223,0,0,0,81,false,stim,false,1,331.09999990463257,2,0,1,74339,task1,527352,false,true,757,image-keyboard-response,34
true,6,2,1,2,true,d,false,true,0.0-2.0-0.24-0.224-3.224,0,0,0,68,false,stim,false,1,449.09999990463257,2,0,2,74339,task1,529336,false,false,760,image-keyboard-response,35
true,6,2,1,0,false,q,true,false,0.0-2.0-0.25-0.225-3.225,0,0,0,68,false,stim,false,1,324.30000019073486,2,0,1,74339,task1,531185,false,false,763,image-keyboard-response,36
true,6,0,1,0,true,q,false,true,0.0-2.0-0.25-0.226-3.226,0,0,0,81,false,stim,false,1,485.90000009536743,2,0,1,74339,task1,533184,false,false,766,image-keyboard-response,37
true,6,2,1,2,true,d,false,true,0.0-2.0-0.25-0.227-3.227,0,0,0,68,false,stim,false,1,534.5999999046326,2,0,2,74339,task1,535260,false,false,769,image-keyboard-response,38
true,6,2,1,2,true,d,false,true,0.0-2.0-0.25-0.228-3.228,0,0,0,68,false,stim,false,0,380.60000014305115,2,0,0,74339,task1,537173,false,false,772,image-keyboard-response,39
true,6,2,1,2,true,d,false,true,0.0-2.0-0.25-0.229-3.229,0,0,0,68,false,stim,false,1,418.0,2,0,2,74339,task1,539107,false,false,775,image-keyboard-response,40
true,6,2,1,2,true,d,false,true,0.0-2.0-0.25-0.230-3.230,0,0,0,68,false,stim,false,1,340.2999999523163,2,0,2,74339,task1,540981,false,false,778,image-keyboard-response,41
true,7,2,1,1,false,z,false,false,0.0-2.0-0.25-0.231-3.231,0,0,0,68,true,stim,true,2,772.2000000476837,2,0,0,74339,task1,543280,false,false,781,image-keyboard-response,1
true,7,2,1,1,false,z,false,false,0.0-2.0-0.25-0.232-3.232,0,0,0,68,false,stim,true,2,370.69999980926514,2,0,0,74339,task1,545183,false,false,784,image-keyboard-response,2
true,7,2,1,2,true,d,false,true,0.0-2.0-0.25-0.233-3.233,0,0,0,68,false,stim,false,0,529.0,2,0,1,74339,task1,547234,false,false,787,image-keyboard-response,3
true,7,2,1,2,true,d,false,true,0.0-2.0-0.26-0.234-3.234,0,0,0,68,false,stim,false,0,317.2000000476837,2,0,1,74339,task1,549059,false,false,790,image-keyboard-response,4
true,7,0,1,1,false,z,true,false,0.0-2.0-0.26-0.235-3.235,0,0,0,81,false,stim,false,2,485.5,2,0,2,74339,task1,551082,false,false,793,image-keyboard-response,5
true,7,2,1,2,true,d,false,true,0.0-2.0-0.26-0.236-3.236,0,0,0,68,false,stim,false,0,1184.9000000953674,2,0,1,74339,task1,553800,false,false,796,image-keyboard-response,6
true,7,0,1,1,false,z,true,false,0.0-2.0-0.26-0.237-3.237,0,0,0,81,false,stim,false,2,624.5,2,0,0,74339,task1,555949,false,false,799,image-keyboard-response,7
true,7,2,1,1,false,z,false,false,0.0-2.0-0.26-0.238-3.238,0,0,0,68,false,stim,true,2,972.7000000476837,2,0,2,74339,task1,558486,false,false,802,image-keyboard-response,8
true,7,1,1,1,true,z,false,true,0.0-2.0-0.26-0.239-3.239,0,0,0,90,false,stim,false,2,804.2999999523163,2,0,0,74339,task1,560824,false,false,805,image-keyboard-response,9
true,7,2,1,1,false,z,false,false,0.0-2.0-0.26-0.240-3.240,0,0,0,68,false,stim,true,2,833.5,2,0,2,74339,task1,563190,false,false,808,image-keyboard-response,10
true,7,1,1,1,true,z,false,true,0.0-2.0-0.26-0.241-3.241,0,0,0,90,false,stim,false,2,521.9000000953674,2,0,0,74339,task1,565237,false,false,811,image-keyboard-response,11
true,7,0,1,2,false,d,false,false,0.0-2.0-0.26-0.242-3.242,0,0,0,81,false,stim,true,0,568.0,2,0,1,74339,task1,567322,false,false,814,image-keyboard-response,12
true,7,1,1,1,true,z,false,true,0.0-2.0-0.27-0.243-3.243,0,0,0,90,false,stim,false,2,485.40000009536743,2,0,0,74339,task1,569326,false,false,817,image-keyboard-response,13
true,7,2,1,2,true,d,false,true,0.0-2.0-0.27-0.244-3.244,0,0,0,68,false,stim,false,0,709.4000000953674,2,0,1,74339,task1,571557,false,false,820,image-keyboard-response,14
true,7,2,1,2,true,d,false,false,0.0-2.0-0.27-0.245-3.245,0,0,0,68,false,stim,false,0,464.5,2,0,1,74339,task1,573533,false,true,823,image-keyboard-response,15
true,7,1,1,1,true,z,false,true,0.0-2.0-0.27-0.246-3.246,0,0,0,90,false,stim,false,2,496.7999999523163,2,0,0,74339,task1,575555,false,false,826,image-keyboard-response,16
true,7,0,1,1,false,z,true,false,0.0-2.0-0.27-0.247-3.247,0,0,0,81,false,stim,false,2,668.4000000953674,2,0,2,74339,task1,577748,false,false,829,image-keyboard-response,17
true,7,1,1,1,true,z,false,true,0.0-2.0-0.27-0.248-3.248,0,0,0,90,false,stim,false,2,710.5,2,0,2,74339,task1,579980,false,false,832,image-keyboard-response,18
true,7,2,1,2,true,d,false,true,0.0-2.0-0.27-0.249-3.249,0,0,0,68,false,stim,false,0,576.7000000476837,2,0,1,74339,task1,582082,false,false,835,image-keyboard-response,19
true,7,1,1,1,true,z,false,true,0.0-2.0-0.27-0.250-3.250,0,0,0,90,false,stim,false,2,454.5,2,0,0,74339,task1,584054,false,false,838,image-keyboard-response,20
true,7,1,1,1,true,z,false,true,0.0-2.0-0.27-0.251-3.251,0,0,0,90,false,stim,false,2,1111.1999998092651,2,0,2,74339,task1,586700,false,false,841,image-keyboard-response,21
true,7,1,1,1,true,z,false,true,0.0-2.0-0.28-0.252-3.252,0,0,0,90,false,stim,false,2,339.2999999523163,2,0,2,74339,task1,588573,false,false,844,image-keyboard-response,22
true,7,1,1,1,true,z,false,true,0.0-2.0-0.28-0.253-3.253,0,0,0,90,false,stim,false,2,312.60000014305115,2,0,2,74339,task1,590411,false,false,847,image-keyboard-response,23
true,7,1,1,1,true,z,false,true,0.0-2.0-0.28-0.254-3.254,0,0,0,90,false,stim,false,2,561.8999998569489,2,0,0,74339,task1,592503,false,false,850,image-keyboard-response,24
true,7,1,1,1,true,z,false,true,0.0-2.0-0.28-0.255-3.255,0,0,0,90,false,stim,false,2,344.0,2,0,0,74339,task1,594368,false,false,853,image-keyboard-response,25
true,7,2,1,2,true,d,false,true,0.0-2.0-0.28-0.256-3.256,0,0,0,68,false,stim,false,0,746.7000000476837,2,0,1,74339,task1,596644,false,false,856,image-keyboard-response,26
true,7,2,1,2,true,d,false,true,0.0-2.0-0.28-0.257-3.257,0,0,0,68,false,stim,false,0,371.7000000476837,2,0,1,74339,task1,598542,false,false,859,image-keyboard-response,27
true,7,2,1,2,true,d,false,true,0.0-2.0-0.28-0.258-3.258,0,0,0,68,false,stim,false,0,508.90000009536743,2,0,1,74339,task1,600575,false,false,862,image-keyboard-response,28
true,7,1,1,1,true,z,false,true,0.0-2.0-0.28-0.259-3.259,0,0,0,90,false,stim,false,2,504.60000014305115,2,0,2,74339,task1,602606,false,false,865,image-keyboard-response,29
true,7,1,1,1,true,z,false,true,0.0-2.0-0.28-0.260-3.260,0,0,0,90,false,stim,false,2,547.2999999523163,2,0,0,74339,task1,604686,false,false,868,image-keyboard-response,30
true,7,2,1,1,false,z,false,false,0.0-2.0-0.29-0.261-3.261,0,0,0,68,false,stim,true,2,462.59999990463257,2,0,2,74339,task1,606673,false,false,871,image-keyboard-response,31
true,7,2,1,2,true,d,false,true,0.0-2.0-0.29-0.262-3.262,0,0,0,68,false,stim,false,0,992.3000001907349,2,0,1,74339,task1,609192,false,false,874,image-keyboard-response,32
true,7,1,1,1,true,z,false,true,0.0-2.0-0.29-0.263-3.263,0,0,0,90,false,stim,false,2,456.7999999523163,2,0,2,74339,task1,611178,false,false,877,image-keyboard-response,33
true,7,1,1,1,true,z,false,true,0.0-2.0-0.29-0.264-3.264,0,0,0,90,false,stim,false,2,902.9000000953674,2,0,0,74339,task1,613613,false,false,880,image-keyboard-response,34
true,7,1,1,1,true,z,false,true,0.0-2.0-0.29-0.265-3.265,0,0,0,90,false,stim,false,2,615.7999999523163,2,0,2,74339,task1,615756,false,false,883,image-keyboard-response,35
true,7,2,1,2,true,d,false,true,0.0-2.0-0.29-0.266-3.266,0,0,0,68,false,stim,false,0,573.8000001907349,2,0,1,74339,task1,617851,false,false,886,image-keyboard-response,36
true,7,1,1,2,false,d,true,false,0.0-2.0-0.29-0.267-3.267,0,0,0,90,false,stim,false,0,541.2000000476837,2,0,1,74339,task1,619960,false,false,889,image-keyboard-response,37
true,7,1,1,1,true,z,false,true,0.0-2.0-0.29-0.268-3.268,0,0,0,90,false,stim,false,2,485.7000000476837,2,0,0,74339,task1,621971,false,false,892,image-keyboard-response,38
true,7,1,1,1,true,z,false,true,0.0-2.0-0.29-0.269-3.269,0,0,0,90,false,stim,false,2,505.39999985694885,2,0,0,74339,task1,624012,false,false,895,image-keyboard-response,39
true,7,2,1,2,true,d,false,true,0.0-2.0-0.30-0.270-3.270,0,0,0,68,false,stim,false,0,786.5,2,0,1,74339,task1,626329,false,false,898,image-keyboard-response,40
true,7,1,1,1,true,z,false,true,0.0-2.0-0.30-0.271-3.271,0,0,0,90,false,stim,false,2,482.59999990463257,2,0,2,74339,task1,628358,false,false,901,image-keyboard-response,41
true,7,1,1,1,true,z,false,true,0.0-2.0-0.30-0.272-3.272,0,0,0,90,false,stim,false,2,875.6000001430511,2,0,0,74339,task1,630765,false,false,904,image-keyboard-response,42
true,7,2,1,2,true,d,false,true,0.0-2.0-0.30-0.273-3.273,0,0,0,68,false,stim,false,0,564.5999999046326,2,0,1,74339,task1,632861,false,false,907,image-keyboard-response,43
true,7,1,1,1,true,z,false,true,0.0-2.0-0.30-0.274-3.274,0,0,0,90,false,stim,false,2,553.9000000953674,2,0,2,74339,task1,634956,false,false,910,image-keyboard-response,44
true,8,1,2,2,false,d,false,false,0.0-2.0-0.30-0.275-3.275,0,0,0,90,true,stim,true,1,424.59999990463257,2,0,2,74339,task1,636894,false,false,913,image-keyboard-response,1
true,8,2,2,0,false,q,false,false,0.0-2.0-0.30-0.276-3.276,0,0,0,68,false,stim,true,2,1210.9000000953674,2,0,1,74339,task1,639637,false,false,916,image-keyboard-response,2
true,8,2,2,2,true,d,false,false,0.0-2.0-0.30-0.277-3.277,0,0,0,68,false,stim,false,1,499.2999999523163,2,0,0,74339,task1,641662,false,true,919,image-keyboard-response,3
true,8,1,2,2,false,d,false,false,0.0-2.0-0.30-0.278-3.278,0,0,0,90,false,stim,true,1,436.7999999523163,2,0,0,74339,task1,643620,false,false,922,image-keyboard-response,4
true,8,2,2,0,false,q,false,true,0.0-2.0-0.31-0.279-3.279,0,0,0,68,false,stim,true,2,704.1999998092651,2,0,1,74339,task1,645845,false,true,925,image-keyboard-response,5
true,8,1,2,2,false,d,false,false,0.0-2.0-0.31-0.280-3.280,0,0,0,90,false,stim,true,1,547.7999999523163,2,0,2,74339,task1,647928,false,false,928,image-keyboard-response,6
true,8,1,2,2,false,d,false,false,0.0-2.0-0.31-0.281-3.281,0,0,0,90,false,stim,true,1,353.90000009536743,2,0,2,74339,task1,649809,false,false,931,image-keyboard-response,7
true,8,2,2,0,false,q,false,false,0.0-2.0-0.31-0.282-3.282,0,0,0,68,false,stim,true,2,650.7000000476837,2,0,1,74339,task1,651994,false,false,934,image-keyboard-response,8
true,8,2,2,2,true,d,false,false,0.0-2.0-0.31-0.283-3.283,0,0,0,68,false,stim,false,1,665.7999999523163,2,0,0,74339,task1,654177,false,true,937,image-keyboard-response,9
true,8,1,2,2,false,d,false,false,0.0-2.0-0.31-0.284-3.284,0,0,0,90,false,stim,true,1,979.2999999523163,2,0,0,74339,task1,656679,false,false,940,image-keyboard-response,10
true,8,1,2,2,false,d,false,false,0.0-2.0-0.31-0.285-3.285,0,0,0,90,false,stim,true,1,1247.2000000476837,2,0,2,74339,task1,659453,false,false,943,image-keyboard-response,11
true,8,0,2,0,true,q,false,true,0.0-2.0-0.31-0.286-3.286,0,0,0,81,false,stim,false,2,300.0,2,0,1,74339,task1,661291,false,false,946,image-keyboard-response,12
true,8,0,2,2,false,d,true,false,0.0-2.0-0.31-0.287-3.287,0,0,0,81,false,stim,false,1,246.90000009536743,2,0,0,74339,task1,663043,false,false,949,image-keyboard-response,13
true,8,0,2,0,true,q,false,true,0.0-2.0-0.32-0.288-3.288,0,0,0,81,false,stim,false,2,347.7999999523163,2,0,1,74339,task1,664931,false,false,952,image-keyboard-response,14
true,8,0,2,0,true,q,false,true,0.0-2.0-0.32-0.289-3.289,0,0,0,81,false,stim,false,2,301.0,2,0,1,74339,task1,666773,false,false,955,image-keyboard-response,15
true,8,2,2,2,true,d,false,true,0.0-2.0-0.32-0.290-3.290,0,0,0,68,false,stim,false,1,876.7000000476837,2,0,0,74339,task1,669185,false,false,958,image-keyboard-response,16
true,8,2,2,2,true,d,false,true,0.0-2.0-0.32-0.291-3.291,0,0,0,68,false,stim,false,1,438.7000000476837,2,0,0,74339,task1,671154,false,false,961,image-keyboard-response,17
true,8,1,2,2,false,d,false,false,0.0-2.0-0.32-0.292-3.292,0,0,0,90,false,stim,true,1,1924.5,2,0,2,74339,task1,674614,false,false,964,image-keyboard-response,18
true,8,1,2,2,false,d,false,false,0.0-2.0-0.32-0.293-3.293,0,0,0,90,false,stim,true,1,344.09999990463257,2,0,2,74339,task1,676486,false,false,967,image-keyboard-response,19
true,8,2,2,0,false,q,false,false,0.0-2.0-0.32-0.294-3.294,0,0,0,68,false,stim,true,2,863.9000000953674,2,0,1,74339,task1,678866,false,false,970,image-keyboard-response,20
true,8,2,2,2,true,d,false,true,0.0-2.0-0.32-0.295-3.295,0,0,0,68,false,stim,false,1,509.89999985694885,2,0,0,74339,task1,680915,false,false,973,image-keyboard-response,21
true,8,0,2,2,false,d,true,false,0.0-2.0-0.32-0.296-3.296,0,0,0,81,false,stim,false,1,322.90000009536743,2,0,2,74339,task1,682762,false,false,976,image-keyboard-response,22
true,8,2,2,2,true,d,false,true,0.0-2.0-0.33-0.297-3.297,0,0,0,68,false,stim,false,1,395.7000000476837,2,0,2,74339,task1,684685,false,false,979,image-keyboard-response,23
true,8,2,2,2,true,d,false,true,0.0-2.0-0.33-0.298-3.298,0,0,0,68,false,stim,false,1,433.0,2,0,0,74339,task1,686651,false,false,982,image-keyboard-response,24
true,8,0,2,0,true,q,false,true,0.0-2.0-0.33-0.299-3.299,0,0,0,81,false,stim,false,2,626.8999998569489,2,0,1,74339,task1,688811,false,false,985,image-keyboard-response,25
true,8,2,2,2,true,d,false,true,0.0-2.0-0.33-0.300-3.300,0,0,0,68,false,stim,false,1,865.9000000953674,2,0,0,74339,task1,691209,false,false,988,image-keyboard-response,26
true,8,0,2,2,false,d,true,false,0.0-2.0-0.33-0.301-3.301,0,0,0,81,false,stim,false,1,1196.2999999523163,2,0,2,74339,task1,693945,false,false,991,image-keyboard-response,27
true,8,0,2,2,false,d,true,false,0.0-2.0-0.33-0.302-3.302,0,0,0,81,false,stim,false,1,327.80000019073486,2,0,2,74339,task1,695798,false,false,994,image-keyboard-response,28
true,8,2,2,0,false,q,false,false,0.0-2.0-0.33-0.303-3.303,0,0,0,68,false,stim,true,2,507.7000000476837,2,0,1,74339,task1,697823,false,false,997,image-keyboard-response,29
true,8,0,2,0,true,q,false,true,0.0-2.0-0.33-0.304-3.304,0,0,0,81,false,stim,false,2,672.7999999523163,2,0,1,74339,task1,700024,false,false,1000,image-keyboard-response,30
true,8,2,2,2,true,d,false,false,0.0-2.0-0.33-0.305-3.305,0,0,0,68,false,stim,false,1,570.0,2,0,0,74339,task1,702125,false,true,1003,image-keyboard-response,31
true,8,2,2,2,true,d,false,true,0.0-2.0-0.34-0.306-3.306,0,0,0,68,false,stim,false,1,1083.7000000476837,2,0,2,74339,task1,704743,false,false,1006,image-keyboard-response,32
true,8,2,2,2,true,d,false,true,0.0-2.0-0.34-0.307-3.307,0,0,0,68,false,stim,false,1,379.10000014305115,2,0,0,74339,task1,706646,false,false,1009,image-keyboard-response,33
true,8,2,2,0,false,q,false,false,0.0-2.0-0.34-0.308-3.308,0,0,0,68,false,stim,true,2,386.39999985694885,2,0,1,74339,task1,708558,false,false,1012,image-keyboard-response,34
true,8,2,2,2,true,d,false,false,0.0-2.0-0.34-0.309-3.309,0,0,0,68,false,stim,false,1,678.4000000953674,2,0,0,74339,task1,710769,false,true,1015,image-keyboard-response,35
true,8,0,2,0,true,q,false,true,0.0-2.0-0.34-0.310-3.310,0,0,0,81,false,stim,false,2,845.3999998569489,2,0,1,74339,task1,713142,false,false,1018,image-keyboard-response,36
true,8,2,2,2,true,d,false,true,0.0-2.0-0.34-0.311-3.311,0,0,0,68,false,stim,false,1,474.59999990463257,2,0,2,74339,task1,715148,false,false,1021,image-keyboard-response,37
true,8,0,2,0,true,q,false,true,0.0-2.0-0.34-0.312-3.312,0,0,0,81,false,stim,false,2,705.5,2,0,1,74339,task1,717370,false,false,1024,image-keyboard-response,38
true,8,2,2,2,true,d,false,true,0.0-2.0-0.34-0.313-3.313,0,0,0,68,false,stim,false,1,506.60000014305115,2,0,2,74339,task1,719401,false,false,1027,image-keyboard-response,39
true,8,0,2,2,false,d,true,false,0.0-2.0-0.34-0.314-3.314,0,0,0,81,false,stim,false,1,500.89999985694885,2,0,0,74339,task1,721433,false,false,1030,image-keyboard-response,40
true,8,2,2,0,false,q,false,false,0.0-2.0-0.35-0.315-3.315,0,0,0,68,false,stim,true,2,749.5,2,0,1,74339,task1,723709,false,false,1033,image-keyboard-response,41
true,8,2,2,2,true,d,false,true,0.0-2.0-0.35-0.316-3.316,0,0,0,68,false,stim,false,1,691.7000000476837,2,0,2,74339,task1,725920,false,false,1036,image-keyboard-response,42
true,9,0,2,1,false,z,false,true,0.0-2.0-0.35-0.317-3.317,0,0,0,81,true,stim,true,0,1005.6999998092651,2,0,1,74339,task1,728462,false,true,1039,image-keyboard-response,1
true,9,2,2,1,false,z,false,false,0.0-2.0-0.35-0.318-3.318,0,0,0,68,false,stim,true,2,570.6000001430511,2,0,2,74339,task1,730564,false,false,1042,image-keyboard-response,2
true,9,2,2,1,false,z,false,false,0.0-2.0-0.35-0.319-3.319,0,0,0,68,false,stim,true,2,1314.7000000476837,2,0,2,74339,task1,733408,false,false,1045,image-keyboard-response,3
true,9,0,2,0,true,q,false,true,0.0-2.0-0.35-0.320-3.320,0,0,0,81,false,stim,false,2,1013.7999999523163,2,0,0,74339,task1,735951,false,false,1048,image-keyboard-response,4
true,9,0,2,0,true,q,false,true,0.0-2.0-0.35-0.321-3.321,0,0,0,81,false,stim,false,2,325.7999999523163,2,0,0,74339,task1,737807,false,false,1051,image-keyboard-response,5
true,9,0,2,1,false,z,false,false,0.0-2.0-0.35-0.322-3.322,0,0,0,81,false,stim,true,0,468.40000009536743,2,0,1,74339,task1,739800,false,false,1054,image-keyboard-response,6
true,9,0,2,0,true,q,false,true,0.0-2.0-0.35-0.323-3.323,0,0,0,81,false,stim,false,2,411.89999985694885,2,0,0,74339,task1,741748,false,false,1057,image-keyboard-response,7
true,9,0,2,1,false,z,false,false,0.0-2.0-0.36-0.324-3.324,0,0,0,81,false,stim,true,0,400.7000000476837,2,0,1,74339,task1,743676,false,false,1060,image-keyboard-response,8
true,9,0,2,0,true,q,false,true,0.0-2.0-0.36-0.325-3.325,0,0,0,81,false,stim,false,2,2052.5999999046326,2,0,0,74339,task1,747266,false,false,1063,image-keyboard-response,9
true,9,1,2,1,true,z,false,false,0.0-2.0-0.36-0.326-3.326,0,0,0,90,false,stim,false,0,845.2000000476837,2,0,1,74339,task1,749654,false,true,1066,image-keyboard-response,10
true,9,0,2,0,true,q,false,true,0.0-2.0-0.36-0.327-3.327,0,0,0,81,false,stim,false,2,497.2999999523163,2,0,0,74339,task1,751672,false,false,1069,image-keyboard-response,11
true,9,2,2,1,false,z,true,true,0.0-2.0-0.36-0.328-3.328,0,0,0,68,false,stim,false,0,628.0,2,0,1,74339,task1,753824,false,true,1072,image-keyboard-response,12
true,9,2,2,1,false,z,false,false,0.0-2.0-0.36-0.329-3.329,0,0,0,68,false,stim,true,2,779.0999999046326,2,0,2,74339,task1,756135,false,false,1075,image-keyboard-response,13
true,9,1,2,1,true,z,false,true,0.0-2.0-0.36-0.330-3.330,0,0,0,90,false,stim,false,2,385.2000000476837,2,0,2,74339,task1,758046,false,false,1078,image-keyboard-response,14
true,9,0,2,0,true,q,false,false,0.0-2.0-0.36-0.331-3.331,0,0,0,81,false,stim,false,2,513.0,2,0,0,74339,task1,760082,false,true,1081,image-keyboard-response,15
true,9,1,2,1,true,z,false,true,0.0-2.0-0.36-0.332-3.332,0,0,0,90,false,stim,false,2,416.2999999523163,2,0,2,74339,task1,762021,false,false,1084,image-keyboard-response,16
true,9,1,2,1,true,z,false,true,0.0-2.0-0.37-0.333-3.333,0,0,0,90,false,stim,false,2,452.60000014305115,2,0,2,74339,task1,764016,false,false,1087,image-keyboard-response,17
true,9,1,2,1,true,z,false,true,0.0-2.0-0.37-0.334-3.334,0,0,0,90,false,stim,false,2,1001.0,2,0,2,74339,task1,766570,false,false,1090,image-keyboard-response,18
true,9,0,2,0,true,q,false,true,0.0-2.0-0.37-0.335-3.335,0,0,0,81,false,stim,false,2,709.5999999046326,2,0,0,74339,task1,768816,false,false,1093,image-keyboard-response,19
true,9,0,2,0,true,q,false,true,0.0-2.0-0.37-0.336-3.336,0,0,0,81,false,stim,false,2,357.2000000476837,2,0,0,74339,task1,770707,false,false,1096,image-keyboard-response,20
true,9,0,2,0,true,q,false,true,0.0-2.0-0.37-0.337-3.337,0,0,0,81,false,stim,false,2,398.2000000476837,2,0,0,74339,task1,772635,false,false,1099,image-keyboard-response,21
true,9,2,2,1,false,z,true,false,0.0-2.0-0.37-0.338-3.338,0,0,0,68,false,stim,false,0,1642.5999999046326,2,0,1,74339,task1,775870,false,false,1102,image-keyboard-response,22
true,9,2,2,1,false,z,true,false,0.0-2.0-0.37-0.339-3.339,0,0,0,68,false,stim,false,0,510.89999985694885,2,0,1,74339,task1,777908,false,false,1105,image-keyboard-response,23
true,9,1,2,1,true,z,false,true,0.0-2.0-0.37-0.340-3.340,0,0,0,90,false,stim,false,2,877.0,2,0,2,74339,task1,780317,false,false,1108,image-keyboard-response,24
true,9,1,2,1,true,z,false,true,0.0-2.0-0.37-0.341-3.341,0,0,0,90,false,stim,false,0,475.30000019073486,2,0,1,74339,task1,782321,false,false,1111,image-keyboard-response,25
true,9,1,2,1,true,z,false,true,0.0-2.0-0.38-0.342-3.342,0,0,0,90,false,stim,false,2,537.2000000476837,2,0,2,74339,task1,784388,false,false,1114,image-keyboard-response,26
true,9,1,2,0,false,q,true,false,0.0-2.0-0.38-0.343-3.343,0,0,0,90,false,stim,false,2,519.2000000476837,2,0,0,74339,task1,786436,false,false,1117,image-keyboard-response,27
true,9,1,2,1,true,z,false,true,0.0-2.0-0.38-0.344-3.344,0,0,0,90,false,stim,false,0,794.0999999046326,2,0,1,74339,task1,788833,false,false,1120,image-keyboard-response,28
true,9,0,2,0,true,q,false,true,0.0-2.0-0.38-0.345-3.345,0,0,0,81,false,stim,false,2,765.9000000953674,2,0,0,74339,task1,791110,false,false,1123,image-keyboard-response,29
true,9,1,2,1,true,z,false,true,0.0-2.0-0.38-0.346-3.346,0,0,0,90,false,stim,false,2,685.6000001430511,2,0,2,74339,task1,793320,false,false,1126,image-keyboard-response,30
true,9,0,2,0,true,q,false,true,0.0-2.0-0.38-0.347-3.347,0,0,0,81,false,stim,false,2,495.59999990463257,2,0,0,74339,task1,795349,false,false,1129,image-keyboard-response,31
true,9,1,2,1,true,z,false,true,0.0-2.0-0.38-0.348-3.348,0,0,0,90,false,stim,false,0,432.7000000476837,2,0,1,74339,task1,797307,false,false,1132,image-keyboard-response,32
true,9,1,2,1,true,z,false,true,0.0-2.0-0.38-0.349-3.349,0,0,0,90,false,stim,false,2,447.7000000476837,2,0,2,74339,task1,799276,false,false,1135,image-keyboard-response,33
true,9,1,2,1,true,z,false,true,0.0-2.0-0.38-0.350-3.350,0,0,0,90,false,stim,false,0,452.90000009536743,2,0,1,74339,task1,801253,false,false,1138,image-keyboard-response,34
true,9,0,2,0,true,q,false,false,0.0-2.0-0.39-0.351-3.351,0,0,0,81,false,stim,false,2,1180.3999998569489,2,0,0,74339,task1,803971,false,true,1141,image-keyboard-response,35
true,9,1,2,1,true,z,false,false,0.0-2.0-0.39-0.352-3.352,0,0,0,90,false,stim,false,2,523.7000000476837,2,0,2,74339,task1,806023,false,true,1144,image-keyboard-response,36
true,9,1,2,1,true,z,false,true,0.0-2.0-0.39-0.353-3.353,0,0,0,90,false,stim,false,0,598.4000000953674,2,0,1,74339,task1,808149,false,false,1147,image-keyboard-response,37
true,9,1,2,1,true,z,false,true,0.0-2.0-0.39-0.354-3.354,0,0,0,90,false,stim,false,0,476.80000019073486,2,0,1,74339,task1,810148,false,false,1150,image-keyboard-response,38
true,9,1,2,1,true,z,false,true,0.0-2.0-0.39-0.355-3.355,0,0,0,90,false,stim,false,2,515.2000000476837,2,0,2,74339,task1,812190,false,false,1153,image-keyboard-response,39
true,10,0,2,2,false,d,false,true,0.0-2.0-0.39-0.356-3.356,0,0,0,81,true,stim,true,0,561.7999999523163,2,0,0,74339,task1,814293,false,true,1156,image-keyboard-response,1
true,10,0,2,0,true,q,false,true,0.0-2.0-0.39-0.357-3.357,0,0,0,81,false,stim,false,1,995.8999998569489,2,0,1,74339,task1,816811,false,false,1159,image-keyboard-response,2
true,10,1,2,2,false,d,false,false,0.0-2.0-0.39-0.358-3.358,0,0,0,90,false,stim,true,1,958.4000000953674,2,0,2,74339,task1,819302,false,false,1162,image-keyboard-response,3
true,10,0,2,2,false,d,false,true,0.0-2.0-0.39-0.359-3.359,0,0,0,81,false,stim,true,0,632.0999999046326,2,0,0,74339,task1,821470,false,true,1165,image-keyboard-response,4
true,10,1,2,2,false,d,false,false,0.0-2.0-0.40-0.360-3.360,0,0,0,90,false,stim,true,1,543.7999999523163,2,0,2,74339,task1,823553,false,false,1168,image-keyboard-response,5
true,10,1,2,0,false,q,false,false,0.0-2.0-0.40-0.361-3.361,0,0,0,90,false,stim,true,1,505.60000014305115,2,0,1,74339,task1,825582,false,false,1171,image-keyboard-response,6
true,10,0,2,2,false,d,false,true,0.0-2.0-0.40-0.362-3.362,0,0,0,81,false,stim,true,0,544.0999999046326,2,0,0,74339,task1,827639,false,true,1174,image-keyboard-response,7
true,10,1,2,0,false,q,false,false,0.0-2.0-0.40-0.363-3.363,0,0,0,90,false,stim,true,1,675.0999999046326,2,0,1,74339,task1,829843,false,false,1177,image-keyboard-response,8
true,10,2,2,0,false,q,true,false,0.0-2.0-0.40-0.364-3.364,0,0,0,68,false,stim,false,1,495.5,2,0,1,74339,task1,831868,false,false,1180,image-keyboard-response,9
true,10,0,2,2,false,d,false,false,0.0-2.0-0.40-0.365-3.365,0,0,0,81,false,stim,true,0,798.7999999523163,2,0,0,74339,task1,834191,false,false,1183,image-keyboard-response,10
true,10,0,2,2,false,d,false,false,0.0-2.0-0.40-0.366-3.366,0,0,0,81,false,stim,true,0,378.7000000476837,2,0,0,74339,task1,836114,false,false,1186,image-keyboard-response,11
true,10,0,2,2,false,d,true,false,0.0-2.0-0.40-0.367-3.367,0,0,0,81,false,stim,false,1,1102.2999999523163,2,0,2,74339,task1,838757,false,false,1189,image-keyboard-response,12
true,10,1,2,2,false,d,false,false,0.0-2.0-0.40-0.368-3.368,0,0,0,90,false,stim,true,1,502.7000000476837,2,0,2,74339,task1,840795,false,false,1192,image-keyboard-response,13
true,10,1,2,2,false,d,true,false,0.0-2.0-0.41-0.369-3.369,0,0,0,90,false,stim,false,0,817.3999998569489,2,0,0,74339,task1,843144,false,false,1195,image-keyboard-response,14
true,10,0,2,0,true,q,false,true,0.0-2.0-0.41-0.370-3.370,0,0,0,81,false,stim,false,1,1081.9000000953674,2,0,1,74339,task1,845754,false,false,1198,image-keyboard-response,15
true,10,2,2,2,true,d,false,true,0.0-2.0-0.41-0.371-3.371,0,0,0,68,false,stim,false,1,805.5,2,0,2,74339,task1,848103,false,false,1201,image-keyboard-response,16
true,10,2,2,2,true,d,false,true,0.0-2.0-0.41-0.372-3.372,0,0,0,68,false,stim,false,1,457.69999980926514,2,0,2,74339,task1,850099,false,false,1204,image-keyboard-response,17
true,10,0,2,0,true,q,false,true,0.0-2.0-0.41-0.373-3.373,0,0,0,81,false,stim,false,1,1293.0,2,0,1,74339,task1,852924,false,false,1207,image-keyboard-response,18
true,10,2,2,2,true,d,false,true,0.0-2.0-0.41-0.374-3.374,0,0,0,68,false,stim,false,1,874.4000000953674,2,0,2,74339,task1,855327,false,false,1210,image-keyboard-response,19
true,10,0,2,0,true,q,false,true,0.0-2.0-0.41-0.375-3.375,0,0,0,81,false,stim,false,1,1132.9000000953674,2,0,1,74339,task1,857992,false,false,1213,image-keyboard-response,20
true,10,0,2,2,false,d,false,false,0.0-2.0-0.41-0.376-3.376,0,0,0,81,false,stim,true,0,434.5,2,0,0,74339,task1,859959,false,false,1216,image-keyboard-response,21
true,10,2,2,2,true,d,false,false,0.0-2.0-0.41-0.377-3.377,0,0,0,68,false,stim,false,0,311.7000000476837,2,0,0,74339,task1,861794,false,true,1219,image-keyboard-response,22
true,10,0,2,0,true,q,false,true,0.0-2.0-0.42-0.378-3.378,0,0,0,81,false,stim,false,1,882.7000000476837,2,0,1,74339,task1,864200,false,false,1222,image-keyboard-response,23
true,10,0,2,0,true,q,false,true,0.0-2.0-0.42-0.379-3.379,0,0,0,81,false,stim,false,1,388.5,2,0,1,74339,task1,866107,false,false,1225,image-keyboard-response,24
true,10,1,2,2,false,d,true,false,0.0-2.0-0.42-0.380-3.380,0,0,0,90,false,stim,false,0,434.5,2,0,0,74339,task1,868075,false,false,1228,image-keyboard-response,25
true,10,2,2,2,true,d,false,true,0.0-2.0-0.42-0.381-3.381,0,0,0,68,false,stim,false,1,1423.8000001907349,2,0,2,74339,task1,871032,false,false,1231,image-keyboard-response,26
true,10,2,2,2,true,d,false,true,0.0-2.0-0.42-0.382-3.382,0,0,0,68,false,stim,false,1,429.39999985694885,2,0,2,74339,task1,872985,false,false,1234,image-keyboard-response,27
true,10,2,2,2,true,d,false,true,0.0-2.0-0.42-0.383-3.383,0,0,0,68,false,stim,false,1,430.69999980926514,2,0,2,74339,task1,874957,false,false,1237,image-keyboard-response,28
true,10,1,2,2,false,d,true,false,0.0-2.0-0.42-0.384-3.384,0,0,0,90,false,stim,false,0,490.0,2,0,0,74339,task1,876969,false,false,1240,image-keyboard-response,29
true,10,0,2,2,false,d,false,false,0.0-2.0-0.42-0.385-3.385,0,0,0,81,false,stim,true,0,505.7000000476837,2,0,0,74339,task1,879011,false,false,1243,image-keyboard-response,30
true,10,0,2,0,true,q,false,true,0.0-2.0-0.42-0.386-3.386,0,0,0,81,false,stim,false,1,756.4000000953674,2,0,1,74339,task1,881292,false,false,1246,image-keyboard-response,31
true,10,2,2,2,true,d,false,true,0.0-2.0-0.43-0.387-3.387,0,0,0,68,false,stim,false,0,465.09999990463257,2,0,0,74339,task1,883281,false,false,1249,image-keyboard-response,32
true,10,2,2,2,true,d,false,false,0.0-2.0-0.43-0.388-3.388,0,0,0,68,false,stim,false,1,710.5,2,0,2,74339,task1,885515,false,true,1252,image-keyboard-response,33
true,10,2,2,2,true,d,false,true,0.0-2.0-0.43-0.389-3.389,0,0,0,68,false,stim,false,0,647.0,2,0,0,74339,task1,887689,false,false,1255,image-keyboard-response,34
true,10,2,2,2,true,d,false,true,0.0-2.0-0.43-0.390-3.390,0,0,0,68,false,stim,false,1,382.7000000476837,2,0,2,74339,task1,889601,false,false,1258,image-keyboard-response,35
true,10,2,2,2,true,d,false,true,0.0-2.0-0.43-0.391-3.391,0,0,0,68,false,stim,false,1,465.89999985694885,2,0,2,74339,task1,891585,false,false,1261,image-keyboard-response,36
false,10,-1,2,0,false,q,true,false,0.0-2.0-0.43-0.392-3.392,0,0,0,,false,stim,false,1,,2,0,1,74339,task1,896118,false,false,1264,image-keyboard-response,37
true,10,2,2,2,true,d,false,true,0.0-2.0-0.43-0.393-3.393,0,0,0,68,false,stim,false,0,467.09999990463257,2,0,0,74339,task1,898104,false,false,1267,image-keyboard-response,38
true,10,0,2,0,true,q,false,true,0.0-2.0-0.43-0.394-3.394,0,0,0,81,false,stim,false,1,914.0,2,0,1,74339,task1,900529,false,false,1270,image-keyboard-response,39
true,10,2,2,0,false,q,true,false,0.0-2.0-0.43-0.395-3.395,0,0,0,68,false,stim,false,1,1582.0,2,0,1,74339,task1,903645,false,false,1273,image-keyboard-response,40
true,10,0,2,0,true,q,false,true,0.0-2.0-0.44-0.396-3.396,0,0,0,81,false,stim,false,1,405.0,2,0,1,74339,task1,905576,false,false,1276,image-keyboard-response,41
true,11,2,2,1,false,z,false,false,0.0-2.0-0.44-0.397-3.397,0,0,0,68,true,stim,true,2,631.8999998569489,2,0,2,74339,task1,907743,false,false,1279,image-keyboard-response,1
true,11,2,2,0,false,q,false,false,0.0-2.0-0.44-0.398-3.398,0,0,0,68,false,stim,true,2,366.2999999523163,2,0,0,74339,task1,909644,false,false,1282,image-keyboard-response,2
true,11,2,2,1,false,z,false,false,0.0-2.0-0.44-0.399-3.399,0,0,0,68,false,stim,true,2,407.7000000476837,2,0,2,74339,task1,911574,false,false,1285,image-keyboard-response,3
true,11,2,2,0,false,q,false,false,0.0-2.0-0.44-0.400-3.400,0,0,0,68,false,stim,true,2,503.2000000476837,2,0,0,74339,task1,913613,false,false,1288,image-keyboard-response,4
true,11,1,2,1,true,z,false,true,0.0-2.0-0.44-0.401-3.401,0,0,0,90,false,stim,false,0,470.39999985694885,2,0,1,74339,task1,915616,false,false,1291,image-keyboard-response,5
true,11,1,2,1,true,z,false,true,0.0-2.0-0.44-0.402-3.402,0,0,0,90,false,stim,false,2,297.7999999523163,2,0,2,74339,task1,917448,false,false,1294,image-keyboard-response,6
true,11,1,2,0,false,q,true,false,0.0-2.0-0.44-0.403-3.403,0,0,0,90,false,stim,false,2,776.7000000476837,2,0,0,74339,task1,919747,false,false,1297,image-keyboard-response,7
true,11,1,2,1,true,z,false,true,0.0-2.0-0.44-0.404-3.404,0,0,0,90,false,stim,false,0,594.5,2,0,1,74339,task1,921894,false,false,1300,image-keyboard-response,8
true,11,0,2,0,true,q,false,true,0.0-2.0-0.45-0.405-3.405,0,0,0,81,false,stim,false,2,553.3000001907349,2,0,0,74339,task1,923981,false,false,1303,image-keyboard-response,9
true,11,0,2,0,true,q,false,false,0.0-2.0-0.45-0.406-3.406,0,0,0,81,false,stim,false,2,601.5999999046326,2,0,0,74339,task1,926116,false,true,1306,image-keyboard-response,10
true,11,0,2,0,true,q,false,true,0.0-2.0-0.45-0.407-3.407,0,0,0,81,false,stim,false,2,423.90000009536743,2,0,0,74339,task1,928075,false,false,1309,image-keyboard-response,11
true,11,1,2,1,true,z,false,true,0.0-2.0-0.45-0.408-3.408,0,0,0,90,false,stim,false,0,752.0,2,0,1,74339,task1,930362,false,false,1312,image-keyboard-response,12
true,11,1,2,1,true,z,false,true,0.0-2.0-0.45-0.409-3.409,0,0,0,90,false,stim,false,2,583.0999999046326,2,0,2,74339,task1,932465,false,false,1315,image-keyboard-response,13
true,11,1,2,1,true,z,false,true,0.0-2.0-0.45-0.410-3.410,0,0,0,90,false,stim,false,2,402.09999990463257,2,0,2,74339,task1,934389,false,false,1318,image-keyboard-response,14
true,11,1,2,1,true,z,false,true,0.0-2.0-0.45-0.411-3.411,0,0,0,90,false,stim,false,0,486.60000014305115,2,0,1,74339,task1,936410,false,false,1321,image-keyboard-response,15
true,11,1,2,1,true,z,false,true,0.0-2.0-0.45-0.412-3.412,0,0,0,90,false,stim,false,2,450.7000000476837,2,0,2,74339,task1,938397,false,false,1324,image-keyboard-response,16
true,11,1,2,1,true,z,false,true,0.0-2.0-0.45-0.413-3.413,0,0,0,90,false,stim,false,0,355.09999990463257,2,0,1,74339,task1,940286,false,false,1327,image-keyboard-response,17
true,11,0,2,0,true,q,false,true,0.0-2.0-0.46-0.414-3.414,0,0,0,81,false,stim,false,2,700.0999999046326,2,0,0,74339,task1,942521,false,false,1330,image-keyboard-response,18
true,11,1,2,1,true,z,false,true,0.0-2.0-0.46-0.415-3.415,0,0,0,90,false,stim,false,2,513.5999999046326,2,0,2,74339,task1,944556,false,false,1333,image-keyboard-response,19
true,11,1,2,1,true,z,false,true,0.0-2.0-0.46-0.416-3.416,0,0,0,90,false,stim,false,0,373.0,2,0,1,74339,task1,946459,false,false,1336,image-keyboard-response,20
true,11,1,2,1,true,z,false,true,0.0-2.0-0.46-0.417-3.417,0,0,0,90,false,stim,false,0,1168.2000000476837,2,0,1,74339,task1,949158,false,false,1339,image-keyboard-response,21
true,11,0,2,0,true,q,false,true,0.0-2.0-0.46-0.418-3.418,0,0,0,81,false,stim,false,2,466.39999985694885,2,0,0,74339,task1,951143,false,false,1342,image-keyboard-response,22
true,11,1,2,1,true,z,false,true,0.0-2.0-0.46-0.419-3.419,0,0,0,90,false,stim,false,2,542.7999999523163,2,0,2,74339,task1,953221,false,false,1345,image-keyboard-response,23
true,11,1,2,1,true,z,false,true,0.0-2.0-0.46-0.420-3.420,0,0,0,90,false,stim,false,2,1142.5,2,0,2,74339,task1,955882,false,false,1348,image-keyboard-response,24
true,11,0,2,0,true,q,false,true,0.0-2.0-0.46-0.421-3.421,0,0,0,81,false,stim,false,2,2275.399999856949,2,0,0,74339,task1,959666,false,false,1351,image-keyboard-response,25
true,11,1,2,1,true,z,false,true,0.0-2.0-0.46-0.422-3.422,0,0,0,90,false,stim,false,0,351.2999999523163,2,0,1,74339,task1,961533,false,false,1354,image-keyboard-response,26
true,11,0,2,0,true,q,false,true,0.0-2.0-0.47-0.423-3.423,0,0,0,81,false,stim,false,2,580.5,2,0,0,74339,task1,963634,false,false,1357,image-keyboard-response,27
true,11,1,2,1,true,z,false,true,0.0-2.0-0.47-0.424-3.424,0,0,0,90,false,stim,false,0,2027.6000001430511,2,0,1,74339,task1,967186,false,false,1360,image-keyboard-response,28
true,11,0,2,0,true,q,false,true,0.0-2.0-0.47-0.425-3.425,0,0,0,81,false,stim,false,2,476.09999990463257,2,0,0,74339,task1,969177,false,false,1363,image-keyboard-response,29
true,11,1,2,1,true,z,false,true,0.0-2.0-0.47-0.426-3.426,0,0,0,90,false,stim,false,2,527.2000000476837,2,0,2,74339,task1,971216,false,false,1366,image-keyboard-response,30
true,11,1,2,1,true,z,false,true,0.0-2.0-0.47-0.427-3.427,0,0,0,90,false,stim,false,2,987.3999998569489,2,0,2,74339,task1,973734,false,false,1369,image-keyboard-response,31
true,11,0,2,0,true,q,false,true,0.0-2.0-0.47-0.428-3.428,0,0,0,81,false,stim,false,2,503.7999999523163,2,0,0,74339,task1,975771,false,false,1372,image-keyboard-response,32
true,11,1,2,1,true,z,false,true,0.0-2.0-0.47-0.429-3.429,0,0,0,90,false,stim,false,0,615.5999999046326,2,0,1,74339,task1,977919,false,false,1375,image-keyboard-response,33
true,11,1,2,1,true,z,false,true,0.0-2.0-0.47-0.430-3.430,0,0,0,90,false,stim,false,2,935.1999998092651,2,0,2,74339,task1,980398,false,false,1378,image-keyboard-response,34
true,11,1,2,1,true,z,false,true,0.0-2.0-0.47-0.431-3.431,0,0,0,90,false,stim,false,0,866.5999999046326,2,0,1,74339,task1,982796,false,false,1381,image-keyboard-response,35
true,11,0,2,0,true,q,false,true,0.0-2.0-0.48-0.432-3.432,0,0,0,81,false,stim,false,2,621.5999999046326,2,0,0,74339,task1,984942,false,false,1384,image-keyboard-response,36
true,11,0,2,1,false,z,false,false,0.0-2.0-0.48-0.433-3.433,0,0,0,81,false,stim,true,0,444.5,2,0,1,74339,task1,986918,false,false,1387,image-keyboard-response,37
true,11,1,2,1,true,z,false,false,0.0-2.0-0.48-0.434-3.434,0,0,0,90,false,stim,false,0,543.2000000476837,2,0,1,74339,task1,988990,false,true,1390,image-keyboard-response,38
true,11,1,2,1,true,z,false,true,0.0-2.0-0.48-0.435-3.435,0,0,0,90,false,stim,false,2,430.2999999523163,2,0,2,74339,task1,990951,false,false,1393,image-keyboard-response,39
true,12,0,2,2,false,d,false,false,0.0-2.0-0.48-0.436-3.436,0,0,0,81,true,stim,true,0,575.7000000476837,2,0,0,74339,task1,993047,false,false,1396,image-keyboard-response,1
true,12,1,2,2,false,d,false,false,0.0-2.0-0.48-0.437-3.437,0,0,0,90,false,stim,true,1,2859.399999856949,2,0,2,74339,task1,997435,false,false,1399,image-keyboard-response,2
true,12,1,2,2,false,d,false,false,0.0-2.0-0.48-0.438-3.438,0,0,0,90,false,stim,true,1,362.7000000476837,2,0,2,74339,task1,999333,false,false,1402,image-keyboard-response,3
true,12,1,2,0,false,q,false,false,0.0-2.0-0.48-0.439-3.439,0,0,0,90,false,stim,true,1,1606.5999999046326,2,0,1,74339,task1,1002457,false,false,1405,image-keyboard-response,4
true,12,0,2,2,false,d,false,false,0.0-2.0-0.48-0.440-3.440,0,0,0,81,false,stim,true,0,2840.699999809265,2,0,0,74339,task1,1006820,false,false,1408,image-keyboard-response,5
true,12,2,2,0,false,q,true,false,0.0-2.0-0.49-0.441-3.441,0,0,0,68,false,stim,false,1,657.2000000476837,2,0,1,74339,task1,1009000,false,false,1411,image-keyboard-response,6
true,12,0,2,0,true,q,false,true,0.0-2.0-0.49-0.442-3.442,0,0,0,81,false,stim,false,1,425.69999980926514,2,0,1,74339,task1,1010959,false,false,1414,image-keyboard-response,7
true,12,0,2,2,false,d,true,false,0.0-2.0-0.49-0.443-3.443,0,0,0,81,false,stim,false,1,569.0999999046326,2,0,2,74339,task1,1013052,false,false,1417,image-keyboard-response,8
true,12,0,2,2,false,d,true,false,0.0-2.0-0.49-0.444-3.444,0,0,0,81,false,stim,false,1,334.7999999523163,2,0,2,74339,task1,1014909,false,false,1420,image-keyboard-response,9
true,12,1,2,2,false,d,true,true,0.0-2.0-0.49-0.445-3.445,0,0,0,90,false,stim,false,0,1189.3000001907349,2,0,0,74339,task1,1017637,false,true,1423,image-keyboard-response,10
true,12,0,2,0,true,q,false,true,0.0-2.0-0.49-0.446-3.446,0,0,0,81,false,stim,false,1,398.7999999523163,2,0,1,74339,task1,1019568,false,false,1426,image-keyboard-response,11
true,12,1,2,2,false,d,true,true,0.0-2.0-0.49-0.447-3.447,0,0,0,90,false,stim,false,0,476.09999990463257,2,0,0,74339,task1,1021564,false,true,1429,image-keyboard-response,12
true,12,0,2,2,false,d,true,false,0.0-2.0-0.49-0.448-3.448,0,0,0,81,false,stim,false,1,884.0,2,0,2,74339,task1,1023965,false,false,1432,image-keyboard-response,13
true,12,1,2,2,false,d,true,false,0.0-2.0-0.49-0.449-3.449,0,0,0,90,false,stim,false,0,858.7999999523163,2,0,0,74339,task1,1026357,false,false,1435,image-keyboard-response,14
false,12,-1,2,0,false,q,true,true,0.0-2.0-0.50-0.450-3.450,0,0,0,,false,stim,false,1,,2,0,1,74339,task1,1030891,false,true,1438,image-keyboard-response,15
true,12,0,2,0,true,q,false,true,0.0-2.0-0.50-0.451-3.451,0,0,0,81,false,stim,false,1,463.7999999523163,2,0,1,74339,task1,1032893,false,false,1441,image-keyboard-response,16
true,12,1,2,2,false,d,true,false,0.0-2.0-0.50-0.452-3.452,0,0,0,90,false,stim,false,0,656.5,2,0,0,74339,task1,1035074,false,false,1444,image-keyboard-response,17
true,12,1,2,2,false,d,true,false,0.0-2.0-0.50-0.453-3.453,0,0,0,90,false,stim,false,0,501.2000000476837,2,0,0,74339,task1,1037106,false,false,1447,image-keyboard-response,18
true,12,0,2,2,false,d,true,false,0.0-2.0-0.50-0.454-3.454,0,0,0,81,false,stim,false,1,785.7000000476837,2,0,2,74339,task1,1039428,false,false,1450,image-keyboard-response,19
true,12,1,2,2,false,d,true,false,0.0-2.0-0.50-0.455-3.455,0,0,0,90,false,stim,false,0,588.7000000476837,2,0,0,74339,task1,1041551,false,false,1453,image-keyboard-response,20
true,12,0,2,2,false,d,true,false,0.0-2.0-0.50-0.456-3.456,0,0,0,81,false,stim,false,1,539.1000001430511,2,0,2,74339,task1,1043622,false,false,1456,image-keyboard-response,21
true,12,0,2,2,false,d,true,false,0.0-2.0-0.50-0.457-3.457,0,0,0,81,false,stim,false,1,541.5,2,0,2,74339,task1,1045698,false,false,1459,image-keyboard-response,22
true,12,0,2,0,true,q,false,true,0.0-2.0-0.50-0.458-3.458,0,0,0,81,false,stim,false,1,529.2000000476837,2,0,1,74339,task1,1047759,false,false,1462,image-keyboard-response,23
true,12,1,2,2,false,d,false,false,0.0-2.0-0.51-0.459-3.459,0,0,0,90,false,stim,true,1,371.2999999523163,2,0,2,74339,task1,1049651,false,false,1465,image-keyboard-response,24
true,12,2,2,2,true,d,false,true,0.0-2.0-0.51-0.460-3.460,0,0,0,68,false,stim,false,0,670.2999999523163,2,0,0,74339,task1,1051846,false,false,1468,image-keyboard-response,25
true,12,2,2,2,true,d,false,true,0.0-2.0-0.51-0.461-3.461,0,0,0,68,false,stim,false,1,403.7999999523163,2,0,2,74339,task1,1053776,false,false,1471,image-keyboard-response,26
true,12,1,2,0,false,q,false,false,0.0-2.0-0.51-0.462-3.462,0,0,0,90,false,stim,true,1,1704.5,2,0,1,74339,task1,1057012,false,false,1474,image-keyboard-response,27
true,12,2,2,0,false,q,true,false,0.0-2.0-0.51-0.463-3.463,0,0,0,68,false,stim,false,1,2192.0999999046326,2,0,1,74339,task1,1060729,false,false,1477,image-keyboard-response,28
true,12,2,2,2,true,d,false,false,0.0-2.0-0.51-0.464-3.464,0,0,0,68,false,stim,false,0,431.7000000476837,2,0,0,74339,task1,1062692,false,true,1480,image-keyboard-response,29
true,12,0,2,0,true,q,false,true,0.0-2.0-0.51-0.465-3.465,0,0,0,81,false,stim,false,1,577.4000000953674,2,0,1,74339,task1,1064807,false,false,1483,image-keyboard-response,30
true,12,2,2,2,true,d,false,true,0.0-2.0-0.51-0.466-3.466,0,0,0,68,false,stim,false,0,490.5,2,0,0,74339,task1,1066825,false,false,1486,image-keyboard-response,31
true,12,2,2,2,true,d,false,true,0.0-2.0-0.51-0.467-3.467,0,0,0,68,false,stim,false,1,622.2000000476837,2,0,2,74339,task1,1068984,false,false,1489,image-keyboard-response,32
true,12,0,2,2,false,d,true,false,0.0-2.0-0.52-0.468-3.468,0,0,0,81,false,stim,false,1,562.0,2,0,2,74339,task1,1071065,false,false,1492,image-keyboard-response,33
true,12,2,2,2,true,d,false,true,0.0-2.0-0.52-0.469-3.469,0,0,0,68,false,stim,false,1,621.0,2,0,2,74339,task1,1073198,false,false,1495,image-keyboard-response,34
true,12,2,2,2,true,d,false,true,0.0-2.0-0.52-0.470-3.470,0,0,0,68,false,stim,false,0,538.3999998569489,2,0,0,74339,task1,1075266,false,false,1498,image-keyboard-response,35
true,12,2,2,2,true,d,false,true,0.0-2.0-0.52-0.471-3.471,0,0,0,68,false,stim,false,0,1452.7000000476837,2,0,0,74339,task1,1078264,false,false,1501,image-keyboard-response,36
true,12,0,2,0,true,q,false,true,0.0-2.0-0.52-0.472-3.472,0,0,0,81,false,stim,false,1,995.9000000953674,2,0,1,74339,task1,1080786,false,false,1504,image-keyboard-response,37
true,12,0,2,0,true,q,false,true,0.0-2.0-0.52-0.473-3.473,0,0,0,81,false,stim,false,1,501.60000014305115,2,0,1,74339,task1,1082801,false,false,1507,image-keyboard-response,38
true,12,0,2,0,true,q,false,true,0.0-2.0-0.52-0.474-3.474,0,0,0,81,false,stim,false,1,501.39999985694885,2,0,1,74339,task1,1084823,false,false,1510,image-keyboard-response,39
true,12,0,2,2,false,d,false,false,0.0-2.0-0.52-0.475-3.475,0,0,0,81,false,stim,true,0,387.2999999523163,2,0,0,74339,task1,1086744,false,false,1513,image-keyboard-response,40
true,12,2,2,2,true,d,false,true,0.0-2.0-0.52-0.476-3.476,0,0,0,68,false,stim,false,1,618.0999999046326,2,0,2,74339,task1,1088886,false,false,1516,image-keyboard-response,41
true,12,2,2,2,true,d,false,true,0.0-2.0-0.53-0.477-3.477,0,0,0,68,false,stim,false,0,639.2999999523163,2,0,0,74339,task1,1091059,false,false,1519,image-keyboard-response,42
false,13,-1,2,1,false,z,true,false,0.0-2.0-0.53-0.478-3.478,0,0,0,,true,stim,false,2,,2,0,2,74339,task1,1095590,false,false,1522,image-keyboard-response,1
true,13,0,2,0,true,q,false,true,0.0-2.0-0.53-0.479-3.479,0,0,0,81,false,stim,false,2,448.40000009536743,2,0,0,74339,task1,1097582,false,false,1525,image-keyboard-response,2
true,13,0,2,0,true,q,false,true,0.0-2.0-0.53-0.480-3.480,0,0,0,81,false,stim,false,2,401.89999985694885,2,0,0,74339,task1,1099516,false,false,1528,image-keyboard-response,3
true,13,0,2,1,false,z,false,false,0.0-2.0-0.53-0.481-3.481,0,0,0,81,false,stim,true,0,519.7000000476837,2,0,1,74339,task1,1101575,false,false,1531,image-keyboard-response,4
true,13,2,2,1,false,z,true,false,0.0-2.0-0.53-0.482-3.482,0,0,0,68,false,stim,false,0,357.90000009536743,2,0,1,74339,task1,1103458,false,false,1534,image-keyboard-response,5
true,13,1,2,1,true,z,false,true,0.0-2.0-0.53-0.483-3.483,0,0,0,90,false,stim,false,0,424.0,2,0,1,74339,task1,1105407,false,false,1537,image-keyboard-response,6
true,13,2,2,1,false,z,false,false,0.0-2.0-0.53-0.484-3.484,0,0,0,68,false,stim,true,2,2861.5999999046326,2,0,2,74339,task1,1109797,false,false,1540,image-keyboard-response,7
true,13,1,2,1,true,z,false,true,0.0-2.0-0.53-0.485-3.485,0,0,0,90,false,stim,false,2,590.4000000953674,2,0,2,74339,task1,1111916,false,false,1543,image-keyboard-response,8
true,13,2,2,1,false,z,true,false,0.0-2.0-0.54-0.486-3.486,0,0,0,68,false,stim,false,0,1829.7000000476837,2,0,1,74339,task1,1115274,false,false,1546,image-keyboard-response,9
true,13,0,2,0,true,q,false,true,0.0-2.0-0.54-0.487-3.487,0,0,0,81,false,stim,false,2,656.5,2,0,0,74339,task1,1117463,false,false,1549,image-keyboard-response,10
true,13,1,2,1,true,z,false,true,0.0-2.0-0.54-0.488-3.488,0,0,0,90,false,stim,false,0,533.0,2,0,1,74339,task1,1119525,false,false,1552,image-keyboard-response,11
true,13,1,2,1,true,z,false,true,0.0-2.0-0.54-0.489-3.489,0,0,0,90,false,stim,false,0,542.7999999523163,2,0,1,74339,task1,1121610,false,false,1555,image-keyboard-response,12
true,13,1,2,1,true,z,false,true,0.0-2.0-0.54-0.490-3.490,0,0,0,90,false,stim,false,2,417.59999990463257,2,0,2,74339,task1,1123551,false,false,1558,image-keyboard-response,13
true,13,0,2,0,true,q,false,true,0.0-2.0-0.54-0.491-3.491,0,0,0,81,false,stim,false,2,394.60000014305115,2,0,0,74339,task1,1125475,false,false,1561,image-keyboard-response,14
true,13,1,2,1,true,z,false,true,0.0-2.0-0.54-0.492-3.492,0,0,0,90,false,stim,false,2,467.0,2,0,2,74339,task1,1127490,false,false,1564,image-keyboard-response,15
true,13,1,2,1,true,z,false,true,0.0-2.0-0.54-0.493-3.493,0,0,0,90,false,stim,false,2,575.0,2,0,2,74339,task1,1129595,false,false,1567,image-keyboard-response,16
true,13,0,2,0,true,q,false,true,0.0-2.0-0.54-0.494-3.494,0,0,0,81,false,stim,false,2,564.7999999523163,2,0,0,74339,task1,1131727,false,false,1570,image-keyboard-response,17
false,13,-1,2,1,false,z,true,false,0.0-2.0-0.55-0.495-3.495,0,0,0,,false,stim,false,0,,2,0,1,74339,task1,1136257,false,false,1573,image-keyboard-response,18
true,13,0,2,0,true,q,false,true,0.0-2.0-0.55-0.496-3.496,0,0,0,81,false,stim,false,2,563.2000000476837,2,0,0,74339,task1,1138356,false,false,1576,image-keyboard-response,19
true,13,0,2,0,true,q,false,false,0.0-2.0-0.55-0.497-3.497,0,0,0,81,false,stim,false,2,388.0,2,0,0,74339,task1,1140270,false,true,1579,image-keyboard-response,20
true,13,0,2,0,true,q,false,true,0.0-2.0-0.55-0.498-3.498,0,0,0,81,false,stim,false,2,355.2999999523163,2,0,0,74339,task1,1142149,false,false,1582,image-keyboard-response,21
true,13,1,2,1,true,z,false,true,0.0-2.0-0.55-0.499-3.499,0,0,0,90,false,stim,false,2,449.40000009536743,2,0,2,74339,task1,1144142,false,false,1585,image-keyboard-response,22
true,13,1,2,1,true,z,false,true,0.0-2.0-0.55-0.500-3.500,0,0,0,90,false,stim,false,0,496.7999999523163,2,0,1,74339,task1,1146177,false,false,1588,image-keyboard-response,23
true,13,2,2,1,false,z,false,false,0.0-2.0-0.55-0.501-3.501,0,0,0,68,false,stim,true,2,498.5,2,0,2,74339,task1,1148198,false,false,1591,image-keyboard-response,24
true,13,1,2,1,true,z,false,true,0.0-2.0-0.55-0.502-3.502,0,0,0,90,false,stim,false,2,399.5,2,0,2,74339,task1,1150143,false,false,1594,image-keyboard-response,25
true,13,1,2,1,true,z,false,true,0.0-2.0-0.55-0.503-3.503,0,0,0,90,false,stim,false,0,470.7000000476837,2,0,1,74339,task1,1152141,false,false,1597,image-keyboard-response,26
true,13,1,2,1,true,z,false,true,0.0-2.0-0.56-0.504-3.504,0,0,0,90,false,stim,false,2,623.5,2,0,2,74339,task1,1154299,false,false,1600,image-keyboard-response,27
true,13,1,2,1,true,z,false,true,0.0-2.0-0.56-0.505-3.505,0,0,0,90,false,stim,false,0,436.5,2,0,1,74339,task1,1156268,false,false,1603,image-keyboard-response,28
true,13,0,2,0,true,q,false,true,0.0-2.0-0.56-0.506-3.506,0,0,0,81,false,stim,false,2,535.1000001430511,2,0,0,74339,task1,1158339,false,false,1606,image-keyboard-response,29
true,13,0,2,0,true,q,false,false,0.0-2.0-0.56-0.507-3.507,0,0,0,81,false,stim,false,2,405.59999990463257,2,0,0,74339,task1,1160276,false,true,1609,image-keyboard-response,30
true,13,1,2,1,true,z,false,true,0.0-2.0-0.56-0.508-3.508,0,0,0,90,false,stim,false,2,721.6999998092651,2,0,2,74339,task1,1162534,false,false,1612,image-keyboard-response,31
true,13,0,2,0,true,q,false,true,0.0-2.0-0.56-0.509-3.509,0,0,0,81,false,stim,false,2,2409.0999999046326,2,0,0,74339,task1,1166467,false,false,1615,image-keyboard-response,32
true,13,1,2,1,true,z,false,true,0.0-2.0-0.56-0.510-3.510,0,0,0,90,false,stim,false,0,712.9000000953674,2,0,1,74339,task1,1168700,false,false,1618,image-keyboard-response,33
true,13,1,2,1,true,z,false,true,0.0-2.0-0.56-0.511-3.511,0,0,0,90,false,stim,false,0,845.7999999523163,2,0,1,74339,task1,1171076,false,false,1621,image-keyboard-response,34
true,13,1,2,1,true,z,false,true,0.0-2.0-0.56-0.512-3.512,0,0,0,90,false,stim,false,2,2744.2999999523163,2,0,2,74339,task1,1175330,false,false,1624,image-keyboard-response,35
true,13,1,2,1,true,z,false,true,0.0-2.0-0.57-0.513-3.513,0,0,0,90,false,stim,false,2,369.2999999523163,2,0,2,74339,task1,1177229,false,false,1627,image-keyboard-response,36
true,13,1,2,1,true,z,false,true,0.0-2.0-0.57-0.514-3.514,0,0,0,90,false,stim,false,0,478.7999999523163,2,1,1,74339,task1,1179243,false,false,1630,image-keyboard-response,37
true,13,0,2,0,true,q,false,true,0.0-2.0-0.57-0.515-3.515,0,0,0,81,false,stim,false,2,1388.0,2,1,0,74339,task1,1182155,false,false,1633,image-keyboard-response,38
true,13,0,2,0,true,q,false,true,0.0-2.0-0.57-0.516-3.516,0,0,0,81,false,stim,false,2,483.0,2,1,0,74339,task1,1184170,false,false,1636,image-keyboard-response,39
true,13,1,2,0,false,q,true,false,0.0-2.0-0.57-0.517-3.517,0,0,0,90,false,stim,false,2,1194.2000000476837,2,1,0,74339,task1,1186887,false,false,1639,image-keyboard-response,40
true,13,1,2,1,true,z,false,true,0.0-2.0-0.57-0.518-3.518,0,0,0,90,false,stim,false,2,452.10000014305115,2,1,2,74339,task1,1188866,false,false,1642,image-keyboard-response,41
true,14,1,0,1,true,z,false,true,0.0-2.0-0.57-0.519-3.519,1,1,1,90,true,stim,false,1,1051.5,2,1,2,74339,task1,1218965,false,false,1673,image-keyboard-response,1
true,14,1,0,1,true,z,false,false,0.0-2.0-0.57-0.520-3.520,1,1,1,90,false,stim,false,1,502.5,2,1,1,74339,task1,1220990,false,true,1676,image-keyboard-response,2
true,14,1,0,1,true,z,false,true,0.0-2.0-0.57-0.521-3.521,1,1,1,90,false,stim,false,1,707.9000000953674,2,1,1,74339,task1,1223232,false,false,1679,image-keyboard-response,3
true,14,1,0,1,true,z,false,true,0.0-2.0-0.58-0.522-3.522,1,1,1,90,false,stim,false,1,434.7999999523163,2,1,1,74339,task1,1225193,false,false,1682,image-keyboard-response,4
true,14,0,0,0,true,q,false,true,0.0-2.0-0.58-0.523-3.523,1,1,1,81,false,stim,false,0,488.7999999523163,2,1,0,74339,task1,1227205,false,false,1685,image-keyboard-response,5
true,14,1,0,1,true,z,false,true,0.0-2.0-0.58-0.524-3.524,1,1,1,90,false,stim,false,1,369.2000000476837,2,1,2,74339,task1,1229100,false,false,1688,image-keyboard-response,6
true,14,1,0,1,true,z,false,true,0.0-2.0-0.58-0.525-3.525,1,1,1,90,false,stim,false,1,283.7000000476837,2,1,2,74339,task1,1230908,false,false,1691,image-keyboard-response,7
true,14,1,0,1,true,z,false,true,0.0-2.0-0.58-0.526-3.526,1,1,1,90,false,stim,false,1,284.60000014305115,2,1,2,74339,task1,1232715,false,false,1694,image-keyboard-response,8
true,14,0,0,0,true,q,false,true,0.0-2.0-0.58-0.527-3.527,1,1,1,81,false,stim,false,0,406.5,2,0,0,74339,task1,1234654,false,false,1697,image-keyboard-response,9
true,14,1,0,1,true,z,false,true,0.0-2.0-0.58-0.528-3.528,1,1,1,90,false,stim,false,1,371.40000009536743,2,0,1,74339,task1,1236549,false,false,1700,image-keyboard-response,10
true,14,0,0,0,true,q,false,true,0.0-2.0-0.58-0.529-3.529,1,1,1,81,false,stim,false,0,515.6000001430511,2,0,0,74339,task1,1238604,false,false,1703,image-keyboard-response,11
true,14,1,0,1,true,z,false,true,0.0-2.0-0.58-0.530-3.530,1,1,1,90,false,stim,false,1,332.2000000476837,2,0,1,74339,task1,1240461,false,false,1706,image-keyboard-response,12
true,14,0,0,0,true,q,false,true,0.0-2.0-0.59-0.531-3.531,1,1,1,81,false,stim,false,0,497.0,2,0,0,74339,task1,1242490,false,false,1709,image-keyboard-response,13
true,15,1,1,1,true,z,false,true,0.0-2.0-0.59-0.532-3.532,0,0,0,90,true,stim,false,0,287.80000019073486,2,0,0,74339,task1,1244311,false,false,1712,image-keyboard-response,1
true,15,1,1,2,false,d,false,false,0.0-2.0-0.59-0.533-3.533,0,0,0,90,false,stim,true,1,651.9000000953674,2,0,2,74339,task1,1246494,false,false,1715,image-keyboard-response,2
true,15,1,1,2,false,d,false,false,0.0-2.0-0.59-0.534-3.534,0,0,0,90,false,stim,true,1,498.69999980926514,2,0,2,74339,task1,1248531,false,false,1718,image-keyboard-response,3
true,15,1,1,0,false,q,false,false,0.0-2.0-0.59-0.535-3.535,0,0,0,90,false,stim,true,1,461.90000009536743,2,0,1,74339,task1,1250514,false,false,1721,image-keyboard-response,4
true,15,1,1,0,false,q,false,false,0.0-2.0-0.59-0.536-3.536,0,0,0,90,false,stim,true,1,392.59999990463257,2,0,1,74339,task1,1252437,false,false,1724,image-keyboard-response,5
true,15,2,1,2,true,d,false,true,0.0-2.0-0.59-0.537-3.537,0,0,0,68,false,stim,false,1,553.0999999046326,2,0,2,74339,task1,1254512,false,false,1727,image-keyboard-response,6
true,15,2,1,0,false,q,true,false,0.0-2.0-0.59-0.538-3.538,0,0,0,68,false,stim,false,1,515.0,2,0,1,74339,task1,1256562,false,false,1730,image-keyboard-response,7
true,15,0,1,1,false,z,false,false,0.0-2.0-0.59-0.539-3.539,0,0,0,81,false,stim,true,0,534.7999999523163,2,0,0,74339,task1,1258632,false,false,1733,image-keyboard-response,8
true,15,2,1,2,true,d,false,true,0.0-2.0-0.60-0.540-3.540,0,0,0,68,false,stim,false,1,554.2000000476837,2,0,2,74339,task1,1260724,false,false,1736,image-keyboard-response,9
true,15,0,1,1,false,z,false,false,0.0-2.0-0.60-0.541-3.541,0,0,0,81,false,stim,true,0,596.4000000953674,2,0,0,74339,task1,1262857,false,false,1739,image-keyboard-response,10
true,15,2,1,1,false,z,true,false,0.0-2.0-0.60-0.542-3.542,0,0,0,68,false,stim,false,0,388.10000014305115,2,0,0,74339,task1,1264768,false,false,1742,image-keyboard-response,11
true,15,2,1,2,true,d,false,true,0.0-2.0-0.60-0.543-3.543,0,0,0,68,false,stim,false,1,594.4000000953674,2,0,2,74339,task1,1266894,false,false,1745,image-keyboard-response,12
true,15,1,1,0,false,q,false,true,0.0-2.0-0.60-0.544-3.544,0,0,0,90,false,stim,true,1,896.5999999046326,2,0,1,74339,task1,1269316,false,true,1748,image-keyboard-response,13
true,15,1,1,0,false,q,false,true,0.0-2.0-0.60-0.545-3.545,0,0,0,90,false,stim,true,1,391.7000000476837,2,0,1,74339,task1,1271232,false,true,1751,image-keyboard-response,14
true,15,1,1,0,false,q,false,false,0.0-2.0-0.60-0.546-3.546,0,0,0,90,false,stim,true,1,472.2000000476837,2,0,1,74339,task1,1273225,false,false,1754,image-keyboard-response,15
true,15,2,1,2,true,d,false,true,0.0-2.0-0.60-0.547-3.547,0,0,0,68,false,stim,false,1,620.7000000476837,2,0,2,74339,task1,1275369,false,false,1757,image-keyboard-response,16
true,15,1,1,1,true,z,false,false,0.0-2.0-0.60-0.548-3.548,0,0,0,90,false,stim,false,0,639.0,2,0,0,74339,task1,1277531,false,true,1760,image-keyboard-response,17
true,15,2,1,0,false,q,true,false,0.0-2.0-0.61-0.549-3.549,0,0,0,68,false,stim,false,1,539.7000000476837,2,0,1,74339,task1,1279612,false,false,1763,image-keyboard-response,18
true,15,1,1,0,false,q,false,false,0.0-2.0-0.61-0.550-3.550,0,0,0,90,false,stim,true,1,368.2000000476837,2,0,1,74339,task1,1281515,false,false,1766,image-keyboard-response,19
true,15,0,1,1,false,z,false,false,0.0-2.0-0.61-0.551-3.551,0,0,0,81,false,stim,true,0,971.0,2,0,0,74339,task1,1284022,false,false,1769,image-keyboard-response,20
true,15,2,1,1,false,z,true,false,0.0-2.0-0.61-0.552-3.552,0,0,0,68,false,stim,false,0,415.40000009536743,2,0,0,74339,task1,1285971,false,false,1772,image-keyboard-response,21
true,15,2,1,2,true,d,false,true,0.0-2.0-0.61-0.553-3.553,0,0,0,68,false,stim,false,1,676.5999999046326,2,0,2,74339,task1,1288167,false,false,1775,image-keyboard-response,22
true,15,2,1,1,false,z,true,false,0.0-2.0-0.61-0.554-3.554,0,0,0,68,false,stim,false,0,864.8999998569489,2,0,0,74339,task1,1290566,false,false,1778,image-keyboard-response,23
true,15,1,1,0,false,q,false,false,0.0-2.0-0.61-0.555-3.555,0,0,0,90,false,stim,true,1,860.4000000953674,2,0,1,74339,task1,1292947,false,false,1781,image-keyboard-response,24
true,15,2,1,2,true,d,false,true,0.0-2.0-0.61-0.556-3.556,0,0,0,68,false,stim,false,1,543.7999999523163,2,0,2,74339,task1,1295012,false,false,1784,image-keyboard-response,25
true,15,2,1,2,true,d,false,true,0.0-2.0-0.61-0.557-3.557,0,0,0,68,false,stim,false,1,2562.699999809265,2,0,2,74339,task1,1299090,false,false,1787,image-keyboard-response,26
true,15,0,1,1,false,z,false,true,0.0-2.0-0.62-0.558-3.558,0,0,0,81,false,stim,true,0,580.0,2,0,0,74339,task1,1301203,false,true,1790,image-keyboard-response,27
true,15,2,1,2,true,d,false,true,0.0-2.0-0.62-0.559-3.559,0,0,0,68,false,stim,false,1,582.8000001907349,2,0,2,74339,task1,1303311,false,false,1793,image-keyboard-response,28
true,15,0,1,1,false,z,false,false,0.0-2.0-0.62-0.560-3.560,0,0,0,81,false,stim,true,0,380.69999980926514,2,0,0,74339,task1,1305234,false,false,1796,image-keyboard-response,29
true,15,0,1,0,true,q,false,true,0.0-2.0-0.62-0.561-3.561,0,0,0,81,false,stim,false,1,753.7000000476837,2,0,1,74339,task1,1307527,false,false,1799,image-keyboard-response,30
true,15,2,1,2,true,d,false,true,0.0-2.0-0.62-0.562-3.562,0,0,0,68,false,stim,false,1,631.5,2,0,2,74339,task1,1309693,false,false,1802,image-keyboard-response,31
true,15,0,1,0,true,q,false,true,0.0-2.0-0.62-0.563-3.563,0,0,0,81,false,stim,false,1,439.89999985694885,2,0,1,74339,task1,1311654,false,false,1805,image-keyboard-response,32
true,15,0,1,0,true,q,false,true,0.0-2.0-0.62-0.564-3.564,0,0,0,81,false,stim,false,1,1963.6000001430511,2,0,1,74339,task1,1315146,false,false,1808,image-keyboard-response,33
true,15,0,1,1,false,z,false,false,0.0-2.0-0.62-0.565-3.565,0,0,0,81,false,stim,true,0,606.3000001907349,2,0,0,74339,task1,1317274,false,false,1811,image-keyboard-response,34
true,15,2,1,2,true,d,false,true,0.0-2.0-0.62-0.566-3.566,0,0,0,68,false,stim,false,1,727.0999999046326,2,0,2,74339,task1,1319516,false,false,1814,image-keyboard-response,35
true,15,0,1,1,false,z,false,false,0.0-2.0-0.63-0.567-3.567,0,0,0,81,false,stim,true,0,387.30000019073486,2,0,0,74339,task1,1321435,false,false,1817,image-keyboard-response,36
true,15,0,1,0,true,q,false,true,0.0-2.0-0.63-0.568-3.568,0,0,0,81,false,stim,false,1,819.8999998569489,2,0,1,74339,task1,1323787,false,false,1820,image-keyboard-response,37
true,15,2,1,2,true,d,false,true,0.0-2.0-0.63-0.569-3.569,0,0,0,68,false,stim,false,1,533.6000001430511,2,0,2,74339,task1,1325858,false,false,1823,image-keyboard-response,38
true,15,2,1,2,true,d,false,true,0.0-2.0-0.63-0.570-3.570,0,0,0,68,false,stim,false,1,457.2000000476837,2,0,2,74339,task1,1327833,false,false,1826,image-keyboard-response,39
true,15,0,1,0,true,q,false,true,0.0-2.0-0.63-0.571-3.571,0,0,0,81,false,stim,false,1,880.3999998569489,2,0,1,74339,task1,1330247,false,false,1829,image-keyboard-response,40
true,16,2,2,1,false,z,false,true,0.0-2.0-0.63-0.572-3.572,0,0,0,68,true,stim,true,2,525.2000000476837,2,0,2,74339,task1,1332296,false,true,1832,image-keyboard-response,1
true,16,1,2,0,false,q,false,false,0.0-2.0-0.63-0.573-3.573,0,0,0,90,false,stim,true,1,870.0999999046326,2,0,0,74339,task1,1334700,false,false,1835,image-keyboard-response,2
true,16,1,2,0,false,q,false,true,0.0-2.0-0.63-0.574-3.574,0,0,0,90,false,stim,true,1,1309.5999999046326,2,0,0,74339,task1,1337545,false,true,1838,image-keyboard-response,3
true,16,0,2,1,false,z,false,false,0.0-2.0-0.63-0.575-3.575,0,0,0,81,false,stim,true,0,764.5999999046326,2,0,1,74339,task1,1339837,false,false,1841,image-keyboard-response,4
true,16,2,2,1,false,z,false,false,0.0-2.0-0.64-0.576-3.576,0,0,0,68,false,stim,true,2,381.7999999523163,2,0,2,74339,task1,1341743,false,false,1844,image-keyboard-response,5
false,16,-1,2,1,false,z,true,false,0.0-2.0-0.64-0.577-3.577,0,0,0,,false,stim,false,2,,2,0,2,74339,task1,1346271,false,false,1847,image-keyboard-response,6
true,16,1,2,0,false,q,false,false,0.0-2.0-0.64-0.578-3.578,0,0,0,90,false,stim,true,1,1322.9000000953674,2,0,0,74339,task1,1349130,false,false,1850,image-keyboard-response,7
true,16,1,2,0,false,q,false,false,0.0-2.0-0.64-0.579-3.579,0,0,0,90,false,stim,true,1,366.39999985694885,2,0,0,74339,task1,1351033,false,false,1853,image-keyboard-response,8
true,16,2,2,1,false,z,true,false,0.0-2.0-0.64-0.580-3.580,0,0,0,68,false,stim,false,0,668.5999999046326,2,0,1,74339,task1,1353240,false,false,1856,image-keyboard-response,9
true,16,0,2,0,true,q,false,true,0.0-2.0-0.64-0.581-3.581,0,0,0,81,false,stim,false,1,915.6999998092651,2,0,0,74339,task1,1355692,false,false,1859,image-keyboard-response,10
true,16,2,2,1,false,z,false,true,0.0-2.0-0.64-0.582-3.582,0,0,0,68,false,stim,true,2,574.3999998569489,2,0,2,74339,task1,1357786,false,true,1862,image-keyboard-response,11
true,16,1,2,1,true,z,false,true,0.0-2.0-0.64-0.583-3.583,0,0,0,90,false,stim,false,0,465.0,2,0,1,74339,task1,1359781,false,false,1865,image-keyboard-response,12
true,16,1,2,1,true,z,false,true,0.0-2.0-0.64-0.584-3.584,0,0,0,90,false,stim,false,0,537.2999999523163,2,0,1,74339,task1,1361841,false,false,1868,image-keyboard-response,13
true,16,2,2,1,false,z,false,false,0.0-2.0-0.65-0.585-3.585,0,0,0,68,false,stim,true,2,686.0,2,0,2,74339,task1,1364060,false,false,1871,image-keyboard-response,14
true,16,0,2,0,true,q,false,true,0.0-2.0-0.65-0.586-3.586,0,0,0,81,false,stim,false,1,1340.0999999046326,2,0,0,74339,task1,1366938,false,false,1874,image-keyboard-response,15
true,16,2,2,1,false,z,true,false,0.0-2.0-0.65-0.587-3.587,0,0,0,68,false,stim,false,0,746.3999998569489,2,0,1,74339,task1,1369213,false,false,1877,image-keyboard-response,16
true,16,0,2,0,true,q,false,true,0.0-2.0-0.65-0.588-3.588,0,0,0,81,false,stim,false,1,553.7000000476837,2,0,0,74339,task1,1371297,false,false,1880,image-keyboard-response,17
true,16,1,2,1,true,z,false,true,0.0-2.0-0.65-0.589-3.589,0,0,0,90,false,stim,false,0,552.2000000476837,2,0,1,74339,task1,1373367,false,false,1883,image-keyboard-response,18
true,16,2,2,1,false,z,false,false,0.0-2.0-0.65-0.590-3.590,0,0,0,68,false,stim,true,2,697.0,2,0,2,74339,task1,1375594,false,false,1886,image-keyboard-response,19
