answered,blockNum,choice,condition,corResp,correct,correct_response,explo,fb,internal_node_id,isStable_1,isStable_2,isStable_3,key_press,newBlock,part,persev,persevResp,rt,sessNum,stableAS,stimulus,subject,task,time_elapsed,training,trap,trial_index,trial_type,trialsInBlock
true,1,1,0,0,false,q,true,true,0.0-2.0-0.0-0.0-3.0,0,0,0,90,true,stim,false,-1,1144.9000000953674,0,0,0,74339,task3,302685,false,true,187,image-keyboard-response,1
false,1,-1,0,0,false,q,false,false,0.0-2.0-0.0-0.1-3.1,0,0,0,,false,stim,true,-1,,0,0,1,74339,task3,307212,false,false,190,image-keyboard-response,2
true,1,2,0,1,false,z,true,false,0.0-2.0-0.0-0.2-3.2,0,0,0,68,false,stim,false,-1,761.0,0,0,2,74339,task3,309494,false,false,193,image-keyboard-response,3
true,1,1,0,0,false,q,true,false,0.0-2.0-0.0-0.3-3.3,0,0,0,90,false,stim,false,-1,629.4000000953674,0,0,0,74339,task3,311642,false,false,196,image-keyboard-response,4
true,1,0,0,1,false,z,true,false,0.0-2.0-0.0-0.4-3.4,0,0,0,81,false,stim,false,-1,728.2000000476837,0,0,2,74339,task3,313894,false,false,199,image-keyboard-response,5
true,1,1,0,1,true,z,false,true,0.0-2.0-0.0-0.5-3.5,0,0,0,90,false,stim,false,-1,587.2999999523163,0,0,2,74339,task3,316017,false,false,202,image-keyboard-response,6
true,1,2,0,0,false,q,true,false,0.0-2.0-0.0-0.6-3.6,0,0,0,68,false,stim,false,-1,809.2000000476837,0,0,1,74339,task3,318355,false,false,205,image-keyboard-response,7
true,1,1,0,0,false,q,true,false,0.0-2.0-0.0-0.7-3.7,0,0,0,90,false,stim,false,-1,691.2999999523163,0,0,1,74339,task3,320599,false,false,208,image-keyboard-response,8
true,1,1,0,0,false,q,true,false,0.0-2.0-0.0-0.8-3.8,0,0,0,90,false,stim,false,-1,615.0,0,0,0,74339,task3,322735,false,false,211,image-keyboard-response,9
true,1,0,0,0,true,q,false,true,0.0-2.0-0.1-0.9-3.9,0,0,0,81,false,stim,false,-1,745.8000001907349,0,0,1,74339,task3,325024,false,false,214,image-keyboard-response,10
true,1,1,0,1,true,z,false,true,0.0-2.0-0.1-0.10-3.10,0,0,0,90,false,stim,false,-1,419.0,0,0,2,74339,task3,326952,false,false,217,image-keyboard-response,11
true,1,1,0,1,true,z,false,true,0.0-2.0-0.1-0.11-3.11,0,0,0,90,false,stim,false,-1,742.3999998569489,0,0,2,74339,task3,329230,false,false,220,image-keyboard-response,12
true,1,0,0,0,true,q,false,true,0.0-2.0-0.1-0.12-3.12,0,0,0,81,false,stim,false,-1,475.10000014305115,0,0,1,74339,task3,331224,false,false,223,image-keyboard-response,13
true,1,2,0,0,false,q,true,false,0.0-2.0-0.1-0.13-3.13,0,0,0,68,false,stim,false,-1,588.7000000476837,0,0,0,74339,task3,333325,false,false,226,image-keyboard-response,14
true,1,1,0,1,true,z,false,true,0.0-2.0-0.1-0.14-3.14,0,0,0,90,false,stim,false,-1,1122.2999999523163,0,0,2,74339,task3,335975,false,false,229,image-keyboard-response,15
true,1,0,0,0,true,q,false,false,0.0-2.0-0.1-0.15-3.15,0,0,0,81,false,stim,false,-1,733.2000000476837,0,0,0,74339,task3,338235,false,true,232,image-keyboard-response,16
true,1,0,0,0,true,q,false,false,0.0-2.0-0.1-0.16-3.16,0,0,0,81,false,stim,false,-1,1009.2000000476837,0,0,1,74339,task3,340764,false,true,235,image-keyboard-response,17
true,1,1,0,0,false,q,true,false,0.0-2.0-0.1-0.17-3.17,0,0,0,90,false,stim,false,-1,973.3999998569489,0,0,0,74339,task3,343257,false,false,238,image-keyboard-response,18
true,1,1,0,0,false,q,true,true,0.0-2.0-0.2-0.18-3.18,0,0,0,90,false,stim,false,-1,617.4000000953674,0,0,1,74339,task3,345396,false,true,241,image-keyboard-response,19
true,1,0,0,1,false,z,true,false,0.0-2.0-0.2-0.19-3.19,0,0,0,81,false,stim,false,-1,1222.7999999523163,0,0,2,74339,task3,348149,false,false,244,image-keyboard-response,20
true,1,1,0,1,true,z,false,true,0.0-2.0-0.2-0.20-3.20,0,0,0,90,false,stim,false,-1,514.2000000476837,0,0,2,74339,task3,350198,false,false,247,image-keyboard-response,21
true,1,1,0,0,false,q,true,false,0.0-2.0-0.2-0.21-3.21,0,0,0,90,false,stim,false,-1,658.8999998569489,0,0,0,74339,task3,352365,false,false,250,image-keyboard-response,22
true,1,2,0,0,false,q,true,false,0.0-2.0-0.2-0.22-3.22,0,0,0,68,false,stim,false,-1,485.2000000476837,0,1,0,74339,task3,354371,false,false,253,image-keyboard-response,23
true,1,1,0,0,false,q,true,false,0.0-2.0-0.2-0.23-3.23,0,0,0,90,false,stim,false,-1,519.7000000476837,0,0,1,74339,task3,356398,false,false,256,image-keyboard-response,24
true,1,0,0,0,true,q,false,true,0.0-2.0-0.2-0.24-3.24,0,0,0,81,false,stim,false,-1,920.4000000953674,0,1,0,74339,task3,358851,false,false,259,image-keyboard-response,25
true,1,1,0,1,true,z,false,false,0.0-2.0-0.2-0.25-3.25,0,0,0,90,false,stim,false,-1,849.4000000953674,0,0,2,74339,task3,361234,false,true,262,image-keyboard-response,26
true,1,1,0,0,false,q,true,false,0.0-2.0-0.2-0.26-3.26,0,0,0,90,false,stim,false,-1,599.7000000476837,0,0,1,74339,task3,363352,false,false,265,image-keyboard-response,27
true,2,0,1,2,false,d,false,false,0.0-2.0-0.3-0.27-3.27,1,0,0,81,true,stim,true,0,540.7000000476837,0,0,1,74339,task3,365427,false,false,268,image-keyboard-response,1
true,2,1,1,2,false,d,true,false,0.0-2.0-0.3-0.28-3.28,1,0,0,90,false,stim,false,0,648.8000001907349,0,0,1,74339,task3,367603,false,false,271,image-keyboard-response,2
true,2,0,1,0,true,q,false,true,0.0-2.0-0.3-0.29-3.29,1,0,0,81,false,stim,false,0,759.4000000953674,0,1,0,74339,task3,369879,false,false,274,image-keyboard-response,3
true,2,2,1,0,false,q,true,false,0.0-2.0-0.3-0.30-3.30,1,0,0,68,false,stim,false,1,626.5,0,0,2,74339,task3,372033,false,false,277,image-keyboard-response,4
true,2,0,1,0,true,q,false,true,0.0-2.0-0.3-0.31-3.31,1,0,0,81,false,stim,false,0,569.2000000476837,0,1,0,74339,task3,374122,false,false,280,image-keyboard-response,5
true,2,0,1,0,true,q,false,true,0.0-2.0-0.3-0.32-3.32,1,0,0,81,false,stim,false,0,496.2999999523163,0,1,0,74339,task3,376152,false,false,283,image-keyboard-response,6
true,2,1,1,0,false,q,false,false,0.0-2.0-0.3-0.33-3.33,1,0,0,90,false,stim,true,1,497.59999990463257,0,0,2,74339,task3,378175,false,false,286,image-keyboard-response,7
true,2,0,1,2,false,d,false,false,0.0-2.0-0.3-0.34-3.34,1,0,0,81,false,stim,true,0,496.2000000476837,0,0,1,74339,task3,380182,false,false,289,image-keyboard-response,8
true,2,0,1,0,true,q,false,true,0.0-2.0-0.3-0.35-3.35,1,0,0,81,false,stim,false,1,896.6000001430511,0,0,2,74339,task3,382589,false,false,292,image-keyboard-response,9
true,2,0,1,0,true,q,false,true,0.0-2.0-0.4-0.36-3.36,1,0,0,81,false,stim,false,1,425.2000000476837,0,0,2,74339,task3,384546,false,false,295,image-keyboard-response,10
true,2,0,1,0,true,q,false,true,0.0-2.0-0.4-0.37-3.37,1,0,0,81,false,stim,false,1,454.90000009536743,0,0,2,74339,task3,386506,false,false,298,image-keyboard-response,11
true,2,0,1,0,true,q,false,true,0.0-2.0-0.4-0.38-3.38,1,0,0,81,false,stim,false,0,489.7000000476837,0,1,0,74339,task3,388535,false,false,301,image-keyboard-response,12
true,2,1,1,2,false,d,true,false,0.0-2.0-0.4-0.39-3.39,1,0,0,90,false,stim,false,0,1007.9000000953674,0,0,1,74339,task3,391055,false,false,304,image-keyboard-response,13
true,2,0,1,2,false,d,false,true,0.0-2.0-0.4-0.40-3.40,1,0,0,81,false,stim,true,0,726.8999998569489,0,0,1,74339,task3,393314,false,true,307,image-keyboard-response,14
true,2,0,1,0,true,q,false,true,0.0-2.0-0.4-0.41-3.41,1,0,0,81,false,stim,false,0,354.7999999523163,0,1,0,74339,task3,395184,false,false,310,image-keyboard-response,15
true,2,0,1,0,true,q,false,true,0.0-2.0-0.4-0.42-3.42,1,0,0,81,false,stim,false,1,398.30000019073486,0,0,2,74339,task3,397110,false,false,313,image-keyboard-response,16
true,2,0,1,0,true,q,false,true,0.0-2.0-0.4-0.43-3.43,1,0,0,81,false,stim,false,0,430.2000000476837,0,1,0,74339,task3,399070,false,false,316,image-keyboard-response,17
true,2,0,1,2,false,d,false,false,0.0-2.0-0.4-0.44-3.44,1,0,0,81,false,stim,true,0,56.39999985694885,0,0,1,74339,task3,400655,false,false,319,image-keyboard-response,18
true,2,0,1,0,true,q,false,true,0.0-2.0-0.5-0.45-3.45,1,0,0,81,false,stim,false,0,600.2000000476837,0,1,0,74339,task3,402782,false,false,322,image-keyboard-response,19
true,2,0,1,0,true,q,false,true,0.0-2.0-0.5-0.46-3.46,1,0,0,81,false,stim,false,1,595.5,0,0,2,74339,task3,404895,false,false,325,image-keyboard-response,20
true,2,0,1,0,true,q,false,true,0.0-2.0-0.5-0.47-3.47,1,0,0,81,false,stim,false,1,651.5,0,0,2,74339,task3,407066,false,false,328,image-keyboard-response,21
true,2,0,1,0,true,q,false,true,0.0-2.0-0.5-0.48-3.48,1,0,0,81,false,stim,false,0,467.2000000476837,0,1,0,74339,task3,409046,false,false,331,image-keyboard-response,22
true,2,0,1,0,true,q,false,true,0.0-2.0-0.5-0.49-3.49,1,0,0,81,false,stim,false,1,517.5999999046326,0,0,2,74339,task3,411088,false,false,334,image-keyboard-response,23
true,2,0,1,2,false,d,false,true,0.0-2.0-0.5-0.50-3.50,1,0,0,81,false,stim,true,0,336.5,0,0,1,74339,task3,412947,false,true,337,image-keyboard-response,24
true,2,0,1,2,false,d,false,false,0.0-2.0-0.5-0.51-3.51,1,0,0,81,false,stim,true,0,436.5,0,0,1,74339,task3,414911,false,false,340,image-keyboard-response,25
true,2,1,1,0,false,q,true,false,0.0-2.0-0.5-0.52-3.52,1,0,0,90,false,stim,false,0,589.7999999523163,0,1,0,74339,task3,417024,false,false,343,image-keyboard-response,26
true,2,0,1,2,false,d,false,false,0.0-2.0-0.5-0.53-3.53,1,0,0,81,false,stim,true,0,330.09999990463257,0,1,1,74339,task3,418882,false,false,346,image-keyboard-response,27
true,2,0,1,0,true,q,false,true,0.0-2.0-0.6-0.54-3.54,1,0,0,81,false,stim,false,0,554.2000000476837,0,1,0,74339,task3,420956,false,false,349,image-keyboard-response,28
true,2,0,1,0,true,q,false,true,0.0-2.0-0.6-0.55-3.55,1,0,0,81,false,stim,false,0,344.60000014305115,0,1,0,74339,task3,422821,false,false,352,image-keyboard-response,29
true,2,0,1,0,true,q,false,true,0.0-2.0-0.6-0.56-3.56,1,0,0,81,false,stim,false,0,277.7000000476837,0,1,0,74339,task3,424633,false,false,355,image-keyboard-response,30
true,3,1,2,1,true,z,false,true,0.0-2.0-0.6-0.57-3.57,1,1,0,90,true,stim,false,0,543.7000000476837,0,0,2,74339,task3,426748,false,false,358,image-keyboard-response,1
true,3,0,2,2,false,d,true,false,0.0-2.0-0.6-0.58-3.58,1,1,0,81,false,stim,false,2,622.4000000953674,0,1,1,74339,task3,428882,false,false,361,image-keyboard-response,2
true,3,1,2,1,true,z,false,false,0.0-2.0-0.6-0.59-3.59,1,1,0,90,false,stim,false,0,691.8999998569489,0,0,2,74339,task3,431085,false,true,364,image-keyboard-response,3
true,3,0,2,2,false,d,true,false,0.0-2.0-0.6-0.60-3.60,1,1,0,81,false,stim,false,2,647.0,0,1,1,74339,task3,433264,false,false,367,image-keyboard-response,4
true,3,2,2,1,false,z,true,false,0.0-2.0-0.6-0.61-3.61,1,1,0,68,false,stim,false,0,726.8999998569489,0,0,2,74339,task3,435522,false,false,370,image-keyboard-response,5
true,3,1,2,2,false,d,true,false,0.0-2.0-0.6-0.62-3.62,1,1,0,90,false,stim,false,2,760.4000000953674,0,1,1,74339,task3,437799,false,false,373,image-keyboard-response,6
true,3,0,2,0,true,q,false,true,0.0-2.0-0.7-0.63-3.63,1,1,0,81,false,stim,false,0,592.7999999523163,0,1,0,74339,task3,439908,false,false,376,image-keyboard-response,7
true,3,0,2,0,true,q,false,true,0.0-2.0-0.7-0.64-3.64,1,1,0,81,false,stim,false,0,344.5,0,0,0,74339,task3,441772,false,false,379,image-keyboard-response,8
true,3,2,2,1,false,z,true,false,0.0-2.0-0.7-0.65-3.65,1,1,0,68,false,stim,false,0,683.0999999046326,0,1,2,74339,task3,443977,false,false,382,image-keyboard-response,9
true,3,1,2,1,true,z,false,true,0.0-2.0-0.7-0.66-3.66,1,1,0,90,false,stim,false,0,672.2999999523163,0,1,2,74339,task3,446177,false,false,385,image-keyboard-response,10
true,3,1,2,1,true,z,false,true,0.0-2.0-0.7-0.67-3.67,1,1,0,90,false,stim,false,0,488.7999999523163,0,1,2,74339,task3,448187,false,false,388,image-keyboard-response,11
true,3,0,2,2,false,d,true,false,0.0-2.0-0.7-0.68-3.68,1,1,0,81,false,stim,false,2,567.9000000953674,0,0,1,74339,task3,450276,false,false,391,image-keyboard-response,12
true,4,0,1,2,false,d,false,false,0.0-2.0-0.7-0.69-3.69,0,0,1,81,true,stim,true,0,494.80000019073486,0,0,0,74339,task3,452301,false,false,394,image-keyboard-response,1
true,4,1,1,1,true,z,false,true,0.0-2.0-0.7-0.70-3.70,0,0,1,90,false,stim,false,2,534.5,0,0,1,74339,task3,454363,false,false,397,image-keyboard-response,2
true,4,1,1,1,true,z,false,true,0.0-2.0-0.7-0.71-3.71,0,0,1,90,false,stim,false,2,418.7000000476837,0,0,1,74339,task3,456317,false,false,400,image-keyboard-response,3
true,4,1,1,2,false,d,true,false,0.0-2.0-0.8-0.72-3.72,0,0,1,90,false,stim,false,0,414.30000019073486,0,0,0,74339,task3,458257,false,false,403,image-keyboard-response,4
true,4,2,1,1,false,z,true,false,0.0-2.0-0.8-0.73-3.73,0,0,1,68,false,stim,false,1,1062.5,0,1,2,74339,task3,460850,false,false,406,image-keyboard-response,5
true,4,1,1,2,false,d,true,false,0.0-2.0-0.8-0.74-3.74,0,0,1,90,false,stim,false,0,800.3999998569489,0,0,0,74339,task3,463175,false,false,409,image-keyboard-response,6
true,4,1,1,1,true,z,false,false,0.0-2.0-0.8-0.75-3.75,0,0,1,90,false,stim,false,2,571.0999999046326,0,0,1,74339,task3,465279,false,true,412,image-keyboard-response,7
true,4,2,1,1,false,z,true,false,0.0-2.0-0.8-0.76-3.76,0,0,1,68,false,stim,false,1,432.40000009536743,0,1,2,74339,task3,467242,false,false,415,image-keyboard-response,8
true,4,0,1,1,false,z,true,false,0.0-2.0-0.8-0.77-3.77,0,0,1,81,false,stim,false,2,382.5,0,0,1,74339,task3,469153,false,false,418,image-keyboard-response,9
true,4,1,1,1,true,z,false,false,0.0-2.0-0.8-0.78-3.78,0,0,1,90,false,stim,false,1,486.7999999523163,0,1,2,74339,task3,471156,false,true,421,image-keyboard-response,10
true,4,1,1,2,false,d,true,true,0.0-2.0-0.8-0.79-3.79,0,0,1,90,false,stim,false,0,687.8000001907349,0,0,0,74339,task3,473378,false,true,424,image-keyboard-response,11
true,4,1,1,1,true,z,false,true,0.0-2.0-0.8-0.80-3.80,0,0,1,90,false,stim,false,2,379.90000009536743,0,0,1,74339,task3,475265,false,false,427,image-keyboard-response,12
true,4,1,1,1,true,z,false,true,0.0-2.0-0.9-0.81-3.81,0,0,1,90,false,stim,false,2,306.80000019073486,0,0,1,74339,task3,477090,false,false,430,image-keyboard-response,13
true,4,1,1,2,false,d,true,false,0.0-2.0-0.9-0.82-3.82,0,0,1,90,false,stim,false,0,335.7000000476837,0,0,0,74339,task3,478937,false,false,433,image-keyboard-response,14
true,4,2,1,1,false,z,true,true,0.0-2.0-0.9-0.83-3.83,0,0,1,68,false,stim,false,1,581.3999998569489,0,1,2,74339,task3,481033,false,true,436,image-keyboard-response,15
true,4,1,1,2,false,d,true,false,0.0-2.0-0.9-0.84-3.84,0,0,1,90,false,stim,false,0,601.3999998569489,0,0,0,74339,task3,483154,false,false,439,image-keyboard-response,16
true,4,1,1,1,true,z,false,true,0.0-2.0-0.9-0.85-3.85,0,0,1,90,false,stim,false,2,358.5,0,0,1,74339,task3,485028,false,false,442,image-keyboard-response,17
true,4,2,1,1,false,z,true,false,0.0-2.0-0.9-0.86-3.86,0,0,1,68,false,stim,false,1,369.60000014305115,0,1,2,74339,task3,486918,false,false,445,image-keyboard-response,18
true,4,1,1,2,false,d,true,false,0.0-2.0-0.9-0.87-3.87,0,0,1,90,false,stim,false,0,416.60000014305115,0,0,0,74339,task3,488864,false,false,448,image-keyboard-response,19
true,4,1,1,1,true,z,false,true,0.0-2.0-0.9-0.88-3.88,0,0,1,90,false,stim,false,2,787.9000000953674,0,0,1,74339,task3,491178,false,false,451,image-keyboard-response,20
true,4,0,1,1,false,z,true,false,0.0-2.0-0.9-0.89-3.89,0,0,1,81,false,stim,false,1,471.80000019073486,0,0,2,74339,task3,493166,false,false,454,image-keyboard-response,21
true,4,1,1,1,true,z,false,true,0.0-2.0-0.10-0.90-3.90,0,0,1,90,false,stim,false,2,730.9000000953674,0,1,1,74339,task3,495418,false,false,457,image-keyboard-response,22
true,4,2,1,1,false,z,true,false,0.0-2.0-0.10-0.91-3.91,0,0,1,68,false,stim,false,1,1005.2999999523163,0,0,2,74339,task3,497934,false,false,460,image-keyboard-response,23
true,4,1,1,2,false,d,true,false,0.0-2.0-0.10-0.92-3.92,0,0,1,90,false,stim,false,0,553.7000000476837,0,0,0,74339,task3,500021,false,false,463,image-keyboard-response,24
true,4,1,1,1,true,z,false,true,0.0-2.0-0.10-0.93-3.93,0,0,1,90,false,stim,false,1,1295.0999999046326,0,0,2,74339,task3,502848,false,false,466,image-keyboard-response,25
true,5,1,1,1,true,z,false,true,0.0-2.0-0.10-0.94-3.94,0,1,0,90,true,stim,false,2,350.09999990463257,0,0,0,74339,task3,504725,false,false,469,image-keyboard-response,1
true,5,1,1,0,false,q,false,false,0.0-2.0-0.10-0.95-3.95,0,1,0,90,false,stim,true,1,345.2000000476837,0,0,2,74339,task3,506602,false,false,472,image-keyboard-response,2
true,5,1,1,1,true,z,false,true,0.0-2.0-0.10-0.96-3.96,0,1,0,90,false,stim,false,2,370.90000009536743,0,0,0,74339,task3,508492,false,false,475,image-keyboard-response,3
true,5,1,1,1,true,z,false,true,0.0-2.0-0.10-0.97-3.97,0,1,0,90,false,stim,false,1,385.89999985694885,0,1,1,74339,task3,510405,false,false,478,image-keyboard-response,4
true,5,1,1,1,true,z,false,true,0.0-2.0-0.10-0.98-3.98,0,1,0,90,false,stim,false,1,471.2999999523163,0,1,1,74339,task3,512387,false,false,481,image-keyboard-response,5
true,5,1,1,0,false,q,false,true,0.0-2.0-0.11-0.99-3.99,0,1,0,90,false,stim,true,1,407.19999980926514,0,0,2,74339,task3,514329,false,true,484,image-keyboard-response,6
true,5,1,1,1,true,z,false,true,0.0-2.0-0.11-0.100-3.100,0,1,0,90,false,stim,false,1,245.89999985694885,0,1,1,74339,task3,516097,false,false,487,image-keyboard-response,7
true,5,1,1,1,true,z,false,false,0.0-2.0-0.11-0.101-3.101,0,1,0,90,false,stim,false,1,288.59999990463257,0,1,1,74339,task3,517912,false,true,490,image-keyboard-response,8
true,5,1,1,1,true,z,false,true,0.0-2.0-0.11-0.102-3.102,0,1,0,90,false,stim,false,2,314.2999999523163,0,1,0,74339,task3,519743,false,false,493,image-keyboard-response,9
true,5,1,1,1,true,z,false,true,0.0-2.0-0.11-0.103-3.103,0,1,0,90,false,stim,false,2,333.5,0,1,0,74339,task3,521610,false,false,496,image-keyboard-response,10
true,5,1,1,1,true,z,false,true,0.0-2.0-0.11-0.104-3.104,0,1,0,90,false,stim,false,2,94.59999990463257,0,1,0,74339,task3,523223,false,false,499,image-keyboard-response,11
true,5,1,1,1,true,z,false,true,0.0-2.0-0.11-0.105-3.105,0,1,0,90,false,stim,false,1,332.19999980926514,0,0,1,74339,task3,525085,false,false,502,image-keyboard-response,12
true,5,1,1,0,false,q,false,false,0.0-2.0-0.11-0.106-3.106,0,1,0,90,false,stim,true,1,451.2999999523163,0,1,2,74339,task3,527058,false,false,505,image-keyboard-response,13
true,6,1,2,0,false,q,true,false,0.0-2.0-0.11-0.107-3.107,1,0,1,90,true,stim,false,0,347.7999999523163,0,1,2,74339,task3,528923,false,false,508,image-keyboard-response,1
true,6,1,2,0,false,q,false,false,0.0-2.0-0.12-0.108-3.108,1,0,1,90,false,stim,true,1,565.5,0,0,1,74339,task3,531012,false,false,511,image-keyboard-response,2
true,6,2,2,1,false,z,true,false,0.0-2.0-0.12-0.109-3.109,1,0,1,68,false,stim,false,1,1389.4000000953674,0,1,0,74339,task3,533907,false,false,514,image-keyboard-response,3
true,6,1,2,0,false,q,false,false,0.0-2.0-0.12-0.110-3.110,1,0,1,90,false,stim,true,1,465.0,0,0,1,74339,task3,535899,false,false,517,image-keyboard-response,4
true,6,2,2,0,false,q,true,false,0.0-2.0-0.12-0.111-3.111,1,0,1,68,false,stim,false,1,327.2999999523163,0,0,1,74339,task3,537736,false,false,520,image-keyboard-response,5
true,6,0,2,1,false,z,true,false,0.0-2.0-0.12-0.112-3.112,1,0,1,81,false,stim,false,1,532.4000000953674,0,1,0,74339,task3,539777,false,false,523,image-keyboard-response,6
true,6,1,2,0,false,q,true,false,0.0-2.0-0.12-0.113-3.113,1,0,1,90,false,stim,false,0,404.7999999523163,0,1,2,74339,task3,541703,false,false,526,image-keyboard-response,7
true,6,1,2,0,false,q,true,false,0.0-2.0-0.12-0.114-3.114,1,0,1,90,false,stim,false,0,570.5,0,1,2,74339,task3,543797,false,false,529,image-keyboard-response,8
true,6,2,2,0,false,q,true,false,0.0-2.0-0.12-0.115-3.115,1,0,1,68,false,stim,false,0,340.5,0,1,2,74339,task3,545652,false,false,532,image-keyboard-response,9
true,6,0,2,1,false,z,true,false,0.0-2.0-0.12-0.116-3.116,1,0,1,81,false,stim,false,1,459.30000019073486,0,1,0,74339,task3,547621,false,false,535,image-keyboard-response,10
true,6,0,2,0,true,q,false,true,0.0-2.0-0.13-0.117-3.117,1,0,1,81,false,stim,false,1,652.0,0,1,1,74339,task3,549793,false,false,538,image-keyboard-response,11
true,6,0,2,0,true,q,false,true,0.0-2.0-0.13-0.118-3.118,1,0,1,81,false,stim,false,1,382.2999999523163,0,1,1,74339,task3,551682,false,false,541,image-keyboard-response,12
true,6,0,2,0,true,q,false,true,0.0-2.0-0.13-0.119-3.119,1,0,1,81,false,stim,false,0,730.2999999523163,0,0,2,74339,task3,553942,false,false,544,image-keyboard-response,13
true,6,0,2,1,false,z,true,false,0.0-2.0-0.13-0.120-3.120,1,0,1,81,false,stim,false,1,415.5,0,1,0,74339,task3,555870,false,false,547,image-keyboard-response,14
true,6,1,2,1,true,z,false,true,0.0-2.0-0.13-0.121-3.121,1,0,1,90,false,stim,false,1,414.7000000476837,0,1,0,74339,task3,557812,false,false,550,image-keyboard-response,15
true,7,0,2,0,true,q,false,true,0.0-2.0-0.13-0.122-3.122,1,1,0,81,true,stim,false,0,532.8999998569489,0,1,1,74339,task3,559875,false,false,553,image-keyboard-response,1
true,7,1,2,1,true,z,false,true,0.0-2.0-0.13-0.123-3.123,1,1,0,90,false,stim,false,1,768.2000000476837,0,1,0,74339,task3,562149,false,false,556,image-keyboard-response,2
true,7,0,2,1,false,z,false,false,0.0-2.0-0.13-0.124-3.124,1,1,0,81,false,stim,true,0,565.0,0,0,2,74339,task3,564234,false,false,559,image-keyboard-response,3
true,7,0,2,1,false,z,false,false,0.0-2.0-0.13-0.125-3.125,1,1,0,81,false,stim,true,0,531.3999998569489,0,0,2,74339,task3,566286,false,false,562,image-keyboard-response,4
true,7,0,2,0,true,q,false,false,0.0-2.0-0.14-0.126-3.126,1,1,0,81,false,stim,false,0,539.3999998569489,0,1,1,74339,task3,568348,false,true,565,image-keyboard-response,5
true,7,1,2,1,true,z,false,true,0.0-2.0-0.14-0.127-3.127,1,1,0,90,false,stim,false,0,323.40000009536743,0,0,2,74339,task3,570202,false,false,568,image-keyboard-response,6
true,7,1,2,1,true,z,false,true,0.0-2.0-0.14-0.128-3.128,1,1,0,90,false,stim,false,1,337.09999990463257,0,1,0,74339,task3,572064,false,false,571,image-keyboard-response,7
true,7,1,2,1,true,z,false,true,0.0-2.0-0.14-0.129-3.129,1,1,0,90,false,stim,false,1,303.39999985694885,0,1,0,74339,task3,573897,false,false,574,image-keyboard-response,8
true,7,1,2,1,true,z,false,true,0.0-2.0-0.14-0.130-3.130,1,1,0,90,false,stim,false,0,347.30000019073486,0,0,2,74339,task3,575774,false,false,577,image-keyboard-response,9
true,7,1,2,1,true,z,false,true,0.0-2.0-0.14-0.131-3.131,1,1,0,90,false,stim,false,1,253.0,0,1,0,74339,task3,577557,false,false,580,image-keyboard-response,10
true,7,1,2,0,false,q,true,false,0.0-2.0-0.14-0.132-3.132,1,1,0,90,false,stim,false,0,276.60000014305115,0,1,1,74339,task3,579357,false,false,583,image-keyboard-response,11
true,7,1,2,0,false,q,true,false,0.0-2.0-0.14-0.133-3.133,1,1,0,90,false,stim,false,0,452.2000000476837,0,1,1,74339,task3,581321,false,false,586,image-keyboard-response,12
true,7,1,2,1,true,z,false,true,0.0-2.0-0.14-0.134-3.134,1,1,0,90,false,stim,false,0,536.8999998569489,0,0,2,74339,task3,583365,false,false,589,image-keyboard-response,13
true,7,2,2,0,false,q,true,true,0.0-2.0-0.15-0.135-3.135,1,1,0,68,false,stim,false,0,435.5,0,1,1,74339,task3,585333,false,true,592,image-keyboard-response,14
true,7,2,2,0,false,q,true,false,0.0-2.0-0.15-0.136-3.136,1,1,0,68,false,stim,false,0,534.0999999046326,0,1,1,74339,task3,587392,false,false,595,image-keyboard-response,15
true,7,1,2,1,true,z,false,true,0.0-2.0-0.15-0.137-3.137,1,1,0,90,false,stim,false,0,471.5,0,0,2,74339,task3,589371,false,false,598,image-keyboard-response,16
true,7,1,2,1,true,z,false,true,0.0-2.0-0.15-0.138-3.138,1,1,0,90,false,stim,false,0,331.09999990463257,0,0,2,74339,task3,591219,false,false,601,image-keyboard-response,17
true,7,1,2,1,true,z,false,true,0.0-2.0-0.15-0.139-3.139,1,1,0,90,false,stim,false,0,477.5,0,0,2,74339,task3,593216,false,false,604,image-keyboard-response,18
true,7,1,2,0,false,q,true,false,0.0-2.0-0.15-0.140-3.140,1,1,0,90,false,stim,false,0,297.30000019073486,0,1,1,74339,task3,595042,false,false,607,image-keyboard-response,19
true,7,1,2,1,true,z,false,true,0.0-2.0-0.15-0.141-3.141,1,1,0,90,false,stim,false,1,391.5,0,1,0,74339,task3,596954,false,false,610,image-keyboard-response,20
true,7,1,2,1,true,z,false,true,0.0-2.0-0.15-0.142-3.142,1,1,0,90,false,stim,false,1,444.2999999523163,0,1,0,74339,task3,598920,false,false,613,image-keyboard-response,21
true,7,1,2,1,true,z,false,true,0.0-2.0-0.15-0.143-3.143,1,1,0,90,false,stim,false,1,344.7000000476837,0,1,0,74339,task3,600780,false,false,616,image-keyboard-response,22
true,7,1,2,1,true,z,false,true,0.0-2.0-0.16-0.144-3.144,1,1,0,90,false,stim,false,1,380.10000014305115,0,1,0,74339,task3,602666,false,false,619,image-keyboard-response,23
true,7,2,2,0,false,q,true,false,0.0-2.0-0.16-0.145-3.145,1,1,0,68,false,stim,false,0,672.5,0,1,1,74339,task3,604869,false,false,622,image-keyboard-response,24
true,7,1,2,0,false,q,true,false,0.0-2.0-0.16-0.146-3.146,1,1,0,90,false,stim,false,0,830.0999999046326,0,1,1,74339,task3,607209,false,false,625,image-keyboard-response,25
true,8,0,2,0,true,q,false,true,0.0-2.0-0.16-0.147-3.147,1,1,0,81,true,stim,false,0,378.60000014305115,0,1,1,74339,task3,609122,false,false,628,image-keyboard-response,1
true,8,1,2,2,false,d,false,false,0.0-2.0-0.16-0.148-3.148,1,1,0,90,false,stim,true,1,721.0999999046326,0,0,2,74339,task3,611378,false,false,631,image-keyboard-response,2
true,8,1,2,2,false,d,false,false,0.0-2.0-0.16-0.149-3.149,1,1,0,90,false,stim,true,1,379.0,0,0,2,74339,task3,613277,false,false,634,image-keyboard-response,3
true,8,2,2,2,true,d,false,true,0.0-2.0-0.16-0.150-3.150,1,1,0,68,false,stim,false,1,264.2999999523163,0,0,2,74339,task3,615059,false,false,637,image-keyboard-response,4
true,8,1,2,1,true,z,false,true,0.0-2.0-0.16-0.151-3.151,1,1,0,90,false,stim,false,1,669.3999998569489,0,1,0,74339,task3,617251,false,false,640,image-keyboard-response,5
true,8,1,2,1,true,z,false,true,0.0-2.0-0.16-0.152-3.152,1,1,0,90,false,stim,false,1,540.1000001430511,0,1,0,74339,task3,619318,false,false,643,image-keyboard-response,6
true,8,1,2,1,true,z,false,true,0.0-2.0-0.17-0.153-3.153,1,1,0,90,false,stim,false,1,312.2000000476837,0,1,0,74339,task3,621143,false,false,646,image-keyboard-response,7
true,8,1,2,1,true,z,false,true,0.0-2.0-0.17-0.154-3.154,1,1,0,90,false,stim,false,1,321.40000009536743,0,1,0,74339,task3,622985,false,false,649,image-keyboard-response,8
true,8,2,2,0,false,q,true,false,0.0-2.0-0.17-0.155-3.155,1,1,0,68,false,stim,false,0,658.7999999523163,0,0,1,74339,task3,625158,false,false,652,image-keyboard-response,9
true,8,0,2,0,true,q,false,true,0.0-2.0-0.17-0.156-3.156,1,1,0,81,false,stim,false,0,405.2000000476837,0,0,1,74339,task3,627069,false,false,655,image-keyboard-response,10
true,8,2,2,2,true,d,false,false,0.0-2.0-0.17-0.157-3.157,1,1,0,68,false,stim,false,1,539.6000001430511,0,1,2,74339,task3,629116,false,true,658,image-keyboard-response,11
true,8,1,2,1,true,z,false,true,0.0-2.0-0.17-0.158-3.158,1,1,0,90,false,stim,false,1,424.89999985694885,0,1,0,74339,task3,631069,false,false,661,image-keyboard-response,12
true,9,1,2,2,false,d,true,false,0.0-2.0-0.17-0.159-3.159,1,0,1,90,true,stim,false,2,435.2000000476837,0,1,2,74339,task3,633009,false,false,664,image-keyboard-response,1
true,9,0,2,2,false,d,false,false,0.0-2.0-0.17-0.160-3.160,1,0,1,81,false,stim,true,0,604.2000000476837,0,0,1,74339,task3,635123,false,false,667,image-keyboard-response,2
true,9,0,2,2,false,d,true,false,0.0-2.0-0.17-0.161-3.161,1,0,1,81,false,stim,false,2,507.5,0,1,2,74339,task3,637157,false,false,670,image-keyboard-response,3
true,9,1,2,2,false,d,true,false,0.0-2.0-0.18-0.162-3.162,1,0,1,90,false,stim,false,0,795.4000000953674,0,0,1,74339,task3,639470,false,false,673,image-keyboard-response,4
true,9,2,2,2,true,d,false,true,0.0-2.0-0.18-0.163-3.163,1,0,1,68,false,stim,false,0,380.0,0,0,1,74339,task3,641358,false,false,676,image-keyboard-response,5
true,9,1,2,1,true,z,false,true,0.0-2.0-0.18-0.164-3.164,1,0,1,90,false,stim,false,1,471.5,0,1,0,74339,task3,643345,false,false,679,image-keyboard-response,6
true,9,2,2,2,true,d,false,true,0.0-2.0-0.18-0.165-3.165,1,0,1,68,false,stim,false,2,608.5,0,1,2,74339,task3,645473,false,false,682,image-keyboard-response,7
true,9,2,2,2,true,d,false,true,0.0-2.0-0.18-0.166-3.166,1,0,1,68,false,stim,false,2,420.39999985694885,0,1,2,74339,task3,647417,false,false,685,image-keyboard-response,8
true,9,1,2,1,true,z,false,true,0.0-2.0-0.18-0.167-3.167,1,0,1,90,false,stim,false,1,493.10000014305115,0,1,0,74339,task3,649435,false,false,688,image-keyboard-response,9
true,9,2,2,2,true,d,false,true,0.0-2.0-0.18-0.168-3.168,1,0,1,68,false,stim,false,2,395.39999985694885,0,0,2,74339,task3,651359,false,false,691,image-keyboard-response,10
true,9,1,2,1,true,z,false,true,0.0-2.0-0.18-0.169-3.169,1,0,1,90,false,stim,false,1,716.0999999046326,0,0,0,74339,task3,653609,false,false,694,image-keyboard-response,11
true,9,2,2,2,true,d,false,true,0.0-2.0-0.18-0.170-3.170,1,0,1,68,false,stim,false,0,641.5999999046326,0,1,1,74339,task3,655763,false,false,697,image-keyboard-response,12
true,9,2,2,2,true,d,false,true,0.0-2.0-0.19-0.171-3.171,1,0,1,68,false,stim,false,2,511.09999990463257,0,0,2,74339,task3,657794,false,false,700,image-keyboard-response,13
true,9,2,2,2,true,d,false,true,0.0-2.0-0.19-0.172-3.172,1,0,1,68,false,stim,false,0,457.19999980926514,0,1,1,74339,task3,659761,false,false,703,image-keyboard-response,14
true,10,2,1,0,false,q,false,false,0.0-2.0-0.19-0.173-3.173,0,1,0,68,true,stim,true,2,388.2999999523163,0,0,2,74339,task3,661668,false,false,706,image-keyboard-response,1
true,10,1,1,2,false,d,false,false,0.0-2.0-0.19-0.174-3.174,0,1,0,90,false,stim,true,1,489.39999985694885,0,0,0,74339,task3,663679,false,false,709,image-keyboard-response,2
true,10,0,1,2,false,d,true,false,0.0-2.0-0.19-0.175-3.175,0,1,0,81,false,stim,false,2,866.2000000476837,0,1,1,74339,task3,666068,false,false,712,image-keyboard-response,3
true,10,0,1,2,false,d,true,false,0.0-2.0-0.19-0.176-3.176,0,1,0,81,false,stim,false,1,948.9000000953674,0,0,0,74339,task3,668529,false,false,715,image-keyboard-response,4
true,10,2,1,0,false,q,false,false,0.0-2.0-0.19-0.177-3.177,0,1,0,68,false,stim,true,2,684.5999999046326,0,0,2,74339,task3,670726,false,false,718,image-keyboard-response,5
true,10,2,1,2,true,d,false,true,0.0-2.0-0.19-0.178-3.178,0,1,0,68,false,stim,false,1,709.5,0,0,0,74339,task3,672946,false,false,721,image-keyboard-response,6
true,10,2,1,2,true,d,false,true,0.0-2.0-0.19-0.179-3.179,0,1,0,68,false,stim,false,2,667.0,0,1,1,74339,task3,675136,false,false,724,image-keyboard-response,7
true,10,2,1,2,true,d,false,true,0.0-2.0-0.20-0.180-3.180,0,1,0,68,false,stim,false,1,479.90000009536743,0,0,0,74339,task3,677137,false,false,727,image-keyboard-response,8
true,10,2,1,2,true,d,false,true,0.0-2.0-0.20-0.181-3.181,0,1,0,68,false,stim,false,1,331.7999999523163,0,0,0,74339,task3,678981,false,false,730,image-keyboard-response,9
true,10,2,1,2,true,d,false,true,0.0-2.0-0.20-0.182-3.182,0,1,0,68,false,stim,false,2,474.0,0,1,1,74339,task3,680972,false,false,733,image-keyboard-response,10
true,10,2,1,0,false,q,false,true,0.0-2.0-0.20-0.183-3.183,0,1,0,68,false,stim,true,2,361.7999999523163,0,0,2,74339,task3,682866,false,true,736,image-keyboard-response,11
true,10,2,1,0,false,q,false,false,0.0-2.0-0.20-0.184-3.184,0,1,0,68,false,stim,true,2,367.19999980926514,0,0,2,74339,task3,684739,false,false,739,image-keyboard-response,12
true,10,2,1,2,true,d,false,true,0.0-2.0-0.20-0.185-3.185,0,1,0,68,false,stim,false,1,586.6999998092651,0,0,0,74339,task3,686854,false,false,742,image-keyboard-response,13
true,10,1,1,0,false,q,true,false,0.0-2.0-0.20-0.186-3.186,0,1,0,90,false,stim,false,2,659.5,0,0,2,74339,task3,689044,false,false,745,image-keyboard-response,14
true,10,2,1,2,true,d,false,true,0.0-2.0-0.20-0.187-3.187,0,1,0,68,false,stim,false,2,427.89999985694885,0,1,1,74339,task3,690991,false,false,748,image-keyboard-response,15
true,10,2,1,2,true,d,false,true,0.0-2.0-0.20-0.188-3.188,0,1,0,68,false,stim,false,2,344.19999980926514,0,1,1,74339,task3,692867,false,false,751,image-keyboard-response,16
true,10,2,1,0,false,q,false,false,0.0-2.0-0.21-0.189-3.189,0,1,0,68,false,stim,true,2,518.7999999523163,0,0,2,74339,task3,694908,false,false,754,image-keyboard-response,17
true,10,2,1,2,true,d,false,false,0.0-2.0-0.21-0.190-3.190,0,1,0,68,false,stim,false,1,627.2000000476837,0,0,0,74339,task3,697055,false,true,757,image-keyboard-response,18
true,10,1,1,2,false,d,false,false,0.0-2.0-0.21-0.191-3.191,0,1,0,90,false,stim,true,1,585.2999999523163,0,0,0,74339,task3,699162,false,false,760,image-keyboard-response,19
true,10,0,1,2,false,d,true,false,0.0-2.0-0.21-0.192-3.192,0,1,0,81,false,stim,false,2,529.7999999523163,0,0,1,74339,task3,701207,false,false,763,image-keyboard-response,20
true,10,2,1,2,true,d,false,true,0.0-2.0-0.21-0.193-3.193,0,1,0,68,false,stim,false,2,351.40000009536743,0,0,1,74339,task3,703065,false,false,766,image-keyboard-response,21
true,10,0,1,0,true,q,false,true,0.0-2.0-0.21-0.194-3.194,0,1,0,81,false,stim,false,2,870.4000000953674,0,0,2,74339,task3,705467,false,false,769,image-keyboard-response,22
true,10,2,1,2,true,d,false,true,0.0-2.0-0.21-0.195-3.195,0,1,0,68,false,stim,false,2,513.5999999046326,0,0,1,74339,task3,707493,false,false,772,image-keyboard-response,23
true,10,0,1,0,true,q,false,true,0.0-2.0-0.21-0.196-3.196,0,1,0,81,false,stim,false,2,665.5999999046326,0,0,2,74339,task3,709682,false,false,775,image-keyboard-response,24
true,11,2,1,2,true,d,false,true,0.0-2.0-0.21-0.197-3.197,1,0,0,68,true,stim,false,2,555.2000000476837,0,1,0,74339,task3,711767,false,false,778,image-keyboard-response,1
true,11,0,1,2,false,d,false,true,0.0-2.0-0.22-0.198-3.198,1,0,0,81,false,stim,true,0,787.0,0,0,2,74339,task3,714084,false,true,781,image-keyboard-response,2
true,11,0,1,2,false,d,false,false,0.0-2.0-0.22-0.199-3.199,1,0,0,81,false,stim,true,0,757.3000001907349,0,0,2,74339,task3,716376,false,false,784,image-keyboard-response,3
true,11,2,1,2,true,d,false,true,0.0-2.0-0.22-0.200-3.200,1,0,0,68,false,stim,false,2,489.0,0,1,0,74339,task3,718381,false,false,787,image-keyboard-response,4
true,11,2,1,1,false,z,false,false,0.0-2.0-0.22-0.201-3.201,1,0,0,68,false,stim,true,2,465.2999999523163,0,0,1,74339,task3,720379,false,false,790,image-keyboard-response,5
true,11,0,1,1,false,z,true,false,0.0-2.0-0.22-0.202-3.202,1,0,0,81,false,stim,false,2,635.0999999046326,0,0,1,74339,task3,722526,false,false,793,image-keyboard-response,6
true,11,2,1,2,true,d,false,true,0.0-2.0-0.22-0.203-3.203,1,0,0,68,false,stim,false,2,669.6000001430511,0,1,0,74339,task3,724713,false,false,796,image-keyboard-response,7
true,11,1,1,1,true,z,false,true,0.0-2.0-0.22-0.204-3.204,1,0,0,90,false,stim,false,2,650.2999999523163,0,0,1,74339,task3,726885,false,false,799,image-keyboard-response,8
true,11,2,1,2,true,d,false,true,0.0-2.0-0.22-0.205-3.205,1,0,0,68,false,stim,false,0,725.5,0,0,2,74339,task3,729140,false,false,802,image-keyboard-response,9
true,11,2,1,2,true,d,false,true,0.0-2.0-0.22-0.206-3.206,1,0,0,68,false,stim,false,2,632.2000000476837,0,1,0,74339,task3,731288,false,false,805,image-keyboard-response,10
true,11,1,1,2,false,d,true,false,0.0-2.0-0.23-0.207-3.207,1,0,0,90,false,stim,false,0,675.9000000953674,0,0,2,74339,task3,733495,false,false,808,image-keyboard-response,11
true,11,2,1,2,true,d,false,true,0.0-2.0-0.23-0.208-3.208,1,0,0,68,false,stim,false,2,409.10000014305115,0,1,0,74339,task3,735438,false,false,811,image-keyboard-response,12
true,11,2,1,1,false,z,false,false,0.0-2.0-0.23-0.209-3.209,1,0,0,68,false,stim,true,2,604.3999998569489,0,0,1,74339,task3,737564,false,false,814,image-keyboard-response,13
true,11,2,1,1,false,z,false,false,0.0-2.0-0.23-0.210-3.210,1,0,0,68,false,stim,true,2,652.5,0,0,1,74339,task3,739729,false,false,817,image-keyboard-response,14
true,11,1,1,1,true,z,false,true,0.0-2.0-0.23-0.211-3.211,1,0,0,90,false,stim,false,2,440.90000009536743,0,0,1,74339,task3,741696,false,false,820,image-keyboard-response,15
true,11,2,1,2,true,d,false,true,0.0-2.0-0.23-0.212-3.212,1,0,0,68,false,stim,false,2,520.5,0,1,0,74339,task3,743735,false,false,823,image-keyboard-response,16
true,11,2,1,2,true,d,false,true,0.0-2.0-0.23-0.213-3.213,1,0,0,68,false,stim,false,0,641.3999998569489,0,0,2,74339,task3,745911,false,false,826,image-keyboard-response,17
true,11,2,1,2,true,d,false,true,0.0-2.0-0.23-0.214-3.214,1,0,0,68,false,stim,false,2,521.5,0,1,0,74339,task3,747939,false,false,829,image-keyboard-response,18
true,11,1,1,2,false,d,true,false,0.0-2.0-0.23-0.215-3.215,1,0,0,90,false,stim,false,0,541.8000001907349,0,0,2,74339,task3,749998,false,false,832,image-keyboard-response,19
true,11,2,1,2,true,d,false,true,0.0-2.0-0.24-0.216-3.216,1,0,0,68,false,stim,false,0,352.40000009536743,0,0,2,74339,task3,751876,false,false,835,image-keyboard-response,20
true,11,2,1,1,false,z,false,false,0.0-2.0-0.24-0.217-3.217,1,0,0,68,false,stim,true,2,380.0,0,0,1,74339,task3,753785,false,false,838,image-keyboard-response,21
true,11,1,1,1,true,z,false,true,0.0-2.0-0.24-0.218-3.218,1,0,0,90,false,stim,false,2,612.0999999046326,0,0,1,74339,task3,755920,false,false,841,image-keyboard-response,22
true,11,2,1,2,true,d,false,true,0.0-2.0-0.24-0.219-3.219,1,0,0,68,false,stim,false,0,809.7999999523163,0,0,2,74339,task3,758249,false,false,844,image-keyboard-response,23
true,11,2,1,2,true,d,false,false,0.0-2.0-0.24-0.220-3.220,1,0,0,68,false,stim,false,2,369.39999985694885,0,1,0,74339,task3,760123,false,true,847,image-keyboard-response,24
true,11,1,1,2,false,d,true,false,0.0-2.0-0.24-0.221-3.221,1,0,0,90,false,stim,false,2,524.1000001430511,0,1,0,74339,task3,762163,false,false,850,image-keyboard-response,25
true,11,0,1,2,false,d,true,false,0.0-2.0-0.24-0.222-3.222,1,0,0,81,false,stim,false,2,365.09999990463257,0,1,0,74339,task3,764054,false,false,853,image-keyboard-response,26
true,11,2,1,2,true,d,false,true,0.0-2.0-0.24-0.223-3.223,1,0,0,68,false,stim,false,0,1065.0,0,1,2,74339,task3,766652,false,false,856,image-keyboard-response,27
true,11,1,1,1,true,z,false,true,0.0-2.0-0.24-0.224-3.224,1,0,0,90,false,stim,false,2,538.8000001907349,0,0,1,74339,task3,768713,false,false,859,image-keyboard-response,28
true,11,2,1,2,true,d,false,true,0.0-2.0-0.25-0.225-3.225,1,0,0,68,false,stim,false,2,728.6000001430511,0,1,0,74339,task3,770972,false,false,862,image-keyboard-response,29
true,12,2,2,2,true,d,false,false,0.0-2.0-0.25-0.226-3.226,1,0,1,68,true,stim,false,2,1203.4000000953674,0,1,2,74339,task3,773704,false,true,865,image-keyboard-response,1
true,12,2,2,2,true,d,false,true,0.0-2.0-0.25-0.227-3.227,1,0,1,68,false,stim,false,2,627.2000000476837,0,1,0,74339,task3,775856,false,false,868,image-keyboard-response,2
true,12,1,2,2,false,d,true,false,0.0-2.0-0.25-0.228-3.228,1,0,1,90,false,stim,false,2,638.3000001907349,0,1,2,74339,task3,778015,false,false,871,image-keyboard-response,3
true,12,2,2,2,true,d,false,true,0.0-2.0-0.25-0.229-3.229,1,0,1,68,false,stim,false,2,619.5999999046326,0,1,0,74339,task3,780160,false,false,874,image-keyboard-response,4
true,12,1,2,0,false,q,false,false,0.0-2.0-0.25-0.230-3.230,1,0,1,90,false,stim,true,1,690.5999999046326,0,0,1,74339,task3,782378,false,false,877,image-keyboard-response,5
true,12,2,2,0,false,q,true,false,0.0-2.0-0.25-0.231-3.231,1,0,1,68,false,stim,false,1,660.7999999523163,0,0,1,74339,task3,784543,false,false,880,image-keyboard-response,6
true,12,0,2,2,false,d,true,false,0.0-2.0-0.25-0.232-3.232,1,0,1,81,false,stim,false,2,771.2999999523163,0,1,2,74339,task3,786850,false,false,883,image-keyboard-response,7
true,12,0,2,0,true,q,false,false,0.0-2.0-0.25-0.233-3.233,1,0,1,81,false,stim,false,1,964.5,0,0,1,74339,task3,789345,false,true,886,image-keyboard-response,8
true,12,1,2,2,false,d,true,false,0.0-2.0-0.26-0.234-3.234,1,0,1,90,false,stim,false,2,895.5,0,1,2,74339,task3,791770,false,false,889,image-keyboard-response,9
true,12,2,2,2,true,d,false,true,0.0-2.0-0.26-0.235-3.235,1,0,1,68,false,stim,false,2,575.2000000476837,0,1,0,74339,task3,793877,false,false,892,image-keyboard-response,10
true,12,2,2,2,true,d,false,true,0.0-2.0-0.26-0.236-3.236,1,0,1,68,false,stim,false,2,497.0,0,1,0,74339,task3,795886,false,false,895,image-keyboard-response,11
true,12,2,2,2,true,d,false,true,0.0-2.0-0.26-0.237-3.237,1,0,1,68,false,stim,false,2,616.2999999523163,0,0,2,74339,task3,798028,false,false,898,image-keyboard-response,12
true,12,2,2,0,false,q,true,false,0.0-2.0-0.26-0.238-3.238,1,0,1,68,false,stim,false,1,364.2000000476837,0,1,1,74339,task3,799928,false,false,901,image-keyboard-response,13
true,12,2,2,2,true,d,false,true,0.0-2.0-0.26-0.239-3.239,1,0,1,68,false,stim,false,2,418.10000014305115,0,1,0,74339,task3,801875,false,false,904,image-keyboard-response,14
true,12,1,2,2,false,d,true,false,0.0-2.0-0.26-0.240-3.240,1,0,1,90,false,stim,false,2,770.5999999046326,0,0,2,74339,task3,804170,false,false,907,image-keyboard-response,15
true,12,2,2,0,false,q,true,false,0.0-2.0-0.26-0.241-3.241,1,0,1,68,false,stim,false,1,557.7999999523163,0,1,1,74339,task3,806249,false,false,910,image-keyboard-response,16
true,13,2,2,0,false,q,true,false,0.0-2.0-0.26-0.242-3.242,1,1,0,68,true,stim,false,0,566.0,0,1,1,74339,task3,808329,false,false,913,image-keyboard-response,1
true,13,1,2,0,false,q,true,false,0.0-2.0-0.27-0.243-3.243,1,1,0,90,false,stim,false,0,550.2999999523163,0,1,1,74339,task3,810411,false,false,916,image-keyboard-response,2
true,13,2,2,0,false,q,false,false,0.0-2.0-0.27-0.244-3.244,1,1,0,68,false,stim,true,2,685.6000001430511,0,0,2,74339,task3,812614,false,false,919,image-keyboard-response,3
true,13,1,2,0,false,q,true,false,0.0-2.0-0.27-0.245-3.245,1,1,0,90,false,stim,false,2,555.2999999523163,0,0,2,74339,task3,814684,false,false,922,image-keyboard-response,4
true,13,0,2,0,true,q,false,false,0.0-2.0-0.27-0.246-3.246,1,1,0,81,false,stim,false,2,395.7000000476837,0,0,2,74339,task3,816605,false,true,925,image-keyboard-response,5
true,13,2,2,2,true,d,false,true,0.0-2.0-0.27-0.247-3.247,1,1,0,68,false,stim,false,2,831.7000000476837,0,1,0,74339,task3,818969,false,false,928,image-keyboard-response,6
true,13,2,2,0,false,q,true,false,0.0-2.0-0.27-0.248-3.248,1,1,0,68,false,stim,false,0,1131.4000000953674,0,1,1,74339,task3,821608,false,false,931,image-keyboard-response,7
true,13,2,2,2,true,d,false,true,0.0-2.0-0.27-0.249-3.249,1,1,0,68,false,stim,false,2,449.0,0,1,0,74339,task3,823575,false,false,934,image-keyboard-response,8
true,13,1,2,0,false,q,true,false,0.0-2.0-0.27-0.250-3.250,1,1,0,90,false,stim,false,0,645.2999999523163,0,1,1,74339,task3,825728,false,false,937,image-keyboard-response,9
true,13,2,2,2,true,d,false,true,0.0-2.0-0.27-0.251-3.251,1,1,0,68,false,stim,false,2,531.4000000953674,0,1,0,74339,task3,827794,false,false,940,image-keyboard-response,10
true,13,0,2,2,false,d,true,false,0.0-2.0-0.28-0.252-3.252,1,1,0,81,false,stim,false,2,389.89999985694885,0,1,0,74339,task3,829705,false,false,943,image-keyboard-response,11
true,13,0,2,0,true,q,false,false,0.0-2.0-0.28-0.253-3.253,1,1,0,81,false,stim,false,0,586.5,0,1,1,74339,task3,831818,false,true,946,image-keyboard-response,12
true,13,2,2,0,false,q,true,true,0.0-2.0-0.28-0.254-3.254,1,1,0,68,false,stim,false,0,655.9000000953674,0,1,1,74339,task3,834002,false,true,949,image-keyboard-response,13
true,13,2,2,0,false,q,false,true,0.0-2.0-0.28-0.255-3.255,1,1,0,68,false,stim,true,2,486.80000019073486,0,0,2,74339,task3,836013,false,true,952,image-keyboard-response,14
true,13,2,2,0,false,q,true,false,0.0-2.0-0.28-0.256-3.256,1,1,0,68,false,stim,false,0,354.2999999523163,0,1,1,74339,task3,837887,false,false,955,image-keyboard-response,15
true,13,2,2,2,true,d,false,true,0.0-2.0-0.28-0.257-3.257,1,1,0,68,false,stim,false,2,419.60000014305115,0,1,0,74339,task3,839832,false,false,958,image-keyboard-response,16
true,13,2,2,0,false,q,false,false,0.0-2.0-0.28-0.258-3.258,1,1,0,68,false,stim,true,2,386.2000000476837,0,0,2,74339,task3,841744,false,false,961,image-keyboard-response,17
true,13,2,2,0,false,q,false,false,0.0-2.0-0.28-0.259-3.259,1,1,0,68,false,stim,true,2,553.6000001430511,0,0,2,74339,task3,843810,false,false,964,image-keyboard-response,18
true,13,2,2,2,true,d,false,true,0.0-2.0-0.28-0.260-3.260,1,1,0,68,false,stim,false,2,579.5,0,1,0,74339,task3,845921,false,false,967,image-keyboard-response,19
true,13,2,2,2,true,d,false,true,0.0-2.0-0.29-0.261-3.261,1,1,0,68,false,stim,false,2,643.0999999046326,0,1,0,74339,task3,848087,false,false,970,image-keyboard-response,20
true,13,2,2,2,true,d,false,true,0.0-2.0-0.29-0.262-3.262,1,1,0,68,false,stim,false,2,513.9000000953674,0,1,0,74339,task3,850123,false,false,973,image-keyboard-response,21
true,13,2,2,0,false,q,true,false,0.0-2.0-0.29-0.263-3.263,1,1,0,68,false,stim,false,0,341.7000000476837,0,1,1,74339,task3,852001,false,false,976,image-keyboard-response,22
true,13,2,2,0,false,q,false,false,0.0-2.0-0.29-0.264-3.264,1,1,0,68,false,stim,true,2,735.7999999523163,0,0,2,74339,task3,854246,false,false,979,image-keyboard-response,23
true,13,2,2,2,true,d,false,true,0.0-2.0-0.29-0.265-3.265,1,1,0,68,false,stim,false,2,467.0,0,1,0,74339,task3,856235,false,false,982,image-keyboard-response,24
true,14,2,2,0,false,q,true,false,0.0-2.0-0.29-0.266-3.266,1,1,0,68,true,stim,false,0,264.0,0,1,1,74339,task3,858007,false,false,985,image-keyboard-response,1
true,14,2,2,0,false,q,true,false,0.0-2.0-0.29-0.267-3.267,1,1,0,68,false,stim,false,0,446.0,0,1,1,74339,task3,859975,false,false,988,image-keyboard-response,2
true,14,1,2,1,true,z,false,true,0.0-2.0-0.29-0.268-3.268,1,1,0,90,false,stim,false,0,707.0999999046326,0,0,2,74339,task3,862207,false,false,991,image-keyboard-response,3
true,14,1,2,1,true,z,false,true,0.0-2.0-0.29-0.269-3.269,1,1,0,90,false,stim,false,0,385.80000019073486,0,0,2,74339,task3,864118,false,false,994,image-keyboard-response,4
true,14,1,2,0,false,q,true,false,0.0-2.0-0.30-0.270-3.270,1,1,0,90,false,stim,false,0,381.09999990463257,0,1,1,74339,task3,866026,false,false,997,image-keyboard-response,5
true,14,2,2,2,true,d,false,true,0.0-2.0-0.30-0.271-3.271,1,1,0,68,false,stim,false,2,738.5999999046326,0,1,0,74339,task3,868281,false,false,1000,image-keyboard-response,6
true,14,2,2,1,false,z,true,false,0.0-2.0-0.30-0.272-3.272,1,1,0,68,false,stim,false,0,380.0,0,0,2,74339,task3,870196,false,false,1003,image-keyboard-response,7
true,14,1,2,1,true,z,false,true,0.0-2.0-0.30-0.273-3.273,1,1,0,90,false,stim,false,0,616.2000000476837,0,1,2,74339,task3,872343,false,false,1006,image-keyboard-response,8
true,14,0,2,0,true,q,false,true,0.0-2.0-0.30-0.274-3.274,1,1,0,81,false,stim,false,0,776.2000000476837,0,0,1,74339,task3,874651,false,false,1009,image-keyboard-response,9
true,14,0,2,0,true,q,false,true,0.0-2.0-0.30-0.275-3.275,1,1,0,81,false,stim,false,0,531.3000001907349,0,0,1,74339,task3,876711,false,false,1012,image-keyboard-response,10
true,14,2,2,2,true,d,false,true,0.0-2.0-0.30-0.276-3.276,1,1,0,68,false,stim,false,2,603.3000001907349,0,0,0,74339,task3,878822,false,false,1015,image-keyboard-response,11
true,14,1,2,1,true,z,false,false,0.0-2.0-0.30-0.277-3.277,1,1,0,90,false,stim,false,0,513.4000000953674,0,1,2,74339,task3,880848,false,true,1018,image-keyboard-response,12
true,15,2,1,0,false,q,false,false,0.0-2.0-0.30-0.278-3.278,0,0,1,68,true,stim,true,2,439.40000009536743,0,0,0,74339,task3,882812,false,false,1021,image-keyboard-response,1
true,15,0,1,1,false,z,false,false,0.0-2.0-0.31-0.279-3.279,0,0,1,81,false,stim,true,0,723.7999999523163,0,0,1,74339,task3,885056,false,false,1024,image-keyboard-response,2
true,15,1,1,1,true,z,false,true,0.0-2.0-0.31-0.280-3.280,0,0,1,90,false,stim,false,0,428.80000019073486,0,0,1,74339,task3,887019,false,false,1027,image-keyboard-response,3
true,15,2,1,0,false,q,false,false,0.0-2.0-0.31-0.281-3.281,0,0,1,68,false,stim,true,2,563.5999999046326,0,0,0,74339,task3,889099,false,false,1030,image-keyboard-response,4
true,15,0,1,1,false,z,true,false,0.0-2.0-0.31-0.282-3.282,0,0,1,81,false,stim,false,1,856.5999999046326,0,1,2,74339,task3,891491,false,false,1033,image-keyboard-response,5
true,15,1,1,1,true,z,false,true,0.0-2.0-0.31-0.283-3.283,0,0,1,90,false,stim,false,1,499.59999990463257,0,1,2,74339,task3,893517,false,false,1036,image-keyboard-response,6
true,15,1,1,1,true,z,false,true,0.0-2.0-0.31-0.284-3.284,0,0,1,90,false,stim,false,0,1013.5,0,1,1,74339,task3,896053,false,false,1039,image-keyboard-response,7
true,15,1,1,0,false,q,true,false,0.0-2.0-0.31-0.285-3.285,0,0,1,90,false,stim,false,2,458.7999999523163,0,1,0,74339,task3,898039,false,false,1042,image-keyboard-response,8
true,15,1,1,1,true,z,false,true,0.0-2.0-0.31-0.286-3.286,0,0,1,90,false,stim,false,1,1048.2999999523163,0,0,2,74339,task3,900620,false,false,1045,image-keyboard-response,9
true,15,1,1,0,false,q,true,false,0.0-2.0-0.31-0.287-3.287,0,0,1,90,false,stim,false,2,306.10000014305115,0,1,0,74339,task3,902437,false,false,1048,image-keyboard-response,10
true,15,1,1,1,true,z,false,true,0.0-2.0-0.32-0.288-3.288,0,0,1,90,false,stim,false,1,469.2999999523163,0,0,2,74339,task3,904431,false,false,1051,image-keyboard-response,11
true,16,0,2,0,true,q,false,true,0.0-2.0-0.32-0.289-3.289,1,1,0,81,true,stim,false,0,400.80000019073486,0,1,0,74339,task3,906355,false,false,1054,image-keyboard-response,1
true,16,0,2,0,true,q,false,true,0.0-2.0-0.32-0.290-3.290,1,1,0,81,false,stim,false,0,516.7999999523163,0,1,0,74339,task3,908383,false,false,1057,image-keyboard-response,2
true,16,0,2,0,true,q,false,true,0.0-2.0-0.32-0.291-3.291,1,1,0,81,false,stim,false,0,409.10000014305115,0,1,0,74339,task3,910311,false,false,1060,image-keyboard-response,3
true,16,1,2,2,false,d,false,true,0.0-2.0-0.32-0.292-3.292,1,1,0,90,false,stim,true,1,383.80000019073486,0,0,2,74339,task3,912216,false,true,1063,image-keyboard-response,4
true,16,1,2,2,false,d,false,true,0.0-2.0-0.32-0.293-3.293,1,1,0,90,false,stim,true,1,742.5999999046326,0,0,2,74339,task3,914479,false,true,1066,image-keyboard-response,5
true,16,2,2,1,false,z,true,false,0.0-2.0-0.32-0.294-3.294,1,1,0,68,false,stim,false,1,518.0,0,1,1,74339,task3,916521,false,false,1069,image-keyboard-response,6
true,16,1,2,1,true,z,false,false,0.0-2.0-0.32-0.295-3.295,1,1,0,90,false,stim,false,1,662.5,0,1,1,74339,task3,918692,false,true,1072,image-keyboard-response,7
true,16,0,2,1,false,z,true,true,0.0-2.0-0.32-0.296-3.296,1,1,0,81,false,stim,false,1,382.19999980926514,0,1,1,74339,task3,920602,false,true,1075,image-keyboard-response,8
true,16,1,2,2,false,d,false,false,0.0-2.0-0.33-0.297-3.297,1,1,0,90,false,stim,true,1,594.2999999523163,0,0,2,74339,task3,922726,false,false,1078,image-keyboard-response,9
true,16,0,2,2,false,d,true,false,0.0-2.0-0.33-0.298-3.298,1,1,0,81,false,stim,false,1,541.7999999523163,0,0,2,74339,task3,924790,false,false,1081,image-keyboard-response,10
true,16,0,2,0,true,q,false,true,0.0-2.0-0.33-0.299-3.299,1,1,0,81,false,stim,false,0,588.7999999523163,0,1,0,74339,task3,926907,false,false,1084,image-keyboard-response,11
true,16,0,2,0,true,q,false,true,0.0-2.0-0.33-0.300-3.300,1,1,0,81,false,stim,false,0,455.60000014305115,0,1,0,74339,task3,928890,false,false,1087,image-keyboard-response,12
true,16,0,2,1,false,z,true,false,0.0-2.0-0.33-0.301-3.301,1,1,0,81,false,stim,false,1,1153.0999999046326,0,1,1,74339,task3,931564,false,false,1090,image-keyboard-response,13
true,16,0,2,0,true,q,false,true,0.0-2.0-0.33-0.302-3.302,1,1,0,81,false,stim,false,0,626.4000000953674,0,1,0,74339,task3,933717,false,false,1093,image-keyboard-response,14
true,16,0,2,2,false,d,true,false,0.0-2.0-0.33-0.303-3.303,1,1,0,81,false,stim,false,1,680.4000000953674,0,0,2,74339,task3,935919,false,false,1096,image-keyboard-response,15
true,16,0,2,1,false,z,true,false,0.0-2.0-0.33-0.304-3.304,1,1,0,81,false,stim,false,1,817.0,0,1,1,74339,task3,938266,false,false,1099,image-keyboard-response,16
true,16,1,2,1,true,z,false,true,0.0-2.0-0.33-0.305-3.305,1,1,0,90,false,stim,false,1,451.7000000476837,0,1,1,74339,task3,940240,false,false,1102,image-keyboard-response,17
true,16,1,2,2,false,d,false,false,0.0-2.0-0.34-0.306-3.306,1,1,0,90,false,stim,true,1,478.40000009536743,0,0,2,74339,task3,942241,false,false,1105,image-keyboard-response,18
true,16,0,2,0,true,q,false,true,0.0-2.0-0.34-0.307-3.307,1,1,0,81,false,stim,false,0,690.6999998092651,0,1,0,74339,task3,944459,false,false,1108,image-keyboard-response,19
true,16,1,2,1,true,z,false,true,0.0-2.0-0.34-0.308-3.308,1,1,0,90,false,stim,false,1,370.2000000476837,0,1,1,74339,task3,946350,false,false,1111,image-keyboard-response,20
true,16,2,2,2,true,d,false,true,0.0-2.0-0.34-0.309-3.309,1,1,0,68,false,stim,false,1,528.2000000476837,0,0,2,74339,task3,948390,false,false,1114,image-keyboard-response,21
true,16,0,2,0,true,q,false,true,0.0-2.0-0.34-0.310-3.310,1,1,0,81,false,stim,false,0,567.7999999523163,0,1,0,74339,task3,950483,false,false,1117,image-keyboard-response,22
true,16,0,2,0,true,q,false,true,0.0-2.0-0.34-0.311-3.311,1,1,0,81,false,stim,false,0,403.40000009536743,0,1,0,74339,task3,952405,false,false,1120,image-keyboard-response,23
true,16,2,2,1,false,z,true,false,0.0-2.0-0.34-0.312-3.312,1,1,0,68,false,stim,false,1,1348.6000001430511,0,1,1,74339,task3,955276,false,false,1123,image-keyboard-response,24
true,16,2,2,2,true,d,false,true,0.0-2.0-0.34-0.313-3.313,1,1,0,68,false,stim,false,1,587.2000000476837,0,0,2,74339,task3,957385,false,false,1126,image-keyboard-response,25
true,17,1,2,1,true,z,false,true,0.0-2.0-0.34-0.314-3.314,1,1,0,90,true,stim,false,1,566.0,0,1,1,74339,task3,959479,false,false,1129,image-keyboard-response,1
true,17,0,2,0,true,q,false,true,0.0-2.0-0.35-0.315-3.315,1,1,0,81,false,stim,false,0,552.9000000953674,0,1,0,74339,task3,961552,false,false,1132,image-keyboard-response,2
true,17,1,2,1,true,z,false,true,0.0-2.0-0.35-0.316-3.316,1,1,0,90,false,stim,false,1,503.5,0,1,1,74339,task3,963577,false,false,1135,image-keyboard-response,3
true,17,1,2,1,true,z,false,true,0.0-2.0-0.35-0.317-3.317,1,1,0,90,false,stim,false,1,427.5,0,1,1,74339,task3,965529,false,false,1138,image-keyboard-response,4
true,17,2,2,0,false,q,false,false,0.0-2.0-0.35-0.318-3.318,1,1,0,68,false,stim,true,2,552.1000001430511,0,0,2,74339,task3,967599,false,false,1141,image-keyboard-response,5
true,17,0,2,0,true,q,false,true,0.0-2.0-0.35-0.319-3.319,1,1,0,81,false,stim,false,0,575.9000000953674,0,1,0,74339,task3,969708,false,false,1144,image-keyboard-response,6
true,17,1,2,0,false,q,true,false,0.0-2.0-0.35-0.320-3.320,1,1,0,90,false,stim,false,2,574.2999999523163,0,0,2,74339,task3,971806,false,false,1147,image-keyboard-response,7
true,17,2,2,0,false,q,false,false,0.0-2.0-0.35-0.321-3.321,1,1,0,68,false,stim,true,2,379.39999985694885,0,1,2,74339,task3,973714,false,false,1150,image-keyboard-response,8
true,17,2,2,1,false,z,true,false,0.0-2.0-0.35-0.322-3.322,1,1,0,68,false,stim,false,1,1240.2999999523163,0,1,1,74339,task3,976473,false,false,1153,image-keyboard-response,9
true,17,0,2,0,true,q,false,true,0.0-2.0-0.35-0.323-3.323,1,1,0,81,false,stim,false,0,621.5,0,0,0,74339,task3,978626,false,false,1156,image-keyboard-response,10
true,17,0,2,0,true,q,false,true,0.0-2.0-0.36-0.324-3.324,1,1,0,81,false,stim,false,0,487.90000009536743,0,0,0,74339,task3,980643,false,false,1159,image-keyboard-response,11
true,17,1,2,0,false,q,true,false,0.0-2.0-0.36-0.325-3.325,1,1,0,90,false,stim,false,2,581.0,0,1,2,74339,task3,982757,false,false,1162,image-keyboard-response,12
true,18,1,2,1,true,z,false,true,0.0-2.0-0.36-0.326-3.326,0,1,1,90,true,stim,false,1,939.4000000953674,0,1,1,74339,task3,985233,false,false,1165,image-keyboard-response,1
true,18,0,2,0,true,q,false,true,0.0-2.0-0.36-0.327-3.327,0,1,1,81,false,stim,false,0,614.0,0,1,2,74339,task3,987381,false,false,1168,image-keyboard-response,2
true,18,0,2,2,false,d,false,false,0.0-2.0-0.36-0.328-3.328,0,1,1,81,false,stim,true,0,375.2999999523163,0,0,0,74339,task3,989291,false,false,1171,image-keyboard-response,3
true,18,1,2,1,true,z,false,true,0.0-2.0-0.36-0.329-3.329,0,1,1,90,false,stim,false,1,736.2999999523163,0,1,1,74339,task3,991550,false,false,1174,image-keyboard-response,4
true,18,1,2,1,true,z,false,false,0.0-2.0-0.36-0.330-3.330,0,1,1,90,false,stim,false,1,524.0,0,1,1,74339,task3,993595,false,true,1177,image-keyboard-response,5
true,18,0,2,2,false,d,false,false,0.0-2.0-0.36-0.331-3.331,0,1,1,81,false,stim,true,0,534.1000001430511,0,0,0,74339,task3,995658,false,false,1180,image-keyboard-response,6
true,18,0,2,0,true,q,false,true,0.0-2.0-0.36-0.332-3.332,0,1,1,81,false,stim,false,0,1017.7000000476837,0,1,2,74339,task3,998197,false,false,1183,image-keyboard-response,7
true,18,0,2,0,true,q,false,true,0.0-2.0-0.37-0.333-3.333,0,1,1,81,false,stim,false,0,471.7999999523163,0,0,2,74339,task3,1000191,false,false,1186,image-keyboard-response,8
true,18,1,2,2,false,d,true,false,0.0-2.0-0.37-0.334-3.334,0,1,1,90,false,stim,false,0,554.3999998569489,0,1,0,74339,task3,1002265,false,false,1189,image-keyboard-response,9
true,18,1,2,1,true,z,false,true,0.0-2.0-0.37-0.335-3.335,0,1,1,90,false,stim,false,1,895.2999999523163,0,0,1,74339,task3,1004691,false,false,1192,image-keyboard-response,10
true,18,1,2,1,true,z,false,true,0.0-2.0-0.37-0.336-3.336,0,1,1,90,false,stim,false,1,519.2000000476837,0,0,1,74339,task3,1006729,false,false,1195,image-keyboard-response,11
true,18,1,2,1,true,z,false,false,0.0-2.0-0.37-0.337-3.337,0,1,1,90,false,stim,false,1,367.0,0,0,1,74339,task3,1008631,false,true,1198,image-keyboard-response,12
true,19,0,1,2,false,d,true,false,0.0-2.0-0.37-0.338-3.338,1,0,0,81,true,stim,false,2,680.5,0,1,0,74339,task3,1010846,false,false,1201,image-keyboard-response,1
true,19,1,1,1,true,z,false,true,0.0-2.0-0.37-0.339-3.339,1,0,0,90,false,stim,false,0,521.7999999523163,0,0,2,74339,task3,1012880,false,false,1204,image-keyboard-response,2
true,19,1,1,2,false,d,true,false,0.0-2.0-0.37-0.340-3.340,1,0,0,90,false,stim,false,2,275.40000009536743,0,1,0,74339,task3,1014670,false,false,1207,image-keyboard-response,3
true,19,1,1,1,true,z,false,true,0.0-2.0-0.37-0.341-3.341,1,0,0,90,false,stim,false,0,625.7999999523163,0,0,2,74339,task3,1016824,false,false,1210,image-keyboard-response,4
true,19,0,1,2,false,d,true,false,0.0-2.0-0.38-0.342-3.342,1,0,0,81,false,stim,false,1,843.9000000953674,0,0,1,74339,task3,1019189,false,false,1213,image-keyboard-response,5
true,19,1,1,1,true,z,false,true,0.0-2.0-0.38-0.343-3.343,1,0,0,90,false,stim,false,0,425.7000000476837,0,0,2,74339,task3,1021137,false,false,1216,image-keyboard-response,6
true,19,2,1,2,true,d,false,true,0.0-2.0-0.38-0.344-3.344,1,0,0,68,false,stim,false,2,661.1000001430511,0,1,0,74339,task3,1023316,false,false,1219,image-keyboard-response,7
true,19,1,1,2,false,d,false,false,0.0-2.0-0.38-0.345-3.345,1,0,0,90,false,stim,true,1,746.4000000953674,0,1,1,74339,task3,1025585,false,false,1222,image-keyboard-response,8
true,19,2,1,2,true,d,false,true,0.0-2.0-0.38-0.346-3.346,1,0,0,68,false,stim,false,2,641.5,0,0,0,74339,task3,1027754,false,false,1225,image-keyboard-response,9
true,19,0,1,1,false,z,false,false,0.0-2.0-0.38-0.347-3.347,1,0,0,81,false,stim,true,0,803.4000000953674,0,1,2,74339,task3,1030080,false,false,1228,image-keyboard-response,10
true,19,2,1,2,true,d,false,true,0.0-2.0-0.38-0.348-3.348,1,0,0,68,false,stim,false,1,1080.2999999523163,0,1,1,74339,task3,1032677,false,false,1231,image-keyboard-response,11
true,19,1,1,1,true,z,false,true,0.0-2.0-0.38-0.349-3.349,1,0,0,90,false,stim,false,0,657.7000000476837,0,1,2,74339,task3,1034858,false,false,1234,image-keyboard-response,12
true,20,2,2,1,false,z,false,false,0.0-2.0-0.38-0.350-3.350,0,1,1,68,true,stim,true,2,393.5,0,0,0,74339,task3,1036772,false,false,1237,image-keyboard-response,1
true,20,2,2,1,false,z,false,false,0.0-2.0-0.39-0.351-3.351,0,1,1,68,false,stim,true,2,636.9000000953674,0,0,0,74339,task3,1038930,false,false,1240,image-keyboard-response,2
true,20,1,2,2,false,d,true,false,0.0-2.0-0.39-0.352-3.352,0,1,1,90,false,stim,false,2,558.8999998569489,0,1,1,74339,task3,1041002,false,false,1243,image-keyboard-response,3
true,20,0,2,1,false,z,true,false,0.0-2.0-0.39-0.353-3.353,0,1,1,81,false,stim,false,2,846.5,0,0,0,74339,task3,1043355,false,false,1246,image-keyboard-response,4
true,20,1,2,1,true,z,false,true,0.0-2.0-0.39-0.354-3.354,0,1,1,90,false,stim,false,1,494.7000000476837,0,1,2,74339,task3,1045371,false,false,1249,image-keyboard-response,5
true,20,2,2,2,true,d,false,true,0.0-2.0-0.39-0.355-3.355,0,1,1,68,false,stim,false,2,959.2000000476837,0,1,1,74339,task3,1047858,false,false,1252,image-keyboard-response,6
true,20,0,2,1,false,z,true,false,0.0-2.0-0.39-0.356-3.356,0,1,1,81,false,stim,false,2,1136.2999999523163,0,0,0,74339,task3,1050528,false,false,1255,image-keyboard-response,7
true,20,2,2,2,true,d,false,true,0.0-2.0-0.39-0.357-3.357,0,1,1,68,false,stim,false,2,1160.8999998569489,0,1,1,74339,task3,1053218,false,false,1258,image-keyboard-response,8
true,20,1,2,1,true,z,false,true,0.0-2.0-0.39-0.358-3.358,0,1,1,90,false,stim,false,1,524.9000000953674,0,0,2,74339,task3,1055266,false,false,1261,image-keyboard-response,9
true,20,1,2,1,true,z,false,true,0.0-2.0-0.39-0.359-3.359,0,1,1,90,false,stim,false,1,737.0999999046326,0,0,2,74339,task3,1057527,false,false,1264,image-keyboard-response,10
true,20,1,2,1,true,z,false,true,0.0-2.0-0.40-0.360-3.360,0,1,1,90,false,stim,false,2,722.0999999046326,0,1,0,74339,task3,1059772,false,false,1267,image-keyboard-response,11
true,20,1,2,1,true,z,false,true,0.0-2.0-0.40-0.361-3.361,0,1,1,90,false,stim,false,1,546.9000000953674,0,0,2,74339,task3,1061854,false,false,1270,image-keyboard-response,12
true,20,1,2,2,false,d,true,false,0.0-2.0-0.40-0.362-3.362,0,1,1,90,false,stim,false,2,383.90000009536743,0,0,1,74339,task3,1063760,false,false,1273,image-keyboard-response,13
true,21,1,1,2,false,d,false,false,0.0-2.0-0.40-0.363-3.363,1,0,0,90,true,stim,true,1,484.40000009536743,0,0,2,74339,task3,1065773,false,false,1276,image-keyboard-response,1
true,21,2,1,1,false,z,false,false,0.0-2.0-0.40-0.364-3.364,1,0,0,68,false,stim,true,2,608.4000000953674,0,0,1,74339,task3,1067904,false,false,1279,image-keyboard-response,2
true,21,2,1,1,false,z,true,false,0.0-2.0-0.40-0.365-3.365,1,0,0,68,false,stim,false,1,402.2000000476837,0,1,0,74339,task3,1069830,false,false,1282,image-keyboard-response,3
true,21,1,1,2,false,d,false,false,0.0-2.0-0.40-0.366-3.366,1,0,0,90,false,stim,true,1,558.4000000953674,0,0,2,74339,task3,1071916,false,false,1285,image-keyboard-response,4
true,21,1,1,1,true,z,false,true,0.0-2.0-0.40-0.367-3.367,1,0,0,90,false,stim,false,1,875.7000000476837,0,1,0,74339,task3,1074318,false,false,1288,image-keyboard-response,5
true,21,2,1,1,false,z,false,false,0.0-2.0-0.40-0.368-3.368,1,0,0,68,false,stim,true,2,697.7999999523163,0,0,1,74339,task3,1076538,false,false,1291,image-keyboard-response,6
true,21,1,1,1,true,z,false,true,0.0-2.0-0.41-0.369-3.369,1,0,0,90,false,stim,false,2,708.5,0,0,1,74339,task3,1078762,false,false,1294,image-keyboard-response,7
true,21,1,1,1,true,z,false,true,0.0-2.0-0.41-0.370-3.370,1,0,0,90,false,stim,false,1,532.7999999523163,0,1,0,74339,task3,1080827,false,false,1297,image-keyboard-response,8
true,21,1,1,1,true,z,false,true,0.0-2.0-0.41-0.371-3.371,1,0,0,90,false,stim,false,1,392.0,0,1,0,74339,task3,1082740,false,false,1300,image-keyboard-response,9
true,21,1,1,1,true,z,false,true,0.0-2.0-0.41-0.372-3.372,1,0,0,90,false,stim,false,1,390.0,0,1,0,74339,task3,1084665,false,false,1303,image-keyboard-response,10
true,21,1,1,2,false,d,false,true,0.0-2.0-0.41-0.373-3.373,1,0,0,90,false,stim,true,1,914.6000001430511,0,0,2,74339,task3,1087087,false,true,1306,image-keyboard-response,11
true,21,2,1,1,false,z,false,false,0.0-2.0-0.41-0.374-3.374,1,0,0,68,false,stim,true,2,870.2000000476837,0,0,1,74339,task3,1089487,false,false,1309,image-keyboard-response,12
true,21,1,1,2,false,d,false,false,0.0-2.0-0.41-0.375-3.375,1,0,0,90,false,stim,true,1,540.0,0,0,2,74339,task3,1091556,false,false,1312,image-keyboard-response,13
true,21,0,1,1,false,z,true,false,0.0-2.0-0.41-0.376-3.376,1,0,0,81,false,stim,false,2,1014.2000000476837,0,0,1,74339,task3,1094086,false,false,1315,image-keyboard-response,14
true,21,1,1,2,false,d,false,false,0.0-2.0-0.41-0.377-3.377,1,0,0,90,false,stim,true,1,913.2000000476837,0,0,2,74339,task3,1096524,false,false,1318,image-keyboard-response,15
true,21,0,1,2,false,d,true,false,0.0-2.0-0.42-0.378-3.378,1,0,0,81,false,stim,false,1,676.5,0,0,2,74339,task3,1098731,false,false,1321,image-keyboard-response,16
true,21,1,1,1,true,z,false,true,0.0-2.0-0.42-0.379-3.379,1,0,0,90,false,stim,false,1,556.7999999523163,0,1,0,74339,task3,1100807,false,false,1324,image-keyboard-response,17
true,21,2,1,2,true,d,false,true,0.0-2.0-0.42-0.380-3.380,1,0,0,68,false,stim,false,1,611.1999998092651,0,0,2,74339,task3,1102947,false,false,1327,image-keyboard-response,18
true,21,2,1,2,true,d,false,true,0.0-2.0-0.42-0.381-3.381,1,0,0,68,false,stim,false,1,379.09999990463257,0,0,2,74339,task3,1104848,false,false,1330,image-keyboard-response,19
true,21,1,1,1,true,z,false,true,0.0-2.0-0.42-0.382-3.382,1,0,0,90,false,stim,false,2,770.5999999046326,0,0,1,74339,task3,1107137,false,false,1333,image-keyboard-response,20
true,21,1,1,1,true,z,false,false,0.0-2.0-0.42-0.383-3.383,1,0,0,90,false,stim,false,1,477.2999999523163,0,1,0,74339,task3,1109147,false,true,1336,image-keyboard-response,21
true,21,2,1,1,false,z,false,false,0.0-2.0-0.42-0.384-3.384,1,0,0,68,false,stim,true,2,1166.4000000953674,0,0,1,74339,task3,1111828,false,false,1339,image-keyboard-response,22
true,21,1,1,1,true,z,false,true,0.0-2.0-0.42-0.385-3.385,1,0,0,90,false,stim,false,2,431.39999985694885,0,0,1,74339,task3,1113788,false,false,1342,image-keyboard-response,23
true,21,1,1,1,true,z,false,true,0.0-2.0-0.42-0.386-3.386,1,0,0,90,false,stim,false,1,501.89999985694885,0,1,0,74339,task3,1115819,false,false,1345,image-keyboard-response,24
true,22,2,1,0,false,q,false,true,0.0-2.0-0.43-0.387-3.387,1,0,0,68,true,stim,true,2,820.5,0,0,2,74339,task3,1118160,false,true,1348,image-keyboard-response,1
true,22,1,1,1,true,z,false,true,0.0-2.0-0.43-0.388-3.388,1,0,0,90,false,stim,false,1,499.2999999523163,0,1,0,74339,task3,1120190,false,false,1351,image-keyboard-response,2
true,22,2,1,0,false,q,false,false,0.0-2.0-0.43-0.389-3.389,1,0,0,68,false,stim,true,2,539.5,0,0,2,74339,task3,1122254,false,false,1354,image-keyboard-response,3
true,22,1,1,2,false,d,false,false,0.0-2.0-0.43-0.390-3.390,1,0,0,90,false,stim,true,1,483.7999999523163,0,0,1,74339,task3,1124267,false,false,1357,image-keyboard-response,4
true,22,2,1,2,true,d,false,true,0.0-2.0-0.43-0.391-3.391,1,0,0,68,false,stim,false,1,628.5999999046326,0,0,1,74339,task3,1126406,false,false,1360,image-keyboard-response,5
true,22,1,1,0,false,q,true,false,0.0-2.0-0.43-0.392-3.392,1,0,0,90,false,stim,false,2,556.5999999046326,0,0,2,74339,task3,1128495,false,false,1363,image-keyboard-response,6
true,22,1,1,1,true,z,false,true,0.0-2.0-0.43-0.393-3.393,1,0,0,90,false,stim,false,1,540.2000000476837,0,1,0,74339,task3,1130551,false,false,1366,image-keyboard-response,7
true,22,1,1,1,true,z,false,true,0.0-2.0-0.43-0.394-3.394,1,0,0,90,false,stim,false,1,483.2000000476837,0,1,0,74339,task3,1132545,false,false,1369,image-keyboard-response,8
true,22,1,1,2,false,d,false,false,0.0-2.0-0.43-0.395-3.395,1,0,0,90,false,stim,true,1,407.90000009536743,0,0,1,74339,task3,1134476,false,false,1372,image-keyboard-response,9
true,22,1,1,1,true,z,false,true,0.0-2.0-0.44-0.396-3.396,1,0,0,90,false,stim,false,1,346.10000014305115,0,1,0,74339,task3,1136343,false,false,1375,image-keyboard-response,10
true,22,2,1,2,true,d,false,false,0.0-2.0-0.44-0.397-3.397,1,0,0,68,false,stim,false,1,757.0,0,0,1,74339,task3,1138621,false,true,1378,image-keyboard-response,11
true,22,0,1,2,false,d,true,false,0.0-2.0-0.44-0.398-3.398,1,0,0,81,false,stim,false,1,711.0,0,0,1,74339,task3,1140863,false,false,1381,image-keyboard-response,12
true,22,2,1,0,false,q,false,false,0.0-2.0-0.44-0.399-3.399,1,0,0,68,false,stim,true,2,931.9000000953674,0,0,2,74339,task3,1143327,false,false,1384,image-keyboard-response,13
true,22,1,1,2,false,d,false,false,0.0-2.0-0.44-0.400-3.400,1,0,0,90,false,stim,true,1,729.2000000476837,0,0,1,74339,task3,1145572,false,false,1387,image-keyboard-response,14
true,22,1,1,0,false,q,true,false,0.0-2.0-0.44-0.401-3.401,1,0,0,90,false,stim,false,2,1107.7000000476837,0,0,2,74339,task3,1148206,false,false,1390,image-keyboard-response,15
true,22,1,1,1,true,z,false,true,0.0-2.0-0.44-0.402-3.402,1,0,0,90,false,stim,false,1,488.2999999523163,0,1,0,74339,task3,1150219,false,false,1393,image-keyboard-response,16
true,22,2,1,0,false,q,false,false,0.0-2.0-0.44-0.403-3.403,1,0,0,68,false,stim,true,2,443.5,0,0,2,74339,task3,1152186,false,false,1396,image-keyboard-response,17
true,22,1,1,1,true,z,false,true,0.0-2.0-0.44-0.404-3.404,1,0,0,90,false,stim,false,1,593.5,0,1,0,74339,task3,1154305,false,false,1399,image-keyboard-response,18
true,22,0,1,0,true,q,false,true,0.0-2.0-0.45-0.405-3.405,1,0,0,81,false,stim,false,2,393.0,0,0,2,74339,task3,1156223,false,false,1402,image-keyboard-response,19
true,22,0,1,2,false,d,true,false,0.0-2.0-0.45-0.406-3.406,1,0,0,81,false,stim,false,1,725.9000000953674,0,0,1,74339,task3,1158469,false,false,1405,image-keyboard-response,20
true,22,1,1,2,false,d,false,true,0.0-2.0-0.45-0.407-3.407,1,0,0,90,false,stim,true,1,522.3999998569489,0,0,1,74339,task3,1160523,false,true,1408,image-keyboard-response,21
true,22,1,1,1,true,z,false,true,0.0-2.0-0.45-0.408-3.408,1,0,0,90,false,stim,false,1,460.0,0,1,0,74339,task3,1162514,false,false,1411,image-keyboard-response,22
true,22,1,1,1,true,z,false,true,0.0-2.0-0.45-0.409-3.409,1,0,0,90,false,stim,false,1,356.80000019073486,0,1,0,74339,task3,1164402,false,false,1414,image-keyboard-response,23
true,22,1,1,2,false,d,false,false,0.0-2.0-0.45-0.410-3.410,1,0,0,90,false,stim,true,1,1136.0,0,1,1,74339,task3,1167062,false,false,1417,image-keyboard-response,24
true,22,0,1,0,true,q,false,true,0.0-2.0-0.45-0.411-3.411,1,0,0,81,false,stim,false,2,725.7000000476837,0,0,2,74339,task3,1169317,false,false,1420,image-keyboard-response,25
true,22,1,1,1,true,z,false,true,0.0-2.0-0.45-0.412-3.412,1,0,0,90,false,stim,false,1,527.0,0,0,0,74339,task3,1171366,false,false,1423,image-keyboard-response,26
true,22,1,1,0,false,q,true,false,0.0-2.0-0.45-0.413-3.413,1,0,0,90,false,stim,false,2,466.60000014305115,0,0,2,74339,task3,1173354,false,false,1426,image-keyboard-response,27
true,22,0,1,2,false,d,true,false,0.0-2.0-0.46-0.414-3.414,1,0,0,81,false,stim,false,1,852.6000001430511,0,1,1,74339,task3,1175730,false,false,1429,image-keyboard-response,28
true,23,1,1,2,false,d,true,false,0.0-2.0-0.46-0.415-3.415,0,1,0,90,true,stim,false,2,772.5,0,1,1,74339,task3,1178033,false,false,1432,image-keyboard-response,1
true,23,1,1,0,false,q,false,false,0.0-2.0-0.46-0.416-3.416,0,1,0,90,false,stim,true,1,535.0,0,0,0,74339,task3,1180102,false,false,1435,image-keyboard-response,2
true,23,1,1,0,false,q,false,false,0.0-2.0-0.46-0.417-3.417,0,1,0,90,false,stim,true,1,341.0,0,0,0,74339,task3,1181978,false,false,1438,image-keyboard-response,3
true,23,2,1,2,true,d,false,true,0.0-2.0-0.46-0.418-3.418,0,1,0,68,false,stim,false,2,703.9000000953674,0,1,1,74339,task3,1184190,false,false,1441,image-keyboard-response,4
true,23,1,1,0,false,q,false,false,0.0-2.0-0.46-0.419-3.419,0,1,0,90,false,stim,true,1,526.2000000476837,0,0,0,74339,task3,1186238,false,false,1444,image-keyboard-response,5
true,23,2,1,2,true,d,false,true,0.0-2.0-0.46-0.420-3.420,0,1,0,68,false,stim,false,0,629.9000000953674,0,0,2,74339,task3,1188381,false,false,1447,image-keyboard-response,6
true,23,2,1,2,true,d,false,false,0.0-2.0-0.46-0.421-3.421,0,1,0,68,false,stim,false,0,432.2999999523163,0,0,2,74339,task3,1190335,false,true,1450,image-keyboard-response,7
true,23,2,1,2,true,d,false,true,0.0-2.0-0.46-0.422-3.422,0,1,0,68,false,stim,false,0,484.40000009536743,0,0,2,74339,task3,1192342,false,false,1453,image-keyboard-response,8
true,23,2,1,2,true,d,false,true,0.0-2.0-0.47-0.423-3.423,0,1,0,68,false,stim,false,0,496.09999990463257,0,0,2,74339,task3,1194361,false,false,1456,image-keyboard-response,9
true,23,2,1,0,false,q,true,false,0.0-2.0-0.47-0.424-3.424,0,1,0,68,false,stim,false,1,956.6999998092651,0,0,0,74339,task3,1196844,false,false,1459,image-keyboard-response,10
true,23,1,1,2,false,d,true,false,0.0-2.0-0.47-0.425-3.425,0,1,0,90,false,stim,false,2,774.9000000953674,0,1,1,74339,task3,1199142,false,false,1462,image-keyboard-response,11
true,23,0,1,0,true,q,false,true,0.0-2.0-0.47-0.426-3.426,0,1,0,81,false,stim,false,1,515.5,0,0,0,74339,task3,1201185,false,false,1465,image-keyboard-response,12
true,23,2,1,2,true,d,false,true,0.0-2.0-0.47-0.427-3.427,0,1,0,68,false,stim,false,0,480.5,0,0,2,74339,task3,1203188,false,false,1468,image-keyboard-response,13
true,23,0,1,2,false,d,true,false,0.0-2.0-0.47-0.428-3.428,0,1,0,81,false,stim,false,2,393.59999990463257,0,1,1,74339,task3,1205108,false,false,1471,image-keyboard-response,14
true,23,0,1,0,true,q,false,false,0.0-2.0-0.47-0.429-3.429,0,1,0,81,false,stim,false,1,665.1999998092651,0,0,0,74339,task3,1207307,false,true,1474,image-keyboard-response,15
true,23,2,1,2,true,d,false,true,0.0-2.0-0.47-0.430-3.430,0,1,0,68,false,stim,false,0,574.0,0,0,2,74339,task3,1209412,false,false,1477,image-keyboard-response,16
true,23,2,1,2,true,d,false,true,0.0-2.0-0.47-0.431-3.431,0,1,0,68,false,stim,false,2,414.2000000476837,0,1,1,74339,task3,1211352,false,false,1480,image-keyboard-response,17
true,23,2,1,2,true,d,false,true,0.0-2.0-0.48-0.432-3.432,0,1,0,68,false,stim,false,2,421.59999990463257,0,1,1,74339,task3,1213305,false,false,1483,image-keyboard-response,18
true,23,2,1,2,true,d,false,false,0.0-2.0-0.48-0.433-3.433,0,1,0,68,false,stim,false,2,395.10000014305115,0,1,1,74339,task3,1215209,false,true,1486,image-keyboard-response,19
true,23,2,1,0,false,q,true,false,0.0-2.0-0.48-0.434-3.434,0,1,0,68,false,stim,false,1,554.6000001430511,0,0,0,74339,task3,1217292,false,false,1489,image-keyboard-response,20
true,23,0,1,0,true,q,false,true,0.0-2.0-0.48-0.435-3.435,0,1,0,81,false,stim,false,1,840.8999998569489,0,0,0,74339,task3,1219665,false,false,1492,image-keyboard-response,21
true,23,2,1,2,true,d,false,true,0.0-2.0-0.48-0.436-3.436,0,1,0,68,false,stim,false,0,631.5,0,0,2,74339,task3,1221811,false,false,1495,image-keyboard-response,22
true,23,0,1,0,true,q,false,true,0.0-2.0-0.48-0.437-3.437,0,1,0,81,false,stim,false,1,351.39999985694885,0,1,0,74339,task3,1223691,false,false,1498,image-keyboard-response,23
true,23,2,1,2,true,d,false,true,0.0-2.0-0.48-0.438-3.438,0,1,0,68,false,stim,false,0,160.79999995231628,0,0,2,74339,task3,1225400,false,false,1501,image-keyboard-response,24
true,23,2,1,2,true,d,false,true,0.0-2.0-0.48-0.439-3.439,0,1,0,68,false,stim,false,2,71.60000014305115,0,0,1,74339,task3,1227001,false,false,1504,image-keyboard-response,25
true,23,2,1,2,true,d,false,true,0.0-2.0-0.48-0.440-3.440,0,1,0,68,false,stim,false,0,490.80000019073486,0,0,2,74339,task3,1229020,false,false,1507,image-keyboard-response,26
true,24,2,1,0,false,q,false,true,0.0-2.0-0.49-0.441-3.441,1,0,0,68,true,stim,true,2,429.40000009536743,0,0,1,74339,task3,1230981,false,true,1510,image-keyboard-response,1
true,24,2,1,1,false,z,false,true,0.0-2.0-0.49-0.442-3.442,1,0,0,68,false,stim,true,2,442.19999980926514,0,0,2,74339,task3,1232954,false,true,1513,image-keyboard-response,2
true,24,0,1,0,true,q,false,true,0.0-2.0-0.49-0.443-3.443,1,0,0,81,false,stim,false,0,470.5,0,1,0,74339,task3,1234957,false,false,1516,image-keyboard-response,3
true,24,0,1,0,true,q,false,true,0.0-2.0-0.49-0.444-3.444,1,0,0,81,false,stim,false,0,946.2999999523163,0,1,0,74339,task3,1237424,false,false,1519,image-keyboard-response,4
true,24,2,1,0,false,q,false,false,0.0-2.0-0.49-0.445-3.445,1,0,0,68,false,stim,true,2,543.3000001907349,0,0,1,74339,task3,1239482,false,false,1522,image-keyboard-response,5
true,24,2,1,0,false,q,true,false,0.0-2.0-0.49-0.446-3.446,1,0,0,68,false,stim,false,0,356.2000000476837,0,1,0,74339,task3,1241365,false,false,1525,image-keyboard-response,6
true,24,2,1,1,false,z,false,false,0.0-2.0-0.49-0.447-3.447,1,0,0,68,false,stim,true,2,659.2999999523163,0,0,2,74339,task3,1243536,false,false,1528,image-keyboard-response,7
true,24,0,1,1,false,z,true,false,0.0-2.0-0.49-0.448-3.448,1,0,0,81,false,stim,false,2,553.4000000953674,0,0,2,74339,task3,1245623,false,false,1531,image-keyboard-response,8
true,24,1,1,0,false,q,true,false,0.0-2.0-0.49-0.449-3.449,1,0,0,90,false,stim,false,2,471.09999990463257,0,0,1,74339,task3,1247613,false,false,1534,image-keyboard-response,9
true,24,0,1,1,false,z,true,false,0.0-2.0-0.50-0.450-3.450,1,0,0,81,false,stim,false,2,469.59999990463257,0,0,2,74339,task3,1249615,false,false,1537,image-keyboard-response,10
true,24,0,1,0,true,q,false,true,0.0-2.0-0.50-0.451-3.451,1,0,0,81,false,stim,false,0,735.7000000476837,0,1,0,74339,task3,1251872,false,false,1540,image-keyboard-response,11
true,24,1,1,1,true,z,false,true,0.0-2.0-0.50-0.452-3.452,1,0,0,90,false,stim,false,2,507.0,0,0,2,74339,task3,1253901,false,false,1543,image-keyboard-response,12
true,24,1,1,1,true,z,false,true,0.0-2.0-0.50-0.453-3.453,1,0,0,90,false,stim,false,2,616.9000000953674,0,0,2,74339,task3,1256034,false,false,1546,image-keyboard-response,13
true,24,1,1,0,false,q,true,false,0.0-2.0-0.50-0.454-3.454,1,0,0,90,false,stim,false,2,429.59999990463257,0,0,1,74339,task3,1257994,false,false,1549,image-keyboard-response,14
true,24,0,1,0,true,q,false,true,0.0-2.0-0.50-0.455-3.455,1,0,0,81,false,stim,false,0,1996.2999999523163,0,1,0,74339,task3,1261521,false,false,1552,image-keyboard-response,15
true,24,2,1,0,false,q,false,false,0.0-2.0-0.50-0.456-3.456,1,0,0,68,false,stim,true,2,697.0999999046326,0,0,1,74339,task3,1263737,false,false,1555,image-keyboard-response,16
true,24,0,1,0,true,q,false,true,0.0-2.0-0.50-0.457-3.457,1,0,0,81,false,stim,false,0,402.59999990463257,0,1,0,74339,task3,1265667,false,false,1558,image-keyboard-response,17
true,24,1,1,0,false,q,true,false,0.0-2.0-0.50-0.458-3.458,1,0,0,90,false,stim,false,2,602.9000000953674,0,0,1,74339,task3,1267793,false,false,1561,image-keyboard-response,18
true,24,0,1,0,true,q,false,true,0.0-2.0-0.51-0.459-3.459,1,0,0,81,false,stim,false,2,351.39999985694885,0,0,1,74339,task3,1269660,false,false,1564,image-keyboard-response,19
true,24,0,1,0,true,q,false,true,0.0-2.0-0.51-0.460-3.460,1,0,0,81,false,stim,false,2,352.90000009536743,0,0,1,74339,task3,1271541,false,false,1567,image-keyboard-response,20
true,24,0,1,0,true,q,false,true,0.0-2.0-0.51-0.461-3.461,1,0,0,81,false,stim,false,2,320.7000000476837,0,0,1,74339,task3,1273379,false,false,1570,image-keyboard-response,21
true,24,0,1,0,true,q,false,true,0.0-2.0-0.51-0.462-3.462,1,0,0,81,false,stim,false,0,486.2000000476837,0,1,0,74339,task3,1275393,false,false,1573,image-keyboard-response,22
true,24,0,1,0,true,q,false,true,0.0-2.0-0.51-0.463-3.463,1,0,0,81,false,stim,false,0,557.7000000476837,0,1,0,74339,task3,1277484,false,false,1576,image-keyboard-response,23
true,25,2,1,0,false,q,true,false,0.0-2.0-0.51-0.464-3.464,1,0,0,68,true,stim,false,1,1046.7999999523163,0,0,2,74339,task3,1280059,false,false,1579,image-keyboard-response,1
true,25,0,1,0,true,q,false,true,0.0-2.0-0.51-0.465-3.465,1,0,0,81,false,stim,false,0,564.2000000476837,0,1,0,74339,task3,1282134,false,false,1582,image-keyboard-response,2
true,25,0,1,0,true,q,false,true,0.0-2.0-0.51-0.466-3.466,1,0,0,81,false,stim,false,1,530.4000000953674,0,0,2,74339,task3,1284198,false,false,1585,image-keyboard-response,3
true,25,0,1,0,true,q,false,true,0.0-2.0-0.51-0.467-3.467,1,0,0,81,false,stim,false,1,495.7000000476837,0,0,2,74339,task3,1286217,false,false,1588,image-keyboard-response,4
true,25,0,1,2,false,d,false,false,0.0-2.0-0.52-0.468-3.468,1,0,0,81,false,stim,true,0,629.2000000476837,0,0,1,74339,task3,1288373,false,false,1591,image-keyboard-response,5
true,25,0,1,0,true,q,false,true,0.0-2.0-0.52-0.469-3.469,1,0,0,81,false,stim,false,1,452.5,0,0,2,74339,task3,1290344,false,false,1594,image-keyboard-response,6
true,25,0,1,0,true,q,false,true,0.0-2.0-0.52-0.470-3.470,1,0,0,81,false,stim,false,0,930.2000000476837,0,1,0,74339,task3,1292799,false,false,1597,image-keyboard-response,7
true,25,1,1,2,false,d,true,true,0.0-2.0-0.52-0.471-3.471,1,0,0,90,false,stim,false,0,819.2000000476837,0,0,1,74339,task3,1295136,false,true,1600,image-keyboard-response,8
true,25,0,1,0,true,q,false,true,0.0-2.0-0.52-0.472-3.472,1,0,0,81,false,stim,false,0,438.2999999523163,0,1,0,74339,task3,1297119,false,false,1603,image-keyboard-response,9
true,25,0,1,0,true,q,false,false,0.0-2.0-0.52-0.473-3.473,1,0,0,81,false,stim,false,0,415.80000019073486,0,1,0,74339,task3,1299057,false,true,1606,image-keyboard-response,10
true,25,0,1,0,true,q,false,true,0.0-2.0-0.52-0.474-3.474,1,0,0,81,false,stim,false,1,739.5,0,1,2,74339,task3,1301323,false,false,1609,image-keyboard-response,11
true,25,1,1,2,false,d,true,false,0.0-2.0-0.52-0.475-3.475,1,0,0,90,false,stim,false,0,895.7999999523163,0,1,1,74339,task3,1303739,false,false,1612,image-keyboard-response,12
true,25,0,1,0,true,q,false,true,0.0-2.0-0.52-0.476-3.476,1,0,0,81,false,stim,false,1,418.80000019073486,0,1,2,74339,task3,1305691,false,false,1615,image-keyboard-response,13
true,25,0,1,2,false,d,false,false,0.0-2.0-0.53-0.477-3.477,1,0,0,81,false,stim,true,0,474.7000000476837,0,1,1,74339,task3,1307691,false,false,1618,image-keyboard-response,14
true,26,0,0,2,false,d,true,false,0.0-2.0-0.53-0.478-3.478,1,1,1,81,true,stim,false,2,790.5,0,1,1,74339,task3,1430548,false,false,1741,image-keyboard-response,1
true,26,0,0,2,false,d,true,true,0.0-2.0-0.53-0.479-3.479,1,1,1,81,false,stim,false,2,586.7000000476837,0,1,1,74339,task3,1432648,false,true,1744,image-keyboard-response,2
true,26,0,0,0,true,q,false,true,0.0-2.0-0.53-0.480-3.480,1,1,1,81,false,stim,false,0,514.7999999523163,0,1,0,74339,task3,1434692,false,false,1747,image-keyboard-response,3
true,26,1,0,0,false,q,true,false,0.0-2.0-0.53-0.481-3.481,1,1,1,90,false,stim,false,0,548.3999998569489,0,1,2,74339,task3,1436764,false,false,1750,image-keyboard-response,4
true,26,0,0,0,true,q,false,true,0.0-2.0-0.53-0.482-3.482,1,1,1,81,false,stim,false,0,571.1000001430511,0,1,2,74339,task3,1438857,false,false,1753,image-keyboard-response,5
true,26,0,0,0,true,q,false,true,0.0-2.0-0.53-0.483-3.483,1,1,1,81,false,stim,false,0,446.30000019073486,0,1,2,74339,task3,1440834,false,false,1756,image-keyboard-response,6
true,26,0,0,0,true,q,false,true,0.0-2.0-0.53-0.484-3.484,1,1,1,81,false,stim,false,0,373.0,0,1,0,74339,task3,1442736,false,false,1759,image-keyboard-response,7
true,26,0,0,0,true,q,false,false,0.0-2.0-0.53-0.485-3.485,1,1,1,81,false,stim,false,0,229.80000019073486,0,1,0,74339,task3,1444487,false,true,1762,image-keyboard-response,8
true,26,0,0,0,true,q,false,true,0.0-2.0-0.54-0.486-3.486,1,1,1,81,false,stim,false,0,432.5,0,1,2,74339,task3,1446449,false,false,1765,image-keyboard-response,9
true,26,0,0,2,false,d,true,false,0.0-2.0-0.54-0.487-3.487,1,1,1,81,false,stim,false,2,267.39999985694885,0,1,1,74339,task3,1448242,false,false,1768,image-keyboard-response,10
true,26,0,0,0,true,q,false,true,0.0-2.0-0.54-0.488-3.488,1,1,1,81,false,stim,false,0,381.39999985694885,0,1,0,74339,task3,1450129,false,false,1771,image-keyboard-response,11
true,26,0,0,0,true,q,false,true,0.0-2.0-0.54-0.489-3.489,1,1,1,81,false,stim,false,0,612.2000000476837,0,0,2,74339,task3,1452271,false,false,1774,image-keyboard-response,12
true,26,0,0,0,true,q,false,true,0.0-2.0-0.54-0.490-3.490,1,1,1,81,false,stim,false,0,421.09999990463257,0,1,0,74339,task3,1454212,false,false,1777,image-keyboard-response,13
true,26,0,0,0,true,q,false,true,0.0-2.0-0.54-0.491-3.491,1,1,1,81,false,stim,false,0,356.5,0,1,0,74339,task3,1456092,false,false,1780,image-keyboard-response,14
true,26,0,0,2,false,d,true,false,0.0-2.0-0.54-0.492-3.492,1,1,1,81,false,stim,false,2,396.90000009536743,0,1,1,74339,task3,1458014,false,false,1783,image-keyboard-response,15
true,27,1,2,2,false,d,true,true,0.0-2.0-0.54-0.493-3.493,1,1,0,90,true,stim,false,2,646.6000001430511,0,1,1,74339,task3,1460191,false,true,1786,image-keyboard-response,1
true,27,0,2,1,false,z,false,false,0.0-2.0-0.54-0.494-3.494,1,1,0,81,false,stim,true,0,387.09999990463257,0,0,2,74339,task3,1462096,false,false,1789,image-keyboard-response,2
true,27,1,2,2,false,d,true,false,0.0-2.0-0.55-0.495-3.495,1,1,0,90,false,stim,false,2,654.3000001907349,0,1,1,74339,task3,1464276,false,false,1792,image-keyboard-response,3
true,27,0,2,1,false,z,false,true,0.0-2.0-0.55-0.496-3.496,1,1,0,81,false,stim,true,0,526.0,0,0,2,74339,task3,1466326,false,true,1795,image-keyboard-response,4
true,27,0,2,1,false,z,false,false,0.0-2.0-0.55-0.497-3.497,1,1,0,81,false,stim,true,0,525.9000000953674,0,0,2,74339,task3,1468366,false,false,1798,image-keyboard-response,5
true,27,1,2,1,true,z,false,true,0.0-2.0-0.55-0.498-3.498,1,1,0,90,false,stim,false,0,686.4000000953674,0,0,2,74339,task3,1470590,false,false,1801,image-keyboard-response,6
true,27,1,2,2,false,d,true,false,0.0-2.0-0.55-0.499-3.499,1,1,0,90,false,stim,false,2,794.8999998569489,0,1,1,74339,task3,1472915,false,false,1804,image-keyboard-response,7
true,27,1,2,2,false,d,true,false,0.0-2.0-0.55-0.500-3.500,1,1,0,90,false,stim,false,2,532.7999999523163,0,1,1,74339,task3,1474972,false,false,1807,image-keyboard-response,8
true,27,0,2,0,true,q,false,true,0.0-2.0-0.55-0.501-3.501,1,1,0,81,false,stim,false,0,470.30000019073486,0,1,0,74339,task3,1476963,false,false,1810,image-keyboard-response,9
true,27,0,2,0,true,q,false,true,0.0-2.0-0.55-0.502-3.502,1,1,0,81,false,stim,false,0,333.7000000476837,0,1,0,74339,task3,1478818,false,false,1813,image-keyboard-response,10
true,27,0,2,0,true,q,false,true,0.0-2.0-0.55-0.503-3.503,1,1,0,81,false,stim,false,0,318.7000000476837,0,1,0,74339,task3,1480658,false,false,1816,image-keyboard-response,11
true,27,2,2,2,true,d,false,false,0.0-2.0-0.56-0.504-3.504,1,1,0,68,false,stim,false,2,1243.6000001430511,0,1,1,74339,task3,1483428,false,true,1819,image-keyboard-response,12
true,27,1,2,1,true,z,false,true,0.0-2.0-0.56-0.505-3.505,1,1,0,90,false,stim,false,0,691.0999999046326,0,0,2,74339,task3,1485649,false,false,1822,image-keyboard-response,13
true,27,0,2,0,true,q,false,true,0.0-2.0-0.56-0.506-3.506,1,1,0,81,false,stim,false,0,508.60000014305115,0,1,0,74339,task3,1487693,false,false,1825,image-keyboard-response,14
true,27,0,2,2,false,d,true,true,0.0-2.0-0.56-0.507-3.507,1,1,0,81,false,stim,false,2,447.89999985694885,0,1,1,74339,task3,1489670,false,true,1828,image-keyboard-response,15
true,27,0,2,0,true,q,false,true,0.0-2.0-0.56-0.508-3.508,1,1,0,81,false,stim,false,0,510.2000000476837,0,1,0,74339,task3,1491709,false,false,1831,image-keyboard-response,16
true,27,0,2,2,false,d,true,false,0.0-2.0-0.56-0.509-3.509,1,1,0,81,false,stim,false,2,478.40000009536743,0,1,1,74339,task3,1493717,false,false,1834,image-keyboard-response,17
true,27,0,2,1,false,z,false,false,0.0-2.0-0.56-0.510-3.510,1,1,0,81,false,stim,true,0,555.6000001430511,0,0,2,74339,task3,1495801,false,false,1837,image-keyboard-response,18
true,27,1,2,1,true,z,false,true,0.0-2.0-0.56-0.511-3.511,1,1,0,90,false,stim,false,0,795.1000001430511,0,0,2,74339,task3,1498112,false,false,1840,image-keyboard-response,19
true,27,0,2,0,true,q,false,false,0.0-2.0-0.56-0.512-3.512,1,1,0,81,false,stim,false,0,473.2999999523163,0,1,0,74339,task3,1500094,false,true,1843,image-keyboard-response,20
true,27,1,2,1,true,z,false,true,0.0-2.0-0.57-0.513-3.513,1,1,0,90,false,stim,false,0,480.59999990463257,0,0,2,74339,task3,1502107,false,false,1846,image-keyboard-response,21
true,27,1,2,0,false,q,true,false,0.0-2.0-0.57-0.514-3.514,1,1,0,90,false,stim,false,0,416.59999990463257,0,1,0,74339,task3,1504049,false,false,1849,image-keyboard-response,22
true,27,1,2,2,false,d,true,false,0.0-2.0-0.57-0.515-3.515,1,1,0,90,false,stim,false,2,576.0999999046326,0,1,1,74339,task3,1506154,false,false,1852,image-keyboard-response,23
true,27,0,2,2,false,d,true,false,0.0-2.0-0.57-0.516-3.516,1,1,0,81,false,stim,false,2,423.7999999523163,0,1,1,74339,task3,1508101,false,false,1855,image-keyboard-response,24
true,27,2,2,2,true,d,false,true,0.0-2.0-0.57-0.517-3.517,1,1,0,68,false,stim,false,2,384.40000009536743,0,0,1,74339,task3,1510005,false,false,1858,image-keyboard-response,25
true,27,0,2,0,true,q,false,true,0.0-2.0-0.57-0.518-3.518,1,1,0,81,false,stim,false,0,685.7999999523163,0,1,0,74339,task3,1512219,false,false,1861,image-keyboard-response,26
true,27,1,2,1,true,z,false,true,0.0-2.0-0.57-0.519-3.519,1,1,0,90,false,stim,false,0,525.2000000476837,0,0,2,74339,task3,1514258,false,false,1864,image-keyboard-response,27
true,27,0,2,0,true,q,false,true,0.0-2.0-0.57-0.520-3.520,1,1,0,81,false,stim,false,0,511.40000009536743,0,1,0,74339,task3,1516292,false,false,1867,image-keyboard-response,28
true,27,1,2,1,true,z,false,true,0.0-2.0-0.57-0.521-3.521,1,1,0,90,false,stim,false,0,826.4000000953674,0,0,2,74339,task3,1518646,false,false,1870,image-keyboard-response,29
true,28,2,1,0,false,q,false,false,0.0-2.0-0.58-0.522-3.522,1,0,0,68,true,stim,true,2,490.7999999523163,0,0,1,74339,task3,1520663,false,false,1873,image-keyboard-response,1
true,28,1,1,2,false,d,false,false,0.0-2.0-0.58-0.523-3.523,1,0,0,90,false,stim,true,1,453.2999999523163,0,0,2,74339,task3,1522633,false,false,1876,image-keyboard-response,2
true,28,0,1,0,true,q,false,true,0.0-2.0-0.58-0.524-3.524,1,0,0,81,false,stim,false,0,496.19999980926514,0,1,0,74339,task3,1524650,false,false,1879,image-keyboard-response,3
true,28,0,1,0,true,q,false,true,0.0-2.0-0.58-0.525-3.525,1,0,0,81,false,stim,false,0,469.2999999523163,0,1,0,74339,task3,1526646,false,false,1882,image-keyboard-response,4
true,28,0,1,2,false,d,true,false,0.0-2.0-0.58-0.526-3.526,1,0,0,81,false,stim,false,1,373.2000000476837,0,0,2,74339,task3,1528542,false,false,1885,image-keyboard-response,5
true,28,2,1,0,false,q,false,false,0.0-2.0-0.58-0.527-3.527,1,0,0,68,false,stim,true,2,892.1000001430511,0,0,1,74339,task3,1530956,false,false,1888,image-keyboard-response,6
true,28,1,1,0,false,q,true,false,0.0-2.0-0.58-0.528-3.528,1,0,0,90,false,stim,false,2,439.69999980926514,0,0,1,74339,task3,1532919,false,false,1891,image-keyboard-response,7
true,28,0,1,0,true,q,false,true,0.0-2.0-0.58-0.529-3.529,1,0,0,81,false,stim,false,0,507.7999999523163,0,1,0,74339,task3,1534947,false,false,1894,image-keyboard-response,8
true,28,1,1,2,false,d,false,true,0.0-2.0-0.58-0.530-3.530,1,0,0,90,false,stim,true,1,610.2000000476837,0,0,2,74339,task3,1537071,false,true,1897,image-keyboard-response,9
true,28,0,1,0,true,q,false,true,0.0-2.0-0.59-0.531-3.531,1,0,0,81,false,stim,false,2,508.7000000476837,0,0,1,74339,task3,1539102,false,false,1900,image-keyboard-response,10
true,28,0,1,0,true,q,false,true,0.0-2.0-0.59-0.532-3.532,1,0,0,81,false,stim,false,2,400.0,0,1,1,74339,task3,1541047,false,false,1903,image-keyboard-response,11
true,28,1,1,2,false,d,false,false,0.0-2.0-0.59-0.533-3.533,1,0,0,90,false,stim,true,1,603.0999999046326,0,1,2,74339,task3,1543179,false,false,1906,image-keyboard-response,12
true,28,0,1,0,true,q,false,true,0.0-2.0-0.59-0.534-3.534,1,0,0,81,false,stim,false,0,455.39999985694885,0,0,0,74339,task3,1545165,false,false,1909,image-keyboard-response,13
true,28,0,1,0,true,q,false,true,0.0-2.0-0.59-0.535-3.535,1,0,0,81,false,stim,false,0,415.59999990463257,0,0,0,74339,task3,1547114,false,false,1912,image-keyboard-response,14
true,28,0,1,2,false,d,true,false,0.0-2.0-0.59-0.536-3.536,1,0,0,81,false,stim,false,1,648.2000000476837,0,1,2,74339,task3,1549290,false,false,1915,image-keyboard-response,15
true,29,0,2,1,false,z,false,false,0.0-2.0-0.59-0.537-3.537,0,1,1,81,true,stim,true,0,498.2000000476837,0,0,0,74339,task3,1551308,false,false,1918,image-keyboard-response,1
true,29,1,2,0,false,q,true,true,0.0-2.0-0.59-0.538-3.538,0,1,1,90,false,stim,false,0,757.8000001907349,0,1,1,74339,task3,1553602,false,true,1921,image-keyboard-response,2
true,29,1,2,2,false,d,true,false,0.0-2.0-0.59-0.539-3.539,0,1,1,90,false,stim,false,2,508.59999990463257,0,1,2,74339,task3,1555643,false,false,1924,image-keyboard-response,3
true,29,1,2,0,false,q,true,true,0.0-2.0-0.60-0.540-3.540,0,1,1,90,false,stim,false,0,390.59999990463257,0,1,1,74339,task3,1557548,false,true,1927,image-keyboard-response,4
true,29,0,2,1,false,z,false,false,0.0-2.0-0.60-0.541-3.541,0,1,1,81,false,stim,true,0,522.8999998569489,0,0,0,74339,task3,1559591,false,false,1930,image-keyboard-response,5
true,29,2,2,2,true,d,false,true,0.0-2.0-0.60-0.542-3.542,0,1,1,68,false,stim,false,2,1035.5999999046326,0,1,2,74339,task3,1562151,false,false,1933,image-keyboard-response,6
true,29,1,2,1,true,z,false,true,0.0-2.0-0.60-0.543-3.543,0,1,1,90,false,stim,false,0,700.0,0,0,0,74339,task3,1564378,false,false,1936,image-keyboard-response,7
true,29,2,2,2,true,d,false,true,0.0-2.0-0.60-0.544-3.544,0,1,1,68,false,stim,false,2,568.7000000476837,0,1,2,74339,task3,1566475,false,false,1939,image-keyboard-response,8
true,29,2,2,0,false,q,true,true,0.0-2.0-0.60-0.545-3.545,0,1,1,68,false,stim,false,0,833.1000001430511,0,1,1,74339,task3,1568824,false,true,1942,image-keyboard-response,9
true,29,2,2,2,true,d,false,true,0.0-2.0-0.60-0.546-3.546,0,1,1,68,false,stim,false,2,866.6000001430511,0,1,2,74339,task3,1571209,false,false,1945,image-keyboard-response,10
true,29,2,2,0,false,q,true,false,0.0-2.0-0.60-0.547-3.547,0,1,1,68,false,stim,false,0,366.7999999523163,0,0,1,74339,task3,1573108,false,false,1948,image-keyboard-response,11
true,29,1,2,1,true,z,false,true,0.0-2.0-0.60-0.548-3.548,0,1,1,90,false,stim,false,0,692.5,0,1,0,74339,task3,1575315,false,false,1951,image-keyboard-response,12
true,29,1,2,1,true,z,false,true,0.0-2.0-0.61-0.549-3.549,0,1,1,90,false,stim,false,0,581.7999999523163,0,1,0,74339,task3,1577430,false,false,1954,image-keyboard-response,13
true,29,1,2,0,false,q,true,false,0.0-2.0-0.61-0.550-3.550,0,1,1,90,false,stim,false,0,626.1000001430511,0,0,1,74339,task3,1579592,false,false,1957,image-keyboard-response,14
true,29,2,2,2,true,d,false,true,0.0-2.0-0.61-0.551-3.551,0,1,1,68,false,stim,false,2,543.4000000953674,0,1,2,74339,task3,1581656,false,false,1960,image-keyboard-response,15
true,30,1,2,1,true,z,false,true,0.0-2.0-0.61-0.552-3.552,1,0,1,90,true,stim,false,1,694.2000000476837,0,1,0,74339,task3,1583864,false,false,1963,image-keyboard-response,1
true,30,1,2,1,true,z,false,true,0.0-2.0-0.61-0.553-3.553,1,0,1,90,false,stim,false,1,372.59999990463257,0,1,0,74339,task3,1585764,false,false,1966,image-keyboard-response,2
true,30,0,2,2,false,d,true,false,0.0-2.0-0.61-0.554-3.554,1,0,1,81,false,stim,false,2,885.9000000953674,0,1,2,74339,task3,1588174,false,false,1969,image-keyboard-response,3
true,30,1,2,2,false,d,true,false,0.0-2.0-0.61-0.555-3.555,1,0,1,90,false,stim,false,0,494.69999980926514,0,0,1,74339,task3,1590184,false,false,1972,image-keyboard-response,4
true,30,2,2,2,true,d,false,true,0.0-2.0-0.61-0.556-3.556,1,0,1,68,false,stim,false,2,634.8999998569489,0,1,2,74339,task3,1592346,false,false,1975,image-keyboard-response,5
true,30,2,2,2,true,d,false,true,0.0-2.0-0.61-0.557-3.557,1,0,1,68,false,stim,false,0,577.1999998092651,0,0,1,74339,task3,1594451,false,false,1978,image-keyboard-response,6
true,30,1,2,1,true,z,false,true,0.0-2.0-0.62-0.558-3.558,1,0,1,90,false,stim,false,1,765.5999999046326,0,1,0,74339,task3,1596741,false,false,1981,image-keyboard-response,7
true,30,2,2,2,true,d,false,true,0.0-2.0-0.62-0.559-3.559,1,0,1,68,false,stim,false,2,476.89999985694885,0,1,2,74339,task3,1598741,false,false,1984,image-keyboard-response,8
true,30,2,2,2,true,d,false,false,0.0-2.0-0.62-0.560-3.560,1,0,1,68,false,stim,false,0,2009.4000000953674,0,0,1,74339,task3,1602265,false,true,1987,image-keyboard-response,9
true,30,2,2,2,true,d,false,true,0.0-2.0-0.62-0.561-3.561,1,0,1,68,false,stim,false,0,439.7000000476837,0,0,1,74339,task3,1604240,false,false,1990,image-keyboard-response,10
true,30,2,2,2,true,d,false,false,0.0-2.0-0.62-0.562-3.562,1,0,1,68,false,stim,false,2,436.7000000476837,0,1,2,74339,task3,1606211,false,true,1993,image-keyboard-response,11
true,30,1,2,1,true,z,false,true,0.0-2.0-0.62-0.563-3.563,1,0,1,90,false,stim,false,1,435.2999999523163,0,1,0,74339,task3,1608170,false,false,1996,image-keyboard-response,12
true,30,1,2,2,false,d,true,false,0.0-2.0-0.62-0.564-3.564,1,0,1,90,false,stim,false,0,405.89999985694885,0,0,1,74339,task3,1610101,false,false,1999,image-keyboard-response,13
true,30,1,2,2,false,d,true,false,0.0-2.0-0.62-0.565-3.565,1,0,1,90,false,stim,false,2,450.80000019073486,0,1,2,74339,task3,1612073,false,false,2002,image-keyboard-response,14
true,30,1,2,1,true,z,false,true,0.0-2.0-0.62-0.566-3.566,1,0,1,90,false,stim,false,1,491.5,0,1,0,74339,task3,1614089,false,false,2005,image-keyboard-response,15
true,30,2,2,2,true,d,false,true,0.0-2.0-0.63-0.567-3.567,1,0,1,68,false,stim,false,0,606.0,0,0,1,74339,task3,1616226,false,false,2008,image-keyboard-response,16
true,30,1,2,1,true,z,false,true,0.0-2.0-0.63-0.568-3.568,1,0,1,90,false,stim,false,1,473.7999999523163,0,1,0,74339,task3,1618225,false,false,2011,image-keyboard-response,17
true,30,0,2,2,false,d,true,false,0.0-2.0-0.63-0.569-3.569,1,0,1,81,false,stim,false,2,577.2000000476837,0,1,2,74339,task3,1620324,false,false,2014,image-keyboard-response,18
true,30,1,2,2,false,d,true,false,0.0-2.0-0.63-0.570-3.570,1,0,1,90,false,stim,false,2,700.7999999523163,0,1,2,74339,task3,1622547,false,false,2017,image-keyboard-response,19
true,30,1,2,1,true,z,false,false,0.0-2.0-0.63-0.571-3.571,1,0,1,90,false,stim,false,1,523.7000000476837,0,1,0,74339,task3,1624594,false,true,2020,image-keyboard-response,20
true,30,2,2,2,true,d,false,true,0.0-2.0-0.63-0.572-3.572,1,0,1,68,false,stim,false,0,383.40000009536743,0,0,1,74339,task3,1626508,false,false,2023,image-keyboard-response,21
true,30,2,2,2,true,d,false,false,0.0-2.0-0.63-0.573-3.573,1,0,1,68,false,stim,false,0,380.90000009536743,0,0,1,74339,task3,1628418,false,true,2026,image-keyboard-response,22
true,30,2,2,1,false,z,true,true,0.0-2.0-0.63-0.574-3.574,1,0,1,68,false,stim,false,1,411.09999990463257,0,1,0,74339,task3,1630362,false,true,2029,image-keyboard-response,23
true,30,2,2,2,true,d,false,false,0.0-2.0-0.63-0.575-3.575,1,0,1,68,false,stim,false,2,266.0,0,0,2,74339,task3,1632161,false,true,2032,image-keyboard-response,24
true,31,2,1,1,false,z,true,false,0.0-2.0-0.64-0.576-3.576,1,0,0,68,true,stim,false,1,252.5,0,1,0,74339,task3,1633935,false,false,2035,image-keyboard-response,1
true,31,2,1,0,false,q,false,true,0.0-2.0-0.64-0.577-3.577,1,0,0,68,false,stim,true,2,571.5,0,0,2,74339,task3,1636040,false,true,2038,image-keyboard-response,2
true,31,2,1,0,false,q,false,false,0.0-2.0-0.64-0.578-3.578,1,0,0,68,false,stim,true,2,395.7999999523163,0,0,1,74339,task3,1637964,false,false,2041,image-keyboard-response,3
true,31,2,1,0,false,q,false,false,0.0-2.0-0.64-0.579-3.579,1,0,0,68,false,stim,true,2,855.7000000476837,0,0,2,74339,task3,1640354,false,false,2044,image-keyboard-response,4
true,31,1,1,1,true,z,false,true,0.0-2.0-0.64-0.580-3.580,1,0,0,90,false,stim,false,1,643.7999999523163,0,1,0,74339,task3,1642525,false,false,2047,image-keyboard-response,5
true,31,1,1,1,true,z,false,true,0.0-2.0-0.64-0.581-3.581,1,0,0,90,false,stim,false,1,431.7000000476837,0,1,0,74339,task3,1644492,false,false,2050,image-keyboard-response,6
true,31,2,1,0,false,q,false,true,0.0-2.0-0.64-0.582-3.582,1,0,0,68,false,stim,true,2,754.7999999523163,0,0,1,74339,task3,1646775,false,true,2053,image-keyboard-response,7
true,31,2,1,0,false,q,false,false,0.0-2.0-0.64-0.583-3.583,1,0,0,68,false,stim,true,2,394.09999990463257,0,0,1,74339,task3,1648687,false,false,2056,image-keyboard-response,8
true,31,2,1,0,false,q,false,false,0.0-2.0-0.64-0.584-3.584,1,0,0,68,false,stim,true,2,696.7000000476837,0,0,2,74339,task3,1650918,false,false,2059,image-keyboard-response,9
true,31,1,1,0,false,q,true,false,0.0-2.0-0.65-0.585-3.585,1,0,0,90,false,stim,false,2,702.5,0,0,2,74339,task3,1653149,false,false,2062,image-keyboard-response,10
true,31,2,1,0,false,q,false,false,0.0-2.0-0.65-0.586-3.586,1,0,0,68,false,stim,true,2,614.7000000476837,0,0,1,74339,task3,1655289,false,false,2065,image-keyboard-response,11
true,31,1,1,1,true,z,false,true,0.0-2.0-0.65-0.587-3.587,1,0,0,90,false,stim,false,1,501.7999999523163,0,1,0,74339,task3,1657311,false,false,2068,image-keyboard-response,12
true,31,1,1,1,true,z,false,true,0.0-2.0-0.65-0.588-3.588,1,0,0,90,false,stim,false,1,636.5999999046326,0,1,0,74339,task3,1659481,false,false,2071,image-keyboard-response,13
true,31,2,1,0,false,q,false,false,0.0-2.0-0.65-0.589-3.589,1,0,0,68,false,stim,true,2,507.7000000476837,0,0,1,74339,task3,1661500,false,false,2074,image-keyboard-response,14
