answered,blockNum,choice,condition,corResp,correct,correct_response,explo,fb,internal_node_id,isStable_1,isStable_2,isStable_3,key_press,newBlock,part,persev,persevResp,rt,sessNum,stableAS,stimulus,subject,task,time_elapsed,training,trap,trial_index,trial_type,trialsInBlock
true,1,1,0,2,false,d,true,false,0.0-2.0-0.0-0.0-3.0,0,0,0,90,true,stim,false,-1,1665,0,0,1,75178,task3,252477,false,false,186,image-keyboard-response,1
true,1,1,0,0,false,q,true,false,0.0-2.0-0.0-0.1-3.1,0,0,0,90,false,stim,false,-1,947,0,0,0,75178,task3,254945,false,false,189,image-keyboard-response,2
true,1,1,0,1,true,z,false,true,0.0-2.0-0.0-0.2-3.2,0,0,0,90,false,stim,false,-1,528,0,0,2,75178,task3,256989,false,false,192,image-keyboard-response,3
true,1,0,0,2,false,d,true,false,0.0-2.0-0.0-0.3-3.3,0,0,0,81,false,stim,false,-1,1463,0,0,1,75178,task3,259974,false,false,195,image-keyboard-response,4
true,1,2,0,2,true,d,false,true,0.0-2.0-0.0-0.4-3.4,0,0,0,68,false,stim,false,-1,1156,0,0,1,75178,task3,262666,false,false,198,image-keyboard-response,5
true,1,1,0,1,true,z,false,true,0.0-2.0-0.0-0.5-3.5,0,0,0,90,false,stim,false,-1,697,0,0,2,75178,task3,264883,false,false,201,image-keyboard-response,6
true,1,0,0,0,true,q,false,true,0.0-2.0-0.0-0.6-3.6,0,0,0,81,false,stim,false,-1,891,0,0,0,75178,task3,267312,false,false,204,image-keyboard-response,7
true,1,2,0,1,false,z,true,false,0.0-2.0-0.0-0.7-3.7,0,0,0,68,false,stim,false,-1,2674,0,0,2,75178,task3,271506,false,false,207,image-keyboard-response,8
true,1,0,0,0,true,q,false,true,0.0-2.0-0.0-0.8-3.8,0,0,0,81,false,stim,false,-1,1095,0,0,0,75178,task3,274128,false,false,210,image-keyboard-response,9
true,1,1,0,1,true,z,false,true,0.0-2.0-0.1-0.9-3.9,0,0,0,90,false,stim,false,-1,1100,0,0,2,75178,task3,276761,false,false,213,image-keyboard-response,10
true,1,2,0,2,true,d,false,true,0.0-2.0-0.1-0.10-3.10,0,0,0,68,false,stim,false,-1,1549,0,0,1,75178,task3,279831,false,false,216,image-keyboard-response,11
true,1,0,0,0,true,q,false,true,0.0-2.0-0.1-0.11-3.11,0,0,0,81,false,stim,false,-1,544,0,0,0,75178,task3,281902,false,false,219,image-keyboard-response,12
true,1,0,0,0,true,q,false,true,0.0-2.0-0.1-0.12-3.12,0,0,0,81,false,stim,false,-1,766,0,0,0,75178,task3,284197,false,false,222,image-keyboard-response,13
true,1,1,0,1,true,z,false,true,0.0-2.0-0.1-0.13-3.13,0,0,0,90,false,stim,false,-1,901,0,0,2,75178,task3,286623,false,false,225,image-keyboard-response,14
true,1,0,0,0,true,q,false,true,0.0-2.0-0.1-0.14-3.14,0,0,0,81,false,stim,false,-1,1469,0,0,0,75178,task3,289623,false,false,228,image-keyboard-response,15
true,1,2,0,2,true,d,false,true,0.0-2.0-0.1-0.15-3.15,0,0,0,68,false,stim,false,-1,689,0,0,1,75178,task3,291843,false,false,231,image-keyboard-response,16
true,1,2,0,2,true,d,false,true,0.0-2.0-0.1-0.16-3.16,0,0,0,68,false,stim,false,-1,684,0,0,1,75178,task3,294067,false,false,234,image-keyboard-response,17
true,1,1,0,1,true,z,false,true,0.0-2.0-0.1-0.17-3.17,0,0,0,90,false,stim,false,-1,961,0,0,2,75178,task3,296545,false,false,237,image-keyboard-response,18
true,1,0,0,0,true,q,false,true,0.0-2.0-0.2-0.18-3.18,0,0,0,81,false,stim,false,-1,688,0,0,0,75178,task3,298771,false,false,240,image-keyboard-response,19
true,1,1,0,1,true,z,false,true,0.0-2.0-0.2-0.19-3.19,0,0,0,90,false,stim,false,-1,1295,0,0,2,75178,task3,301598,false,false,243,image-keyboard-response,20
true,1,1,0,1,true,z,false,true,0.0-2.0-0.2-0.20-3.20,0,0,0,90,false,stim,false,-1,588,0,1,2,75178,task3,303723,false,false,246,image-keyboard-response,21
true,1,2,0,2,true,d,false,true,0.0-2.0-0.2-0.21-3.21,0,0,0,68,false,stim,false,-1,793,0,1,1,75178,task3,306043,false,false,249,image-keyboard-response,22
true,1,2,0,2,true,d,false,false,0.0-2.0-0.2-0.22-3.22,0,0,0,68,false,stim,false,-1,699,0,1,1,75178,task3,308284,false,true,252,image-keyboard-response,23
true,1,0,0,0,true,q,false,true,0.0-2.0-0.2-0.23-3.23,0,0,0,81,false,stim,false,-1,1129,0,0,0,75178,task3,310944,false,false,255,image-keyboard-response,24
true,1,0,0,0,true,q,false,false,0.0-2.0-0.2-0.24-3.24,0,0,0,81,false,stim,false,-1,651,0,0,0,75178,task3,313115,false,true,258,image-keyboard-response,25
true,2,1,2,1,true,z,false,true,0.0-2.0-0.2-0.25-3.25,0,1,1,90,true,stim,false,1,1572,0,1,2,75178,task3,316207,false,false,261,image-keyboard-response,1
true,2,2,2,2,true,d,false,true,0.0-2.0-0.2-0.26-3.26,0,1,1,68,false,stim,false,2,2163,0,1,1,75178,task3,319897,false,false,264,image-keyboard-response,2
true,2,0,2,2,false,d,false,false,0.0-2.0-0.3-0.27-3.27,0,1,1,81,false,stim,true,0,1100,0,0,0,75178,task3,322537,false,false,267,image-keyboard-response,3
true,2,1,2,2,false,d,true,false,0.0-2.0-0.3-0.28-3.28,0,1,1,90,false,stim,false,0,1395,0,0,0,75178,task3,325461,false,false,270,image-keyboard-response,4
true,2,1,2,1,true,z,false,true,0.0-2.0-0.3-0.29-3.29,0,1,1,90,false,stim,false,1,1019,0,1,2,75178,task3,328005,false,false,273,image-keyboard-response,5
true,2,2,2,2,true,d,false,true,0.0-2.0-0.3-0.30-3.30,0,1,1,68,false,stim,false,2,1911,0,1,1,75178,task3,331447,false,false,276,image-keyboard-response,6
true,2,2,2,2,true,d,false,true,0.0-2.0-0.3-0.31-3.31,0,1,1,68,false,stim,false,2,843,0,0,1,75178,task3,333829,false,false,279,image-keyboard-response,7
true,2,1,2,1,true,z,false,true,0.0-2.0-0.3-0.32-3.32,0,1,1,90,false,stim,false,1,1424,0,1,2,75178,task3,336781,false,false,282,image-keyboard-response,8
true,2,2,2,2,true,d,false,true,0.0-2.0-0.3-0.33-3.33,0,1,1,68,false,stim,false,2,633,0,0,1,75178,task3,338939,false,false,285,image-keyboard-response,9
true,2,0,2,2,false,d,false,true,0.0-2.0-0.3-0.34-3.34,0,1,1,81,false,stim,true,0,684,0,1,0,75178,task3,341150,false,true,288,image-keyboard-response,10
true,2,1,2,1,true,z,false,true,0.0-2.0-0.3-0.35-3.35,0,1,1,90,false,stim,false,1,1541,0,1,2,75178,task3,344207,false,false,291,image-keyboard-response,11
true,3,1,2,1,true,z,false,true,0.0-2.0-0.4-0.36-3.36,1,0,1,90,true,stim,false,1,1803,0,1,2,75178,task3,347540,false,false,294,image-keyboard-response,1
true,3,1,2,1,true,z,false,true,0.0-2.0-0.4-0.37-3.37,1,0,1,90,false,stim,false,1,700,0,1,2,75178,task3,349758,false,false,297,image-keyboard-response,2
true,3,0,2,2,false,d,true,false,0.0-2.0-0.4-0.38-3.38,1,0,1,81,false,stim,false,2,1018,0,1,0,75178,task3,352306,false,false,300,image-keyboard-response,3
true,3,1,2,2,false,d,true,false,0.0-2.0-0.4-0.39-3.39,1,0,1,90,false,stim,false,2,1310,0,1,0,75178,task3,355146,false,false,303,image-keyboard-response,4
true,3,1,2,0,false,q,true,false,0.0-2.0-0.4-0.40-3.40,1,0,1,90,false,stim,false,2,1915,0,0,1,75178,task3,358583,false,false,306,image-keyboard-response,5
true,3,2,2,0,false,q,false,true,0.0-2.0-0.4-0.41-3.41,1,0,1,68,false,stim,true,2,612,0,0,1,75178,task3,360729,false,true,309,image-keyboard-response,6
true,3,1,2,1,true,z,false,true,0.0-2.0-0.4-0.42-3.42,1,0,1,90,false,stim,false,1,1069,0,1,2,75178,task3,363327,false,false,312,image-keyboard-response,7
true,3,2,2,2,true,d,false,true,0.0-2.0-0.4-0.43-3.43,1,0,1,68,false,stim,false,2,449,0,1,0,75178,task3,365307,false,false,315,image-keyboard-response,8
true,3,2,2,0,false,q,false,false,0.0-2.0-0.4-0.44-3.44,1,0,1,68,false,stim,true,2,827,0,0,1,75178,task3,367664,false,false,318,image-keyboard-response,9
true,3,2,2,2,true,d,false,true,0.0-2.0-0.5-0.45-3.45,1,0,1,68,false,stim,false,2,1242,0,0,0,75178,task3,370428,false,false,321,image-keyboard-response,10
true,3,1,2,1,true,z,false,true,0.0-2.0-0.5-0.46-3.46,1,0,1,90,false,stim,false,1,837,0,1,2,75178,task3,372804,false,false,324,image-keyboard-response,11
true,3,2,2,0,false,q,false,false,0.0-2.0-0.5-0.47-3.47,1,0,1,68,false,stim,true,2,666,0,1,1,75178,task3,375004,false,false,327,image-keyboard-response,12
true,3,2,2,2,true,d,false,true,0.0-2.0-0.5-0.48-3.48,1,0,1,68,false,stim,false,2,973,0,0,0,75178,task3,377512,false,false,330,image-keyboard-response,13
true,3,2,2,2,true,d,false,true,0.0-2.0-0.5-0.49-3.49,1,0,1,68,false,stim,false,2,737,0,0,0,75178,task3,379775,false,false,333,image-keyboard-response,14
true,4,1,2,0,false,q,true,false,0.0-2.0-0.5-0.50-3.50,0,1,1,90,true,stim,false,0,910,0,1,1,75178,task3,382219,false,false,336,image-keyboard-response,1
true,4,2,2,1,false,z,true,false,0.0-2.0-0.5-0.51-3.51,0,1,1,68,false,stim,false,1,1920,0,1,2,75178,task3,385659,false,false,339,image-keyboard-response,2
true,4,2,2,0,false,q,true,false,0.0-2.0-0.5-0.52-3.52,0,1,1,68,false,stim,false,0,1076,0,1,1,75178,task3,388265,false,false,342,image-keyboard-response,3
true,4,0,2,1,false,z,true,false,0.0-2.0-0.5-0.53-3.53,0,1,1,81,false,stim,false,1,586,0,1,2,75178,task3,390375,false,false,345,image-keyboard-response,4
true,4,0,2,0,true,q,false,true,0.0-2.0-0.6-0.54-3.54,0,1,1,81,false,stim,false,0,1444,0,1,1,75178,task3,393343,false,false,348,image-keyboard-response,5
true,4,1,2,1,true,z,false,true,0.0-2.0-0.6-0.55-3.55,0,1,1,90,false,stim,false,1,632,0,1,2,75178,task3,395510,false,false,351,image-keyboard-response,6
true,4,2,2,1,false,z,false,false,0.0-2.0-0.6-0.56-3.56,0,1,1,68,false,stim,true,2,829,0,0,0,75178,task3,397869,false,false,354,image-keyboard-response,7
true,4,0,2,0,true,q,false,true,0.0-2.0-0.6-0.57-3.57,0,1,1,81,false,stim,false,0,1036,0,1,1,75178,task3,400447,false,false,357,image-keyboard-response,8
true,4,1,2,1,true,z,false,true,0.0-2.0-0.6-0.58-3.58,0,1,1,90,false,stim,false,2,735,0,0,0,75178,task3,402696,false,false,360,image-keyboard-response,9
true,4,0,2,1,false,z,true,false,0.0-2.0-0.6-0.59-3.59,0,1,1,81,false,stim,false,1,1732,0,1,2,75178,task3,405943,false,false,363,image-keyboard-response,10
true,4,0,2,0,true,q,false,true,0.0-2.0-0.6-0.60-3.60,0,1,1,81,false,stim,false,0,654,0,1,1,75178,task3,408124,false,false,366,image-keyboard-response,11
true,4,1,2,1,true,z,false,true,0.0-2.0-0.6-0.61-3.61,0,1,1,90,false,stim,false,1,1121,0,1,2,75178,task3,410771,false,false,369,image-keyboard-response,12
true,4,2,2,1,false,z,false,false,0.0-2.0-0.6-0.62-3.62,0,1,1,68,false,stim,true,2,976,0,0,0,75178,task3,413277,false,false,372,image-keyboard-response,13
true,4,0,2,0,true,q,false,true,0.0-2.0-0.7-0.63-3.63,0,1,1,81,false,stim,false,0,617,0,1,1,75178,task3,415418,false,false,375,image-keyboard-response,14
true,4,0,2,0,true,q,false,false,0.0-2.0-0.7-0.64-3.64,0,1,1,81,false,stim,false,0,562,0,1,1,75178,task3,417503,false,true,378,image-keyboard-response,15
true,4,1,2,0,false,q,true,false,0.0-2.0-0.7-0.65-3.65,0,1,1,90,false,stim,false,0,1177,0,1,1,75178,task3,420199,false,false,381,image-keyboard-response,16
true,4,1,2,1,true,z,false,true,0.0-2.0-0.7-0.66-3.66,0,1,1,90,false,stim,false,1,1633,0,1,2,75178,task3,423363,false,false,384,image-keyboard-response,17
true,4,2,2,1,false,z,false,false,0.0-2.0-0.7-0.67-3.67,0,1,1,68,false,stim,true,2,1691,0,0,0,75178,task3,426583,false,false,387,image-keyboard-response,18
true,4,1,2,1,true,z,false,true,0.0-2.0-0.7-0.68-3.68,0,1,1,90,false,stim,false,1,1430,0,1,2,75178,task3,429541,false,false,390,image-keyboard-response,19
true,4,1,2,1,true,z,false,true,0.0-2.0-0.7-0.69-3.69,0,1,1,90,false,stim,false,2,834,0,0,0,75178,task3,431905,false,false,393,image-keyboard-response,20
true,4,1,2,1,true,z,false,true,0.0-2.0-0.7-0.70-3.70,0,1,1,90,false,stim,false,1,758,0,1,2,75178,task3,434201,false,false,396,image-keyboard-response,21
true,4,1,2,1,true,z,false,true,0.0-2.0-0.7-0.71-3.71,0,1,1,90,false,stim,false,2,810,0,0,0,75178,task3,436548,false,false,399,image-keyboard-response,22
true,4,1,2,0,false,q,true,false,0.0-2.0-0.8-0.72-3.72,0,1,1,90,false,stim,false,0,1381,0,1,1,75178,task3,439473,false,false,402,image-keyboard-response,23
true,4,1,2,1,true,z,false,false,0.0-2.0-0.8-0.73-3.73,0,1,1,90,false,stim,false,1,662,0,1,2,75178,task3,441674,false,true,405,image-keyboard-response,24
true,4,1,2,0,false,q,true,false,0.0-2.0-0.8-0.74-3.74,0,1,1,90,false,stim,false,0,1235,0,1,1,75178,task3,444427,false,false,408,image-keyboard-response,25
true,4,1,2,0,false,q,true,false,0.0-2.0-0.8-0.75-3.75,0,1,1,90,false,stim,false,0,1470,0,1,1,75178,task3,447432,false,false,411,image-keyboard-response,26
true,4,0,2,1,false,z,true,false,0.0-2.0-0.8-0.76-3.76,0,1,1,81,false,stim,false,1,499,0,1,2,75178,task3,449473,false,false,414,image-keyboard-response,27
true,4,2,2,1,false,z,false,false,0.0-2.0-0.8-0.77-3.77,0,1,1,68,false,stim,true,2,1661,0,0,0,75178,task3,452654,false,false,417,image-keyboard-response,28
true,5,1,2,0,false,q,false,false,0.0-2.0-0.8-0.78-3.78,0,1,1,90,true,stim,true,1,453,0,0,0,75178,task3,454626,false,false,420,image-keyboard-response,1
true,5,0,2,0,true,q,false,true,0.0-2.0-0.8-0.79-3.79,0,1,1,81,false,stim,false,1,374,0,0,0,75178,task3,456528,false,false,423,image-keyboard-response,2
true,5,1,2,1,true,z,false,true,0.0-2.0-0.8-0.80-3.80,0,1,1,90,false,stim,false,1,921,0,1,2,75178,task3,458974,false,false,426,image-keyboard-response,3
true,5,1,2,1,true,z,false,true,0.0-2.0-0.9-0.81-3.81,0,1,1,90,false,stim,false,1,790,0,1,2,75178,task3,461293,false,false,429,image-keyboard-response,4
true,5,2,2,0,false,q,true,false,0.0-2.0-0.9-0.82-3.82,0,1,1,68,false,stim,false,0,859,0,1,1,75178,task3,463684,false,false,432,image-keyboard-response,5
true,5,0,2,0,true,q,false,true,0.0-2.0-0.9-0.83-3.83,0,1,1,81,false,stim,false,1,1028,0,0,0,75178,task3,466243,false,false,435,image-keyboard-response,6
true,5,0,2,0,true,q,false,true,0.0-2.0-0.9-0.84-3.84,0,1,1,81,false,stim,false,1,589,0,0,0,75178,task3,468353,false,false,438,image-keyboard-response,7
true,5,1,2,0,false,q,true,false,0.0-2.0-0.9-0.85-3.85,0,1,1,90,false,stim,false,0,1019,0,1,1,75178,task3,470914,false,false,441,image-keyboard-response,8
true,5,0,2,0,true,q,false,true,0.0-2.0-0.9-0.86-3.86,0,1,1,81,false,stim,false,1,671,0,1,0,75178,task3,473125,false,false,444,image-keyboard-response,9
true,5,1,2,1,true,z,false,true,0.0-2.0-0.9-0.87-3.87,0,1,1,90,false,stim,false,1,965,0,0,2,75178,task3,475619,false,false,447,image-keyboard-response,10
true,5,0,2,0,true,q,false,true,0.0-2.0-0.9-0.88-3.88,0,1,1,81,false,stim,false,0,857,0,1,1,75178,task3,477990,false,false,450,image-keyboard-response,11
true,5,1,2,1,true,z,false,true,0.0-2.0-0.9-0.89-3.89,0,1,1,90,false,stim,false,1,641,0,0,2,75178,task3,480157,false,false,453,image-keyboard-response,12
true,6,0,2,0,true,q,false,true,0.0-2.0-0.10-0.90-3.90,1,1,0,81,true,stim,false,0,767,0,1,0,75178,task3,482462,false,false,456,image-keyboard-response,1
true,6,1,2,0,false,q,true,false,0.0-2.0-0.10-0.91-3.91,1,1,0,90,false,stim,false,0,853,0,1,1,75178,task3,484837,false,false,459,image-keyboard-response,2
true,6,1,2,2,false,d,false,false,0.0-2.0-0.10-0.92-3.92,1,1,0,90,false,stim,true,1,1065,0,0,2,75178,task3,487430,false,false,462,image-keyboard-response,3
true,6,0,2,2,false,d,true,false,0.0-2.0-0.10-0.93-3.93,1,1,0,81,false,stim,false,1,533,0,0,2,75178,task3,489479,false,false,465,image-keyboard-response,4
true,6,0,2,0,true,q,false,true,0.0-2.0-0.10-0.94-3.94,1,1,0,81,false,stim,false,0,602,0,1,0,75178,task3,491596,false,false,468,image-keyboard-response,5
true,6,2,2,2,true,d,false,true,0.0-2.0-0.10-0.95-3.95,1,1,0,68,false,stim,false,1,600,0,0,2,75178,task3,493727,false,false,471,image-keyboard-response,6
true,6,0,2,0,true,q,false,true,0.0-2.0-0.10-0.96-3.96,1,1,0,81,false,stim,false,0,1051,0,1,1,75178,task3,496297,false,false,474,image-keyboard-response,7
true,6,0,2,0,true,q,false,true,0.0-2.0-0.10-0.97-3.97,1,1,0,81,false,stim,false,0,891,0,1,1,75178,task3,498727,false,false,477,image-keyboard-response,8
true,6,0,2,0,true,q,false,true,0.0-2.0-0.10-0.98-3.98,1,1,0,81,false,stim,false,0,461,0,1,0,75178,task3,500707,false,false,480,image-keyboard-response,9
true,6,0,2,0,true,q,false,true,0.0-2.0-0.11-0.99-3.99,1,1,0,81,false,stim,false,0,494,0,1,0,75178,task3,502740,false,false,483,image-keyboard-response,10
true,6,0,2,0,true,q,false,true,0.0-2.0-0.11-0.100-3.100,1,1,0,81,false,stim,false,0,997,0,1,1,75178,task3,505274,false,false,486,image-keyboard-response,11
true,6,0,2,0,true,q,false,true,0.0-2.0-0.11-0.101-3.101,1,1,0,81,false,stim,false,0,1123,0,1,0,75178,task3,507943,false,false,489,image-keyboard-response,12
true,6,2,2,2,true,d,false,true,0.0-2.0-0.11-0.102-3.102,1,1,0,68,false,stim,false,1,965,0,0,2,75178,task3,510432,false,false,492,image-keyboard-response,13
true,6,2,2,2,true,d,false,true,0.0-2.0-0.11-0.103-3.103,1,1,0,68,false,stim,false,1,697,0,0,2,75178,task3,512635,false,false,495,image-keyboard-response,14
true,6,0,2,0,true,q,false,true,0.0-2.0-0.11-0.104-3.104,1,1,0,81,false,stim,false,0,624,0,1,0,75178,task3,514785,false,false,498,image-keyboard-response,15
true,6,0,2,0,true,q,false,true,0.0-2.0-0.11-0.105-3.105,1,1,0,81,false,stim,false,0,912,0,1,1,75178,task3,517242,false,false,501,image-keyboard-response,16
true,6,0,2,0,true,q,false,true,0.0-2.0-0.11-0.106-3.106,1,1,0,81,false,stim,false,0,708,0,1,1,75178,task3,519466,false,false,504,image-keyboard-response,17
true,6,2,2,2,true,d,false,false,0.0-2.0-0.11-0.107-3.107,1,1,0,68,false,stim,false,1,567,0,0,2,75178,task3,521554,false,true,507,image-keyboard-response,18
true,6,0,2,0,true,q,false,true,0.0-2.0-0.12-0.108-3.108,1,1,0,81,false,stim,false,0,1381,0,1,0,75178,task3,524479,false,false,510,image-keyboard-response,19
true,6,0,2,0,true,q,false,true,0.0-2.0-0.12-0.109-3.109,1,1,0,81,false,stim,false,0,689,0,0,0,75178,task3,526697,false,false,513,image-keyboard-response,20
true,6,0,2,0,true,q,false,true,0.0-2.0-0.12-0.110-3.110,1,1,0,81,false,stim,false,0,691,0,0,0,75178,task3,528919,false,false,516,image-keyboard-response,21
true,6,1,2,2,false,d,false,false,0.0-2.0-0.12-0.111-3.111,1,1,0,90,false,stim,true,1,885,0,0,2,75178,task3,531334,false,false,519,image-keyboard-response,22
true,6,0,2,0,true,q,false,true,0.0-2.0-0.12-0.112-3.112,1,1,0,81,false,stim,false,0,550,0,1,1,75178,task3,533398,false,false,522,image-keyboard-response,23
true,6,0,2,0,true,q,false,true,0.0-2.0-0.12-0.113-3.113,1,1,0,81,false,stim,false,0,983,0,1,1,75178,task3,535901,false,false,525,image-keyboard-response,24
true,7,0,1,0,true,q,false,true,0.0-2.0-0.12-0.114-3.114,0,1,0,81,true,stim,false,2,893,0,0,2,75178,task3,538332,false,false,528,image-keyboard-response,1
true,7,0,1,0,true,q,false,true,0.0-2.0-0.12-0.115-3.115,0,1,0,81,false,stim,false,0,624,0,1,1,75178,task3,540483,false,false,531,image-keyboard-response,2
true,7,0,1,0,true,q,false,true,0.0-2.0-0.12-0.116-3.116,0,1,0,81,false,stim,false,2,661,0,0,2,75178,task3,542668,false,false,534,image-keyboard-response,3
true,7,0,1,2,false,d,false,false,0.0-2.0-0.13-0.117-3.117,0,1,0,81,false,stim,true,0,939,0,0,0,75178,task3,545137,false,false,537,image-keyboard-response,4
true,7,1,1,2,false,d,true,false,0.0-2.0-0.13-0.118-3.118,0,1,0,90,false,stim,false,0,531,0,0,0,75178,task3,547201,false,false,540,image-keyboard-response,5
true,7,2,1,2,true,d,false,true,0.0-2.0-0.13-0.119-3.119,0,1,0,68,false,stim,false,0,397,0,0,0,75178,task3,549116,false,false,543,image-keyboard-response,6
true,7,0,1,0,true,q,false,true,0.0-2.0-0.13-0.120-3.120,0,1,0,81,false,stim,false,2,1290,0,0,2,75178,task3,551938,false,false,546,image-keyboard-response,7
true,7,0,1,0,true,q,false,true,0.0-2.0-0.13-0.121-3.121,0,1,0,81,false,stim,false,2,484,0,0,2,75178,task3,553963,false,false,549,image-keyboard-response,8
true,7,0,1,0,true,q,false,true,0.0-2.0-0.13-0.122-3.122,0,1,0,81,false,stim,false,0,878,0,1,1,75178,task3,556377,false,false,552,image-keyboard-response,9
true,7,0,1,0,true,q,false,true,0.0-2.0-0.13-0.123-3.123,0,1,0,81,false,stim,false,0,430,0,1,1,75178,task3,558330,false,false,555,image-keyboard-response,10
true,7,0,1,0,true,q,false,true,0.0-2.0-0.13-0.124-3.124,0,1,0,81,false,stim,false,0,485,0,1,1,75178,task3,560333,false,false,558,image-keyboard-response,11
true,7,2,1,0,false,q,false,false,0.0-2.0-0.13-0.125-3.125,0,1,0,68,false,stim,true,2,601,0,0,2,75178,task3,562450,false,false,561,image-keyboard-response,12
true,7,2,1,2,true,d,false,true,0.0-2.0-0.14-0.126-3.126,0,1,0,68,false,stim,false,0,1450,0,0,0,75178,task3,565429,false,false,564,image-keyboard-response,13
true,7,0,1,0,true,q,false,true,0.0-2.0-0.14-0.127-3.127,0,1,0,81,false,stim,false,2,657,0,0,2,75178,task3,567607,false,false,567,image-keyboard-response,14
true,7,0,1,0,true,q,false,true,0.0-2.0-0.14-0.128-3.128,0,1,0,81,false,stim,false,0,598,0,1,1,75178,task3,569746,false,false,570,image-keyboard-response,15
true,7,0,1,0,true,q,false,true,0.0-2.0-0.14-0.129-3.129,0,1,0,81,false,stim,false,0,576,0,1,1,75178,task3,571855,false,false,573,image-keyboard-response,16
true,7,0,1,2,false,d,false,false,0.0-2.0-0.14-0.130-3.130,0,1,0,81,false,stim,true,0,830,0,0,0,75178,task3,574199,false,false,576,image-keyboard-response,17
true,7,2,1,2,true,d,false,true,0.0-2.0-0.14-0.131-3.131,0,1,0,68,false,stim,false,0,493,0,0,0,75178,task3,576221,false,false,579,image-keyboard-response,18
true,7,0,1,0,true,q,false,true,0.0-2.0-0.14-0.132-3.132,0,1,0,81,false,stim,false,2,994,0,0,2,75178,task3,578743,false,false,582,image-keyboard-response,19
true,7,0,1,0,true,q,false,true,0.0-2.0-0.14-0.133-3.133,0,1,0,81,false,stim,false,0,1944,0,0,1,75178,task3,582223,false,false,585,image-keyboard-response,20
true,7,0,1,0,true,q,false,false,0.0-2.0-0.14-0.134-3.134,0,1,0,81,false,stim,false,2,1141,0,0,2,75178,task3,584889,false,true,588,image-keyboard-response,21
true,7,2,1,0,false,q,false,false,0.0-2.0-0.15-0.135-3.135,0,1,0,68,false,stim,true,2,1394,0,0,2,75178,task3,587792,false,false,591,image-keyboard-response,22
true,7,2,1,2,true,d,false,true,0.0-2.0-0.15-0.136-3.136,0,1,0,68,false,stim,false,0,1017,0,1,0,75178,task3,590345,false,false,594,image-keyboard-response,23
true,8,1,1,1,true,z,false,true,0.0-2.0-0.15-0.137-3.137,1,0,0,90,true,stim,false,0,411,0,0,2,75178,task3,592281,false,false,597,image-keyboard-response,1
true,8,2,1,2,true,d,false,true,0.0-2.0-0.15-0.138-3.138,1,0,0,68,false,stim,false,2,1082,0,1,0,75178,task3,594880,false,false,600,image-keyboard-response,2
true,8,0,1,1,false,z,false,false,0.0-2.0-0.15-0.139-3.139,1,0,0,81,false,stim,true,0,1493,0,0,1,75178,task3,597901,false,false,603,image-keyboard-response,3
true,8,1,1,1,true,z,false,true,0.0-2.0-0.15-0.140-3.140,1,0,0,90,false,stim,false,0,1196,0,0,2,75178,task3,600624,false,false,606,image-keyboard-response,4
true,8,2,1,2,true,d,false,true,0.0-2.0-0.15-0.141-3.141,1,0,0,68,false,stim,false,2,1210,0,1,0,75178,task3,603369,false,false,609,image-keyboard-response,5
true,8,0,1,1,false,z,false,false,0.0-2.0-0.15-0.142-3.142,1,0,0,81,false,stim,true,0,786,0,0,1,75178,task3,605686,false,false,612,image-keyboard-response,6
true,8,1,1,1,true,z,false,true,0.0-2.0-0.15-0.143-3.143,1,0,0,90,false,stim,false,0,589,0,0,1,75178,task3,607787,false,false,615,image-keyboard-response,7
true,8,1,1,1,true,z,false,true,0.0-2.0-0.16-0.144-3.144,1,0,0,90,false,stim,false,0,1211,0,0,2,75178,task3,610529,false,false,618,image-keyboard-response,8
true,8,1,1,1,true,z,false,true,0.0-2.0-0.16-0.145-3.145,1,0,0,90,false,stim,false,0,627,0,0,1,75178,task3,612676,false,false,621,image-keyboard-response,9
true,8,2,1,2,true,d,false,true,0.0-2.0-0.16-0.146-3.146,1,0,0,68,false,stim,false,2,545,0,1,0,75178,task3,614744,false,false,624,image-keyboard-response,10
true,8,1,1,1,true,z,false,true,0.0-2.0-0.16-0.147-3.147,1,0,0,90,false,stim,false,0,605,0,0,1,75178,task3,616865,false,false,627,image-keyboard-response,11
true,8,1,1,1,true,z,false,true,0.0-2.0-0.16-0.148-3.148,1,0,0,90,false,stim,false,0,450,0,0,1,75178,task3,618850,false,false,630,image-keyboard-response,12
true,8,1,1,1,true,z,false,true,0.0-2.0-0.16-0.149-3.149,1,0,0,90,false,stim,false,0,928,0,0,2,75178,task3,621316,false,false,633,image-keyboard-response,13
true,8,1,1,1,true,z,false,true,0.0-2.0-0.16-0.150-3.150,1,0,0,90,false,stim,false,0,448,0,0,2,75178,task3,623297,false,false,636,image-keyboard-response,14
true,8,2,1,2,true,d,false,true,0.0-2.0-0.16-0.151-3.151,1,0,0,68,false,stim,false,2,411,0,1,0,75178,task3,625250,false,false,639,image-keyboard-response,15
true,8,2,1,2,true,d,false,true,0.0-2.0-0.16-0.152-3.152,1,0,0,68,false,stim,false,2,982,0,1,0,75178,task3,627754,false,false,642,image-keyboard-response,16
true,8,1,1,1,true,z,false,false,0.0-2.0-0.17-0.153-3.153,1,0,0,90,false,stim,false,0,630,0,0,2,75178,task3,629910,false,true,645,image-keyboard-response,17
true,8,0,1,1,false,z,false,false,0.0-2.0-0.17-0.154-3.154,1,0,0,81,false,stim,true,0,534,0,0,2,75178,task3,631983,false,false,648,image-keyboard-response,18
true,8,2,1,2,true,d,false,true,0.0-2.0-0.17-0.155-3.155,1,0,0,68,false,stim,false,2,233,0,1,0,75178,task3,633732,false,false,651,image-keyboard-response,19
true,8,1,1,1,true,z,false,true,0.0-2.0-0.17-0.156-3.156,1,0,0,90,false,stim,false,0,762,0,1,1,75178,task3,636010,false,false,654,image-keyboard-response,20
true,8,2,1,2,true,d,false,true,0.0-2.0-0.17-0.157-3.157,1,0,0,68,false,stim,false,2,873,0,0,0,75178,task3,638423,false,false,657,image-keyboard-response,21
true,8,1,1,1,true,z,false,false,0.0-2.0-0.17-0.158-3.158,1,0,0,90,false,stim,false,0,720,0,1,1,75178,task3,640678,false,true,660,image-keyboard-response,22
true,8,0,1,1,false,z,false,false,0.0-2.0-0.17-0.159-3.159,1,0,0,81,false,stim,true,0,483,0,1,1,75178,task3,642681,false,false,663,image-keyboard-response,23
true,8,2,1,2,true,d,false,true,0.0-2.0-0.17-0.160-3.160,1,0,0,68,false,stim,false,2,599,0,0,0,75178,task3,644797,false,false,666,image-keyboard-response,24
true,9,2,1,0,false,q,true,false,0.0-2.0-0.17-0.161-3.161,0,1,0,68,true,stim,false,1,466,0,0,2,75178,task3,646785,false,false,669,image-keyboard-response,1
true,9,2,1,1,false,z,false,true,0.0-2.0-0.18-0.162-3.162,0,1,0,68,false,stim,true,2,599,0,0,0,75178,task3,648918,false,true,672,image-keyboard-response,2
true,9,2,1,1,false,z,true,false,0.0-2.0-0.18-0.163-3.163,0,1,0,68,false,stim,false,1,608,0,1,1,75178,task3,651048,false,false,675,image-keyboard-response,3
true,9,1,1,1,true,z,false,false,0.0-2.0-0.18-0.164-3.164,0,1,0,90,false,stim,false,1,677,0,1,1,75178,task3,653266,false,true,678,image-keyboard-response,4
true,9,2,1,1,false,z,false,false,0.0-2.0-0.18-0.165-3.165,0,1,0,68,false,stim,true,2,671,0,0,0,75178,task3,655460,false,false,681,image-keyboard-response,5
true,9,0,1,1,false,z,true,true,0.0-2.0-0.18-0.166-3.166,0,1,0,81,false,stim,false,2,406,0,0,0,75178,task3,657405,false,true,684,image-keyboard-response,6
true,9,0,1,0,true,q,false,true,0.0-2.0-0.18-0.167-3.167,0,1,0,81,false,stim,false,1,704,0,0,2,75178,task3,659633,false,false,687,image-keyboard-response,7
true,9,0,1,0,true,q,false,true,0.0-2.0-0.18-0.168-3.168,0,1,0,81,false,stim,false,1,592,0,0,2,75178,task3,661761,false,false,690,image-keyboard-response,8
true,9,0,1,0,true,q,false,true,0.0-2.0-0.18-0.169-3.169,0,1,0,81,false,stim,false,1,500,0,0,2,75178,task3,663798,false,false,693,image-keyboard-response,9
true,9,0,1,1,false,z,true,true,0.0-2.0-0.18-0.170-3.170,0,1,0,81,false,stim,false,1,465,0,1,1,75178,task3,665803,false,true,696,image-keyboard-response,10
true,9,0,1,1,false,z,true,false,0.0-2.0-0.19-0.171-3.171,0,1,0,81,false,stim,false,2,427,0,0,0,75178,task3,667756,false,false,699,image-keyboard-response,11
true,9,0,1,0,true,q,false,true,0.0-2.0-0.19-0.172-3.172,0,1,0,81,false,stim,false,1,869,0,0,2,75178,task3,670139,false,false,702,image-keyboard-response,12
true,9,0,1,0,true,q,false,true,0.0-2.0-0.19-0.173-3.173,0,1,0,81,false,stim,false,1,517,0,0,2,75178,task3,672186,false,false,705,image-keyboard-response,13
true,9,0,1,1,false,z,true,false,0.0-2.0-0.19-0.174-3.174,0,1,0,81,false,stim,false,1,623,0,1,1,75178,task3,674321,false,false,708,image-keyboard-response,14
true,9,1,1,1,true,z,false,true,0.0-2.0-0.19-0.175-3.175,0,1,0,90,false,stim,false,1,902,0,1,1,75178,task3,676752,false,false,711,image-keyboard-response,15
true,9,0,1,1,false,z,true,false,0.0-2.0-0.19-0.176-3.176,0,1,0,81,false,stim,false,2,600,0,0,0,75178,task3,678870,false,false,714,image-keyboard-response,16
true,9,2,1,1,false,z,false,false,0.0-2.0-0.19-0.177-3.177,0,1,0,68,false,stim,true,2,622,0,0,0,75178,task3,681021,false,false,717,image-keyboard-response,17
true,9,1,1,1,true,z,false,true,0.0-2.0-0.19-0.178-3.178,0,1,0,90,false,stim,false,1,1287,0,1,1,75178,task3,683835,false,false,720,image-keyboard-response,18
true,9,0,1,0,true,q,false,true,0.0-2.0-0.19-0.179-3.179,0,1,0,81,false,stim,false,1,541,0,1,2,75178,task3,685910,false,false,723,image-keyboard-response,19
true,9,1,1,1,true,z,false,true,0.0-2.0-0.20-0.180-3.180,0,1,0,90,false,stim,false,2,463,0,0,0,75178,task3,687913,false,false,726,image-keyboard-response,20
true,9,0,1,1,false,z,true,true,0.0-2.0-0.20-0.181-3.181,0,1,0,81,false,stim,false,2,1284,0,0,0,75178,task3,690722,false,true,729,image-keyboard-response,21
true,9,0,1,1,false,z,true,false,0.0-2.0-0.20-0.182-3.182,0,1,0,81,false,stim,false,2,718,0,0,0,75178,task3,692965,false,false,732,image-keyboard-response,22
true,9,1,1,0,false,q,false,false,0.0-2.0-0.20-0.183-3.183,0,1,0,90,false,stim,true,1,880,0,1,2,75178,task3,695358,false,false,735,image-keyboard-response,23
true,10,1,1,2,false,d,false,false,0.0-2.0-0.20-0.184-3.184,0,0,1,90,true,stim,true,1,654,0,0,1,75178,task3,697535,false,false,738,image-keyboard-response,1
true,10,2,1,2,true,d,false,true,0.0-2.0-0.20-0.185-3.185,0,0,1,68,false,stim,false,1,372,0,0,1,75178,task3,699450,false,false,741,image-keyboard-response,2
true,10,2,1,0,false,q,true,false,0.0-2.0-0.20-0.186-3.186,0,0,1,68,false,stim,false,0,1050,0,1,2,75178,task3,702028,false,false,744,image-keyboard-response,3
true,10,0,1,0,true,q,false,true,0.0-2.0-0.20-0.187-3.187,0,0,1,81,false,stim,false,0,547,0,1,2,75178,task3,704094,false,false,747,image-keyboard-response,4
true,10,2,1,2,true,d,false,true,0.0-2.0-0.20-0.188-3.188,0,0,1,68,false,stim,false,1,1245,0,0,1,75178,task3,706857,false,false,750,image-keyboard-response,5
true,10,1,1,2,false,d,false,false,0.0-2.0-0.21-0.189-3.189,0,0,1,90,false,stim,true,1,677,0,0,0,75178,task3,709074,false,false,753,image-keyboard-response,6
true,10,0,1,2,false,d,true,true,0.0-2.0-0.21-0.190-3.190,0,0,1,81,false,stim,false,1,514,0,0,0,75178,task3,711111,false,true,756,image-keyboard-response,7
true,10,2,1,2,true,d,false,true,0.0-2.0-0.21-0.191-3.191,0,0,1,68,false,stim,false,1,821,0,0,1,75178,task3,713446,false,false,759,image-keyboard-response,8
true,10,0,1,2,false,d,true,false,0.0-2.0-0.21-0.192-3.192,0,0,1,81,false,stim,false,1,766,0,0,1,75178,task3,715729,false,false,762,image-keyboard-response,9
true,10,0,1,0,true,q,false,true,0.0-2.0-0.21-0.193-3.193,0,0,1,81,false,stim,false,0,608,0,1,2,75178,task3,717864,false,false,765,image-keyboard-response,10
true,10,2,1,2,true,d,false,true,0.0-2.0-0.21-0.194-3.194,0,0,1,68,false,stim,false,1,612,0,0,1,75178,task3,719989,false,false,768,image-keyboard-response,11
true,10,0,1,2,false,d,true,false,0.0-2.0-0.21-0.195-3.195,0,0,1,81,false,stim,false,1,1198,0,0,0,75178,task3,722715,false,false,771,image-keyboard-response,12
true,10,0,1,0,true,q,false,true,0.0-2.0-0.21-0.196-3.196,0,0,1,81,false,stim,false,0,1664,0,1,2,75178,task3,725901,false,false,774,image-keyboard-response,13
true,10,0,1,0,true,q,false,true,0.0-2.0-0.21-0.197-3.197,0,0,1,81,false,stim,false,0,482,0,1,2,75178,task3,727909,false,false,777,image-keyboard-response,14
true,10,2,1,2,true,d,false,true,0.0-2.0-0.22-0.198-3.198,0,0,1,68,false,stim,false,1,632,0,0,0,75178,task3,730078,false,false,780,image-keyboard-response,15
true,10,0,1,0,true,q,false,true,0.0-2.0-0.22-0.199-3.199,0,0,1,81,false,stim,false,0,675,0,1,2,75178,task3,732273,false,false,783,image-keyboard-response,16
true,10,0,1,0,true,q,false,true,0.0-2.0-0.22-0.200-3.200,0,0,1,81,false,stim,false,0,1396,0,1,2,75178,task3,735183,false,false,786,image-keyboard-response,17
true,10,2,1,2,true,d,false,true,0.0-2.0-0.22-0.201-3.201,0,0,1,68,false,stim,false,1,978,0,0,0,75178,task3,737685,false,false,789,image-keyboard-response,18
true,10,2,1,2,true,d,false,true,0.0-2.0-0.22-0.202-3.202,0,0,1,68,false,stim,false,1,383,0,0,1,75178,task3,739580,false,false,792,image-keyboard-response,19
true,10,2,1,2,true,d,false,true,0.0-2.0-0.22-0.203-3.203,0,0,1,68,false,stim,false,1,456,0,0,1,75178,task3,741542,false,false,795,image-keyboard-response,20
true,10,0,1,0,true,q,false,true,0.0-2.0-0.22-0.204-3.204,0,0,1,81,false,stim,false,0,1117,0,1,2,75178,task3,744195,false,false,798,image-keyboard-response,21
true,10,2,1,2,true,d,false,true,0.0-2.0-0.22-0.205-3.205,0,0,1,68,false,stim,false,1,916,0,0,0,75178,task3,746637,false,false,801,image-keyboard-response,22
true,10,2,1,2,true,d,false,true,0.0-2.0-0.22-0.206-3.206,0,0,1,68,false,stim,false,1,1482,0,0,1,75178,task3,749638,false,false,804,image-keyboard-response,23
true,10,0,1,0,true,q,false,true,0.0-2.0-0.23-0.207-3.207,0,0,1,81,false,stim,false,0,888,0,1,2,75178,task3,752045,false,false,807,image-keyboard-response,24
true,10,2,1,2,true,d,false,true,0.0-2.0-0.23-0.208-3.208,0,0,1,68,false,stim,false,1,1141,0,1,0,75178,task3,754709,false,false,810,image-keyboard-response,25
true,10,0,1,0,true,q,false,true,0.0-2.0-0.23-0.209-3.209,0,0,1,81,false,stim,false,0,655,0,1,2,75178,task3,756882,false,false,813,image-keyboard-response,26
true,10,0,1,0,true,q,false,true,0.0-2.0-0.23-0.210-3.210,0,0,1,81,false,stim,false,0,645,0,1,2,75178,task3,759061,false,false,816,image-keyboard-response,27
true,10,2,1,2,true,d,false,true,0.0-2.0-0.23-0.211-3.211,0,0,1,68,false,stim,false,1,1484,0,1,0,75178,task3,762081,false,false,819,image-keyboard-response,28
true,11,0,2,1,false,z,true,false,0.0-2.0-0.23-0.212-3.212,1,0,1,81,true,stim,false,2,2662,0,0,1,75178,task3,766259,false,false,822,image-keyboard-response,1
true,11,2,2,1,false,z,false,false,0.0-2.0-0.23-0.213-3.213,1,0,1,68,false,stim,true,2,502,0,0,1,75178,task3,768300,false,false,825,image-keyboard-response,2
true,11,2,2,2,true,d,false,true,0.0-2.0-0.23-0.214-3.214,1,0,1,68,false,stim,false,2,1085,0,1,0,75178,task3,770892,false,false,828,image-keyboard-response,3
true,11,1,2,1,true,z,false,true,0.0-2.0-0.23-0.215-3.215,1,0,1,90,false,stim,false,2,430,0,0,1,75178,task3,772849,false,false,831,image-keyboard-response,4
true,11,2,2,2,true,d,false,true,0.0-2.0-0.24-0.216-3.216,1,0,1,68,false,stim,false,2,972,0,1,0,75178,task3,775349,false,false,834,image-keyboard-response,5
true,11,1,2,1,true,z,false,true,0.0-2.0-0.24-0.217-3.217,1,0,1,90,false,stim,false,2,770,0,0,1,75178,task3,777647,false,false,837,image-keyboard-response,6
true,11,1,2,1,true,z,false,true,0.0-2.0-0.24-0.218-3.218,1,0,1,90,false,stim,false,2,654,0,0,1,75178,task3,779821,false,false,840,image-keyboard-response,7
true,11,1,2,1,true,z,false,true,0.0-2.0-0.24-0.219-3.219,1,0,1,90,false,stim,false,2,429,0,0,1,75178,task3,781787,false,false,843,image-keyboard-response,8
true,11,0,2,0,true,q,false,true,0.0-2.0-0.24-0.220-3.220,1,0,1,81,false,stim,false,0,1186,0,0,2,75178,task3,784504,false,false,846,image-keyboard-response,9
true,11,0,2,0,true,q,false,true,0.0-2.0-0.24-0.221-3.221,1,0,1,81,false,stim,false,0,553,0,0,2,75178,task3,786581,false,false,849,image-keyboard-response,10
true,11,2,2,2,true,d,false,true,0.0-2.0-0.24-0.222-3.222,1,0,1,68,false,stim,false,2,728,0,0,0,75178,task3,788836,false,false,852,image-keyboard-response,11
true,11,0,2,0,true,q,false,true,0.0-2.0-0.24-0.223-3.223,1,0,1,81,false,stim,false,0,706,0,0,2,75178,task3,791072,false,false,855,image-keyboard-response,12
true,11,2,2,2,true,d,false,true,0.0-2.0-0.24-0.224-3.224,1,0,1,68,false,stim,false,2,740,0,0,0,75178,task3,793349,false,false,858,image-keyboard-response,13
true,12,1,1,1,true,z,false,true,0.0-2.0-0.25-0.225-3.225,0,1,0,90,true,stim,false,1,432,0,1,1,75178,task3,795299,false,false,861,image-keyboard-response,1
true,12,1,1,1,true,z,false,true,0.0-2.0-0.25-0.226-3.226,0,1,0,90,false,stim,false,1,491,0,1,1,75178,task3,797318,false,false,864,image-keyboard-response,2
true,12,1,1,1,true,z,false,true,0.0-2.0-0.25-0.227-3.227,0,1,0,90,false,stim,false,1,428,0,1,1,75178,task3,799277,false,false,867,image-keyboard-response,3
true,12,2,1,1,false,z,false,false,0.0-2.0-0.25-0.228-3.228,0,1,0,68,false,stim,true,2,1342,0,0,0,75178,task3,802160,false,false,870,image-keyboard-response,4
true,12,2,1,2,true,d,false,true,0.0-2.0-0.25-0.229-3.229,0,1,0,68,false,stim,false,0,1465,0,0,2,75178,task3,805151,false,false,873,image-keyboard-response,5
true,12,0,1,1,false,z,true,false,0.0-2.0-0.25-0.230-3.230,0,1,0,81,false,stim,false,2,471,0,0,0,75178,task3,807143,false,false,876,image-keyboard-response,6
true,12,2,1,2,true,d,false,false,0.0-2.0-0.25-0.231-3.231,0,1,0,68,false,stim,false,0,986,0,0,2,75178,task3,809653,false,true,879,image-keyboard-response,7
true,12,1,1,1,true,z,false,true,0.0-2.0-0.25-0.232-3.232,0,1,0,90,false,stim,false,2,1453,0,0,0,75178,task3,812641,false,false,882,image-keyboard-response,8
true,12,1,1,2,false,d,true,false,0.0-2.0-0.25-0.233-3.233,0,1,0,90,false,stim,false,0,913,0,0,2,75178,task3,815072,false,false,885,image-keyboard-response,9
true,12,1,1,1,true,z,false,true,0.0-2.0-0.26-0.234-3.234,0,1,0,90,false,stim,false,1,414,0,1,1,75178,task3,817012,false,false,888,image-keyboard-response,10
true,12,1,1,1,true,z,false,true,0.0-2.0-0.26-0.235-3.235,0,1,0,90,false,stim,false,2,689,0,0,0,75178,task3,819214,false,false,891,image-keyboard-response,11
true,12,0,1,2,false,d,false,false,0.0-2.0-0.26-0.236-3.236,0,1,0,81,false,stim,true,0,625,0,0,2,75178,task3,821371,false,false,894,image-keyboard-response,12
true,12,2,1,2,true,d,false,true,0.0-2.0-0.26-0.237-3.237,0,1,0,68,false,stim,false,0,427,0,0,2,75178,task3,823324,false,false,897,image-keyboard-response,13
true,12,1,1,1,true,z,false,true,0.0-2.0-0.26-0.238-3.238,0,1,0,90,false,stim,false,1,411,0,1,1,75178,task3,825269,false,false,900,image-keyboard-response,14
true,12,1,1,1,true,z,false,true,0.0-2.0-0.26-0.239-3.239,0,1,0,90,false,stim,false,2,358,0,0,0,75178,task3,827149,false,false,903,image-keyboard-response,15
true,12,1,1,1,true,z,false,true,0.0-2.0-0.26-0.240-3.240,0,1,0,90,false,stim,false,1,689,0,1,1,75178,task3,829356,false,false,906,image-keyboard-response,16
true,12,2,1,2,true,d,false,false,0.0-2.0-0.26-0.241-3.241,0,1,0,68,false,stim,false,0,608,0,0,2,75178,task3,831494,false,true,909,image-keyboard-response,17
true,12,1,1,1,true,z,false,true,0.0-2.0-0.26-0.242-3.242,0,1,0,90,false,stim,false,2,1298,0,0,0,75178,task3,834326,false,false,912,image-keyboard-response,18
true,12,1,1,1,true,z,false,true,0.0-2.0-0.27-0.243-3.243,0,1,0,90,false,stim,false,2,394,0,0,0,75178,task3,836226,false,false,915,image-keyboard-response,19
true,12,2,1,2,true,d,false,true,0.0-2.0-0.27-0.244-3.244,0,1,0,68,false,stim,false,0,1111,0,0,2,75178,task3,838859,false,false,918,image-keyboard-response,20
true,12,1,1,1,true,z,false,true,0.0-2.0-0.27-0.245-3.245,0,1,0,90,false,stim,false,1,805,0,1,1,75178,task3,841203,false,false,921,image-keyboard-response,21
true,12,1,1,1,true,z,false,true,0.0-2.0-0.27-0.246-3.246,0,1,0,90,false,stim,false,2,1301,0,0,0,75178,task3,844038,false,false,924,image-keyboard-response,22
true,12,1,1,1,true,z,false,true,0.0-2.0-0.27-0.247-3.247,0,1,0,90,false,stim,false,1,675,0,1,1,75178,task3,846222,false,false,927,image-keyboard-response,23
true,12,1,1,1,true,z,false,true,0.0-2.0-0.27-0.248-3.248,0,1,0,90,false,stim,false,2,653,0,0,0,75178,task3,848394,false,false,930,image-keyboard-response,24
true,12,2,1,2,true,d,false,true,0.0-2.0-0.27-0.249-3.249,0,1,0,68,false,stim,false,0,618,0,0,2,75178,task3,850517,false,false,933,image-keyboard-response,25
true,12,2,1,2,true,d,false,true,0.0-2.0-0.27-0.250-3.250,0,1,0,68,false,stim,false,0,457,0,0,2,75178,task3,852502,false,false,936,image-keyboard-response,26
true,12,1,1,1,true,z,false,true,0.0-2.0-0.27-0.251-3.251,0,1,0,90,false,stim,false,1,868,0,0,1,75178,task3,854886,false,false,939,image-keyboard-response,27
true,12,1,1,1,true,z,false,true,0.0-2.0-0.28-0.252-3.252,0,1,0,90,false,stim,false,1,447,0,0,1,75178,task3,856864,false,false,942,image-keyboard-response,28
true,12,1,1,1,true,z,false,true,0.0-2.0-0.28-0.253-3.253,0,1,0,90,false,stim,false,1,504,0,0,1,75178,task3,858902,false,false,945,image-keyboard-response,29
true,13,1,1,0,false,q,false,false,0.0-2.0-0.28-0.254-3.254,1,0,0,90,true,stim,true,1,402,0,0,1,75178,task3,860819,false,false,948,image-keyboard-response,1
true,13,1,1,1,true,z,false,true,0.0-2.0-0.28-0.255-3.255,1,0,0,90,false,stim,false,1,1124,0,1,0,75178,task3,863481,false,false,951,image-keyboard-response,2
true,13,1,1,1,true,z,false,false,0.0-2.0-0.28-0.256-3.256,1,0,0,90,false,stim,false,1,420,0,1,0,75178,task3,865426,false,true,954,image-keyboard-response,3
true,13,2,1,0,false,q,false,false,0.0-2.0-0.28-0.257-3.257,1,0,0,68,false,stim,true,2,1479,0,0,2,75178,task3,868426,false,false,957,image-keyboard-response,4
true,13,0,1,1,false,z,true,false,0.0-2.0-0.28-0.258-3.258,1,0,0,81,false,stim,false,1,1177,0,1,0,75178,task3,871143,false,false,960,image-keyboard-response,5
true,13,1,1,0,false,q,true,false,0.0-2.0-0.28-0.259-3.259,1,0,0,90,false,stim,false,2,822,0,0,2,75178,task3,873489,false,false,963,image-keyboard-response,6
true,13,0,1,0,true,q,false,true,0.0-2.0-0.28-0.260-3.260,1,0,0,81,false,stim,false,2,1314,0,0,2,75178,task3,876312,false,false,966,image-keyboard-response,7
true,13,0,1,0,true,q,false,true,0.0-2.0-0.29-0.261-3.261,1,0,0,81,false,stim,false,1,1144,0,0,1,75178,task3,878981,false,false,969,image-keyboard-response,8
true,13,0,1,0,true,q,false,true,0.0-2.0-0.29-0.262-3.262,1,0,0,81,false,stim,false,2,934,0,0,2,75178,task3,881434,false,false,972,image-keyboard-response,9
true,13,1,1,1,true,z,false,true,0.0-2.0-0.29-0.263-3.263,1,0,0,90,false,stim,false,1,814,0,1,0,75178,task3,883767,false,false,975,image-keyboard-response,10
true,13,0,1,0,true,q,false,true,0.0-2.0-0.29-0.264-3.264,1,0,0,81,false,stim,false,2,634,0,0,2,75178,task3,885922,false,false,978,image-keyboard-response,11
true,13,0,1,0,true,q,false,true,0.0-2.0-0.29-0.265-3.265,1,0,0,81,false,stim,false,2,641,0,0,2,75178,task3,888072,false,false,981,image-keyboard-response,12
true,13,1,1,1,true,z,false,true,0.0-2.0-0.29-0.266-3.266,1,0,0,90,false,stim,false,1,424,0,1,0,75178,task3,890016,false,false,984,image-keyboard-response,13
true,13,0,1,0,true,q,false,true,0.0-2.0-0.29-0.267-3.267,1,0,0,81,false,stim,false,1,898,0,0,1,75178,task3,892433,false,false,987,image-keyboard-response,14
true,13,0,1,0,true,q,false,true,0.0-2.0-0.29-0.268-3.268,1,0,0,81,false,stim,false,1,602,0,0,1,75178,task3,894550,false,false,990,image-keyboard-response,15
true,13,1,1,1,true,z,false,true,0.0-2.0-0.29-0.269-3.269,1,0,0,90,false,stim,false,1,1173,0,1,0,75178,task3,897241,false,false,993,image-keyboard-response,16
true,13,0,1,0,true,q,false,true,0.0-2.0-0.30-0.270-3.270,1,0,0,81,false,stim,false,2,620,0,0,2,75178,task3,899380,false,false,996,image-keyboard-response,17
true,13,0,1,0,true,q,false,true,0.0-2.0-0.30-0.271-3.271,1,0,0,81,false,stim,false,1,1355,0,0,1,75178,task3,902271,false,false,999,image-keyboard-response,18
true,13,0,1,0,true,q,false,true,0.0-2.0-0.30-0.272-3.272,1,0,0,81,false,stim,false,1,596,0,0,1,75178,task3,904398,false,false,1002,image-keyboard-response,19
true,13,0,1,0,true,q,false,true,0.0-2.0-0.30-0.273-3.273,1,0,0,81,false,stim,false,2,1792,0,0,2,75178,task3,907720,false,false,1005,image-keyboard-response,20
true,13,1,1,1,true,z,false,true,0.0-2.0-0.30-0.274-3.274,1,0,0,90,false,stim,false,1,829,0,1,0,75178,task3,910072,false,false,1008,image-keyboard-response,21
true,13,1,1,1,true,z,false,true,0.0-2.0-0.30-0.275-3.275,1,0,0,90,false,stim,false,1,597,0,1,0,75178,task3,912184,false,false,1011,image-keyboard-response,22
true,13,0,1,0,true,q,false,true,0.0-2.0-0.30-0.276-3.276,1,0,0,81,false,stim,false,1,741,0,0,1,75178,task3,914459,false,false,1014,image-keyboard-response,23
true,13,0,1,0,true,q,false,true,0.0-2.0-0.30-0.277-3.277,1,0,0,81,false,stim,false,2,1205,0,1,2,75178,task3,917180,false,false,1017,image-keyboard-response,24
true,13,1,1,1,true,z,false,false,0.0-2.0-0.30-0.278-3.278,1,0,0,90,false,stim,false,1,960,0,1,0,75178,task3,919662,false,true,1020,image-keyboard-response,25
true,14,1,2,0,false,q,true,false,0.0-2.0-0.31-0.279-3.279,1,0,1,90,true,stim,false,0,445,0,1,2,75178,task3,921633,false,false,1023,image-keyboard-response,1
true,14,0,2,2,false,d,false,false,0.0-2.0-0.31-0.280-3.280,1,0,1,81,false,stim,true,0,664,0,0,1,75178,task3,923809,false,false,1026,image-keyboard-response,2
true,14,2,2,0,false,q,true,true,0.0-2.0-0.31-0.281-3.281,1,0,1,68,false,stim,false,0,733,0,1,2,75178,task3,926077,false,true,1029,image-keyboard-response,3
true,14,1,2,1,true,z,false,true,0.0-2.0-0.31-0.282-3.282,1,0,1,90,false,stim,false,1,619,0,1,0,75178,task3,928223,false,false,1032,image-keyboard-response,4
true,14,2,2,2,true,d,false,true,0.0-2.0-0.31-0.283-3.283,1,0,1,68,false,stim,false,0,729,0,0,1,75178,task3,930475,false,false,1035,image-keyboard-response,5
true,14,2,2,0,false,q,true,false,0.0-2.0-0.31-0.284-3.284,1,0,1,68,false,stim,false,0,572,0,1,2,75178,task3,932558,false,false,1038,image-keyboard-response,6
true,14,1,2,1,true,z,false,true,0.0-2.0-0.31-0.285-3.285,1,0,1,90,false,stim,false,1,1175,0,1,0,75178,task3,935262,false,false,1041,image-keyboard-response,7
true,14,2,2,2,true,d,false,true,0.0-2.0-0.31-0.286-3.286,1,0,1,68,false,stim,false,0,1889,0,0,1,75178,task3,938667,false,false,1044,image-keyboard-response,8
true,14,0,2,1,false,z,true,true,0.0-2.0-0.31-0.287-3.287,1,0,1,81,false,stim,false,1,965,0,1,0,75178,task3,941136,false,true,1047,image-keyboard-response,9
true,14,0,2,1,false,z,true,false,0.0-2.0-0.32-0.288-3.288,1,0,1,81,false,stim,false,1,474,0,1,0,75178,task3,943120,false,false,1050,image-keyboard-response,10
true,14,1,2,0,false,q,true,false,0.0-2.0-0.32-0.289-3.289,1,0,1,90,false,stim,false,0,1503,0,1,2,75178,task3,946148,false,false,1053,image-keyboard-response,11
true,14,2,2,2,true,d,false,true,0.0-2.0-0.32-0.290-3.290,1,0,1,68,false,stim,false,0,400,0,0,1,75178,task3,948076,false,false,1056,image-keyboard-response,12
true,14,2,2,2,true,d,false,true,0.0-2.0-0.32-0.291-3.291,1,0,1,68,false,stim,false,0,580,0,0,1,75178,task3,950171,false,false,1059,image-keyboard-response,13
true,14,1,2,1,true,z,false,true,0.0-2.0-0.32-0.292-3.292,1,0,1,90,false,stim,false,1,1256,0,1,0,75178,task3,952949,false,false,1062,image-keyboard-response,14
true,14,1,2,0,false,q,true,false,0.0-2.0-0.32-0.293-3.293,1,0,1,90,false,stim,false,0,1042,0,1,2,75178,task3,955518,false,false,1065,image-keyboard-response,15
true,14,2,2,2,true,d,false,true,0.0-2.0-0.32-0.294-3.294,1,0,1,68,false,stim,false,0,526,0,0,1,75178,task3,957583,false,false,1068,image-keyboard-response,16
true,14,2,2,0,false,q,true,false,0.0-2.0-0.32-0.295-3.295,1,0,1,68,false,stim,false,0,406,0,1,2,75178,task3,959495,false,false,1071,image-keyboard-response,17
true,14,1,2,1,true,z,false,true,0.0-2.0-0.32-0.296-3.296,1,0,1,90,false,stim,false,1,1015,0,1,0,75178,task3,962033,false,false,1074,image-keyboard-response,18
true,14,0,2,2,false,d,false,false,0.0-2.0-0.33-0.297-3.297,1,0,1,81,false,stim,true,0,1381,0,0,1,75178,task3,964933,false,false,1077,image-keyboard-response,19
true,14,1,2,1,true,z,false,false,0.0-2.0-0.33-0.298-3.298,1,0,1,90,false,stim,false,1,1525,0,0,0,75178,task3,967983,false,true,1080,image-keyboard-response,20
true,14,2,2,0,false,q,true,false,0.0-2.0-0.33-0.299-3.299,1,0,1,68,false,stim,false,0,909,0,1,2,75178,task3,970417,false,false,1083,image-keyboard-response,21
true,14,2,2,2,true,d,false,true,0.0-2.0-0.33-0.300-3.300,1,0,1,68,false,stim,false,0,406,0,0,1,75178,task3,972328,false,false,1086,image-keyboard-response,22
true,14,2,2,2,true,d,false,true,0.0-2.0-0.33-0.301-3.301,1,0,1,68,false,stim,false,0,471,0,0,1,75178,task3,974319,false,false,1089,image-keyboard-response,23
true,15,1,1,0,false,q,false,false,0.0-2.0-0.33-0.302-3.302,0,0,1,90,true,stim,true,1,779,0,0,0,75178,task3,976624,false,false,1092,image-keyboard-response,1
true,15,2,1,0,false,q,true,false,0.0-2.0-0.33-0.303-3.303,0,0,1,68,false,stim,false,1,468,0,0,0,75178,task3,978606,false,false,1095,image-keyboard-response,2
true,15,2,1,0,false,q,true,false,0.0-2.0-0.33-0.304-3.304,0,0,1,68,false,stim,false,0,1491,0,1,2,75178,task3,981618,false,false,1098,image-keyboard-response,3
true,15,0,1,0,true,q,false,true,0.0-2.0-0.33-0.305-3.305,0,0,1,81,false,stim,false,0,1490,0,1,2,75178,task3,984636,false,false,1101,image-keyboard-response,4
true,15,2,1,1,false,z,false,false,0.0-2.0-0.34-0.306-3.306,0,0,1,68,false,stim,true,2,601,0,0,1,75178,task3,986747,false,false,1104,image-keyboard-response,5
true,15,0,1,0,true,q,false,true,0.0-2.0-0.34-0.307-3.307,0,0,1,81,false,stim,false,0,978,0,1,2,75178,task3,989236,false,false,1107,image-keyboard-response,6
true,15,1,1,0,false,q,false,false,0.0-2.0-0.34-0.308-3.308,0,0,1,90,false,stim,true,1,647,0,0,0,75178,task3,991389,false,false,1110,image-keyboard-response,7
true,15,1,1,1,true,z,false,true,0.0-2.0-0.34-0.309-3.309,0,0,1,90,false,stim,false,2,1359,0,0,1,75178,task3,994267,false,false,1113,image-keyboard-response,8
true,15,0,1,0,true,q,false,true,0.0-2.0-0.34-0.310-3.310,0,0,1,81,false,stim,false,1,898,0,0,0,75178,task3,996675,false,false,1116,image-keyboard-response,9
true,15,1,1,1,true,z,false,true,0.0-2.0-0.34-0.311-3.311,0,0,1,90,false,stim,false,2,701,0,0,1,75178,task3,998894,false,false,1119,image-keyboard-response,10
true,15,0,1,0,true,q,false,true,0.0-2.0-0.34-0.312-3.312,0,0,1,81,false,stim,false,0,652,0,1,2,75178,task3,1001063,false,false,1122,image-keyboard-response,11
true,15,0,1,0,true,q,false,false,0.0-2.0-0.34-0.313-3.313,0,0,1,81,false,stim,false,1,957,0,0,0,75178,task3,1003542,false,true,1125,image-keyboard-response,12
true,15,0,1,0,true,q,false,true,0.0-2.0-0.34-0.314-3.314,0,0,1,81,false,stim,false,0,1268,0,1,2,75178,task3,1006334,false,false,1128,image-keyboard-response,13
true,15,1,1,1,true,z,false,true,0.0-2.0-0.35-0.315-3.315,0,0,1,90,false,stim,false,2,637,0,0,1,75178,task3,1008483,false,false,1131,image-keyboard-response,14
true,15,0,1,0,true,q,false,false,0.0-2.0-0.35-0.316-3.316,0,0,1,81,false,stim,false,1,1742,0,0,0,75178,task3,1011748,false,true,1134,image-keyboard-response,15
true,15,1,1,1,true,z,false,true,0.0-2.0-0.35-0.317-3.317,0,0,1,90,false,stim,false,2,550,0,0,1,75178,task3,1013817,false,false,1137,image-keyboard-response,16
true,15,1,1,0,false,q,false,false,0.0-2.0-0.35-0.318-3.318,0,0,1,90,false,stim,true,1,399,0,0,0,75178,task3,1015736,false,false,1140,image-keyboard-response,17
true,15,0,1,0,true,q,false,true,0.0-2.0-0.35-0.319-3.319,0,0,1,81,false,stim,false,0,1120,0,1,2,75178,task3,1018377,false,false,1143,image-keyboard-response,18
true,15,2,1,0,false,q,true,false,0.0-2.0-0.35-0.320-3.320,0,0,1,68,false,stim,false,1,804,0,0,0,75178,task3,1020711,false,false,1146,image-keyboard-response,19
true,15,1,1,1,true,z,false,true,0.0-2.0-0.35-0.321-3.321,0,0,1,90,false,stim,false,2,744,0,0,1,75178,task3,1022992,false,false,1149,image-keyboard-response,20
true,15,0,1,0,true,q,false,true,0.0-2.0-0.35-0.322-3.322,0,0,1,81,false,stim,false,0,1409,0,1,2,75178,task3,1025915,false,false,1152,image-keyboard-response,21
false,15,-1,1,0,false,q,true,false,0.0-2.0-0.35-0.323-3.323,0,0,1,,false,stim,false,0,,0,1,2,75178,task3,1030456,false,false,1155,image-keyboard-response,22
true,15,1,1,1,true,z,false,true,0.0-2.0-0.36-0.324-3.324,0,0,1,90,false,stim,false,2,463,0,0,1,75178,task3,1032435,false,false,1158,image-keyboard-response,23
true,15,1,1,1,true,z,false,true,0.0-2.0-0.36-0.325-3.325,0,0,1,90,false,stim,false,2,434,0,0,1,75178,task3,1034392,false,false,1161,image-keyboard-response,24
true,15,0,1,0,true,q,false,true,0.0-2.0-0.36-0.326-3.326,0,0,1,81,false,stim,false,0,844,0,0,2,75178,task3,1036751,false,false,1164,image-keyboard-response,25
true,15,0,1,0,true,q,false,false,0.0-2.0-0.36-0.327-3.327,0,0,1,81,false,stim,false,0,445,0,0,2,75178,task3,1038723,false,true,1167,image-keyboard-response,26
true,15,1,1,1,true,z,false,true,0.0-2.0-0.36-0.328-3.328,0,0,1,90,false,stim,false,2,535,0,0,1,75178,task3,1040772,false,false,1170,image-keyboard-response,27
true,15,0,1,0,true,q,false,true,0.0-2.0-0.36-0.329-3.329,0,0,1,81,false,stim,false,0,703,0,0,2,75178,task3,1042991,false,false,1173,image-keyboard-response,28
true,15,2,1,0,false,q,true,false,0.0-2.0-0.36-0.330-3.330,0,0,1,68,false,stim,false,1,769,0,1,0,75178,task3,1045277,false,false,1176,image-keyboard-response,29
true,16,0,1,0,true,q,false,true,0.0-2.0-0.36-0.331-3.331,1,0,0,81,true,stim,false,0,612,0,1,0,75178,task3,1047420,false,false,1179,image-keyboard-response,1
true,16,0,1,0,true,q,false,true,0.0-2.0-0.36-0.332-3.332,1,0,0,81,false,stim,false,0,563,0,1,0,75178,task3,1049500,false,false,1182,image-keyboard-response,2
true,16,0,1,2,false,d,false,false,0.0-2.0-0.37-0.333-3.333,1,0,0,81,false,stim,true,0,855,0,0,2,75178,task3,1051885,false,false,1185,image-keyboard-response,3
true,16,0,1,2,false,d,false,false,0.0-2.0-0.37-0.334-3.334,1,0,0,81,false,stim,true,0,531,0,0,2,75178,task3,1053952,false,false,1188,image-keyboard-response,4
true,16,0,1,0,true,q,false,true,0.0-2.0-0.37-0.335-3.335,1,0,0,81,false,stim,false,0,709,0,1,0,75178,task3,1056178,false,false,1191,image-keyboard-response,5
true,16,1,1,2,false,d,false,false,0.0-2.0-0.37-0.336-3.336,1,0,0,90,false,stim,true,1,476,0,0,1,75178,task3,1058174,false,false,1194,image-keyboard-response,6
true,16,1,1,2,false,d,false,true,0.0-2.0-0.37-0.337-3.337,1,0,0,90,false,stim,true,1,970,0,0,1,75178,task3,1060669,false,true,1197,image-keyboard-response,7
true,16,2,1,2,true,d,false,false,0.0-2.0-0.37-0.338-3.338,1,0,0,68,false,stim,false,0,709,0,0,2,75178,task3,1062917,false,true,1200,image-keyboard-response,8
true,16,0,1,0,true,q,false,true,0.0-2.0-0.37-0.339-3.339,1,0,0,81,false,stim,false,0,852,0,1,0,75178,task3,1065321,false,false,1203,image-keyboard-response,9
true,16,0,1,0,true,q,false,true,0.0-2.0-0.37-0.340-3.340,1,0,0,81,false,stim,false,0,664,0,1,0,75178,task3,1067513,false,false,1206,image-keyboard-response,10
true,16,1,1,2,false,d,false,false,0.0-2.0-0.37-0.341-3.341,1,0,0,90,false,stim,true,1,754,0,0,1,75178,task3,1069794,false,false,1209,image-keyboard-response,11
true,16,1,1,2,false,d,false,false,0.0-2.0-0.38-0.342-3.342,1,0,0,90,false,stim,true,1,673,0,0,1,75178,task3,1072002,false,false,1212,image-keyboard-response,12
true,16,0,1,0,true,q,false,true,0.0-2.0-0.38-0.343-3.343,1,0,0,81,false,stim,false,0,769,0,1,0,75178,task3,1074298,false,false,1215,image-keyboard-response,13
true,16,0,1,2,false,d,true,false,0.0-2.0-0.38-0.344-3.344,1,0,0,81,false,stim,false,1,429,0,0,1,75178,task3,1076267,false,false,1218,image-keyboard-response,14
true,16,0,1,0,true,q,false,true,0.0-2.0-0.38-0.345-3.345,1,0,0,81,false,stim,false,0,794,0,1,0,75178,task3,1078592,false,false,1221,image-keyboard-response,15
true,16,0,1,0,true,q,false,false,0.0-2.0-0.38-0.346-3.346,1,0,0,81,false,stim,false,0,739,0,1,0,75178,task3,1080869,false,true,1224,image-keyboard-response,16
true,16,1,1,2,false,d,true,false,0.0-2.0-0.38-0.347-3.347,1,0,0,90,false,stim,false,0,920,0,0,2,75178,task3,1083319,false,false,1227,image-keyboard-response,17
true,16,2,1,2,true,d,false,true,0.0-2.0-0.38-0.348-3.348,1,0,0,68,false,stim,false,0,505,0,0,2,75178,task3,1085355,false,false,1230,image-keyboard-response,18
true,16,2,1,2,true,d,false,true,0.0-2.0-0.38-0.349-3.349,1,0,0,68,false,stim,false,0,399,0,0,2,75178,task3,1087279,false,false,1233,image-keyboard-response,19
true,16,2,1,2,true,d,false,true,0.0-2.0-0.38-0.350-3.350,1,0,0,68,false,stim,false,1,1019,0,0,1,75178,task3,1089837,false,false,1236,image-keyboard-response,20
true,16,2,1,2,true,d,false,true,0.0-2.0-0.39-0.351-3.351,1,0,0,68,false,stim,false,1,436,0,0,1,75178,task3,1091815,false,false,1239,image-keyboard-response,21
true,16,0,1,0,true,q,false,true,0.0-2.0-0.39-0.352-3.352,1,0,0,81,false,stim,false,0,840,0,1,0,75178,task3,1094190,false,false,1242,image-keyboard-response,22
true,16,2,1,2,true,d,false,true,0.0-2.0-0.39-0.353-3.353,1,0,0,68,false,stim,false,0,627,0,0,2,75178,task3,1096347,false,false,1245,image-keyboard-response,23
true,16,2,1,2,true,d,false,true,0.0-2.0-0.39-0.354-3.354,1,0,0,68,false,stim,false,0,560,0,1,2,75178,task3,1098439,false,false,1248,image-keyboard-response,24
true,16,2,1,2,true,d,false,true,0.0-2.0-0.39-0.355-3.355,1,0,0,68,false,stim,false,1,650,0,0,1,75178,task3,1100629,false,false,1251,image-keyboard-response,25
true,16,2,1,2,true,d,false,true,0.0-2.0-0.39-0.356-3.356,1,0,0,68,false,stim,false,1,350,0,0,1,75178,task3,1102500,false,false,1254,image-keyboard-response,26
true,16,2,1,2,true,d,false,true,0.0-2.0-0.39-0.357-3.357,1,0,0,68,false,stim,false,0,1140,0,1,2,75178,task3,1105159,false,false,1257,image-keyboard-response,27
true,16,0,1,0,true,q,false,true,0.0-2.0-0.39-0.358-3.358,1,0,0,81,false,stim,false,0,685,0,0,0,75178,task3,1107385,false,false,1260,image-keyboard-response,28
true,17,0,1,2,false,d,false,false,0.0-2.0-0.39-0.359-3.359,0,0,1,81,true,stim,true,0,831,0,0,0,75178,task3,1109741,false,false,1263,image-keyboard-response,1
true,17,2,1,1,false,z,false,false,0.0-2.0-0.40-0.360-3.360,0,0,1,68,false,stim,true,2,641,0,0,1,75178,task3,1111910,false,false,1266,image-keyboard-response,2
true,17,2,1,2,true,d,false,true,0.0-2.0-0.40-0.361-3.361,0,0,1,68,false,stim,false,2,1140,0,1,2,75178,task3,1114569,false,false,1269,image-keyboard-response,3
true,17,2,1,1,false,z,false,false,0.0-2.0-0.40-0.362-3.362,0,0,1,68,false,stim,true,2,460,0,0,1,75178,task3,1116560,false,false,1272,image-keyboard-response,4
true,17,1,1,1,true,z,false,false,0.0-2.0-0.40-0.363-3.363,0,0,1,90,false,stim,false,2,973,0,0,1,75178,task3,1119061,false,true,1275,image-keyboard-response,5
true,17,0,1,2,false,d,false,false,0.0-2.0-0.40-0.364-3.364,0,0,1,81,false,stim,true,0,586,0,0,0,75178,task3,1121185,false,false,1278,image-keyboard-response,6
true,17,0,1,2,false,d,false,false,0.0-2.0-0.40-0.365-3.365,0,0,1,81,false,stim,true,0,508,0,0,0,75178,task3,1123207,false,false,1281,image-keyboard-response,7
true,17,2,1,2,true,d,false,true,0.0-2.0-0.40-0.366-3.366,0,0,1,68,false,stim,false,2,847,0,1,2,75178,task3,1125576,false,false,1284,image-keyboard-response,8
true,17,0,1,2,false,d,false,false,0.0-2.0-0.40-0.367-3.367,0,0,1,81,false,stim,true,0,781,0,0,0,75178,task3,1127880,false,false,1287,image-keyboard-response,9
true,17,2,1,2,true,d,false,false,0.0-2.0-0.40-0.368-3.368,0,0,1,68,false,stim,false,2,715,0,1,2,75178,task3,1130113,false,true,1290,image-keyboard-response,10
true,17,1,1,2,false,d,true,false,0.0-2.0-0.41-0.369-3.369,0,0,1,90,false,stim,false,2,646,0,1,2,75178,task3,1132272,false,false,1293,image-keyboard-response,11
true,17,1,1,1,true,z,false,true,0.0-2.0-0.41-0.370-3.370,0,0,1,90,false,stim,false,2,1026,0,0,1,75178,task3,1134836,false,false,1296,image-keyboard-response,12
true,17,1,1,1,true,z,false,false,0.0-2.0-0.41-0.371-3.371,0,0,1,90,false,stim,false,2,419,0,0,1,75178,task3,1136789,false,true,1299,image-keyboard-response,13
true,17,2,1,1,false,z,false,false,0.0-2.0-0.41-0.372-3.372,0,0,1,68,false,stim,true,2,803,0,0,1,75178,task3,1139121,false,false,1302,image-keyboard-response,14
true,17,0,1,2,false,d,false,false,0.0-2.0-0.41-0.373-3.373,0,0,1,81,false,stim,true,0,599,0,0,0,75178,task3,1141258,false,false,1305,image-keyboard-response,15
true,17,1,1,2,false,d,true,false,0.0-2.0-0.41-0.374-3.374,0,0,1,90,false,stim,false,0,1566,0,0,0,75178,task3,1144354,false,false,1308,image-keyboard-response,16
true,17,2,1,2,true,d,false,true,0.0-2.0-0.41-0.375-3.375,0,0,1,68,false,stim,false,0,533,0,0,0,75178,task3,1146409,false,false,1311,image-keyboard-response,17
true,17,2,1,2,true,d,false,true,0.0-2.0-0.41-0.376-3.376,0,0,1,68,false,stim,false,2,1453,0,1,2,75178,task3,1149386,false,false,1314,image-keyboard-response,18
true,17,2,1,2,true,d,false,true,0.0-2.0-0.41-0.377-3.377,0,0,1,68,false,stim,false,2,561,0,1,2,75178,task3,1151462,false,false,1317,image-keyboard-response,19
true,17,2,1,2,true,d,false,true,0.0-2.0-0.42-0.378-3.378,0,0,1,68,false,stim,false,0,583,0,1,0,75178,task3,1153572,false,false,1320,image-keyboard-response,20
true,17,2,1,2,true,d,false,true,0.0-2.0-0.42-0.379-3.379,0,0,1,68,false,stim,false,2,470,0,1,2,75178,task3,1155558,false,false,1323,image-keyboard-response,21
true,17,1,1,1,true,z,false,true,0.0-2.0-0.42-0.380-3.380,0,0,1,90,false,stim,false,2,916,0,0,1,75178,task3,1157995,false,false,1326,image-keyboard-response,22
true,17,2,1,2,true,d,false,true,0.0-2.0-0.42-0.381-3.381,0,0,1,68,false,stim,false,2,606,0,1,2,75178,task3,1160136,false,false,1329,image-keyboard-response,23
true,17,1,1,1,true,z,false,false,0.0-2.0-0.42-0.382-3.382,0,0,1,90,false,stim,false,2,1086,0,0,1,75178,task3,1162755,false,true,1332,image-keyboard-response,24
true,18,2,2,2,true,d,false,true,0.0-2.0-0.42-0.383-3.383,1,0,1,68,true,stim,false,2,613,0,1,0,75178,task3,1164902,false,false,1335,image-keyboard-response,1
true,18,2,2,2,true,d,false,true,0.0-2.0-0.42-0.384-3.384,1,0,1,68,false,stim,false,2,387,0,1,0,75178,task3,1166817,false,false,1338,image-keyboard-response,2
true,18,1,2,0,false,q,false,false,0.0-2.0-0.42-0.385-3.385,1,0,1,90,false,stim,true,1,798,0,0,1,75178,task3,1169158,false,false,1341,image-keyboard-response,3
true,18,2,2,2,true,d,false,true,0.0-2.0-0.42-0.386-3.386,1,0,1,68,false,stim,false,2,525,0,1,2,75178,task3,1171214,false,false,1344,image-keyboard-response,4
true,18,2,2,2,true,d,false,false,0.0-2.0-0.43-0.387-3.387,1,0,1,68,false,stim,false,2,803,0,1,0,75178,task3,1173552,false,true,1347,image-keyboard-response,5
true,18,2,2,2,true,d,false,true,0.0-2.0-0.43-0.388-3.388,1,0,1,68,false,stim,false,2,595,0,1,0,75178,task3,1175675,false,false,1350,image-keyboard-response,6
true,18,2,2,2,true,d,false,true,0.0-2.0-0.43-0.389-3.389,1,0,1,68,false,stim,false,2,768,0,1,2,75178,task3,1177968,false,false,1353,image-keyboard-response,7
true,18,2,2,2,true,d,false,true,0.0-2.0-0.43-0.390-3.390,1,0,1,68,false,stim,false,2,545,0,1,0,75178,task3,1180045,false,false,1356,image-keyboard-response,8
true,18,0,2,0,true,q,false,true,0.0-2.0-0.43-0.391-3.391,1,0,1,81,false,stim,false,1,460,0,0,1,75178,task3,1182038,false,false,1359,image-keyboard-response,9
true,18,0,2,0,true,q,false,true,0.0-2.0-0.43-0.392-3.392,1,0,1,81,false,stim,false,1,407,0,0,1,75178,task3,1183986,false,false,1362,image-keyboard-response,10
true,18,2,2,2,true,d,false,true,0.0-2.0-0.43-0.393-3.393,1,0,1,68,false,stim,false,2,553,0,1,2,75178,task3,1186062,false,false,1365,image-keyboard-response,11
true,18,2,2,2,true,d,false,true,0.0-2.0-0.43-0.394-3.394,1,0,1,68,false,stim,false,2,652,0,1,2,75178,task3,1188232,false,false,1368,image-keyboard-response,12
true,18,0,2,0,true,q,false,true,0.0-2.0-0.43-0.395-3.395,1,0,1,81,false,stim,false,1,504,0,0,1,75178,task3,1190265,false,false,1371,image-keyboard-response,13
true,18,0,2,0,true,q,false,true,0.0-2.0-0.44-0.396-3.396,1,0,1,81,false,stim,false,1,618,0,0,1,75178,task3,1192408,false,false,1374,image-keyboard-response,14
true,18,2,2,2,true,d,false,true,0.0-2.0-0.44-0.397-3.397,1,0,1,68,false,stim,false,2,469,0,1,2,75178,task3,1194419,false,false,1377,image-keyboard-response,15
true,18,2,2,2,true,d,false,false,0.0-2.0-0.44-0.398-3.398,1,0,1,68,false,stim,false,2,443,0,1,2,75178,task3,1196381,false,true,1380,image-keyboard-response,16
true,18,2,2,2,true,d,false,true,0.0-2.0-0.44-0.399-3.399,1,0,1,68,false,stim,false,2,867,0,1,0,75178,task3,1198766,false,false,1383,image-keyboard-response,17
true,18,0,2,0,true,q,false,true,0.0-2.0-0.44-0.400-3.400,1,0,1,81,false,stim,false,1,607,0,0,1,75178,task3,1200896,false,false,1386,image-keyboard-response,18
true,18,2,2,2,true,d,false,true,0.0-2.0-0.44-0.401-3.401,1,0,1,68,false,stim,false,2,458,0,1,2,75178,task3,1202888,false,false,1389,image-keyboard-response,19
true,18,0,2,2,false,d,true,false,0.0-2.0-0.44-0.402-3.402,1,0,1,81,false,stim,false,2,1231,0,1,0,75178,task3,1205660,false,false,1392,image-keyboard-response,20
true,18,2,2,2,true,d,false,true,0.0-2.0-0.44-0.403-3.403,1,0,1,68,false,stim,false,2,791,0,1,0,75178,task3,1207990,false,false,1395,image-keyboard-response,21
true,18,0,2,0,true,q,false,true,0.0-2.0-0.44-0.404-3.404,1,0,1,81,false,stim,false,1,521,0,0,1,75178,task3,1210046,false,false,1398,image-keyboard-response,22
true,18,0,2,0,true,q,false,true,0.0-2.0-0.45-0.405-3.405,1,0,1,81,false,stim,false,1,597,0,0,1,75178,task3,1212186,false,false,1401,image-keyboard-response,23
true,18,2,2,2,true,d,false,true,0.0-2.0-0.45-0.406-3.406,1,0,1,68,false,stim,false,2,912,0,0,0,75178,task3,1214631,false,false,1404,image-keyboard-response,24
true,18,0,2,0,true,q,false,true,0.0-2.0-0.45-0.407-3.407,1,0,1,81,false,stim,false,1,603,0,0,1,75178,task3,1216764,false,false,1407,image-keyboard-response,25
true,18,2,2,2,true,d,false,true,0.0-2.0-0.45-0.408-3.408,1,0,1,68,false,stim,false,2,458,0,1,2,75178,task3,1218757,false,false,1410,image-keyboard-response,26
true,19,0,1,2,false,d,false,false,0.0-2.0-0.45-0.409-3.409,0,0,1,81,true,stim,true,0,1293,0,0,1,75178,task3,1221573,false,false,1413,image-keyboard-response,1
true,19,2,1,1,false,z,false,false,0.0-2.0-0.45-0.410-3.410,0,0,1,68,false,stim,true,2,632,0,0,0,75178,task3,1223741,false,false,1416,image-keyboard-response,2
true,19,2,1,2,true,d,false,true,0.0-2.0-0.45-0.411-3.411,0,0,1,68,false,stim,false,2,611,0,1,2,75178,task3,1225891,false,false,1419,image-keyboard-response,3
true,19,1,1,1,true,z,false,true,0.0-2.0-0.45-0.412-3.412,0,0,1,90,false,stim,false,2,1031,0,0,0,75178,task3,1228460,false,false,1422,image-keyboard-response,4
true,19,2,1,2,true,d,false,true,0.0-2.0-0.45-0.413-3.413,0,0,1,68,false,stim,false,2,773,0,1,2,75178,task3,1230771,false,false,1425,image-keyboard-response,5
true,19,1,1,1,true,z,false,true,0.0-2.0-0.46-0.414-3.414,0,0,1,90,false,stim,false,2,572,0,0,0,75178,task3,1232872,false,false,1428,image-keyboard-response,6
true,19,2,1,2,true,d,false,true,0.0-2.0-0.46-0.415-3.415,0,0,1,68,false,stim,false,0,637,0,0,1,75178,task3,1235036,false,false,1431,image-keyboard-response,7
true,19,2,1,2,true,d,false,true,0.0-2.0-0.46-0.416-3.416,0,0,1,68,false,stim,false,2,497,0,1,2,75178,task3,1237067,false,false,1434,image-keyboard-response,8
true,19,2,1,2,true,d,false,true,0.0-2.0-0.46-0.417-3.417,0,0,1,68,false,stim,false,0,615,0,0,1,75178,task3,1239215,false,false,1437,image-keyboard-response,9
true,19,1,1,1,true,z,false,true,0.0-2.0-0.46-0.418-3.418,0,0,1,90,false,stim,false,2,917,0,0,0,75178,task3,1241647,false,false,1440,image-keyboard-response,10
true,19,1,1,1,true,z,false,true,0.0-2.0-0.46-0.419-3.419,0,0,1,90,false,stim,false,2,566,0,0,0,75178,task3,1243735,false,false,1443,image-keyboard-response,11
true,19,2,1,2,true,d,false,true,0.0-2.0-0.46-0.420-3.420,0,0,1,68,false,stim,false,0,813,0,0,1,75178,task3,1246082,false,false,1446,image-keyboard-response,12
true,19,2,1,2,true,d,false,true,0.0-2.0-0.46-0.421-3.421,0,0,1,68,false,stim,false,2,972,0,1,2,75178,task3,1248591,false,false,1449,image-keyboard-response,13
true,19,2,1,2,true,d,false,true,0.0-2.0-0.46-0.422-3.422,0,0,1,68,false,stim,false,2,472,0,1,2,75178,task3,1250600,false,false,1452,image-keyboard-response,14
true,19,2,1,2,true,d,false,true,0.0-2.0-0.47-0.423-3.423,0,0,1,68,false,stim,false,0,575,0,0,1,75178,task3,1252704,false,false,1455,image-keyboard-response,15
true,19,2,1,2,true,d,false,true,0.0-2.0-0.47-0.424-3.424,0,0,1,68,false,stim,false,2,755,0,1,2,75178,task3,1254985,false,false,1458,image-keyboard-response,16
true,19,2,1,2,true,d,false,true,0.0-2.0-0.47-0.425-3.425,0,0,1,68,false,stim,false,0,596,0,0,1,75178,task3,1257105,false,false,1461,image-keyboard-response,17
true,19,2,1,2,true,d,false,true,0.0-2.0-0.47-0.426-3.426,0,0,1,68,false,stim,false,0,397,0,0,1,75178,task3,1259027,false,false,1464,image-keyboard-response,18
true,19,2,1,2,true,d,false,false,0.0-2.0-0.47-0.427-3.427,0,0,1,68,false,stim,false,2,814,0,1,2,75178,task3,1261383,false,true,1467,image-keyboard-response,19
true,19,2,1,2,true,d,false,true,0.0-2.0-0.47-0.428-3.428,0,0,1,68,false,stim,false,2,416,0,1,2,75178,task3,1263314,false,false,1470,image-keyboard-response,20
true,19,1,1,1,true,z,false,true,0.0-2.0-0.47-0.429-3.429,0,0,1,90,false,stim,false,2,412,0,0,0,75178,task3,1265262,false,false,1473,image-keyboard-response,21
true,19,1,1,1,true,z,false,true,0.0-2.0-0.47-0.430-3.430,0,0,1,90,false,stim,false,2,494,0,0,0,75178,task3,1267283,false,false,1476,image-keyboard-response,22
true,19,2,1,1,false,z,false,false,0.0-2.0-0.47-0.431-3.431,0,0,1,68,false,stim,true,2,513,0,1,0,75178,task3,1269313,false,false,1479,image-keyboard-response,23
true,19,2,1,2,true,d,false,true,0.0-2.0-0.48-0.432-3.432,0,0,1,68,false,stim,false,0,605,0,0,1,75178,task3,1271455,false,false,1482,image-keyboard-response,24
true,19,2,1,2,true,d,false,true,0.0-2.0-0.48-0.433-3.433,0,0,1,68,false,stim,false,2,513,0,1,2,75178,task3,1273491,false,false,1485,image-keyboard-response,25
true,19,2,1,2,true,d,false,true,0.0-2.0-0.48-0.434-3.434,0,0,1,68,false,stim,false,2,740,0,1,2,75178,task3,1275760,false,false,1488,image-keyboard-response,26
true,19,1,1,1,true,z,false,true,0.0-2.0-0.48-0.435-3.435,0,0,1,90,false,stim,false,2,604,0,1,0,75178,task3,1277894,false,false,1491,image-keyboard-response,27
true,20,1,2,1,true,z,false,true,0.0-2.0-0.48-0.436-3.436,1,0,1,90,true,stim,false,1,421,0,1,0,75178,task3,1279850,false,false,1494,image-keyboard-response,1
true,20,2,2,2,true,d,false,true,0.0-2.0-0.48-0.437-3.437,1,0,1,68,false,stim,false,2,644,0,1,2,75178,task3,1282022,false,false,1497,image-keyboard-response,2
true,20,2,2,0,false,q,false,false,0.0-2.0-0.48-0.438-3.438,1,0,1,68,false,stim,true,2,807,0,0,1,75178,task3,1284357,false,false,1500,image-keyboard-response,3
true,20,2,2,0,false,q,false,false,0.0-2.0-0.48-0.439-3.439,1,0,1,68,false,stim,true,2,663,0,0,1,75178,task3,1286561,false,false,1503,image-keyboard-response,4
true,20,1,2,1,true,z,false,true,0.0-2.0-0.48-0.440-3.440,1,0,1,90,false,stim,false,1,563,0,1,0,75178,task3,1288662,false,false,1506,image-keyboard-response,5
true,20,1,2,0,false,q,true,false,0.0-2.0-0.49-0.441-3.441,1,0,1,90,false,stim,false,2,420,0,0,1,75178,task3,1290619,false,false,1509,image-keyboard-response,6
true,20,2,2,2,true,d,false,true,0.0-2.0-0.49-0.442-3.442,1,0,1,68,false,stim,false,2,663,0,1,2,75178,task3,1292812,false,false,1512,image-keyboard-response,7
true,20,1,2,1,true,z,false,true,0.0-2.0-0.49-0.443-3.443,1,0,1,90,false,stim,false,1,480,0,1,0,75178,task3,1294830,false,false,1515,image-keyboard-response,8
true,20,1,2,0,false,q,true,false,0.0-2.0-0.49-0.444-3.444,1,0,1,90,false,stim,false,2,1015,0,0,1,75178,task3,1297373,false,false,1518,image-keyboard-response,9
true,20,0,2,0,true,q,false,true,0.0-2.0-0.49-0.445-3.445,1,0,1,81,false,stim,false,2,881,0,0,1,75178,task3,1299780,false,false,1521,image-keyboard-response,10
true,20,2,2,2,true,d,false,true,0.0-2.0-0.49-0.446-3.446,1,0,1,68,false,stim,false,2,434,0,1,2,75178,task3,1301734,false,false,1524,image-keyboard-response,11
true,20,1,2,1,true,z,false,true,0.0-2.0-0.49-0.447-3.447,1,0,1,90,false,stim,false,1,366,0,1,0,75178,task3,1303626,false,false,1527,image-keyboard-response,12
true,20,1,2,1,true,z,false,false,0.0-2.0-0.49-0.448-3.448,1,0,1,90,false,stim,false,1,490,0,1,0,75178,task3,1305650,false,true,1530,image-keyboard-response,13
true,20,2,2,2,true,d,false,true,0.0-2.0-0.49-0.449-3.449,1,0,1,68,false,stim,false,2,613,0,1,2,75178,task3,1307794,false,false,1533,image-keyboard-response,14
true,20,2,2,2,true,d,false,true,0.0-2.0-0.50-0.450-3.450,1,0,1,68,false,stim,false,2,648,0,1,2,75178,task3,1309977,false,false,1536,image-keyboard-response,15
true,20,0,2,0,true,q,false,true,0.0-2.0-0.50-0.451-3.451,1,0,1,81,false,stim,false,2,390,0,0,1,75178,task3,1311890,false,false,1539,image-keyboard-response,16
true,20,1,2,1,true,z,false,true,0.0-2.0-0.50-0.452-3.452,1,0,1,90,false,stim,false,1,591,0,1,0,75178,task3,1314010,false,false,1542,image-keyboard-response,17
true,20,0,2,0,true,q,false,false,0.0-2.0-0.50-0.453-3.453,1,0,1,81,false,stim,false,2,640,0,0,1,75178,task3,1316169,false,true,1545,image-keyboard-response,18
true,20,1,2,1,true,z,false,true,0.0-2.0-0.50-0.454-3.454,1,0,1,90,false,stim,false,1,782,0,0,0,75178,task3,1318491,false,false,1548,image-keyboard-response,19
true,20,0,2,0,true,q,false,true,0.0-2.0-0.50-0.455-3.455,1,0,1,81,false,stim,false,2,728,0,0,1,75178,task3,1320757,false,false,1551,image-keyboard-response,20
true,20,2,2,1,false,z,true,false,0.0-2.0-0.50-0.456-3.456,1,0,1,68,false,stim,false,1,957,0,0,0,75178,task3,1323257,false,false,1554,image-keyboard-response,21
true,20,2,2,2,true,d,false,true,0.0-2.0-0.50-0.457-3.457,1,0,1,68,false,stim,false,2,395,0,1,2,75178,task3,1325184,false,false,1557,image-keyboard-response,22
true,20,2,2,2,true,d,false,true,0.0-2.0-0.50-0.458-3.458,1,0,1,68,false,stim,false,2,701,0,1,2,75178,task3,1327402,false,false,1560,image-keyboard-response,23
true,21,0,1,1,false,z,false,false,0.0-2.0-0.51-0.459-3.459,0,0,1,81,true,stim,true,0,1079,0,0,1,75178,task3,1329999,false,false,1563,image-keyboard-response,1
true,21,1,1,0,false,q,false,false,0.0-2.0-0.51-0.460-3.460,0,0,1,90,false,stim,true,1,780,0,0,0,75178,task3,1332297,false,false,1566,image-keyboard-response,2
true,21,2,1,2,true,d,false,false,0.0-2.0-0.51-0.461-3.461,0,0,1,68,false,stim,false,2,391,0,1,2,75178,task3,1334220,false,true,1569,image-keyboard-response,3
true,21,1,1,0,false,q,false,false,0.0-2.0-0.51-0.462-3.462,0,0,1,90,false,stim,true,1,674,0,0,0,75178,task3,1336423,false,false,1572,image-keyboard-response,4
true,21,0,1,1,false,z,false,false,0.0-2.0-0.51-0.463-3.463,0,0,1,81,false,stim,true,0,399,0,0,1,75178,task3,1338349,false,false,1575,image-keyboard-response,5
true,21,1,1,1,true,z,false,true,0.0-2.0-0.51-0.464-3.464,0,0,1,90,false,stim,false,0,1175,0,0,1,75178,task3,1341054,false,false,1578,image-keyboard-response,6
true,21,1,1,2,false,d,true,false,0.0-2.0-0.51-0.465-3.465,0,0,1,90,false,stim,false,2,1217,0,1,2,75178,task3,1343796,false,false,1581,image-keyboard-response,7
true,21,0,1,2,false,d,true,false,0.0-2.0-0.51-0.466-3.466,0,0,1,81,false,stim,false,2,634,0,0,2,75178,task3,1345963,false,false,1584,image-keyboard-response,8
true,21,0,1,0,true,q,false,true,0.0-2.0-0.51-0.467-3.467,0,0,1,81,false,stim,false,1,1353,0,1,0,75178,task3,1348852,false,false,1587,image-keyboard-response,9
true,21,0,1,0,true,q,false,true,0.0-2.0-0.52-0.468-3.468,0,0,1,81,false,stim,false,1,456,0,1,0,75178,task3,1350835,false,false,1590,image-keyboard-response,10
true,21,1,1,2,false,d,true,false,0.0-2.0-0.52-0.469-3.469,0,0,1,90,false,stim,false,2,834,0,0,2,75178,task3,1353181,false,false,1593,image-keyboard-response,11
true,21,1,1,1,true,z,false,true,0.0-2.0-0.52-0.470-3.470,0,0,1,90,false,stim,false,0,777,0,1,1,75178,task3,1355495,false,false,1596,image-keyboard-response,12
true,22,2,2,1,false,z,false,false,0.0-2.0-0.52-0.471-3.471,1,1,0,68,true,stim,true,2,849,0,0,2,75178,task3,1357879,false,false,1599,image-keyboard-response,1
true,22,0,2,0,true,q,false,true,0.0-2.0-0.52-0.472-3.472,1,1,0,81,false,stim,false,0,607,0,1,0,75178,task3,1360037,false,false,1602,image-keyboard-response,2
true,22,1,2,1,true,z,false,true,0.0-2.0-0.52-0.473-3.473,1,1,0,90,false,stim,false,1,578,0,1,1,75178,task3,1362159,false,false,1605,image-keyboard-response,3
true,22,0,2,1,false,z,true,false,0.0-2.0-0.52-0.474-3.474,1,1,0,81,false,stim,false,2,718,0,0,2,75178,task3,1364398,false,false,1608,image-keyboard-response,4
true,22,1,2,1,true,z,false,false,0.0-2.0-0.52-0.475-3.475,1,1,0,90,false,stim,false,1,633,0,1,1,75178,task3,1366562,false,true,1611,image-keyboard-response,5
true,22,0,2,0,true,q,false,true,0.0-2.0-0.52-0.476-3.476,1,1,0,81,false,stim,false,0,598,0,1,0,75178,task3,1368697,false,false,1614,image-keyboard-response,6
true,22,0,2,0,true,q,false,true,0.0-2.0-0.53-0.477-3.477,1,1,0,81,false,stim,false,0,559,0,1,0,75178,task3,1370788,false,false,1617,image-keyboard-response,7
true,22,0,2,0,true,q,false,true,0.0-2.0-0.53-0.478-3.478,1,1,0,81,false,stim,false,0,548,0,1,0,75178,task3,1372879,false,false,1620,image-keyboard-response,8
true,22,1,2,1,true,z,false,true,0.0-2.0-0.53-0.479-3.479,1,1,0,90,false,stim,false,1,889,0,1,1,75178,task3,1375288,false,false,1623,image-keyboard-response,9
true,22,0,2,0,true,q,false,true,0.0-2.0-0.53-0.480-3.480,1,1,0,81,false,stim,false,0,979,0,1,0,75178,task3,1377799,false,false,1626,image-keyboard-response,10
true,22,1,2,1,true,z,false,true,0.0-2.0-0.53-0.481-3.481,1,1,0,90,false,stim,false,1,726,0,0,1,75178,task3,1380055,false,false,1629,image-keyboard-response,11
true,22,0,2,1,false,z,true,true,0.0-2.0-0.53-0.482-3.482,1,1,0,81,false,stim,false,2,747,0,1,2,75178,task3,1382325,false,true,1632,image-keyboard-response,12
true,22,0,2,1,false,z,true,false,0.0-2.0-0.53-0.483-3.483,1,1,0,81,false,stim,false,2,430,0,1,2,75178,task3,1384289,false,false,1635,image-keyboard-response,13
true,22,1,2,1,true,z,false,true,0.0-2.0-0.53-0.484-3.484,1,1,0,90,false,stim,false,1,1140,0,0,1,75178,task3,1386969,false,false,1638,image-keyboard-response,14
true,22,0,2,1,false,z,true,false,0.0-2.0-0.53-0.485-3.485,1,1,0,81,false,stim,false,2,858,0,1,2,75178,task3,1389359,false,false,1641,image-keyboard-response,15
true,23,0,2,0,true,q,false,true,0.0-2.0-0.54-0.486-3.486,1,0,1,81,true,stim,false,0,1056,0,1,0,75178,task3,1391956,false,false,1644,image-keyboard-response,1
true,23,0,2,0,true,q,false,true,0.0-2.0-0.54-0.487-3.487,1,0,1,81,false,stim,false,0,720,0,1,0,75178,task3,1394199,false,false,1647,image-keyboard-response,2
true,23,1,2,2,false,d,false,true,0.0-2.0-0.54-0.488-3.488,1,0,1,90,false,stim,true,1,573,0,0,1,75178,task3,1396303,false,true,1650,image-keyboard-response,3
true,23,1,2,1,true,z,false,true,0.0-2.0-0.54-0.489-3.489,1,0,1,90,false,stim,false,1,369,0,1,2,75178,task3,1398199,false,false,1653,image-keyboard-response,4
true,23,1,2,2,false,d,false,false,0.0-2.0-0.54-0.490-3.490,1,0,1,90,false,stim,true,1,514,0,0,1,75178,task3,1400244,false,false,1656,image-keyboard-response,5
true,23,1,2,2,false,d,false,false,0.0-2.0-0.54-0.491-3.491,1,0,1,90,false,stim,true,1,371,0,0,1,75178,task3,1402140,false,false,1659,image-keyboard-response,6
true,23,0,2,0,true,q,false,true,0.0-2.0-0.54-0.492-3.492,1,0,1,81,false,stim,false,0,733,0,1,0,75178,task3,1404401,false,false,1662,image-keyboard-response,7
true,23,1,2,1,true,z,false,true,0.0-2.0-0.54-0.493-3.493,1,0,1,90,false,stim,false,1,745,0,1,2,75178,task3,1406685,false,false,1665,image-keyboard-response,8
true,23,1,2,1,true,z,false,true,0.0-2.0-0.54-0.494-3.494,1,0,1,90,false,stim,false,1,634,0,1,2,75178,task3,1408834,false,false,1668,image-keyboard-response,9
true,23,0,2,0,true,q,false,true,0.0-2.0-0.55-0.495-3.495,1,0,1,81,false,stim,false,0,779,0,1,0,75178,task3,1411148,false,false,1671,image-keyboard-response,10
true,23,1,2,2,false,d,false,false,0.0-2.0-0.55-0.496-3.496,1,0,1,90,false,stim,true,1,807,0,0,1,75178,task3,1413487,false,false,1674,image-keyboard-response,11
true,23,0,2,1,false,z,true,false,0.0-2.0-0.55-0.497-3.497,1,0,1,81,false,stim,false,1,870,0,1,2,75178,task3,1415900,false,false,1677,image-keyboard-response,12
true,23,0,2,0,true,q,false,true,0.0-2.0-0.55-0.498-3.498,1,0,1,81,false,stim,false,0,629,0,1,0,75178,task3,1418059,false,false,1680,image-keyboard-response,13
true,23,0,2,0,true,q,false,true,0.0-2.0-0.55-0.499-3.499,1,0,1,81,false,stim,false,0,441,0,1,0,75178,task3,1420041,false,false,1683,image-keyboard-response,14
true,23,2,2,1,false,z,true,false,0.0-2.0-0.55-0.500-3.500,1,0,1,68,false,stim,false,1,875,0,1,2,75178,task3,1422449,false,false,1686,image-keyboard-response,15
true,23,2,2,2,true,d,false,false,0.0-2.0-0.55-0.501-3.501,1,0,1,68,false,stim,false,1,603,0,0,1,75178,task3,1424583,false,true,1689,image-keyboard-response,16
true,23,0,2,2,false,d,true,false,0.0-2.0-0.55-0.502-3.502,1,0,1,81,false,stim,false,1,1289,0,0,1,75178,task3,1427390,false,false,1692,image-keyboard-response,17
true,23,1,2,1,true,z,false,true,0.0-2.0-0.55-0.503-3.503,1,0,1,90,false,stim,false,1,1108,0,1,2,75178,task3,1430038,false,false,1695,image-keyboard-response,18
true,23,0,2,0,true,q,false,true,0.0-2.0-0.56-0.504-3.504,1,0,1,81,false,stim,false,0,448,0,1,0,75178,task3,1432017,false,false,1698,image-keyboard-response,19
true,23,0,2,0,true,q,false,true,0.0-2.0-0.56-0.505-3.505,1,0,1,81,false,stim,false,0,498,0,1,0,75178,task3,1434060,false,false,1701,image-keyboard-response,20
true,23,1,2,1,true,z,false,true,0.0-2.0-0.56-0.506-3.506,1,0,1,90,false,stim,false,1,871,0,1,2,75178,task3,1436466,false,false,1704,image-keyboard-response,21
true,23,1,2,2,false,d,false,false,0.0-2.0-0.56-0.507-3.507,1,0,1,90,false,stim,true,1,765,0,0,1,75178,task3,1438766,false,false,1707,image-keyboard-response,22
true,23,0,2,2,false,d,true,true,0.0-2.0-0.56-0.508-3.508,1,0,1,81,false,stim,false,1,610,0,0,1,75178,task3,1440920,false,true,1710,image-keyboard-response,23
true,23,1,2,1,true,z,false,true,0.0-2.0-0.56-0.509-3.509,1,0,1,90,false,stim,false,1,652,0,1,2,75178,task3,1443100,false,false,1713,image-keyboard-response,24
true,23,0,2,2,false,d,true,false,0.0-2.0-0.56-0.510-3.510,1,0,1,81,false,stim,false,1,938,0,0,1,75178,task3,1445557,false,false,1716,image-keyboard-response,25
true,23,1,2,1,true,z,false,true,0.0-2.0-0.56-0.511-3.511,1,0,1,90,false,stim,false,1,751,0,1,2,75178,task3,1447851,false,false,1719,image-keyboard-response,26
true,23,0,2,0,true,q,false,true,0.0-2.0-0.56-0.512-3.512,1,0,1,81,false,stim,false,0,701,0,0,0,75178,task3,1450081,false,false,1722,image-keyboard-response,27
true,23,1,2,2,false,d,false,true,0.0-2.0-0.57-0.513-3.513,1,0,1,90,false,stim,true,1,707,0,0,1,75178,task3,1452317,false,true,1725,image-keyboard-response,28
true,23,0,2,0,true,q,false,true,0.0-2.0-0.57-0.514-3.514,1,0,1,81,false,stim,false,0,655,0,0,0,75178,task3,1454503,false,false,1728,image-keyboard-response,29
true,24,1,1,1,true,z,false,true,0.0-2.0-0.57-0.515-3.515,0,0,1,90,true,stim,false,1,743,0,1,2,75178,task3,1456771,false,false,1731,image-keyboard-response,1
true,24,1,1,0,false,q,true,false,0.0-2.0-0.57-0.516-3.516,0,0,1,90,false,stim,false,2,799,0,0,1,75178,task3,1459100,false,false,1734,image-keyboard-response,2
true,24,0,1,2,false,d,false,false,0.0-2.0-0.57-0.517-3.517,0,0,1,81,false,stim,true,0,637,0,0,0,75178,task3,1461266,false,false,1737,image-keyboard-response,3
true,24,1,1,0,false,q,true,false,0.0-2.0-0.57-0.518-3.518,0,0,1,90,false,stim,false,2,480,0,0,1,75178,task3,1463269,false,false,1740,image-keyboard-response,4
true,24,1,1,1,true,z,false,true,0.0-2.0-0.57-0.519-3.519,0,0,1,90,false,stim,false,1,920,0,1,2,75178,task3,1465721,false,false,1743,image-keyboard-response,5
true,24,1,1,2,false,d,true,true,0.0-2.0-0.57-0.520-3.520,0,0,1,90,false,stim,false,0,706,0,0,0,75178,task3,1467955,false,true,1746,image-keyboard-response,6
true,24,1,1,1,true,z,false,true,0.0-2.0-0.57-0.521-3.521,0,0,1,90,false,stim,false,1,549,0,1,2,75178,task3,1470028,false,false,1749,image-keyboard-response,7
true,24,1,1,1,true,z,false,true,0.0-2.0-0.58-0.522-3.522,0,0,1,90,false,stim,false,1,406,0,1,2,75178,task3,1471975,false,false,1752,image-keyboard-response,8
true,24,0,1,0,true,q,false,true,0.0-2.0-0.58-0.523-3.523,0,0,1,81,false,stim,false,2,465,0,0,1,75178,task3,1473962,false,false,1755,image-keyboard-response,9
true,24,1,1,2,false,d,true,true,0.0-2.0-0.58-0.524-3.524,0,0,1,90,false,stim,false,0,553,0,0,0,75178,task3,1476052,false,true,1758,image-keyboard-response,10
true,24,1,1,2,false,d,true,false,0.0-2.0-0.58-0.525-3.525,0,0,1,90,false,stim,false,0,577,0,0,0,75178,task3,1478147,false,false,1761,image-keyboard-response,11
true,24,1,1,1,true,z,false,true,0.0-2.0-0.58-0.526-3.526,0,0,1,90,false,stim,false,1,763,0,1,2,75178,task3,1480443,false,false,1764,image-keyboard-response,12
true,24,0,1,0,true,q,false,true,0.0-2.0-0.58-0.527-3.527,0,0,1,81,false,stim,false,2,1123,0,0,1,75178,task3,1483102,false,false,1767,image-keyboard-response,13
true,24,1,1,1,true,z,false,true,0.0-2.0-0.58-0.528-3.528,0,0,1,90,false,stim,false,1,775,0,1,2,75178,task3,1485396,false,false,1770,image-keyboard-response,14
true,24,0,1,0,true,q,false,true,0.0-2.0-0.58-0.529-3.529,0,0,1,81,false,stim,false,2,1140,0,0,1,75178,task3,1488071,false,false,1773,image-keyboard-response,15
true,24,1,1,2,false,d,true,false,0.0-2.0-0.58-0.530-3.530,0,0,1,90,false,stim,false,0,382,0,0,0,75178,task3,1489973,false,false,1776,image-keyboard-response,16
true,24,1,1,1,true,z,false,true,0.0-2.0-0.59-0.531-3.531,0,0,1,90,false,stim,false,1,933,0,1,2,75178,task3,1492420,false,false,1779,image-keyboard-response,17
true,24,1,1,2,false,d,true,false,0.0-2.0-0.59-0.532-3.532,0,0,1,90,false,stim,false,0,461,0,0,0,75178,task3,1494409,false,false,1782,image-keyboard-response,18
true,24,0,1,0,true,q,false,true,0.0-2.0-0.59-0.533-3.533,0,0,1,81,false,stim,false,2,593,0,0,1,75178,task3,1496531,false,false,1785,image-keyboard-response,19
true,24,0,1,2,false,d,false,false,0.0-2.0-0.59-0.534-3.534,0,0,1,81,false,stim,true,0,397,0,0,0,75178,task3,1498458,false,false,1788,image-keyboard-response,20
true,24,0,1,0,true,q,false,true,0.0-2.0-0.59-0.535-3.535,0,0,1,81,false,stim,false,2,763,0,0,1,75178,task3,1500763,false,false,1791,image-keyboard-response,21
true,24,1,1,1,true,z,false,true,0.0-2.0-0.59-0.536-3.536,0,0,1,90,false,stim,false,1,621,0,1,2,75178,task3,1502921,false,false,1794,image-keyboard-response,22
true,24,1,1,1,true,z,false,true,0.0-2.0-0.59-0.537-3.537,0,0,1,90,false,stim,false,1,470,0,1,2,75178,task3,1504920,false,false,1797,image-keyboard-response,23
true,24,2,1,2,true,d,false,false,0.0-2.0-0.59-0.538-3.538,0,0,1,68,false,stim,false,0,548,0,1,0,75178,task3,1507008,false,true,1800,image-keyboard-response,24
true,24,0,1,0,true,q,false,true,0.0-2.0-0.59-0.539-3.539,0,0,1,81,false,stim,false,2,964,0,0,1,75178,task3,1509514,false,false,1803,image-keyboard-response,25
true,24,0,1,2,false,d,false,false,0.0-2.0-0.60-0.540-3.540,0,0,1,81,false,stim,true,0,458,0,1,0,75178,task3,1511507,false,false,1806,image-keyboard-response,26
true,24,0,1,2,false,d,false,false,0.0-2.0-0.60-0.541-3.541,0,0,1,81,false,stim,true,0,663,0,1,0,75178,task3,1513713,false,false,1809,image-keyboard-response,27
true,24,1,1,0,false,q,true,false,0.0-2.0-0.60-0.542-3.542,0,0,1,90,false,stim,false,2,1120,0,0,1,75178,task3,1516349,false,false,1812,image-keyboard-response,28
true,25,1,2,2,false,d,true,false,0.0-2.0-0.60-0.543-3.543,1,0,1,90,true,stim,false,0,590,0,0,1,75178,task3,1518470,false,false,1815,image-keyboard-response,1
true,25,2,2,1,false,z,true,false,0.0-2.0-0.60-0.544-3.544,1,0,1,68,false,stim,false,1,595,0,1,2,75178,task3,1520594,false,false,1818,image-keyboard-response,2
true,25,1,2,1,true,z,false,true,0.0-2.0-0.60-0.545-3.545,1,0,1,90,false,stim,false,1,598,0,1,2,75178,task3,1522718,false,false,1821,image-keyboard-response,3
true,25,2,2,2,true,d,false,true,0.0-2.0-0.60-0.546-3.546,1,0,1,68,false,stim,false,0,1103,0,0,1,75178,task3,1525353,false,false,1824,image-keyboard-response,4
true,25,1,2,1,true,z,false,true,0.0-2.0-0.60-0.547-3.547,1,0,1,90,false,stim,false,1,619,0,1,2,75178,task3,1527499,false,false,1827,image-keyboard-response,5
true,25,2,2,2,true,d,false,true,0.0-2.0-0.60-0.548-3.548,1,0,1,68,false,stim,false,2,361,0,1,0,75178,task3,1529399,false,false,1830,image-keyboard-response,6
true,25,2,2,2,true,d,false,true,0.0-2.0-0.61-0.549-3.549,1,0,1,68,false,stim,false,2,850,0,1,0,75178,task3,1531780,false,false,1833,image-keyboard-response,7
true,25,2,2,1,false,z,true,false,0.0-2.0-0.61-0.550-3.550,1,0,1,68,false,stim,false,1,569,0,1,2,75178,task3,1533869,false,false,1836,image-keyboard-response,8
true,25,2,2,2,true,d,false,true,0.0-2.0-0.61-0.551-3.551,1,0,1,68,false,stim,false,0,517,0,0,1,75178,task3,1535917,false,false,1839,image-keyboard-response,9
true,25,2,2,2,true,d,false,true,0.0-2.0-0.61-0.552-3.552,1,0,1,68,false,stim,false,0,646,0,1,1,75178,task3,1538094,false,false,1842,image-keyboard-response,10
true,25,2,2,2,true,d,false,true,0.0-2.0-0.61-0.553-3.553,1,0,1,68,false,stim,false,0,458,0,1,1,75178,task3,1540078,false,false,1845,image-keyboard-response,11
true,25,2,2,2,true,d,false,true,0.0-2.0-0.61-0.554-3.554,1,0,1,68,false,stim,false,2,621,0,1,0,75178,task3,1542222,false,false,1848,image-keyboard-response,12
true,25,1,2,1,true,z,false,true,0.0-2.0-0.61-0.555-3.555,1,0,1,90,false,stim,false,1,696,0,1,2,75178,task3,1544447,false,false,1851,image-keyboard-response,13
true,25,2,2,2,true,d,false,true,0.0-2.0-0.61-0.556-3.556,1,0,1,68,false,stim,false,2,728,0,1,0,75178,task3,1546706,false,false,1854,image-keyboard-response,14
true,26,2,0,1,false,z,true,false,0.0-2.0-0.61-0.557-3.557,1,1,1,68,true,stim,false,1,2195,0,1,2,75178,task3,1672294,false,false,1977,image-keyboard-response,1
true,26,2,0,2,true,d,false,true,0.0-2.0-0.62-0.558-3.558,1,1,1,68,false,stim,false,2,584,0,1,1,75178,task3,1674403,false,false,1980,image-keyboard-response,2
true,26,1,0,1,true,z,false,true,0.0-2.0-0.62-0.559-3.559,1,1,1,90,false,stim,false,1,737,0,1,2,75178,task3,1676665,false,false,1983,image-keyboard-response,3
true,26,2,0,2,true,d,false,true,0.0-2.0-0.62-0.560-3.560,1,1,1,68,false,stim,false,2,780,0,1,1,75178,task3,1678980,false,false,1986,image-keyboard-response,4
true,26,2,0,2,true,d,false,false,0.0-2.0-0.62-0.561-3.561,1,1,1,68,false,stim,false,2,781,0,1,0,75178,task3,1681284,false,true,1989,image-keyboard-response,5
true,26,1,0,2,false,d,true,false,0.0-2.0-0.62-0.562-3.562,1,1,1,90,false,stim,false,2,714,0,1,0,75178,task3,1683535,false,false,1992,image-keyboard-response,6
true,26,2,0,2,true,d,false,true,0.0-2.0-0.62-0.563-3.563,1,1,1,68,false,stim,false,2,735,0,1,1,75178,task3,1685785,false,false,1995,image-keyboard-response,7
true,26,1,0,1,true,z,false,true,0.0-2.0-0.62-0.564-3.564,1,1,1,90,false,stim,false,1,920,0,1,2,75178,task3,1688248,false,false,1998,image-keyboard-response,8
true,26,0,0,2,false,d,true,false,0.0-2.0-0.62-0.565-3.565,1,1,1,81,false,stim,false,2,556,0,1,0,75178,task3,1690364,false,false,2001,image-keyboard-response,9
true,26,1,0,1,true,z,false,true,0.0-2.0-0.62-0.566-3.566,1,1,1,90,false,stim,false,1,698,0,1,2,75178,task3,1692588,false,false,2004,image-keyboard-response,10
true,26,2,0,2,true,d,false,true,0.0-2.0-0.63-0.567-3.567,1,1,1,68,false,stim,false,2,353,0,0,0,75178,task3,1694483,false,false,2007,image-keyboard-response,11
true,26,2,0,2,true,d,false,false,0.0-2.0-0.63-0.568-3.568,1,1,1,68,false,stim,false,2,771,0,0,1,75178,task3,1696791,false,true,2010,image-keyboard-response,12
true,26,1,0,1,true,z,false,true,0.0-2.0-0.63-0.569-3.569,1,1,1,90,false,stim,false,1,679,0,1,2,75178,task3,1698997,false,false,2013,image-keyboard-response,13
true,26,2,0,2,true,d,false,true,0.0-2.0-0.63-0.570-3.570,1,1,1,68,false,stim,false,2,552,0,0,0,75178,task3,1701082,false,false,2016,image-keyboard-response,14
true,26,1,0,1,true,z,false,true,0.0-2.0-0.63-0.571-3.571,1,1,1,90,false,stim,false,1,712,0,1,2,75178,task3,1703322,false,false,2019,image-keyboard-response,15
true,27,1,1,0,false,q,true,false,0.0-2.0-0.63-0.572-3.572,0,0,1,90,true,stim,false,2,865,0,0,1,75178,task3,1705715,false,false,2022,image-keyboard-response,1
true,27,2,1,0,false,q,false,false,0.0-2.0-0.63-0.573-3.573,0,0,1,68,false,stim,true,2,766,0,0,1,75178,task3,1708006,false,false,2025,image-keyboard-response,2
true,27,1,1,1,true,z,false,true,0.0-2.0-0.63-0.574-3.574,0,0,1,90,false,stim,false,1,1028,0,1,2,75178,task3,1710579,false,false,2028,image-keyboard-response,3
true,27,0,1,0,true,q,false,true,0.0-2.0-0.63-0.575-3.575,0,0,1,81,false,stim,false,2,541,0,0,0,75178,task3,1712642,false,false,2031,image-keyboard-response,4
true,27,1,1,1,true,z,false,true,0.0-2.0-0.64-0.576-3.576,0,0,1,90,false,stim,false,1,993,0,1,2,75178,task3,1715171,false,false,2034,image-keyboard-response,5
true,27,0,1,0,true,q,false,true,0.0-2.0-0.64-0.577-3.577,0,0,1,81,false,stim,false,2,760,0,0,1,75178,task3,1717461,false,false,2037,image-keyboard-response,6
true,27,0,1,0,true,q,false,true,0.0-2.0-0.64-0.578-3.578,0,0,1,81,false,stim,false,2,521,0,0,1,75178,task3,1719501,false,false,2040,image-keyboard-response,7
true,27,0,1,0,true,q,false,true,0.0-2.0-0.64-0.579-3.579,0,0,1,81,false,stim,false,2,517,0,0,0,75178,task3,1721546,false,false,2043,image-keyboard-response,8
true,27,1,1,1,true,z,false,true,0.0-2.0-0.64-0.580-3.580,0,0,1,90,false,stim,false,1,391,0,1,2,75178,task3,1723470,false,false,2046,image-keyboard-response,9
true,27,0,1,0,true,q,false,true,0.0-2.0-0.64-0.581-3.581,0,0,1,81,false,stim,false,2,510,0,0,1,75178,task3,1725509,false,false,2049,image-keyboard-response,10
true,27,0,1,0,true,q,false,true,0.0-2.0-0.64-0.582-3.582,0,0,1,81,false,stim,false,2,622,0,1,0,75178,task3,1727659,false,false,2052,image-keyboard-response,11
true,27,0,1,0,true,q,false,true,0.0-2.0-0.64-0.583-3.583,0,0,1,81,false,stim,false,2,513,0,1,0,75178,task3,1729692,false,false,2055,image-keyboard-response,12
true,27,1,1,1,true,z,false,true,0.0-2.0-0.64-0.584-3.584,0,0,1,90,false,stim,false,1,586,0,0,2,75178,task3,1731815,false,false,2058,image-keyboard-response,13
true,27,0,1,0,true,q,false,true,0.0-2.0-0.65-0.585-3.585,0,0,1,81,false,stim,false,2,423,0,1,1,75178,task3,1733773,false,false,2061,image-keyboard-response,14
true,27,1,1,1,true,z,false,true,0.0-2.0-0.65-0.586-3.586,0,0,1,90,false,stim,false,1,658,0,0,2,75178,task3,1735957,false,false,2064,image-keyboard-response,15
true,28,0,2,0,true,q,false,false,0.0-2.0-0.65-0.587-3.587,1,1,0,81,true,stim,false,0,538,0,1,1,75178,task3,1738038,false,true,2067,image-keyboard-response,1
true,28,0,2,0,true,q,false,true,0.0-2.0-0.65-0.588-3.588,1,1,0,81,false,stim,false,0,561,0,1,0,75178,task3,1740141,false,false,2070,image-keyboard-response,2
true,28,1,2,2,false,d,false,false,0.0-2.0-0.65-0.589-3.589,1,1,0,90,false,stim,true,1,604,0,0,2,75178,task3,1742274,false,false,2073,image-keyboard-response,3
true,28,0,2,0,true,q,false,true,0.0-2.0-0.65-0.590-3.590,1,1,0,81,false,stim,false,0,508,0,1,0,75178,task3,1744308,false,false,2076,image-keyboard-response,4
true,28,0,2,0,true,q,false,true,0.0-2.0-0.65-0.591-3.591,1,1,0,81,false,stim,false,0,474,0,1,0,75178,task3,1746304,false,false,2079,image-keyboard-response,5
true,28,0,2,0,true,q,false,true,0.0-2.0-0.65-0.592-3.592,1,1,0,81,false,stim,false,0,822,0,1,1,75178,task3,1748656,false,false,2082,image-keyboard-response,6
true,28,1,2,2,false,d,false,false,0.0-2.0-0.65-0.593-3.593,1,1,0,90,false,stim,true,1,950,0,0,2,75178,task3,1751140,false,false,2085,image-keyboard-response,7
true,28,0,2,0,true,q,false,true,0.0-2.0-0.66-0.594-3.594,1,1,0,81,false,stim,false,0,520,0,1,1,75178,task3,1753190,false,false,2088,image-keyboard-response,8
true,28,1,2,2,false,d,false,false,0.0-2.0-0.66-0.595-3.595,1,1,0,90,false,stim,true,1,570,0,0,2,75178,task3,1755299,false,false,2091,image-keyboard-response,9
true,28,0,2,0,true,q,false,true,0.0-2.0-0.66-0.596-3.596,1,1,0,81,false,stim,false,0,566,0,1,1,75178,task3,1757407,false,false,2094,image-keyboard-response,10
true,28,0,2,0,true,q,false,true,0.0-2.0-0.66-0.597-3.597,1,1,0,81,false,stim,false,0,519,0,1,0,75178,task3,1759470,false,false,2097,image-keyboard-response,11
true,28,0,2,0,true,q,false,true,0.0-2.0-0.66-0.598-3.598,1,1,0,81,false,stim,false,0,701,0,1,0,75178,task3,1761701,false,false,2100,image-keyboard-response,12
true,28,0,2,0,true,q,false,true,0.0-2.0-0.66-0.599-3.599,1,1,0,81,false,stim,false,0,618,0,1,1,75178,task3,1763879,false,false,2103,image-keyboard-response,13
true,28,2,2,2,true,d,false,true,0.0-2.0-0.66-0.600-3.600,1,1,0,68,false,stim,false,1,502,0,0,2,75178,task3,1765903,false,false,2106,image-keyboard-response,14
true,28,2,2,2,true,d,false,false,0.0-2.0-0.66-0.601-3.601,1,1,0,68,false,stim,false,1,369,0,0,2,75178,task3,1767799,false,true,2109,image-keyboard-response,15
true,28,0,2,0,true,q,false,true,0.0-2.0-0.66-0.602-3.602,1,1,0,81,false,stim,false,0,518,0,1,0,75178,task3,1769847,false,false,2112,image-keyboard-response,16
true,28,0,2,0,true,q,false,true,0.0-2.0-0.67-0.603-3.603,1,1,0,81,false,stim,false,0,595,0,1,0,75178,task3,1771974,false,false,2115,image-keyboard-response,17
true,28,0,2,0,true,q,false,true,0.0-2.0-0.67-0.604-3.604,1,1,0,81,false,stim,false,0,809,0,1,1,75178,task3,1774328,false,false,2118,image-keyboard-response,18
true,28,0,2,0,true,q,false,true,0.0-2.0-0.67-0.605-3.605,1,1,0,81,false,stim,false,0,452,0,1,1,75178,task3,1776323,false,false,2121,image-keyboard-response,19
true,28,0,2,0,true,q,false,true,0.0-2.0-0.67-0.606-3.606,1,1,0,81,false,stim,false,0,422,0,1,1,75178,task3,1778271,false,false,2124,image-keyboard-response,20
true,28,2,2,2,true,d,false,false,0.0-2.0-0.67-0.607-3.607,1,1,0,68,false,stim,false,1,675,0,0,2,75178,task3,1780474,false,true,2127,image-keyboard-response,21
true,28,1,2,2,false,d,false,false,0.0-2.0-0.67-0.608-3.608,1,1,0,90,false,stim,true,1,424,0,0,2,75178,task3,1782423,false,false,2130,image-keyboard-response,22
true,28,0,2,0,true,q,false,true,0.0-2.0-0.67-0.609-3.609,1,1,0,81,false,stim,false,0,515,0,0,0,75178,task3,1784464,false,false,2133,image-keyboard-response,23
true,28,0,2,2,false,d,true,false,0.0-2.0-0.67-0.610-3.610,1,1,0,81,false,stim,false,1,638,0,0,2,75178,task3,1786637,false,false,2136,image-keyboard-response,24
true,28,0,2,0,true,q,false,true,0.0-2.0-0.67-0.611-3.611,1,1,0,81,false,stim,false,0,563,0,0,0,75178,task3,1788722,false,false,2139,image-keyboard-response,25
true,29,0,1,0,true,q,false,true,0.0-2.0-0.68-0.612-3.612,0,1,0,81,true,stim,false,0,566,0,1,1,75178,task3,1790816,false,false,2142,image-keyboard-response,1
true,29,1,1,0,false,q,true,false,0.0-2.0-0.68-0.613-3.613,0,1,0,90,false,stim,false,2,713,0,0,2,75178,task3,1793064,false,false,2145,image-keyboard-response,2
true,29,0,1,2,false,d,false,false,0.0-2.0-0.68-0.614-3.614,0,1,0,81,false,stim,true,0,642,0,0,0,75178,task3,1795238,false,false,2148,image-keyboard-response,3
true,29,0,1,0,true,q,false,true,0.0-2.0-0.68-0.615-3.615,0,1,0,81,false,stim,false,0,501,0,1,1,75178,task3,1797260,false,false,2151,image-keyboard-response,4
true,29,2,1,0,false,q,false,false,0.0-2.0-0.68-0.616-3.616,0,1,0,68,false,stim,true,2,730,0,0,2,75178,task3,1799529,false,false,2154,image-keyboard-response,5
true,29,0,1,2,false,d,false,false,0.0-2.0-0.68-0.617-3.617,0,1,0,81,false,stim,true,0,885,0,0,0,75178,task3,1801936,false,false,2157,image-keyboard-response,6
true,29,0,1,0,true,q,false,true,0.0-2.0-0.68-0.618-3.618,0,1,0,81,false,stim,false,0,469,0,1,1,75178,task3,1803949,false,false,2160,image-keyboard-response,7
true,29,1,1,0,false,q,true,false,0.0-2.0-0.68-0.619-3.619,0,1,0,90,false,stim,false,2,753,0,0,2,75178,task3,1806232,false,false,2163,image-keyboard-response,8
true,29,0,1,2,false,d,false,true,0.0-2.0-0.68-0.620-3.620,0,1,0,81,false,stim,true,0,542,0,0,0,75178,task3,1808312,false,true,2166,image-keyboard-response,9
true,29,0,1,0,true,q,false,true,0.0-2.0-0.69-0.621-3.621,0,1,0,81,false,stim,false,2,725,0,0,2,75178,task3,1810555,false,false,2169,image-keyboard-response,10
true,29,0,1,0,true,q,false,true,0.0-2.0-0.69-0.622-3.622,0,1,0,81,false,stim,false,2,779,0,0,2,75178,task3,1812858,false,false,2172,image-keyboard-response,11
true,29,0,1,0,true,q,false,false,0.0-2.0-0.69-0.623-3.623,0,1,0,81,false,stim,false,0,400,0,1,1,75178,task3,1814799,false,true,2175,image-keyboard-response,12
true,29,0,1,0,true,q,false,true,0.0-2.0-0.69-0.624-3.624,0,1,0,81,false,stim,false,0,538,0,1,1,75178,task3,1816868,false,false,2178,image-keyboard-response,13
true,29,0,1,2,false,d,false,false,0.0-2.0-0.69-0.625-3.625,0,1,0,81,false,stim,true,0,511,0,0,0,75178,task3,1818911,false,false,2181,image-keyboard-response,14
true,29,0,1,0,true,q,false,true,0.0-2.0-0.69-0.626-3.626,0,1,0,81,false,stim,false,0,760,0,1,1,75178,task3,1821199,false,false,2184,image-keyboard-response,15
true,29,1,1,2,false,d,true,false,0.0-2.0-0.69-0.627-3.627,0,1,0,90,false,stim,false,0,490,0,0,0,75178,task3,1823220,false,false,2187,image-keyboard-response,16
true,29,0,1,0,true,q,false,true,0.0-2.0-0.69-0.628-3.628,0,1,0,81,false,stim,false,2,685,0,0,2,75178,task3,1825434,false,false,2190,image-keyboard-response,17
true,29,2,1,2,true,d,false,true,0.0-2.0-0.69-0.629-3.629,0,1,0,68,false,stim,false,0,458,0,0,0,75178,task3,1827409,false,false,2193,image-keyboard-response,18
true,29,0,1,0,true,q,false,true,0.0-2.0-0.70-0.630-3.630,0,1,0,81,false,stim,false,0,703,0,1,1,75178,task3,1829633,false,false,2196,image-keyboard-response,19
true,29,0,1,0,true,q,false,true,0.0-2.0-0.70-0.631-3.631,0,1,0,81,false,stim,false,2,639,0,0,2,75178,task3,1831809,false,false,2199,image-keyboard-response,20
true,29,2,1,0,false,q,true,false,0.0-2.0-0.70-0.632-3.632,0,1,0,68,false,stim,false,0,369,0,1,1,75178,task3,1833730,false,false,2202,image-keyboard-response,21
