answered,blockNum,choice,condition,corResp,correct,correct_response,explo,fb,internal_node_id,isStable_1,isStable_2,isStable_3,key_press,newBlock,part,persev,persevResp,rt,sessNum,stableAS,stimulus,subject,task,time_elapsed,training,trap,trial_index,trial_type,trialsInBlock
true,1,0,0,2,false,d,true,false,0.0-2.0-0.0-0.0-3.0,0,0,0,81,true,stim,false,-1,803.0,1,0,2,75178,task1,127361,false,false,99,image-keyboard-response,1
true,1,1,0,0,false,q,true,false,0.0-2.0-0.0-0.1-3.1,0,0,0,90,false,stim,false,-1,528.0,1,0,1,75178,task1,129397,false,false,102,image-keyboard-response,2
true,1,2,0,2,true,d,false,true,0.0-2.0-0.0-0.2-3.2,0,0,0,68,false,stim,false,-1,567.0,1,0,2,75178,task1,131470,false,false,105,image-keyboard-response,3
true,1,0,0,0,true,q,false,true,0.0-2.0-0.0-0.3-3.3,0,0,0,81,false,stim,false,-1,985.0000000000291,1,0,1,75178,task1,133960,false,false,108,image-keyboard-response,4
true,1,1,0,1,true,z,false,true,0.0-2.0-0.0-0.4-3.4,0,0,0,90,false,stim,false,-1,701.0,1,0,0,75178,task1,136164,false,false,111,image-keyboard-response,5
true,1,1,0,0,false,q,true,false,0.0-2.0-0.0-0.5-3.5,0,0,0,90,false,stim,false,-1,568.0,1,0,1,75178,task1,138238,false,false,114,image-keyboard-response,6
true,1,0,0,1,false,z,true,false,0.0-2.0-0.0-0.6-3.6,0,0,0,81,false,stim,false,-1,949.0,1,0,0,75178,task1,140693,false,false,117,image-keyboard-response,7
true,1,2,0,2,true,d,false,true,0.0-2.0-0.0-0.7-3.7,0,0,0,68,false,stim,false,-1,730.0,1,0,2,75178,task1,142928,false,false,120,image-keyboard-response,8
true,1,2,0,1,false,z,true,false,0.0-2.0-0.0-0.8-3.8,0,0,0,68,false,stim,false,-1,793.0000000000291,1,0,0,75178,task1,145227,false,false,123,image-keyboard-response,9
true,1,1,0,0,false,q,true,false,0.0-2.0-0.1-0.9-3.9,0,0,0,90,false,stim,false,-1,366.9999999999709,1,0,1,75178,task1,147100,false,false,126,image-keyboard-response,10
true,1,0,0,2,false,d,true,false,0.0-2.0-0.1-0.10-3.10,0,0,0,81,false,stim,false,-1,379.0,1,0,2,75178,task1,148984,false,false,129,image-keyboard-response,11
true,1,1,0,1,true,z,false,true,0.0-2.0-0.1-0.11-3.11,0,0,0,90,false,stim,false,-1,933.0,1,0,0,75178,task1,151423,false,false,132,image-keyboard-response,12
true,1,2,0,2,true,d,false,true,0.0-2.0-0.1-0.12-3.12,0,0,0,68,false,stim,false,-1,623.0,1,0,2,75178,task1,153552,false,false,135,image-keyboard-response,13
true,1,1,0,0,false,q,true,false,0.0-2.0-0.1-0.13-3.13,0,0,0,90,false,stim,false,-1,1091.0,1,0,1,75178,task1,156149,false,false,138,image-keyboard-response,14
true,1,0,0,2,false,d,true,false,0.0-2.0-0.1-0.14-3.14,0,0,0,81,false,stim,false,-1,1062.0,1,0,2,75178,task1,158716,false,false,141,image-keyboard-response,15
true,1,1,0,1,true,z,false,false,0.0-2.0-0.1-0.15-3.15,0,0,0,90,false,stim,false,-1,703.0,1,0,0,75178,task1,160925,false,true,144,image-keyboard-response,16
true,1,2,0,1,false,z,true,false,0.0-2.0-0.1-0.16-3.16,0,0,0,68,false,stim,false,-1,901.0,1,0,0,75178,task1,163332,false,false,147,image-keyboard-response,17
true,1,0,0,0,true,q,false,true,0.0-2.0-0.1-0.17-3.17,0,0,0,81,false,stim,false,-1,1002.0,1,0,1,75178,task1,165838,false,false,150,image-keyboard-response,18
true,1,0,0,0,true,q,false,true,0.0-2.0-0.2-0.18-3.18,0,0,0,81,false,stim,false,-1,423.0,1,0,1,75178,task1,167766,false,false,153,image-keyboard-response,19
true,1,0,0,0,true,q,false,true,0.0-2.0-0.2-0.19-3.19,0,0,0,81,false,stim,false,-1,349.0,1,0,1,75178,task1,169620,false,false,156,image-keyboard-response,20
true,1,1,0,1,true,z,false,true,0.0-2.0-0.2-0.20-3.20,0,0,0,90,false,stim,false,-1,752.9999999999709,1,0,0,75178,task1,171879,false,false,159,image-keyboard-response,21
true,1,1,0,1,true,z,false,true,0.0-2.0-0.2-0.21-3.21,0,0,0,90,false,stim,false,-1,588.0,1,0,0,75178,task1,173972,false,false,162,image-keyboard-response,22
true,1,2,0,2,true,d,false,true,0.0-2.0-0.2-0.22-3.22,0,0,0,68,false,stim,false,-1,695.0,1,0,2,75178,task1,176173,false,false,165,image-keyboard-response,23
true,1,2,0,2,true,d,false,false,0.0-2.0-0.2-0.23-3.23,0,0,0,68,false,stim,false,-1,476.0,1,0,2,75178,task1,178154,false,true,168,image-keyboard-response,24
true,1,0,0,1,false,z,true,false,0.0-2.0-0.2-0.24-3.24,0,0,0,81,false,stim,false,-1,843.0,1,0,0,75178,task1,180502,false,false,171,image-keyboard-response,25
true,1,2,0,2,true,d,false,true,0.0-2.0-0.2-0.25-3.25,0,0,0,68,false,stim,false,-1,1302.0,1,0,2,75178,task1,183309,false,false,174,image-keyboard-response,26
true,2,2,1,1,false,z,true,false,0.0-2.0-0.2-0.26-3.26,0,0,0,68,true,stim,false,0,496.0,1,0,1,75178,task1,185310,false,false,177,image-keyboard-response,1
true,2,2,1,0,false,q,false,false,0.0-2.0-0.3-0.27-3.27,0,0,0,68,false,stim,true,2,858.0,1,0,2,75178,task1,187674,false,false,180,image-keyboard-response,2
true,2,1,1,0,false,q,true,false,0.0-2.0-0.3-0.28-3.28,0,0,0,90,false,stim,false,2,529.0,1,0,2,75178,task1,189709,false,false,183,image-keyboard-response,3
true,2,1,1,0,false,q,false,true,0.0-2.0-0.3-0.29-3.29,0,0,0,90,false,stim,true,1,806.0,1,0,0,75178,task1,192021,false,true,186,image-keyboard-response,4
true,2,1,1,0,false,q,false,false,0.0-2.0-0.3-0.30-3.30,0,0,0,90,false,stim,true,1,628.0,1,0,0,75178,task1,194154,false,false,189,image-keyboard-response,5
true,2,2,1,0,false,q,false,false,0.0-2.0-0.3-0.31-3.31,0,0,0,68,false,stim,true,2,850.0,1,0,2,75178,task1,196508,false,false,192,image-keyboard-response,6
true,2,1,1,1,true,z,false,true,0.0-2.0-0.3-0.32-3.32,0,0,0,90,false,stim,false,0,986.0000000000291,1,0,1,75178,task1,198999,false,false,195,image-keyboard-response,7
true,2,1,1,1,true,z,false,false,0.0-2.0-0.3-0.33-3.33,0,0,0,90,false,stim,false,0,451.0,1,0,1,75178,task1,200955,false,true,198,image-keyboard-response,8
true,2,1,1,1,true,z,false,true,0.0-2.0-0.3-0.34-3.34,0,0,0,90,false,stim,false,0,630.0,1,0,1,75178,task1,203093,false,false,201,image-keyboard-response,9
true,2,0,1,0,true,q,false,true,0.0-2.0-0.3-0.35-3.35,0,0,0,81,false,stim,false,1,568.0000000000291,1,0,0,75178,task1,205167,false,false,204,image-keyboard-response,10
true,2,0,1,0,true,q,false,true,0.0-2.0-0.4-0.36-3.36,0,0,0,81,false,stim,false,2,416.9999999999709,1,0,2,75178,task1,207089,false,false,207,image-keyboard-response,11
true,2,0,1,0,true,q,false,true,0.0-2.0-0.4-0.37-3.37,0,0,0,81,false,stim,false,2,387.9999999999709,1,0,2,75178,task1,208982,false,false,210,image-keyboard-response,12
true,2,0,1,1,false,z,false,false,0.0-2.0-0.4-0.38-3.38,0,0,0,81,false,stim,true,0,584.9999999999709,1,0,1,75178,task1,211072,false,false,213,image-keyboard-response,13
true,2,1,1,0,false,q,false,false,0.0-2.0-0.4-0.39-3.39,0,0,0,90,false,stim,true,1,952.0000000000291,1,0,0,75178,task1,213529,false,false,216,image-keyboard-response,14
true,2,0,1,1,false,z,false,false,0.0-2.0-0.4-0.40-3.40,0,0,0,81,false,stim,true,0,492.9999999999709,1,0,1,75178,task1,215528,false,false,219,image-keyboard-response,15
true,2,1,1,0,false,q,false,false,0.0-2.0-0.4-0.41-3.41,0,0,0,90,false,stim,true,1,1186.000000000029,1,0,0,75178,task1,218219,false,false,222,image-keyboard-response,16
true,2,0,1,1,false,z,false,false,0.0-2.0-0.4-0.42-3.42,0,0,0,81,false,stim,true,0,818.0,1,0,1,75178,task1,220542,false,false,225,image-keyboard-response,17
true,2,1,1,0,false,q,true,false,0.0-2.0-0.4-0.43-3.43,0,0,0,90,false,stim,false,2,909.0000000000291,1,0,2,75178,task1,222957,false,false,228,image-keyboard-response,18
true,2,2,1,0,false,q,true,false,0.0-2.0-0.4-0.44-3.44,0,0,0,68,false,stim,false,1,423.0,1,0,0,75178,task1,224886,false,false,231,image-keyboard-response,19
true,2,1,1,1,true,z,false,true,0.0-2.0-0.5-0.45-3.45,0,0,0,90,false,stim,false,0,794.0,1,0,1,75178,task1,227185,false,false,234,image-keyboard-response,20
true,2,1,1,0,false,q,true,false,0.0-2.0-0.5-0.46-3.46,0,0,0,90,false,stim,false,2,927.0000000000291,1,0,2,75178,task1,229617,false,false,237,image-keyboard-response,21
true,2,0,1,0,true,q,false,true,0.0-2.0-0.5-0.47-3.47,0,0,0,81,false,stim,false,1,666.0,1,0,0,75178,task1,231788,false,false,240,image-keyboard-response,22
true,2,1,1,0,false,q,true,false,0.0-2.0-0.5-0.48-3.48,0,0,0,90,false,stim,false,2,819.0,1,0,2,75178,task1,234113,false,false,243,image-keyboard-response,23
true,2,0,1,0,true,q,false,true,0.0-2.0-0.5-0.49-3.49,0,0,0,81,false,stim,false,1,583.0,1,0,0,75178,task1,236202,false,false,246,image-keyboard-response,24
true,2,0,1,0,true,q,false,true,0.0-2.0-0.5-0.50-3.50,0,0,0,81,false,stim,false,1,349.0,1,0,0,75178,task1,238057,false,false,249,image-keyboard-response,25
true,2,2,1,1,false,z,true,false,0.0-2.0-0.5-0.51-3.51,0,0,0,68,false,stim,false,0,1056.0,1,0,1,75178,task1,240618,false,false,252,image-keyboard-response,26
true,2,0,1,0,true,q,false,true,0.0-2.0-0.5-0.52-3.52,0,0,0,81,false,stim,false,2,917.0,1,0,2,75178,task1,243039,false,false,255,image-keyboard-response,27
true,2,0,1,1,false,z,false,false,0.0-2.0-0.5-0.53-3.53,0,0,0,81,false,stim,true,0,533.0,1,0,1,75178,task1,245077,false,false,258,image-keyboard-response,28
true,2,0,1,0,true,q,false,true,0.0-2.0-0.6-0.54-3.54,0,0,0,81,false,stim,false,2,397.0,1,0,2,75178,task1,246979,false,false,261,image-keyboard-response,29
true,2,1,1,1,true,z,false,true,0.0-2.0-0.6-0.55-3.55,0,0,0,90,false,stim,false,0,433.0,1,0,1,75178,task1,248918,false,false,264,image-keyboard-response,30
true,2,0,1,0,true,q,false,true,0.0-2.0-0.6-0.56-3.56,0,0,0,81,false,stim,false,2,861.0000000000291,1,0,2,75178,task1,251284,false,false,267,image-keyboard-response,31
true,2,1,1,0,false,q,false,true,0.0-2.0-0.6-0.57-3.57,0,0,0,90,false,stim,true,1,780.0,1,0,0,75178,task1,253570,false,true,270,image-keyboard-response,32
true,2,0,1,0,true,q,false,true,0.0-2.0-0.6-0.58-3.58,0,0,0,81,false,stim,false,2,372.9999999999709,1,0,2,75178,task1,255449,false,false,273,image-keyboard-response,33
true,2,1,1,0,false,q,false,false,0.0-2.0-0.6-0.59-3.59,0,0,0,90,false,stim,true,1,359.9999999999709,1,0,0,75178,task1,257314,false,false,276,image-keyboard-response,34
true,2,0,1,1,false,z,false,false,0.0-2.0-0.6-0.60-3.60,0,0,0,81,false,stim,true,0,637.0,1,0,1,75178,task1,259456,false,false,279,image-keyboard-response,35
true,2,1,1,0,false,q,false,false,0.0-2.0-0.6-0.61-3.61,0,0,0,90,false,stim,true,1,742.0000000000291,1,0,0,75178,task1,261703,false,false,282,image-keyboard-response,36
true,2,1,1,1,true,z,false,true,0.0-2.0-0.6-0.62-3.62,0,0,0,90,false,stim,false,0,597.0,1,0,1,75178,task1,263805,false,false,285,image-keyboard-response,37
true,2,0,1,0,true,q,false,false,0.0-2.0-0.7-0.63-3.63,0,0,0,81,false,stim,false,1,528.0,1,0,0,75178,task1,265838,false,true,288,image-keyboard-response,38
true,2,1,1,1,true,z,false,true,0.0-2.0-0.7-0.64-3.64,0,0,0,90,false,stim,false,0,365.0,1,0,1,75178,task1,267709,false,false,291,image-keyboard-response,39
true,2,0,1,0,true,q,false,false,0.0-2.0-0.7-0.65-3.65,0,0,0,81,false,stim,false,1,482.0,1,0,0,75178,task1,269696,false,true,294,image-keyboard-response,40
true,2,1,1,0,false,q,true,false,0.0-2.0-0.7-0.66-3.66,0,0,0,90,false,stim,false,2,1063.0,1,0,2,75178,task1,272265,false,false,297,image-keyboard-response,41
true,2,0,1,0,true,q,false,true,0.0-2.0-0.7-0.67-3.67,0,0,0,81,false,stim,false,1,845.0,1,0,0,75178,task1,274615,false,false,300,image-keyboard-response,42
true,3,2,1,1,false,z,true,false,0.0-2.0-0.7-0.68-3.68,0,0,0,68,true,stim,false,0,997.0000000000582,1,0,2,75178,task1,277119,false,false,303,image-keyboard-response,1
true,3,1,1,1,true,z,false,true,0.0-2.0-0.7-0.69-3.69,0,0,0,90,false,stim,false,0,722.0000000000582,1,0,2,75178,task1,279345,false,false,306,image-keyboard-response,2
true,3,0,1,2,false,d,true,false,0.0-2.0-0.7-0.70-3.70,0,0,0,81,false,stim,false,1,669.0,1,0,1,75178,task1,281519,false,false,309,image-keyboard-response,3
true,3,1,1,2,false,d,false,false,0.0-2.0-0.7-0.71-3.71,0,0,0,90,false,stim,true,1,552.0,1,0,1,75178,task1,283577,false,false,312,image-keyboard-response,4
true,3,0,1,2,false,d,false,false,0.0-2.0-0.8-0.72-3.72,0,0,0,81,false,stim,true,0,1071.0,1,0,0,75178,task1,286154,false,false,315,image-keyboard-response,5
true,3,1,1,2,false,d,true,true,0.0-2.0-0.8-0.73-3.73,0,0,0,90,false,stim,false,0,1169.0,1,0,0,75178,task1,288829,false,true,318,image-keyboard-response,6
true,3,2,1,2,true,d,false,true,0.0-2.0-0.8-0.74-3.74,0,0,0,68,false,stim,false,1,925.0,1,0,1,75178,task1,291258,false,false,321,image-keyboard-response,7
true,3,1,1,1,true,z,false,true,0.0-2.0-0.8-0.75-3.75,0,0,0,90,false,stim,false,0,1246.0,1,0,2,75178,task1,294009,false,false,324,image-keyboard-response,8
true,3,2,1,2,true,d,false,true,0.0-2.0-0.8-0.76-3.76,0,0,0,68,false,stim,false,1,653.0,1,0,1,75178,task1,296168,false,false,327,image-keyboard-response,9
true,3,1,1,2,false,d,true,false,0.0-2.0-0.8-0.77-3.77,0,0,0,90,false,stim,false,0,855.0,1,0,0,75178,task1,298529,false,false,330,image-keyboard-response,10
true,3,2,1,1,false,z,true,false,0.0-2.0-0.8-0.78-3.78,0,0,0,68,false,stim,false,0,531.0000000000582,1,0,2,75178,task1,300565,false,false,333,image-keyboard-response,11
true,3,0,1,2,false,d,true,false,0.0-2.0-0.8-0.79-3.79,0,0,0,81,false,stim,false,1,933.0,1,0,1,75178,task1,303004,false,false,336,image-keyboard-response,12
true,3,1,1,1,true,z,false,true,0.0-2.0-0.8-0.80-3.80,0,0,0,90,false,stim,false,0,938.0,1,0,2,75178,task1,305447,false,false,339,image-keyboard-response,13
true,3,1,1,2,false,d,false,false,0.0-2.0-0.9-0.81-3.81,0,0,0,90,false,stim,true,1,1155.0,1,0,1,75178,task1,308108,false,false,342,image-keyboard-response,14
true,3,2,1,2,true,d,false,true,0.0-2.0-0.9-0.82-3.82,0,0,0,68,false,stim,false,1,445.0,1,0,1,75178,task1,310058,false,false,345,image-keyboard-response,15
true,3,2,1,2,true,d,false,false,0.0-2.0-0.9-0.83-3.83,0,0,0,68,false,stim,false,1,392.0,1,0,1,75178,task1,311955,false,true,348,image-keyboard-response,16
true,3,1,1,1,true,z,false,true,0.0-2.0-0.9-0.84-3.84,0,0,0,90,false,stim,false,0,1208.0,1,0,2,75178,task1,314669,false,false,351,image-keyboard-response,17
true,3,0,1,2,false,d,false,false,0.0-2.0-0.9-0.85-3.85,0,0,0,81,false,stim,true,0,2457.0,1,0,0,75178,task1,318632,false,false,354,image-keyboard-response,18
true,3,2,1,2,true,d,false,true,0.0-2.0-0.9-0.86-3.86,0,0,0,68,false,stim,false,0,915.0000000000582,1,0,0,75178,task1,321052,false,false,357,image-keyboard-response,19
true,3,2,1,1,false,z,true,false,0.0-2.0-0.9-0.87-3.87,0,0,0,68,false,stim,false,0,1072.0000000000582,1,0,2,75178,task1,323629,false,false,360,image-keyboard-response,20
true,3,1,1,1,true,z,false,true,0.0-2.0-0.9-0.88-3.88,0,0,0,90,false,stim,false,0,944.0,1,0,2,75178,task1,326078,false,false,363,image-keyboard-response,21
true,3,2,1,2,true,d,false,true,0.0-2.0-0.9-0.89-3.89,0,0,0,68,false,stim,false,0,1138.0,1,0,0,75178,task1,328721,false,false,366,image-keyboard-response,22
true,3,2,1,2,true,d,false,true,0.0-2.0-0.10-0.90-3.90,0,0,0,68,false,stim,false,0,786.0,1,0,0,75178,task1,331014,false,false,369,image-keyboard-response,23
true,3,1,1,2,false,d,false,false,0.0-2.0-0.10-0.91-3.91,0,0,0,90,false,stim,true,1,767.0,1,0,1,75178,task1,333287,false,false,372,image-keyboard-response,24
true,3,0,1,1,false,z,false,false,0.0-2.0-0.10-0.92-3.92,0,0,0,81,false,stim,true,0,844.0,1,0,2,75178,task1,335636,false,false,375,image-keyboard-response,25
true,3,1,1,2,false,d,false,true,0.0-2.0-0.10-0.93-3.93,0,0,0,90,false,stim,true,1,953.0,1,0,1,75178,task1,338095,false,true,378,image-keyboard-response,26
true,3,2,1,1,false,z,true,false,0.0-2.0-0.10-0.94-3.94,0,0,0,68,false,stim,false,0,1854.9999999999418,1,0,2,75178,task1,341455,false,false,381,image-keyboard-response,27
true,3,1,1,2,false,d,true,false,0.0-2.0-0.10-0.95-3.95,0,0,0,90,false,stim,false,0,345.0,1,0,0,75178,task1,343305,false,false,384,image-keyboard-response,28
true,3,0,1,2,false,d,false,false,0.0-2.0-0.10-0.96-3.96,0,0,0,81,false,stim,true,0,551.0,1,0,0,75178,task1,345361,false,false,387,image-keyboard-response,29
true,3,1,1,2,false,d,false,true,0.0-2.0-0.10-0.97-3.97,0,0,0,90,false,stim,true,1,902.9999999999418,1,0,1,75178,task1,347770,false,true,390,image-keyboard-response,30
true,3,2,1,1,false,z,true,false,0.0-2.0-0.10-0.98-3.98,0,0,0,68,false,stim,false,0,882.0,1,0,2,75178,task1,350157,false,false,393,image-keyboard-response,31
true,3,0,1,2,false,d,true,false,0.0-2.0-0.11-0.99-3.99,0,0,0,81,false,stim,false,1,770.0,1,0,1,75178,task1,352433,false,false,396,image-keyboard-response,32
true,3,1,1,2,false,d,true,false,0.0-2.0-0.11-0.100-3.100,0,0,0,90,false,stim,false,0,632.9999999999418,1,0,0,75178,task1,354571,false,false,399,image-keyboard-response,33
true,3,0,1,1,false,z,false,false,0.0-2.0-0.11-0.101-3.101,0,0,0,81,false,stim,true,0,964.0,1,0,2,75178,task1,357043,false,false,402,image-keyboard-response,34
true,3,1,1,1,true,z,false,true,0.0-2.0-0.11-0.102-3.102,0,0,0,90,false,stim,false,0,598.0,1,0,2,75178,task1,359147,false,false,405,image-keyboard-response,35
true,3,1,1,2,false,d,true,false,0.0-2.0-0.11-0.103-3.103,0,0,0,90,false,stim,false,0,803.9999999999418,1,0,0,75178,task1,361457,false,false,408,image-keyboard-response,36
true,3,1,1,2,false,d,false,true,0.0-2.0-0.11-0.104-3.104,0,0,0,90,false,stim,true,1,589.9999999999418,1,0,1,75178,task1,363553,false,true,411,image-keyboard-response,37
true,3,1,1,1,true,z,false,true,0.0-2.0-0.11-0.105-3.105,0,0,0,90,false,stim,false,0,389.0,1,0,2,75178,task1,365447,false,false,414,image-keyboard-response,38
true,3,1,1,2,false,d,false,false,0.0-2.0-0.11-0.106-3.106,0,0,0,90,false,stim,true,1,616.0,1,0,1,75178,task1,367569,false,false,417,image-keyboard-response,39
true,3,2,1,2,true,d,false,true,0.0-2.0-0.11-0.107-3.107,0,0,0,68,false,stim,false,0,541.9999999999418,1,0,0,75178,task1,369617,false,false,420,image-keyboard-response,40
true,3,1,1,2,false,d,false,false,0.0-2.0-0.12-0.108-3.108,0,0,0,90,false,stim,true,1,1146.0,1,0,1,75178,task1,372268,false,false,423,image-keyboard-response,41
true,3,0,1,2,false,d,true,false,0.0-2.0-0.12-0.109-3.109,0,0,0,81,false,stim,false,1,416.0,1,0,1,75178,task1,374190,false,false,426,image-keyboard-response,42
true,3,2,1,1,false,z,true,false,0.0-2.0-0.12-0.110-3.110,0,0,0,68,false,stim,false,0,562.0,1,0,2,75178,task1,376258,false,false,429,image-keyboard-response,43
true,4,1,1,0,false,q,true,false,0.0-2.0-0.12-0.111-3.111,0,0,0,90,true,stim,false,2,2029.0,1,0,1,75178,task1,379792,false,false,432,image-keyboard-response,1
true,4,2,1,0,false,q,true,false,0.0-2.0-0.12-0.112-3.112,0,0,0,68,false,stim,false,1,560.0,1,0,2,75178,task1,381858,false,false,435,image-keyboard-response,2
true,4,1,1,1,true,z,false,true,0.0-2.0-0.12-0.113-3.113,0,0,0,90,false,stim,false,2,685.0,1,0,0,75178,task1,384049,false,false,438,image-keyboard-response,3
true,4,1,1,0,false,q,false,false,0.0-2.0-0.12-0.114-3.114,0,0,0,90,false,stim,true,1,455.0000000000582,1,0,2,75178,task1,386010,false,false,441,image-keyboard-response,4
true,4,2,1,1,false,z,false,false,0.0-2.0-0.12-0.115-3.115,0,0,0,68,false,stim,true,2,547.0000000000582,1,0,0,75178,task1,388062,false,false,444,image-keyboard-response,5
true,4,0,1,1,false,z,true,true,0.0-2.0-0.12-0.116-3.116,0,0,0,81,false,stim,false,2,778.0,1,0,0,75178,task1,390345,false,true,447,image-keyboard-response,6
true,4,1,1,0,false,q,true,false,0.0-2.0-0.13-0.117-3.117,0,0,0,90,false,stim,false,2,1008.0,1,0,1,75178,task1,392859,false,false,450,image-keyboard-response,7
true,4,0,1,0,true,q,false,true,0.0-2.0-0.13-0.118-3.118,0,0,0,81,false,stim,false,1,518.0,1,0,2,75178,task1,394883,false,false,453,image-keyboard-response,8
true,4,0,1,0,true,q,false,true,0.0-2.0-0.13-0.119-3.119,0,0,0,81,false,stim,false,1,646.0,1,0,2,75178,task1,397034,false,false,456,image-keyboard-response,9
true,4,0,1,1,false,z,true,false,0.0-2.0-0.13-0.120-3.120,0,0,0,81,false,stim,false,2,925.0,1,0,0,75178,task1,399465,false,false,459,image-keyboard-response,10
true,4,1,1,0,false,q,true,false,0.0-2.0-0.13-0.121-3.121,0,0,0,90,false,stim,false,2,516.0,1,0,1,75178,task1,401487,false,false,462,image-keyboard-response,11
true,4,2,1,0,false,q,true,false,0.0-2.0-0.13-0.122-3.122,0,0,0,68,false,stim,false,1,416.0,1,0,2,75178,task1,403409,false,false,465,image-keyboard-response,12
true,4,0,1,1,false,z,true,false,0.0-2.0-0.13-0.123-3.123,0,0,0,81,false,stim,false,2,763.0,1,0,0,75178,task1,405678,false,false,468,image-keyboard-response,13
true,4,1,1,0,false,q,true,true,0.0-2.0-0.13-0.124-3.124,0,0,0,90,false,stim,false,2,478.0,1,0,1,75178,task1,407662,false,true,471,image-keyboard-response,14
true,4,2,1,1,false,z,false,false,0.0-2.0-0.13-0.125-3.125,0,0,0,68,false,stim,true,2,950.0,1,0,0,75178,task1,410117,false,false,474,image-keyboard-response,15
true,4,1,1,0,false,q,false,true,0.0-2.0-0.14-0.126-3.126,0,0,0,90,false,stim,true,1,1630.0,1,0,2,75178,task1,413253,false,true,477,image-keyboard-response,16
true,4,0,1,1,false,z,true,false,0.0-2.0-0.14-0.127-3.127,0,0,0,81,false,stim,false,2,741.9999999999418,1,0,0,75178,task1,415501,false,false,480,image-keyboard-response,17
true,4,1,1,0,false,q,true,false,0.0-2.0-0.14-0.128-3.128,0,0,0,90,false,stim,false,2,1454.0000000000582,1,0,1,75178,task1,418460,false,false,483,image-keyboard-response,18
true,4,2,1,1,false,z,false,false,0.0-2.0-0.14-0.129-3.129,0,0,0,68,false,stim,true,2,1756.0000000000582,1,0,0,75178,task1,421722,false,false,486,image-keyboard-response,19
true,4,0,1,1,false,z,true,false,0.0-2.0-0.14-0.130-3.130,0,0,0,81,false,stim,false,2,700.0,1,0,0,75178,task1,423929,false,false,489,image-keyboard-response,20
true,4,1,1,0,false,q,false,false,0.0-2.0-0.14-0.131-3.131,0,0,0,90,false,stim,true,1,491.0,1,0,2,75178,task1,425926,false,false,492,image-keyboard-response,21
true,4,2,1,0,false,q,true,false,0.0-2.0-0.14-0.132-3.132,0,0,0,68,false,stim,false,1,601.0000000000582,1,0,2,75178,task1,428032,false,false,495,image-keyboard-response,22
true,4,1,1,0,false,q,true,false,0.0-2.0-0.14-0.133-3.133,0,0,0,90,false,stim,false,2,835.0,1,0,1,75178,task1,430373,false,false,498,image-keyboard-response,23
true,4,0,1,0,true,q,false,true,0.0-2.0-0.14-0.134-3.134,0,0,0,81,false,stim,false,2,671.0,1,0,1,75178,task1,432553,false,false,501,image-keyboard-response,24
true,4,0,1,1,false,z,true,false,0.0-2.0-0.15-0.135-3.135,0,0,0,81,false,stim,false,2,620.0,1,0,0,75178,task1,434679,false,false,504,image-keyboard-response,25
false,4,-1,1,1,false,z,true,true,0.0-2.0-0.15-0.136-3.136,0,0,0,,false,stim,false,2,,1,0,0,75178,task1,439186,false,true,507,image-keyboard-response,26
true,4,2,1,0,false,q,true,false,0.0-2.0-0.15-0.137-3.137,0,0,0,68,false,stim,false,1,367.0,1,0,2,75178,task1,441059,false,false,510,image-keyboard-response,27
true,4,1,1,0,false,q,true,true,0.0-2.0-0.15-0.138-3.138,0,0,0,90,false,stim,false,2,746.0,1,0,1,75178,task1,443312,false,true,513,image-keyboard-response,28
true,4,0,1,0,true,q,false,true,0.0-2.0-0.15-0.139-3.139,0,0,0,81,false,stim,false,1,705.0,1,0,2,75178,task1,445523,false,false,516,image-keyboard-response,29
true,4,1,1,0,false,q,true,true,0.0-2.0-0.15-0.140-3.140,0,0,0,90,false,stim,false,2,514.0,1,0,1,75178,task1,447543,false,true,519,image-keyboard-response,30
true,4,2,1,1,false,z,false,false,0.0-2.0-0.15-0.141-3.141,0,0,0,68,false,stim,true,2,980.9999999999418,1,0,0,75178,task1,450030,false,false,522,image-keyboard-response,31
true,4,1,1,0,false,q,false,false,0.0-2.0-0.15-0.142-3.142,0,0,0,90,false,stim,true,1,468.0,1,0,2,75178,task1,452003,false,false,525,image-keyboard-response,32
true,4,0,1,0,true,q,false,true,0.0-2.0-0.15-0.143-3.143,0,0,0,81,false,stim,false,2,340.0,1,0,1,75178,task1,453849,false,false,528,image-keyboard-response,33
true,4,0,1,0,true,q,false,true,0.0-2.0-0.16-0.144-3.144,0,0,0,81,false,stim,false,2,403.0000000000582,1,0,1,75178,task1,455758,false,false,531,image-keyboard-response,34
true,4,0,1,0,true,q,false,true,0.0-2.0-0.16-0.145-3.145,0,0,0,81,false,stim,false,2,568.0,1,0,1,75178,task1,457832,false,false,534,image-keyboard-response,35
true,4,1,1,1,true,z,false,true,0.0-2.0-0.16-0.146-3.146,0,0,0,90,false,stim,false,2,617.0,1,0,0,75178,task1,459955,false,false,537,image-keyboard-response,36
true,4,1,1,1,true,z,false,false,0.0-2.0-0.16-0.147-3.147,0,0,0,90,false,stim,false,2,464.9999999999418,1,0,0,75178,task1,461924,false,true,540,image-keyboard-response,37
true,4,2,1,0,false,q,true,false,0.0-2.0-0.16-0.148-3.148,0,0,0,68,false,stim,false,1,601.0,1,0,2,75178,task1,464031,false,false,543,image-keyboard-response,38
true,4,0,1,0,true,q,false,true,0.0-2.0-0.16-0.149-3.149,0,0,0,81,false,stim,false,1,514.0,1,0,2,75178,task1,466051,false,false,546,image-keyboard-response,39
true,4,0,1,0,true,q,false,true,0.0-2.0-0.16-0.150-3.150,0,0,0,81,false,stim,false,2,305.0,1,0,1,75178,task1,467861,false,false,549,image-keyboard-response,40
true,4,1,1,1,true,z,false,true,0.0-2.0-0.16-0.151-3.151,0,0,0,90,false,stim,false,2,580.0000000000582,1,0,0,75178,task1,469947,false,false,552,image-keyboard-response,41
true,4,0,1,0,true,q,false,true,0.0-2.0-0.16-0.152-3.152,0,0,0,81,false,stim,false,1,1755.0,1,0,2,75178,task1,473207,false,false,555,image-keyboard-response,42
true,4,0,1,0,true,q,false,true,0.0-2.0-0.17-0.153-3.153,0,0,0,81,false,stim,false,2,1020.0000000000582,1,0,1,75178,task1,475733,false,false,558,image-keyboard-response,43
true,4,1,1,1,true,z,false,false,0.0-2.0-0.17-0.154-3.154,0,0,0,90,false,stim,false,2,1234.0,1,0,0,75178,task1,478473,false,true,561,image-keyboard-response,44
true,5,0,1,1,false,z,false,false,0.0-2.0-0.17-0.155-3.155,0,0,0,81,true,stim,true,0,532.0,1,0,1,75178,task1,480511,false,false,564,image-keyboard-response,1
true,5,0,1,2,false,d,false,false,0.0-2.0-0.17-0.156-3.156,0,0,0,81,false,stim,true,0,757.0000000000582,1,0,2,75178,task1,482773,false,false,567,image-keyboard-response,2
true,5,2,1,0,false,q,true,false,0.0-2.0-0.17-0.157-3.157,0,0,0,68,false,stim,false,1,659.0,1,0,0,75178,task1,484937,false,false,570,image-keyboard-response,3
true,5,1,1,0,false,q,false,false,0.0-2.0-0.17-0.158-3.158,0,0,0,90,false,stim,true,1,685.0,1,0,0,75178,task1,487128,false,false,573,image-keyboard-response,4
true,5,0,1,2,false,d,false,false,0.0-2.0-0.17-0.159-3.159,0,0,0,81,false,stim,true,0,364.0,1,0,2,75178,task1,488998,false,false,576,image-keyboard-response,5
true,5,1,1,2,false,d,true,false,0.0-2.0-0.17-0.160-3.160,0,0,0,90,false,stim,false,0,701.0,1,0,2,75178,task1,491205,false,false,579,image-keyboard-response,6
true,5,0,1,1,false,z,false,false,0.0-2.0-0.17-0.161-3.161,0,0,0,81,false,stim,true,0,950.0000000000582,1,0,1,75178,task1,493660,false,false,582,image-keyboard-response,7
true,5,2,1,1,false,z,true,false,0.0-2.0-0.18-0.162-3.162,0,0,0,68,false,stim,false,0,484.0,1,0,1,75178,task1,495650,false,false,585,image-keyboard-response,8
true,5,1,1,1,true,z,false,true,0.0-2.0-0.18-0.163-3.163,0,0,0,90,false,stim,false,0,582.0,1,0,1,75178,task1,497738,false,false,588,image-keyboard-response,9
true,5,2,1,0,false,q,true,false,0.0-2.0-0.18-0.164-3.164,0,0,0,68,false,stim,false,1,736.9999999999418,1,0,0,75178,task1,499981,false,false,591,image-keyboard-response,10
true,5,0,1,2,false,d,false,false,0.0-2.0-0.18-0.165-3.165,0,0,0,81,false,stim,true,0,490.0000000000582,1,0,2,75178,task1,501974,false,false,594,image-keyboard-response,11
true,5,1,1,1,true,z,false,false,0.0-2.0-0.18-0.166-3.166,0,0,0,90,false,stim,false,0,530.0,1,0,1,75178,task1,504010,false,true,597,image-keyboard-response,12
true,5,2,1,0,false,q,true,false,0.0-2.0-0.18-0.167-3.167,0,0,0,68,false,stim,false,1,482.0,1,0,0,75178,task1,505998,false,false,600,image-keyboard-response,13
true,5,1,1,0,false,q,false,false,0.0-2.0-0.18-0.168-3.168,0,0,0,90,false,stim,true,1,1113.0,1,0,0,75178,task1,508620,false,false,603,image-keyboard-response,14
true,5,1,1,2,false,d,true,false,0.0-2.0-0.18-0.169-3.169,0,0,0,90,false,stim,false,0,841.0,1,0,2,75178,task1,510966,false,false,606,image-keyboard-response,15
true,5,2,1,2,true,d,false,true,0.0-2.0-0.18-0.170-3.170,0,0,0,68,false,stim,false,0,556.0,1,0,2,75178,task1,513028,false,false,609,image-keyboard-response,16
true,5,2,1,2,true,d,false,false,0.0-2.0-0.19-0.171-3.171,0,0,0,68,false,stim,false,0,510.0,1,0,2,75178,task1,515042,false,true,612,image-keyboard-response,17
true,5,0,1,0,true,q,false,true,0.0-2.0-0.19-0.172-3.172,0,0,0,81,false,stim,false,1,687.0,1,0,0,75178,task1,517235,false,false,615,image-keyboard-response,18
true,5,1,1,1,true,z,false,true,0.0-2.0-0.19-0.173-3.173,0,0,0,90,false,stim,false,0,538.0,1,0,1,75178,task1,519279,false,false,618,image-keyboard-response,19
true,5,0,1,0,true,q,false,true,0.0-2.0-0.19-0.174-3.174,0,0,0,81,false,stim,false,1,707.0,1,0,0,75178,task1,521493,false,false,621,image-keyboard-response,20
true,5,0,1,0,true,q,false,false,0.0-2.0-0.19-0.175-3.175,0,0,0,81,false,stim,false,1,375.9999999999418,1,0,0,75178,task1,523374,false,true,624,image-keyboard-response,21
true,5,1,1,1,true,z,false,true,0.0-2.0-0.19-0.176-3.176,0,0,0,90,false,stim,false,0,437.0,1,0,1,75178,task1,525317,false,false,627,image-keyboard-response,22
true,5,1,1,1,true,z,false,true,0.0-2.0-0.19-0.177-3.177,0,0,0,90,false,stim,false,0,421.0,1,0,1,75178,task1,527244,false,false,630,image-keyboard-response,23
true,5,2,1,2,true,d,false,true,0.0-2.0-0.19-0.178-3.178,0,0,0,68,false,stim,false,0,513.0,1,0,2,75178,task1,529263,false,false,633,image-keyboard-response,24
true,5,2,1,2,true,d,false,true,0.0-2.0-0.19-0.179-3.179,0,0,0,68,false,stim,false,0,486.0,1,0,2,75178,task1,531255,false,false,636,image-keyboard-response,25
true,5,0,1,0,true,q,false,true,0.0-2.0-0.20-0.180-3.180,0,0,0,81,false,stim,false,1,750.0,1,0,0,75178,task1,533510,false,false,639,image-keyboard-response,26
true,5,0,1,0,true,q,false,true,0.0-2.0-0.20-0.181-3.181,0,0,0,81,false,stim,false,1,421.0,1,0,0,75178,task1,535435,false,false,642,image-keyboard-response,27
true,5,0,1,1,false,z,false,false,0.0-2.0-0.20-0.182-3.182,0,0,0,81,false,stim,true,0,391.0,1,0,1,75178,task1,537332,false,false,645,image-keyboard-response,28
true,5,2,1,2,true,d,false,true,0.0-2.0-0.20-0.183-3.183,0,0,0,68,false,stim,false,0,556.9999999998836,1,0,2,75178,task1,539395,false,false,648,image-keyboard-response,29
true,5,1,1,1,true,z,false,false,0.0-2.0-0.20-0.184-3.184,0,0,0,90,false,stim,false,0,485.0000000001164,1,0,1,75178,task1,541386,false,true,651,image-keyboard-response,30
true,5,2,1,0,false,q,true,false,0.0-2.0-0.20-0.185-3.185,0,0,0,68,false,stim,false,1,535.0,1,0,0,75178,task1,543427,false,false,654,image-keyboard-response,31
true,5,2,1,2,true,d,false,true,0.0-2.0-0.20-0.186-3.186,0,0,0,68,false,stim,false,0,387.0,1,0,2,75178,task1,545318,false,false,657,image-keyboard-response,32
true,5,2,1,2,true,d,false,true,0.0-2.0-0.20-0.187-3.187,0,0,0,68,false,stim,false,0,449.0,1,0,2,75178,task1,547273,false,false,660,image-keyboard-response,33
true,5,1,1,1,true,z,false,false,0.0-2.0-0.20-0.188-3.188,0,0,0,90,false,stim,false,0,839.0,1,0,1,75178,task1,549617,false,true,663,image-keyboard-response,34
true,5,1,1,1,true,z,false,false,0.0-2.0-0.21-0.189-3.189,0,0,0,90,false,stim,false,0,718.0,1,0,1,75178,task1,551842,false,true,666,image-keyboard-response,35
true,5,0,1,1,false,z,false,false,0.0-2.0-0.21-0.190-3.190,0,0,0,81,false,stim,true,0,495.0,1,0,1,75178,task1,553843,false,false,669,image-keyboard-response,36
true,5,2,1,2,true,d,false,false,0.0-2.0-0.21-0.191-3.191,0,0,0,68,false,stim,false,0,553.0,1,0,2,75178,task1,555901,false,true,672,image-keyboard-response,37
true,5,2,1,2,true,d,false,true,0.0-2.0-0.21-0.192-3.192,0,0,0,68,false,stim,false,0,490.0,1,0,2,75178,task1,557897,false,false,675,image-keyboard-response,38
true,5,0,1,0,true,q,false,true,0.0-2.0-0.21-0.193-3.193,0,0,0,81,false,stim,false,1,579.0,1,0,0,75178,task1,559982,false,false,678,image-keyboard-response,39
true,5,0,1,0,true,q,false,true,0.0-2.0-0.21-0.194-3.194,0,0,0,81,false,stim,false,1,455.0,1,0,0,75178,task1,561943,false,false,681,image-keyboard-response,40
true,5,0,1,0,true,q,false,true,0.0-2.0-0.21-0.195-3.195,0,0,0,81,false,stim,false,1,28.0,1,0,0,75178,task1,563477,false,false,684,image-keyboard-response,41
true,5,2,1,2,true,d,false,true,0.0-2.0-0.21-0.196-3.196,0,0,0,68,false,stim,false,0,485.0,1,0,2,75178,task1,565467,false,false,687,image-keyboard-response,42
true,5,0,1,1,false,z,false,false,0.0-2.0-0.21-0.197-3.197,0,0,0,81,false,stim,true,0,546.0,1,0,1,75178,task1,567519,false,false,690,image-keyboard-response,43
true,6,0,2,1,false,z,false,false,0.0-2.0-0.22-0.198-3.198,0,0,0,81,true,stim,true,0,660.0,1,0,0,75178,task1,569686,false,false,693,image-keyboard-response,1
true,6,2,2,0,false,q,false,false,0.0-2.0-0.22-0.199-3.199,0,0,0,68,false,stim,true,2,462.0,1,0,2,75178,task1,571654,false,false,696,image-keyboard-response,2
true,6,2,2,0,false,q,false,true,0.0-2.0-0.22-0.200-3.200,0,0,0,68,false,stim,true,2,447.0,1,0,2,75178,task1,573607,false,true,699,image-keyboard-response,3
true,6,2,2,0,false,q,true,false,0.0-2.0-0.22-0.201-3.201,0,0,0,68,false,stim,false,1,411.0,1,0,1,75178,task1,575528,false,false,702,image-keyboard-response,4
true,6,0,2,1,false,z,false,false,0.0-2.0-0.22-0.202-3.202,0,0,0,81,false,stim,true,0,588.9999999998836,1,0,0,75178,task1,577622,false,false,705,image-keyboard-response,5
true,6,1,2,1,true,z,false,true,0.0-2.0-0.22-0.203-3.203,0,0,0,90,false,stim,false,0,748.0,1,0,0,75178,task1,579874,false,false,708,image-keyboard-response,6
true,6,2,2,0,false,q,false,false,0.0-2.0-0.22-0.204-3.204,0,0,0,68,false,stim,true,2,555.0,1,0,2,75178,task1,581935,false,false,711,image-keyboard-response,7
true,6,1,2,0,false,q,false,false,0.0-2.0-0.22-0.205-3.205,0,0,0,90,false,stim,true,1,410.0,1,0,1,75178,task1,583849,false,false,714,image-keyboard-response,8
true,6,0,2,0,true,q,false,true,0.0-2.0-0.22-0.206-3.206,0,0,0,81,false,stim,false,1,709.9999999998836,1,0,1,75178,task1,586066,false,false,717,image-keyboard-response,9
true,6,0,2,0,true,q,false,true,0.0-2.0-0.23-0.207-3.207,0,0,0,81,false,stim,false,1,722.0,1,0,1,75178,task1,588294,false,false,720,image-keyboard-response,10
true,6,2,2,0,false,q,false,false,0.0-2.0-0.23-0.208-3.208,0,0,0,68,false,stim,true,2,940.0,1,0,2,75178,task1,590739,false,false,723,image-keyboard-response,11
true,6,0,2,0,true,q,false,true,0.0-2.0-0.23-0.209-3.209,0,0,0,81,false,stim,false,2,482.0,1,0,2,75178,task1,592727,false,false,726,image-keyboard-response,12
true,6,0,2,0,true,q,false,true,0.0-2.0-0.23-0.210-3.210,0,0,0,81,false,stim,false,1,372.0000000001164,1,0,1,75178,task1,594605,false,false,729,image-keyboard-response,13
true,6,0,2,0,true,q,false,false,0.0-2.0-0.23-0.211-3.211,0,0,0,81,false,stim,false,2,603.0,1,0,2,75178,task1,596714,false,true,732,image-keyboard-response,14
true,6,1,2,1,true,z,false,true,0.0-2.0-0.23-0.212-3.212,0,0,0,90,false,stim,false,0,750.0,1,0,0,75178,task1,598968,false,false,735,image-keyboard-response,15
true,6,1,2,1,true,z,false,true,0.0-2.0-0.23-0.213-3.213,0,0,0,90,false,stim,false,0,480.0,1,0,0,75178,task1,600954,false,false,738,image-keyboard-response,16
true,6,1,2,1,true,z,false,true,0.0-2.0-0.23-0.214-3.214,0,0,0,90,false,stim,false,0,358.0,1,0,0,75178,task1,602818,false,false,741,image-keyboard-response,17
true,6,0,2,0,true,q,false,true,0.0-2.0-0.23-0.215-3.215,0,0,0,81,false,stim,false,1,622.0,1,0,1,75178,task1,604946,false,false,744,image-keyboard-response,18
true,6,0,2,0,true,q,false,true,0.0-2.0-0.24-0.216-3.216,0,0,0,81,false,stim,false,1,363.0,1,0,1,75178,task1,606815,false,false,747,image-keyboard-response,19
true,6,0,2,0,true,q,false,true,0.0-2.0-0.24-0.217-3.217,0,0,0,81,false,stim,false,1,363.0,1,0,1,75178,task1,608683,false,false,750,image-keyboard-response,20
true,6,1,2,1,true,z,false,true,0.0-2.0-0.24-0.218-3.218,0,0,0,90,false,stim,false,0,558.0,1,0,0,75178,task1,610747,false,false,753,image-keyboard-response,21
true,6,2,2,0,false,q,false,false,0.0-2.0-0.24-0.219-3.219,0,0,0,68,false,stim,true,2,618.0,1,0,2,75178,task1,612872,false,false,756,image-keyboard-response,22
true,6,1,2,1,true,z,false,true,0.0-2.0-0.24-0.220-3.220,0,0,0,90,false,stim,false,0,1017.9999999998836,1,0,0,75178,task1,615396,false,false,759,image-keyboard-response,23
true,6,0,2,0,true,q,false,true,0.0-2.0-0.24-0.221-3.221,0,0,0,81,false,stim,false,1,460.0,1,0,1,75178,task1,617363,false,false,762,image-keyboard-response,24
true,6,0,2,1,false,z,false,false,0.0-2.0-0.24-0.222-3.222,0,0,0,81,false,stim,true,0,990.0,1,0,0,75178,task1,619858,false,false,765,image-keyboard-response,25
true,6,0,2,0,true,q,false,true,0.0-2.0-0.24-0.223-3.223,0,0,0,81,false,stim,false,2,544.0,1,0,2,75178,task1,621910,false,false,768,image-keyboard-response,26
true,6,0,2,0,true,q,false,true,0.0-2.0-0.24-0.224-3.224,0,0,0,81,false,stim,false,2,704.0,1,0,2,75178,task1,624120,false,false,771,image-keyboard-response,27
true,6,0,2,0,true,q,false,true,0.0-2.0-0.25-0.225-3.225,0,0,0,81,false,stim,false,1,554.0,1,0,1,75178,task1,626180,false,false,774,image-keyboard-response,28
true,6,1,2,1,true,z,false,true,0.0-2.0-0.25-0.226-3.226,0,0,0,90,false,stim,false,0,419.9999999998836,1,0,0,75178,task1,628106,false,false,777,image-keyboard-response,29
true,6,0,2,0,true,q,false,false,0.0-2.0-0.25-0.227-3.227,0,0,0,81,false,stim,false,1,711.0,1,0,1,75178,task1,630322,false,true,780,image-keyboard-response,30
true,6,1,2,1,true,z,false,true,0.0-2.0-0.25-0.228-3.228,0,0,0,90,false,stim,false,0,553.0,1,0,0,75178,task1,632381,false,false,783,image-keyboard-response,31
true,6,1,2,1,true,z,false,true,0.0-2.0-0.25-0.229-3.229,0,0,0,90,false,stim,false,0,381.0,1,0,0,75178,task1,634270,false,false,786,image-keyboard-response,32
true,6,0,2,0,true,q,false,true,0.0-2.0-0.25-0.230-3.230,0,0,0,81,false,stim,false,2,666.9999999998836,1,0,2,75178,task1,636444,false,false,789,image-keyboard-response,33
true,6,1,2,0,false,q,false,false,0.0-2.0-0.25-0.231-3.231,0,0,0,90,false,stim,true,1,554.0,1,0,1,75178,task1,638504,false,false,792,image-keyboard-response,34
true,6,0,2,0,true,q,false,true,0.0-2.0-0.25-0.232-3.232,0,0,0,81,false,stim,false,2,621.0,1,0,2,75178,task1,640631,false,false,795,image-keyboard-response,35
true,6,0,2,0,true,q,false,true,0.0-2.0-0.25-0.233-3.233,0,0,0,81,false,stim,false,2,438.0,1,0,2,75178,task1,642574,false,false,798,image-keyboard-response,36
true,6,1,2,1,true,z,false,true,0.0-2.0-0.26-0.234-3.234,0,0,0,90,false,stim,false,0,553.0,1,0,0,75178,task1,644639,false,false,801,image-keyboard-response,37
true,6,1,2,1,true,z,false,true,0.0-2.0-0.26-0.235-3.235,0,0,0,90,false,stim,false,0,437.0,1,0,0,75178,task1,646582,false,false,804,image-keyboard-response,38
true,6,0,2,0,true,q,false,true,0.0-2.0-0.26-0.236-3.236,0,0,0,81,false,stim,false,1,591.0,1,0,1,75178,task1,648679,false,false,807,image-keyboard-response,39
true,6,1,2,0,false,q,true,false,0.0-2.0-0.26-0.237-3.237,0,0,0,90,false,stim,false,2,1007.9999999998836,1,0,2,75178,task1,651194,false,false,810,image-keyboard-response,40
true,6,0,2,0,true,q,false,true,0.0-2.0-0.26-0.238-3.238,0,0,0,81,false,stim,false,2,498.0,1,0,2,75178,task1,653198,false,false,813,image-keyboard-response,41
true,7,0,2,1,false,z,false,false,0.0-2.0-0.26-0.239-3.239,0,0,0,81,true,stim,true,0,973.0,1,0,1,75178,task1,655678,false,false,816,image-keyboard-response,1
true,7,1,2,0,false,q,false,false,0.0-2.0-0.26-0.240-3.240,0,0,0,90,false,stim,true,1,684.0,1,0,0,75178,task1,657868,false,false,819,image-keyboard-response,2
true,7,1,2,2,false,d,true,false,0.0-2.0-0.26-0.241-3.241,0,0,0,90,false,stim,false,0,654.0,1,0,2,75178,task1,660029,false,false,822,image-keyboard-response,3
true,7,1,2,1,true,z,false,true,0.0-2.0-0.26-0.242-3.242,0,0,0,90,false,stim,false,0,775.0000000001164,1,0,1,75178,task1,662310,false,false,825,image-keyboard-response,4
true,7,1,2,1,true,z,false,true,0.0-2.0-0.27-0.243-3.243,0,0,0,90,false,stim,false,0,403.0,1,0,1,75178,task1,664221,false,false,828,image-keyboard-response,5
true,7,0,2,0,true,q,false,true,0.0-2.0-0.27-0.244-3.244,0,0,0,81,false,stim,false,1,721.0,1,0,0,75178,task1,666448,false,false,831,image-keyboard-response,6
true,7,1,2,1,true,z,false,true,0.0-2.0-0.27-0.245-3.245,0,0,0,90,false,stim,false,0,439.0,1,0,1,75178,task1,668395,false,false,834,image-keyboard-response,7
true,7,0,2,2,false,d,false,false,0.0-2.0-0.27-0.246-3.246,0,0,0,81,false,stim,true,0,636.9999999998836,1,0,2,75178,task1,670538,false,false,837,image-keyboard-response,8
true,7,1,2,2,false,d,true,false,0.0-2.0-0.27-0.247-3.247,0,0,0,90,false,stim,false,0,591.0,1,0,2,75178,task1,672635,false,false,840,image-keyboard-response,9
true,7,1,2,1,true,z,false,true,0.0-2.0-0.27-0.248-3.248,0,0,0,90,false,stim,false,0,562.0,1,0,1,75178,task1,674702,false,false,843,image-keyboard-response,10
true,7,0,2,0,true,q,false,true,0.0-2.0-0.27-0.249-3.249,0,0,0,81,false,stim,false,1,342.9999999998836,1,0,0,75178,task1,676551,false,false,846,image-keyboard-response,11
true,7,0,2,0,true,q,false,true,0.0-2.0-0.27-0.250-3.250,0,0,0,81,false,stim,false,1,452.0,1,0,0,75178,task1,678510,false,false,849,image-keyboard-response,12
true,7,2,2,2,true,d,false,true,0.0-2.0-0.27-0.251-3.251,0,0,0,68,false,stim,false,0,725.0,1,0,2,75178,task1,680741,false,false,852,image-keyboard-response,13
true,7,2,2,2,true,d,false,true,0.0-2.0-0.28-0.252-3.252,0,0,0,68,false,stim,false,0,370.0,1,0,2,75178,task1,682618,false,false,855,image-keyboard-response,14
true,7,1,2,1,true,z,false,true,0.0-2.0-0.28-0.253-3.253,0,0,0,90,false,stim,false,0,418.0,1,0,1,75178,task1,684541,false,false,858,image-keyboard-response,15
true,7,0,2,0,true,q,false,true,0.0-2.0-0.28-0.254-3.254,0,0,0,81,false,stim,false,1,460.9999999998836,1,0,0,75178,task1,686510,false,false,861,image-keyboard-response,16
true,7,2,2,2,true,d,false,true,0.0-2.0-0.28-0.255-3.255,0,0,0,68,false,stim,false,0,527.0,1,0,2,75178,task1,688543,false,false,864,image-keyboard-response,17
true,7,2,2,2,true,d,false,true,0.0-2.0-0.28-0.256-3.256,0,0,0,68,false,stim,false,0,411.9999999998836,1,0,2,75178,task1,690461,false,false,867,image-keyboard-response,18
true,7,1,2,1,true,z,false,false,0.0-2.0-0.28-0.257-3.257,0,0,0,90,false,stim,false,0,774.0,1,0,1,75178,task1,692740,false,true,870,image-keyboard-response,19
true,7,0,2,0,true,q,false,true,0.0-2.0-0.28-0.258-3.258,0,0,0,81,false,stim,false,1,552.0,1,0,0,75178,task1,694796,false,false,873,image-keyboard-response,20
true,7,0,2,0,true,q,false,true,0.0-2.0-0.28-0.259-3.259,0,0,0,81,false,stim,false,1,409.0,1,0,0,75178,task1,696709,false,false,876,image-keyboard-response,21
true,7,1,2,1,true,z,false,true,0.0-2.0-0.28-0.260-3.260,0,0,0,90,false,stim,false,0,621.0,1,0,1,75178,task1,698836,false,false,879,image-keyboard-response,22
true,7,2,2,2,true,d,false,true,0.0-2.0-0.29-0.261-3.261,0,0,0,68,false,stim,false,0,446.0,1,0,2,75178,task1,700789,false,false,882,image-keyboard-response,23
true,7,2,2,2,true,d,false,true,0.0-2.0-0.29-0.262-3.262,0,0,0,68,false,stim,false,0,371.0,1,0,2,75178,task1,702668,false,false,885,image-keyboard-response,24
true,7,0,2,0,true,q,false,true,0.0-2.0-0.29-0.263-3.263,0,0,0,81,false,stim,false,1,491.9999999998836,1,0,0,75178,task1,704665,false,false,888,image-keyboard-response,25
true,7,1,2,1,true,z,false,true,0.0-2.0-0.29-0.264-3.264,0,0,0,90,false,stim,false,0,470.0,1,0,1,75178,task1,706641,false,false,891,image-keyboard-response,26
true,7,1,2,1,true,z,false,true,0.0-2.0-0.29-0.265-3.265,0,0,0,90,false,stim,false,0,516.0,1,0,1,75178,task1,708663,false,false,894,image-keyboard-response,27
true,7,2,2,2,true,d,false,true,0.0-2.0-0.29-0.266-3.266,0,0,0,68,false,stim,false,0,396.0,1,0,2,75178,task1,710565,false,false,897,image-keyboard-response,28
true,7,2,2,1,false,z,true,false,0.0-2.0-0.29-0.267-3.267,0,0,0,68,false,stim,false,0,627.0,1,0,1,75178,task1,712700,false,false,900,image-keyboard-response,29
true,7,0,2,0,true,q,false,true,0.0-2.0-0.29-0.268-3.268,0,0,0,81,false,stim,false,1,7.0,1,0,0,75178,task1,714219,false,false,903,image-keyboard-response,30
true,7,0,2,0,true,q,false,true,0.0-2.0-0.29-0.269-3.269,0,0,0,81,false,stim,false,1,784.9999999998836,1,0,0,75178,task1,716511,false,false,906,image-keyboard-response,31
true,7,2,2,2,true,d,false,true,0.0-2.0-0.30-0.270-3.270,0,0,0,68,false,stim,false,0,646.0,1,0,2,75178,task1,718664,false,false,909,image-keyboard-response,32
true,7,1,2,1,true,z,false,true,0.0-2.0-0.30-0.271-3.271,0,0,0,90,false,stim,false,0,447.0,1,0,1,75178,task1,720617,false,false,912,image-keyboard-response,33
true,7,0,2,0,true,q,false,true,0.0-2.0-0.30-0.272-3.272,0,0,0,81,false,stim,false,1,559.9999999998836,1,0,0,75178,task1,722685,false,false,915,image-keyboard-response,34
true,7,2,2,2,true,d,false,true,0.0-2.0-0.30-0.273-3.273,0,0,0,68,false,stim,false,0,531.0,1,0,2,75178,task1,724722,false,false,918,image-keyboard-response,35
true,7,1,2,1,true,z,false,true,0.0-2.0-0.30-0.274-3.274,0,0,0,90,false,stim,false,0,398.0,1,0,1,75178,task1,726625,false,false,921,image-keyboard-response,36
true,7,1,2,1,true,z,false,true,0.0-2.0-0.30-0.275-3.275,0,0,0,90,false,stim,false,0,344.0,1,0,1,75178,task1,728475,false,false,924,image-keyboard-response,37
true,7,2,2,2,true,d,false,true,0.0-2.0-0.30-0.276-3.276,0,0,0,68,false,stim,false,0,532.9999999998836,1,0,2,75178,task1,730514,false,false,927,image-keyboard-response,38
true,7,0,2,0,true,q,false,true,0.0-2.0-0.30-0.277-3.277,0,0,0,81,false,stim,false,1,651.0,1,0,0,75178,task1,732671,false,false,930,image-keyboard-response,39
true,7,0,2,0,true,q,false,true,0.0-2.0-0.30-0.278-3.278,0,0,0,81,false,stim,false,1,293.0,1,0,0,75178,task1,734472,false,false,933,image-keyboard-response,40
true,7,2,2,2,true,d,false,true,0.0-2.0-0.31-0.279-3.279,0,0,0,68,false,stim,false,0,447.0,1,0,2,75178,task1,736425,false,false,936,image-keyboard-response,41
true,7,2,2,1,false,z,true,false,0.0-2.0-0.31-0.280-3.280,0,0,0,68,false,stim,false,0,512.0,1,0,1,75178,task1,738443,false,false,939,image-keyboard-response,42
true,8,1,1,2,false,d,false,true,0.0-2.0-0.31-0.281-3.281,0,0,0,90,true,stim,true,1,422.0,1,0,1,75178,task1,740371,false,true,942,image-keyboard-response,1
true,8,1,1,0,false,q,true,false,0.0-2.0-0.31-0.282-3.282,0,0,0,90,false,stim,false,2,439.0,1,0,2,75178,task1,742317,false,false,945,image-keyboard-response,2
true,8,0,1,1,false,z,false,false,0.0-2.0-0.31-0.283-3.283,0,0,0,81,false,stim,true,0,558.0,1,0,0,75178,task1,744382,false,false,948,image-keyboard-response,3
true,8,0,1,1,false,z,false,false,0.0-2.0-0.31-0.284-3.284,0,0,0,81,false,stim,true,0,411.0,1,0,0,75178,task1,746299,false,false,951,image-keyboard-response,4
true,8,2,1,0,false,q,false,false,0.0-2.0-0.31-0.285-3.285,0,0,0,68,false,stim,true,2,891.0,1,0,2,75178,task1,748695,false,false,954,image-keyboard-response,5
true,8,1,1,1,true,z,false,true,0.0-2.0-0.31-0.286-3.286,0,0,0,90,false,stim,false,0,625.0,1,0,0,75178,task1,750828,false,false,957,image-keyboard-response,6
true,8,1,1,2,false,d,false,false,0.0-2.0-0.31-0.287-3.287,0,0,0,90,false,stim,true,1,456.0,1,0,1,75178,task1,752790,false,false,960,image-keyboard-response,7
true,8,1,1,0,false,q,true,false,0.0-2.0-0.32-0.288-3.288,0,0,0,90,false,stim,false,2,610.0,1,0,2,75178,task1,754906,false,false,963,image-keyboard-response,8
true,8,2,1,0,false,q,false,false,0.0-2.0-0.32-0.289-3.289,0,0,0,68,false,stim,true,2,516.0,1,0,2,75178,task1,756928,false,false,966,image-keyboard-response,9
true,8,0,1,2,false,d,true,false,0.0-2.0-0.32-0.290-3.290,0,0,0,81,false,stim,false,1,792.0,1,0,1,75178,task1,759227,false,false,969,image-keyboard-response,10
true,8,2,1,2,true,d,false,true,0.0-2.0-0.32-0.291-3.291,0,0,0,68,false,stim,false,1,524.0,1,0,1,75178,task1,761257,false,false,972,image-keyboard-response,11
true,8,0,1,0,true,q,false,true,0.0-2.0-0.32-0.292-3.292,0,0,0,81,false,stim,false,2,1032.0,1,0,2,75178,task1,763795,false,false,975,image-keyboard-response,12
true,8,2,1,2,true,d,false,false,0.0-2.0-0.32-0.293-3.293,0,0,0,68,false,stim,false,1,800.0,1,0,1,75178,task1,766101,false,true,978,image-keyboard-response,13
true,8,1,1,1,true,z,false,true,0.0-2.0-0.32-0.294-3.294,0,0,0,90,false,stim,false,0,633.0,1,0,0,75178,task1,768241,false,false,981,image-keyboard-response,14
true,8,1,1,1,true,z,false,true,0.0-2.0-0.32-0.295-3.295,0,0,0,90,false,stim,false,0,559.0,1,0,0,75178,task1,770305,false,false,984,image-keyboard-response,15
true,8,1,1,1,true,z,false,true,0.0-2.0-0.32-0.296-3.296,0,0,0,90,false,stim,false,0,434.0,1,0,0,75178,task1,772245,false,false,987,image-keyboard-response,16
true,8,0,1,0,true,q,false,true,0.0-2.0-0.33-0.297-3.297,0,0,0,81,false,stim,false,2,660.0,1,0,2,75178,task1,774411,false,false,990,image-keyboard-response,17
true,8,1,1,1,true,z,false,true,0.0-2.0-0.33-0.298-3.298,0,0,0,90,false,stim,false,0,951.0,1,0,0,75178,task1,776869,false,false,993,image-keyboard-response,18
true,8,0,1,2,false,d,true,false,0.0-2.0-0.33-0.299-3.299,0,0,0,81,false,stim,false,1,881.0,1,0,1,75178,task1,779256,false,false,996,image-keyboard-response,19
true,8,1,1,2,false,d,false,false,0.0-2.0-0.33-0.300-3.300,0,0,0,90,false,stim,true,1,780.0,1,0,1,75178,task1,781542,false,false,999,image-keyboard-response,20
true,8,1,1,1,true,z,false,true,0.0-2.0-0.33-0.301-3.301,0,0,0,90,false,stim,false,0,728.0,1,0,0,75178,task1,783783,false,false,1002,image-keyboard-response,21
true,8,0,1,0,true,q,false,true,0.0-2.0-0.33-0.302-3.302,0,0,0,81,false,stim,false,2,667.0,1,0,2,75178,task1,785956,false,false,1005,image-keyboard-response,22
true,8,0,1,0,true,q,false,true,0.0-2.0-0.33-0.303-3.303,0,0,0,81,false,stim,false,2,984.0,1,0,2,75178,task1,788445,false,false,1008,image-keyboard-response,23
true,8,1,1,1,true,z,false,true,0.0-2.0-0.33-0.304-3.304,0,0,0,90,false,stim,false,0,586.0,1,0,0,75178,task1,790537,false,false,1011,image-keyboard-response,24
true,8,2,1,2,true,d,false,true,0.0-2.0-0.33-0.305-3.305,0,0,0,68,false,stim,false,1,733.0,1,0,1,75178,task1,792778,false,false,1014,image-keyboard-response,25
true,8,1,1,0,false,q,true,false,0.0-2.0-0.34-0.306-3.306,0,0,0,90,false,stim,false,2,964.0,1,0,2,75178,task1,795250,false,false,1017,image-keyboard-response,26
true,8,0,1,0,true,q,false,true,0.0-2.0-0.34-0.307-3.307,0,0,0,81,false,stim,false,2,451.0,1,0,2,75178,task1,797208,false,false,1020,image-keyboard-response,27
true,8,1,1,2,false,d,false,false,0.0-2.0-0.34-0.308-3.308,0,0,0,90,false,stim,true,1,596.0,1,0,1,75178,task1,799312,false,false,1023,image-keyboard-response,28
true,8,1,1,1,true,z,false,true,0.0-2.0-0.34-0.309-3.309,0,0,0,90,false,stim,false,0,779.0,1,0,0,75178,task1,801596,false,false,1026,image-keyboard-response,29
true,8,1,1,1,true,z,false,true,0.0-2.0-0.34-0.310-3.310,0,0,0,90,false,stim,false,0,546.0,1,0,0,75178,task1,803648,false,false,1029,image-keyboard-response,30
true,8,2,1,2,true,d,false,true,0.0-2.0-0.34-0.311-3.311,0,0,0,68,false,stim,false,1,881.0,1,0,1,75178,task1,806034,false,false,1032,image-keyboard-response,31
true,8,0,1,1,false,z,false,false,0.0-2.0-0.34-0.312-3.312,0,0,0,81,false,stim,true,0,613.0,1,0,0,75178,task1,808152,false,false,1035,image-keyboard-response,32
true,8,0,1,0,true,q,false,true,0.0-2.0-0.34-0.313-3.313,0,0,0,81,false,stim,false,2,1613.0000000001164,1,0,2,75178,task1,811272,false,false,1038,image-keyboard-response,33
true,8,2,1,2,true,d,false,true,0.0-2.0-0.34-0.314-3.314,0,0,0,68,false,stim,false,1,1005.0,1,0,1,75178,task1,813783,false,false,1041,image-keyboard-response,34
true,8,2,1,0,false,q,false,false,0.0-2.0-0.35-0.315-3.315,0,0,0,68,false,stim,true,2,545.0,1,0,2,75178,task1,815835,false,false,1044,image-keyboard-response,35
true,8,0,1,0,true,q,false,true,0.0-2.0-0.35-0.316-3.316,0,0,0,81,false,stim,false,2,547.0,1,0,2,75178,task1,817888,false,false,1047,image-keyboard-response,36
true,8,1,1,1,true,z,false,false,0.0-2.0-0.35-0.317-3.317,0,0,0,90,false,stim,false,0,607.9999999998836,1,0,0,75178,task1,820004,false,true,1050,image-keyboard-response,37
true,8,1,1,1,true,z,false,true,0.0-2.0-0.35-0.318-3.318,0,0,0,90,false,stim,false,0,804.0,1,0,0,75178,task1,822314,false,false,1053,image-keyboard-response,38
true,8,1,1,1,true,z,false,true,0.0-2.0-0.35-0.319-3.319,0,0,0,90,false,stim,false,0,396.0,1,0,0,75178,task1,824217,false,false,1056,image-keyboard-response,39
true,8,2,1,2,true,d,false,true,0.0-2.0-0.35-0.320-3.320,0,0,0,68,false,stim,false,1,876.0,1,0,1,75178,task1,826600,false,false,1059,image-keyboard-response,40
true,8,2,1,2,true,d,false,true,0.0-2.0-0.35-0.321-3.321,0,0,0,68,false,stim,false,1,370.0,1,0,1,75178,task1,828476,false,false,1062,image-keyboard-response,41
true,8,2,1,2,true,d,false,true,0.0-2.0-0.35-0.322-3.322,0,0,0,68,false,stim,false,1,497.0,1,0,1,75178,task1,830481,false,false,1065,image-keyboard-response,42
true,8,0,1,0,true,q,false,true,0.0-2.0-0.35-0.323-3.323,0,0,0,81,false,stim,false,2,662.0,1,0,2,75178,task1,832649,false,false,1068,image-keyboard-response,43
true,8,0,1,0,true,q,false,true,0.0-2.0-0.36-0.324-3.324,0,0,0,81,false,stim,false,2,380.0,1,0,2,75178,task1,834536,false,false,1071,image-keyboard-response,44
true,9,1,2,0,false,q,false,false,0.0-2.0-0.36-0.325-3.325,0,0,0,90,true,stim,true,1,616.0,1,0,0,75178,task1,836658,false,false,1074,image-keyboard-response,1
true,9,1,2,0,false,q,false,false,0.0-2.0-0.36-0.326-3.326,0,0,0,90,false,stim,true,1,485.0,1,0,0,75178,task1,838652,false,false,1077,image-keyboard-response,2
true,9,2,2,1,false,z,false,false,0.0-2.0-0.36-0.327-3.327,0,0,0,68,false,stim,true,2,781.0,1,0,1,75178,task1,840940,false,false,1080,image-keyboard-response,3
true,9,0,2,0,true,q,false,false,0.0-2.0-0.36-0.328-3.328,0,0,0,81,false,stim,false,1,882.0000000001164,1,0,0,75178,task1,843328,false,true,1083,image-keyboard-response,4
true,9,2,2,1,false,z,false,false,0.0-2.0-0.36-0.329-3.329,0,0,0,68,false,stim,true,2,1025.0,1,0,1,75178,task1,845859,false,false,1086,image-keyboard-response,5
true,9,1,2,1,true,z,false,true,0.0-2.0-0.36-0.330-3.330,0,0,0,90,false,stim,false,2,1294.9999999998836,1,0,1,75178,task1,848661,false,false,1089,image-keyboard-response,6
true,9,0,2,2,false,d,false,true,0.0-2.0-0.36-0.331-3.331,0,0,0,81,false,stim,true,0,585.0,1,0,2,75178,task1,850753,false,true,1092,image-keyboard-response,7
true,9,0,2,2,false,d,false,false,0.0-2.0-0.36-0.332-3.332,0,0,0,81,false,stim,true,0,641.0000000001164,1,0,2,75178,task1,852899,false,false,1095,image-keyboard-response,8
true,9,2,2,0,false,q,true,false,0.0-2.0-0.37-0.333-3.333,0,0,0,68,false,stim,false,1,657.0,1,0,0,75178,task1,855064,false,false,1098,image-keyboard-response,9
true,9,0,2,2,false,d,false,true,0.0-2.0-0.37-0.334-3.334,0,0,0,81,false,stim,true,0,535.0,1,0,2,75178,task1,857112,false,true,1101,image-keyboard-response,10
true,9,0,2,2,false,d,false,false,0.0-2.0-0.37-0.335-3.335,0,0,0,81,false,stim,true,0,502.0000000001164,1,0,2,75178,task1,859121,false,false,1104,image-keyboard-response,11
true,9,1,2,1,true,z,false,true,0.0-2.0-0.37-0.336-3.336,0,0,0,90,false,stim,false,2,646.0,1,0,1,75178,task1,861274,false,false,1107,image-keyboard-response,12
true,9,0,2,2,false,d,false,true,0.0-2.0-0.37-0.337-3.337,0,0,0,81,false,stim,true,0,537.0000000001164,1,0,2,75178,task1,863318,false,true,1110,image-keyboard-response,13
true,9,1,2,1,true,z,false,true,0.0-2.0-0.37-0.338-3.338,0,0,0,90,false,stim,false,2,383.0,1,0,1,75178,task1,865208,false,false,1113,image-keyboard-response,14
true,9,1,2,1,true,z,false,true,0.0-2.0-0.37-0.339-3.339,0,0,0,90,false,stim,false,2,945.0,1,0,1,75178,task1,867660,false,false,1116,image-keyboard-response,15
true,9,1,2,0,false,q,false,false,0.0-2.0-0.37-0.340-3.340,0,0,0,90,false,stim,true,1,755.0,1,0,0,75178,task1,869922,false,false,1119,image-keyboard-response,16
true,9,0,2,0,true,q,false,true,0.0-2.0-0.37-0.341-3.341,0,0,0,81,false,stim,false,1,586.0,1,0,0,75178,task1,872015,false,false,1122,image-keyboard-response,17
true,9,0,2,2,false,d,false,true,0.0-2.0-0.38-0.342-3.342,0,0,0,81,false,stim,true,0,369.0,1,0,2,75178,task1,873892,false,true,1125,image-keyboard-response,18
true,9,0,2,0,true,q,false,true,0.0-2.0-0.38-0.343-3.343,0,0,0,81,false,stim,false,1,733.9999999998836,1,0,0,75178,task1,876133,false,false,1128,image-keyboard-response,19
true,9,1,2,1,true,z,false,true,0.0-2.0-0.38-0.344-3.344,0,0,0,90,false,stim,false,2,617.0,1,0,1,75178,task1,878257,false,false,1131,image-keyboard-response,20
true,9,0,2,0,true,q,false,true,0.0-2.0-0.38-0.345-3.345,0,0,0,81,false,stim,false,1,558.9999999998836,1,0,0,75178,task1,880323,false,false,1134,image-keyboard-response,21
true,9,1,2,1,true,z,false,true,0.0-2.0-0.38-0.346-3.346,0,0,0,90,false,stim,false,2,492.0,1,0,1,75178,task1,882321,false,false,1137,image-keyboard-response,22
true,9,0,2,2,false,d,false,false,0.0-2.0-0.38-0.347-3.347,0,0,0,81,false,stim,true,0,709.0,1,0,2,75178,task1,884538,false,false,1140,image-keyboard-response,23
true,9,0,2,2,false,d,false,false,0.0-2.0-0.38-0.348-3.348,0,0,0,81,false,stim,true,0,559.0,1,0,2,75178,task1,886603,false,false,1143,image-keyboard-response,24
true,9,0,2,0,true,q,false,true,0.0-2.0-0.38-0.349-3.349,0,0,0,81,false,stim,false,1,714.0,1,0,0,75178,task1,888823,false,false,1146,image-keyboard-response,25
true,9,1,2,1,true,z,false,true,0.0-2.0-0.38-0.350-3.350,0,0,0,90,false,stim,false,2,475.0,1,0,1,75178,task1,890805,false,false,1149,image-keyboard-response,26
true,9,0,2,0,true,q,false,true,0.0-2.0-0.39-0.351-3.351,0,0,0,81,false,stim,false,1,674.0,1,0,0,75178,task1,892988,false,false,1152,image-keyboard-response,27
true,9,2,2,2,true,d,false,true,0.0-2.0-0.39-0.352-3.352,0,0,0,68,false,stim,false,0,460.9999999998836,1,0,2,75178,task1,894955,false,false,1155,image-keyboard-response,28
true,9,1,2,1,true,z,false,true,0.0-2.0-0.39-0.353-3.353,0,0,0,90,false,stim,false,2,623.0,1,0,1,75178,task1,897084,false,false,1158,image-keyboard-response,29
true,9,2,2,2,true,d,false,true,0.0-2.0-0.39-0.354-3.354,0,0,0,68,false,stim,false,0,585.9999999998836,1,0,2,75178,task1,899176,false,false,1161,image-keyboard-response,30
true,9,0,2,0,true,q,false,false,0.0-2.0-0.39-0.355-3.355,0,0,0,81,false,stim,false,1,516.0,1,0,0,75178,task1,901198,false,true,1164,image-keyboard-response,31
true,9,1,2,0,false,q,false,false,0.0-2.0-0.39-0.356-3.356,0,0,0,90,false,stim,true,1,493.0,1,0,0,75178,task1,903198,false,false,1167,image-keyboard-response,32
true,9,2,2,2,true,d,false,true,0.0-2.0-0.39-0.357-3.357,0,0,0,68,false,stim,false,0,595.0,1,0,2,75178,task1,905299,false,false,1170,image-keyboard-response,33
true,9,1,2,1,true,z,false,true,0.0-2.0-0.39-0.358-3.358,0,0,0,90,false,stim,false,2,383.0,1,0,1,75178,task1,907189,false,false,1173,image-keyboard-response,34
true,9,1,2,1,true,z,false,false,0.0-2.0-0.39-0.359-3.359,0,0,0,90,false,stim,false,2,433.0,1,0,1,75178,task1,909129,false,true,1176,image-keyboard-response,35
true,9,0,2,0,true,q,false,true,0.0-2.0-0.40-0.360-3.360,0,0,0,81,false,stim,false,1,529.9999999998836,1,0,0,75178,task1,911168,false,false,1179,image-keyboard-response,36
true,9,2,2,2,true,d,false,true,0.0-2.0-0.40-0.361-3.361,0,0,0,68,false,stim,false,0,476.0,1,0,2,75178,task1,913150,false,false,1182,image-keyboard-response,37
true,9,2,2,2,true,d,false,true,0.0-2.0-0.40-0.362-3.362,0,0,0,68,false,stim,false,0,527.0,1,0,2,75178,task1,915182,false,false,1185,image-keyboard-response,38
true,9,1,2,1,true,z,false,true,0.0-2.0-0.40-0.363-3.363,0,0,0,90,false,stim,false,2,782.0,1,0,1,75178,task1,917469,false,false,1188,image-keyboard-response,39
true,9,1,2,1,true,z,false,false,0.0-2.0-0.40-0.364-3.364,0,0,0,90,false,stim,false,2,483.0,1,0,1,75178,task1,919460,false,true,1191,image-keyboard-response,40
true,9,2,2,0,false,q,true,false,0.0-2.0-0.40-0.365-3.365,0,0,0,68,false,stim,false,1,1022.0000000001164,1,0,0,75178,task1,921989,false,false,1194,image-keyboard-response,41
true,9,1,2,1,true,z,false,true,0.0-2.0-0.40-0.366-3.366,0,0,0,90,false,stim,false,2,712.0,1,0,1,75178,task1,924208,false,false,1197,image-keyboard-response,42
true,9,2,2,2,true,d,false,true,0.0-2.0-0.40-0.367-3.367,0,0,0,68,false,stim,false,0,615.9999999998836,1,0,2,75178,task1,926330,false,false,1200,image-keyboard-response,43
true,9,0,2,0,true,q,false,true,0.0-2.0-0.40-0.368-3.368,0,0,0,81,false,stim,false,1,545.0,1,0,0,75178,task1,928388,false,false,1203,image-keyboard-response,44
true,9,2,2,2,true,d,false,true,0.0-2.0-0.41-0.369-3.369,0,0,0,68,false,stim,false,0,563.0,1,0,2,75178,task1,930458,false,false,1206,image-keyboard-response,45
true,10,0,2,1,false,z,false,false,0.0-2.0-0.41-0.370-3.370,0,0,0,81,true,stim,true,0,386.9999999998836,1,0,0,75178,task1,932352,false,false,1209,image-keyboard-response,1
true,10,2,2,0,false,q,false,false,0.0-2.0-0.41-0.371-3.371,0,0,0,68,false,stim,true,2,669.0000000001164,1,0,2,75178,task1,934527,false,false,1212,image-keyboard-response,2
true,10,2,2,0,false,q,false,true,0.0-2.0-0.41-0.372-3.372,0,0,0,68,false,stim,true,2,487.0,1,0,2,75178,task1,936520,false,true,1215,image-keyboard-response,3
true,10,0,2,1,false,z,false,false,0.0-2.0-0.41-0.373-3.373,0,0,0,81,false,stim,true,0,656.0,1,0,0,75178,task1,938682,false,false,1218,image-keyboard-response,4
true,10,1,2,0,false,q,false,false,0.0-2.0-0.41-0.374-3.374,0,0,0,90,false,stim,true,1,1185.0,1,0,1,75178,task1,941374,false,false,1221,image-keyboard-response,5
true,10,0,2,0,true,q,false,true,0.0-2.0-0.41-0.375-3.375,0,0,0,81,false,stim,false,1,550.0,1,0,1,75178,task1,943431,false,false,1224,image-keyboard-response,6
true,10,0,2,0,true,q,false,true,0.0-2.0-0.41-0.376-3.376,0,0,0,81,false,stim,false,1,298.0,1,0,1,75178,task1,945237,false,false,1227,image-keyboard-response,7
true,10,1,2,1,true,z,false,true,0.0-2.0-0.41-0.377-3.377,0,0,0,90,false,stim,false,0,471.0,1,0,0,75178,task1,947215,false,false,1230,image-keyboard-response,8
true,10,0,2,0,true,q,false,true,0.0-2.0-0.42-0.378-3.378,0,0,0,81,false,stim,false,1,632.0,1,0,1,75178,task1,949355,false,false,1233,image-keyboard-response,9
true,10,1,2,0,false,q,true,false,0.0-2.0-0.42-0.379-3.379,0,0,0,90,false,stim,false,2,875.9999999998836,1,0,2,75178,task1,951738,false,false,1236,image-keyboard-response,10
true,10,1,2,1,true,z,false,true,0.0-2.0-0.42-0.380-3.380,0,0,0,90,false,stim,false,0,843.0,1,0,0,75178,task1,954088,false,false,1239,image-keyboard-response,11
true,10,0,2,0,true,q,false,true,0.0-2.0-0.42-0.381-3.381,0,0,0,81,false,stim,false,1,356.0,1,0,1,75178,task1,955951,false,false,1242,image-keyboard-response,12
true,10,0,2,0,true,q,false,true,0.0-2.0-0.42-0.382-3.382,0,0,0,81,false,stim,false,2,477.0000000001164,1,0,2,75178,task1,957935,false,false,1245,image-keyboard-response,13
true,10,1,2,1,true,z,false,true,0.0-2.0-0.42-0.383-3.383,0,0,0,90,false,stim,false,0,742.0000000001164,1,0,0,75178,task1,960185,false,false,1248,image-keyboard-response,14
true,10,1,2,1,true,z,false,true,0.0-2.0-0.42-0.384-3.384,0,0,0,90,false,stim,false,0,480.0,1,0,0,75178,task1,962171,false,false,1251,image-keyboard-response,15
true,10,0,2,0,true,q,false,false,0.0-2.0-0.42-0.385-3.385,0,0,0,81,false,stim,false,2,490.0,1,0,2,75178,task1,964167,false,true,1254,image-keyboard-response,16
true,10,0,2,0,true,q,false,true,0.0-2.0-0.42-0.386-3.386,0,0,0,81,false,stim,false,1,408.0,1,0,1,75178,task1,966082,false,false,1257,image-keyboard-response,17
true,10,1,2,1,true,z,false,true,0.0-2.0-0.43-0.387-3.387,0,0,0,90,false,stim,false,0,439.0,1,0,0,75178,task1,968031,false,false,1260,image-keyboard-response,18
true,10,0,2,0,true,q,false,true,0.0-2.0-0.43-0.388-3.388,0,0,0,81,false,stim,false,2,525.0,1,0,2,75178,task1,970062,false,false,1263,image-keyboard-response,19
true,10,0,2,0,true,q,false,true,0.0-2.0-0.43-0.389-3.389,0,0,0,81,false,stim,false,2,328.0,1,0,2,75178,task1,971895,false,false,1266,image-keyboard-response,20
true,10,1,2,1,true,z,false,true,0.0-2.0-0.43-0.390-3.390,0,0,0,90,false,stim,false,0,961.0,1,0,0,75178,task1,974364,false,false,1269,image-keyboard-response,21
true,10,0,2,0,true,q,false,true,0.0-2.0-0.43-0.391-3.391,0,0,0,81,false,stim,false,1,289.0000000001164,1,0,1,75178,task1,976160,false,false,1272,image-keyboard-response,22
true,10,0,2,0,true,q,false,false,0.0-2.0-0.43-0.392-3.392,0,0,0,81,false,stim,false,2,319.0,1,0,2,75178,task1,977985,false,true,1275,image-keyboard-response,23
true,10,0,2,0,true,q,false,true,0.0-2.0-0.43-0.393-3.393,0,0,0,81,false,stim,false,1,394.0,1,0,1,75178,task1,979886,false,false,1278,image-keyboard-response,24
true,10,0,2,0,true,q,false,true,0.0-2.0-0.43-0.394-3.394,0,0,0,81,false,stim,false,1,420.0,1,0,1,75178,task1,981811,false,false,1281,image-keyboard-response,25
true,10,1,2,1,true,z,false,false,0.0-2.0-0.43-0.395-3.395,0,0,0,90,false,stim,false,0,469.0,1,0,0,75178,task1,983789,false,true,1284,image-keyboard-response,26
true,10,1,2,1,true,z,false,true,0.0-2.0-0.44-0.396-3.396,0,0,0,90,false,stim,false,0,539.0,1,0,0,75178,task1,985836,false,false,1287,image-keyboard-response,27
true,10,1,2,1,true,z,false,true,0.0-2.0-0.44-0.397-3.397,0,0,0,90,false,stim,false,0,481.0,1,0,0,75178,task1,987824,false,false,1290,image-keyboard-response,28
true,10,0,2,0,true,q,false,true,0.0-2.0-0.44-0.398-3.398,0,0,0,81,false,stim,false,2,422.0,1,0,2,75178,task1,989754,false,false,1293,image-keyboard-response,29
true,10,0,2,0,true,q,false,true,0.0-2.0-0.44-0.399-3.399,0,0,0,81,false,stim,false,1,294.9999999998836,1,0,1,75178,task1,991555,false,false,1296,image-keyboard-response,30
true,10,0,2,0,true,q,false,true,0.0-2.0-0.44-0.400-3.400,0,0,0,81,false,stim,false,1,316.0,1,0,1,75178,task1,993377,false,false,1299,image-keyboard-response,31
true,10,0,2,0,true,q,false,true,0.0-2.0-0.44-0.401-3.401,0,0,0,81,false,stim,false,2,1037.9999999998836,1,0,2,75178,task1,995928,false,false,1302,image-keyboard-response,32
true,10,0,2,0,true,q,false,true,0.0-2.0-0.44-0.402-3.402,0,0,0,81,false,stim,false,1,329.0,1,0,1,75178,task1,997764,false,false,1305,image-keyboard-response,33
true,10,1,2,1,true,z,false,true,0.0-2.0-0.44-0.403-3.403,0,0,0,90,false,stim,false,0,646.9999999998836,1,0,0,75178,task1,999918,false,false,1308,image-keyboard-response,34
true,10,0,2,0,true,q,false,true,0.0-2.0-0.44-0.404-3.404,0,0,0,81,false,stim,false,2,500.0,1,0,2,75178,task1,1001925,false,false,1311,image-keyboard-response,35
true,10,0,2,0,true,q,false,true,0.0-2.0-0.45-0.405-3.405,0,0,0,81,false,stim,false,1,599.9999999998836,1,0,1,75178,task1,1004033,false,false,1314,image-keyboard-response,36
true,10,1,2,1,true,z,false,true,0.0-2.0-0.45-0.406-3.406,0,0,0,90,false,stim,false,0,692.9999999998836,1,0,0,75178,task1,1006232,false,false,1317,image-keyboard-response,37
true,10,0,2,0,true,q,false,true,0.0-2.0-0.45-0.407-3.407,0,0,0,81,false,stim,false,1,1037.0,1,0,1,75178,task1,1008776,false,false,1320,image-keyboard-response,38
true,10,0,2,0,true,q,false,true,0.0-2.0-0.45-0.408-3.408,0,0,0,81,false,stim,false,2,361.0,1,0,2,75178,task1,1010643,false,false,1323,image-keyboard-response,39
true,10,0,2,0,true,q,false,true,0.0-2.0-0.45-0.409-3.409,0,0,0,81,false,stim,false,2,454.9999999998836,1,0,2,75178,task1,1012604,false,false,1326,image-keyboard-response,40
true,11,1,1,2,false,d,false,false,0.0-2.0-0.45-0.410-3.410,0,0,0,90,true,stim,true,1,477.9999999998836,1,0,0,75178,task1,1014589,false,false,1329,image-keyboard-response,1
true,11,0,1,1,false,z,false,false,0.0-2.0-0.45-0.411-3.411,0,0,0,81,false,stim,true,0,449.0,1,0,2,75178,task1,1016545,false,false,1332,image-keyboard-response,2
true,11,1,1,2,false,d,false,false,0.0-2.0-0.45-0.412-3.412,0,0,0,90,false,stim,true,1,901.0,1,0,0,75178,task1,1018953,false,false,1335,image-keyboard-response,3
true,11,0,1,1,false,z,false,false,0.0-2.0-0.45-0.413-3.413,0,0,0,81,false,stim,true,0,735.0,1,0,1,75178,task1,1021196,false,false,1338,image-keyboard-response,4
true,11,2,1,1,false,z,true,false,0.0-2.0-0.46-0.414-3.414,0,0,0,68,false,stim,false,0,347.0,1,0,2,75178,task1,1023050,false,false,1341,image-keyboard-response,5
true,11,1,1,2,false,d,false,false,0.0-2.0-0.46-0.415-3.415,0,0,0,90,false,stim,true,1,558.0,1,0,0,75178,task1,1025115,false,false,1344,image-keyboard-response,6
true,11,2,1,1,false,z,true,false,0.0-2.0-0.46-0.416-3.416,0,0,0,68,false,stim,false,0,723.9999999998836,1,0,1,75178,task1,1027347,false,false,1347,image-keyboard-response,7
true,11,1,1,1,true,z,false,true,0.0-2.0-0.46-0.417-3.417,0,0,0,90,false,stim,false,0,416.9999999998836,1,0,1,75178,task1,1029270,false,false,1350,image-keyboard-response,8
true,11,1,1,1,true,z,false,true,0.0-2.0-0.46-0.418-3.418,0,0,0,90,false,stim,false,0,748.9999999997672,1,0,2,75178,task1,1031526,false,false,1353,image-keyboard-response,9
true,11,0,1,2,false,d,true,false,0.0-2.0-0.46-0.419-3.419,0,0,0,81,false,stim,false,1,344.0,1,0,0,75178,task1,1033377,false,false,1356,image-keyboard-response,10
true,11,2,1,2,true,d,false,true,0.0-2.0-0.46-0.420-3.420,0,0,0,68,false,stim,false,1,569.9999999998836,1,0,0,75178,task1,1035453,false,false,1359,image-keyboard-response,11
true,11,1,1,1,true,z,false,true,0.0-2.0-0.46-0.421-3.421,0,0,0,90,false,stim,false,0,543.9999999998836,1,0,1,75178,task1,1037505,false,false,1362,image-keyboard-response,12
true,11,1,1,1,true,z,false,true,0.0-2.0-0.46-0.422-3.422,0,0,0,90,false,stim,false,0,473.9999999998836,1,0,2,75178,task1,1039486,false,false,1365,image-keyboard-response,13
true,11,1,1,1,true,z,false,true,0.0-2.0-0.47-0.423-3.423,0,0,0,90,false,stim,false,0,438.0000000001164,1,0,1,75178,task1,1041432,false,false,1368,image-keyboard-response,14
true,11,2,1,2,true,d,false,true,0.0-2.0-0.47-0.424-3.424,0,0,0,68,false,stim,false,1,387.00000000023283,1,0,0,75178,task1,1043326,false,false,1371,image-keyboard-response,15
true,11,1,1,2,false,d,false,false,0.0-2.0-0.47-0.425-3.425,0,0,0,90,false,stim,true,1,515.0000000001164,1,0,0,75178,task1,1045348,false,false,1374,image-keyboard-response,16
true,11,1,1,1,true,z,false,true,0.0-2.0-0.47-0.426-3.426,0,0,0,90,false,stim,false,0,581.9999999998836,1,0,2,75178,task1,1047437,false,false,1377,image-keyboard-response,17
true,11,1,1,1,true,z,false,true,0.0-2.0-0.47-0.427-3.427,0,0,0,90,false,stim,false,0,421.0,1,0,2,75178,task1,1049365,false,false,1380,image-keyboard-response,18
true,11,1,1,1,true,z,false,true,0.0-2.0-0.47-0.428-3.428,0,0,0,90,false,stim,false,0,342.0,1,0,1,75178,task1,1051213,false,false,1383,image-keyboard-response,19
true,11,2,1,2,true,d,false,true,0.0-2.0-0.47-0.429-3.429,0,0,0,68,false,stim,false,1,427.0,1,0,0,75178,task1,1053146,false,false,1386,image-keyboard-response,20
true,11,1,1,1,true,z,false,true,0.0-2.0-0.47-0.430-3.430,0,0,0,90,false,stim,false,0,660.0,1,0,2,75178,task1,1055312,false,false,1389,image-keyboard-response,21
true,11,1,1,1,true,z,false,true,0.0-2.0-0.47-0.431-3.431,0,0,0,90,false,stim,false,0,535.0,1,0,1,75178,task1,1057353,false,false,1392,image-keyboard-response,22
true,11,1,1,1,true,z,false,true,0.0-2.0-0.48-0.432-3.432,0,0,0,90,false,stim,false,0,1099.0,1,0,2,75178,task1,1059960,false,false,1395,image-keyboard-response,23
true,11,1,1,1,true,z,false,false,0.0-2.0-0.48-0.433-3.433,0,0,0,90,false,stim,false,0,411.0,1,0,1,75178,task1,1061878,false,true,1398,image-keyboard-response,24
true,11,2,1,2,true,d,false,true,0.0-2.0-0.48-0.434-3.434,0,0,0,68,false,stim,false,1,419.0,1,0,0,75178,task1,1063810,false,false,1401,image-keyboard-response,25
true,11,1,1,1,true,z,false,true,0.0-2.0-0.48-0.435-3.435,0,0,0,90,false,stim,false,0,561.0,1,0,2,75178,task1,1065878,false,false,1404,image-keyboard-response,26
true,11,1,1,1,true,z,false,true,0.0-2.0-0.48-0.436-3.436,0,0,0,90,false,stim,false,0,435.0,1,0,1,75178,task1,1067820,false,false,1407,image-keyboard-response,27
true,11,2,1,2,true,d,false,true,0.0-2.0-0.48-0.437-3.437,0,0,0,68,false,stim,false,1,324.0,1,0,0,75178,task1,1069651,false,false,1410,image-keyboard-response,28
true,11,1,1,1,true,z,false,true,0.0-2.0-0.48-0.438-3.438,0,0,0,90,false,stim,false,0,363.0,1,0,2,75178,task1,1071521,false,false,1413,image-keyboard-response,29
true,11,1,1,1,true,z,false,true,0.0-2.0-0.48-0.439-3.439,0,0,0,90,false,stim,false,0,419.0,1,0,1,75178,task1,1073447,false,false,1416,image-keyboard-response,30
true,11,2,1,2,true,d,false,true,0.0-2.0-0.48-0.440-3.440,0,0,0,68,false,stim,false,1,507.0,1,0,0,75178,task1,1075460,false,false,1419,image-keyboard-response,31
true,11,1,1,1,true,z,false,true,0.0-2.0-0.49-0.441-3.441,0,0,0,90,false,stim,false,0,408.0,1,0,2,75178,task1,1077376,false,false,1422,image-keyboard-response,32
true,11,1,1,2,false,d,false,false,0.0-2.0-0.49-0.442-3.442,0,0,0,90,false,stim,true,1,956.0,1,0,0,75178,task1,1079838,false,false,1425,image-keyboard-response,33
true,11,2,1,2,true,d,false,true,0.0-2.0-0.49-0.443-3.443,0,0,0,68,false,stim,false,1,867.0,1,0,0,75178,task1,1082212,false,false,1428,image-keyboard-response,34
true,11,1,1,1,true,z,false,true,0.0-2.0-0.49-0.444-3.444,0,0,0,90,false,stim,false,0,622.0,1,0,2,75178,task1,1084343,false,false,1431,image-keyboard-response,35
true,11,1,1,1,true,z,false,true,0.0-2.0-0.49-0.445-3.445,0,0,0,90,false,stim,false,0,469.0,1,0,1,75178,task1,1086318,false,false,1434,image-keyboard-response,36
true,11,1,1,1,true,z,false,true,0.0-2.0-0.49-0.446-3.446,0,0,0,90,false,stim,false,0,616.0,1,0,2,75178,task1,1088441,false,false,1437,image-keyboard-response,37
true,11,2,1,2,true,d,false,false,0.0-2.0-0.49-0.447-3.447,0,0,0,68,false,stim,false,1,363.99999999976717,1,0,0,75178,task1,1090311,false,true,1440,image-keyboard-response,38
true,11,1,1,1,true,z,false,true,0.0-2.0-0.49-0.448-3.448,0,0,0,90,false,stim,false,0,298.0,1,0,1,75178,task1,1092115,false,false,1443,image-keyboard-response,39
true,11,1,1,1,true,z,false,true,0.0-2.0-0.49-0.449-3.449,0,0,0,90,false,stim,false,0,573.0,1,0,1,75178,task1,1094195,false,false,1446,image-keyboard-response,40
true,11,0,1,1,false,z,false,false,0.0-2.0-0.50-0.450-3.450,0,0,0,81,false,stim,true,0,344.0,1,0,2,75178,task1,1096048,false,false,1449,image-keyboard-response,41
true,11,1,1,1,true,z,false,true,0.0-2.0-0.50-0.451-3.451,0,0,0,90,false,stim,false,0,371.0,1,0,1,75178,task1,1097926,false,false,1452,image-keyboard-response,42
true,12,1,2,0,false,q,false,false,0.0-2.0-0.50-0.452-3.452,0,0,0,90,true,stim,true,1,363.0,1,0,1,75178,task1,1099796,false,false,1455,image-keyboard-response,1
true,12,2,2,1,false,z,false,false,0.0-2.0-0.50-0.453-3.453,0,0,0,68,false,stim,true,2,692.0,1,0,0,75178,task1,1101995,false,false,1458,image-keyboard-response,2
true,12,1,2,0,false,q,false,false,0.0-2.0-0.50-0.454-3.454,0,0,0,90,false,stim,true,1,317.0,1,0,2,75178,task1,1103819,false,false,1461,image-keyboard-response,3
true,12,1,2,0,false,q,false,false,0.0-2.0-0.50-0.455-3.455,0,0,0,90,false,stim,true,1,514.0,1,0,1,75178,task1,1105840,false,false,1464,image-keyboard-response,4
true,12,0,2,0,true,q,false,true,0.0-2.0-0.50-0.456-3.456,0,0,0,81,false,stim,false,1,618.0,1,0,2,75178,task1,1107964,false,false,1467,image-keyboard-response,5
true,12,0,2,1,false,z,true,false,0.0-2.0-0.50-0.457-3.457,0,0,0,81,false,stim,false,2,571.0,1,0,0,75178,task1,1110044,false,false,1470,image-keyboard-response,6
true,12,1,2,1,true,z,false,true,0.0-2.0-0.50-0.458-3.458,0,0,0,90,false,stim,false,2,838.0000000002328,1,0,0,75178,task1,1112389,false,false,1473,image-keyboard-response,7
true,12,2,2,0,false,q,true,false,0.0-2.0-0.51-0.459-3.459,0,0,0,68,false,stim,false,1,474.0,1,0,1,75178,task1,1114371,false,false,1476,image-keyboard-response,8
true,12,1,2,1,true,z,false,true,0.0-2.0-0.51-0.460-3.460,0,0,0,90,false,stim,false,2,746.0,1,0,0,75178,task1,1116625,false,false,1479,image-keyboard-response,9
true,12,0,2,0,true,q,false,true,0.0-2.0-0.51-0.461-3.461,0,0,0,81,false,stim,false,1,920.0,1,0,1,75178,task1,1119051,false,false,1482,image-keyboard-response,10
true,12,0,2,0,true,q,false,true,0.0-2.0-0.51-0.462-3.462,0,0,0,81,false,stim,false,1,790.0,1,0,2,75178,task1,1121348,false,false,1485,image-keyboard-response,11
true,12,0,2,0,true,q,false,true,0.0-2.0-0.51-0.463-3.463,0,0,0,81,false,stim,false,1,981.0,1,0,1,75178,task1,1123836,false,false,1488,image-keyboard-response,12
true,12,0,2,0,true,q,false,true,0.0-2.0-0.51-0.464-3.464,0,0,0,81,false,stim,false,1,480.0,1,0,2,75178,task1,1125824,false,false,1491,image-keyboard-response,13
true,12,1,2,1,true,z,false,true,0.0-2.0-0.51-0.465-3.465,0,0,0,90,false,stim,false,2,464.0,1,0,0,75178,task1,1127795,false,false,1494,image-keyboard-response,14
true,12,0,2,0,true,q,false,true,0.0-2.0-0.51-0.466-3.466,0,0,0,81,false,stim,false,1,546.0,1,0,2,75178,task1,1129847,false,false,1497,image-keyboard-response,15
true,12,0,2,1,false,z,true,false,0.0-2.0-0.51-0.467-3.467,0,0,0,81,false,stim,false,2,54.0,1,0,0,75178,task1,1131410,false,false,1500,image-keyboard-response,16
true,12,1,2,1,true,z,false,true,0.0-2.0-0.52-0.468-3.468,0,0,0,90,false,stim,false,2,474.0,1,0,0,75178,task1,1133399,false,false,1503,image-keyboard-response,17
true,12,1,2,1,true,z,false,true,0.0-2.0-0.52-0.469-3.469,0,0,0,90,false,stim,false,2,407.0,1,0,0,75178,task1,1135314,false,false,1506,image-keyboard-response,18
true,12,0,2,0,true,q,false,true,0.0-2.0-0.52-0.470-3.470,0,0,0,81,false,stim,false,1,459.99999999976717,1,0,1,75178,task1,1137281,false,false,1509,image-keyboard-response,19
true,12,0,2,0,true,q,false,true,0.0-2.0-0.52-0.471-3.471,0,0,0,81,false,stim,false,1,333.0,1,0,1,75178,task1,1139121,false,false,1512,image-keyboard-response,20
true,12,0,2,0,true,q,false,true,0.0-2.0-0.52-0.472-3.472,0,0,0,81,false,stim,false,1,800.9999999997672,1,0,2,75178,task1,1141429,false,false,1515,image-keyboard-response,21
true,12,0,2,0,true,q,false,true,0.0-2.0-0.52-0.473-3.473,0,0,0,81,false,stim,false,1,399.0,1,0,1,75178,task1,1143335,false,false,1518,image-keyboard-response,22
true,12,0,2,0,true,q,false,true,0.0-2.0-0.52-0.474-3.474,0,0,0,81,false,stim,false,1,397.0,1,0,2,75178,task1,1145239,false,false,1521,image-keyboard-response,23
true,12,1,2,1,true,z,false,true,0.0-2.0-0.52-0.475-3.475,0,0,0,90,false,stim,false,2,1109.0,1,0,0,75178,task1,1147855,false,false,1524,image-keyboard-response,24
true,12,0,2,0,true,q,false,true,0.0-2.0-0.52-0.476-3.476,0,0,0,81,false,stim,false,1,381.0,1,0,2,75178,task1,1149743,false,false,1527,image-keyboard-response,25
true,12,0,2,0,true,q,false,true,0.0-2.0-0.53-0.477-3.477,0,0,0,81,false,stim,false,1,614.0,1,0,2,75178,task1,1151864,false,false,1530,image-keyboard-response,26
true,12,1,2,1,true,z,false,true,0.0-2.0-0.53-0.478-3.478,0,0,0,90,false,stim,false,2,468.00000000023283,1,0,0,75178,task1,1153839,false,false,1533,image-keyboard-response,27
true,12,1,2,1,true,z,false,true,0.0-2.0-0.53-0.479-3.479,0,0,0,90,false,stim,false,2,716.0,1,0,0,75178,task1,1156061,false,false,1536,image-keyboard-response,28
true,12,0,2,0,true,q,false,true,0.0-2.0-0.53-0.480-3.480,0,0,0,81,false,stim,false,1,531.0,1,0,1,75178,task1,1158101,false,false,1539,image-keyboard-response,29
true,12,1,2,1,true,z,false,true,0.0-2.0-0.53-0.481-3.481,0,0,0,90,false,stim,false,2,573.0,1,0,0,75178,task1,1160181,false,false,1542,image-keyboard-response,30
true,12,0,2,0,true,q,false,false,0.0-2.0-0.53-0.482-3.482,0,0,0,81,false,stim,false,1,693.0,1,0,2,75178,task1,1162380,false,true,1545,image-keyboard-response,31
true,12,1,2,0,false,q,false,false,0.0-2.0-0.53-0.483-3.483,0,0,0,90,false,stim,true,1,481.0,1,0,1,75178,task1,1164368,false,false,1548,image-keyboard-response,32
true,12,0,2,0,true,q,false,true,0.0-2.0-0.53-0.484-3.484,0,0,0,81,false,stim,false,1,321.0,1,0,2,75178,task1,1166196,false,false,1551,image-keyboard-response,33
true,12,0,2,0,true,q,false,true,0.0-2.0-0.53-0.485-3.485,0,0,0,81,false,stim,false,1,301.0,1,0,1,75178,task1,1168005,false,false,1554,image-keyboard-response,34
true,12,1,2,1,true,z,false,true,0.0-2.0-0.54-0.486-3.486,0,0,0,90,false,stim,false,2,518.0,1,0,0,75178,task1,1170031,false,false,1557,image-keyboard-response,35
true,12,1,2,0,false,q,false,true,0.0-2.0-0.54-0.487-3.487,0,0,0,90,false,stim,true,1,580.0000000002328,1,0,1,75178,task1,1172117,false,true,1560,image-keyboard-response,36
true,12,0,2,1,false,z,true,false,0.0-2.0-0.54-0.488-3.488,0,0,0,81,false,stim,false,2,500.0,1,0,0,75178,task1,1174126,false,false,1563,image-keyboard-response,37
true,12,1,2,0,false,q,false,false,0.0-2.0-0.54-0.489-3.489,0,0,0,90,false,stim,true,1,369.00000000023283,1,0,1,75178,task1,1176003,false,false,1566,image-keyboard-response,38
true,12,1,2,0,false,q,false,false,0.0-2.0-0.54-0.490-3.490,0,0,0,90,false,stim,true,1,702.0,1,0,1,75178,task1,1178212,false,false,1569,image-keyboard-response,39
true,13,1,2,0,false,q,false,false,0.0-2.0-0.54-0.491-3.491,0,0,0,90,true,stim,true,1,605.0,1,0,0,75178,task1,1180326,false,false,1572,image-keyboard-response,1
true,13,0,2,2,false,d,false,false,0.0-2.0-0.54-0.492-3.492,0,0,0,81,false,stim,true,0,653.0,1,0,2,75178,task1,1182486,false,false,1575,image-keyboard-response,2
true,13,2,2,2,true,d,false,true,0.0-2.0-0.54-0.493-3.493,0,0,0,68,false,stim,false,0,344.99999999976717,1,0,2,75178,task1,1184337,false,false,1578,image-keyboard-response,3
true,13,2,2,2,true,d,false,true,0.0-2.0-0.54-0.494-3.494,0,0,0,68,false,stim,false,0,332.0,1,0,2,75178,task1,1186177,false,false,1581,image-keyboard-response,4
true,13,1,2,0,false,q,false,false,0.0-2.0-0.55-0.495-3.495,0,0,0,90,false,stim,true,1,550.0,1,0,0,75178,task1,1188235,false,false,1584,image-keyboard-response,5
true,13,0,2,1,false,z,false,false,0.0-2.0-0.55-0.496-3.496,0,0,0,81,false,stim,true,0,932.0,1,0,1,75178,task1,1190674,false,false,1587,image-keyboard-response,6
true,13,2,2,2,true,d,false,true,0.0-2.0-0.55-0.497-3.497,0,0,0,68,false,stim,false,0,560.0,1,0,2,75178,task1,1192742,false,false,1590,image-keyboard-response,7
true,13,2,2,0,false,q,true,false,0.0-2.0-0.55-0.498-3.498,0,0,0,68,false,stim,false,1,485.0,1,0,0,75178,task1,1194733,false,false,1593,image-keyboard-response,8
true,13,2,2,2,true,d,false,true,0.0-2.0-0.55-0.499-3.499,0,0,0,68,false,stim,false,0,432.0,1,0,2,75178,task1,1196672,false,false,1596,image-keyboard-response,9
true,13,2,2,2,true,d,false,true,0.0-2.0-0.55-0.500-3.500,0,0,0,68,false,stim,false,0,381.0,1,0,2,75178,task1,1198560,false,false,1599,image-keyboard-response,10
true,13,2,2,1,false,z,true,false,0.0-2.0-0.55-0.501-3.501,0,0,0,68,false,stim,false,0,445.0,1,0,1,75178,task1,1200523,false,false,1602,image-keyboard-response,11
true,13,1,2,1,true,z,false,true,0.0-2.0-0.55-0.502-3.502,0,0,0,90,false,stim,false,0,411.99999999976717,1,0,1,75178,task1,1202443,false,false,1605,image-keyboard-response,12
true,13,1,2,0,false,q,false,true,0.0-2.0-0.55-0.503-3.503,0,0,0,90,false,stim,true,1,351.0,1,0,0,75178,task1,1204300,false,true,1608,image-keyboard-response,13
true,13,1,2,0,false,q,false,true,0.0-2.0-0.56-0.504-3.504,0,0,0,90,false,stim,true,1,364.0,1,0,0,75178,task1,1206171,false,true,1611,image-keyboard-response,14
true,13,1,2,1,true,z,false,true,0.0-2.0-0.56-0.505-3.505,0,0,0,90,false,stim,false,0,627.0,1,0,1,75178,task1,1208305,false,false,1614,image-keyboard-response,15
true,13,2,2,2,true,d,false,true,0.0-2.0-0.56-0.506-3.506,0,0,0,68,false,stim,false,0,444.0,1,0,2,75178,task1,1210256,false,false,1617,image-keyboard-response,16
true,13,2,2,2,true,d,false,true,0.0-2.0-0.56-0.507-3.507,0,0,0,68,false,stim,false,0,375.0,1,0,2,75178,task1,1212138,false,false,1620,image-keyboard-response,17
true,13,2,2,2,true,d,false,true,0.0-2.0-0.56-0.508-3.508,0,0,0,68,false,stim,false,0,293.0,1,0,2,75178,task1,1213937,false,false,1623,image-keyboard-response,18
true,13,1,2,0,false,q,false,false,0.0-2.0-0.56-0.509-3.509,0,0,0,90,false,stim,true,1,546.0000000002328,1,0,0,75178,task1,1215991,false,false,1626,image-keyboard-response,19
true,13,1,2,1,true,z,false,true,0.0-2.0-0.56-0.510-3.510,0,0,0,90,false,stim,false,0,362.0,1,0,1,75178,task1,1217860,false,false,1629,image-keyboard-response,20
true,13,1,2,0,false,q,false,false,0.0-2.0-0.56-0.511-3.511,0,0,0,90,false,stim,true,1,529.0,1,0,0,75178,task1,1219897,false,false,1632,image-keyboard-response,21
true,13,2,2,1,false,z,true,false,0.0-2.0-0.56-0.512-3.512,0,0,0,68,false,stim,false,0,355.99999999976717,1,0,1,75178,task1,1221762,false,false,1635,image-keyboard-response,22
true,13,1,2,1,true,z,false,true,0.0-2.0-0.57-0.513-3.513,0,0,0,90,false,stim,false,0,473.0,1,0,1,75178,task1,1223743,false,false,1638,image-keyboard-response,23
true,13,1,2,0,false,q,false,false,0.0-2.0-0.57-0.514-3.514,0,0,0,90,false,stim,true,1,505.0,1,0,0,75178,task1,1225754,false,false,1641,image-keyboard-response,24
true,13,1,2,1,true,z,false,true,0.0-2.0-0.57-0.515-3.515,0,0,0,90,false,stim,false,0,602.0,1,0,1,75178,task1,1227863,false,false,1644,image-keyboard-response,25
true,13,2,2,2,true,d,false,true,0.0-2.0-0.57-0.516-3.516,0,0,0,68,false,stim,false,0,341.00000000023283,1,0,2,75178,task1,1229712,false,false,1647,image-keyboard-response,26
true,13,2,2,2,true,d,false,true,0.0-2.0-0.57-0.517-3.517,0,0,0,68,false,stim,false,0,592.0,1,0,2,75178,task1,1231811,false,false,1650,image-keyboard-response,27
true,13,0,2,0,true,q,false,true,0.0-2.0-0.57-0.518-3.518,0,0,0,81,false,stim,false,1,558.0,1,0,0,75178,task1,1233876,false,false,1653,image-keyboard-response,28
true,13,2,2,2,true,d,false,true,0.0-2.0-0.57-0.519-3.519,0,0,0,68,false,stim,false,0,585.9999999997672,1,0,2,75178,task1,1235970,false,false,1656,image-keyboard-response,29
true,13,1,2,1,true,z,false,true,0.0-2.0-0.57-0.520-3.520,0,0,0,90,false,stim,false,0,684.0,1,0,1,75178,task1,1238163,false,false,1659,image-keyboard-response,30
true,13,0,2,0,true,q,false,true,0.0-2.0-0.57-0.521-3.521,0,0,0,81,false,stim,false,1,1069.0,1,0,0,75178,task1,1240739,false,false,1662,image-keyboard-response,31
true,13,1,2,1,true,z,false,true,0.0-2.0-0.58-0.522-3.522,0,0,0,90,false,stim,false,0,668.0,1,0,1,75178,task1,1242916,false,false,1665,image-keyboard-response,32
true,13,0,2,0,true,q,false,true,0.0-2.0-0.58-0.523-3.523,0,0,0,81,false,stim,false,1,528.0,1,0,0,75178,task1,1244951,false,false,1668,image-keyboard-response,33
true,13,0,2,0,true,q,false,true,0.0-2.0-0.58-0.524-3.524,0,0,0,81,false,stim,false,1,474.0,1,0,0,75178,task1,1246931,false,false,1671,image-keyboard-response,34
true,13,0,2,0,true,q,false,true,0.0-2.0-0.58-0.525-3.525,0,0,0,81,false,stim,false,1,636.0,1,0,0,75178,task1,1249074,false,false,1674,image-keyboard-response,35
true,13,2,2,2,true,d,false,true,0.0-2.0-0.58-0.526-3.526,0,0,0,68,false,stim,false,0,706.0,1,0,2,75178,task1,1251288,false,false,1677,image-keyboard-response,36
true,13,2,2,2,true,d,false,true,0.0-2.0-0.58-0.527-3.527,0,0,0,68,false,stim,false,0,543.0,1,0,2,75178,task1,1253338,false,false,1680,image-keyboard-response,37
true,13,1,2,1,true,z,false,true,0.0-2.0-0.58-0.528-3.528,0,0,0,90,false,stim,false,0,964.0,1,0,1,75178,task1,1255809,false,false,1683,image-keyboard-response,38
true,13,2,2,2,true,d,false,true,0.0-2.0-0.58-0.529-3.529,0,0,0,68,false,stim,false,0,545.9999999997672,1,0,2,75178,task1,1257863,false,false,1686,image-keyboard-response,39
true,13,1,2,1,true,z,false,false,0.0-2.0-0.58-0.530-3.530,0,0,0,90,false,stim,false,0,635.0,1,0,1,75178,task1,1260005,false,true,1689,image-keyboard-response,40
true,13,0,2,0,true,q,false,true,0.0-2.0-0.59-0.531-3.531,0,0,0,81,false,stim,false,1,541.0,1,1,0,75178,task1,1262054,false,false,1692,image-keyboard-response,41
true,13,0,2,0,true,q,false,true,0.0-2.0-0.59-0.532-3.532,0,0,0,81,false,stim,false,1,585.0,1,1,0,75178,task1,1264147,false,false,1695,image-keyboard-response,42
true,13,0,2,0,true,q,false,true,0.0-2.0-0.59-0.533-3.533,0,0,0,81,false,stim,false,1,424.99999999976717,1,1,0,75178,task1,1266079,false,false,1698,image-keyboard-response,43
true,13,2,2,2,true,d,false,true,0.0-2.0-0.59-0.534-3.534,0,0,0,68,false,stim,false,0,421.99999999976717,1,1,2,75178,task1,1268018,false,false,1701,image-keyboard-response,44
true,13,2,2,2,true,d,false,false,0.0-2.0-0.59-0.535-3.535,0,0,0,68,false,stim,false,0,338.0,1,1,2,75178,task1,1269863,false,true,1704,image-keyboard-response,45
true,14,2,0,2,true,d,false,true,0.0-2.0-0.59-0.536-3.536,1,1,1,68,true,stim,false,2,1023.9999999997672,1,1,2,75178,task1,1392711,false,false,1827,image-keyboard-response,1
true,14,1,0,1,true,z,false,true,0.0-2.0-0.59-0.537-3.537,1,1,1,90,false,stim,false,1,718.0000000002328,1,1,1,75178,task1,1394937,false,false,1830,image-keyboard-response,2
true,14,1,0,1,true,z,false,false,0.0-2.0-0.59-0.538-3.538,1,1,1,90,false,stim,false,1,532.0,1,1,1,75178,task1,1396976,false,true,1833,image-keyboard-response,3
true,14,1,0,1,true,z,false,true,0.0-2.0-0.59-0.539-3.539,1,1,1,90,false,stim,false,1,490.0,1,1,1,75178,task1,1398974,false,false,1836,image-keyboard-response,4
true,14,1,0,1,true,z,false,true,0.0-2.0-0.60-0.540-3.540,1,1,1,90,false,stim,false,1,494.0,1,1,1,75178,task1,1400979,false,false,1839,image-keyboard-response,5
true,14,0,0,0,true,q,false,true,0.0-2.0-0.60-0.541-3.541,1,1,1,81,false,stim,false,0,645.0,1,1,0,75178,task1,1403132,false,false,1842,image-keyboard-response,6
true,14,2,0,2,true,d,false,true,0.0-2.0-0.60-0.542-3.542,1,1,1,68,false,stim,false,2,675.0,1,1,2,75178,task1,1405313,false,false,1845,image-keyboard-response,7
true,14,0,0,0,true,q,false,false,0.0-2.0-0.60-0.543-3.543,1,1,1,81,false,stim,false,0,631.9999999997672,1,1,0,75178,task1,1407454,false,true,1848,image-keyboard-response,8
true,14,1,0,0,false,q,true,false,0.0-2.0-0.60-0.544-3.544,1,1,1,90,false,stim,false,0,581.0,1,0,0,75178,task1,1409542,false,false,1851,image-keyboard-response,9
true,14,1,0,1,true,z,false,true,0.0-2.0-0.60-0.545-3.545,1,1,1,90,false,stim,false,1,633.0,1,0,1,75178,task1,1411682,false,false,1854,image-keyboard-response,10
true,14,1,0,1,true,z,false,true,0.0-2.0-0.60-0.546-3.546,1,1,1,90,false,stim,false,1,445.0,1,0,1,75178,task1,1413637,false,false,1857,image-keyboard-response,11
true,14,2,0,2,true,d,false,true,0.0-2.0-0.60-0.547-3.547,1,1,1,68,false,stim,false,2,531.0,1,0,2,75178,task1,1415675,false,false,1860,image-keyboard-response,12
true,14,2,0,2,true,d,false,true,0.0-2.0-0.60-0.548-3.548,1,1,1,68,false,stim,false,2,747.0,1,0,2,75178,task1,1417929,false,false,1863,image-keyboard-response,13
true,15,2,1,1,false,z,false,false,0.0-2.0-0.61-0.549-3.549,0,0,0,68,true,stim,true,2,932.0000000002328,1,0,2,75178,task1,1420370,false,false,1866,image-keyboard-response,1
true,15,1,1,2,false,d,false,false,0.0-2.0-0.61-0.550-3.550,0,0,0,90,false,stim,true,1,952.9999999997672,1,0,1,75178,task1,1422832,false,false,1869,image-keyboard-response,2
true,15,1,1,1,true,z,false,true,0.0-2.0-0.61-0.551-3.551,0,0,0,90,false,stim,false,2,1890.0,1,0,2,75178,task1,1426228,false,false,1872,image-keyboard-response,3
true,15,1,1,2,false,d,false,false,0.0-2.0-0.61-0.552-3.552,0,0,0,90,false,stim,true,1,535.0,1,0,1,75178,task1,1428270,false,false,1875,image-keyboard-response,4
true,15,0,1,1,false,z,false,false,0.0-2.0-0.61-0.553-3.553,0,0,0,81,false,stim,true,0,1128.0,1,0,0,75178,task1,1430906,false,false,1878,image-keyboard-response,5
true,15,0,1,1,false,z,false,false,0.0-2.0-0.61-0.554-3.554,0,0,0,81,false,stim,true,0,1562.0,1,0,0,75178,task1,1433976,false,false,1881,image-keyboard-response,6
true,15,1,1,2,false,d,false,false,0.0-2.0-0.61-0.555-3.555,0,0,0,90,false,stim,true,1,1016.0,1,0,1,75178,task1,1436499,false,false,1884,image-keyboard-response,7
true,15,1,1,1,true,z,false,true,0.0-2.0-0.61-0.556-3.556,0,0,0,90,false,stim,false,0,1304.0,1,0,0,75178,task1,1439310,false,false,1887,image-keyboard-response,8
true,15,2,1,1,false,z,false,false,0.0-2.0-0.61-0.557-3.557,0,0,0,68,false,stim,true,2,530.0,1,0,2,75178,task1,1441347,false,false,1890,image-keyboard-response,9
true,15,0,1,2,false,d,true,false,0.0-2.0-0.62-0.558-3.558,0,0,0,81,false,stim,false,1,1147.0,1,0,1,75178,task1,1444002,false,false,1893,image-keyboard-response,10
true,15,1,1,2,false,d,false,false,0.0-2.0-0.62-0.559-3.559,0,0,0,90,false,stim,true,1,606.0,1,0,1,75178,task1,1446116,false,false,1896,image-keyboard-response,11
true,15,1,1,1,true,z,false,false,0.0-2.0-0.62-0.560-3.560,0,0,0,90,false,stim,false,0,816.0,1,0,0,75178,task1,1448439,false,true,1899,image-keyboard-response,12
true,15,1,1,2,false,d,false,false,0.0-2.0-0.62-0.561-3.561,0,0,0,90,false,stim,true,1,404.0,1,0,1,75178,task1,1450359,false,false,1902,image-keyboard-response,13
true,15,0,1,1,false,z,true,false,0.0-2.0-0.62-0.562-3.562,0,0,0,81,false,stim,false,2,604.0,1,0,2,75178,task1,1452469,false,false,1905,image-keyboard-response,14
true,15,0,1,1,false,z,false,false,0.0-2.0-0.62-0.563-3.563,0,0,0,81,false,stim,true,0,864.9999999997672,1,0,0,75178,task1,1454839,false,false,1908,image-keyboard-response,15
true,15,1,1,1,true,z,false,true,0.0-2.0-0.62-0.564-3.564,0,0,0,90,false,stim,false,2,912.0,1,0,2,75178,task1,1457258,false,false,1911,image-keyboard-response,16
true,15,1,1,1,true,z,false,false,0.0-2.0-0.62-0.565-3.565,0,0,0,90,false,stim,false,2,517.0000000002328,1,0,2,75178,task1,1459281,false,true,1914,image-keyboard-response,17
true,15,2,1,1,false,z,true,true,0.0-2.0-0.62-0.566-3.566,0,0,0,68,false,stim,false,0,600.0,1,0,0,75178,task1,1461389,false,true,1917,image-keyboard-response,18
true,15,1,1,1,true,z,false,true,0.0-2.0-0.63-0.567-3.567,0,0,0,90,false,stim,false,2,656.0,1,0,2,75178,task1,1463551,false,false,1920,image-keyboard-response,19
true,15,2,1,1,false,z,true,false,0.0-2.0-0.63-0.568-3.568,0,0,0,68,false,stim,false,0,319.0,1,0,0,75178,task1,1465375,false,false,1923,image-keyboard-response,20
true,15,2,1,1,false,z,true,false,0.0-2.0-0.63-0.569-3.569,0,0,0,68,false,stim,false,0,438.0,1,0,0,75178,task1,1467318,false,false,1926,image-keyboard-response,21
true,15,1,1,1,true,z,false,true,0.0-2.0-0.63-0.570-3.570,0,0,0,90,false,stim,false,2,563.0,1,0,2,75178,task1,1469387,false,false,1929,image-keyboard-response,22
true,15,0,1,1,false,z,false,true,0.0-2.0-0.63-0.571-3.571,0,0,0,81,false,stim,true,0,660.0,1,0,0,75178,task1,1471555,false,true,1932,image-keyboard-response,23
true,15,0,1,2,false,d,true,false,0.0-2.0-0.63-0.572-3.572,0,0,0,81,false,stim,false,1,767.0,1,0,1,75178,task1,1473828,false,false,1935,image-keyboard-response,24
true,15,1,1,1,true,z,false,true,0.0-2.0-0.63-0.573-3.573,0,0,0,90,false,stim,false,2,692.0,1,0,2,75178,task1,1476025,false,false,1938,image-keyboard-response,25
true,15,1,1,2,false,d,false,false,0.0-2.0-0.63-0.574-3.574,0,0,0,90,false,stim,true,1,941.0,1,0,1,75178,task1,1478471,false,false,1941,image-keyboard-response,26
true,15,2,1,2,true,d,false,true,0.0-2.0-0.63-0.575-3.575,0,0,0,68,false,stim,false,1,681.0,1,0,1,75178,task1,1480660,false,false,1944,image-keyboard-response,27
true,15,2,1,1,false,z,true,false,0.0-2.0-0.64-0.576-3.576,0,0,0,68,false,stim,false,0,688.0000000002328,1,0,0,75178,task1,1482858,false,false,1947,image-keyboard-response,28
true,15,1,1,1,true,z,false,false,0.0-2.0-0.64-0.577-3.577,0,0,0,90,false,stim,false,2,856.0,1,0,2,75178,task1,1485221,false,true,1950,image-keyboard-response,29
true,15,2,1,2,true,d,false,true,0.0-2.0-0.64-0.578-3.578,0,0,0,68,false,stim,false,1,685.0,1,0,1,75178,task1,1487413,false,false,1953,image-keyboard-response,30
true,15,2,1,2,true,d,false,true,0.0-2.0-0.64-0.579-3.579,0,0,0,68,false,stim,false,1,677.0,1,0,1,75178,task1,1489598,false,false,1956,image-keyboard-response,31
true,15,0,1,1,false,z,false,false,0.0-2.0-0.64-0.580-3.580,0,0,0,81,false,stim,true,0,709.0,1,0,0,75178,task1,1491815,false,false,1959,image-keyboard-response,32
true,15,1,1,2,false,d,false,false,0.0-2.0-0.64-0.581-3.581,0,0,0,90,false,stim,true,1,378.0,1,0,1,75178,task1,1493701,false,false,1962,image-keyboard-response,33
true,15,1,1,1,true,z,false,true,0.0-2.0-0.64-0.582-3.582,0,0,0,90,false,stim,false,2,638.0,1,0,2,75178,task1,1495846,false,false,1965,image-keyboard-response,34
true,15,0,1,1,false,z,true,false,0.0-2.0-0.64-0.583-3.583,0,0,0,81,false,stim,false,2,1131.0,1,0,2,75178,task1,1498486,false,false,1968,image-keyboard-response,35
true,15,1,1,1,true,z,false,true,0.0-2.0-0.64-0.584-3.584,0,0,0,90,false,stim,false,0,645.0,1,0,0,75178,task1,1500638,false,false,1971,image-keyboard-response,36
true,15,2,1,1,false,z,false,false,0.0-2.0-0.65-0.585-3.585,0,0,0,68,false,stim,true,2,554.9999999997672,1,0,2,75178,task1,1502701,false,false,1974,image-keyboard-response,37
true,15,1,1,1,true,z,false,true,0.0-2.0-0.65-0.586-3.586,0,0,0,90,false,stim,false,2,538.0,1,0,2,75178,task1,1504748,false,false,1977,image-keyboard-response,38
true,15,2,1,2,true,d,false,true,0.0-2.0-0.65-0.587-3.587,0,0,0,68,false,stim,false,1,1000.0,1,0,1,75178,task1,1507256,false,false,1980,image-keyboard-response,39
true,15,0,1,1,false,z,false,false,0.0-2.0-0.65-0.588-3.588,0,0,0,81,false,stim,true,0,721.0,1,0,0,75178,task1,1509484,false,false,1983,image-keyboard-response,40
true,15,1,1,2,false,d,false,true,0.0-2.0-0.65-0.589-3.589,0,0,0,90,false,stim,true,1,696.0,1,0,1,75178,task1,1511689,false,true,1986,image-keyboard-response,41
true,15,1,1,1,true,z,false,true,0.0-2.0-0.65-0.590-3.590,0,0,0,90,false,stim,false,0,1159.0,1,0,0,75178,task1,1514356,false,false,1989,image-keyboard-response,42
true,16,1,2,2,false,d,false,false,0.0-2.0-0.65-0.591-3.591,0,0,0,90,true,stim,true,1,902.0,1,0,2,75178,task1,1516767,false,false,1992,image-keyboard-response,1
true,16,2,2,1,false,z,false,false,0.0-2.0-0.65-0.592-3.592,0,0,0,68,false,stim,true,2,829.0,1,0,1,75178,task1,1519103,false,false,1995,image-keyboard-response,2
true,16,0,2,0,true,q,false,true,0.0-2.0-0.65-0.593-3.593,0,0,0,81,false,stim,false,1,756.0,1,0,0,75178,task1,1521365,false,false,1998,image-keyboard-response,3
true,16,2,2,1,false,z,false,false,0.0-2.0-0.66-0.594-3.594,0,0,0,68,false,stim,true,2,1422.0,1,0,1,75178,task1,1524307,false,false,2001,image-keyboard-response,4
true,16,2,2,1,false,z,false,false,0.0-2.0-0.66-0.595-3.595,0,0,0,68,false,stim,true,2,440.0,1,0,1,75178,task1,1526256,false,false,2004,image-keyboard-response,5
true,16,2,2,2,true,d,false,true,0.0-2.0-0.66-0.596-3.596,0,0,0,68,false,stim,false,1,662.0,1,0,2,75178,task1,1528426,false,false,2007,image-keyboard-response,6
true,16,1,2,1,true,z,false,true,0.0-2.0-0.66-0.597-3.597,0,0,0,90,false,stim,false,2,624.0,1,0,1,75178,task1,1530556,false,false,2010,image-keyboard-response,7
true,16,2,2,2,true,d,false,true,0.0-2.0-0.66-0.598-3.598,0,0,0,68,false,stim,false,1,794.0,1,0,2,75178,task1,1532859,false,false,2013,image-keyboard-response,8
true,16,0,2,0,true,q,false,true,0.0-2.0-0.66-0.599-3.599,0,0,0,81,false,stim,false,1,458.99999999976717,1,0,0,75178,task1,1534825,false,false,2016,image-keyboard-response,9
true,16,0,2,0,true,q,false,true,0.0-2.0-0.66-0.600-3.600,0,0,0,81,false,stim,false,1,649.0000000002328,1,0,0,75178,task1,1536981,false,false,2019,image-keyboard-response,10
true,16,2,2,2,true,d,false,false,0.0-2.0-0.66-0.601-3.601,0,0,0,68,false,stim,false,1,669.0,1,0,2,75178,task1,1539158,false,true,2022,image-keyboard-response,11
true,16,0,2,0,true,q,false,true,0.0-2.0-0.66-0.602-3.602,0,0,0,81,false,stim,false,1,642.0000000002328,1,0,0,75178,task1,1541308,false,false,2025,image-keyboard-response,12
true,16,1,2,1,true,z,false,true,0.0-2.0-0.67-0.603-3.603,0,0,0,90,false,stim,false,2,729.9999999997672,1,0,1,75178,task1,1543547,false,false,2028,image-keyboard-response,13
true,16,2,2,2,true,d,false,true,0.0-2.0-0.67-0.604-3.604,0,0,0,68,false,stim,false,1,429.0,1,0,2,75178,task1,1545484,false,false,2031,image-keyboard-response,14
true,16,0,2,0,true,q,false,true,0.0-2.0-0.67-0.605-3.605,0,0,0,81,false,stim,false,1,646.9999999997672,1,0,0,75178,task1,1547638,false,false,2034,image-keyboard-response,15
true,16,2,2,2,true,d,false,true,0.0-2.0-0.67-0.606-3.606,0,0,0,68,false,stim,false,1,505.0,1,0,2,75178,task1,1549651,false,false,2037,image-keyboard-response,16
true,16,0,2,0,true,q,false,false,0.0-2.0-0.67-0.607-3.607,0,0,0,81,false,stim,false,1,882.0,1,0,0,75178,task1,1552039,false,true,2040,image-keyboard-response,17
true,16,2,2,1,false,z,false,false,0.0-2.0-0.67-0.608-3.608,0,0,0,68,false,stim,true,2,1023.0,1,0,1,75178,task1,1554570,false,false,2043,image-keyboard-response,18
true,16,0,2,0,true,q,false,true,0.0-2.0-0.67-0.609-3.609,0,0,0,81,false,stim,false,1,1358.0,1,0,0,75178,task1,1557436,false,false,2046,image-keyboard-response,19
true,16,1,2,1,true,z,false,true,0.0-2.0-0.67-0.610-3.610,0,0,0,90,false,stim,false,2,684.0,1,0,1,75178,task1,1559629,false,false,2049,image-keyboard-response,20
true,16,2,2,2,true,d,false,true,0.0-2.0-0.67-0.611-3.611,0,0,0,68,false,stim,false,1,556.0000000002328,1,0,2,75178,task1,1561692,false,false,2052,image-keyboard-response,21
true,16,0,2,0,true,q,false,false,0.0-2.0-0.68-0.612-3.612,0,0,0,81,false,stim,false,1,964.0,1,0,0,75178,task1,1564166,false,true,2055,image-keyboard-response,22
true,16,1,2,1,true,z,false,true,0.0-2.0-0.68-0.613-3.613,0,0,0,90,false,stim,false,2,1102.0,1,0,1,75178,task1,1566775,false,false,2058,image-keyboard-response,23
true,16,0,2,1,false,z,true,false,0.0-2.0-0.68-0.614-3.614,0,0,0,81,false,stim,false,2,2007.0,1,0,1,75178,task1,1570289,false,false,2061,image-keyboard-response,24
true,16,2,2,2,true,d,false,true,0.0-2.0-0.68-0.615-3.615,0,0,0,68,false,stim,false,1,1317.0,1,0,2,75178,task1,1573114,false,false,2064,image-keyboard-response,25
true,16,2,2,2,true,d,false,true,0.0-2.0-0.68-0.616-3.616,0,0,0,68,false,stim,false,1,596.0,1,0,2,75178,task1,1575217,false,false,2067,image-keyboard-response,26
