answered,blockNum,choice,condition,corResp,correct,correct_response,explo,fb,internal_node_id,isStable_1,isStable_2,isStable_3,key_press,newBlock,part,persev,persevResp,rt,sessNum,stableAS,stimulus,subject,task,time_elapsed,training,trap,trial_index,trial_type,trialsInBlock
true,1,0,0,0,true,q,false,false,0.0-2.0-0.0-0.0-3.0,0,0,0,81,true,stim,false,-1,898.9000000953674,0,0,2,75469,task1,274279,false,true,186,image-keyboard-response,1
true,1,0,0,2,false,d,true,false,0.0-2.0-0.0-0.1-3.1,0,0,0,81,false,stim,false,-1,545.0,0,0,0,75469,task1,276350,false,false,189,image-keyboard-response,2
true,1,1,0,2,false,d,true,false,0.0-2.0-0.0-0.2-3.2,0,0,0,90,false,stim,false,-1,1003.4000000953674,0,0,0,75469,task1,278873,false,false,192,image-keyboard-response,3
true,1,1,0,0,false,q,true,false,0.0-2.0-0.0-0.3-3.3,0,0,0,90,false,stim,false,-1,1239.1999998092651,0,0,2,75469,task1,281631,false,false,195,image-keyboard-response,4
true,1,2,0,0,false,q,true,false,0.0-2.0-0.0-0.4-3.4,0,0,0,68,false,stim,false,-1,1076.6000001430511,0,0,1,75469,task1,284228,false,false,198,image-keyboard-response,5
true,1,2,0,0,false,q,true,true,0.0-2.0-0.0-0.5-3.5,0,0,0,68,false,stim,false,-1,746.6999998092651,0,0,2,75469,task1,286498,false,true,201,image-keyboard-response,6
true,1,1,0,0,false,q,true,true,0.0-2.0-0.0-0.6-3.6,0,0,0,90,false,stim,false,-1,1375.6999998092651,0,0,1,75469,task1,289395,false,true,204,image-keyboard-response,7
true,1,2,0,2,true,d,false,true,0.0-2.0-0.0-0.7-3.7,0,0,0,68,false,stim,false,-1,1233.0,0,0,0,75469,task1,292150,false,false,207,image-keyboard-response,8
true,1,1,0,0,false,q,true,true,0.0-2.0-0.0-0.8-3.8,0,0,0,90,false,stim,false,-1,1698.7999999523163,0,0,1,75469,task1,295359,false,true,210,image-keyboard-response,9
true,1,2,0,2,true,d,false,true,0.0-2.0-0.1-0.9-3.9,0,0,0,68,false,stim,false,-1,789.8000001907349,0,0,0,75469,task1,297675,false,false,213,image-keyboard-response,10
true,1,2,0,0,false,q,true,false,0.0-2.0-0.1-0.10-3.10,0,0,0,68,false,stim,false,-1,943.9000000953674,0,0,2,75469,task1,300151,false,false,216,image-keyboard-response,11
true,1,0,0,0,true,q,false,true,0.0-2.0-0.1-0.11-3.11,0,0,0,81,false,stim,false,-1,1262.2000000476837,0,0,2,75469,task1,302932,false,false,219,image-keyboard-response,12
true,1,0,0,0,true,q,false,true,0.0-2.0-0.1-0.12-3.12,0,0,0,81,false,stim,false,-1,1066.9000000953674,0,0,2,75469,task1,305519,false,false,222,image-keyboard-response,13
true,1,2,0,2,true,d,false,true,0.0-2.0-0.1-0.13-3.13,0,0,0,68,false,stim,false,-1,1819.2999999523163,0,0,0,75469,task1,308868,false,false,225,image-keyboard-response,14
true,1,1,0,0,false,q,true,false,0.0-2.0-0.1-0.14-3.14,0,0,0,90,false,stim,false,-1,935.5999999046326,0,0,1,75469,task1,311324,false,false,228,image-keyboard-response,15
true,1,0,0,0,true,q,false,false,0.0-2.0-0.1-0.15-3.15,0,0,0,81,false,stim,false,-1,568.7000000476837,0,0,1,75469,task1,313414,false,true,231,image-keyboard-response,16
true,1,2,0,2,true,d,false,true,0.0-2.0-0.1-0.16-3.16,0,0,0,68,false,stim,false,-1,2193.0999999046326,0,0,0,75469,task1,317126,false,false,234,image-keyboard-response,17
true,1,2,0,0,false,q,true,false,0.0-2.0-0.1-0.17-3.17,0,0,0,68,false,stim,false,-1,658.5,0,0,1,75469,task1,319308,false,false,237,image-keyboard-response,18
true,1,0,0,0,true,q,false,true,0.0-2.0-0.2-0.18-3.18,0,0,0,81,false,stim,false,-1,967.6999998092651,0,0,2,75469,task1,321795,false,false,240,image-keyboard-response,19
true,1,1,0,0,false,q,true,false,0.0-2.0-0.2-0.19-3.19,0,0,0,90,false,stim,false,-1,632.2999999523163,0,0,1,75469,task1,323961,false,false,243,image-keyboard-response,20
true,1,0,0,0,true,q,false,true,0.0-2.0-0.2-0.20-3.20,0,0,0,81,false,stim,false,-1,699.5999999046326,0,0,1,75469,task1,326193,false,false,246,image-keyboard-response,21
true,1,0,0,0,true,q,false,true,0.0-2.0-0.2-0.21-3.21,0,0,0,81,false,stim,false,-1,732.1000001430511,0,0,2,75469,task1,328454,false,false,249,image-keyboard-response,22
true,1,2,0,2,true,d,false,true,0.0-2.0-0.2-0.22-3.22,0,0,0,68,false,stim,false,-1,1024.5999999046326,0,0,0,75469,task1,331005,false,false,252,image-keyboard-response,23
true,1,0,0,2,false,d,true,false,0.0-2.0-0.2-0.23-3.23,0,0,0,81,false,stim,false,-1,1640.3999998569489,0,0,0,75469,task1,334174,false,false,255,image-keyboard-response,24
true,1,0,0,0,true,q,false,true,0.0-2.0-0.2-0.24-3.24,0,0,0,81,false,stim,false,-1,964.2999999523163,0,0,1,75469,task1,336669,false,false,258,image-keyboard-response,25
true,1,1,0,2,false,d,true,false,0.0-2.0-0.2-0.25-3.25,0,0,0,90,false,stim,false,-1,684.2000000476837,0,0,0,75469,task1,338876,false,false,261,image-keyboard-response,26
true,2,2,1,1,false,z,true,false,0.0-2.0-0.2-0.26-3.26,0,0,0,68,true,stim,false,0,1277.3999998569489,0,0,2,75469,task1,341680,false,false,264,image-keyboard-response,1
true,2,2,1,2,true,d,false,false,0.0-2.0-0.3-0.27-3.27,0,0,0,68,false,stim,false,0,1216.1000001430511,0,0,1,75469,task1,344417,false,true,267,image-keyboard-response,2
true,2,1,1,0,false,q,true,false,0.0-2.0-0.3-0.28-3.28,0,0,0,90,false,stim,false,2,2115.899999856949,0,0,0,75469,task1,348055,false,false,270,image-keyboard-response,3
true,2,0,1,2,false,d,false,false,0.0-2.0-0.3-0.29-3.29,0,0,0,81,false,stim,true,0,536.6999998092651,0,0,1,75469,task1,350114,false,false,273,image-keyboard-response,4
true,2,0,1,1,false,z,false,false,0.0-2.0-0.3-0.30-3.30,0,0,0,81,false,stim,true,0,845.8999998569489,0,0,2,75469,task1,352477,false,false,276,image-keyboard-response,5
true,2,0,1,2,false,d,false,false,0.0-2.0-0.3-0.31-3.31,0,0,0,81,false,stim,true,0,586.5999999046326,0,0,1,75469,task1,354585,false,false,279,image-keyboard-response,6
true,2,1,1,0,false,q,true,false,0.0-2.0-0.3-0.32-3.32,0,0,0,90,false,stim,false,2,770.2999999523163,0,0,0,75469,task1,356884,false,false,282,image-keyboard-response,7
true,2,0,1,0,true,q,false,false,0.0-2.0-0.3-0.33-3.33,0,0,0,81,false,stim,false,2,1227.4000000953674,0,0,0,75469,task1,359629,false,true,285,image-keyboard-response,8
true,2,0,1,1,false,z,false,false,0.0-2.0-0.3-0.34-3.34,0,0,0,81,false,stim,true,0,1533.4000000953674,0,0,2,75469,task1,362695,false,false,288,image-keyboard-response,9
true,2,2,1,1,false,z,true,false,0.0-2.0-0.3-0.35-3.35,0,0,0,68,false,stim,false,0,1152.2999999523163,0,0,2,75469,task1,365369,false,false,291,image-keyboard-response,10
true,2,2,1,0,false,q,false,false,0.0-2.0-0.4-0.36-3.36,0,0,0,68,false,stim,true,2,1075.0999999046326,0,0,0,75469,task1,367971,false,false,294,image-keyboard-response,11
true,2,1,1,0,false,q,true,false,0.0-2.0-0.4-0.37-3.37,0,0,0,90,false,stim,false,2,630.1000001430511,0,0,0,75469,task1,370123,false,false,297,image-keyboard-response,12
true,2,1,1,1,true,z,false,true,0.0-2.0-0.4-0.38-3.38,0,0,0,90,false,stim,false,0,1844.9000000953674,0,0,2,75469,task1,373497,false,false,300,image-keyboard-response,13
true,2,1,1,1,true,z,false,true,0.0-2.0-0.4-0.39-3.39,0,0,0,90,false,stim,false,0,753.3999998569489,0,0,2,75469,task1,375779,false,false,303,image-keyboard-response,14
true,2,0,1,2,false,d,false,false,0.0-2.0-0.4-0.40-3.40,0,0,0,81,false,stim,true,0,784.7999999523163,0,0,1,75469,task1,378091,false,false,306,image-keyboard-response,15
true,2,0,1,0,true,q,false,true,0.0-2.0-0.4-0.41-3.41,0,0,0,81,false,stim,false,2,1814.0,0,0,0,75469,task1,381437,false,false,309,image-keyboard-response,16
true,2,2,1,2,true,d,false,true,0.0-2.0-0.4-0.42-3.42,0,0,0,68,false,stim,false,0,1037.6000001430511,0,0,1,75469,task1,383992,false,false,312,image-keyboard-response,17
true,2,2,1,1,false,z,true,false,0.0-2.0-0.4-0.43-3.43,0,0,0,68,false,stim,false,0,2345.7999999523163,0,0,2,75469,task1,387872,false,false,315,image-keyboard-response,18
true,2,2,1,2,true,d,false,true,0.0-2.0-0.4-0.44-3.44,0,0,0,68,false,stim,false,0,1366.0999999046326,0,0,1,75469,task1,390770,false,false,318,image-keyboard-response,19
true,2,2,1,2,true,d,false,true,0.0-2.0-0.5-0.45-3.45,0,0,0,68,false,stim,false,0,709.5,0,0,1,75469,task1,393010,false,false,321,image-keyboard-response,20
true,2,0,1,1,false,z,false,false,0.0-2.0-0.5-0.46-3.46,0,0,0,81,false,stim,true,0,613.7000000476837,0,0,2,75469,task1,395143,false,false,324,image-keyboard-response,21
true,2,2,1,2,true,d,false,true,0.0-2.0-0.5-0.47-3.47,0,0,0,68,false,stim,false,0,862.5999999046326,0,0,1,75469,task1,397539,false,false,327,image-keyboard-response,22
true,2,1,1,1,true,z,false,true,0.0-2.0-0.5-0.48-3.48,0,0,0,90,false,stim,false,0,453.90000009536743,0,0,2,75469,task1,399506,false,false,330,image-keyboard-response,23
true,2,0,1,0,true,q,false,true,0.0-2.0-0.5-0.49-3.49,0,0,0,81,false,stim,false,2,732.7999999523163,0,0,0,75469,task1,401760,false,false,333,image-keyboard-response,24
true,2,1,1,1,true,z,false,true,0.0-2.0-0.5-0.50-3.50,0,0,0,90,false,stim,false,0,1000.2999999523163,0,0,2,75469,task1,404283,false,false,336,image-keyboard-response,25
true,2,0,1,0,true,q,false,true,0.0-2.0-0.5-0.51-3.51,0,0,0,81,false,stim,false,2,728.0,0,0,0,75469,task1,406531,false,false,339,image-keyboard-response,26
true,2,2,1,2,true,d,false,true,0.0-2.0-0.5-0.52-3.52,0,0,0,68,false,stim,false,0,663.5,0,0,1,75469,task1,408725,false,false,342,image-keyboard-response,27
true,2,0,1,0,true,q,false,true,0.0-2.0-0.5-0.53-3.53,0,0,0,81,false,stim,false,2,1135.0,0,0,0,75469,task1,411390,false,false,345,image-keyboard-response,28
true,2,2,1,2,true,d,false,true,0.0-2.0-0.6-0.54-3.54,0,0,0,68,false,stim,false,0,1082.5,0,0,1,75469,task1,413995,false,false,348,image-keyboard-response,29
true,2,2,1,2,true,d,false,true,0.0-2.0-0.6-0.55-3.55,0,0,0,68,false,stim,false,0,786.1000001430511,0,0,1,75469,task1,416299,false,false,351,image-keyboard-response,30
true,2,2,1,2,true,d,false,true,0.0-2.0-0.6-0.56-3.56,0,0,0,68,false,stim,false,0,599.2000000476837,0,0,1,75469,task1,418423,false,false,354,image-keyboard-response,31
true,2,0,1,0,true,q,false,true,0.0-2.0-0.6-0.57-3.57,0,0,0,81,false,stim,false,2,807.0999999046326,0,0,0,75469,task1,420758,false,false,357,image-keyboard-response,32
true,2,0,1,0,true,q,false,true,0.0-2.0-0.6-0.58-3.58,0,0,0,81,false,stim,false,2,601.1999998092651,0,0,0,75469,task1,422890,false,false,360,image-keyboard-response,33
true,2,1,1,1,true,z,false,true,0.0-2.0-0.6-0.59-3.59,0,0,0,90,false,stim,false,0,698.0,0,0,2,75469,task1,425122,false,false,363,image-keyboard-response,34
true,2,0,1,0,true,q,false,true,0.0-2.0-0.6-0.60-3.60,0,0,0,81,false,stim,false,2,555.9000000953674,0,0,0,75469,task1,427205,false,false,366,image-keyboard-response,35
true,2,1,1,1,true,z,false,true,0.0-2.0-0.6-0.61-3.61,0,0,0,90,false,stim,false,0,812.5,0,0,2,75469,task1,429548,false,false,369,image-keyboard-response,36
true,2,1,1,1,true,z,false,true,0.0-2.0-0.6-0.62-3.62,0,0,0,90,false,stim,false,0,660.2000000476837,0,0,2,75469,task1,431737,false,false,372,image-keyboard-response,37
true,2,2,1,0,false,q,false,false,0.0-2.0-0.7-0.63-3.63,0,0,0,68,false,stim,true,2,817.6000001430511,0,0,0,75469,task1,434073,false,false,375,image-keyboard-response,38
true,2,2,1,1,false,z,true,false,0.0-2.0-0.7-0.64-3.64,0,0,0,68,false,stim,false,0,1309.7000000476837,0,0,2,75469,task1,436912,false,false,378,image-keyboard-response,39
true,3,2,1,1,false,z,false,true,0.0-2.0-0.7-0.65-3.65,0,0,0,68,true,stim,true,2,1397.6000001430511,0,0,1,75469,task1,439828,false,true,381,image-keyboard-response,1
true,3,1,1,2,false,d,true,false,0.0-2.0-0.7-0.66-3.66,0,0,0,90,false,stim,false,0,903.0,0,0,0,75469,task1,442263,false,false,384,image-keyboard-response,2
true,3,2,1,1,false,z,false,false,0.0-2.0-0.7-0.67-3.67,0,0,0,68,false,stim,true,2,548.9000000953674,0,0,1,75469,task1,444335,false,false,387,image-keyboard-response,3
true,3,0,1,1,false,z,true,false,0.0-2.0-0.7-0.68-3.68,0,0,0,81,false,stim,false,2,1501.7000000476837,0,0,1,75469,task1,447358,false,false,390,image-keyboard-response,4
true,3,0,1,0,true,q,false,false,0.0-2.0-0.7-0.69-3.69,0,0,0,81,false,stim,false,1,1180.2999999523163,0,0,2,75469,task1,450061,false,true,393,image-keyboard-response,5
true,3,1,1,0,false,q,false,false,0.0-2.0-0.7-0.70-3.70,0,0,0,90,false,stim,true,1,844.7000000476837,0,0,2,75469,task1,452428,false,false,396,image-keyboard-response,6
true,3,0,1,2,false,d,false,false,0.0-2.0-0.7-0.71-3.71,0,0,0,81,false,stim,true,0,1873.5,0,0,0,75469,task1,455828,false,false,399,image-keyboard-response,7
true,3,1,1,1,true,z,false,true,0.0-2.0-0.8-0.72-3.72,0,0,0,90,false,stim,false,2,1199.6999998092651,0,0,1,75469,task1,458551,false,false,402,image-keyboard-response,8
true,3,1,1,0,false,q,false,false,0.0-2.0-0.8-0.73-3.73,0,0,0,90,false,stim,true,1,1806.0,0,0,2,75469,task1,461878,false,false,405,image-keyboard-response,9
true,3,2,1,2,true,d,false,true,0.0-2.0-0.8-0.74-3.74,0,0,0,68,false,stim,false,0,1145.5999999046326,0,0,0,75469,task1,464557,false,false,408,image-keyboard-response,10
true,3,1,1,1,true,z,false,true,0.0-2.0-0.8-0.75-3.75,0,0,0,90,false,stim,false,2,972.5,0,0,1,75469,task1,467061,false,false,411,image-keyboard-response,11
true,3,0,1,0,true,q,false,true,0.0-2.0-0.8-0.76-3.76,0,0,0,81,false,stim,false,1,864.8999998569489,0,0,2,75469,task1,469447,false,false,414,image-keyboard-response,12
true,3,2,1,2,true,d,false,true,0.0-2.0-0.8-0.77-3.77,0,0,0,68,false,stim,false,0,373.5,0,0,0,75469,task1,471338,false,false,417,image-keyboard-response,13
true,3,0,1,2,false,d,false,false,0.0-2.0-0.8-0.78-3.78,0,0,0,81,false,stim,true,0,1176.8999998569489,0,0,0,75469,task1,474040,false,false,420,image-keyboard-response,14
true,3,0,1,0,true,q,false,true,0.0-2.0-0.8-0.79-3.79,0,0,0,81,false,stim,false,1,993.5999999046326,0,0,2,75469,task1,476562,false,false,423,image-keyboard-response,15
true,3,2,1,1,false,z,false,false,0.0-2.0-0.8-0.80-3.80,0,0,0,68,false,stim,true,2,1196.4000000953674,0,0,1,75469,task1,479284,false,false,426,image-keyboard-response,16
true,3,2,1,2,true,d,false,true,0.0-2.0-0.9-0.81-3.81,0,0,0,68,false,stim,false,0,786.2000000476837,0,0,0,75469,task1,481597,false,false,429,image-keyboard-response,17
true,3,1,1,1,true,z,false,true,0.0-2.0-0.9-0.82-3.82,0,0,0,90,false,stim,false,2,437.2000000476837,0,0,1,75469,task1,483554,false,false,432,image-keyboard-response,18
true,3,0,1,0,true,q,false,true,0.0-2.0-0.9-0.83-3.83,0,0,0,81,false,stim,false,1,505.89999985694885,0,0,2,75469,task1,485585,false,false,435,image-keyboard-response,19
true,3,2,1,1,false,z,false,false,0.0-2.0-0.9-0.84-3.84,0,0,0,68,false,stim,true,2,2793.2000000476837,0,0,1,75469,task1,489909,false,false,438,image-keyboard-response,20
true,3,0,1,0,true,q,false,true,0.0-2.0-0.9-0.85-3.85,0,0,0,81,false,stim,false,1,802.7999999523163,0,0,2,75469,task1,492231,false,false,441,image-keyboard-response,21
true,3,0,1,0,true,q,false,true,0.0-2.0-0.9-0.86-3.86,0,0,0,81,false,stim,false,1,846.6999998092651,0,0,2,75469,task1,494594,false,false,444,image-keyboard-response,22
true,3,1,1,2,false,d,true,true,0.0-2.0-0.9-0.87-3.87,0,0,0,90,false,stim,false,0,848.0,0,0,0,75469,task1,496961,false,true,447,image-keyboard-response,23
true,3,1,1,2,false,d,true,false,0.0-2.0-0.9-0.88-3.88,0,0,0,90,false,stim,false,0,676.2000000476837,0,0,0,75469,task1,499169,false,false,450,image-keyboard-response,24
true,3,2,1,1,false,z,false,true,0.0-2.0-0.9-0.89-3.89,0,0,0,68,false,stim,true,2,1024.0999999046326,0,0,1,75469,task1,501709,false,true,453,image-keyboard-response,25
true,3,0,1,0,true,q,false,true,0.0-2.0-0.10-0.90-3.90,0,0,0,81,false,stim,false,1,1233.7999999523163,0,0,2,75469,task1,504467,false,false,456,image-keyboard-response,26
true,3,1,1,1,true,z,false,true,0.0-2.0-0.10-0.91-3.91,0,0,0,90,false,stim,false,2,816.8999998569489,0,0,1,75469,task1,506804,false,false,459,image-keyboard-response,27
true,3,1,1,1,true,z,false,true,0.0-2.0-0.10-0.92-3.92,0,0,0,90,false,stim,false,2,1047.5,0,0,1,75469,task1,509372,false,false,462,image-keyboard-response,28
true,3,1,1,2,false,d,true,false,0.0-2.0-0.10-0.93-3.93,0,0,0,90,false,stim,false,0,1588.2000000476837,0,0,0,75469,task1,512478,false,false,465,image-keyboard-response,29
true,3,0,1,0,true,q,false,true,0.0-2.0-0.10-0.94-3.94,0,0,0,81,false,stim,false,1,891.0,0,0,2,75469,task1,514891,false,false,468,image-keyboard-response,30
true,3,2,1,2,true,d,false,true,0.0-2.0-0.10-0.95-3.95,0,0,0,68,false,stim,false,0,818.0,0,0,0,75469,task1,517229,false,false,471,image-keyboard-response,31
true,3,2,1,2,true,d,false,true,0.0-2.0-0.10-0.96-3.96,0,0,0,68,false,stim,false,0,713.6000001430511,0,0,0,75469,task1,519463,false,false,474,image-keyboard-response,32
true,3,0,1,1,false,z,true,false,0.0-2.0-0.10-0.97-3.97,0,0,0,81,false,stim,false,2,1045.2999999523163,0,0,1,75469,task1,522030,false,false,477,image-keyboard-response,33
true,3,0,1,0,true,q,false,false,0.0-2.0-0.10-0.98-3.98,0,0,0,81,false,stim,false,1,577.1000001430511,0,0,2,75469,task1,524132,false,true,480,image-keyboard-response,34
true,3,1,1,2,false,d,true,false,0.0-2.0-0.11-0.99-3.99,0,0,0,90,false,stim,false,0,841.7000000476837,0,0,0,75469,task1,526499,false,false,483,image-keyboard-response,35
true,3,2,1,1,false,z,false,false,0.0-2.0-0.11-0.100-3.100,0,0,0,68,false,stim,true,2,720.5,0,0,1,75469,task1,528743,false,false,486,image-keyboard-response,36
true,3,1,1,0,false,q,false,false,0.0-2.0-0.11-0.101-3.101,0,0,0,90,false,stim,true,1,974.0,0,0,2,75469,task1,531237,false,false,489,image-keyboard-response,37
true,3,2,1,2,true,d,false,true,0.0-2.0-0.11-0.102-3.102,0,0,0,68,false,stim,false,0,781.3999998569489,0,0,0,75469,task1,533535,false,false,492,image-keyboard-response,38
true,3,2,1,2,true,d,false,false,0.0-2.0-0.11-0.103-3.103,0,0,0,68,false,stim,false,0,622.9000000953674,0,0,0,75469,task1,535678,false,true,495,image-keyboard-response,39
true,3,1,1,1,true,z,false,false,0.0-2.0-0.11-0.104-3.104,0,0,0,90,false,stim,false,2,1313.4000000953674,0,0,1,75469,task1,538512,false,true,498,image-keyboard-response,40
true,4,2,1,2,true,d,false,true,0.0-2.0-0.11-0.105-3.105,0,0,0,68,true,stim,false,0,795.0,0,0,2,75469,task1,540836,false,false,501,image-keyboard-response,1
true,4,2,1,0,false,q,true,false,0.0-2.0-0.11-0.106-3.106,0,0,0,68,false,stim,false,1,1059.5999999046326,0,0,1,75469,task1,543413,false,false,504,image-keyboard-response,2
true,4,2,1,2,true,d,false,true,0.0-2.0-0.11-0.107-3.107,0,0,0,68,false,stim,false,0,708.9000000953674,0,0,2,75469,task1,545642,false,false,507,image-keyboard-response,3
true,4,2,1,2,true,d,false,true,0.0-2.0-0.12-0.108-3.108,0,0,0,68,false,stim,false,0,765.1000001430511,0,0,2,75469,task1,547938,false,false,510,image-keyboard-response,4
true,4,2,1,2,true,d,false,true,0.0-2.0-0.12-0.109-3.109,0,0,0,68,false,stim,false,0,572.8000001907349,0,0,2,75469,task1,550033,false,false,513,image-keyboard-response,5
true,4,1,1,1,true,z,false,true,0.0-2.0-0.12-0.110-3.110,0,0,0,90,false,stim,false,2,904.7000000476837,0,0,0,75469,task1,552454,false,false,516,image-keyboard-response,6
true,4,0,1,0,true,q,false,true,0.0-2.0-0.12-0.111-3.111,0,0,0,81,false,stim,false,1,921.0,0,0,1,75469,task1,554897,false,false,519,image-keyboard-response,7
true,4,1,1,1,true,z,false,true,0.0-2.0-0.12-0.112-3.112,0,0,0,90,false,stim,false,2,824.1000001430511,0,0,0,75469,task1,557242,false,false,522,image-keyboard-response,8
true,4,2,1,2,true,d,false,true,0.0-2.0-0.12-0.113-3.113,0,0,0,68,false,stim,false,0,508.19999980926514,0,0,2,75469,task1,559272,false,false,525,image-keyboard-response,9
true,4,0,1,0,true,q,false,true,0.0-2.0-0.12-0.114-3.114,0,0,0,81,false,stim,false,1,460.2999999523163,0,0,1,75469,task1,561260,false,false,528,image-keyboard-response,10
true,4,1,1,1,true,z,false,true,0.0-2.0-0.12-0.115-3.115,0,0,0,90,false,stim,false,2,479.09999990463257,0,0,0,75469,task1,563258,false,false,531,image-keyboard-response,11
true,4,0,1,0,true,q,false,true,0.0-2.0-0.12-0.116-3.116,0,0,0,81,false,stim,false,1,825.2000000476837,0,0,1,75469,task1,565610,false,false,534,image-keyboard-response,12
true,4,2,1,2,true,d,false,true,0.0-2.0-0.13-0.117-3.117,0,0,0,68,false,stim,false,0,484.40000009536743,0,0,2,75469,task1,567620,false,false,537,image-keyboard-response,13
true,4,1,1,1,true,z,false,true,0.0-2.0-0.13-0.118-3.118,0,0,0,90,false,stim,false,2,648.5999999046326,0,0,0,75469,task1,569788,false,false,540,image-keyboard-response,14
true,4,2,1,2,true,d,false,true,0.0-2.0-0.13-0.119-3.119,0,0,0,68,false,stim,false,0,685.0,0,0,2,75469,task1,572004,false,false,543,image-keyboard-response,15
true,4,0,1,1,false,z,true,false,0.0-2.0-0.13-0.120-3.120,0,0,0,81,false,stim,false,2,948.3000001907349,0,0,0,75469,task1,574474,false,false,546,image-keyboard-response,16
true,4,0,1,0,true,q,false,true,0.0-2.0-0.13-0.121-3.121,0,0,0,81,false,stim,false,1,787.5,0,0,1,75469,task1,576785,false,false,549,image-keyboard-response,17
true,4,2,1,2,true,d,false,true,0.0-2.0-0.13-0.122-3.122,0,0,0,68,false,stim,false,0,577.6000001430511,0,0,2,75469,task1,578892,false,false,552,image-keyboard-response,18
true,4,0,1,0,true,q,false,true,0.0-2.0-0.13-0.123-3.123,0,0,0,81,false,stim,false,1,646.2000000476837,0,0,1,75469,task1,581061,false,false,555,image-keyboard-response,19
true,4,0,1,0,true,q,false,true,0.0-2.0-0.13-0.124-3.124,0,0,0,81,false,stim,false,1,572.5,0,0,1,75469,task1,583162,false,false,558,image-keyboard-response,20
true,4,1,1,1,true,z,false,true,0.0-2.0-0.13-0.125-3.125,0,0,0,90,false,stim,false,2,347.40000009536743,0,0,0,75469,task1,585036,false,false,561,image-keyboard-response,21
true,4,2,1,2,true,d,false,true,0.0-2.0-0.14-0.126-3.126,0,0,0,68,false,stim,false,0,517.8000001907349,0,0,2,75469,task1,587079,false,false,564,image-keyboard-response,22
true,4,2,1,2,true,d,false,true,0.0-2.0-0.14-0.127-3.127,0,0,0,68,false,stim,false,0,615.0999999046326,0,0,2,75469,task1,589215,false,false,567,image-keyboard-response,23
true,4,1,1,1,true,z,false,true,0.0-2.0-0.14-0.128-3.128,0,0,0,90,false,stim,false,2,618.7000000476837,0,0,0,75469,task1,591364,false,false,570,image-keyboard-response,24
true,4,0,1,0,true,q,false,true,0.0-2.0-0.14-0.129-3.129,0,0,0,81,false,stim,false,1,362.59999990463257,0,0,1,75469,task1,593253,false,false,573,image-keyboard-response,25
true,4,1,1,1,true,z,false,true,0.0-2.0-0.14-0.130-3.130,0,0,0,90,false,stim,false,2,561.3999998569489,0,0,0,75469,task1,595333,false,false,576,image-keyboard-response,26
true,4,2,1,2,true,d,false,true,0.0-2.0-0.14-0.131-3.131,0,0,0,68,false,stim,false,0,703.1000001430511,0,0,2,75469,task1,597562,false,false,579,image-keyboard-response,27
true,4,1,1,0,false,q,false,false,0.0-2.0-0.14-0.132-3.132,0,0,0,90,false,stim,true,1,442.7000000476837,0,0,1,75469,task1,599527,false,false,582,image-keyboard-response,28
true,4,0,1,0,true,q,false,true,0.0-2.0-0.14-0.133-3.133,0,0,0,81,false,stim,false,1,436.2000000476837,0,0,1,75469,task1,601491,false,false,585,image-keyboard-response,29
true,4,1,1,1,true,z,false,true,0.0-2.0-0.14-0.134-3.134,0,0,0,90,false,stim,false,2,395.19999980926514,0,0,0,75469,task1,603410,false,false,588,image-keyboard-response,30
true,4,0,1,1,false,z,true,false,0.0-2.0-0.15-0.135-3.135,0,0,0,81,false,stim,false,2,1168.2999999523163,0,0,0,75469,task1,606110,false,false,591,image-keyboard-response,31
true,4,1,1,0,false,q,false,false,0.0-2.0-0.15-0.136-3.136,0,0,0,90,false,stim,true,1,971.7000000476837,0,0,1,75469,task1,608605,false,false,594,image-keyboard-response,32
true,4,2,1,2,true,d,false,true,0.0-2.0-0.15-0.137-3.137,0,0,0,68,false,stim,false,0,554.6000001430511,0,0,2,75469,task1,610688,false,false,597,image-keyboard-response,33
true,4,1,1,1,true,z,false,true,0.0-2.0-0.15-0.138-3.138,0,0,0,90,false,stim,false,2,715.9000000953674,0,0,0,75469,task1,612931,false,false,600,image-keyboard-response,34
true,4,0,1,0,true,q,false,true,0.0-2.0-0.15-0.139-3.139,0,0,0,81,false,stim,false,1,282.89999985694885,0,0,1,75469,task1,614745,false,false,603,image-keyboard-response,35
true,4,2,1,2,true,d,false,true,0.0-2.0-0.15-0.140-3.140,0,0,0,68,false,stim,false,0,583.8999998569489,0,0,2,75469,task1,616846,false,false,606,image-keyboard-response,36
true,4,0,1,0,true,q,false,true,0.0-2.0-0.15-0.141-3.141,0,0,0,81,false,stim,false,1,387.59999990463257,0,0,1,75469,task1,618756,false,false,609,image-keyboard-response,37
true,4,1,1,1,true,z,false,false,0.0-2.0-0.15-0.142-3.142,0,0,0,90,false,stim,false,2,306.7000000476837,0,0,0,75469,task1,620590,false,true,612,image-keyboard-response,38
true,4,2,1,2,true,d,false,true,0.0-2.0-0.15-0.143-3.143,0,0,0,68,false,stim,false,0,691.0999999046326,0,0,2,75469,task1,622811,false,false,615,image-keyboard-response,39
true,4,0,1,1,false,z,true,false,0.0-2.0-0.16-0.144-3.144,0,0,0,81,false,stim,false,2,936.6000001430511,0,0,0,75469,task1,625279,false,false,618,image-keyboard-response,40
true,4,0,1,0,true,q,false,false,0.0-2.0-0.16-0.145-3.145,0,0,0,81,false,stim,false,1,1014.2999999523163,0,0,1,75469,task1,627820,false,true,621,image-keyboard-response,41
true,4,2,1,0,false,q,true,false,0.0-2.0-0.16-0.146-3.146,0,0,0,68,false,stim,false,1,1567.1000001430511,0,0,1,75469,task1,630920,false,false,624,image-keyboard-response,42
true,4,2,1,2,true,d,false,true,0.0-2.0-0.16-0.147-3.147,0,0,0,68,false,stim,false,0,1311.5999999046326,0,0,2,75469,task1,633762,false,false,627,image-keyboard-response,43
true,4,0,1,1,false,z,true,false,0.0-2.0-0.16-0.148-3.148,0,0,0,81,false,stim,false,2,2656.600000143051,0,0,0,75469,task1,637939,false,false,630,image-keyboard-response,44
true,5,1,1,0,false,q,false,false,0.0-2.0-0.16-0.149-3.149,0,0,0,90,true,stim,true,1,704.5,0,0,0,75469,task1,640162,false,false,633,image-keyboard-response,1
true,5,1,1,1,true,z,false,true,0.0-2.0-0.16-0.150-3.150,0,0,0,90,false,stim,false,0,1270.8999998569489,0,0,1,75469,task1,642954,false,false,636,image-keyboard-response,2
true,5,2,1,0,false,q,false,false,0.0-2.0-0.16-0.151-3.151,0,0,0,68,false,stim,true,2,634.9000000953674,0,0,2,75469,task1,645108,false,false,639,image-keyboard-response,3
true,5,0,1,0,true,q,false,true,0.0-2.0-0.16-0.152-3.152,0,0,0,81,false,stim,false,2,500.7999999523163,0,0,2,75469,task1,647134,false,false,642,image-keyboard-response,4
true,5,0,1,0,true,q,false,true,0.0-2.0-0.17-0.153-3.153,0,0,0,81,false,stim,false,2,661.7000000476837,0,0,2,75469,task1,649317,false,false,645,image-keyboard-response,5
true,5,2,1,0,false,q,true,false,0.0-2.0-0.17-0.154-3.154,0,0,0,68,false,stim,false,1,819.0,0,0,0,75469,task1,651655,false,false,648,image-keyboard-response,6
true,5,0,1,0,true,q,false,true,0.0-2.0-0.17-0.155-3.155,0,0,0,81,false,stim,false,2,672.1000001430511,0,0,2,75469,task1,653859,false,false,651,image-keyboard-response,7
true,5,1,1,1,true,z,false,true,0.0-2.0-0.17-0.156-3.156,0,0,0,90,false,stim,false,0,1264.2000000476837,0,0,1,75469,task1,656643,false,false,654,image-keyboard-response,8
true,5,0,1,0,true,q,false,true,0.0-2.0-0.17-0.157-3.157,0,0,0,81,false,stim,false,2,642.7000000476837,0,0,2,75469,task1,658815,false,false,657,image-keyboard-response,9
true,5,1,1,1,true,z,false,false,0.0-2.0-0.17-0.158-3.158,0,0,0,90,false,stim,false,0,891.2000000476837,0,0,1,75469,task1,661234,false,true,660,image-keyboard-response,10
true,5,1,1,0,false,q,false,false,0.0-2.0-0.17-0.159-3.159,0,0,0,90,false,stim,true,1,796.0,0,0,0,75469,task1,663560,false,false,663,image-keyboard-response,11
true,5,0,1,1,false,z,false,false,0.0-2.0-0.17-0.160-3.160,0,0,0,81,false,stim,true,0,1167.7999999523163,0,0,1,75469,task1,666255,false,false,666,image-keyboard-response,12
true,5,2,1,0,false,q,true,false,0.0-2.0-0.17-0.161-3.161,0,0,0,68,false,stim,false,1,1300.5,0,0,0,75469,task1,669079,false,false,669,image-keyboard-response,13
true,5,2,1,1,false,z,true,false,0.0-2.0-0.18-0.162-3.162,0,0,0,68,false,stim,false,0,536.7000000476837,0,0,1,75469,task1,671144,false,false,672,image-keyboard-response,14
true,5,0,1,0,true,q,false,true,0.0-2.0-0.18-0.163-3.163,0,0,0,81,false,stim,false,2,604.0,0,0,2,75469,task1,673259,false,false,675,image-keyboard-response,15
true,5,0,1,1,false,z,false,false,0.0-2.0-0.18-0.164-3.164,0,0,0,81,false,stim,true,0,485.39999985694885,0,0,1,75469,task1,675272,false,false,678,image-keyboard-response,16
true,5,0,1,0,true,q,false,true,0.0-2.0-0.18-0.165-3.165,0,0,0,81,false,stim,false,2,728.2999999523163,0,0,2,75469,task1,677530,false,false,681,image-keyboard-response,17
true,5,0,1,0,true,q,false,true,0.0-2.0-0.18-0.166-3.166,0,0,0,81,false,stim,false,2,732.7000000476837,0,0,2,75469,task1,679795,false,false,684,image-keyboard-response,18
true,5,1,1,0,false,q,false,false,0.0-2.0-0.18-0.167-3.167,0,0,0,90,false,stim,true,1,431.80000019073486,0,0,0,75469,task1,681751,false,false,687,image-keyboard-response,19
true,5,2,1,0,false,q,true,false,0.0-2.0-0.18-0.168-3.168,0,0,0,68,false,stim,false,1,687.5999999046326,0,0,0,75469,task1,683972,false,false,690,image-keyboard-response,20
true,5,1,1,1,true,z,false,true,0.0-2.0-0.18-0.169-3.169,0,0,0,90,false,stim,false,0,1577.0,0,0,1,75469,task1,687082,false,false,693,image-keyboard-response,21
true,5,0,1,0,true,q,false,true,0.0-2.0-0.18-0.170-3.170,0,0,0,81,false,stim,false,1,1144.9000000953674,0,0,0,75469,task1,689745,false,false,696,image-keyboard-response,22
true,5,0,1,0,true,q,false,true,0.0-2.0-0.19-0.171-3.171,0,0,0,81,false,stim,false,2,397.10000014305115,0,0,2,75469,task1,691671,false,false,699,image-keyboard-response,23
true,5,0,1,0,true,q,false,true,0.0-2.0-0.19-0.172-3.172,0,0,0,81,false,stim,false,1,298.5,0,0,0,75469,task1,693500,false,false,702,image-keyboard-response,24
true,5,1,1,0,false,q,true,false,0.0-2.0-0.19-0.173-3.173,0,0,0,90,false,stim,false,2,348.2999999523163,0,0,2,75469,task1,695370,false,false,705,image-keyboard-response,25
true,5,1,1,1,true,z,false,true,0.0-2.0-0.19-0.174-3.174,0,0,0,90,false,stim,false,0,702.5,0,0,1,75469,task1,697604,false,false,708,image-keyboard-response,26
true,5,0,1,0,true,q,false,false,0.0-2.0-0.19-0.175-3.175,0,0,0,81,false,stim,false,1,439.5,0,0,0,75469,task1,699567,false,true,711,image-keyboard-response,27
true,5,1,1,0,false,q,false,true,0.0-2.0-0.19-0.176-3.176,0,0,0,90,false,stim,true,1,949.2000000476837,0,0,0,75469,task1,702040,false,true,714,image-keyboard-response,28
true,5,0,1,0,true,q,false,true,0.0-2.0-0.19-0.177-3.177,0,0,0,81,false,stim,false,2,408.0,0,0,2,75469,task1,703971,false,false,717,image-keyboard-response,29
true,5,1,1,1,true,z,false,true,0.0-2.0-0.19-0.178-3.178,0,0,0,90,false,stim,false,0,550.9000000953674,0,0,1,75469,task1,706046,false,false,720,image-keyboard-response,30
true,5,1,1,1,true,z,false,true,0.0-2.0-0.19-0.179-3.179,0,0,0,90,false,stim,false,0,582.0999999046326,0,0,1,75469,task1,708152,false,false,723,image-keyboard-response,31
true,5,1,1,0,false,q,false,false,0.0-2.0-0.20-0.180-3.180,0,0,0,90,false,stim,true,1,684.6000001430511,0,0,0,75469,task1,710356,false,false,726,image-keyboard-response,32
true,5,1,1,1,true,z,false,true,0.0-2.0-0.20-0.181-3.181,0,0,0,90,false,stim,false,0,862.7999999523163,0,0,1,75469,task1,712740,false,false,729,image-keyboard-response,33
true,5,0,1,0,true,q,false,true,0.0-2.0-0.20-0.182-3.182,0,0,0,81,false,stim,false,2,788.5,0,0,2,75469,task1,715054,false,false,732,image-keyboard-response,34
true,5,2,1,0,false,q,true,true,0.0-2.0-0.20-0.183-3.183,0,0,0,68,false,stim,false,1,423.89999985694885,0,0,0,75469,task1,716998,false,true,735,image-keyboard-response,35
true,5,0,1,0,true,q,false,true,0.0-2.0-0.20-0.184-3.184,0,0,0,81,false,stim,false,2,492.2000000476837,0,0,2,75469,task1,719011,false,false,738,image-keyboard-response,36
true,5,1,1,1,true,z,false,true,0.0-2.0-0.20-0.185-3.185,0,0,0,90,false,stim,false,0,708.7999999523163,0,0,1,75469,task1,721251,false,false,741,image-keyboard-response,37
true,5,1,1,1,true,z,false,true,0.0-2.0-0.20-0.186-3.186,0,0,0,90,false,stim,false,0,728.9000000953674,0,0,1,75469,task1,723500,false,false,744,image-keyboard-response,38
true,5,0,1,0,true,q,false,true,0.0-2.0-0.20-0.187-3.187,0,0,0,81,false,stim,false,2,809.4000000953674,0,0,2,75469,task1,725837,false,false,747,image-keyboard-response,39
true,5,2,1,0,false,q,true,false,0.0-2.0-0.20-0.188-3.188,0,0,0,68,false,stim,false,1,615.8000001907349,0,0,0,75469,task1,727966,false,false,750,image-keyboard-response,40
true,6,0,2,1,false,z,false,false,0.0-2.0-0.21-0.189-3.189,0,0,0,81,true,stim,true,0,665.7000000476837,0,0,0,75469,task1,730147,false,false,753,image-keyboard-response,1
true,6,1,2,1,true,z,false,true,0.0-2.0-0.21-0.190-3.190,0,0,0,90,false,stim,false,0,537.8000001907349,0,0,0,75469,task1,732221,false,false,756,image-keyboard-response,2
true,6,1,2,1,true,z,false,true,0.0-2.0-0.21-0.191-3.191,0,0,0,90,false,stim,false,0,705.7999999523163,0,0,0,75469,task1,734450,false,false,759,image-keyboard-response,3
true,6,0,2,2,false,d,false,false,0.0-2.0-0.21-0.192-3.192,0,0,0,81,false,stim,true,0,582.2000000476837,0,0,2,75469,task1,736561,false,false,762,image-keyboard-response,4
true,6,1,2,2,false,d,true,false,0.0-2.0-0.21-0.193-3.193,0,0,0,90,false,stim,false,0,741.0,0,0,2,75469,task1,738826,false,false,765,image-keyboard-response,5
true,6,0,2,0,true,q,false,true,0.0-2.0-0.21-0.194-3.194,0,0,0,81,false,stim,false,1,954.7999999523163,0,0,1,75469,task1,741311,false,false,768,image-keyboard-response,6
true,6,0,2,0,true,q,false,true,0.0-2.0-0.21-0.195-3.195,0,0,0,81,false,stim,false,1,665.7000000476837,0,0,1,75469,task1,743495,false,false,771,image-keyboard-response,7
true,6,2,2,2,true,d,false,true,0.0-2.0-0.21-0.196-3.196,0,0,0,68,false,stim,false,0,587.5,0,0,2,75469,task1,745598,false,false,774,image-keyboard-response,8
true,6,0,2,0,true,q,false,true,0.0-2.0-0.21-0.197-3.197,0,0,0,81,false,stim,false,1,755.6000001430511,0,0,1,75469,task1,747879,false,false,777,image-keyboard-response,9
true,6,2,2,2,true,d,false,true,0.0-2.0-0.22-0.198-3.198,0,0,0,68,false,stim,false,0,390.2000000476837,0,0,2,75469,task1,749801,false,false,780,image-keyboard-response,10
true,6,2,2,2,true,d,false,true,0.0-2.0-0.22-0.199-3.199,0,0,0,68,false,stim,false,0,680.2000000476837,0,0,2,75469,task1,752003,false,false,783,image-keyboard-response,11
true,6,2,2,2,true,d,false,true,0.0-2.0-0.22-0.200-3.200,0,0,0,68,false,stim,false,0,508.7999999523163,0,0,2,75469,task1,754042,false,false,786,image-keyboard-response,12
true,6,1,2,1,true,z,false,true,0.0-2.0-0.22-0.201-3.201,0,0,0,90,false,stim,false,0,629.7999999523163,0,0,0,75469,task1,756199,false,false,789,image-keyboard-response,13
true,6,1,2,1,true,z,false,true,0.0-2.0-0.22-0.202-3.202,0,0,0,90,false,stim,false,0,496.5,0,0,0,75469,task1,758216,false,false,792,image-keyboard-response,14
true,6,0,2,0,true,q,false,true,0.0-2.0-0.22-0.203-3.203,0,0,0,81,false,stim,false,1,582.1000001430511,0,0,1,75469,task1,760330,false,false,795,image-keyboard-response,15
true,6,0,2,0,true,q,false,true,0.0-2.0-0.22-0.204-3.204,0,0,0,81,false,stim,false,1,475.80000019073486,0,0,1,75469,task1,762323,false,false,798,image-keyboard-response,16
true,6,0,2,0,true,q,false,true,0.0-2.0-0.22-0.205-3.205,0,0,0,81,false,stim,false,1,402.0,0,0,1,75469,task1,764260,false,false,801,image-keyboard-response,17
true,6,1,2,1,true,z,false,false,0.0-2.0-0.22-0.206-3.206,0,0,0,90,false,stim,false,0,590.7999999523163,0,0,0,75469,task1,766382,false,true,804,image-keyboard-response,18
true,6,0,2,1,false,z,false,false,0.0-2.0-0.23-0.207-3.207,0,0,0,81,false,stim,true,0,479.60000014305115,0,0,0,75469,task1,768390,false,false,807,image-keyboard-response,19
true,6,2,2,2,true,d,false,true,0.0-2.0-0.23-0.208-3.208,0,0,0,68,false,stim,false,0,696.2000000476837,0,0,2,75469,task1,770613,false,false,810,image-keyboard-response,20
true,6,0,2,0,true,q,false,true,0.0-2.0-0.23-0.209-3.209,0,0,0,81,false,stim,false,1,531.4000000953674,0,0,1,75469,task1,772672,false,false,813,image-keyboard-response,21
true,6,0,2,0,true,q,false,true,0.0-2.0-0.23-0.210-3.210,0,0,0,81,false,stim,false,1,511.40000009536743,0,0,1,75469,task1,774701,false,false,816,image-keyboard-response,22
true,6,0,2,0,true,q,false,false,0.0-2.0-0.23-0.211-3.211,0,0,0,81,false,stim,false,1,752.2999999523163,0,0,1,75469,task1,776981,false,true,819,image-keyboard-response,23
true,6,2,2,2,true,d,false,false,0.0-2.0-0.23-0.212-3.212,0,0,0,68,false,stim,false,0,642.7000000476837,0,0,2,75469,task1,779157,false,true,822,image-keyboard-response,24
true,6,1,2,2,false,d,true,false,0.0-2.0-0.23-0.213-3.213,0,0,0,90,false,stim,false,0,606.8999998569489,0,0,2,75469,task1,781285,false,false,825,image-keyboard-response,25
true,6,2,2,1,false,z,true,false,0.0-2.0-0.23-0.214-3.214,0,0,0,68,false,stim,false,0,905.7000000476837,0,0,0,75469,task1,783714,false,false,828,image-keyboard-response,26
true,6,1,2,1,true,z,false,true,0.0-2.0-0.23-0.215-3.215,0,0,0,90,false,stim,false,0,672.5,0,0,0,75469,task1,785903,false,false,831,image-keyboard-response,27
true,6,1,2,1,true,z,false,true,0.0-2.0-0.24-0.216-3.216,0,0,0,90,false,stim,false,0,561.9000000953674,0,0,0,75469,task1,787990,false,false,834,image-keyboard-response,28
true,6,0,2,2,false,d,false,false,0.0-2.0-0.24-0.217-3.217,0,0,0,81,false,stim,true,0,563.2999999523163,0,0,2,75469,task1,790077,false,false,837,image-keyboard-response,29
true,6,1,2,1,true,z,false,true,0.0-2.0-0.24-0.218-3.218,0,0,0,90,false,stim,false,0,701.0999999046326,0,0,0,75469,task1,792301,false,false,840,image-keyboard-response,30
true,6,0,2,0,true,q,false,true,0.0-2.0-0.24-0.219-3.219,0,0,0,81,false,stim,false,1,690.2000000476837,0,0,1,75469,task1,794515,false,false,843,image-keyboard-response,31
true,6,1,2,2,false,d,true,true,0.0-2.0-0.24-0.220-3.220,0,0,0,90,false,stim,false,0,434.40000009536743,0,0,2,75469,task1,796479,false,true,846,image-keyboard-response,32
true,6,0,2,0,true,q,false,true,0.0-2.0-0.24-0.221-3.221,0,0,0,81,false,stim,false,1,502.0,0,0,1,75469,task1,798498,false,false,849,image-keyboard-response,33
true,6,1,2,1,true,z,false,true,0.0-2.0-0.24-0.222-3.222,0,0,0,90,false,stim,false,0,549.6000001430511,0,0,0,75469,task1,800579,false,false,852,image-keyboard-response,34
true,6,0,2,0,true,q,false,true,0.0-2.0-0.24-0.223-3.223,0,0,0,81,false,stim,false,1,656.7000000476837,0,0,1,75469,task1,802755,false,false,855,image-keyboard-response,35
true,6,1,2,2,false,d,true,false,0.0-2.0-0.24-0.224-3.224,0,0,0,90,false,stim,false,0,311.09999990463257,0,0,2,75469,task1,804589,false,false,858,image-keyboard-response,36
true,6,0,2,0,true,q,false,true,0.0-2.0-0.25-0.225-3.225,0,0,0,81,false,stim,false,1,782.0,0,0,1,75469,task1,806895,false,false,861,image-keyboard-response,37
true,6,0,2,2,false,d,false,false,0.0-2.0-0.25-0.226-3.226,0,0,0,81,false,stim,true,0,480.40000009536743,0,0,2,75469,task1,808896,false,false,864,image-keyboard-response,38
true,6,2,2,2,true,d,false,false,0.0-2.0-0.25-0.227-3.227,0,0,0,68,false,stim,false,0,655.1000001430511,0,0,2,75469,task1,811079,false,true,867,image-keyboard-response,39
true,6,0,2,0,true,q,false,true,0.0-2.0-0.25-0.228-3.228,0,0,0,81,false,stim,false,1,472.2999999523163,0,0,1,75469,task1,813072,false,false,870,image-keyboard-response,40
true,7,1,2,0,false,q,false,false,0.0-2.0-0.25-0.229-3.229,0,0,0,90,true,stim,true,1,559.7000000476837,0,0,0,75469,task1,815151,false,false,873,image-keyboard-response,1
true,7,0,2,1,false,z,false,false,0.0-2.0-0.25-0.230-3.230,0,0,0,81,false,stim,true,0,588.7999999523163,0,0,1,75469,task1,817266,false,false,876,image-keyboard-response,2
true,7,0,2,0,true,q,false,true,0.0-2.0-0.25-0.231-3.231,0,0,0,81,false,stim,false,1,370.7000000476837,0,0,0,75469,task1,819165,false,false,879,image-keyboard-response,3
true,7,0,2,0,true,q,false,true,0.0-2.0-0.25-0.232-3.232,0,0,0,81,false,stim,false,2,885.7000000476837,0,0,2,75469,task1,821573,false,false,882,image-keyboard-response,4
true,7,0,2,0,true,q,false,true,0.0-2.0-0.25-0.233-3.233,0,0,0,81,false,stim,false,1,771.8999998569489,0,0,0,75469,task1,823869,false,false,885,image-keyboard-response,5
true,7,0,2,0,true,q,false,false,0.0-2.0-0.26-0.234-3.234,0,0,0,81,false,stim,false,2,488.5,0,0,2,75469,task1,825890,false,true,888,image-keyboard-response,6
true,7,1,2,0,false,q,true,false,0.0-2.0-0.26-0.235-3.235,0,0,0,90,false,stim,false,2,966.2000000476837,0,0,2,75469,task1,828368,false,false,891,image-keyboard-response,7
true,7,0,2,1,false,z,false,false,0.0-2.0-0.26-0.236-3.236,0,0,0,81,false,stim,true,0,681.6000001430511,0,0,1,75469,task1,830572,false,false,894,image-keyboard-response,8
true,7,2,2,0,false,q,true,false,0.0-2.0-0.26-0.237-3.237,0,0,0,68,false,stim,false,1,626.5,0,0,0,75469,task1,832723,false,false,897,image-keyboard-response,9
true,7,1,2,0,false,q,true,false,0.0-2.0-0.26-0.238-3.238,0,0,0,90,false,stim,false,2,742.7999999523163,0,0,2,75469,task1,834986,false,false,900,image-keyboard-response,10
true,7,0,2,0,true,q,false,true,0.0-2.0-0.26-0.239-3.239,0,0,0,81,false,stim,false,1,1075.1000001430511,0,0,0,75469,task1,837592,false,false,903,image-keyboard-response,11
true,7,2,2,1,false,z,true,true,0.0-2.0-0.26-0.240-3.240,0,0,0,68,false,stim,false,0,1083.3999998569489,0,0,1,75469,task1,840201,false,true,906,image-keyboard-response,12
true,7,0,2,0,true,q,false,true,0.0-2.0-0.26-0.241-3.241,0,0,0,81,false,stim,false,1,868.2000000476837,0,0,0,75469,task1,842592,false,false,909,image-keyboard-response,13
true,7,2,2,1,false,z,true,false,0.0-2.0-0.26-0.242-3.242,0,0,0,68,false,stim,false,0,613.3999998569489,0,0,1,75469,task1,844725,false,false,912,image-keyboard-response,14
true,7,0,2,0,true,q,false,true,0.0-2.0-0.27-0.243-3.243,0,0,0,81,false,stim,false,1,778.3000001907349,0,0,0,75469,task1,847027,false,false,915,image-keyboard-response,15
true,7,0,2,1,false,z,false,false,0.0-2.0-0.27-0.244-3.244,0,0,0,81,false,stim,true,0,531.2000000476837,0,0,1,75469,task1,849071,false,false,918,image-keyboard-response,16
true,7,0,2,1,false,z,false,true,0.0-2.0-0.27-0.245-3.245,0,0,0,81,false,stim,true,0,565.3999998569489,0,0,1,75469,task1,851155,false,true,921,image-keyboard-response,17
true,7,0,2,0,true,q,false,false,0.0-2.0-0.27-0.246-3.246,0,0,0,81,false,stim,false,1,727.7999999523163,0,0,0,75469,task1,853404,false,true,924,image-keyboard-response,18
true,7,1,2,0,false,q,true,false,0.0-2.0-0.27-0.247-3.247,0,0,0,90,false,stim,false,2,706.5999999046326,0,0,2,75469,task1,855641,false,false,927,image-keyboard-response,19
true,7,2,2,0,false,q,false,false,0.0-2.0-0.27-0.248-3.248,0,0,0,68,false,stim,true,2,861.5,0,0,2,75469,task1,858015,false,false,930,image-keyboard-response,20
true,7,0,2,1,false,z,false,false,0.0-2.0-0.27-0.249-3.249,0,0,0,81,false,stim,true,0,640.3999998569489,0,0,1,75469,task1,860169,false,false,933,image-keyboard-response,21
true,7,0,2,0,true,q,false,false,0.0-2.0-0.27-0.250-3.250,0,0,0,81,false,stim,false,2,882.2000000476837,0,0,2,75469,task1,862573,false,true,936,image-keyboard-response,22
true,7,0,2,0,true,q,false,true,0.0-2.0-0.27-0.251-3.251,0,0,0,81,false,stim,false,1,733.0,0,0,0,75469,task1,864820,false,false,939,image-keyboard-response,23
true,7,0,2,0,true,q,false,true,0.0-2.0-0.28-0.252-3.252,0,0,0,81,false,stim,false,1,733.5,0,0,0,75469,task1,867074,false,false,942,image-keyboard-response,24
true,7,0,2,0,true,q,false,true,0.0-2.0-0.28-0.253-3.253,0,0,0,81,false,stim,false,1,487.09999990463257,0,0,0,75469,task1,869083,false,false,945,image-keyboard-response,25
true,7,0,2,0,true,q,false,true,0.0-2.0-0.28-0.254-3.254,0,0,0,81,false,stim,false,1,810.1000001430511,0,0,0,75469,task1,871418,false,false,948,image-keyboard-response,26
true,7,1,2,1,true,z,false,true,0.0-2.0-0.28-0.255-3.255,0,0,0,90,false,stim,false,0,788.4000000953674,0,0,1,75469,task1,873718,false,false,951,image-keyboard-response,27
true,7,1,2,0,false,q,true,false,0.0-2.0-0.28-0.256-3.256,0,0,0,90,false,stim,false,2,1121.6000001430511,0,0,2,75469,task1,876371,false,false,954,image-keyboard-response,28
true,7,1,2,1,true,z,false,false,0.0-2.0-0.28-0.257-3.257,0,0,0,90,false,stim,false,0,807.3999998569489,0,0,1,75469,task1,878701,false,true,957,image-keyboard-response,29
true,7,1,2,0,false,q,true,true,0.0-2.0-0.28-0.258-3.258,0,0,0,90,false,stim,false,2,845.6000001430511,0,0,2,75469,task1,881077,false,true,960,image-keyboard-response,30
true,7,0,2,1,false,z,false,false,0.0-2.0-0.28-0.259-3.259,0,0,0,81,false,stim,true,0,461.59999990463257,0,0,1,75469,task1,883057,false,false,963,image-keyboard-response,31
true,7,1,2,0,false,q,true,false,0.0-2.0-0.28-0.260-3.260,0,0,0,90,false,stim,false,2,446.2000000476837,0,0,2,75469,task1,885018,false,false,966,image-keyboard-response,32
true,7,0,2,0,true,q,false,true,0.0-2.0-0.29-0.261-3.261,0,0,0,81,false,stim,false,1,779.6999998092651,0,0,0,75469,task1,887326,false,false,969,image-keyboard-response,33
true,7,2,2,0,false,q,false,false,0.0-2.0-0.29-0.262-3.262,0,0,0,68,false,stim,true,2,846.1999998092651,0,0,2,75469,task1,889697,false,false,972,image-keyboard-response,34
true,7,2,2,1,false,z,true,false,0.0-2.0-0.29-0.263-3.263,0,0,0,68,false,stim,false,0,780.5,0,0,1,75469,task1,891994,false,false,975,image-keyboard-response,35
true,7,0,2,1,false,z,false,false,0.0-2.0-0.29-0.264-3.264,0,0,0,81,false,stim,true,0,728.7999999523163,0,0,1,75469,task1,894249,false,false,978,image-keyboard-response,36
true,7,1,2,1,true,z,false,true,0.0-2.0-0.29-0.265-3.265,0,0,0,90,false,stim,false,0,688.3999998569489,0,0,1,75469,task1,896466,false,false,981,image-keyboard-response,37
true,7,1,2,0,false,q,true,false,0.0-2.0-0.29-0.266-3.266,0,0,0,90,false,stim,false,2,651.7999999523163,0,0,2,75469,task1,898651,false,false,984,image-keyboard-response,38
true,7,0,2,0,true,q,false,false,0.0-2.0-0.29-0.267-3.267,0,0,0,81,false,stim,false,1,867.6999998092651,0,0,0,75469,task1,901049,false,true,987,image-keyboard-response,39
true,7,0,2,0,true,q,false,true,0.0-2.0-0.29-0.268-3.268,0,0,0,81,false,stim,false,2,1040.7000000476837,0,0,2,75469,task1,903622,false,false,990,image-keyboard-response,40
true,7,0,2,0,true,q,false,true,0.0-2.0-0.29-0.269-3.269,0,0,0,81,false,stim,false,1,583.9000000953674,0,0,0,75469,task1,905731,false,false,993,image-keyboard-response,41
true,7,0,2,0,true,q,false,true,0.0-2.0-0.30-0.270-3.270,0,0,0,81,false,stim,false,1,626.2999999523163,0,0,0,75469,task1,907878,false,false,996,image-keyboard-response,42
true,7,0,2,0,true,q,false,true,0.0-2.0-0.30-0.271-3.271,0,0,0,81,false,stim,false,1,512.7999999523163,0,0,0,75469,task1,909908,false,false,999,image-keyboard-response,43
true,7,0,2,0,true,q,false,true,0.0-2.0-0.30-0.272-3.272,0,0,0,81,false,stim,false,2,629.7999999523163,0,0,2,75469,task1,912061,false,false,1002,image-keyboard-response,44
true,8,0,2,2,false,d,false,false,0.0-2.0-0.30-0.273-3.273,0,0,0,81,true,stim,true,0,551.5,0,0,2,75469,task1,914131,false,false,1005,image-keyboard-response,1
true,8,1,2,2,false,d,true,false,0.0-2.0-0.30-0.274-3.274,0,0,0,90,false,stim,false,0,442.39999985694885,0,0,2,75469,task1,916096,false,false,1008,image-keyboard-response,2
true,8,0,2,0,true,q,false,false,0.0-2.0-0.30-0.275-3.275,0,0,0,81,false,stim,false,1,355.7000000476837,0,0,1,75469,task1,917973,false,true,1011,image-keyboard-response,3
true,8,2,2,0,false,q,true,false,0.0-2.0-0.30-0.276-3.276,0,0,0,68,false,stim,false,1,669.0999999046326,0,0,1,75469,task1,920171,false,false,1014,image-keyboard-response,4
true,8,0,2,0,true,q,false,true,0.0-2.0-0.30-0.277-3.277,0,0,0,81,false,stim,false,1,501.60000014305115,0,0,1,75469,task1,922199,false,false,1017,image-keyboard-response,5
true,8,1,2,1,true,z,false,true,0.0-2.0-0.30-0.278-3.278,0,0,0,90,false,stim,false,0,1250.9000000953674,0,0,0,75469,task1,924976,false,false,1020,image-keyboard-response,6
true,8,0,2,2,false,d,false,true,0.0-2.0-0.31-0.279-3.279,0,0,0,81,false,stim,true,0,758.2999999523163,0,0,2,75469,task1,927256,false,true,1023,image-keyboard-response,7
true,8,0,2,1,false,z,false,false,0.0-2.0-0.31-0.280-3.280,0,0,0,81,false,stim,true,0,567.4000000953674,0,0,0,75469,task1,929351,false,false,1026,image-keyboard-response,8
true,8,1,2,2,false,d,true,false,0.0-2.0-0.31-0.281-3.281,0,0,0,90,false,stim,false,0,511.7000000476837,0,0,2,75469,task1,931393,false,false,1029,image-keyboard-response,9
true,8,0,2,2,false,d,false,false,0.0-2.0-0.31-0.282-3.282,0,0,0,81,false,stim,true,0,862.3999998569489,0,0,2,75469,task1,933786,false,false,1032,image-keyboard-response,10
true,8,0,2,0,true,q,false,true,0.0-2.0-0.31-0.283-3.283,0,0,0,81,false,stim,false,1,702.5,0,0,1,75469,task1,936005,false,false,1035,image-keyboard-response,11
true,8,0,2,0,true,q,false,false,0.0-2.0-0.31-0.284-3.284,0,0,0,81,false,stim,false,1,469.09999990463257,0,0,1,75469,task1,938000,false,true,1038,image-keyboard-response,12
true,8,1,2,1,true,z,false,true,0.0-2.0-0.31-0.285-3.285,0,0,0,90,false,stim,false,0,1103.0,0,0,0,75469,task1,940624,false,false,1041,image-keyboard-response,13
true,8,1,2,1,true,z,false,true,0.0-2.0-0.31-0.286-3.286,0,0,0,90,false,stim,false,0,821.0999999046326,0,0,0,75469,task1,942976,false,false,1044,image-keyboard-response,14
true,8,0,2,0,true,q,false,true,0.0-2.0-0.31-0.287-3.287,0,0,0,81,false,stim,false,1,606.6000001430511,0,0,1,75469,task1,945113,false,false,1047,image-keyboard-response,15
true,8,0,2,0,true,q,false,true,0.0-2.0-0.32-0.288-3.288,0,0,0,81,false,stim,false,1,597.6000001430511,0,0,1,75469,task1,947229,false,false,1050,image-keyboard-response,16
true,8,0,2,0,true,q,false,true,0.0-2.0-0.32-0.289-3.289,0,0,0,81,false,stim,false,1,453.5,0,0,1,75469,task1,949205,false,false,1053,image-keyboard-response,17
true,8,1,2,1,true,z,false,true,0.0-2.0-0.32-0.290-3.290,0,0,0,90,false,stim,false,0,489.59999990463257,0,0,0,75469,task1,951220,false,false,1056,image-keyboard-response,18
true,8,2,2,2,true,d,false,true,0.0-2.0-0.32-0.291-3.291,0,0,0,68,false,stim,false,0,1027.4000000953674,0,0,2,75469,task1,953766,false,false,1059,image-keyboard-response,19
true,8,0,2,0,true,q,false,true,0.0-2.0-0.32-0.292-3.292,0,0,0,81,false,stim,false,1,1186.6999998092651,0,0,1,75469,task1,956476,false,false,1062,image-keyboard-response,20
true,8,2,2,2,true,d,false,true,0.0-2.0-0.32-0.293-3.293,0,0,0,68,false,stim,false,0,705.7999999523163,0,0,2,75469,task1,958700,false,false,1065,image-keyboard-response,21
true,8,2,2,2,true,d,false,true,0.0-2.0-0.32-0.294-3.294,0,0,0,68,false,stim,false,0,622.0,0,0,2,75469,task1,960854,false,false,1068,image-keyboard-response,22
true,8,1,2,1,true,z,false,false,0.0-2.0-0.32-0.295-3.295,0,0,0,90,false,stim,false,0,537.2999999523163,0,0,0,75469,task1,962916,false,true,1071,image-keyboard-response,23
true,8,2,2,1,false,z,true,false,0.0-2.0-0.32-0.296-3.296,0,0,0,68,false,stim,false,0,553.7000000476837,0,0,0,75469,task1,964993,false,false,1074,image-keyboard-response,24
true,8,1,2,1,true,z,false,true,0.0-2.0-0.33-0.297-3.297,0,0,0,90,false,stim,false,0,532.7000000476837,0,0,0,75469,task1,967059,false,false,1077,image-keyboard-response,25
true,8,0,2,0,true,q,false,true,0.0-2.0-0.33-0.298-3.298,0,0,0,81,false,stim,false,1,598.2999999523163,0,0,1,75469,task1,969189,false,false,1080,image-keyboard-response,26
true,8,2,2,2,true,d,false,false,0.0-2.0-0.33-0.299-3.299,0,0,0,68,false,stim,false,0,620.0999999046326,0,0,2,75469,task1,971326,false,true,1083,image-keyboard-response,27
true,8,2,2,2,true,d,false,true,0.0-2.0-0.33-0.300-3.300,0,0,0,68,false,stim,false,0,515.7999999523163,0,0,2,75469,task1,973355,false,false,1086,image-keyboard-response,28
true,8,0,2,0,true,q,false,true,0.0-2.0-0.33-0.301-3.301,0,0,0,81,false,stim,false,1,768.0999999046326,0,0,1,75469,task1,975649,false,false,1089,image-keyboard-response,29
true,8,0,2,0,true,q,false,true,0.0-2.0-0.33-0.302-3.302,0,0,0,81,false,stim,false,1,643.1000001430511,0,0,1,75469,task1,977822,false,false,1092,image-keyboard-response,30
true,8,2,2,2,true,d,false,true,0.0-2.0-0.33-0.303-3.303,0,0,0,68,false,stim,false,0,598.2999999523163,0,0,2,75469,task1,979951,false,false,1095,image-keyboard-response,31
true,8,0,2,1,false,z,false,false,0.0-2.0-0.33-0.304-3.304,0,0,0,81,false,stim,true,0,580.7999999523163,0,0,0,75469,task1,982053,false,false,1098,image-keyboard-response,32
true,8,0,2,1,false,z,false,false,0.0-2.0-0.33-0.305-3.305,0,0,0,81,false,stim,true,0,438.0,0,0,0,75469,task1,984021,false,false,1101,image-keyboard-response,33
true,8,0,2,0,true,q,false,true,0.0-2.0-0.34-0.306-3.306,0,0,0,81,false,stim,false,1,1120.5999999046326,0,0,1,75469,task1,986673,false,false,1104,image-keyboard-response,34
true,8,2,2,2,true,d,false,true,0.0-2.0-0.34-0.307-3.307,0,0,0,68,false,stim,false,0,787.0999999046326,0,0,2,75469,task1,988979,false,false,1107,image-keyboard-response,35
true,8,1,2,0,false,q,false,false,0.0-2.0-0.34-0.308-3.308,0,0,0,90,false,stim,true,1,404.5,0,0,1,75469,task1,990901,false,false,1110,image-keyboard-response,36
true,8,2,2,2,true,d,false,false,0.0-2.0-0.34-0.309-3.309,0,0,0,68,false,stim,false,0,672.0,0,0,2,75469,task1,993086,false,true,1113,image-keyboard-response,37
true,8,2,2,2,true,d,false,true,0.0-2.0-0.34-0.310-3.310,0,0,0,68,false,stim,false,0,751.9000000953674,0,0,2,75469,task1,995361,false,false,1116,image-keyboard-response,38
true,8,1,2,1,true,z,false,true,0.0-2.0-0.34-0.311-3.311,0,0,0,90,false,stim,false,0,884.2999999523163,0,0,0,75469,task1,997777,false,false,1119,image-keyboard-response,39
true,8,1,2,1,true,z,false,true,0.0-2.0-0.34-0.312-3.312,0,0,0,90,false,stim,false,0,470.7000000476837,0,0,0,75469,task1,999770,false,false,1122,image-keyboard-response,40
true,8,0,2,0,true,q,false,true,0.0-2.0-0.34-0.313-3.313,0,0,0,81,false,stim,false,1,481.2000000476837,0,0,1,75469,task1,1001774,false,false,1125,image-keyboard-response,41
true,8,1,2,1,true,z,false,true,0.0-2.0-0.34-0.314-3.314,0,0,0,90,false,stim,false,0,514.0999999046326,0,0,0,75469,task1,1003813,false,false,1128,image-keyboard-response,42
true,8,2,2,2,true,d,false,false,0.0-2.0-0.35-0.315-3.315,0,0,0,68,false,stim,false,0,562.2000000476837,0,0,2,75469,task1,1005902,false,true,1131,image-keyboard-response,43
true,8,0,2,0,true,q,false,true,0.0-2.0-0.35-0.316-3.316,0,0,0,81,false,stim,false,1,932.8999998569489,0,0,1,75469,task1,1008366,false,false,1134,image-keyboard-response,44
true,8,0,2,0,true,q,false,true,0.0-2.0-0.35-0.317-3.317,0,0,0,81,false,stim,false,1,531.4000000953674,0,0,1,75469,task1,1010420,false,false,1137,image-keyboard-response,45
true,9,2,2,0,false,q,false,false,0.0-2.0-0.35-0.318-3.318,0,0,0,68,true,stim,true,2,578.8000001907349,0,0,2,75469,task1,1012520,false,false,1140,image-keyboard-response,1
true,9,1,2,0,false,q,false,true,0.0-2.0-0.35-0.319-3.319,0,0,0,90,false,stim,true,1,864.3999998569489,0,0,0,75469,task1,1014906,false,true,1143,image-keyboard-response,2
true,9,1,2,0,false,q,false,false,0.0-2.0-0.35-0.320-3.320,0,0,0,90,false,stim,true,1,680.2000000476837,0,0,0,75469,task1,1017104,false,false,1146,image-keyboard-response,3
true,9,1,2,0,false,q,false,false,0.0-2.0-0.35-0.321-3.321,0,0,0,90,false,stim,true,1,1046.6999998092651,0,0,0,75469,task1,1019677,false,false,1149,image-keyboard-response,4
true,9,0,2,1,false,z,false,false,0.0-2.0-0.35-0.322-3.322,0,0,0,81,false,stim,true,0,585.2999999523163,0,0,1,75469,task1,1021787,false,false,1152,image-keyboard-response,5
true,9,2,2,0,false,q,false,false,0.0-2.0-0.35-0.323-3.323,0,0,0,68,false,stim,true,2,651.0,0,0,2,75469,task1,1023964,false,false,1155,image-keyboard-response,6
true,9,2,2,1,false,z,true,false,0.0-2.0-0.36-0.324-3.324,0,0,0,68,false,stim,false,0,1100.0,0,0,1,75469,task1,1026591,false,false,1158,image-keyboard-response,7
true,9,1,2,1,true,z,false,true,0.0-2.0-0.36-0.325-3.325,0,0,0,90,false,stim,false,0,870.1000001430511,0,0,1,75469,task1,1028990,false,false,1161,image-keyboard-response,8
true,9,0,2,0,true,q,false,true,0.0-2.0-0.36-0.326-3.326,0,0,0,81,false,stim,false,2,776.6000001430511,0,0,2,75469,task1,1031298,false,false,1164,image-keyboard-response,9
true,9,2,2,0,false,q,true,false,0.0-2.0-0.36-0.327-3.327,0,0,0,68,false,stim,false,1,967.5,0,0,0,75469,task1,1033782,false,false,1167,image-keyboard-response,10
true,9,1,2,0,false,q,false,false,0.0-2.0-0.36-0.328-3.328,0,0,0,90,false,stim,true,1,583.6999998092651,0,0,0,75469,task1,1035892,false,false,1170,image-keyboard-response,11
true,9,0,2,0,true,q,false,true,0.0-2.0-0.36-0.329-3.329,0,0,0,81,false,stim,false,2,806.5,0,0,2,75469,task1,1038227,false,false,1173,image-keyboard-response,12
true,9,0,2,0,true,q,false,true,0.0-2.0-0.36-0.330-3.330,0,0,0,81,false,stim,false,2,527.4000000953674,0,0,2,75469,task1,1040287,false,false,1176,image-keyboard-response,13
true,9,2,2,1,false,z,true,false,0.0-2.0-0.36-0.331-3.331,0,0,0,68,false,stim,false,0,1727.0,0,0,1,75469,task1,1043544,false,false,1179,image-keyboard-response,14
true,9,0,2,0,true,q,false,true,0.0-2.0-0.36-0.332-3.332,0,0,0,81,false,stim,false,1,1138.5999999046326,0,0,0,75469,task1,1046212,false,false,1182,image-keyboard-response,15
true,9,1,2,1,true,z,false,true,0.0-2.0-0.37-0.333-3.333,0,0,0,90,false,stim,false,0,711.7999999523163,0,0,1,75469,task1,1048448,false,false,1185,image-keyboard-response,16
true,9,1,2,1,true,z,false,true,0.0-2.0-0.37-0.334-3.334,0,0,0,90,false,stim,false,0,770.0999999046326,0,0,1,75469,task1,1050749,false,false,1188,image-keyboard-response,17
true,9,0,2,0,true,q,false,true,0.0-2.0-0.37-0.335-3.335,0,0,0,81,false,stim,false,1,892.2000000476837,0,0,0,75469,task1,1053169,false,false,1191,image-keyboard-response,18
true,9,0,2,0,true,q,false,true,0.0-2.0-0.37-0.336-3.336,0,0,0,81,false,stim,false,2,452.0,0,0,2,75469,task1,1055150,false,false,1194,image-keyboard-response,19
true,9,0,2,0,true,q,false,true,0.0-2.0-0.37-0.337-3.337,0,0,0,81,false,stim,false,1,673.0999999046326,0,0,0,75469,task1,1057357,false,false,1197,image-keyboard-response,20
true,9,0,2,0,true,q,false,true,0.0-2.0-0.37-0.338-3.338,0,0,0,81,false,stim,false,2,673.2999999523163,0,0,2,75469,task1,1059552,false,false,1200,image-keyboard-response,21
true,9,0,2,0,true,q,false,true,0.0-2.0-0.37-0.339-3.339,0,0,0,81,false,stim,false,1,396.89999985694885,0,0,0,75469,task1,1061487,false,false,1203,image-keyboard-response,22
true,9,0,2,0,true,q,false,true,0.0-2.0-0.37-0.340-3.340,0,0,0,81,false,stim,false,2,553.7999999523163,0,0,2,75469,task1,1063570,false,false,1206,image-keyboard-response,23
true,9,0,2,1,false,z,false,false,0.0-2.0-0.37-0.341-3.341,0,0,0,81,false,stim,true,0,779.5,0,0,1,75469,task1,1065880,false,false,1209,image-keyboard-response,24
true,9,1,2,1,true,z,false,true,0.0-2.0-0.38-0.342-3.342,0,0,0,90,false,stim,false,0,353.2999999523163,0,0,1,75469,task1,1067750,false,false,1212,image-keyboard-response,25
true,9,0,2,0,true,q,false,true,0.0-2.0-0.38-0.343-3.343,0,0,0,81,false,stim,false,1,303.7999999523163,0,0,0,75469,task1,1069577,false,false,1215,image-keyboard-response,26
true,9,0,2,0,true,q,false,true,0.0-2.0-0.38-0.344-3.344,0,0,0,81,false,stim,false,1,449.7000000476837,0,0,0,75469,task1,1071547,false,false,1218,image-keyboard-response,27
true,9,1,2,1,true,z,false,true,0.0-2.0-0.38-0.345-3.345,0,0,0,90,false,stim,false,0,715.5,0,0,1,75469,task1,1073783,false,false,1221,image-keyboard-response,28
true,9,0,2,0,true,q,false,true,0.0-2.0-0.38-0.346-3.346,0,0,0,81,false,stim,false,2,623.5999999046326,0,0,2,75469,task1,1075933,false,false,1224,image-keyboard-response,29
true,9,0,2,0,true,q,false,true,0.0-2.0-0.38-0.347-3.347,0,0,0,81,false,stim,false,1,1002.9000000953674,0,0,0,75469,task1,1078459,false,false,1227,image-keyboard-response,30
true,9,0,2,0,true,q,false,true,0.0-2.0-0.38-0.348-3.348,0,0,0,81,false,stim,false,2,752.2999999523163,0,0,2,75469,task1,1080730,false,false,1230,image-keyboard-response,31
true,9,1,2,1,true,z,false,true,0.0-2.0-0.38-0.349-3.349,0,0,0,90,false,stim,false,0,892.0,0,0,1,75469,task1,1083148,false,false,1233,image-keyboard-response,32
true,9,0,2,0,true,q,false,true,0.0-2.0-0.38-0.350-3.350,0,0,0,81,false,stim,false,2,592.0999999046326,0,0,2,75469,task1,1085272,false,false,1236,image-keyboard-response,33
true,9,0,2,0,true,q,false,true,0.0-2.0-0.39-0.351-3.351,0,0,0,81,false,stim,false,2,626.0,0,0,2,75469,task1,1087419,false,false,1239,image-keyboard-response,34
true,9,0,2,0,true,q,false,true,0.0-2.0-0.39-0.352-3.352,0,0,0,81,false,stim,false,1,600.0999999046326,0,0,0,75469,task1,1089541,false,false,1242,image-keyboard-response,35
true,9,0,2,0,true,q,false,true,0.0-2.0-0.39-0.353-3.353,0,0,0,81,false,stim,false,2,534.2000000476837,0,0,2,75469,task1,1091592,false,false,1245,image-keyboard-response,36
true,9,1,2,1,true,z,false,true,0.0-2.0-0.39-0.354-3.354,0,0,0,90,false,stim,false,0,431.7999999523163,0,0,1,75469,task1,1093545,false,false,1248,image-keyboard-response,37
true,9,0,2,0,true,q,false,false,0.0-2.0-0.39-0.355-3.355,0,0,0,81,false,stim,false,1,646.8999998569489,0,0,0,75469,task1,1095715,false,true,1251,image-keyboard-response,38
true,9,1,2,1,true,z,false,true,0.0-2.0-0.39-0.356-3.356,0,0,0,90,false,stim,false,0,486.59999990463257,0,0,1,75469,task1,1097730,false,false,1254,image-keyboard-response,39
true,9,1,2,1,true,z,false,true,0.0-2.0-0.39-0.357-3.357,0,0,0,90,false,stim,false,0,567.3000001907349,0,0,1,75469,task1,1099825,false,false,1257,image-keyboard-response,40
true,9,2,2,0,false,q,false,false,0.0-2.0-0.39-0.358-3.358,0,0,0,68,false,stim,true,2,792.2999999523163,0,0,2,75469,task1,1102141,false,false,1260,image-keyboard-response,41
true,9,2,2,0,false,q,true,false,0.0-2.0-0.39-0.359-3.359,0,0,0,68,false,stim,false,1,1148.5,0,0,0,75469,task1,1104818,false,false,1263,image-keyboard-response,42
true,10,0,2,2,false,d,false,false,0.0-2.0-0.40-0.360-3.360,0,0,0,81,true,stim,true,0,947.0,0,0,2,75469,task1,1107294,false,false,1266,image-keyboard-response,1
true,10,1,2,1,true,z,false,true,0.0-2.0-0.40-0.361-3.361,0,0,0,90,false,stim,false,0,684.0,0,0,0,75469,task1,1109507,false,false,1269,image-keyboard-response,2
true,10,1,2,2,false,d,true,false,0.0-2.0-0.40-0.362-3.362,0,0,0,90,false,stim,false,0,407.90000009536743,0,0,2,75469,task1,1111434,false,false,1272,image-keyboard-response,3
true,10,1,2,0,false,q,false,false,0.0-2.0-0.40-0.363-3.363,0,0,0,90,false,stim,true,1,407.09999990463257,0,0,1,75469,task1,1113363,false,false,1275,image-keyboard-response,4
true,10,0,2,0,true,q,false,true,0.0-2.0-0.40-0.364-3.364,0,0,0,81,false,stim,false,1,384.5,0,0,1,75469,task1,1115266,false,false,1278,image-keyboard-response,5
true,10,1,2,1,true,z,false,true,0.0-2.0-0.40-0.365-3.365,0,0,0,90,false,stim,false,0,336.7000000476837,0,0,0,75469,task1,1117136,false,false,1281,image-keyboard-response,6
true,10,0,2,0,true,q,false,true,0.0-2.0-0.40-0.366-3.366,0,0,0,81,false,stim,false,1,571.8000001907349,0,0,1,75469,task1,1119237,false,false,1284,image-keyboard-response,7
true,10,1,2,1,true,z,false,true,0.0-2.0-0.40-0.367-3.367,0,0,0,90,false,stim,false,0,458.7000000476837,0,0,0,75469,task1,1121225,false,false,1287,image-keyboard-response,8
true,10,2,2,2,true,d,false,true,0.0-2.0-0.40-0.368-3.368,0,0,0,68,false,stim,false,0,421.2000000476837,0,0,2,75469,task1,1123178,false,false,1290,image-keyboard-response,9
true,10,1,2,1,true,z,false,true,0.0-2.0-0.41-0.369-3.369,0,0,0,90,false,stim,false,0,2159.100000143051,0,0,0,75469,task1,1126864,false,false,1293,image-keyboard-response,10
true,10,0,2,0,true,q,false,true,0.0-2.0-0.41-0.370-3.370,0,0,0,81,false,stim,false,1,300.39999985694885,0,0,1,75469,task1,1128694,false,false,1296,image-keyboard-response,11
true,10,0,2,0,true,q,false,true,0.0-2.0-0.41-0.371-3.371,0,0,0,81,false,stim,false,1,707.5,0,0,1,75469,task1,1130928,false,false,1299,image-keyboard-response,12
true,10,2,2,2,true,d,false,true,0.0-2.0-0.41-0.372-3.372,0,0,0,68,false,stim,false,0,743.4000000953674,0,0,2,75469,task1,1133193,false,false,1302,image-keyboard-response,13
true,10,2,2,2,true,d,false,true,0.0-2.0-0.41-0.373-3.373,0,0,0,68,false,stim,false,0,587.2999999523163,0,0,2,75469,task1,1135300,false,false,1305,image-keyboard-response,14
true,10,1,2,1,true,z,false,true,0.0-2.0-0.41-0.374-3.374,0,0,0,90,false,stim,false,0,916.2000000476837,0,0,0,75469,task1,1137747,false,false,1308,image-keyboard-response,15
true,10,2,2,2,true,d,false,true,0.0-2.0-0.41-0.375-3.375,0,0,0,68,false,stim,false,0,608.0999999046326,0,0,2,75469,task1,1139880,false,false,1311,image-keyboard-response,16
true,10,0,2,0,true,q,false,true,0.0-2.0-0.41-0.376-3.376,0,0,0,81,false,stim,false,1,353.0,0,0,1,75469,task1,1141756,false,false,1314,image-keyboard-response,17
true,10,1,2,1,true,z,false,true,0.0-2.0-0.41-0.377-3.377,0,0,0,90,false,stim,false,0,478.7999999523163,0,0,0,75469,task1,1143764,false,false,1317,image-keyboard-response,18
true,10,0,2,0,true,q,false,true,0.0-2.0-0.42-0.378-3.378,0,0,0,81,false,stim,false,1,1369.7000000476837,0,0,1,75469,task1,1146668,false,false,1320,image-keyboard-response,19
true,10,2,2,2,true,d,false,true,0.0-2.0-0.42-0.379-3.379,0,0,0,68,false,stim,false,0,582.7000000476837,0,0,2,75469,task1,1148773,false,false,1323,image-keyboard-response,20
true,10,1,2,1,true,z,false,true,0.0-2.0-0.42-0.380-3.380,0,0,0,90,false,stim,false,0,359.90000009536743,0,0,0,75469,task1,1150655,false,false,1326,image-keyboard-response,21
true,10,1,2,1,true,z,false,true,0.0-2.0-0.42-0.381-3.381,0,0,0,90,false,stim,false,0,589.7000000476837,0,0,0,75469,task1,1152767,false,false,1329,image-keyboard-response,22
true,10,0,2,0,true,q,false,true,0.0-2.0-0.42-0.382-3.382,0,0,0,81,false,stim,false,1,570.7999999523163,0,0,1,75469,task1,1154865,false,false,1332,image-keyboard-response,23
true,10,2,2,2,true,d,false,true,0.0-2.0-0.42-0.383-3.383,0,0,0,68,false,stim,false,0,506.7000000476837,0,0,2,75469,task1,1156900,false,false,1335,image-keyboard-response,24
true,10,1,2,1,true,z,false,true,0.0-2.0-0.42-0.384-3.384,0,0,0,90,false,stim,false,0,412.89999985694885,0,0,0,75469,task1,1158835,false,false,1338,image-keyboard-response,25
true,10,2,2,2,true,d,false,true,0.0-2.0-0.42-0.385-3.385,0,0,0,68,false,stim,false,0,494.5,0,0,2,75469,task1,1160860,false,false,1341,image-keyboard-response,26
true,10,0,2,0,true,q,false,true,0.0-2.0-0.42-0.386-3.386,0,0,0,81,false,stim,false,1,979.9000000953674,0,0,1,75469,task1,1163370,false,false,1344,image-keyboard-response,27
true,10,2,2,2,true,d,false,true,0.0-2.0-0.43-0.387-3.387,0,0,0,68,false,stim,false,0,512.2000000476837,0,0,2,75469,task1,1165411,false,false,1347,image-keyboard-response,28
true,10,0,2,0,true,q,false,true,0.0-2.0-0.43-0.388-3.388,0,0,0,81,false,stim,false,1,1029.7000000476837,0,0,1,75469,task1,1167966,false,false,1350,image-keyboard-response,29
true,10,0,2,0,true,q,false,true,0.0-2.0-0.43-0.389-3.389,0,0,0,81,false,stim,false,1,693.6000001430511,0,0,1,75469,task1,1170177,false,false,1353,image-keyboard-response,30
true,10,1,2,1,true,z,false,true,0.0-2.0-0.43-0.390-3.390,0,0,0,90,false,stim,false,0,588.7999999523163,0,0,0,75469,task1,1172283,false,false,1356,image-keyboard-response,31
true,10,0,2,0,true,q,false,false,0.0-2.0-0.43-0.391-3.391,0,0,0,81,false,stim,false,1,737.7999999523163,0,0,1,75469,task1,1174542,false,true,1359,image-keyboard-response,32
true,10,2,2,2,true,d,false,true,0.0-2.0-0.43-0.392-3.392,0,0,0,68,false,stim,false,0,917.0,0,0,2,75469,task1,1176978,false,false,1362,image-keyboard-response,33
true,10,2,2,2,true,d,false,true,0.0-2.0-0.43-0.393-3.393,0,0,0,68,false,stim,false,0,702.3999998569489,0,0,2,75469,task1,1179212,false,false,1365,image-keyboard-response,34
true,10,1,2,1,true,z,false,true,0.0-2.0-0.43-0.394-3.394,0,0,0,90,false,stim,false,0,601.5999999046326,0,0,0,75469,task1,1181337,false,false,1368,image-keyboard-response,35
true,10,1,2,1,true,z,false,true,0.0-2.0-0.43-0.395-3.395,0,0,0,90,false,stim,false,0,556.5,0,0,0,75469,task1,1183426,false,false,1371,image-keyboard-response,36
true,10,1,2,1,true,z,false,true,0.0-2.0-0.44-0.396-3.396,0,0,0,90,false,stim,false,0,671.0999999046326,0,0,0,75469,task1,1185622,false,false,1374,image-keyboard-response,37
true,10,2,2,2,true,d,false,false,0.0-2.0-0.44-0.397-3.397,0,0,0,68,false,stim,false,0,665.6000001430511,0,0,2,75469,task1,1187808,false,true,1377,image-keyboard-response,38
true,10,1,2,1,true,z,false,true,0.0-2.0-0.44-0.398-3.398,0,0,0,90,false,stim,false,0,567.3999998569489,0,0,0,75469,task1,1189906,false,false,1380,image-keyboard-response,39
true,10,2,2,2,true,d,false,true,0.0-2.0-0.44-0.399-3.399,0,0,0,68,false,stim,false,0,657.1000001430511,0,0,2,75469,task1,1192094,false,false,1383,image-keyboard-response,40
true,10,1,2,1,true,z,false,true,0.0-2.0-0.44-0.400-3.400,0,0,0,90,false,stim,false,0,355.19999980926514,0,0,0,75469,task1,1193968,false,false,1386,image-keyboard-response,41
true,10,0,2,0,true,q,false,true,0.0-2.0-0.44-0.401-3.401,0,0,0,81,false,stim,false,1,554.1999998092651,0,0,1,75469,task1,1196050,false,false,1389,image-keyboard-response,42
true,10,0,2,0,true,q,false,true,0.0-2.0-0.44-0.402-3.402,0,0,0,81,false,stim,false,1,577.3000001907349,0,0,1,75469,task1,1198160,false,false,1392,image-keyboard-response,43
true,11,2,2,0,false,q,false,false,0.0-2.0-0.44-0.403-3.403,0,0,0,68,true,stim,true,2,596.2999999523163,0,0,2,75469,task1,1200276,false,false,1395,image-keyboard-response,1
true,11,0,2,1,false,z,false,false,0.0-2.0-0.44-0.404-3.404,0,0,0,81,false,stim,true,0,1136.0999999046326,0,0,1,75469,task1,1202944,false,false,1398,image-keyboard-response,2
true,11,1,2,0,false,q,false,false,0.0-2.0-0.45-0.405-3.405,0,0,0,90,false,stim,true,1,426.09999990463257,0,0,0,75469,task1,1204903,false,false,1401,image-keyboard-response,3
true,11,1,2,0,false,q,true,false,0.0-2.0-0.45-0.406-3.406,0,0,0,90,false,stim,false,2,590.2000000476837,0,0,2,75469,task1,1207017,false,false,1404,image-keyboard-response,4
true,11,2,2,0,false,q,false,false,0.0-2.0-0.45-0.407-3.407,0,0,0,68,false,stim,true,2,521.2000000476837,0,0,2,75469,task1,1209068,false,false,1407,image-keyboard-response,5
true,11,0,2,0,true,q,false,true,0.0-2.0-0.45-0.408-3.408,0,0,0,81,false,stim,false,1,914.0999999046326,0,0,0,75469,task1,1211510,false,false,1410,image-keyboard-response,6
true,11,1,2,1,true,z,false,true,0.0-2.0-0.45-0.409-3.409,0,0,0,90,false,stim,false,0,707.3000001907349,0,0,1,75469,task1,1213744,false,false,1413,image-keyboard-response,7
true,11,2,2,0,false,q,false,false,0.0-2.0-0.45-0.410-3.410,0,0,0,68,false,stim,true,2,731.3000001907349,0,0,2,75469,task1,1216008,false,false,1416,image-keyboard-response,8
true,11,1,2,1,true,z,false,true,0.0-2.0-0.45-0.411-3.411,0,0,0,90,false,stim,false,0,1513.5,0,0,1,75469,task1,1219043,false,false,1419,image-keyboard-response,9
true,11,1,2,1,true,z,false,true,0.0-2.0-0.45-0.412-3.412,0,0,0,90,false,stim,false,0,596.5999999046326,0,0,1,75469,task1,1221157,false,false,1422,image-keyboard-response,10
true,11,0,2,0,true,q,false,true,0.0-2.0-0.45-0.413-3.413,0,0,0,81,false,stim,false,1,588.7000000476837,0,0,0,75469,task1,1223271,false,false,1425,image-keyboard-response,11
true,11,0,2,0,true,q,false,true,0.0-2.0-0.46-0.414-3.414,0,0,0,81,false,stim,false,1,499.40000009536743,0,0,0,75469,task1,1225301,false,false,1428,image-keyboard-response,12
true,11,0,2,0,true,q,false,true,0.0-2.0-0.46-0.415-3.415,0,0,0,81,false,stim,false,1,486.30000019073486,0,0,0,75469,task1,1227311,false,false,1431,image-keyboard-response,13
true,11,0,2,0,true,q,false,true,0.0-2.0-0.46-0.416-3.416,0,0,0,81,false,stim,false,2,917.9000000953674,0,0,2,75469,task1,1229752,false,false,1434,image-keyboard-response,14
true,11,0,2,0,true,q,false,true,0.0-2.0-0.46-0.417-3.417,0,0,0,81,false,stim,false,2,549.7000000476837,0,0,2,75469,task1,1231824,false,false,1437,image-keyboard-response,15
true,11,0,2,0,true,q,false,true,0.0-2.0-0.46-0.418-3.418,0,0,0,81,false,stim,false,2,545.8000001907349,0,0,2,75469,task1,1233887,false,false,1440,image-keyboard-response,16
true,11,0,2,0,true,q,false,true,0.0-2.0-0.46-0.419-3.419,0,0,0,81,false,stim,false,1,714.2999999523163,0,0,0,75469,task1,1236125,false,false,1443,image-keyboard-response,17
true,11,1,2,1,true,z,false,true,0.0-2.0-0.46-0.420-3.420,0,0,0,90,false,stim,false,0,416.09999990463257,0,0,1,75469,task1,1238073,false,false,1446,image-keyboard-response,18
true,11,1,2,1,true,z,false,true,0.0-2.0-0.46-0.421-3.421,0,0,0,90,false,stim,false,0,589.3999998569489,0,0,1,75469,task1,1240188,false,false,1449,image-keyboard-response,19
true,11,1,2,1,true,z,false,true,0.0-2.0-0.46-0.422-3.422,0,0,0,90,false,stim,false,0,411.7000000476837,0,0,1,75469,task1,1242129,false,false,1452,image-keyboard-response,20
true,11,0,2,0,true,q,false,true,0.0-2.0-0.47-0.423-3.423,0,0,0,81,false,stim,false,2,411.5,0,0,2,75469,task1,1244071,false,false,1455,image-keyboard-response,21
true,11,1,2,1,true,z,false,true,0.0-2.0-0.47-0.424-3.424,0,0,0,90,false,stim,false,0,615.7000000476837,0,0,1,75469,task1,1246203,false,false,1458,image-keyboard-response,22
true,11,0,2,0,true,q,false,true,0.0-2.0-0.47-0.425-3.425,0,0,0,81,false,stim,false,1,601.0999999046326,0,0,0,75469,task1,1248338,false,false,1461,image-keyboard-response,23
true,11,1,2,1,true,z,false,true,0.0-2.0-0.47-0.426-3.426,0,0,0,90,false,stim,false,0,780.7000000476837,0,0,1,75469,task1,1250643,false,false,1464,image-keyboard-response,24
true,11,0,2,0,true,q,false,true,0.0-2.0-0.47-0.427-3.427,0,0,0,81,false,stim,false,1,994.0,0,0,0,75469,task1,1253163,false,false,1467,image-keyboard-response,25
true,11,1,2,1,true,z,false,true,0.0-2.0-0.47-0.428-3.428,0,0,0,90,false,stim,false,0,511.5,0,0,1,75469,task1,1255202,false,false,1470,image-keyboard-response,26
true,11,0,2,0,true,q,false,true,0.0-2.0-0.47-0.429-3.429,0,0,0,81,false,stim,false,2,459.5,0,0,2,75469,task1,1257184,false,false,1473,image-keyboard-response,27
true,11,0,2,0,true,q,false,true,0.0-2.0-0.47-0.430-3.430,0,0,0,81,false,stim,false,1,969.5,0,0,0,75469,task1,1259682,false,false,1476,image-keyboard-response,28
true,11,0,2,0,true,q,false,true,0.0-2.0-0.47-0.431-3.431,0,0,0,81,false,stim,false,2,732.7000000476837,0,0,2,75469,task1,1261938,false,false,1479,image-keyboard-response,29
true,11,0,2,0,true,q,false,true,0.0-2.0-0.48-0.432-3.432,0,0,0,81,false,stim,false,2,615.3999998569489,0,0,2,75469,task1,1264074,false,false,1482,image-keyboard-response,30
true,11,0,2,0,true,q,false,true,0.0-2.0-0.48-0.433-3.433,0,0,0,81,false,stim,false,1,525.2000000476837,0,0,0,75469,task1,1266126,false,false,1485,image-keyboard-response,31
true,11,0,2,1,false,z,false,false,0.0-2.0-0.48-0.434-3.434,0,0,0,81,false,stim,true,0,935.0,0,0,1,75469,task1,1268585,false,false,1488,image-keyboard-response,32
true,11,0,2,0,true,q,false,false,0.0-2.0-0.48-0.435-3.435,0,0,0,81,false,stim,false,2,533.1000001430511,0,0,2,75469,task1,1270638,false,true,1491,image-keyboard-response,33
true,11,0,2,0,true,q,false,true,0.0-2.0-0.48-0.436-3.436,0,0,0,81,false,stim,false,1,1217.7000000476837,0,0,0,75469,task1,1273367,false,false,1494,image-keyboard-response,34
true,11,1,2,1,true,z,false,true,0.0-2.0-0.48-0.437-3.437,0,0,0,90,false,stim,false,0,605.4000000953674,0,0,1,75469,task1,1275482,false,false,1497,image-keyboard-response,35
true,11,0,2,0,true,q,false,true,0.0-2.0-0.48-0.438-3.438,0,0,0,81,false,stim,false,1,635.2999999523163,0,0,0,75469,task1,1277644,false,false,1500,image-keyboard-response,36
true,11,1,2,1,true,z,false,true,0.0-2.0-0.48-0.439-3.439,0,0,0,90,false,stim,false,0,515.2999999523163,0,0,1,75469,task1,1279695,false,false,1503,image-keyboard-response,37
true,11,0,2,0,true,q,false,true,0.0-2.0-0.48-0.440-3.440,0,0,0,81,false,stim,false,2,585.0,0,0,2,75469,task1,1281805,false,false,1506,image-keyboard-response,38
true,11,0,2,0,true,q,false,true,0.0-2.0-0.49-0.441-3.441,0,0,0,81,false,stim,false,2,568.5999999046326,0,0,2,75469,task1,1283894,false,false,1509,image-keyboard-response,39
true,11,0,2,0,true,q,false,false,0.0-2.0-0.49-0.442-3.442,0,0,0,81,false,stim,false,1,678.3999998569489,0,0,0,75469,task1,1286092,false,true,1512,image-keyboard-response,40
true,11,1,2,1,true,z,false,true,0.0-2.0-0.49-0.443-3.443,0,0,0,90,false,stim,false,0,728.7000000476837,0,0,1,75469,task1,1288341,false,false,1515,image-keyboard-response,41
true,11,1,2,1,true,z,false,false,0.0-2.0-0.49-0.444-3.444,0,0,0,90,false,stim,false,0,524.5,0,0,1,75469,task1,1290393,false,true,1518,image-keyboard-response,42
true,12,0,1,2,false,d,true,false,0.0-2.0-0.49-0.445-3.445,0,0,0,81,true,stim,false,1,723.5,0,0,1,75469,task1,1292642,false,false,1521,image-keyboard-response,1
true,12,0,1,1,false,z,false,true,0.0-2.0-0.49-0.446-3.446,0,0,0,81,false,stim,true,0,1074.7999999523163,0,0,0,75469,task1,1295245,false,true,1524,image-keyboard-response,2
true,12,0,1,1,false,z,false,false,0.0-2.0-0.49-0.447-3.447,0,0,0,81,false,stim,true,0,694.7999999523163,0,0,2,75469,task1,1297456,false,false,1527,image-keyboard-response,3
true,12,0,1,1,false,z,false,false,0.0-2.0-0.49-0.448-3.448,0,0,0,81,false,stim,true,0,1114.4000000953674,0,0,0,75469,task1,1300099,false,false,1530,image-keyboard-response,4
true,12,1,1,1,true,z,false,true,0.0-2.0-0.49-0.449-3.449,0,0,0,90,false,stim,false,0,517.0,0,0,2,75469,task1,1302148,false,false,1533,image-keyboard-response,5
true,12,2,1,2,true,d,false,true,0.0-2.0-0.50-0.450-3.450,0,0,0,68,false,stim,false,1,1036.5,0,0,1,75469,task1,1304709,false,false,1536,image-keyboard-response,6
true,12,1,1,1,true,z,false,true,0.0-2.0-0.50-0.451-3.451,0,0,0,90,false,stim,false,0,1126.3000001907349,0,0,2,75469,task1,1307360,false,false,1539,image-keyboard-response,7
true,12,2,1,2,true,d,false,true,0.0-2.0-0.50-0.452-3.452,0,0,0,68,false,stim,false,1,719.5999999046326,0,0,1,75469,task1,1309607,false,false,1542,image-keyboard-response,8
true,12,0,1,1,false,z,false,false,0.0-2.0-0.50-0.453-3.453,0,0,0,81,false,stim,true,0,610.5999999046326,0,0,0,75469,task1,1311739,false,false,1545,image-keyboard-response,9
true,12,1,1,1,true,z,false,true,0.0-2.0-0.50-0.454-3.454,0,0,0,90,false,stim,false,0,655.7999999523163,0,0,2,75469,task1,1313919,false,false,1548,image-keyboard-response,10
true,12,2,1,1,false,z,true,true,0.0-2.0-0.50-0.455-3.455,0,0,0,68,false,stim,false,0,634.2000000476837,0,0,0,75469,task1,1316072,false,true,1551,image-keyboard-response,11
true,12,2,1,2,true,d,false,true,0.0-2.0-0.50-0.456-3.456,0,0,0,68,false,stim,false,1,511.40000009536743,0,0,1,75469,task1,1318108,false,false,1554,image-keyboard-response,12
true,12,2,1,1,false,z,true,false,0.0-2.0-0.50-0.457-3.457,0,0,0,68,false,stim,false,0,652.0999999046326,0,0,0,75469,task1,1320286,false,false,1557,image-keyboard-response,13
true,12,1,1,1,true,z,false,true,0.0-2.0-0.50-0.458-3.458,0,0,0,90,false,stim,false,0,495.59999990463257,0,0,2,75469,task1,1322307,false,false,1560,image-keyboard-response,14
true,12,1,1,1,true,z,false,true,0.0-2.0-0.51-0.459-3.459,0,0,0,90,false,stim,false,0,515.2000000476837,0,0,2,75469,task1,1324350,false,false,1563,image-keyboard-response,15
true,12,1,1,1,true,z,false,true,0.0-2.0-0.51-0.460-3.460,0,0,0,90,false,stim,false,0,477.2999999523163,0,0,2,75469,task1,1326347,false,false,1566,image-keyboard-response,16
true,12,1,1,1,true,z,false,true,0.0-2.0-0.51-0.461-3.461,0,0,0,90,false,stim,false,0,450.2000000476837,0,0,2,75469,task1,1328327,false,false,1569,image-keyboard-response,17
true,12,1,1,1,true,z,false,true,0.0-2.0-0.51-0.462-3.462,0,0,0,90,false,stim,false,0,582.7000000476837,0,0,0,75469,task1,1330434,false,false,1572,image-keyboard-response,18
true,12,1,1,1,true,z,false,true,0.0-2.0-0.51-0.463-3.463,0,0,0,90,false,stim,false,0,404.40000009536743,0,0,0,75469,task1,1332358,false,false,1575,image-keyboard-response,19
true,12,2,1,2,true,d,false,true,0.0-2.0-0.51-0.464-3.464,0,0,0,68,false,stim,false,1,854.9000000953674,0,0,1,75469,task1,1334737,false,false,1578,image-keyboard-response,20
true,12,1,1,1,true,z,false,true,0.0-2.0-0.51-0.465-3.465,0,0,0,90,false,stim,false,0,634.4000000953674,0,0,0,75469,task1,1336899,false,false,1581,image-keyboard-response,21
true,12,2,1,2,true,d,false,true,0.0-2.0-0.51-0.466-3.466,0,0,0,68,false,stim,false,1,649.2999999523163,0,0,1,75469,task1,1339075,false,false,1584,image-keyboard-response,22
true,12,2,1,2,true,d,false,true,0.0-2.0-0.51-0.467-3.467,0,0,0,68,false,stim,false,1,508.09999990463257,0,0,1,75469,task1,1341116,false,false,1587,image-keyboard-response,23
true,12,1,1,1,true,z,false,true,0.0-2.0-0.52-0.468-3.468,0,0,0,90,false,stim,false,0,696.7999999523163,0,0,0,75469,task1,1343331,false,false,1590,image-keyboard-response,24
true,12,2,1,1,false,z,true,false,0.0-2.0-0.52-0.469-3.469,0,0,0,68,false,stim,false,0,392.60000014305115,0,0,2,75469,task1,1345250,false,false,1593,image-keyboard-response,25
true,12,1,1,1,true,z,false,true,0.0-2.0-0.52-0.470-3.470,0,0,0,90,false,stim,false,0,301.30000019073486,0,0,2,75469,task1,1347063,false,false,1596,image-keyboard-response,26
true,12,1,1,1,true,z,false,false,0.0-2.0-0.52-0.471-3.471,0,0,0,90,false,stim,false,0,1193.2000000476837,0,0,0,75469,task1,1349785,false,true,1599,image-keyboard-response,27
true,12,2,1,2,true,d,false,true,0.0-2.0-0.52-0.472-3.472,0,0,0,68,false,stim,false,1,468.7000000476837,0,0,1,75469,task1,1351794,false,false,1602,image-keyboard-response,28
true,12,1,1,1,true,z,false,true,0.0-2.0-0.52-0.473-3.473,0,0,0,90,false,stim,false,0,589.0,0,0,2,75469,task1,1353912,false,false,1605,image-keyboard-response,29
true,12,2,1,1,false,z,true,false,0.0-2.0-0.52-0.474-3.474,0,0,0,68,false,stim,false,0,366.2999999523163,0,0,0,75469,task1,1355805,false,false,1608,image-keyboard-response,30
true,12,2,1,2,true,d,false,true,0.0-2.0-0.52-0.475-3.475,0,0,0,68,false,stim,false,1,844.2999999523163,0,0,1,75469,task1,1358178,false,false,1611,image-keyboard-response,31
true,12,2,1,2,true,d,false,true,0.0-2.0-0.52-0.476-3.476,0,0,0,68,false,stim,false,1,713.7000000476837,0,0,1,75469,task1,1360416,false,false,1614,image-keyboard-response,32
true,12,2,1,2,true,d,false,true,0.0-2.0-0.53-0.477-3.477,0,0,0,68,false,stim,false,1,484.0,0,0,1,75469,task1,1362425,false,false,1617,image-keyboard-response,33
true,12,1,1,1,true,z,false,true,0.0-2.0-0.53-0.478-3.478,0,0,0,90,false,stim,false,0,518.0999999046326,0,0,2,75469,task1,1364462,false,false,1620,image-keyboard-response,34
true,12,0,1,1,false,z,false,false,0.0-2.0-0.53-0.479-3.479,0,0,0,81,false,stim,true,0,660.5,0,0,0,75469,task1,1366645,false,false,1623,image-keyboard-response,35
true,12,1,1,1,true,z,false,true,0.0-2.0-0.53-0.480-3.480,0,0,0,90,false,stim,false,0,529.7999999523163,0,0,0,75469,task1,1368696,false,false,1626,image-keyboard-response,36
true,12,1,1,1,true,z,false,true,0.0-2.0-0.53-0.481-3.481,0,0,0,90,false,stim,false,0,388.2000000476837,0,0,2,75469,task1,1370615,false,false,1629,image-keyboard-response,37
true,12,2,1,2,true,d,false,true,0.0-2.0-0.53-0.482-3.482,0,0,0,68,false,stim,false,1,450.09999990463257,0,0,1,75469,task1,1372587,false,false,1632,image-keyboard-response,38
true,12,2,1,2,true,d,false,true,0.0-2.0-0.53-0.483-3.483,0,0,0,68,false,stim,false,1,560.9000000953674,0,0,1,75469,task1,1374677,false,false,1635,image-keyboard-response,39
true,13,1,1,0,false,q,false,true,0.0-2.0-0.53-0.484-3.484,0,0,0,90,true,stim,true,1,474.80000019073486,0,0,0,75469,task1,1376670,false,true,1638,image-keyboard-response,1
true,13,1,1,2,false,d,false,false,0.0-2.0-0.53-0.485-3.485,0,0,0,90,false,stim,true,1,543.6999998092651,0,0,2,75469,task1,1378746,false,false,1641,image-keyboard-response,2
true,13,1,1,2,false,d,false,false,0.0-2.0-0.54-0.486-3.486,0,0,0,90,false,stim,true,1,343.5,0,0,2,75469,task1,1380611,false,false,1644,image-keyboard-response,3
true,13,0,1,0,true,q,false,true,0.0-2.0-0.54-0.487-3.487,0,0,0,81,false,stim,false,1,271.7000000476837,0,0,0,75469,task1,1382406,false,false,1647,image-keyboard-response,4
true,13,0,1,0,true,q,false,true,0.0-2.0-0.54-0.488-3.488,0,0,0,81,false,stim,false,1,421.59999990463257,0,0,0,75469,task1,1384347,false,false,1650,image-keyboard-response,5
true,13,2,1,1,false,z,false,false,0.0-2.0-0.54-0.489-3.489,0,0,0,68,false,stim,true,2,611.2999999523163,0,0,1,75469,task1,1386482,false,false,1653,image-keyboard-response,6
true,13,1,1,2,false,d,false,false,0.0-2.0-0.54-0.490-3.490,0,0,0,90,false,stim,true,1,1042.2999999523163,0,0,2,75469,task1,1389056,false,false,1656,image-keyboard-response,7
true,13,2,1,2,true,d,false,true,0.0-2.0-0.54-0.491-3.491,0,0,0,68,false,stim,false,1,491.5,0,0,2,75469,task1,1391066,false,false,1659,image-keyboard-response,8
true,13,0,1,1,false,z,true,false,0.0-2.0-0.54-0.492-3.492,0,0,0,81,false,stim,false,2,626.2000000476837,0,0,1,75469,task1,1393219,false,false,1662,image-keyboard-response,9
true,13,1,1,1,true,z,false,true,0.0-2.0-0.54-0.493-3.493,0,0,0,90,false,stim,false,2,631.3999998569489,0,0,1,75469,task1,1395374,false,false,1665,image-keyboard-response,10
true,13,0,1,0,true,q,false,true,0.0-2.0-0.54-0.494-3.494,0,0,0,81,false,stim,false,1,555.2999999523163,0,0,0,75469,task1,1397447,false,false,1668,image-keyboard-response,11
true,13,1,1,1,true,z,false,true,0.0-2.0-0.55-0.495-3.495,0,0,0,90,false,stim,false,2,337.7000000476837,0,0,1,75469,task1,1399304,false,false,1671,image-keyboard-response,12
true,13,0,1,0,true,q,false,false,0.0-2.0-0.55-0.496-3.496,0,0,0,81,false,stim,false,1,661.7999999523163,0,0,0,75469,task1,1401493,false,true,1674,image-keyboard-response,13
true,13,1,1,0,false,q,false,false,0.0-2.0-0.55-0.497-3.497,0,0,0,90,false,stim,true,1,442.7000000476837,0,0,0,75469,task1,1403465,false,false,1677,image-keyboard-response,14
true,13,0,1,0,true,q,false,false,0.0-2.0-0.55-0.498-3.498,0,0,0,81,false,stim,false,1,465.60000014305115,0,0,0,75469,task1,1405461,false,true,1680,image-keyboard-response,15
true,13,2,1,2,true,d,false,true,0.0-2.0-0.55-0.499-3.499,0,0,0,68,false,stim,false,1,542.9000000953674,0,0,2,75469,task1,1407521,false,false,1683,image-keyboard-response,16
true,13,2,1,2,true,d,false,true,0.0-2.0-0.55-0.500-3.500,0,0,0,68,false,stim,false,1,493.90000009536743,0,0,2,75469,task1,1409541,false,false,1686,image-keyboard-response,17
true,13,2,1,2,true,d,false,true,0.0-2.0-0.55-0.501-3.501,0,0,0,68,false,stim,false,1,580.5,0,0,2,75469,task1,1411647,false,false,1689,image-keyboard-response,18
true,13,1,1,1,true,z,false,true,0.0-2.0-0.55-0.502-3.502,0,0,0,90,false,stim,false,2,1303.2999999523163,0,0,1,75469,task1,1414473,false,false,1692,image-keyboard-response,19
true,13,1,1,1,true,z,false,true,0.0-2.0-0.55-0.503-3.503,0,0,0,90,false,stim,false,2,590.1000001430511,0,0,1,75469,task1,1416591,false,false,1695,image-keyboard-response,20
true,13,2,1,2,true,d,false,true,0.0-2.0-0.56-0.504-3.504,0,0,0,68,false,stim,false,1,434.40000009536743,0,0,2,75469,task1,1418549,false,false,1698,image-keyboard-response,21
true,13,2,1,0,false,q,true,false,0.0-2.0-0.56-0.505-3.505,0,0,0,68,false,stim,false,1,989.3000001907349,0,0,0,75469,task1,1421079,false,false,1701,image-keyboard-response,22
true,13,1,1,1,true,z,false,true,0.0-2.0-0.56-0.506-3.506,0,0,0,90,false,stim,false,2,601.7999999523163,0,0,1,75469,task1,1423208,false,false,1704,image-keyboard-response,23
true,13,0,1,0,true,q,false,true,0.0-2.0-0.56-0.507-3.507,0,0,0,81,false,stim,false,1,776.0999999046326,0,0,0,75469,task1,1425504,false,false,1707,image-keyboard-response,24
true,13,1,1,1,true,z,false,true,0.0-2.0-0.56-0.508-3.508,0,0,0,90,false,stim,false,2,1098.7000000476837,0,0,1,75469,task1,1428127,false,false,1710,image-keyboard-response,25
true,13,0,1,0,true,q,false,true,0.0-2.0-0.56-0.509-3.509,0,0,0,81,false,stim,false,1,607.5,0,0,0,75469,task1,1430268,false,false,1713,image-keyboard-response,26
true,13,1,1,2,false,d,false,false,0.0-2.0-0.56-0.510-3.510,0,0,0,90,false,stim,true,1,368.59999990463257,0,0,2,75469,task1,1432156,false,false,1716,image-keyboard-response,27
true,13,1,1,1,true,z,false,true,0.0-2.0-0.56-0.511-3.511,0,0,0,90,false,stim,false,2,532.0,0,0,1,75469,task1,1434216,false,false,1719,image-keyboard-response,28
true,13,2,1,2,true,d,false,true,0.0-2.0-0.56-0.512-3.512,0,0,0,68,false,stim,false,1,552.7000000476837,0,0,2,75469,task1,1436294,false,false,1722,image-keyboard-response,29
true,13,2,1,2,true,d,false,false,0.0-2.0-0.57-0.513-3.513,0,0,0,68,false,stim,false,1,484.89999985694885,0,0,2,75469,task1,1438312,false,true,1725,image-keyboard-response,30
true,13,0,1,1,false,z,true,false,0.0-2.0-0.57-0.514-3.514,0,0,0,81,false,stim,false,2,670.8000001907349,0,0,1,75469,task1,1440506,false,false,1728,image-keyboard-response,31
true,13,0,1,0,true,q,false,true,0.0-2.0-0.57-0.515-3.515,0,0,0,81,false,stim,false,1,1338.2999999523163,0,0,0,75469,task1,1443367,false,false,1731,image-keyboard-response,32
true,13,0,1,0,true,q,false,true,0.0-2.0-0.57-0.516-3.516,0,0,0,81,false,stim,false,1,619.3999998569489,0,0,0,75469,task1,1445511,false,false,1734,image-keyboard-response,33
true,13,1,1,1,true,z,false,false,0.0-2.0-0.57-0.517-3.517,0,0,0,90,false,stim,false,2,607.7999999523163,0,0,1,75469,task1,1447648,false,true,1737,image-keyboard-response,34
true,13,0,1,1,false,z,true,false,0.0-2.0-0.57-0.518-3.518,0,0,0,81,false,stim,false,2,1399.2000000476837,0,0,1,75469,task1,1450564,false,false,1740,image-keyboard-response,35
true,13,0,1,0,true,q,false,true,0.0-2.0-0.57-0.519-3.519,0,0,0,81,false,stim,false,1,659.3999998569489,0,0,0,75469,task1,1452751,false,false,1743,image-keyboard-response,36
true,13,1,1,2,false,d,false,false,0.0-2.0-0.57-0.520-3.520,0,0,0,90,false,stim,true,1,905.2000000476837,0,0,2,75469,task1,1455188,false,false,1746,image-keyboard-response,37
true,13,2,1,2,true,d,false,true,0.0-2.0-0.57-0.521-3.521,0,0,0,68,false,stim,false,1,695.2000000476837,0,0,2,75469,task1,1457407,false,false,1749,image-keyboard-response,38
true,13,0,1,0,true,q,false,true,0.0-2.0-0.58-0.522-3.522,0,0,0,81,false,stim,false,1,533.5999999046326,0,1,0,75469,task1,1459470,false,false,1752,image-keyboard-response,39
true,13,1,1,1,true,z,false,true,0.0-2.0-0.58-0.523-3.523,0,0,0,90,false,stim,false,2,393.5,0,1,1,75469,task1,1461385,false,false,1755,image-keyboard-response,40
true,13,0,1,0,true,q,false,true,0.0-2.0-0.58-0.524-3.524,0,0,0,81,false,stim,false,1,608.2000000476837,0,1,0,75469,task1,1463524,false,false,1758,image-keyboard-response,41
true,13,2,1,2,true,d,false,true,0.0-2.0-0.58-0.525-3.525,0,0,0,68,false,stim,false,1,734.7999999523163,0,1,2,75469,task1,1465782,false,false,1761,image-keyboard-response,42
true,13,1,1,1,true,z,false,true,0.0-2.0-0.58-0.526-3.526,0,0,0,90,false,stim,false,2,525.5,0,1,1,75469,task1,1467829,false,false,1764,image-keyboard-response,43
true,14,0,0,2,false,d,true,false,0.0-2.0-0.58-0.527-3.527,1,1,1,81,true,stim,false,2,2000.0,0,1,2,75469,task1,1586600,false,false,1882,image-keyboard-response,1
true,14,2,0,2,true,d,false,true,0.0-2.0-0.58-0.528-3.528,1,1,1,68,false,stim,false,2,2070.7999999523163,0,1,2,75469,task1,1590200,false,false,1885,image-keyboard-response,2
true,14,1,0,0,false,q,true,false,0.0-2.0-0.58-0.529-3.529,1,1,1,90,false,stim,false,0,537.6999998092651,0,1,0,75469,task1,1592262,false,false,1888,image-keyboard-response,3
true,14,0,0,1,false,z,true,false,0.0-2.0-0.58-0.530-3.530,1,1,1,81,false,stim,false,1,656.2000000476837,0,1,1,75469,task1,1594441,false,false,1891,image-keyboard-response,4
true,14,2,0,2,true,d,false,true,0.0-2.0-0.59-0.531-3.531,1,1,1,68,false,stim,false,2,514.2000000476837,0,1,2,75469,task1,1596488,false,false,1894,image-keyboard-response,5
true,14,1,0,1,true,z,false,true,0.0-2.0-0.59-0.532-3.532,1,1,1,90,false,stim,false,1,764.5,0,1,1,75469,task1,1598785,false,false,1897,image-keyboard-response,6
true,14,2,0,2,true,d,false,true,0.0-2.0-0.59-0.533-3.533,1,1,1,68,false,stim,false,2,559.5999999046326,0,1,2,75469,task1,1600868,false,false,1900,image-keyboard-response,7
true,14,0,0,0,true,q,false,true,0.0-2.0-0.59-0.534-3.534,1,1,1,81,false,stim,false,0,473.2999999523163,0,1,0,75469,task1,1602878,false,false,1903,image-keyboard-response,8
true,14,0,0,0,true,q,false,true,0.0-2.0-0.59-0.535-3.535,1,1,1,81,false,stim,false,0,473.7000000476837,0,0,0,75469,task1,1604882,false,false,1906,image-keyboard-response,9
true,14,1,0,1,true,z,false,true,0.0-2.0-0.59-0.536-3.536,1,1,1,90,false,stim,false,1,516.7999999523163,0,0,1,75469,task1,1606928,false,false,1909,image-keyboard-response,10
true,14,1,0,1,true,z,false,true,0.0-2.0-0.59-0.537-3.537,1,1,1,90,false,stim,false,1,408.59999990463257,0,0,1,75469,task1,1608847,false,false,1912,image-keyboard-response,11
true,14,0,0,0,true,q,false,true,0.0-2.0-0.59-0.538-3.538,1,1,1,81,false,stim,false,0,588.8999998569489,0,0,0,75469,task1,1610966,false,false,1915,image-keyboard-response,12
true,14,2,0,2,true,d,false,true,0.0-2.0-0.59-0.539-3.539,1,1,1,68,false,stim,false,2,465.60000014305115,0,0,2,75469,task1,1612949,false,false,1918,image-keyboard-response,13
true,15,1,1,0,false,q,false,false,0.0-2.0-0.60-0.540-3.540,0,0,0,90,true,stim,true,1,552.0999999046326,0,0,1,75469,task1,1615024,false,false,1921,image-keyboard-response,1
true,15,0,1,1,false,z,false,false,0.0-2.0-0.60-0.541-3.541,0,0,0,81,false,stim,true,0,534.6000001430511,0,0,0,75469,task1,1617078,false,false,1924,image-keyboard-response,2
true,15,1,1,0,false,q,false,false,0.0-2.0-0.60-0.542-3.542,0,0,0,90,false,stim,true,1,609.7999999523163,0,0,1,75469,task1,1619210,false,false,1927,image-keyboard-response,3
true,15,2,1,1,false,z,false,false,0.0-2.0-0.60-0.543-3.543,0,0,0,68,false,stim,true,2,460.09999990463257,0,0,2,75469,task1,1621189,false,false,1930,image-keyboard-response,4
true,15,0,1,0,true,q,false,true,0.0-2.0-0.60-0.544-3.544,0,0,0,81,false,stim,false,1,457.89999985694885,0,0,1,75469,task1,1623168,false,false,1933,image-keyboard-response,5
true,15,1,1,1,true,z,false,true,0.0-2.0-0.60-0.545-3.545,0,0,0,90,false,stim,false,0,444.40000009536743,0,0,0,75469,task1,1625135,false,false,1936,image-keyboard-response,6
true,15,1,1,1,true,z,false,true,0.0-2.0-0.60-0.546-3.546,0,0,0,90,false,stim,false,0,716.8999998569489,0,0,0,75469,task1,1627375,false,false,1939,image-keyboard-response,7
true,15,0,1,1,false,z,true,false,0.0-2.0-0.60-0.547-3.547,0,0,0,81,false,stim,false,2,478.09999990463257,0,0,2,75469,task1,1629377,false,false,1942,image-keyboard-response,8
true,15,2,1,1,false,z,false,false,0.0-2.0-0.60-0.548-3.548,0,0,0,68,false,stim,true,2,538.5999999046326,0,0,2,75469,task1,1631437,false,false,1945,image-keyboard-response,9
true,15,1,1,1,true,z,false,true,0.0-2.0-0.61-0.549-3.549,0,0,0,90,false,stim,false,0,1172.5999999046326,0,0,0,75469,task1,1634132,false,false,1948,image-keyboard-response,10
true,15,0,1,0,true,q,false,true,0.0-2.0-0.61-0.550-3.550,0,0,0,81,false,stim,false,1,477.0,0,0,1,75469,task1,1636136,false,false,1951,image-keyboard-response,11
true,15,0,1,0,true,q,false,true,0.0-2.0-0.61-0.551-3.551,0,0,0,81,false,stim,false,1,493.19999980926514,0,0,1,75469,task1,1638157,false,false,1954,image-keyboard-response,12
true,15,1,1,1,true,z,false,true,0.0-2.0-0.61-0.552-3.552,0,0,0,90,false,stim,false,2,427.7999999523163,0,0,2,75469,task1,1640119,false,false,1957,image-keyboard-response,13
true,15,1,1,1,true,z,false,true,0.0-2.0-0.61-0.553-3.553,0,0,0,90,false,stim,false,0,933.9000000953674,0,0,0,75469,task1,1642585,false,false,1960,image-keyboard-response,14
true,15,0,1,1,false,z,true,false,0.0-2.0-0.61-0.554-3.554,0,0,0,81,false,stim,false,2,437.7999999523163,0,0,2,75469,task1,1644544,false,false,1963,image-keyboard-response,15
true,15,1,1,1,true,z,false,true,0.0-2.0-0.61-0.555-3.555,0,0,0,90,false,stim,false,2,608.2000000476837,0,0,2,75469,task1,1646683,false,false,1966,image-keyboard-response,16
true,15,1,1,1,true,z,false,true,0.0-2.0-0.61-0.556-3.556,0,0,0,90,false,stim,false,0,389.59999990463257,0,0,0,75469,task1,1648593,false,false,1969,image-keyboard-response,17
true,15,0,1,0,true,q,false,true,0.0-2.0-0.61-0.557-3.557,0,0,0,81,false,stim,false,1,430.2000000476837,0,0,1,75469,task1,1650550,false,false,1972,image-keyboard-response,18
true,15,1,1,1,true,z,false,true,0.0-2.0-0.62-0.558-3.558,0,0,0,90,false,stim,false,2,359.10000014305115,0,0,2,75469,task1,1652429,false,false,1975,image-keyboard-response,19
true,15,1,1,1,true,z,false,true,0.0-2.0-0.62-0.559-3.559,0,0,0,90,false,stim,false,0,621.5999999046326,0,0,0,75469,task1,1654571,false,false,1978,image-keyboard-response,20
true,15,0,1,0,true,q,false,true,0.0-2.0-0.62-0.560-3.560,0,0,0,81,false,stim,false,1,662.8999998569489,0,0,1,75469,task1,1656751,false,false,1981,image-keyboard-response,21
true,15,0,1,0,true,q,false,true,0.0-2.0-0.62-0.561-3.561,0,0,0,81,false,stim,false,1,594.2999999523163,0,0,1,75469,task1,1658870,false,false,1984,image-keyboard-response,22
true,15,0,1,0,true,q,false,true,0.0-2.0-0.62-0.562-3.562,0,0,0,81,false,stim,false,1,377.90000009536743,0,0,1,75469,task1,1660777,false,false,1987,image-keyboard-response,23
true,15,1,1,1,true,z,false,true,0.0-2.0-0.62-0.563-3.563,0,0,0,90,false,stim,false,2,466.69999980926514,0,0,2,75469,task1,1662776,false,false,1990,image-keyboard-response,24
true,15,1,1,1,true,z,false,true,0.0-2.0-0.62-0.564-3.564,0,0,0,90,false,stim,false,2,378.90000009536743,0,0,2,75469,task1,1664672,false,false,1993,image-keyboard-response,25
true,15,1,1,1,true,z,false,true,0.0-2.0-0.62-0.565-3.565,0,0,0,90,false,stim,false,0,648.7000000476837,0,0,0,75469,task1,1666847,false,false,1996,image-keyboard-response,26
true,15,1,1,1,true,z,false,true,0.0-2.0-0.62-0.566-3.566,0,0,0,90,false,stim,false,0,485.19999980926514,0,0,0,75469,task1,1668852,false,false,1999,image-keyboard-response,27
true,15,1,1,1,true,z,false,true,0.0-2.0-0.63-0.567-3.567,0,0,0,90,false,stim,false,0,342.39999985694885,0,0,0,75469,task1,1670734,false,false,2002,image-keyboard-response,28
true,15,1,1,1,true,z,false,true,0.0-2.0-0.63-0.568-3.568,0,0,0,90,false,stim,false,2,419.7000000476837,0,0,2,75469,task1,1672674,false,false,2005,image-keyboard-response,29
true,15,1,1,1,true,z,false,true,0.0-2.0-0.63-0.569-3.569,0,0,0,90,false,stim,false,0,384.90000009536743,0,0,0,75469,task1,1674581,false,false,2008,image-keyboard-response,30
true,15,1,1,0,false,q,false,false,0.0-2.0-0.63-0.570-3.570,0,0,0,90,false,stim,true,1,371.2000000476837,0,0,1,75469,task1,1676469,false,false,2011,image-keyboard-response,31
true,15,1,1,1,true,z,false,true,0.0-2.0-0.63-0.571-3.571,0,0,0,90,false,stim,false,0,464.7999999523163,0,0,0,75469,task1,1678452,false,false,2014,image-keyboard-response,32
true,15,1,1,1,true,z,false,true,0.0-2.0-0.63-0.572-3.572,0,0,0,90,false,stim,false,2,397.5,0,0,2,75469,task1,1680370,false,false,2017,image-keyboard-response,33
true,15,1,1,0,false,q,false,false,0.0-2.0-0.63-0.573-3.573,0,0,0,90,false,stim,true,1,490.5,0,0,1,75469,task1,1682380,false,false,2020,image-keyboard-response,34
true,15,0,1,0,true,q,false,true,0.0-2.0-0.63-0.574-3.574,0,0,0,81,false,stim,false,1,504.0,0,0,1,75469,task1,1684409,false,false,2023,image-keyboard-response,35
true,15,1,1,1,true,z,false,true,0.0-2.0-0.63-0.575-3.575,0,0,0,90,false,stim,false,2,571.1999998092651,0,0,2,75469,task1,1686507,false,false,2026,image-keyboard-response,36
true,15,1,1,1,true,z,false,true,0.0-2.0-0.64-0.576-3.576,0,0,0,90,false,stim,false,2,398.7000000476837,0,0,2,75469,task1,1688436,false,false,2029,image-keyboard-response,37
true,15,1,1,1,true,z,false,true,0.0-2.0-0.64-0.577-3.577,0,0,0,90,false,stim,false,2,505.2999999523163,0,0,2,75469,task1,1690464,false,false,2032,image-keyboard-response,38
true,15,0,1,0,true,q,false,false,0.0-2.0-0.64-0.578-3.578,0,0,0,81,false,stim,false,1,465.10000014305115,0,0,1,75469,task1,1692453,false,true,2035,image-keyboard-response,39
true,15,1,1,1,true,z,false,true,0.0-2.0-0.64-0.579-3.579,0,0,0,90,false,stim,false,0,509.59999990463257,0,0,0,75469,task1,1694480,false,false,2038,image-keyboard-response,40
true,16,1,2,0,false,q,false,false,0.0-2.0-0.64-0.580-3.580,0,0,0,90,true,stim,true,1,519.7000000476837,0,0,0,75469,task1,1696533,false,false,2041,image-keyboard-response,1
true,16,0,2,0,true,q,false,true,0.0-2.0-0.64-0.581-3.581,0,0,0,81,false,stim,false,1,355.5,0,0,2,75469,task1,1698417,false,false,2044,image-keyboard-response,2
true,16,0,2,0,true,q,false,true,0.0-2.0-0.64-0.582-3.582,0,0,0,81,false,stim,false,1,1083.8999998569489,0,0,0,75469,task1,1701032,false,false,2047,image-keyboard-response,3
true,16,1,2,1,true,z,false,true,0.0-2.0-0.64-0.583-3.583,0,0,0,90,false,stim,false,0,388.2000000476837,0,0,1,75469,task1,1702948,false,false,2050,image-keyboard-response,4
true,16,1,2,1,true,z,false,true,0.0-2.0-0.64-0.584-3.584,0,0,0,90,false,stim,false,0,439.5,0,0,1,75469,task1,1704914,false,false,2053,image-keyboard-response,5
true,16,1,2,1,true,z,false,true,0.0-2.0-0.65-0.585-3.585,0,0,0,90,false,stim,false,0,469.0,0,0,1,75469,task1,1706900,false,false,2056,image-keyboard-response,6
true,16,0,2,0,true,q,false,true,0.0-2.0-0.65-0.586-3.586,0,0,0,81,false,stim,false,1,598.4000000953674,0,0,2,75469,task1,1709029,false,false,2059,image-keyboard-response,7
true,16,0,2,0,true,q,false,true,0.0-2.0-0.65-0.587-3.587,0,0,0,81,false,stim,false,1,692.5,0,0,0,75469,task1,1711241,false,false,2062,image-keyboard-response,8
true,16,0,2,0,true,q,false,true,0.0-2.0-0.65-0.588-3.588,0,0,0,81,false,stim,false,1,631.0,0,0,2,75469,task1,1713400,false,false,2065,image-keyboard-response,9
true,16,1,2,1,true,z,false,true,0.0-2.0-0.65-0.589-3.589,0,0,0,90,false,stim,false,0,1232.2000000476837,0,0,1,75469,task1,1716155,false,false,2068,image-keyboard-response,10
