answered,blockNum,choice,condition,corResp,correct,correct_response,explo,fb,internal_node_id,isStable_1,isStable_2,isStable_3,key_press,newBlock,part,persev,persevResp,rt,sessNum,stableAS,stimulus,subject,task,time_elapsed,training,trap,trial_index,trial_type,trialsInBlock
true,1,0,0,1,false,z,true,false,0.0-2.0-0.0-0.0-3.0,0,0,0,81,true,stim,false,-1,907.0,1,0,0,75469,task3,87458,false,false,100,image-keyboard-response,1
true,1,1,0,1,true,z,false,true,0.0-2.0-0.0-0.1-3.1,0,0,0,90,false,stim,false,-1,559.7000000001863,1,0,0,75469,task3,89544,false,false,103,image-keyboard-response,2
true,1,2,0,2,true,d,false,true,0.0-2.0-0.0-0.2-3.2,0,0,0,68,false,stim,false,-1,761.6000000005588,1,0,2,75469,task3,91823,false,false,106,image-keyboard-response,3
true,1,2,0,2,true,d,false,true,0.0-2.0-0.0-0.3-3.3,0,0,0,68,false,stim,false,-1,536.7000000001863,1,0,2,75469,task3,93885,false,false,109,image-keyboard-response,4
true,1,2,0,2,true,d,false,true,0.0-2.0-0.0-0.4-3.4,0,0,0,68,false,stim,false,-1,583.1999999992549,1,0,2,75469,task3,95988,false,false,112,image-keyboard-response,5
true,1,1,0,1,true,z,false,true,0.0-2.0-0.0-0.5-3.5,0,0,0,90,false,stim,false,-1,413.0,1,0,0,75469,task3,97935,false,false,115,image-keyboard-response,6
true,1,0,0,1,false,z,true,false,0.0-2.0-0.0-0.6-3.6,0,0,0,81,false,stim,false,-1,814.9000000003725,1,0,1,75469,task3,100275,false,false,118,image-keyboard-response,7
true,1,1,0,1,true,z,false,true,0.0-2.0-0.0-0.7-3.7,0,0,0,90,false,stim,false,-1,866.0999999996275,1,0,1,75469,task3,102656,false,false,121,image-keyboard-response,8
true,1,1,0,1,true,z,false,false,0.0-2.0-0.0-0.8-3.8,0,0,0,90,false,stim,false,-1,376.3999999994412,1,0,1,75469,task3,104548,false,true,124,image-keyboard-response,9
true,1,1,0,1,true,z,false,false,0.0-2.0-0.1-0.9-3.9,0,0,0,90,false,stim,false,-1,440.3999999994412,1,0,0,75469,task3,106504,false,true,127,image-keyboard-response,10
true,1,1,0,1,true,z,false,true,0.0-2.0-0.1-0.10-3.10,0,0,0,90,false,stim,false,-1,407.90000000037253,1,0,0,75469,task3,108432,false,false,130,image-keyboard-response,11
true,1,2,0,2,true,d,false,true,0.0-2.0-0.1-0.11-3.11,0,0,0,68,false,stim,false,-1,443.8999999994412,1,0,2,75469,task3,110392,false,false,133,image-keyboard-response,12
true,1,1,0,1,true,z,false,true,0.0-2.0-0.1-0.12-3.12,0,0,0,90,false,stim,false,-1,552.2999999998137,1,0,1,75469,task3,112476,false,false,136,image-keyboard-response,13
true,1,1,0,1,true,z,false,true,0.0-2.0-0.1-0.13-3.13,0,0,0,90,false,stim,false,-1,370.70000000018626,1,0,0,75469,task3,114369,false,false,139,image-keyboard-response,14
true,1,1,0,1,true,z,false,true,0.0-2.0-0.1-0.14-3.14,0,0,0,90,false,stim,false,-1,582.7000000001863,1,0,1,75469,task3,116471,false,false,142,image-keyboard-response,15
true,1,2,0,2,true,d,false,true,0.0-2.0-0.1-0.15-3.15,0,0,0,68,false,stim,false,-1,545.5999999996275,1,0,2,75469,task3,118544,false,false,145,image-keyboard-response,16
true,1,2,0,2,true,d,false,false,0.0-2.0-0.1-0.16-3.16,0,0,0,68,false,stim,false,-1,1211.0999999996275,1,0,2,75469,task3,121269,false,true,148,image-keyboard-response,17
true,1,1,0,1,true,z,false,true,0.0-2.0-0.1-0.17-3.17,0,0,0,90,false,stim,false,-1,508.30000000074506,1,0,1,75469,task3,123297,false,false,151,image-keyboard-response,18
true,1,1,0,1,true,z,false,true,0.0-2.0-0.2-0.18-3.18,0,0,0,90,false,stim,false,-1,612.9000000003725,1,0,0,75469,task3,125418,false,false,154,image-keyboard-response,19
true,1,1,0,1,true,z,false,true,0.0-2.0-0.2-0.19-3.19,0,0,0,90,false,stim,false,-1,421.19999999925494,1,0,1,75469,task3,127355,false,false,157,image-keyboard-response,20
true,1,1,0,1,true,z,false,true,0.0-2.0-0.2-0.20-3.20,0,0,0,90,false,stim,false,-1,474.70000000018626,1,0,1,75469,task3,129349,false,false,160,image-keyboard-response,21
true,1,1,0,1,true,z,false,false,0.0-2.0-0.2-0.21-3.21,0,0,0,90,false,stim,false,-1,557.9000000003725,1,0,0,75469,task3,131431,false,true,163,image-keyboard-response,22
true,1,1,0,1,true,z,false,true,0.0-2.0-0.2-0.22-3.22,0,0,0,90,false,stim,false,-1,418.29999999981374,1,0,0,75469,task3,133370,false,false,166,image-keyboard-response,23
true,1,2,0,2,true,d,false,true,0.0-2.0-0.2-0.23-3.23,0,0,0,68,false,stim,false,-1,467.29999999981374,1,0,2,75469,task3,135337,false,false,169,image-keyboard-response,24
true,1,1,0,1,true,z,false,true,0.0-2.0-0.2-0.24-3.24,0,0,0,90,false,stim,false,-1,370.5,1,0,1,75469,task3,137218,false,false,172,image-keyboard-response,25
true,1,2,0,2,true,d,false,true,0.0-2.0-0.2-0.25-3.25,0,0,0,68,false,stim,false,-1,498.1000000005588,1,1,2,75469,task3,139228,false,false,175,image-keyboard-response,26
true,1,2,0,2,true,d,false,true,0.0-2.0-0.2-0.26-3.26,0,0,0,68,false,stim,false,-1,497.59999999962747,1,1,2,75469,task3,141247,false,false,178,image-keyboard-response,27
true,1,1,0,1,true,z,false,true,0.0-2.0-0.3-0.27-3.27,0,0,0,90,false,stim,false,-1,417.5,1,0,1,75469,task3,143188,false,false,181,image-keyboard-response,28
true,1,1,0,1,true,z,false,true,0.0-2.0-0.3-0.28-3.28,0,0,0,90,false,stim,false,-1,387.5,1,1,0,75469,task3,145087,false,false,184,image-keyboard-response,29
true,2,2,2,2,true,d,false,true,0.0-2.0-0.3-0.29-3.29,1,0,1,68,true,stim,false,2,467.30000000074506,1,1,2,75469,task3,147069,false,false,187,image-keyboard-response,1
true,2,1,2,2,false,d,false,false,0.0-2.0-0.3-0.30-3.30,1,0,1,90,false,stim,true,1,338.8999999994412,1,0,1,75469,task3,148919,false,false,190,image-keyboard-response,2
true,2,1,2,2,false,d,true,false,0.0-2.0-0.3-0.31-3.31,1,0,1,90,false,stim,false,2,390.70000000018626,1,1,2,75469,task3,150832,false,false,193,image-keyboard-response,3
true,2,1,2,1,true,z,false,true,0.0-2.0-0.3-0.32-3.32,1,0,1,90,false,stim,false,1,488.20000000018626,1,1,0,75469,task3,152840,false,false,196,image-keyboard-response,4
true,2,2,2,2,true,d,false,false,0.0-2.0-0.3-0.33-3.33,1,0,1,68,false,stim,false,2,352.5,1,1,2,75469,task3,154714,false,true,199,image-keyboard-response,5
true,2,1,2,1,true,z,false,false,0.0-2.0-0.3-0.34-3.34,1,0,1,90,false,stim,false,1,391.5,1,1,0,75469,task3,156631,false,true,202,image-keyboard-response,6
true,2,0,2,2,false,d,true,false,0.0-2.0-0.3-0.35-3.35,1,0,1,81,false,stim,false,1,303.69999999925494,1,0,1,75469,task3,158450,false,false,205,image-keyboard-response,7
true,2,1,2,1,true,z,false,true,0.0-2.0-0.4-0.36-3.36,1,0,1,90,false,stim,false,1,460.69999999925494,1,1,0,75469,task3,160436,false,false,208,image-keyboard-response,8
true,2,2,2,2,true,d,false,true,0.0-2.0-0.4-0.37-3.37,1,0,1,68,false,stim,false,2,791.3000000007451,1,1,2,75469,task3,162751,false,false,211,image-keyboard-response,9
true,2,1,2,1,true,z,false,true,0.0-2.0-0.4-0.38-3.38,1,0,1,90,false,stim,false,1,363.09999999962747,1,1,0,75469,task3,164641,false,false,214,image-keyboard-response,10
true,2,1,2,2,false,d,false,false,0.0-2.0-0.4-0.39-3.39,1,0,1,90,false,stim,true,1,751.4000000003725,1,1,1,75469,task3,166913,false,false,217,image-keyboard-response,11
true,2,2,2,2,true,d,false,true,0.0-2.0-0.4-0.40-3.40,1,0,1,68,false,stim,false,2,461.69999999925494,1,0,2,75469,task3,168897,false,false,220,image-keyboard-response,12
true,2,2,2,2,true,d,false,true,0.0-2.0-0.4-0.41-3.41,1,0,1,68,false,stim,false,2,589.4000000003725,1,0,2,75469,task3,171003,false,false,223,image-keyboard-response,13
true,2,1,2,1,true,z,false,true,0.0-2.0-0.4-0.42-3.42,1,0,1,90,false,stim,false,1,906.7000000001863,1,0,0,75469,task3,173428,false,false,226,image-keyboard-response,14
true,2,1,2,2,false,d,false,false,0.0-2.0-0.4-0.43-3.43,1,0,1,90,false,stim,true,1,1036.6000000005588,1,1,1,75469,task3,175993,false,false,229,image-keyboard-response,15
true,3,2,1,2,true,d,false,true,0.0-2.0-0.4-0.44-3.44,0,1,0,68,true,stim,false,2,671.7999999998137,1,1,1,75469,task3,178192,false,false,232,image-keyboard-response,1
true,3,1,1,0,false,q,false,false,0.0-2.0-0.5-0.45-3.45,0,1,0,90,false,stim,true,1,637.1000000005588,1,0,0,75469,task3,180358,false,false,235,image-keyboard-response,2
true,3,1,1,0,false,q,false,false,0.0-2.0-0.5-0.46-3.46,0,1,0,90,false,stim,true,1,448.29999999981374,1,0,0,75469,task3,182338,false,false,238,image-keyboard-response,3
true,3,2,1,2,true,d,false,true,0.0-2.0-0.5-0.47-3.47,0,1,0,68,false,stim,false,2,516.0,1,1,1,75469,task3,184370,false,false,241,image-keyboard-response,4
true,3,2,1,2,true,d,false,true,0.0-2.0-0.5-0.48-3.48,0,1,0,68,false,stim,false,2,536.7000000001863,1,1,1,75469,task3,186425,false,false,244,image-keyboard-response,5
true,3,2,1,1,false,z,false,false,0.0-2.0-0.5-0.49-3.49,0,1,0,68,false,stim,true,2,592.2999999998137,1,0,2,75469,task3,188539,false,false,247,image-keyboard-response,6
true,3,1,1,1,true,z,false,true,0.0-2.0-0.5-0.50-3.50,0,1,0,90,false,stim,false,2,480.3999999994412,1,0,2,75469,task3,190542,false,false,250,image-keyboard-response,7
true,3,2,1,0,false,q,true,false,0.0-2.0-0.5-0.51-3.51,0,1,0,68,false,stim,false,1,611.5,1,0,0,75469,task3,192665,false,false,253,image-keyboard-response,8
true,3,2,1,2,true,d,false,true,0.0-2.0-0.5-0.52-3.52,0,1,0,68,false,stim,false,2,705.0999999996275,1,1,1,75469,task3,194884,false,false,256,image-keyboard-response,9
true,3,1,1,1,true,z,false,true,0.0-2.0-0.5-0.53-3.53,0,1,0,90,false,stim,false,2,491.90000000037253,1,0,2,75469,task3,196906,false,false,259,image-keyboard-response,10
true,3,0,1,0,true,q,false,true,0.0-2.0-0.6-0.54-3.54,0,1,0,81,false,stim,false,1,407.70000000018626,1,0,0,75469,task3,198837,false,false,262,image-keyboard-response,11
true,3,2,1,2,true,d,false,true,0.0-2.0-0.6-0.55-3.55,0,1,0,68,false,stim,false,2,1653.1000000005588,1,1,1,75469,task3,202016,false,false,265,image-keyboard-response,12
true,3,0,1,0,true,q,false,true,0.0-2.0-0.6-0.56-3.56,0,1,0,81,false,stim,false,1,956.2000000001863,1,0,0,75469,task3,204483,false,false,268,image-keyboard-response,13
true,3,1,1,1,true,z,false,true,0.0-2.0-0.6-0.57-3.57,0,1,0,90,false,stim,false,2,339.6000000005588,1,0,2,75469,task3,206352,false,false,271,image-keyboard-response,14
true,3,1,1,1,true,z,false,true,0.0-2.0-0.6-0.58-3.58,0,1,0,90,false,stim,false,2,914.1000000005588,1,0,2,75469,task3,208789,false,false,274,image-keyboard-response,15
true,3,1,1,1,true,z,false,true,0.0-2.0-0.6-0.59-3.59,0,1,0,90,false,stim,false,2,537.7000000001863,1,0,2,75469,task3,210855,false,false,277,image-keyboard-response,16
true,3,2,1,2,true,d,false,true,0.0-2.0-0.6-0.60-3.60,0,1,0,68,false,stim,false,2,565.5,1,1,1,75469,task3,212941,false,false,280,image-keyboard-response,17
true,3,2,1,2,true,d,false,true,0.0-2.0-0.6-0.61-3.61,0,1,0,68,false,stim,false,2,598.0999999996275,1,1,1,75469,task3,215060,false,false,283,image-keyboard-response,18
true,3,0,1,0,true,q,false,true,0.0-2.0-0.6-0.62-3.62,0,1,0,81,false,stim,false,1,685.0,1,0,0,75469,task3,217268,false,false,286,image-keyboard-response,19
true,3,0,1,0,true,q,false,true,0.0-2.0-0.7-0.63-3.63,0,1,0,81,false,stim,false,1,697.7000000001863,1,0,0,75469,task3,219491,false,false,289,image-keyboard-response,20
true,3,1,1,1,true,z,false,true,0.0-2.0-0.7-0.64-3.64,0,1,0,90,false,stim,false,2,659.5,1,0,2,75469,task3,221665,false,false,292,image-keyboard-response,21
true,3,1,1,1,true,z,false,true,0.0-2.0-0.7-0.65-3.65,0,1,0,90,false,stim,false,2,552.5999999996275,1,0,2,75469,task3,223742,false,false,295,image-keyboard-response,22
true,3,2,1,2,true,d,false,true,0.0-2.0-0.7-0.66-3.66,0,1,0,68,false,stim,false,2,649.7000000001863,1,1,1,75469,task3,225916,false,false,298,image-keyboard-response,23
true,3,1,1,1,true,z,false,true,0.0-2.0-0.7-0.67-3.67,0,1,0,90,false,stim,false,2,778.9000000003725,1,0,2,75469,task3,228233,false,false,301,image-keyboard-response,24
true,3,0,1,0,true,q,false,true,0.0-2.0-0.7-0.68-3.68,0,1,0,81,false,stim,false,1,696.8999999994412,1,1,0,75469,task3,230451,false,false,304,image-keyboard-response,25
true,3,0,1,0,true,q,false,true,0.0-2.0-0.7-0.69-3.69,0,1,0,81,false,stim,false,1,531.8999999994412,1,1,0,75469,task3,232498,false,false,307,image-keyboard-response,26
true,3,2,1,2,true,d,false,true,0.0-2.0-0.7-0.70-3.70,0,1,0,68,false,stim,false,2,718.0,1,0,1,75469,task3,234742,false,false,310,image-keyboard-response,27
true,3,2,1,2,true,d,false,true,0.0-2.0-0.7-0.71-3.71,0,1,0,68,false,stim,false,2,641.4000000003725,1,0,1,75469,task3,236903,false,false,313,image-keyboard-response,28
true,4,1,1,2,false,d,false,false,0.0-2.0-0.8-0.72-3.72,1,0,0,90,true,stim,true,1,625.5,1,0,2,75469,task3,239047,false,false,316,image-keyboard-response,1
true,4,1,1,2,false,d,false,false,0.0-2.0-0.8-0.73-3.73,1,0,0,90,false,stim,true,1,412.29999999981374,1,0,2,75469,task3,240985,false,false,319,image-keyboard-response,2
true,4,2,1,0,false,q,false,false,0.0-2.0-0.8-0.74-3.74,1,0,0,68,false,stim,true,2,876.2000000001863,1,0,1,75469,task3,243380,false,false,322,image-keyboard-response,3
true,4,0,1,0,true,q,false,true,0.0-2.0-0.8-0.75-3.75,1,0,0,81,false,stim,false,0,1005.5,1,1,0,75469,task3,245907,false,false,325,image-keyboard-response,4
true,4,0,1,0,true,q,false,true,0.0-2.0-0.8-0.76-3.76,1,0,0,81,false,stim,false,0,641.8000000007451,1,1,0,75469,task3,248058,false,false,328,image-keyboard-response,5
true,4,1,1,0,false,q,true,false,0.0-2.0-0.8-0.77-3.77,1,0,0,90,false,stim,false,2,1028.5,1,0,1,75469,task3,250606,false,false,331,image-keyboard-response,6
true,4,0,1,0,true,q,false,true,0.0-2.0-0.8-0.78-3.78,1,0,0,81,false,stim,false,2,869.6999999992549,1,1,1,75469,task3,253007,false,false,334,image-keyboard-response,7
true,4,0,1,0,true,q,false,true,0.0-2.0-0.8-0.79-3.79,1,0,0,81,false,stim,false,0,699.5999999996275,1,0,0,75469,task3,255225,false,false,337,image-keyboard-response,8
true,4,2,1,2,true,d,false,false,0.0-2.0-0.8-0.80-3.80,1,0,0,68,false,stim,false,1,436.70000000018626,1,1,2,75469,task3,257194,false,true,340,image-keyboard-response,9
true,4,0,1,2,false,d,true,false,0.0-2.0-0.9-0.81-3.81,1,0,0,81,false,stim,false,1,751.3999999994412,1,1,2,75469,task3,259467,false,false,343,image-keyboard-response,10
true,4,0,1,0,true,q,false,true,0.0-2.0-0.9-0.82-3.82,1,0,0,81,false,stim,false,0,618.1000000005588,1,0,0,75469,task3,261614,false,false,346,image-keyboard-response,11
true,5,0,2,2,false,d,false,false,0.0-2.0-0.9-0.83-3.83,0,1,1,81,true,stim,true,0,470.5,1,0,0,75469,task3,263616,false,false,349,image-keyboard-response,1
true,5,0,2,0,true,q,false,true,0.0-2.0-0.9-0.84-3.84,0,1,1,81,false,stim,false,0,590.7999999998137,1,1,1,75469,task3,265717,false,false,352,image-keyboard-response,2
true,5,0,2,2,false,d,false,false,0.0-2.0-0.9-0.85-3.85,0,1,1,81,false,stim,true,0,897.3999999994412,1,0,0,75469,task3,268141,false,false,355,image-keyboard-response,3
true,5,0,2,0,true,q,false,true,0.0-2.0-0.9-0.86-3.86,0,1,1,81,false,stim,false,0,809.2999999998137,1,1,1,75469,task3,270462,false,false,358,image-keyboard-response,4
true,5,0,2,0,true,q,false,true,0.0-2.0-0.9-0.87-3.87,0,1,1,81,false,stim,false,0,559.2000000001863,1,1,1,75469,task3,272535,false,false,361,image-keyboard-response,5
true,5,0,2,2,false,d,true,false,0.0-2.0-0.9-0.88-3.88,0,1,1,81,false,stim,false,2,402.20000000018626,1,1,2,75469,task3,274452,false,false,364,image-keyboard-response,6
true,5,1,2,2,false,d,true,false,0.0-2.0-0.9-0.89-3.89,0,1,1,90,false,stim,false,2,512.2000000001863,1,1,2,75469,task3,276487,false,false,367,image-keyboard-response,7
true,5,0,2,2,false,d,false,false,0.0-2.0-0.10-0.90-3.90,0,1,1,81,false,stim,true,0,606.0,1,0,0,75469,task3,278609,false,false,370,image-keyboard-response,8
true,5,0,2,0,true,q,false,false,0.0-2.0-0.10-0.91-3.91,0,1,1,81,false,stim,false,0,742.0999999996275,1,1,1,75469,task3,280862,false,true,373,image-keyboard-response,9
true,5,2,2,2,true,d,false,true,0.0-2.0-0.10-0.92-3.92,0,1,1,68,false,stim,false,0,913.7000000001863,1,0,0,75469,task3,283295,false,false,376,image-keyboard-response,10
true,5,2,2,2,true,d,false,true,0.0-2.0-0.10-0.93-3.93,0,1,1,68,false,stim,false,2,701.7000000001863,1,1,2,75469,task3,285513,false,false,379,image-keyboard-response,11
true,5,0,2,0,true,q,false,true,0.0-2.0-0.10-0.94-3.94,0,1,1,81,false,stim,false,0,536.4000000003725,1,1,1,75469,task3,287572,false,false,382,image-keyboard-response,12
true,5,2,2,2,true,d,false,true,0.0-2.0-0.10-0.95-3.95,0,1,1,68,false,stim,false,0,398.40000000037253,1,0,0,75469,task3,289502,false,false,385,image-keyboard-response,13
true,5,0,2,0,true,q,false,false,0.0-2.0-0.10-0.96-3.96,0,1,1,81,false,stim,false,0,745.7999999998137,1,1,1,75469,task3,291771,false,true,388,image-keyboard-response,14
true,5,2,2,2,true,d,false,true,0.0-2.0-0.10-0.97-3.97,0,1,1,68,false,stim,false,2,529.4000000003725,1,1,2,75469,task3,293823,false,false,391,image-keyboard-response,15
true,5,2,2,2,true,d,false,true,0.0-2.0-0.10-0.98-3.98,0,1,1,68,false,stim,false,2,457.29999999981374,1,1,2,75469,task3,295807,false,false,394,image-keyboard-response,16
true,5,0,2,0,true,q,false,true,0.0-2.0-0.11-0.99-3.99,0,1,1,81,false,stim,false,0,584.6000000005588,1,1,1,75469,task3,297900,false,false,397,image-keyboard-response,17
true,5,2,2,2,true,d,false,true,0.0-2.0-0.11-0.100-3.100,0,1,1,68,false,stim,false,2,442.40000000037253,1,1,2,75469,task3,299858,false,false,400,image-keyboard-response,18
true,5,2,2,2,true,d,false,true,0.0-2.0-0.11-0.101-3.101,0,1,1,68,false,stim,false,0,598.7000000001863,1,0,0,75469,task3,301982,false,false,403,image-keyboard-response,19
true,5,2,2,2,true,d,false,true,0.0-2.0-0.11-0.102-3.102,0,1,1,68,false,stim,false,0,599.5,1,0,0,75469,task3,304093,false,false,406,image-keyboard-response,20
true,5,2,2,2,true,d,false,true,0.0-2.0-0.11-0.103-3.103,0,1,1,68,false,stim,false,2,533.7999999998137,1,1,2,75469,task3,306141,false,false,409,image-keyboard-response,21
true,5,2,2,2,true,d,false,true,0.0-2.0-0.11-0.104-3.104,0,1,1,68,false,stim,false,2,382.79999999981374,1,1,2,75469,task3,308043,false,false,412,image-keyboard-response,22
true,5,2,2,2,true,d,false,true,0.0-2.0-0.11-0.105-3.105,0,1,1,68,false,stim,false,0,826.3999999994412,1,0,0,75469,task3,310393,false,false,415,image-keyboard-response,23
true,5,0,2,0,true,q,false,true,0.0-2.0-0.11-0.106-3.106,0,1,1,81,false,stim,false,0,577.4000000003725,1,1,1,75469,task3,312497,false,false,418,image-keyboard-response,24
true,5,0,2,0,true,q,false,true,0.0-2.0-0.11-0.107-3.107,0,1,1,81,false,stim,false,0,439.90000000037253,1,1,1,75469,task3,314461,false,false,421,image-keyboard-response,25
true,5,2,2,2,true,d,false,true,0.0-2.0-0.12-0.108-3.108,0,1,1,68,false,stim,false,0,465.59999999962747,1,0,0,75469,task3,316446,false,false,424,image-keyboard-response,26
true,5,2,2,2,true,d,false,true,0.0-2.0-0.12-0.109-3.109,0,1,1,68,false,stim,false,0,444.59999999962747,1,0,0,75469,task3,318408,false,false,427,image-keyboard-response,27
true,5,0,2,0,true,q,false,false,0.0-2.0-0.12-0.110-3.110,0,1,1,81,false,stim,false,0,624.0999999996275,1,1,1,75469,task3,320546,false,true,430,image-keyboard-response,28
true,6,2,1,1,false,z,false,false,0.0-2.0-0.12-0.111-3.111,0,1,0,68,true,stim,true,2,565.4000000003725,1,0,2,75469,task3,322619,false,false,433,image-keyboard-response,1
true,6,1,1,1,true,z,false,true,0.0-2.0-0.12-0.112-3.112,0,1,0,90,false,stim,false,2,822.2999999998137,1,0,2,75469,task3,324965,false,false,436,image-keyboard-response,2
true,6,0,1,0,true,q,false,true,0.0-2.0-0.12-0.113-3.113,0,1,0,81,false,stim,false,0,579.0,1,1,1,75469,task3,327068,false,false,439,image-keyboard-response,3
true,6,0,1,0,true,q,false,true,0.0-2.0-0.12-0.114-3.114,0,1,0,81,false,stim,false,0,396.0,1,1,1,75469,task3,328983,false,false,442,image-keyboard-response,4
true,6,2,1,0,false,q,false,false,0.0-2.0-0.12-0.115-3.115,0,1,0,68,false,stim,true,2,797.2999999998137,1,0,0,75469,task3,331301,false,false,445,image-keyboard-response,5
true,6,1,1,1,true,z,false,true,0.0-2.0-0.12-0.116-3.116,0,1,0,90,false,stim,false,2,540.5999999996275,1,0,2,75469,task3,333367,false,false,448,image-keyboard-response,6
true,6,1,1,1,true,z,false,true,0.0-2.0-0.13-0.117-3.117,0,1,0,90,false,stim,false,2,499.3999999994412,1,0,2,75469,task3,335388,false,false,451,image-keyboard-response,7
true,6,0,1,0,true,q,false,true,0.0-2.0-0.13-0.118-3.118,0,1,0,81,false,stim,false,2,958.7999999998137,1,0,0,75469,task3,337871,false,false,454,image-keyboard-response,8
true,6,0,1,0,true,q,false,true,0.0-2.0-0.13-0.119-3.119,0,1,0,81,false,stim,false,2,378.70000000018626,1,0,0,75469,task3,339773,false,false,457,image-keyboard-response,9
true,6,1,1,1,true,z,false,true,0.0-2.0-0.13-0.120-3.120,0,1,0,90,false,stim,false,2,611.5,1,0,2,75469,task3,341908,false,false,460,image-keyboard-response,10
true,6,0,1,0,true,q,false,true,0.0-2.0-0.13-0.121-3.121,0,1,0,81,false,stim,false,0,534.2999999998137,1,1,1,75469,task3,343963,false,false,463,image-keyboard-response,11
true,6,0,1,0,true,q,false,true,0.0-2.0-0.13-0.122-3.122,0,1,0,81,false,stim,false,2,660.6999999992549,1,0,0,75469,task3,346150,false,false,466,image-keyboard-response,12
true,6,0,1,0,true,q,false,true,0.0-2.0-0.13-0.123-3.123,0,1,0,81,false,stim,false,0,475.0,1,1,1,75469,task3,348151,false,false,469,image-keyboard-response,13
true,6,0,1,0,true,q,false,true,0.0-2.0-0.13-0.124-3.124,0,1,0,81,false,stim,false,0,486.8999999994412,1,1,1,75469,task3,350164,false,false,472,image-keyboard-response,14
true,6,1,1,1,true,z,false,true,0.0-2.0-0.13-0.125-3.125,0,1,0,90,false,stim,false,2,523.0,1,0,2,75469,task3,352209,false,false,475,image-keyboard-response,15
true,6,0,1,0,true,q,false,true,0.0-2.0-0.14-0.126-3.126,0,1,0,81,false,stim,false,0,301.0,1,1,1,75469,task3,354034,false,false,478,image-keyboard-response,16
true,6,0,1,0,true,q,false,true,0.0-2.0-0.14-0.127-3.127,0,1,0,81,false,stim,false,2,629.0999999996275,1,0,0,75469,task3,356186,false,false,481,image-keyboard-response,17
true,6,1,1,1,true,z,false,true,0.0-2.0-0.14-0.128-3.128,0,1,0,90,false,stim,false,2,422.3999999994412,1,0,2,75469,task3,358126,false,false,484,image-keyboard-response,18
true,6,1,1,1,true,z,false,false,0.0-2.0-0.14-0.129-3.129,0,1,0,90,false,stim,false,2,550.1999999992549,1,0,2,75469,task3,360193,false,true,487,image-keyboard-response,19
true,6,0,1,0,true,q,false,true,0.0-2.0-0.14-0.130-3.130,0,1,0,81,false,stim,false,0,428.70000000018626,1,1,1,75469,task3,362145,false,false,490,image-keyboard-response,20
true,6,0,1,0,true,q,false,true,0.0-2.0-0.14-0.131-3.131,0,1,0,81,false,stim,false,2,600.8000000007451,1,0,0,75469,task3,364274,false,false,493,image-keyboard-response,21
true,6,1,1,1,true,z,false,true,0.0-2.0-0.14-0.132-3.132,0,1,0,90,false,stim,false,2,430.69999999925494,1,0,2,75469,task3,366225,false,false,496,image-keyboard-response,22
true,6,0,1,0,true,q,false,true,0.0-2.0-0.14-0.133-3.133,0,1,0,81,false,stim,false,0,734.6000000005588,1,1,1,75469,task3,368477,false,false,499,image-keyboard-response,23
true,6,0,1,0,true,q,false,true,0.0-2.0-0.14-0.134-3.134,0,1,0,81,false,stim,false,2,510.79999999981374,1,1,0,75469,task3,370507,false,false,502,image-keyboard-response,24
true,6,0,1,0,true,q,false,true,0.0-2.0-0.15-0.135-3.135,0,1,0,81,false,stim,false,0,432.69999999925494,1,0,1,75469,task3,372463,false,false,505,image-keyboard-response,25
true,6,1,1,1,true,z,false,true,0.0-2.0-0.15-0.136-3.136,0,1,0,90,false,stim,false,2,926.9000000003725,1,0,2,75469,task3,374908,false,false,508,image-keyboard-response,26
true,6,0,1,0,true,q,false,false,0.0-2.0-0.15-0.137-3.137,0,1,0,81,false,stim,false,2,429.20000000018626,1,1,0,75469,task3,376852,false,true,511,image-keyboard-response,27
true,6,0,1,0,true,q,false,true,0.0-2.0-0.15-0.138-3.138,0,1,0,81,false,stim,false,2,610.7000000001863,1,1,0,75469,task3,378980,false,false,514,image-keyboard-response,28
true,7,1,1,2,false,d,false,false,0.0-2.0-0.15-0.139-3.139,1,0,0,90,true,stim,true,1,438.09999999962747,1,0,2,75469,task3,380946,false,false,517,image-keyboard-response,1
true,7,0,1,0,true,q,false,true,0.0-2.0-0.15-0.140-3.140,1,0,0,81,false,stim,false,0,571.2999999998137,1,1,0,75469,task3,383035,false,false,520,image-keyboard-response,2
true,7,1,1,2,false,d,false,false,0.0-2.0-0.15-0.141-3.141,1,0,0,90,false,stim,true,1,413.0,1,0,2,75469,task3,384974,false,false,523,image-keyboard-response,3
true,7,0,1,1,false,z,false,true,0.0-2.0-0.15-0.142-3.142,1,0,0,81,false,stim,true,0,451.09999999962747,1,0,1,75469,task3,386952,false,true,526,image-keyboard-response,4
true,7,0,1,1,false,z,false,false,0.0-2.0-0.15-0.143-3.143,1,0,0,81,false,stim,true,0,581.7000000001863,1,0,1,75469,task3,389058,false,false,529,image-keyboard-response,5
true,7,2,1,2,true,d,false,true,0.0-2.0-0.16-0.144-3.144,1,0,0,68,false,stim,false,1,386.79999999981374,1,0,2,75469,task3,390963,false,false,532,image-keyboard-response,6
true,7,0,1,1,false,z,false,false,0.0-2.0-0.16-0.145-3.145,1,0,0,81,false,stim,true,0,625.7000000001863,1,0,1,75469,task3,393100,false,false,535,image-keyboard-response,7
true,7,2,1,2,true,d,false,true,0.0-2.0-0.16-0.146-3.146,1,0,0,68,false,stim,false,1,460.79999999981374,1,0,2,75469,task3,395081,false,false,538,image-keyboard-response,8
true,7,0,1,0,true,q,false,true,0.0-2.0-0.16-0.147-3.147,1,0,0,81,false,stim,false,0,700.7000000001863,1,1,0,75469,task3,397299,false,false,541,image-keyboard-response,9
true,7,2,1,2,true,d,false,true,0.0-2.0-0.16-0.148-3.148,1,0,0,68,false,stim,false,1,568.5999999996275,1,0,2,75469,task3,399380,false,false,544,image-keyboard-response,10
true,7,0,1,0,true,q,false,true,0.0-2.0-0.16-0.149-3.149,1,0,0,81,false,stim,false,0,616.8999999994412,1,1,0,75469,task3,401519,false,false,547,image-keyboard-response,11
true,7,0,1,0,true,q,false,true,0.0-2.0-0.16-0.150-3.150,1,0,0,81,false,stim,false,0,553.3999999994412,1,1,0,75469,task3,403584,false,false,550,image-keyboard-response,12
true,7,1,1,1,true,z,false,true,0.0-2.0-0.16-0.151-3.151,1,0,0,90,false,stim,false,0,451.5,1,0,1,75469,task3,405560,false,false,553,image-keyboard-response,13
true,7,1,1,1,true,z,false,true,0.0-2.0-0.16-0.152-3.152,1,0,0,90,false,stim,false,0,376.69999999925494,1,0,1,75469,task3,407455,false,false,556,image-keyboard-response,14
true,7,0,1,0,true,q,false,true,0.0-2.0-0.17-0.153-3.153,1,0,0,81,false,stim,false,0,693.1000000005588,1,1,0,75469,task3,409667,false,false,559,image-keyboard-response,15
true,7,0,1,0,true,q,false,true,0.0-2.0-0.17-0.154-3.154,1,0,0,81,false,stim,false,0,483.29999999981374,1,1,0,75469,task3,411673,false,false,562,image-keyboard-response,16
true,7,2,1,2,true,d,false,true,0.0-2.0-0.17-0.155-3.155,1,0,0,68,false,stim,false,1,487.90000000037253,1,0,2,75469,task3,413695,false,false,565,image-keyboard-response,17
true,7,2,1,2,true,d,false,true,0.0-2.0-0.17-0.156-3.156,1,0,0,68,false,stim,false,1,547.0,1,0,2,75469,task3,415772,false,false,568,image-keyboard-response,18
true,7,1,1,1,true,z,false,true,0.0-2.0-0.17-0.157-3.157,1,0,0,90,false,stim,false,0,611.7000000001863,1,0,1,75469,task3,417901,false,false,571,image-keyboard-response,19
true,7,0,1,0,true,q,false,true,0.0-2.0-0.17-0.158-3.158,1,0,0,81,false,stim,false,0,588.0999999996275,1,1,0,75469,task3,420001,false,false,574,image-keyboard-response,20
true,7,0,1,1,false,z,false,false,0.0-2.0-0.17-0.159-3.159,1,0,0,81,false,stim,true,0,504.0,1,0,1,75469,task3,422030,false,false,577,image-keyboard-response,21
true,7,1,1,1,true,z,false,true,0.0-2.0-0.17-0.160-3.160,1,0,0,90,false,stim,false,0,427.3999999994412,1,0,1,75469,task3,423980,false,false,580,image-keyboard-response,22
true,7,2,1,2,true,d,false,true,0.0-2.0-0.17-0.161-3.161,1,0,0,68,false,stim,false,1,447.90000000037253,1,0,2,75469,task3,425945,false,false,583,image-keyboard-response,23
true,7,2,1,2,true,d,false,true,0.0-2.0-0.18-0.162-3.162,1,0,0,68,false,stim,false,1,422.0,1,0,2,75469,task3,427898,false,false,586,image-keyboard-response,24
true,7,1,1,1,true,z,false,true,0.0-2.0-0.18-0.163-3.163,1,0,0,90,false,stim,false,0,710.6000000005588,1,1,1,75469,task3,430116,false,false,589,image-keyboard-response,25
true,7,0,1,0,true,q,false,true,0.0-2.0-0.18-0.164-3.164,1,0,0,81,false,stim,false,0,375.29999999981374,1,0,0,75469,task3,432013,false,false,592,image-keyboard-response,26
true,7,0,1,0,true,q,false,true,0.0-2.0-0.18-0.165-3.165,1,0,0,81,false,stim,false,0,635.6000000005588,1,0,0,75469,task3,434173,false,false,595,image-keyboard-response,27
true,7,0,1,0,true,q,false,true,0.0-2.0-0.18-0.166-3.166,1,0,0,81,false,stim,false,0,532.5,1,0,0,75469,task3,436228,false,false,598,image-keyboard-response,28
true,7,1,1,1,true,z,false,true,0.0-2.0-0.18-0.167-3.167,1,0,0,90,false,stim,false,0,715.7999999998137,1,1,1,75469,task3,438471,false,false,601,image-keyboard-response,29
true,8,2,1,0,false,q,false,false,0.0-2.0-0.18-0.168-3.168,0,1,0,68,true,stim,true,2,494.40000000037253,1,0,2,75469,task3,440492,false,false,604,image-keyboard-response,1
true,8,2,1,0,false,q,false,false,0.0-2.0-0.18-0.169-3.169,0,1,0,68,false,stim,true,2,641.5,1,0,2,75469,task3,442660,false,false,607,image-keyboard-response,2
true,8,1,1,1,true,z,false,true,0.0-2.0-0.18-0.170-3.170,0,1,0,90,false,stim,false,1,600.7999999998137,1,1,1,75469,task3,444780,false,false,610,image-keyboard-response,3
true,8,1,1,0,false,q,true,false,0.0-2.0-0.19-0.171-3.171,0,1,0,90,false,stim,false,2,1219.3999999994412,1,0,2,75469,task3,447517,false,false,613,image-keyboard-response,4
true,8,1,1,1,true,z,false,true,0.0-2.0-0.19-0.172-3.172,0,1,0,90,false,stim,false,1,711.0,1,1,1,75469,task3,449751,false,false,616,image-keyboard-response,5
true,8,0,1,0,true,q,false,true,0.0-2.0-0.19-0.173-3.173,0,1,0,81,false,stim,false,2,465.29999999981374,1,0,2,75469,task3,451741,false,false,619,image-keyboard-response,6
true,8,1,1,1,true,z,false,true,0.0-2.0-0.19-0.174-3.174,0,1,0,90,false,stim,false,1,1556.7999999998137,1,1,1,75469,task3,454819,false,false,622,image-keyboard-response,7
true,8,0,1,0,true,q,false,true,0.0-2.0-0.19-0.175-3.175,0,1,0,81,false,stim,false,2,779.5999999996275,1,0,2,75469,task3,457126,false,false,625,image-keyboard-response,8
true,8,1,1,1,true,z,false,false,0.0-2.0-0.19-0.176-3.176,0,1,0,90,false,stim,false,1,502.20000000018626,1,1,1,75469,task3,459137,false,true,628,image-keyboard-response,9
true,8,0,1,2,false,d,false,false,0.0-2.0-0.19-0.177-3.177,0,1,0,81,false,stim,true,0,545.1000000005588,1,0,0,75469,task3,461206,false,false,631,image-keyboard-response,10
true,8,1,1,2,false,d,true,false,0.0-2.0-0.19-0.178-3.178,0,1,0,90,false,stim,false,0,782.2999999998137,1,1,0,75469,task3,463505,false,false,634,image-keyboard-response,11
true,8,2,1,2,true,d,false,true,0.0-2.0-0.19-0.179-3.179,0,1,0,68,false,stim,false,0,570.5,1,1,0,75469,task3,465601,false,false,637,image-keyboard-response,12
true,8,2,1,2,true,d,false,true,0.0-2.0-0.20-0.180-3.180,0,1,0,68,false,stim,false,0,731.2000000001863,1,1,0,75469,task3,467864,false,false,640,image-keyboard-response,13
true,8,0,1,0,true,q,false,true,0.0-2.0-0.20-0.181-3.181,0,1,0,81,false,stim,false,2,703.1000000005588,1,1,2,75469,task3,470092,false,false,643,image-keyboard-response,14
true,8,2,1,2,true,d,false,true,0.0-2.0-0.20-0.182-3.182,0,1,0,68,false,stim,false,0,382.19999999925494,1,1,0,75469,task3,472003,false,false,646,image-keyboard-response,15
true,9,0,2,2,false,d,true,false,0.0-2.0-0.20-0.183-3.183,1,0,1,81,true,stim,false,1,581.0,1,0,1,75469,task3,474102,false,false,649,image-keyboard-response,1
true,9,0,2,0,true,q,false,true,0.0-2.0-0.20-0.184-3.184,1,0,1,81,false,stim,false,0,637.5999999996275,1,1,2,75469,task3,476266,false,false,652,image-keyboard-response,2
true,9,2,2,2,true,d,false,true,0.0-2.0-0.20-0.185-3.185,1,0,1,68,false,stim,false,1,1229.2000000001863,1,0,1,75469,task3,479014,false,false,655,image-keyboard-response,3
true,9,0,2,0,true,q,false,true,0.0-2.0-0.20-0.186-3.186,1,0,1,81,false,stim,false,0,527.0999999996275,1,1,2,75469,task3,481059,false,false,658,image-keyboard-response,4
true,9,2,2,2,true,d,false,true,0.0-2.0-0.20-0.187-3.187,1,0,1,68,false,stim,false,2,532.0,1,1,0,75469,task3,483114,false,false,661,image-keyboard-response,5
true,9,2,2,2,true,d,false,true,0.0-2.0-0.20-0.188-3.188,1,0,1,68,false,stim,false,1,739.2999999998137,1,0,1,75469,task3,485368,false,false,664,image-keyboard-response,6
true,9,2,2,2,true,d,false,true,0.0-2.0-0.21-0.189-3.189,1,0,1,68,false,stim,false,2,666.3000000007451,1,1,0,75469,task3,487568,false,false,667,image-keyboard-response,7
true,9,2,2,2,true,d,false,true,0.0-2.0-0.21-0.190-3.190,1,0,1,68,false,stim,false,2,376.79999999981374,1,0,0,75469,task3,489453,false,false,670,image-keyboard-response,8
true,9,2,2,2,true,d,false,true,0.0-2.0-0.21-0.191-3.191,1,0,1,68,false,stim,false,2,448.20000000018626,1,0,0,75469,task3,491425,false,false,673,image-keyboard-response,9
true,9,2,2,2,true,d,false,true,0.0-2.0-0.21-0.192-3.192,1,0,1,68,false,stim,false,1,526.7999999998137,1,1,1,75469,task3,493477,false,false,676,image-keyboard-response,10
true,9,0,2,0,true,q,false,true,0.0-2.0-0.21-0.193-3.193,1,0,1,81,false,stim,false,0,511.0,1,1,2,75469,task3,495508,false,false,679,image-keyboard-response,11
true,9,0,2,0,true,q,false,true,0.0-2.0-0.21-0.194-3.194,1,0,1,81,false,stim,false,0,469.59999999962747,1,1,2,75469,task3,497487,false,false,682,image-keyboard-response,12
true,10,2,2,2,true,d,false,true,0.0-2.0-0.21-0.195-3.195,0,1,1,68,true,stim,false,2,2035.0999999996275,1,1,1,75469,task3,501044,false,false,685,image-keyboard-response,1
true,10,2,2,2,true,d,false,true,0.0-2.0-0.21-0.196-3.196,0,1,1,68,false,stim,false,2,403.19999999925494,1,1,1,75469,task3,502973,false,false,688,image-keyboard-response,2
true,10,0,2,0,true,q,false,true,0.0-2.0-0.21-0.197-3.197,0,1,1,81,false,stim,false,0,480.70000000018626,1,1,2,75469,task3,504984,false,false,691,image-keyboard-response,3
true,10,2,2,2,true,d,false,true,0.0-2.0-0.22-0.198-3.198,0,1,1,68,false,stim,false,2,505.79999999981374,1,1,1,75469,task3,507013,false,false,694,image-keyboard-response,4
true,10,0,2,0,true,q,false,true,0.0-2.0-0.22-0.199-3.199,0,1,1,81,false,stim,false,0,471.20000000018626,1,1,2,75469,task3,509011,false,false,697,image-keyboard-response,5
true,10,2,2,1,false,z,false,false,0.0-2.0-0.22-0.200-3.200,0,1,1,68,false,stim,true,2,521.7000000001863,1,0,0,75469,task3,511049,false,false,700,image-keyboard-response,6
true,10,0,2,0,true,q,false,true,0.0-2.0-0.22-0.201-3.201,0,1,1,81,false,stim,false,0,429.3999999994412,1,1,2,75469,task3,513008,false,false,703,image-keyboard-response,7
true,10,2,2,2,true,d,false,true,0.0-2.0-0.22-0.202-3.202,0,1,1,68,false,stim,false,2,610.7000000001863,1,1,1,75469,task3,515139,false,false,706,image-keyboard-response,8
true,10,1,2,1,true,z,false,true,0.0-2.0-0.22-0.203-3.203,0,1,1,90,false,stim,false,2,371.90000000037253,1,0,0,75469,task3,517039,false,false,709,image-keyboard-response,9
true,10,0,2,0,true,q,false,true,0.0-2.0-0.22-0.204-3.204,0,1,1,81,false,stim,false,0,455.20000000018626,1,1,2,75469,task3,519023,false,false,712,image-keyboard-response,10
true,10,2,2,2,true,d,false,true,0.0-2.0-0.22-0.205-3.205,0,1,1,68,false,stim,false,2,682.5999999996275,1,1,1,75469,task3,521230,false,false,715,image-keyboard-response,11
true,10,1,2,1,true,z,false,false,0.0-2.0-0.22-0.206-3.206,0,1,1,90,false,stim,false,2,339.5,1,0,0,75469,task3,523093,false,true,718,image-keyboard-response,12
true,10,0,2,0,true,q,false,false,0.0-2.0-0.23-0.207-3.207,0,1,1,81,false,stim,false,0,534.0999999996275,1,1,2,75469,task3,525142,false,true,721,image-keyboard-response,13
true,10,2,2,2,true,d,false,true,0.0-2.0-0.23-0.208-3.208,0,1,1,68,false,stim,false,2,864.0,1,1,1,75469,task3,527524,false,false,724,image-keyboard-response,14
true,10,1,2,1,true,z,false,true,0.0-2.0-0.23-0.209-3.209,0,1,1,90,false,stim,false,2,559.7000000001863,1,0,0,75469,task3,529596,false,false,727,image-keyboard-response,15
true,10,2,2,2,true,d,false,true,0.0-2.0-0.23-0.210-3.210,0,1,1,68,false,stim,false,2,693.6000000005588,1,1,1,75469,task3,531811,false,false,730,image-keyboard-response,16
true,10,1,2,1,true,z,false,true,0.0-2.0-0.23-0.211-3.211,0,1,1,90,false,stim,false,2,501.1000000005588,1,0,0,75469,task3,533829,false,false,733,image-keyboard-response,17
true,10,2,2,2,true,d,false,true,0.0-2.0-0.23-0.212-3.212,0,1,1,68,false,stim,false,2,515.5,1,1,1,75469,task3,535859,false,false,736,image-keyboard-response,18
true,10,1,2,1,true,z,false,true,0.0-2.0-0.23-0.213-3.213,0,1,1,90,false,stim,false,2,530.2999999998137,1,0,0,75469,task3,537906,false,false,739,image-keyboard-response,19
true,10,1,2,0,false,q,true,false,0.0-2.0-0.23-0.214-3.214,0,1,1,90,false,stim,false,0,906.7000000001863,1,1,2,75469,task3,540330,false,false,742,image-keyboard-response,20
true,10,0,2,0,true,q,false,true,0.0-2.0-0.23-0.215-3.215,0,1,1,81,false,stim,false,0,539.0,1,1,2,75469,task3,542388,false,false,745,image-keyboard-response,21
true,10,2,2,2,true,d,false,true,0.0-2.0-0.24-0.216-3.216,0,1,1,68,false,stim,false,2,559.0,1,1,1,75469,task3,544476,false,false,748,image-keyboard-response,22
true,10,0,2,0,true,q,false,true,0.0-2.0-0.24-0.217-3.217,0,1,1,81,false,stim,false,0,631.5999999996275,1,0,2,75469,task3,546646,false,false,751,image-keyboard-response,23
true,10,1,2,1,true,z,false,true,0.0-2.0-0.24-0.218-3.218,0,1,1,90,false,stim,false,2,551.4000000003725,1,0,0,75469,task3,548707,false,false,754,image-keyboard-response,24
true,10,0,2,0,true,q,false,true,0.0-2.0-0.24-0.219-3.219,0,1,1,81,false,stim,false,0,916.5,1,0,2,75469,task3,551143,false,false,757,image-keyboard-response,25
true,10,1,2,1,true,z,false,true,0.0-2.0-0.24-0.220-3.220,0,1,1,90,false,stim,false,2,988.9000000003725,1,0,0,75469,task3,553652,false,false,760,image-keyboard-response,26
true,11,0,1,1,false,z,false,false,0.0-2.0-0.24-0.221-3.221,0,1,0,81,true,stim,true,0,610.5999999996275,1,0,2,75469,task3,555787,false,false,763,image-keyboard-response,1
true,11,2,1,2,true,d,false,true,0.0-2.0-0.24-0.222-3.222,0,1,0,68,false,stim,false,2,738.8999999994412,1,1,1,75469,task3,558060,false,false,766,image-keyboard-response,2
true,11,1,1,2,false,d,false,false,0.0-2.0-0.24-0.223-3.223,0,1,0,90,false,stim,true,1,478.20000000018626,1,0,0,75469,task3,560063,false,false,769,image-keyboard-response,3
true,11,2,1,2,true,d,false,true,0.0-2.0-0.24-0.224-3.224,0,1,0,68,false,stim,false,2,762.8999999994412,1,1,1,75469,task3,562354,false,false,772,image-keyboard-response,4
true,11,0,1,1,false,z,false,false,0.0-2.0-0.25-0.225-3.225,0,1,0,81,false,stim,true,0,652.1000000005588,1,0,2,75469,task3,564528,false,false,775,image-keyboard-response,5
true,11,0,1,1,false,z,false,true,0.0-2.0-0.25-0.226-3.226,0,1,0,81,false,stim,true,0,684.8000000007451,1,0,2,75469,task3,566725,false,true,778,image-keyboard-response,6
true,11,1,1,2,false,d,false,false,0.0-2.0-0.25-0.227-3.227,0,1,0,90,false,stim,true,1,614.8999999994412,1,0,0,75469,task3,568857,false,false,781,image-keyboard-response,7
true,11,1,1,2,false,d,false,false,0.0-2.0-0.25-0.228-3.228,0,1,0,90,false,stim,true,1,337.29999999981374,1,0,0,75469,task3,570705,false,false,784,image-keyboard-response,8
true,11,2,1,2,true,d,false,false,0.0-2.0-0.25-0.229-3.229,0,1,0,68,false,stim,false,2,691.4000000003725,1,1,1,75469,task3,572921,false,true,787,image-keyboard-response,9
true,11,0,1,1,false,z,false,true,0.0-2.0-0.25-0.230-3.230,0,1,0,81,false,stim,true,0,812.0,1,1,2,75469,task3,575261,false,true,790,image-keyboard-response,10
true,11,1,1,2,false,d,true,false,0.0-2.0-0.25-0.231-3.231,0,1,0,90,false,stim,false,2,710.3999999994412,1,0,1,75469,task3,577495,false,false,793,image-keyboard-response,11
true,11,1,1,2,false,d,false,false,0.0-2.0-0.25-0.232-3.232,0,1,0,90,false,stim,true,1,681.0,1,1,0,75469,task3,579700,false,false,796,image-keyboard-response,12
true,11,2,1,2,true,d,false,true,0.0-2.0-0.25-0.233-3.233,0,1,0,68,false,stim,false,2,671.7000000001863,1,0,1,75469,task3,581885,false,false,799,image-keyboard-response,13
true,11,2,1,2,true,d,false,true,0.0-2.0-0.26-0.234-3.234,0,1,0,68,false,stim,false,2,446.40000000037253,1,0,1,75469,task3,583857,false,false,802,image-keyboard-response,14
true,12,2,2,2,true,d,false,true,0.0-2.0-0.26-0.235-3.235,1,0,1,68,true,stim,false,2,848.3999999994412,1,1,0,75469,task3,586221,false,false,805,image-keyboard-response,1
true,12,0,2,1,false,z,true,false,0.0-2.0-0.26-0.236-3.236,1,0,1,81,false,stim,false,1,414.90000000037253,1,1,2,75469,task3,588152,false,false,808,image-keyboard-response,2
true,12,2,2,2,true,d,false,true,0.0-2.0-0.26-0.237-3.237,1,0,1,68,false,stim,false,2,515.9000000003725,1,1,0,75469,task3,590199,false,false,811,image-keyboard-response,3
true,12,1,2,1,true,z,false,true,0.0-2.0-0.26-0.238-3.238,1,0,1,90,false,stim,false,1,607.4000000003725,1,1,2,75469,task3,592320,false,false,814,image-keyboard-response,4
true,12,1,2,1,true,z,false,false,0.0-2.0-0.26-0.239-3.239,1,0,1,90,false,stim,false,1,472.1000000005588,1,1,2,75469,task3,594308,false,true,817,image-keyboard-response,5
true,12,2,2,0,false,q,false,false,0.0-2.0-0.26-0.240-3.240,1,0,1,68,false,stim,true,2,521.6000000005588,1,0,1,75469,task3,596357,false,false,820,image-keyboard-response,6
true,12,0,2,0,true,q,false,true,0.0-2.0-0.26-0.241-3.241,1,0,1,81,false,stim,false,2,564.7000000001863,1,0,1,75469,task3,598449,false,false,823,image-keyboard-response,7
true,12,2,2,2,true,d,false,false,0.0-2.0-0.26-0.242-3.242,1,0,1,68,false,stim,false,2,925.8999999994412,1,1,0,75469,task3,600910,false,true,826,image-keyboard-response,8
true,12,1,2,2,false,d,true,false,0.0-2.0-0.27-0.243-3.243,1,0,1,90,false,stim,false,2,733.0,1,1,0,75469,task3,603169,false,false,829,image-keyboard-response,9
true,12,1,2,1,true,z,false,true,0.0-2.0-0.27-0.244-3.244,1,0,1,90,false,stim,false,1,782.0999999996275,1,1,2,75469,task3,605479,false,false,832,image-keyboard-response,10
true,12,1,2,1,true,z,false,true,0.0-2.0-0.27-0.245-3.245,1,0,1,90,false,stim,false,1,454.5,1,1,2,75469,task3,607460,false,false,835,image-keyboard-response,11
true,12,0,2,0,true,q,false,true,0.0-2.0-0.27-0.246-3.246,1,0,1,81,false,stim,false,2,569.2999999998137,1,0,1,75469,task3,609545,false,false,838,image-keyboard-response,12
true,12,0,2,0,true,q,false,true,0.0-2.0-0.27-0.247-3.247,1,0,1,81,false,stim,false,2,657.2000000001863,1,0,1,75469,task3,611721,false,false,841,image-keyboard-response,13
true,12,0,2,2,false,d,true,true,0.0-2.0-0.27-0.248-3.248,1,0,1,81,false,stim,false,2,455.70000000018626,1,1,0,75469,task3,613706,false,true,844,image-keyboard-response,14
true,12,0,2,2,false,d,true,false,0.0-2.0-0.27-0.249-3.249,1,0,1,81,false,stim,false,2,367.5,1,1,0,75469,task3,615586,false,false,847,image-keyboard-response,15
true,12,0,2,0,true,q,false,true,0.0-2.0-0.27-0.250-3.250,1,0,1,81,false,stim,false,2,411.09999999962747,1,0,1,75469,task3,617534,false,false,850,image-keyboard-response,16
true,12,1,2,1,true,z,false,true,0.0-2.0-0.27-0.251-3.251,1,0,1,90,false,stim,false,1,512.4000000003725,1,1,2,75469,task3,619580,false,false,853,image-keyboard-response,17
true,12,0,2,0,true,q,false,true,0.0-2.0-0.28-0.252-3.252,1,0,1,81,false,stim,false,2,465.09999999962747,1,0,1,75469,task3,621563,false,false,856,image-keyboard-response,18
true,12,0,2,0,true,q,false,true,0.0-2.0-0.28-0.253-3.253,1,0,1,81,false,stim,false,2,535.7999999998137,1,0,1,75469,task3,623627,false,false,859,image-keyboard-response,19
true,12,0,2,2,false,d,true,false,0.0-2.0-0.28-0.254-3.254,1,0,1,81,false,stim,false,2,917.8999999994412,1,1,0,75469,task3,626078,false,false,862,image-keyboard-response,20
true,12,2,2,2,true,d,false,false,0.0-2.0-0.28-0.255-3.255,1,0,1,68,false,stim,false,2,498.5,1,1,0,75469,task3,628112,false,true,865,image-keyboard-response,21
true,12,1,2,1,true,z,false,true,0.0-2.0-0.28-0.256-3.256,1,0,1,90,false,stim,false,1,539.9000000003725,1,1,2,75469,task3,630179,false,false,868,image-keyboard-response,22
true,12,0,2,0,true,q,false,true,0.0-2.0-0.28-0.257-3.257,1,0,1,81,false,stim,false,2,805.2999999998137,1,0,1,75469,task3,632505,false,false,871,image-keyboard-response,23
true,12,1,2,2,false,d,true,true,0.0-2.0-0.28-0.258-3.258,1,0,1,90,false,stim,false,2,431.5,1,1,0,75469,task3,634454,false,true,874,image-keyboard-response,24
true,12,1,2,1,true,z,false,false,0.0-2.0-0.28-0.259-3.259,1,0,1,90,false,stim,false,1,484.70000000018626,1,1,2,75469,task3,636460,false,true,877,image-keyboard-response,25
true,12,1,2,1,true,z,false,true,0.0-2.0-0.28-0.260-3.260,1,0,1,90,false,stim,false,1,637.2000000001863,1,1,2,75469,task3,638628,false,false,880,image-keyboard-response,26
true,12,0,2,0,true,q,false,true,0.0-2.0-0.29-0.261-3.261,1,0,1,81,false,stim,false,2,558.0999999996275,1,0,1,75469,task3,640707,false,false,883,image-keyboard-response,27
true,13,1,2,1,true,z,false,true,0.0-2.0-0.29-0.262-3.262,1,0,1,90,true,stim,false,1,383.90000000037253,1,1,2,75469,task3,642612,false,false,886,image-keyboard-response,1
true,13,1,2,2,false,d,true,false,0.0-2.0-0.29-0.263-3.263,1,0,1,90,false,stim,false,2,422.8999999994412,1,1,0,75469,task3,644563,false,false,889,image-keyboard-response,2
true,13,1,2,2,false,d,true,false,0.0-2.0-0.29-0.264-3.264,1,0,1,90,false,stim,false,2,516.0,1,1,0,75469,task3,646605,false,false,892,image-keyboard-response,3
true,13,0,2,2,false,d,true,false,0.0-2.0-0.29-0.265-3.265,1,0,1,81,false,stim,false,2,640.7999999998137,1,1,0,75469,task3,648772,false,false,895,image-keyboard-response,4
true,13,1,2,1,true,z,false,true,0.0-2.0-0.29-0.266-3.266,1,0,1,90,false,stim,false,1,360.79999999981374,1,1,2,75469,task3,650649,false,false,898,image-keyboard-response,5
true,13,1,2,1,true,z,false,true,0.0-2.0-0.29-0.267-3.267,1,0,1,90,false,stim,false,0,508.5,1,0,1,75469,task3,652689,false,false,901,image-keyboard-response,6
true,13,1,2,1,true,z,false,true,0.0-2.0-0.29-0.268-3.268,1,0,1,90,false,stim,false,0,355.80000000074506,1,0,1,75469,task3,654566,false,false,904,image-keyboard-response,7
true,13,1,2,1,true,z,false,true,0.0-2.0-0.29-0.269-3.269,1,0,1,90,false,stim,false,1,493.79999999981374,1,1,2,75469,task3,656577,false,false,907,image-keyboard-response,8
true,13,1,2,1,true,z,false,true,0.0-2.0-0.30-0.270-3.270,1,0,1,90,false,stim,false,0,382.5,1,0,1,75469,task3,658492,false,false,910,image-keyboard-response,9
true,13,1,2,1,true,z,false,true,0.0-2.0-0.30-0.271-3.271,1,0,1,90,false,stim,false,0,357.0,1,0,1,75469,task3,660375,false,false,913,image-keyboard-response,10
true,13,2,2,2,true,d,false,true,0.0-2.0-0.30-0.272-3.272,1,0,1,68,false,stim,false,2,409.5,1,1,0,75469,task3,662296,false,false,916,image-keyboard-response,11
true,13,2,2,2,true,d,false,false,0.0-2.0-0.30-0.273-3.273,1,0,1,68,false,stim,false,2,430.8999999994412,1,1,0,75469,task3,664234,false,true,919,image-keyboard-response,12
true,13,1,2,1,true,z,false,true,0.0-2.0-0.30-0.274-3.274,1,0,1,90,false,stim,false,1,560.5,1,1,2,75469,task3,666311,false,false,922,image-keyboard-response,13
true,13,1,2,1,true,z,false,true,0.0-2.0-0.30-0.275-3.275,1,0,1,90,false,stim,false,1,417.70000000018626,1,1,2,75469,task3,668255,false,false,925,image-keyboard-response,14
true,13,1,2,1,true,z,false,true,0.0-2.0-0.30-0.276-3.276,1,0,1,90,false,stim,false,1,404.29999999981374,1,1,2,75469,task3,670174,false,false,928,image-keyboard-response,15
true,13,1,2,1,true,z,false,true,0.0-2.0-0.30-0.277-3.277,1,0,1,90,false,stim,false,0,592.1000000005588,1,0,1,75469,task3,672292,false,false,931,image-keyboard-response,16
true,13,0,2,2,false,d,true,false,0.0-2.0-0.30-0.278-3.278,1,0,1,81,false,stim,false,2,369.79999999981374,1,1,0,75469,task3,674187,false,false,934,image-keyboard-response,17
true,13,1,2,1,true,z,false,true,0.0-2.0-0.31-0.279-3.279,1,0,1,90,false,stim,false,1,350.40000000037253,1,1,2,75469,task3,676070,false,false,937,image-keyboard-response,18
true,13,1,2,1,true,z,false,false,0.0-2.0-0.31-0.280-3.280,1,0,1,90,false,stim,false,1,398.1000000005588,1,1,2,75469,task3,677993,false,true,940,image-keyboard-response,19
true,13,1,2,1,true,z,false,true,0.0-2.0-0.31-0.281-3.281,1,0,1,90,false,stim,false,0,632.5,1,0,1,75469,task3,680160,false,false,943,image-keyboard-response,20
true,13,2,2,2,true,d,false,true,0.0-2.0-0.31-0.282-3.282,1,0,1,68,false,stim,false,2,659.2000000001863,1,0,0,75469,task3,682349,false,false,946,image-keyboard-response,21
true,13,1,2,1,true,z,false,true,0.0-2.0-0.31-0.283-3.283,1,0,1,90,false,stim,false,0,586.8999999994412,1,0,1,75469,task3,684455,false,false,949,image-keyboard-response,22
true,13,2,2,2,true,d,false,true,0.0-2.0-0.31-0.284-3.284,1,0,1,68,false,stim,false,2,376.0,1,0,0,75469,task3,686355,false,false,952,image-keyboard-response,23
true,13,2,2,2,true,d,false,true,0.0-2.0-0.31-0.285-3.285,1,0,1,68,false,stim,false,2,449.0,1,0,0,75469,task3,688337,false,false,955,image-keyboard-response,24
true,14,1,1,1,true,z,false,true,0.0-2.0-0.31-0.286-3.286,0,0,1,90,true,stim,false,1,691.9000000003725,1,1,2,75469,task3,690543,false,false,958,image-keyboard-response,1
true,14,1,1,2,false,d,false,true,0.0-2.0-0.31-0.287-3.287,0,0,1,90,false,stim,true,1,647.8999999994412,1,0,1,75469,task3,692718,false,true,961,image-keyboard-response,2
true,14,2,1,1,false,z,false,false,0.0-2.0-0.32-0.288-3.288,0,0,1,68,false,stim,true,2,442.0,1,0,0,75469,task3,694677,false,false,964,image-keyboard-response,3
true,14,1,1,2,false,d,false,true,0.0-2.0-0.32-0.289-3.289,0,0,1,90,false,stim,true,1,373.20000000018626,1,0,1,75469,task3,696574,false,true,967,image-keyboard-response,4
true,14,1,1,1,true,z,false,true,0.0-2.0-0.32-0.290-3.290,0,0,1,90,false,stim,false,1,404.29999999981374,1,1,2,75469,task3,698491,false,false,970,image-keyboard-response,5
true,14,1,1,1,true,z,false,true,0.0-2.0-0.32-0.291-3.291,0,0,1,90,false,stim,false,1,370.79999999981374,1,1,2,75469,task3,700385,false,false,973,image-keyboard-response,6
true,14,1,1,2,false,d,false,true,0.0-2.0-0.32-0.292-3.292,0,0,1,90,false,stim,true,1,490.29999999981374,1,0,1,75469,task3,702390,false,true,976,image-keyboard-response,7
true,14,2,1,1,false,z,false,false,0.0-2.0-0.32-0.293-3.293,0,0,1,68,false,stim,true,2,718.3999999994412,1,0,0,75469,task3,704618,false,false,979,image-keyboard-response,8
true,14,1,1,1,true,z,false,true,0.0-2.0-0.32-0.294-3.294,0,0,1,90,false,stim,false,1,358.19999999925494,1,1,2,75469,task3,706497,false,false,982,image-keyboard-response,9
true,14,1,1,2,false,d,false,false,0.0-2.0-0.32-0.295-3.295,0,0,1,90,false,stim,true,1,566.3999999994412,1,0,1,75469,task3,708578,false,false,985,image-keyboard-response,10
true,14,0,1,1,false,z,true,false,0.0-2.0-0.32-0.296-3.296,0,0,1,81,false,stim,false,2,340.8999999994412,1,0,0,75469,task3,710452,false,false,988,image-keyboard-response,11
true,14,1,1,2,false,d,false,false,0.0-2.0-0.33-0.297-3.297,0,0,1,90,false,stim,true,1,331.5,1,0,1,75469,task3,712311,false,false,991,image-keyboard-response,12
true,14,1,1,1,true,z,false,true,0.0-2.0-0.33-0.298-3.298,0,0,1,90,false,stim,false,2,476.90000000037253,1,0,0,75469,task3,714306,false,false,994,image-keyboard-response,13
true,14,1,1,1,true,z,false,true,0.0-2.0-0.33-0.299-3.299,0,0,1,90,false,stim,false,2,590.6999999992549,1,0,0,75469,task3,716410,false,false,997,image-keyboard-response,14
true,14,0,1,1,false,z,true,false,0.0-2.0-0.33-0.300-3.300,0,0,1,81,false,stim,false,1,528.7999999998137,1,1,2,75469,task3,718462,false,false,1000,image-keyboard-response,15
true,14,0,1,2,false,d,true,false,0.0-2.0-0.33-0.301-3.301,0,0,1,81,false,stim,false,1,578.5999999996275,1,0,1,75469,task3,720568,false,false,1003,image-keyboard-response,16
true,14,1,1,1,true,z,false,false,0.0-2.0-0.33-0.302-3.302,0,0,1,90,false,stim,false,1,689.6000000005588,1,1,2,75469,task3,722783,false,true,1006,image-keyboard-response,17
true,14,1,1,2,false,d,false,false,0.0-2.0-0.33-0.303-3.303,0,0,1,90,false,stim,true,1,392.40000000037253,1,0,1,75469,task3,724693,false,false,1009,image-keyboard-response,18
true,14,2,1,1,false,z,true,false,0.0-2.0-0.33-0.304-3.304,0,0,1,68,false,stim,false,1,689.7000000001863,1,1,2,75469,task3,726899,false,false,1012,image-keyboard-response,19
true,14,1,1,1,true,z,false,true,0.0-2.0-0.33-0.305-3.305,0,0,1,90,false,stim,false,2,757.8999999994412,1,1,0,75469,task3,729177,false,false,1015,image-keyboard-response,20
true,14,2,1,2,true,d,false,false,0.0-2.0-0.34-0.306-3.306,0,0,1,68,false,stim,false,1,606.2000000001863,1,0,1,75469,task3,731308,false,true,1018,image-keyboard-response,21
true,14,0,1,1,false,z,true,false,0.0-2.0-0.34-0.307-3.307,0,0,1,81,false,stim,false,1,520.2999999998137,1,1,2,75469,task3,733358,false,false,1021,image-keyboard-response,22
true,14,1,1,1,true,z,false,true,0.0-2.0-0.34-0.308-3.308,0,0,1,90,false,stim,false,1,425.59999999962747,1,1,2,75469,task3,735295,false,false,1024,image-keyboard-response,23
true,15,1,2,1,true,z,false,true,0.0-2.0-0.34-0.309-3.309,1,0,1,90,true,stim,false,1,357.19999999925494,1,1,0,75469,task3,737172,false,false,1027,image-keyboard-response,1
true,15,1,2,0,false,q,true,false,0.0-2.0-0.34-0.310-3.310,1,0,1,90,false,stim,false,2,343.30000000074506,1,0,1,75469,task3,739028,false,false,1030,image-keyboard-response,2
true,15,1,2,1,true,z,false,true,0.0-2.0-0.34-0.311-3.311,1,0,1,90,false,stim,false,1,363.70000000018626,1,1,2,75469,task3,740919,false,false,1033,image-keyboard-response,3
true,15,1,2,0,false,q,true,false,0.0-2.0-0.34-0.312-3.312,1,0,1,90,false,stim,false,2,313.79999999981374,1,0,1,75469,task3,742751,false,false,1036,image-keyboard-response,4
true,15,1,2,1,true,z,false,true,0.0-2.0-0.34-0.313-3.313,1,0,1,90,false,stim,false,1,395.70000000018626,1,1,0,75469,task3,744667,false,false,1039,image-keyboard-response,5
true,15,1,2,1,true,z,false,true,0.0-2.0-0.34-0.314-3.314,1,0,1,90,false,stim,false,1,469.5,1,1,0,75469,task3,746649,false,false,1042,image-keyboard-response,6
true,15,1,2,1,true,z,false,true,0.0-2.0-0.35-0.315-3.315,1,0,1,90,false,stim,false,1,800.0999999996275,1,1,2,75469,task3,748960,false,false,1045,image-keyboard-response,7
true,15,0,2,0,true,q,false,true,0.0-2.0-0.35-0.316-3.316,1,0,1,81,false,stim,false,2,430.29999999981374,1,0,1,75469,task3,750906,false,false,1048,image-keyboard-response,8
true,15,0,2,0,true,q,false,true,0.0-2.0-0.35-0.317-3.317,1,0,1,81,false,stim,false,2,405.5,1,0,1,75469,task3,752831,false,false,1051,image-keyboard-response,9
true,15,1,2,1,true,z,false,true,0.0-2.0-0.35-0.318-3.318,1,0,1,90,false,stim,false,1,521.8999999994412,1,1,0,75469,task3,754861,false,false,1054,image-keyboard-response,10
true,15,1,2,0,false,q,true,false,0.0-2.0-0.35-0.319-3.319,1,0,1,90,false,stim,false,2,343.1000000005588,1,0,1,75469,task3,756721,false,false,1057,image-keyboard-response,11
true,15,1,2,1,true,z,false,true,0.0-2.0-0.35-0.320-3.320,1,0,1,90,false,stim,false,1,456.5,1,1,0,75469,task3,758705,false,false,1060,image-keyboard-response,12
true,15,1,2,1,true,z,false,true,0.0-2.0-0.35-0.321-3.321,1,0,1,90,false,stim,false,1,679.9000000003725,1,1,2,75469,task3,760904,false,false,1063,image-keyboard-response,13
true,15,1,2,1,true,z,false,true,0.0-2.0-0.35-0.322-3.322,1,0,1,90,false,stim,false,1,474.29999999981374,1,1,0,75469,task3,762902,false,false,1066,image-keyboard-response,14
true,15,1,2,1,true,z,false,false,0.0-2.0-0.35-0.323-3.323,1,0,1,90,false,stim,false,1,613.0999999996275,1,1,2,75469,task3,765031,false,true,1069,image-keyboard-response,15
true,15,1,2,1,true,z,false,true,0.0-2.0-0.36-0.324-3.324,1,0,1,90,false,stim,false,1,390.90000000037253,1,1,2,75469,task3,766957,false,false,1072,image-keyboard-response,16
true,15,1,2,0,false,q,true,false,0.0-2.0-0.36-0.325-3.325,1,0,1,90,false,stim,false,2,398.59999999962747,1,0,1,75469,task3,768874,false,false,1075,image-keyboard-response,17
true,15,1,2,1,true,z,false,true,0.0-2.0-0.36-0.326-3.326,1,0,1,90,false,stim,false,1,337.19999999925494,1,1,0,75469,task3,770737,false,false,1078,image-keyboard-response,18
true,15,0,2,0,true,q,false,true,0.0-2.0-0.36-0.327-3.327,1,0,1,81,false,stim,false,2,528.5,1,0,1,75469,task3,772791,false,false,1081,image-keyboard-response,19
true,15,1,2,1,true,z,false,true,0.0-2.0-0.36-0.328-3.328,1,0,1,90,false,stim,false,1,453.40000000037253,1,1,2,75469,task3,774771,false,false,1084,image-keyboard-response,20
true,15,0,2,0,true,q,false,true,0.0-2.0-0.36-0.329-3.329,1,0,1,81,false,stim,false,2,610.1999999992549,1,0,1,75469,task3,776890,false,false,1087,image-keyboard-response,21
true,15,1,2,1,true,z,false,true,0.0-2.0-0.36-0.330-3.330,1,0,1,90,false,stim,false,1,359.29999999981374,1,1,2,75469,task3,778771,false,false,1090,image-keyboard-response,22
true,15,1,2,1,true,z,false,true,0.0-2.0-0.36-0.331-3.331,1,0,1,90,false,stim,false,1,881.4000000003725,1,1,0,75469,task3,781164,false,false,1093,image-keyboard-response,23
true,15,1,2,1,true,z,false,true,0.0-2.0-0.36-0.332-3.332,1,0,1,90,false,stim,false,1,481.70000000018626,1,1,0,75469,task3,783165,false,false,1096,image-keyboard-response,24
true,15,1,2,1,true,z,false,true,0.0-2.0-0.37-0.333-3.333,1,0,1,90,false,stim,false,1,514.1000000005588,1,1,0,75469,task3,785198,false,false,1099,image-keyboard-response,25
true,15,1,2,1,true,z,false,true,0.0-2.0-0.37-0.334-3.334,1,0,1,90,false,stim,false,1,518.2000000001863,1,0,2,75469,task3,787240,false,false,1102,image-keyboard-response,26
true,15,1,2,1,true,z,false,true,0.0-2.0-0.37-0.335-3.335,1,0,1,90,false,stim,false,1,409.29999999981374,1,1,0,75469,task3,789175,false,false,1105,image-keyboard-response,27
true,16,0,1,1,false,z,false,false,0.0-2.0-0.37-0.336-3.336,1,0,0,81,true,stim,true,0,474.0,1,0,1,75469,task3,791160,false,false,1108,image-keyboard-response,1
true,16,0,1,1,false,z,false,false,0.0-2.0-0.37-0.337-3.337,1,0,0,81,false,stim,true,0,419.09999999962747,1,0,1,75469,task3,793098,false,false,1111,image-keyboard-response,2
true,16,1,1,0,false,q,false,true,0.0-2.0-0.37-0.338-3.338,1,0,0,90,false,stim,true,1,615.7999999998137,1,0,2,75469,task3,795230,false,true,1114,image-keyboard-response,3
true,16,2,1,1,false,z,true,false,0.0-2.0-0.37-0.339-3.339,1,0,0,68,false,stim,false,0,477.29999999981374,1,0,1,75469,task3,797225,false,false,1117,image-keyboard-response,4
true,16,1,1,0,false,q,false,true,0.0-2.0-0.37-0.340-3.340,1,0,0,90,false,stim,true,1,448.59999999962747,1,0,2,75469,task3,799197,false,true,1120,image-keyboard-response,5
true,16,1,1,1,true,z,false,true,0.0-2.0-0.37-0.341-3.341,1,0,0,90,false,stim,false,1,465.3999999994412,1,1,0,75469,task3,801174,false,false,1123,image-keyboard-response,6
true,16,1,1,0,false,q,false,false,0.0-2.0-0.38-0.342-3.342,1,0,0,90,false,stim,true,1,429.90000000037253,1,0,2,75469,task3,803122,false,false,1126,image-keyboard-response,7
true,16,1,1,0,false,q,false,true,0.0-2.0-0.38-0.343-3.343,1,0,0,90,false,stim,true,1,404.09999999962747,1,0,2,75469,task3,805042,false,true,1129,image-keyboard-response,8
true,16,1,1,0,false,q,false,false,0.0-2.0-0.38-0.344-3.344,1,0,0,90,false,stim,true,1,331.6000000005588,1,0,2,75469,task3,806900,false,false,1132,image-keyboard-response,9
true,16,0,1,1,false,z,false,false,0.0-2.0-0.38-0.345-3.345,1,0,0,81,false,stim,true,0,490.20000000018626,1,0,1,75469,task3,808908,false,false,1135,image-keyboard-response,10
true,16,0,1,1,false,z,false,false,0.0-2.0-0.38-0.346-3.346,1,0,0,81,false,stim,true,0,552.3999999994412,1,0,1,75469,task3,810991,false,false,1138,image-keyboard-response,11
true,16,1,1,1,true,z,false,true,0.0-2.0-0.38-0.347-3.347,1,0,0,90,false,stim,false,0,316.3999999994412,1,0,1,75469,task3,812821,false,false,1141,image-keyboard-response,12
true,16,1,1,1,true,z,false,true,0.0-2.0-0.38-0.348-3.348,1,0,0,90,false,stim,false,1,325.20000000018626,1,1,0,75469,task3,814681,false,false,1144,image-keyboard-response,13
true,16,1,1,1,true,z,false,true,0.0-2.0-0.38-0.349-3.349,1,0,0,90,false,stim,false,1,316.5,1,1,0,75469,task3,816517,false,false,1147,image-keyboard-response,14
true,16,1,1,1,true,z,false,false,0.0-2.0-0.38-0.350-3.350,1,0,0,90,false,stim,false,1,298.90000000037253,1,1,0,75469,task3,818337,false,true,1150,image-keyboard-response,15
true,16,1,1,0,false,q,false,false,0.0-2.0-0.39-0.351-3.351,1,0,0,90,false,stim,true,1,356.6000000005588,1,0,2,75469,task3,820213,false,false,1153,image-keyboard-response,16
true,16,1,1,1,true,z,false,true,0.0-2.0-0.39-0.352-3.352,1,0,0,90,false,stim,false,0,549.7999999998137,1,0,1,75469,task3,822284,false,false,1156,image-keyboard-response,17
true,16,0,1,0,true,q,false,true,0.0-2.0-0.39-0.353-3.353,1,0,0,81,false,stim,false,1,410.3999999994412,1,0,2,75469,task3,824209,false,false,1159,image-keyboard-response,18
true,16,1,1,1,true,z,false,true,0.0-2.0-0.39-0.354-3.354,1,0,0,90,false,stim,false,0,739.6999999992549,1,0,1,75469,task3,826468,false,false,1162,image-keyboard-response,19
true,16,0,1,1,false,z,true,false,0.0-2.0-0.39-0.355-3.355,1,0,0,81,false,stim,false,1,901.5,1,1,0,75469,task3,828891,false,false,1165,image-keyboard-response,20
true,16,2,1,1,false,z,true,false,0.0-2.0-0.39-0.356-3.356,1,0,0,68,false,stim,false,1,538.9000000003725,1,1,0,75469,task3,830950,false,false,1168,image-keyboard-response,21
true,16,0,1,0,true,q,false,true,0.0-2.0-0.39-0.357-3.357,1,0,0,81,false,stim,false,1,632.5,1,0,2,75469,task3,833104,false,false,1171,image-keyboard-response,22
true,16,1,1,1,true,z,false,true,0.0-2.0-0.39-0.358-3.358,1,0,0,90,false,stim,false,0,373.29999999981374,1,0,1,75469,task3,834995,false,false,1174,image-keyboard-response,23
true,16,1,1,1,true,z,false,true,0.0-2.0-0.39-0.359-3.359,1,0,0,90,false,stim,false,1,279.5,1,1,0,75469,task3,836803,false,false,1177,image-keyboard-response,24
true,17,1,1,1,true,z,false,true,0.0-2.0-0.40-0.360-3.360,1,0,0,90,true,stim,false,1,421.19999999925494,1,1,0,75469,task3,838741,false,false,1180,image-keyboard-response,1
true,17,1,1,1,true,z,false,true,0.0-2.0-0.40-0.361-3.361,1,0,0,90,false,stim,false,1,588.4000000003725,1,1,0,75469,task3,840852,false,false,1183,image-keyboard-response,2
true,17,1,1,0,false,q,false,false,0.0-2.0-0.40-0.362-3.362,1,0,0,90,false,stim,true,1,651.4000000003725,1,0,1,75469,task3,843019,false,false,1186,image-keyboard-response,3
true,17,1,1,1,true,z,false,true,0.0-2.0-0.40-0.363-3.363,1,0,0,90,false,stim,false,1,463.20000000018626,1,1,0,75469,task3,844999,false,false,1189,image-keyboard-response,4
true,17,0,1,2,false,d,false,false,0.0-2.0-0.40-0.364-3.364,1,0,0,81,false,stim,true,0,686.9000000003725,1,0,2,75469,task3,847215,false,false,1192,image-keyboard-response,5
true,17,0,1,2,false,d,false,true,0.0-2.0-0.40-0.365-3.365,1,0,0,81,false,stim,true,0,872.0,1,0,2,75469,task3,849618,false,true,1195,image-keyboard-response,6
true,17,1,1,0,false,q,false,false,0.0-2.0-0.40-0.366-3.366,1,0,0,90,false,stim,true,1,626.7000000001863,1,0,1,75469,task3,851764,false,false,1198,image-keyboard-response,7
true,17,0,1,2,false,d,false,false,0.0-2.0-0.40-0.367-3.367,1,0,0,81,false,stim,true,0,547.2000000001863,1,0,2,75469,task3,853844,false,false,1201,image-keyboard-response,8
true,17,2,1,0,false,q,true,false,0.0-2.0-0.40-0.368-3.368,1,0,0,68,false,stim,false,1,1011.7999999998137,1,0,1,75469,task3,856372,false,false,1204,image-keyboard-response,9
true,17,1,1,1,true,z,false,true,0.0-2.0-0.41-0.369-3.369,1,0,0,90,false,stim,false,1,589.4000000003725,1,1,0,75469,task3,858475,false,false,1207,image-keyboard-response,10
true,17,1,1,1,true,z,false,true,0.0-2.0-0.41-0.370-3.370,1,0,0,90,false,stim,false,1,469.0,1,1,0,75469,task3,860455,false,false,1210,image-keyboard-response,11
true,17,0,1,2,false,d,false,false,0.0-2.0-0.41-0.371-3.371,1,0,0,81,false,stim,true,0,594.7000000001863,1,0,2,75469,task3,862569,false,false,1213,image-keyboard-response,12
true,17,1,1,0,false,q,false,false,0.0-2.0-0.41-0.372-3.372,1,0,0,90,false,stim,true,1,644.2999999998137,1,0,1,75469,task3,864738,false,false,1216,image-keyboard-response,13
true,17,1,1,2,false,d,true,false,0.0-2.0-0.41-0.373-3.373,1,0,0,90,false,stim,false,0,931.2999999998137,1,0,2,75469,task3,867180,false,false,1219,image-keyboard-response,14
true,17,1,1,1,true,z,false,true,0.0-2.0-0.41-0.374-3.374,1,0,0,90,false,stim,false,1,689.7000000001863,1,1,0,75469,task3,869382,false,false,1222,image-keyboard-response,15
true,17,0,1,0,true,q,false,true,0.0-2.0-0.41-0.375-3.375,1,0,0,81,false,stim,false,1,797.2000000001863,1,0,1,75469,task3,871701,false,false,1225,image-keyboard-response,16
true,17,2,1,2,true,d,false,true,0.0-2.0-0.41-0.376-3.376,1,0,0,68,false,stim,false,0,430.0,1,0,2,75469,task3,873661,false,false,1228,image-keyboard-response,17
true,17,0,1,0,true,q,false,true,0.0-2.0-0.41-0.377-3.377,1,0,0,81,false,stim,false,1,691.1999999992549,1,0,1,75469,task3,875873,false,false,1231,image-keyboard-response,18
true,17,0,1,0,true,q,false,true,0.0-2.0-0.42-0.378-3.378,1,0,0,81,false,stim,false,1,588.2999999998137,1,0,1,75469,task3,877990,false,false,1234,image-keyboard-response,19
true,17,1,1,1,true,z,false,true,0.0-2.0-0.42-0.379-3.379,1,0,0,90,false,stim,false,1,645.0,1,1,0,75469,task3,880163,false,false,1237,image-keyboard-response,20
true,17,1,1,1,true,z,false,true,0.0-2.0-0.42-0.380-3.380,1,0,0,90,false,stim,false,1,525.2999999998137,1,1,0,75469,task3,882214,false,false,1240,image-keyboard-response,21
true,17,0,1,0,true,q,false,true,0.0-2.0-0.42-0.381-3.381,1,0,0,81,false,stim,false,1,651.0,1,0,1,75469,task3,884385,false,false,1243,image-keyboard-response,22
true,17,2,1,2,true,d,false,true,0.0-2.0-0.42-0.382-3.382,1,0,0,68,false,stim,false,0,550.3999999994412,1,0,2,75469,task3,886462,false,false,1246,image-keyboard-response,23
true,17,2,1,2,true,d,false,false,0.0-2.0-0.42-0.383-3.383,1,0,0,68,false,stim,false,0,670.7000000001863,1,0,2,75469,task3,888655,false,true,1249,image-keyboard-response,24
true,17,0,1,0,true,q,false,true,0.0-2.0-0.42-0.384-3.384,1,0,0,81,false,stim,false,1,554.5,1,1,1,75469,task3,890726,false,false,1252,image-keyboard-response,25
true,17,1,1,1,true,z,false,true,0.0-2.0-0.42-0.385-3.385,1,0,0,90,false,stim,false,1,502.5,1,1,0,75469,task3,892750,false,false,1255,image-keyboard-response,26
true,17,2,1,2,true,d,false,true,0.0-2.0-0.42-0.386-3.386,1,0,0,68,false,stim,false,0,383.20000000018626,1,0,2,75469,task3,894664,false,false,1258,image-keyboard-response,27
true,17,0,1,0,true,q,false,true,0.0-2.0-0.43-0.387-3.387,1,0,0,81,false,stim,false,1,990.0999999996275,1,1,1,75469,task3,897180,false,false,1261,image-keyboard-response,28
true,17,2,1,2,true,d,false,true,0.0-2.0-0.43-0.388-3.388,1,0,0,68,false,stim,false,0,547.6000000005588,1,0,2,75469,task3,899250,false,false,1264,image-keyboard-response,29
true,18,1,2,1,true,z,false,true,0.0-2.0-0.43-0.389-3.389,1,1,0,90,true,stim,false,1,421.20000000018626,1,1,0,75469,task3,901182,false,false,1267,image-keyboard-response,1
true,18,1,2,1,true,z,false,true,0.0-2.0-0.43-0.390-3.390,1,1,0,90,false,stim,false,1,595.2999999998137,1,1,0,75469,task3,903293,false,false,1270,image-keyboard-response,2
true,18,2,2,0,false,q,false,false,0.0-2.0-0.43-0.391-3.391,1,1,0,68,false,stim,true,2,460.6000000005588,1,0,2,75469,task3,905277,false,false,1273,image-keyboard-response,3
true,18,0,2,0,true,q,false,true,0.0-2.0-0.43-0.392-3.392,1,1,0,81,false,stim,false,0,612.2999999998137,1,1,1,75469,task3,907411,false,false,1276,image-keyboard-response,4
true,18,1,2,1,true,z,false,false,0.0-2.0-0.43-0.393-3.393,1,1,0,90,false,stim,false,1,742.5,1,1,0,75469,task3,909672,false,true,1279,image-keyboard-response,5
true,18,2,2,0,false,q,false,false,0.0-2.0-0.43-0.394-3.394,1,1,0,68,false,stim,true,2,551.0999999996275,1,0,2,75469,task3,911751,false,false,1282,image-keyboard-response,6
true,18,1,2,0,false,q,true,false,0.0-2.0-0.43-0.395-3.395,1,1,0,90,false,stim,false,0,704.4000000003725,1,1,1,75469,task3,913973,false,false,1285,image-keyboard-response,7
true,18,1,2,0,false,q,true,false,0.0-2.0-0.44-0.396-3.396,1,1,0,90,false,stim,false,2,714.5,1,0,2,75469,task3,916209,false,false,1288,image-keyboard-response,8
true,18,0,2,1,false,z,true,false,0.0-2.0-0.44-0.397-3.397,1,1,0,81,false,stim,false,1,1213.1000000005588,1,1,0,75469,task3,918951,false,false,1291,image-keyboard-response,9
true,18,0,2,0,true,q,false,true,0.0-2.0-0.44-0.398-3.398,1,1,0,81,false,stim,false,0,367.90000000037253,1,1,1,75469,task3,920857,false,false,1294,image-keyboard-response,10
true,18,0,2,0,true,q,false,true,0.0-2.0-0.44-0.399-3.399,1,1,0,81,false,stim,false,0,783.9000000003725,1,0,1,75469,task3,923162,false,false,1297,image-keyboard-response,11
true,18,2,2,1,false,z,true,true,0.0-2.0-0.44-0.400-3.400,1,1,0,68,false,stim,false,1,469.79999999981374,1,0,0,75469,task3,925144,false,true,1300,image-keyboard-response,12
true,18,0,2,0,true,q,false,true,0.0-2.0-0.44-0.401-3.401,1,1,0,81,false,stim,false,0,632.4000000003725,1,0,1,75469,task3,927319,false,false,1303,image-keyboard-response,13
true,18,1,2,0,false,q,true,false,0.0-2.0-0.44-0.402-3.402,1,1,0,90,false,stim,false,2,404.20000000018626,1,1,2,75469,task3,929238,false,false,1306,image-keyboard-response,14
true,18,0,2,1,false,z,true,false,0.0-2.0-0.44-0.403-3.403,1,1,0,81,false,stim,false,1,388.0,1,0,0,75469,task3,931146,false,false,1309,image-keyboard-response,15
true,19,2,1,0,false,q,true,false,0.0-2.0-0.44-0.404-3.404,0,0,1,68,true,stim,false,0,841.1999999992549,1,1,2,75469,task3,933517,false,false,1312,image-keyboard-response,1
true,19,0,1,1,false,z,false,false,0.0-2.0-0.45-0.405-3.405,0,0,1,81,false,stim,true,0,479.5,1,0,1,75469,task3,935518,false,false,1315,image-keyboard-response,2
true,19,0,1,1,false,z,false,false,0.0-2.0-0.45-0.406-3.406,0,0,1,81,false,stim,true,0,390.29999999981374,1,0,1,75469,task3,937437,false,false,1318,image-keyboard-response,3
true,19,2,1,0,false,q,true,false,0.0-2.0-0.45-0.407-3.407,0,0,1,68,false,stim,false,1,689.7000000001863,1,0,0,75469,task3,939641,false,false,1321,image-keyboard-response,4
true,19,2,1,0,false,q,true,false,0.0-2.0-0.45-0.408-3.408,0,0,1,68,false,stim,false,0,1182.7000000001863,1,1,2,75469,task3,942345,false,false,1324,image-keyboard-response,5
true,19,1,1,0,false,q,false,false,0.0-2.0-0.45-0.409-3.409,0,0,1,90,false,stim,true,1,521.7000000001863,1,0,0,75469,task3,944396,false,false,1327,image-keyboard-response,6
true,19,1,1,0,false,q,true,true,0.0-2.0-0.45-0.410-3.410,0,0,1,90,false,stim,false,0,821.6999999992549,1,1,2,75469,task3,946738,false,true,1330,image-keyboard-response,7
true,19,0,1,0,true,q,false,true,0.0-2.0-0.45-0.411-3.411,0,0,1,81,false,stim,false,1,609.0,1,0,0,75469,task3,948867,false,false,1333,image-keyboard-response,8
true,19,2,1,1,false,z,true,false,0.0-2.0-0.45-0.412-3.412,0,0,1,68,false,stim,false,0,652.5,1,0,1,75469,task3,951040,false,false,1336,image-keyboard-response,9
true,19,1,1,0,false,q,true,false,0.0-2.0-0.45-0.413-3.413,0,0,1,90,false,stim,false,0,768.4000000003725,1,1,2,75469,task3,953325,false,false,1339,image-keyboard-response,10
true,19,1,1,1,true,z,false,true,0.0-2.0-0.46-0.414-3.414,0,0,1,90,false,stim,false,0,971.2000000001863,1,0,1,75469,task3,955821,false,false,1342,image-keyboard-response,11
true,19,1,1,0,false,q,true,false,0.0-2.0-0.46-0.415-3.415,0,0,1,90,false,stim,false,0,573.6000000005588,1,1,2,75469,task3,957922,false,false,1345,image-keyboard-response,12
true,19,0,1,0,true,q,false,true,0.0-2.0-0.46-0.416-3.416,0,0,1,81,false,stim,false,0,1013.0,1,1,2,75469,task3,960458,false,false,1348,image-keyboard-response,13
true,19,0,1,0,true,q,false,true,0.0-2.0-0.46-0.417-3.417,0,0,1,81,false,stim,false,1,613.1000000005588,1,0,0,75469,task3,962593,false,false,1351,image-keyboard-response,14
true,19,0,1,0,true,q,false,true,0.0-2.0-0.46-0.418-3.418,0,0,1,81,false,stim,false,1,367.8999999994412,1,0,0,75469,task3,964477,false,false,1354,image-keyboard-response,15
true,19,1,1,1,true,z,false,true,0.0-2.0-0.46-0.419-3.419,0,0,1,90,false,stim,false,0,747.0999999996275,1,0,1,75469,task3,966737,false,false,1357,image-keyboard-response,16
true,19,0,1,0,true,q,false,true,0.0-2.0-0.46-0.420-3.420,0,0,1,81,false,stim,false,0,551.5,1,1,2,75469,task3,968803,false,false,1360,image-keyboard-response,17
true,19,0,1,0,true,q,false,true,0.0-2.0-0.46-0.421-3.421,0,0,1,81,false,stim,false,1,1192.5,1,0,0,75469,task3,971521,false,false,1363,image-keyboard-response,18
true,19,1,1,1,true,z,false,true,0.0-2.0-0.46-0.422-3.422,0,0,1,90,false,stim,false,0,415.29999999981374,1,0,1,75469,task3,973472,false,false,1366,image-keyboard-response,19
true,19,0,1,0,true,q,false,true,0.0-2.0-0.47-0.423-3.423,0,0,1,81,false,stim,false,0,653.2000000001863,1,1,2,75469,task3,975657,false,false,1369,image-keyboard-response,20
true,19,0,1,0,true,q,false,true,0.0-2.0-0.47-0.424-3.424,0,0,1,81,false,stim,false,1,931.5,1,0,0,75469,task3,978116,false,false,1372,image-keyboard-response,21
true,19,0,1,0,true,q,false,true,0.0-2.0-0.47-0.425-3.425,0,0,1,81,false,stim,false,0,617.1000000005588,1,1,2,75469,task3,980257,false,false,1375,image-keyboard-response,22
true,19,0,1,0,true,q,false,true,0.0-2.0-0.47-0.426-3.426,0,0,1,81,false,stim,false,1,422.20000000018626,1,0,0,75469,task3,982202,false,false,1378,image-keyboard-response,23
true,19,0,1,0,true,q,false,true,0.0-2.0-0.47-0.427-3.427,0,0,1,81,false,stim,false,1,484.09999999962747,1,0,0,75469,task3,984214,false,false,1381,image-keyboard-response,24
true,19,1,1,1,true,z,false,true,0.0-2.0-0.47-0.428-3.428,0,0,1,90,false,stim,false,0,688.0,1,0,1,75469,task3,986424,false,false,1384,image-keyboard-response,25
true,19,1,1,1,true,z,false,true,0.0-2.0-0.47-0.429-3.429,0,0,1,90,false,stim,false,0,489.30000000074506,1,0,1,75469,task3,988433,false,false,1387,image-keyboard-response,26
true,19,1,1,1,true,z,false,true,0.0-2.0-0.47-0.430-3.430,0,0,1,90,false,stim,false,0,593.5,1,0,1,75469,task3,990552,false,false,1390,image-keyboard-response,27
true,20,0,1,0,true,q,false,true,0.0-2.0-0.47-0.431-3.431,0,0,1,81,true,stim,false,0,466.5,1,1,2,75469,task3,992541,false,false,1393,image-keyboard-response,1
true,20,0,1,0,true,q,false,true,0.0-2.0-0.48-0.432-3.432,0,0,1,81,false,stim,false,0,479.0,1,1,2,75469,task3,994543,false,false,1396,image-keyboard-response,2
true,20,0,1,0,true,q,false,false,0.0-2.0-0.48-0.433-3.433,0,0,1,81,false,stim,false,0,565.8999999994412,1,1,2,75469,task3,996620,false,true,1399,image-keyboard-response,3
true,20,0,1,2,false,d,false,false,0.0-2.0-0.48-0.434-3.434,0,0,1,81,false,stim,true,0,852.7999999998137,1,0,0,75469,task3,999021,false,false,1402,image-keyboard-response,4
true,20,1,1,0,false,q,false,false,0.0-2.0-0.48-0.435-3.435,0,0,1,90,false,stim,true,1,443.70000000018626,1,0,1,75469,task3,1000983,false,false,1405,image-keyboard-response,5
true,20,1,1,2,false,d,true,false,0.0-2.0-0.48-0.436-3.436,0,0,1,90,false,stim,false,0,965.0999999996275,1,0,0,75469,task3,1003480,false,false,1408,image-keyboard-response,6
true,20,1,1,0,false,q,false,false,0.0-2.0-0.48-0.437-3.437,0,0,1,90,false,stim,true,1,589.3999999994412,1,0,1,75469,task3,1005586,false,false,1411,image-keyboard-response,7
true,20,0,1,2,false,d,false,false,0.0-2.0-0.48-0.438-3.438,0,0,1,81,false,stim,true,0,436.09999999962747,1,0,0,75469,task3,1007546,false,false,1414,image-keyboard-response,8
true,20,2,1,0,false,q,true,false,0.0-2.0-0.48-0.439-3.439,0,0,1,68,false,stim,false,0,915.4000000003725,1,1,2,75469,task3,1009969,false,false,1417,image-keyboard-response,9
true,20,2,1,0,false,q,true,false,0.0-2.0-0.48-0.440-3.440,0,0,1,68,false,stim,false,1,552.0,1,0,1,75469,task3,1012047,false,false,1420,image-keyboard-response,10
true,20,1,1,0,false,q,true,false,0.0-2.0-0.49-0.441-3.441,0,0,1,90,false,stim,false,0,608.7000000001863,1,1,2,75469,task3,1014171,false,false,1423,image-keyboard-response,11
true,20,0,1,0,true,q,false,true,0.0-2.0-0.49-0.442-3.442,0,0,1,81,false,stim,false,1,1146.9000000003725,1,0,1,75469,task3,1016849,false,false,1426,image-keyboard-response,12
true,20,0,1,0,true,q,false,true,0.0-2.0-0.49-0.443-3.443,0,0,1,81,false,stim,false,0,1816.5,1,1,2,75469,task3,1020197,false,false,1429,image-keyboard-response,13
true,20,1,1,2,false,d,true,false,0.0-2.0-0.49-0.444-3.444,0,0,1,90,false,stim,false,0,522.5,1,0,0,75469,task3,1022237,false,false,1432,image-keyboard-response,14
true,20,2,1,2,true,d,false,true,0.0-2.0-0.49-0.445-3.445,0,0,1,68,false,stim,false,0,399.8999999994412,1,0,0,75469,task3,1024156,false,false,1435,image-keyboard-response,15
true,20,2,1,2,true,d,false,true,0.0-2.0-0.49-0.446-3.446,0,0,1,68,false,stim,false,0,626.1000000005588,1,0,0,75469,task3,1026300,false,false,1438,image-keyboard-response,16
true,20,0,1,0,true,q,false,true,0.0-2.0-0.49-0.447-3.447,0,0,1,81,false,stim,false,0,559.4000000003725,1,1,2,75469,task3,1028385,false,false,1441,image-keyboard-response,17
true,20,0,1,0,true,q,false,true,0.0-2.0-0.49-0.448-3.448,0,0,1,81,false,stim,false,1,589.0999999996275,1,0,1,75469,task3,1030494,false,false,1444,image-keyboard-response,18
true,20,0,1,0,true,q,false,true,0.0-2.0-0.49-0.449-3.449,0,0,1,81,false,stim,false,1,800.2999999998137,1,0,1,75469,task3,1032815,false,false,1447,image-keyboard-response,19
true,20,0,1,0,true,q,false,true,0.0-2.0-0.50-0.450-3.450,0,0,1,81,false,stim,false,1,480.1000000005588,1,0,1,75469,task3,1034829,false,false,1450,image-keyboard-response,20
true,20,0,1,0,true,q,false,true,0.0-2.0-0.50-0.451-3.451,0,0,1,81,false,stim,false,0,494.30000000074506,1,1,2,75469,task3,1036840,false,false,1453,image-keyboard-response,21
true,20,0,1,0,true,q,false,true,0.0-2.0-0.50-0.452-3.452,0,0,1,81,false,stim,false,0,1204.7000000001863,1,1,2,75469,task3,1039579,false,false,1456,image-keyboard-response,22
true,20,0,1,0,true,q,false,true,0.0-2.0-0.50-0.453-3.453,0,0,1,81,false,stim,false,1,662.3999999994412,1,0,1,75469,task3,1041763,false,false,1459,image-keyboard-response,23
true,20,0,1,0,true,q,false,true,0.0-2.0-0.50-0.454-3.454,0,0,1,81,false,stim,false,1,416.0,1,0,1,75469,task3,1043710,false,false,1462,image-keyboard-response,24
true,20,2,1,2,true,d,false,true,0.0-2.0-0.50-0.455-3.455,0,0,1,68,false,stim,false,0,1012.2000000001863,1,0,0,75469,task3,1046237,false,false,1465,image-keyboard-response,25
true,20,2,1,2,true,d,false,true,0.0-2.0-0.50-0.456-3.456,0,0,1,68,false,stim,false,0,507.80000000074506,1,0,0,75469,task3,1048262,false,false,1468,image-keyboard-response,26
true,20,0,1,0,true,q,false,true,0.0-2.0-0.50-0.457-3.457,0,0,1,81,false,stim,false,0,579.2999999998137,1,1,2,75469,task3,1050370,false,false,1471,image-keyboard-response,27
true,20,0,1,2,false,d,false,true,0.0-2.0-0.50-0.458-3.458,0,0,1,81,false,stim,true,0,390.8999999994412,1,0,0,75469,task3,1052283,false,true,1474,image-keyboard-response,28
true,20,0,1,2,false,d,false,false,0.0-2.0-0.51-0.459-3.459,0,0,1,81,false,stim,true,0,518.0,1,0,0,75469,task3,1054323,false,false,1477,image-keyboard-response,29
true,20,0,1,0,true,q,false,true,0.0-2.0-0.51-0.460-3.460,0,0,1,81,false,stim,false,1,601.0,1,0,1,75469,task3,1056442,false,false,1480,image-keyboard-response,30
true,21,0,1,2,false,d,false,false,0.0-2.0-0.51-0.461-3.461,0,0,1,81,true,stim,true,0,487.0,1,0,1,75469,task3,1058461,false,false,1483,image-keyboard-response,1
true,21,0,1,2,false,d,false,true,0.0-2.0-0.51-0.462-3.462,0,0,1,81,false,stim,true,0,751.7999999998137,1,0,1,75469,task3,1060737,false,true,1486,image-keyboard-response,2
true,21,2,1,0,false,q,false,false,0.0-2.0-0.51-0.463-3.463,0,0,1,68,false,stim,true,2,906.1999999992549,1,0,0,75469,task3,1063162,false,false,1489,image-keyboard-response,3
true,21,0,1,0,true,q,false,true,0.0-2.0-0.51-0.464-3.464,0,0,1,81,false,stim,false,0,771.6999999992549,1,1,2,75469,task3,1065454,false,false,1492,image-keyboard-response,4
true,21,0,1,0,true,q,false,true,0.0-2.0-0.51-0.465-3.465,0,0,1,81,false,stim,false,0,570.5999999996275,1,1,2,75469,task3,1067546,false,false,1495,image-keyboard-response,5
true,21,2,1,0,false,q,false,false,0.0-2.0-0.51-0.466-3.466,0,0,1,68,false,stim,true,2,471.70000000018626,1,0,0,75469,task3,1069534,false,false,1498,image-keyboard-response,6
true,21,0,1,0,true,q,false,true,0.0-2.0-0.51-0.467-3.467,0,0,1,81,false,stim,false,0,665.7999999998137,1,1,2,75469,task3,1071734,false,false,1501,image-keyboard-response,7
true,21,0,1,2,false,d,false,false,0.0-2.0-0.52-0.468-3.468,0,0,1,81,false,stim,true,0,1145.2000000001863,1,0,1,75469,task3,1074403,false,false,1504,image-keyboard-response,8
true,21,1,1,0,false,q,true,false,0.0-2.0-0.52-0.469-3.469,0,0,1,90,false,stim,false,2,514.7999999998137,1,0,0,75469,task3,1076439,false,false,1507,image-keyboard-response,9
true,21,0,1,0,true,q,false,true,0.0-2.0-0.52-0.470-3.470,0,0,1,81,false,stim,false,0,482.80000000074506,1,1,2,75469,task3,1078448,false,false,1510,image-keyboard-response,10
true,21,1,1,2,false,d,true,true,0.0-2.0-0.52-0.471-3.471,0,0,1,90,false,stim,false,0,669.6000000005588,1,0,1,75469,task3,1080638,false,true,1513,image-keyboard-response,11
true,21,0,1,0,true,q,false,true,0.0-2.0-0.52-0.472-3.472,0,0,1,81,false,stim,false,0,543.9000000003725,1,0,2,75469,task3,1082702,false,false,1516,image-keyboard-response,12
true,21,0,1,0,true,q,false,true,0.0-2.0-0.52-0.473-3.473,0,0,1,81,false,stim,false,2,518.1000000005588,1,1,0,75469,task3,1084734,false,false,1519,image-keyboard-response,13
true,21,0,1,0,true,q,false,true,0.0-2.0-0.52-0.474-3.474,0,0,1,81,false,stim,false,2,490.5,1,1,0,75469,task3,1086744,false,false,1522,image-keyboard-response,14
true,21,1,1,2,false,d,true,false,0.0-2.0-0.52-0.475-3.475,0,0,1,90,false,stim,false,0,599.4000000003725,1,1,1,75469,task3,1088866,false,false,1525,image-keyboard-response,15
true,21,0,1,0,true,q,false,false,0.0-2.0-0.52-0.476-3.476,0,0,1,81,false,stim,false,0,550.0999999996275,1,0,2,75469,task3,1090948,false,true,1528,image-keyboard-response,16
true,22,0,2,2,false,d,false,false,0.0-2.0-0.53-0.477-3.477,1,1,0,81,true,stim,true,0,515.7999999998137,1,0,2,75469,task3,1092978,false,false,1531,image-keyboard-response,1
true,22,2,2,2,true,d,false,true,0.0-2.0-0.53-0.478-3.478,1,1,0,68,false,stim,false,0,477.0,1,0,2,75469,task3,1094985,false,false,1534,image-keyboard-response,2
true,22,0,2,0,true,q,false,true,0.0-2.0-0.53-0.479-3.479,1,1,0,81,false,stim,false,0,669.1000000005588,1,1,0,75469,task3,1097171,false,false,1537,image-keyboard-response,3
true,22,2,2,2,true,d,false,true,0.0-2.0-0.53-0.480-3.480,1,1,0,68,false,stim,false,0,564.5999999996275,1,0,2,75469,task3,1099254,false,false,1540,image-keyboard-response,4
true,22,2,2,2,true,d,false,true,0.0-2.0-0.53-0.481-3.481,1,1,0,68,false,stim,false,2,430.59999999962747,1,1,1,75469,task3,1101210,false,false,1543,image-keyboard-response,5
true,22,0,2,0,true,q,false,false,0.0-2.0-0.53-0.482-3.482,1,1,0,81,false,stim,false,0,597.5999999996275,1,1,0,75469,task3,1103323,false,true,1546,image-keyboard-response,6
true,22,1,2,0,false,q,true,false,0.0-2.0-0.53-0.483-3.483,1,1,0,90,false,stim,false,0,683.2000000001863,1,1,0,75469,task3,1105538,false,false,1549,image-keyboard-response,7
true,22,2,2,2,true,d,false,true,0.0-2.0-0.53-0.484-3.484,1,1,0,68,false,stim,false,2,396.20000000018626,1,1,1,75469,task3,1107446,false,false,1552,image-keyboard-response,8
true,22,2,2,2,true,d,false,true,0.0-2.0-0.53-0.485-3.485,1,1,0,68,false,stim,false,2,409.79999999981374,1,1,1,75469,task3,1109384,false,false,1555,image-keyboard-response,9
true,22,0,2,0,true,q,false,true,0.0-2.0-0.54-0.486-3.486,1,1,0,81,false,stim,false,0,633.0,1,1,0,75469,task3,1111535,false,false,1558,image-keyboard-response,10
true,22,2,2,2,true,d,false,true,0.0-2.0-0.54-0.487-3.487,1,1,0,68,false,stim,false,0,536.8999999994412,1,1,2,75469,task3,1113587,false,false,1561,image-keyboard-response,11
true,22,0,2,0,true,q,false,true,0.0-2.0-0.54-0.488-3.488,1,1,0,81,false,stim,false,0,832.2999999998137,1,0,0,75469,task3,1115947,false,false,1564,image-keyboard-response,12
true,22,2,2,2,true,d,false,true,0.0-2.0-0.54-0.489-3.489,1,1,0,68,false,stim,false,0,516.1000000005588,1,1,2,75469,task3,1117996,false,false,1567,image-keyboard-response,13
true,22,0,2,0,true,q,false,true,0.0-2.0-0.54-0.490-3.490,1,1,0,81,false,stim,false,0,502.29999999981374,1,0,0,75469,task3,1120024,false,false,1570,image-keyboard-response,14
true,22,2,2,2,true,d,false,true,0.0-2.0-0.54-0.491-3.491,1,1,0,68,false,stim,false,2,618.6000000005588,1,1,1,75469,task3,1122162,false,false,1573,image-keyboard-response,15
true,23,2,2,2,true,d,false,false,0.0-2.0-0.54-0.492-3.492,0,1,1,68,true,stim,false,2,452.0,1,1,2,75469,task3,1124136,false,true,1576,image-keyboard-response,1
true,23,2,2,2,true,d,false,false,0.0-2.0-0.54-0.493-3.493,0,1,1,68,false,stim,false,2,698.0,1,1,1,75469,task3,1126346,false,true,1579,image-keyboard-response,2
true,23,0,2,2,false,d,true,false,0.0-2.0-0.54-0.494-3.494,0,1,1,81,false,stim,false,2,469.6000000005588,1,1,1,75469,task3,1128332,false,false,1582,image-keyboard-response,3
true,23,0,2,1,false,z,false,true,0.0-2.0-0.55-0.495-3.495,0,1,1,81,false,stim,true,0,630.1999999992549,1,0,0,75469,task3,1130472,false,true,1585,image-keyboard-response,4
true,23,0,2,1,false,z,false,false,0.0-2.0-0.55-0.496-3.496,0,1,1,81,false,stim,true,0,472.79999999981374,1,0,0,75469,task3,1132476,false,false,1588,image-keyboard-response,5
true,23,1,2,2,false,d,true,false,0.0-2.0-0.55-0.497-3.497,0,1,1,90,false,stim,false,2,471.6000000005588,1,1,1,75469,task3,1134472,false,false,1591,image-keyboard-response,6
true,23,2,2,2,true,d,false,true,0.0-2.0-0.55-0.498-3.498,0,1,1,68,false,stim,false,2,625.1000000005588,1,1,2,75469,task3,1136611,false,false,1594,image-keyboard-response,7
true,23,0,2,1,false,z,false,false,0.0-2.0-0.55-0.499-3.499,0,1,1,81,false,stim,true,0,715.7999999998137,1,0,0,75469,task3,1138850,false,false,1597,image-keyboard-response,8
true,23,2,2,2,true,d,false,false,0.0-2.0-0.55-0.500-3.500,0,1,1,68,false,stim,false,2,1029.0999999996275,1,1,2,75469,task3,1141401,false,true,1600,image-keyboard-response,9
true,23,2,2,2,true,d,false,true,0.0-2.0-0.55-0.501-3.501,0,1,1,68,false,stim,false,2,1060.3999999994412,1,0,1,75469,task3,1144012,false,false,1603,image-keyboard-response,10
true,23,1,2,2,false,d,true,false,0.0-2.0-0.55-0.502-3.502,0,1,1,90,false,stim,false,2,358.29999999981374,1,1,2,75469,task3,1145893,false,false,1606,image-keyboard-response,11
true,23,2,2,2,true,d,false,true,0.0-2.0-0.55-0.503-3.503,0,1,1,68,false,stim,false,2,888.3000000007451,1,0,1,75469,task3,1148302,false,false,1609,image-keyboard-response,12
true,23,0,2,2,false,d,true,false,0.0-2.0-0.56-0.504-3.504,0,1,1,81,false,stim,false,2,432.09999999962747,1,1,2,75469,task3,1150262,false,false,1612,image-keyboard-response,13
true,23,1,2,1,true,z,false,false,0.0-2.0-0.56-0.505-3.505,0,1,1,90,false,stim,false,0,1126.7999999998137,1,1,0,75469,task3,1152909,false,true,1615,image-keyboard-response,14
true,24,2,2,1,false,z,true,false,0.0-2.0-0.56-0.506-3.506,1,0,1,68,true,stim,false,1,528.5,1,1,0,75469,task3,1154950,false,false,1618,image-keyboard-response,1
true,24,2,2,1,false,z,false,false,0.0-2.0-0.56-0.507-3.507,1,0,1,68,false,stim,true,2,468.29999999981374,1,0,1,75469,task3,1156953,false,false,1621,image-keyboard-response,2
true,24,0,2,1,false,z,true,false,0.0-2.0-0.56-0.508-3.508,1,0,1,81,false,stim,false,1,642.0,1,1,0,75469,task3,1159126,false,false,1624,image-keyboard-response,3
true,24,2,2,2,true,d,false,true,0.0-2.0-0.56-0.509-3.509,1,0,1,68,false,stim,false,2,886.7000000001863,1,1,2,75469,task3,1161540,false,false,1627,image-keyboard-response,4
true,24,1,2,1,true,z,false,true,0.0-2.0-0.56-0.510-3.510,1,0,1,90,false,stim,false,2,583.3999999994412,1,0,1,75469,task3,1163646,false,false,1630,image-keyboard-response,5
true,24,2,2,2,true,d,false,true,0.0-2.0-0.56-0.511-3.511,1,0,1,68,false,stim,false,2,573.5,1,1,2,75469,task3,1165751,false,false,1633,image-keyboard-response,6
true,24,1,2,1,true,z,false,false,0.0-2.0-0.56-0.512-3.512,1,0,1,90,false,stim,false,2,322.20000000018626,1,0,1,75469,task3,1167608,false,true,1636,image-keyboard-response,7
true,24,0,2,1,false,z,true,false,0.0-2.0-0.57-0.513-3.513,1,0,1,81,false,stim,false,1,825.2999999998137,1,1,0,75469,task3,1169962,false,false,1639,image-keyboard-response,8
true,24,1,2,1,true,z,false,true,0.0-2.0-0.57-0.514-3.514,1,0,1,90,false,stim,false,2,710.0999999996275,1,0,1,75469,task3,1172195,false,false,1642,image-keyboard-response,9
true,24,2,2,1,false,z,true,false,0.0-2.0-0.57-0.515-3.515,1,0,1,68,false,stim,false,1,552.2000000001863,1,0,0,75469,task3,1174261,false,false,1645,image-keyboard-response,10
true,24,1,2,1,true,z,false,true,0.0-2.0-0.57-0.516-3.516,1,0,1,90,false,stim,false,2,507.29999999981374,1,1,1,75469,task3,1176306,false,false,1648,image-keyboard-response,11
true,24,1,2,1,true,z,false,true,0.0-2.0-0.57-0.517-3.517,1,0,1,90,false,stim,false,1,579.6000000005588,1,0,0,75469,task3,1178410,false,false,1651,image-keyboard-response,12
true,24,2,2,2,true,d,false,true,0.0-2.0-0.57-0.518-3.518,1,0,1,68,false,stim,false,2,499.20000000018626,1,1,2,75469,task3,1180429,false,false,1654,image-keyboard-response,13
true,24,2,2,2,true,d,false,true,0.0-2.0-0.57-0.519-3.519,1,0,1,68,false,stim,false,2,563.0999999996275,1,1,2,75469,task3,1182514,false,false,1657,image-keyboard-response,14
true,25,2,2,2,true,d,false,true,0.0-2.0-0.57-0.520-3.520,0,1,1,68,true,stim,false,2,928.6999999992549,1,1,2,75469,task3,1184970,false,false,1660,image-keyboard-response,1
true,25,1,2,1,true,z,false,true,0.0-2.0-0.57-0.521-3.521,0,1,1,90,false,stim,false,1,608.2000000001863,1,1,1,75469,task3,1187092,false,false,1663,image-keyboard-response,2
true,25,1,2,1,true,z,false,true,0.0-2.0-0.58-0.522-3.522,0,1,1,90,false,stim,false,1,424.29999999981374,1,1,1,75469,task3,1189052,false,false,1666,image-keyboard-response,3
true,25,2,2,2,true,d,false,true,0.0-2.0-0.58-0.523-3.523,0,1,1,68,false,stim,false,2,714.7999999998137,1,1,2,75469,task3,1191293,false,false,1669,image-keyboard-response,4
true,25,1,2,2,false,d,false,false,0.0-2.0-0.58-0.524-3.524,0,1,1,90,false,stim,true,1,495.79999999981374,1,0,0,75469,task3,1193302,false,false,1672,image-keyboard-response,5
true,25,1,2,2,false,d,false,false,0.0-2.0-0.58-0.525-3.525,0,1,1,90,false,stim,true,1,551.0999999996275,1,0,0,75469,task3,1195384,false,false,1675,image-keyboard-response,6
true,25,2,2,2,true,d,false,true,0.0-2.0-0.58-0.526-3.526,0,1,1,68,false,stim,false,2,495.79999999981374,1,1,2,75469,task3,1197402,false,false,1678,image-keyboard-response,7
true,25,0,2,2,false,d,true,false,0.0-2.0-0.58-0.527-3.527,0,1,1,81,false,stim,false,1,423.5,1,1,0,75469,task3,1199345,false,false,1681,image-keyboard-response,8
true,25,1,2,1,true,z,false,true,0.0-2.0-0.58-0.528-3.528,0,1,1,90,false,stim,false,1,647.0,1,1,1,75469,task3,1201511,false,false,1684,image-keyboard-response,9
true,25,2,2,2,true,d,false,true,0.0-2.0-0.58-0.529-3.529,0,1,1,68,false,stim,false,2,419.79999999981374,1,1,2,75469,task3,1203462,false,false,1687,image-keyboard-response,10
true,25,1,2,1,true,z,false,true,0.0-2.0-0.58-0.530-3.530,0,1,1,90,false,stim,false,1,521.2999999998137,1,1,1,75469,task3,1205507,false,false,1690,image-keyboard-response,11
true,25,2,2,2,true,d,false,true,0.0-2.0-0.59-0.531-3.531,0,1,1,68,false,stim,false,1,354.29999999981374,1,1,0,75469,task3,1207386,false,false,1693,image-keyboard-response,12
true,26,0,0,2,false,d,true,true,0.0-2.0-0.59-0.532-3.532,1,1,1,81,true,stim,false,2,1306.5,1,1,2,75469,task3,1331291,false,true,1816,image-keyboard-response,1
true,26,1,0,1,true,z,false,true,0.0-2.0-0.59-0.533-3.533,1,1,1,90,false,stim,false,1,630.7999999998137,1,1,1,75469,task3,1333447,false,false,1819,image-keyboard-response,2
true,26,1,0,1,true,z,false,true,0.0-2.0-0.59-0.534-3.534,1,1,1,90,false,stim,false,1,536.9000000003725,1,1,1,75469,task3,1335500,false,false,1822,image-keyboard-response,3
true,26,0,0,2,false,d,true,false,0.0-2.0-0.59-0.535-3.535,1,1,1,81,false,stim,false,2,430.3999999994412,1,1,2,75469,task3,1337464,false,false,1825,image-keyboard-response,4
true,26,2,0,2,true,d,false,true,0.0-2.0-0.59-0.536-3.536,1,1,1,68,false,stim,false,2,652.9000000003725,1,1,0,75469,task3,1339638,false,false,1828,image-keyboard-response,5
true,26,2,0,2,true,d,false,true,0.0-2.0-0.59-0.537-3.537,1,1,1,68,false,stim,false,2,458.90000000037253,1,1,0,75469,task3,1341622,false,false,1831,image-keyboard-response,6
true,26,0,0,2,false,d,true,false,0.0-2.0-0.59-0.538-3.538,1,1,1,81,false,stim,false,2,701.0,1,1,2,75469,task3,1343844,false,false,1834,image-keyboard-response,7
true,26,1,0,1,true,z,false,false,0.0-2.0-0.59-0.539-3.539,1,1,1,90,false,stim,false,1,410.0,1,1,1,75469,task3,1345782,false,true,1837,image-keyboard-response,8
true,26,2,0,1,false,z,true,false,0.0-2.0-0.60-0.540-3.540,1,1,1,68,false,stim,false,1,517.1999999992549,1,0,1,75469,task3,1347830,false,false,1840,image-keyboard-response,9
true,26,2,0,2,true,d,false,true,0.0-2.0-0.60-0.541-3.541,1,1,1,68,false,stim,false,2,1002.4000000003725,1,1,2,75469,task3,1350353,false,false,1843,image-keyboard-response,10
true,26,2,0,2,true,d,false,true,0.0-2.0-0.60-0.542-3.542,1,1,1,68,false,stim,false,2,318.3999999994412,1,0,0,75469,task3,1352201,false,false,1846,image-keyboard-response,11
true,26,2,0,2,true,d,false,false,0.0-2.0-0.60-0.543-3.543,1,1,1,68,false,stim,false,2,430.90000000037253,1,0,0,75469,task3,1354155,false,true,1849,image-keyboard-response,12
true,26,1,0,2,false,d,true,false,0.0-2.0-0.60-0.544-3.544,1,1,1,90,false,stim,false,2,375.19999999925494,1,1,2,75469,task3,1356054,false,false,1852,image-keyboard-response,13
true,27,2,1,0,false,q,false,false,0.0-2.0-0.60-0.545-3.545,0,0,1,68,true,stim,true,2,493.40000000037253,1,0,0,75469,task3,1358074,false,false,1855,image-keyboard-response,1
true,27,2,1,2,true,d,false,true,0.0-2.0-0.60-0.546-3.546,0,0,1,68,false,stim,false,2,500.3999999994412,1,1,2,75469,task3,1360093,false,false,1858,image-keyboard-response,2
true,27,1,1,0,false,q,false,true,0.0-2.0-0.60-0.547-3.547,0,0,1,90,false,stim,true,1,589.5,1,0,1,75469,task3,1362212,false,true,1861,image-keyboard-response,3
true,27,1,1,0,false,q,false,false,0.0-2.0-0.60-0.548-3.548,0,0,1,90,false,stim,true,1,427.90000000037253,1,0,1,75469,task3,1364162,false,false,1864,image-keyboard-response,4
true,27,1,1,0,false,q,true,false,0.0-2.0-0.61-0.549-3.549,0,0,1,90,false,stim,false,2,387.20000000018626,1,0,0,75469,task3,1366081,false,false,1867,image-keyboard-response,5
true,27,2,1,2,true,d,false,true,0.0-2.0-0.61-0.550-3.550,0,0,1,68,false,stim,false,2,392.0,1,1,2,75469,task3,1367986,false,false,1870,image-keyboard-response,6
true,27,0,1,0,true,q,false,false,0.0-2.0-0.61-0.551-3.551,0,0,1,81,false,stim,false,1,888.3999999994412,1,0,1,75469,task3,1370395,false,true,1873,image-keyboard-response,7
true,27,2,1,2,true,d,false,true,0.0-2.0-0.61-0.552-3.552,0,0,1,68,false,stim,false,2,524.4000000003725,1,1,2,75469,task3,1372433,false,false,1876,image-keyboard-response,8
true,27,2,1,2,true,d,false,true,0.0-2.0-0.61-0.553-3.553,0,0,1,68,false,stim,false,2,690.1999999992549,1,1,2,75469,task3,1374639,false,false,1879,image-keyboard-response,9
true,27,2,1,0,false,q,false,false,0.0-2.0-0.61-0.554-3.554,0,0,1,68,false,stim,true,2,447.29999999981374,1,0,0,75469,task3,1376615,false,false,1882,image-keyboard-response,10
true,27,0,1,0,true,q,false,true,0.0-2.0-0.61-0.555-3.555,0,0,1,81,false,stim,false,1,1078.699999999255,1,0,1,75469,task3,1379215,false,false,1885,image-keyboard-response,11
true,27,1,1,0,false,q,true,false,0.0-2.0-0.61-0.556-3.556,0,0,1,90,false,stim,false,2,612.5,1,0,0,75469,task3,1381343,false,false,1888,image-keyboard-response,12
true,27,0,1,0,true,q,false,true,0.0-2.0-0.61-0.557-3.557,0,0,1,81,false,stim,false,1,462.20000000018626,1,0,1,75469,task3,1383335,false,false,1891,image-keyboard-response,13
true,27,0,1,0,true,q,false,false,0.0-2.0-0.62-0.558-3.558,0,0,1,81,false,stim,false,2,507.6000000005588,1,0,0,75469,task3,1385360,false,true,1894,image-keyboard-response,14
true,27,2,1,0,false,q,false,false,0.0-2.0-0.62-0.559-3.559,0,0,1,68,false,stim,true,2,514.0999999996275,1,0,0,75469,task3,1387389,false,false,1897,image-keyboard-response,15
true,27,0,1,0,true,q,false,true,0.0-2.0-0.62-0.560-3.560,0,0,1,81,false,stim,false,1,536.6999999992549,1,0,1,75469,task3,1389453,false,false,1900,image-keyboard-response,16
true,27,0,1,0,true,q,false,true,0.0-2.0-0.62-0.561-3.561,0,0,1,81,false,stim,false,1,572.5999999996275,1,0,1,75469,task3,1391557,false,false,1903,image-keyboard-response,17
true,27,2,1,0,false,q,false,false,0.0-2.0-0.62-0.562-3.562,0,0,1,68,false,stim,true,2,697.2000000001863,1,0,0,75469,task3,1393776,false,false,1906,image-keyboard-response,18
true,27,2,1,2,true,d,false,false,0.0-2.0-0.62-0.563-3.563,0,0,1,68,false,stim,false,2,463.29999999981374,1,1,2,75469,task3,1395766,false,true,1909,image-keyboard-response,19
true,27,2,1,2,true,d,false,true,0.0-2.0-0.62-0.564-3.564,0,0,1,68,false,stim,false,2,590.4000000003725,1,1,2,75469,task3,1397871,false,false,1912,image-keyboard-response,20
true,27,0,1,0,true,q,false,true,0.0-2.0-0.62-0.565-3.565,0,0,1,81,false,stim,false,1,612.0,1,0,1,75469,task3,1400001,false,false,1915,image-keyboard-response,21
true,27,2,1,2,true,d,false,true,0.0-2.0-0.62-0.566-3.566,0,0,1,68,false,stim,false,2,635.5,1,0,2,75469,task3,1402158,false,false,1918,image-keyboard-response,22
true,27,2,1,2,true,d,false,true,0.0-2.0-0.63-0.567-3.567,0,0,1,68,false,stim,false,2,536.0,1,0,2,75469,task3,1404217,false,false,1921,image-keyboard-response,23
true,27,2,1,0,false,q,false,false,0.0-2.0-0.63-0.568-3.568,0,0,1,68,false,stim,true,2,554.1000000005588,1,1,0,75469,task3,1406294,false,false,1924,image-keyboard-response,24
true,27,2,1,2,true,d,false,true,0.0-2.0-0.63-0.569-3.569,0,0,1,68,false,stim,false,2,567.4000000003725,1,0,2,75469,task3,1408385,false,false,1927,image-keyboard-response,25
true,28,0,1,1,false,z,false,false,0.0-2.0-0.63-0.570-3.570,1,0,0,81,true,stim,true,0,516.7999999998137,1,0,1,75469,task3,1410427,false,false,1930,image-keyboard-response,1
true,28,0,1,1,false,z,true,false,0.0-2.0-0.63-0.571-3.571,1,0,0,81,false,stim,false,2,427.6000000005588,1,0,2,75469,task3,1412387,false,false,1933,image-keyboard-response,2
true,28,0,1,0,true,q,false,true,0.0-2.0-0.63-0.572-3.572,1,0,0,81,false,stim,false,0,558.0999999996275,1,1,0,75469,task3,1414455,false,false,1936,image-keyboard-response,3
true,28,0,1,0,true,q,false,true,0.0-2.0-0.63-0.573-3.573,1,0,0,81,false,stim,false,0,460.09999999962747,1,1,0,75469,task3,1416439,false,false,1939,image-keyboard-response,4
true,28,0,1,1,false,z,false,false,0.0-2.0-0.63-0.574-3.574,1,0,0,81,false,stim,true,0,537.0999999996275,1,0,1,75469,task3,1418491,false,false,1942,image-keyboard-response,5
true,28,1,1,1,true,z,false,true,0.0-2.0-0.63-0.575-3.575,1,0,0,90,false,stim,false,0,604.0999999996275,1,0,1,75469,task3,1420617,false,false,1945,image-keyboard-response,6
true,28,0,1,0,true,q,false,true,0.0-2.0-0.64-0.576-3.576,1,0,0,81,false,stim,false,0,446.09999999962747,1,1,0,75469,task3,1422575,false,false,1948,image-keyboard-response,7
true,28,0,1,0,true,q,false,true,0.0-2.0-0.64-0.577-3.577,1,0,0,81,false,stim,false,0,483.8999999994412,1,1,0,75469,task3,1424579,false,false,1951,image-keyboard-response,8
true,28,1,1,1,true,z,false,true,0.0-2.0-0.64-0.578-3.578,1,0,0,90,false,stim,false,0,821.7999999998137,1,0,1,75469,task3,1426930,false,false,1954,image-keyboard-response,9
true,28,1,1,1,true,z,false,true,0.0-2.0-0.64-0.579-3.579,1,0,0,90,false,stim,false,0,750.7999999998137,1,0,1,75469,task3,1429215,false,false,1957,image-keyboard-response,10
true,28,2,1,1,false,z,false,false,0.0-2.0-0.64-0.580-3.580,1,0,0,68,false,stim,true,2,504.09999999962747,1,0,2,75469,task3,1431257,false,false,1960,image-keyboard-response,11
true,28,2,1,1,false,z,false,false,0.0-2.0-0.64-0.581-3.581,1,0,0,68,false,stim,true,2,411.5,1,0,2,75469,task3,1433185,false,false,1963,image-keyboard-response,12
true,28,1,1,1,true,z,false,true,0.0-2.0-0.64-0.582-3.582,1,0,0,90,false,stim,false,0,889.1000000005588,1,0,1,75469,task3,1435585,false,false,1966,image-keyboard-response,13
true,28,0,1,0,true,q,false,true,0.0-2.0-0.64-0.583-3.583,1,0,0,81,false,stim,false,0,725.8000000007451,1,1,0,75469,task3,1437833,false,false,1969,image-keyboard-response,14
true,28,0,1,1,false,z,true,false,0.0-2.0-0.64-0.584-3.584,1,0,0,81,false,stim,false,2,471.0,1,0,2,75469,task3,1439823,false,false,1972,image-keyboard-response,15
true,28,0,1,1,false,z,true,false,0.0-2.0-0.65-0.585-3.585,1,0,0,81,false,stim,false,2,1008.2000000001863,1,0,2,75469,task3,1442357,false,false,1975,image-keyboard-response,16
true,28,0,1,0,true,q,false,false,0.0-2.0-0.65-0.586-3.586,1,0,0,81,false,stim,false,0,1000.6000000005588,1,1,0,75469,task3,1444873,false,true,1978,image-keyboard-response,17
true,28,1,1,1,true,z,false,true,0.0-2.0-0.65-0.587-3.587,1,0,0,90,false,stim,false,2,950.0,1,0,2,75469,task3,1447346,false,false,1981,image-keyboard-response,18
true,28,1,1,1,true,z,false,true,0.0-2.0-0.65-0.588-3.588,1,0,0,90,false,stim,false,0,1034.0,1,0,1,75469,task3,1449897,false,false,1984,image-keyboard-response,19
true,28,1,1,1,true,z,false,true,0.0-2.0-0.65-0.589-3.589,1,0,0,90,false,stim,false,0,538.2000000001863,1,0,1,75469,task3,1451971,false,false,1987,image-keyboard-response,20
true,28,1,1,1,true,z,false,true,0.0-2.0-0.65-0.590-3.590,1,0,0,90,false,stim,false,0,488.40000000037253,1,0,1,75469,task3,1453985,false,false,1990,image-keyboard-response,21
