answered,blockNum,choice,condition,corResp,correct,correct_response,explo,fb,internal_node_id,isStable_1,isStable_2,isStable_3,key_press,newBlock,part,persev,persevResp,rt,sessNum,stableAS,stimulus,subject,task,time_elapsed,training,trap,trial_index,trial_type,trialsInBlock
true,1,0,0,1,false,z,true,false,0.0-2.0-0.0-0.0-3.0,0,0,0,81,true,stim,false,-1,965.2999999970198,2,0,0,75469,task2,120058,false,false,133,image-keyboard-response,1
true,1,1,0,1,true,z,false,true,0.0-2.0-0.0-0.1-3.1,0,0,0,90,false,stim,false,-1,598.6999999880791,2,0,0,75469,task2,122189,false,false,136,image-keyboard-response,2
true,1,2,0,2,true,d,false,true,0.0-2.0-0.0-0.2-3.2,0,0,0,68,false,stim,false,-1,610.9000000059605,2,0,1,75469,task2,124321,false,false,139,image-keyboard-response,3
true,1,0,0,1,false,z,true,false,0.0-2.0-0.0-0.3-3.3,0,0,0,81,false,stim,false,-1,705.0,2,0,2,75469,task2,126549,false,false,142,image-keyboard-response,4
true,1,2,0,2,true,d,false,true,0.0-2.0-0.0-0.4-3.4,0,0,0,68,false,stim,false,-1,638.5999999940395,2,0,1,75469,task2,128704,false,false,145,image-keyboard-response,5
true,1,2,0,1,false,z,true,false,0.0-2.0-0.0-0.5-3.5,0,0,0,68,false,stim,false,-1,842.6000000089407,2,0,2,75469,task2,131066,false,false,148,image-keyboard-response,6
true,1,2,0,2,true,d,false,true,0.0-2.0-0.0-0.6-3.6,0,0,0,68,false,stim,false,-1,732.0999999940395,2,0,1,75469,task2,133317,false,false,151,image-keyboard-response,7
true,1,1,0,1,true,z,false,true,0.0-2.0-0.0-0.7-3.7,0,0,0,90,false,stim,false,-1,597.9000000059605,2,0,2,75469,task2,135439,false,false,154,image-keyboard-response,8
true,1,1,0,1,true,z,false,true,0.0-2.0-0.0-0.8-3.8,0,0,0,90,false,stim,false,-1,342.20000000298023,2,0,0,75469,task2,137307,false,false,157,image-keyboard-response,9
true,1,1,0,1,true,z,false,true,0.0-2.0-0.1-0.9-3.9,0,0,0,90,false,stim,false,-1,391.79999999701977,2,0,0,75469,task2,139215,false,false,160,image-keyboard-response,10
true,1,1,0,1,true,z,false,true,0.0-2.0-0.1-0.10-3.10,0,0,0,90,false,stim,false,-1,505.70000000298023,2,0,2,75469,task2,141241,false,false,163,image-keyboard-response,11
true,1,1,0,1,true,z,false,true,0.0-2.0-0.1-0.11-3.11,0,0,0,90,false,stim,false,-1,418.29999999701977,2,0,2,75469,task2,143174,false,false,166,image-keyboard-response,12
true,1,2,0,2,true,d,false,true,0.0-2.0-0.1-0.12-3.12,0,0,0,68,false,stim,false,-1,432.70000000298023,2,0,1,75469,task2,145130,false,false,169,image-keyboard-response,13
true,1,1,0,1,true,z,false,true,0.0-2.0-0.1-0.13-3.13,0,0,0,90,false,stim,false,-1,403.70000000298023,2,0,0,75469,task2,147056,false,false,172,image-keyboard-response,14
true,1,2,0,2,true,d,false,true,0.0-2.0-0.1-0.14-3.14,0,0,0,68,false,stim,false,-1,591.1999999880791,2,0,1,75469,task2,149178,false,false,175,image-keyboard-response,15
true,1,2,0,2,true,d,false,true,0.0-2.0-0.1-0.15-3.15,0,0,0,68,false,stim,false,-1,426.0,2,0,1,75469,task2,151131,false,false,178,image-keyboard-response,16
true,1,1,0,1,true,z,false,true,0.0-2.0-0.1-0.16-3.16,0,0,0,90,false,stim,false,-1,568.9000000059605,2,0,0,75469,task2,153227,false,false,181,image-keyboard-response,17
true,1,1,0,1,true,z,false,true,0.0-2.0-0.1-0.17-3.17,0,0,0,90,false,stim,false,-1,655.4000000059605,2,0,2,75469,task2,155400,false,false,184,image-keyboard-response,18
true,1,1,0,1,true,z,false,true,0.0-2.0-0.2-0.18-3.18,0,0,0,90,false,stim,false,-1,345.19999998807907,2,0,2,75469,task2,157274,false,false,187,image-keyboard-response,19
true,1,1,0,1,true,z,false,true,0.0-2.0-0.2-0.19-3.19,0,0,0,90,false,stim,false,-1,381.20000000298023,2,0,0,75469,task2,159174,false,false,190,image-keyboard-response,20
true,1,1,0,1,true,z,false,true,0.0-2.0-0.2-0.20-3.20,0,0,0,90,false,stim,false,-1,351.29999999701977,2,0,0,75469,task2,161045,false,false,193,image-keyboard-response,21
true,1,2,0,2,true,d,false,true,0.0-2.0-0.2-0.21-3.21,0,0,0,68,false,stim,false,-1,432.5,2,0,1,75469,task2,163006,false,false,196,image-keyboard-response,22
true,1,1,0,1,true,z,false,true,0.0-2.0-0.2-0.22-3.22,0,0,0,90,false,stim,false,-1,461.59999999403954,2,0,2,75469,task2,164989,false,false,199,image-keyboard-response,23
true,1,1,0,1,true,z,false,true,0.0-2.0-0.2-0.23-3.23,0,0,0,90,false,stim,false,-1,497.1000000089407,2,0,2,75469,task2,167014,false,false,202,image-keyboard-response,24
true,1,1,0,1,true,z,false,true,0.0-2.0-0.2-0.24-3.24,0,0,0,90,false,stim,false,-1,527.4000000059605,2,0,0,75469,task2,169070,false,false,205,image-keyboard-response,25
true,1,2,0,2,true,d,false,true,0.0-2.0-0.2-0.25-3.25,0,0,0,68,false,stim,false,-1,463.29999999701977,2,0,1,75469,task2,171059,false,false,208,image-keyboard-response,26
true,2,2,1,0,false,q,false,false,0.0-2.0-0.2-0.26-3.26,0,0,0,68,true,stim,true,2,440.79999999701977,2,0,1,75469,task2,173028,false,false,211,image-keyboard-response,1
true,2,2,1,0,false,q,false,false,0.0-2.0-0.3-0.27-3.27,0,0,0,68,false,stim,true,2,440.20000000298023,2,0,1,75469,task2,174999,false,false,214,image-keyboard-response,2
true,2,1,1,2,false,d,false,false,0.0-2.0-0.3-0.28-3.28,0,0,0,90,false,stim,true,1,487.0,2,0,2,75469,task2,177016,false,false,217,image-keyboard-response,3
true,2,0,1,2,false,d,true,false,0.0-2.0-0.3-0.29-3.29,0,0,0,81,false,stim,false,1,390.29999999701977,2,0,2,75469,task2,178928,false,false,220,image-keyboard-response,4
true,2,0,1,0,true,q,false,true,0.0-2.0-0.3-0.30-3.30,0,0,0,81,false,stim,false,2,512.7000000029802,2,0,1,75469,task2,180963,false,false,223,image-keyboard-response,5
true,2,1,1,0,false,q,false,false,0.0-2.0-0.3-0.31-3.31,0,0,0,90,false,stim,true,1,358.0,2,0,0,75469,task2,182844,false,false,226,image-keyboard-response,6
true,2,2,1,2,true,d,false,true,0.0-2.0-0.3-0.32-3.32,0,0,0,68,false,stim,false,1,686.7000000029802,2,0,2,75469,task2,185049,false,false,229,image-keyboard-response,7
true,2,0,1,0,true,q,false,true,0.0-2.0-0.3-0.33-3.33,0,0,0,81,false,stim,false,2,748.5,2,0,1,75469,task2,187315,false,false,232,image-keyboard-response,8
true,2,1,1,0,false,q,false,false,0.0-2.0-0.3-0.34-3.34,0,0,0,90,false,stim,true,1,567.5,2,0,0,75469,task2,189403,false,false,235,image-keyboard-response,9
true,2,0,1,0,true,q,false,true,0.0-2.0-0.3-0.35-3.35,0,0,0,81,false,stim,false,1,528.7999999970198,2,0,0,75469,task2,191451,false,false,238,image-keyboard-response,10
true,2,0,1,0,true,q,false,true,0.0-2.0-0.4-0.36-3.36,0,0,0,81,false,stim,false,1,415.40000000596046,2,0,0,75469,task2,193379,false,false,241,image-keyboard-response,11
true,2,2,1,2,true,d,false,true,0.0-2.0-0.4-0.37-3.37,0,0,0,68,false,stim,false,1,508.3999999910593,2,0,2,75469,task2,195415,false,false,244,image-keyboard-response,12
true,2,2,1,2,true,d,false,true,0.0-2.0-0.4-0.38-3.38,0,0,0,68,false,stim,false,1,521.6000000089407,2,0,2,75469,task2,197453,false,false,247,image-keyboard-response,13
true,2,2,1,2,true,d,false,false,0.0-2.0-0.4-0.39-3.39,0,0,0,68,false,stim,false,1,500.20000000298023,2,0,2,75469,task2,199470,false,true,250,image-keyboard-response,14
true,2,0,1,0,true,q,false,true,0.0-2.0-0.4-0.40-3.40,0,0,0,81,false,stim,false,1,396.0,2,0,0,75469,task2,201390,false,false,253,image-keyboard-response,15
true,2,0,1,0,true,q,false,true,0.0-2.0-0.4-0.41-3.41,0,0,0,81,false,stim,false,1,399.90000000596046,2,0,0,75469,task2,203319,false,false,256,image-keyboard-response,16
true,2,0,1,0,true,q,false,true,0.0-2.0-0.4-0.42-3.42,0,0,0,81,false,stim,false,2,623.5999999940395,2,0,1,75469,task2,205470,false,false,259,image-keyboard-response,17
true,2,0,1,0,true,q,false,true,0.0-2.0-0.4-0.43-3.43,0,0,0,81,false,stim,false,2,356.09999999403954,2,0,1,75469,task2,207346,false,false,262,image-keyboard-response,18
true,2,0,1,0,true,q,false,true,0.0-2.0-0.4-0.44-3.44,0,0,0,81,false,stim,false,2,369.09999999403954,2,0,1,75469,task2,209246,false,false,265,image-keyboard-response,19
true,2,2,1,2,true,d,false,true,0.0-2.0-0.5-0.45-3.45,0,0,0,68,false,stim,false,1,512.7999999970198,2,0,2,75469,task2,211288,false,false,268,image-keyboard-response,20
true,2,0,1,0,true,q,false,true,0.0-2.0-0.5-0.46-3.46,0,0,0,81,false,stim,false,1,646.2999999970198,2,0,0,75469,task2,213461,false,false,271,image-keyboard-response,21
true,2,0,1,0,true,q,false,true,0.0-2.0-0.5-0.47-3.47,0,0,0,81,false,stim,false,2,390.70000000298023,2,0,1,75469,task2,215370,false,false,274,image-keyboard-response,22
true,2,2,1,2,true,d,false,true,0.0-2.0-0.5-0.48-3.48,0,0,0,68,false,stim,false,1,640.7000000029802,2,0,2,75469,task2,217534,false,false,277,image-keyboard-response,23
true,2,2,1,2,true,d,false,true,0.0-2.0-0.5-0.49-3.49,0,0,0,68,false,stim,false,1,452.20000000298023,2,0,2,75469,task2,219496,false,false,280,image-keyboard-response,24
true,2,0,1,0,true,q,false,true,0.0-2.0-0.5-0.50-3.50,0,0,0,81,false,stim,false,2,428.70000000298023,2,0,1,75469,task2,221444,false,false,283,image-keyboard-response,25
true,2,0,1,0,true,q,false,true,0.0-2.0-0.5-0.51-3.51,0,0,0,81,false,stim,false,2,356.8999999910593,2,0,1,75469,task2,223319,false,false,286,image-keyboard-response,26
true,2,0,1,0,true,q,false,true,0.0-2.0-0.5-0.52-3.52,0,0,0,81,false,stim,false,1,548.5,2,0,0,75469,task2,225392,false,false,289,image-keyboard-response,27
true,2,0,1,0,true,q,false,true,0.0-2.0-0.5-0.53-3.53,0,0,0,81,false,stim,false,1,375.0,2,0,0,75469,task2,227288,false,false,292,image-keyboard-response,28
true,2,2,1,2,true,d,false,true,0.0-2.0-0.6-0.54-3.54,0,0,0,68,false,stim,false,1,579.5,2,0,2,75469,task2,229386,false,false,295,image-keyboard-response,29
true,2,0,1,0,true,q,false,true,0.0-2.0-0.6-0.55-3.55,0,0,0,81,false,stim,false,1,424.20000000298023,2,0,0,75469,task2,231339,false,false,298,image-keyboard-response,30
true,2,0,1,0,true,q,false,false,0.0-2.0-0.6-0.56-3.56,0,0,0,81,false,stim,false,2,462.30000001192093,2,0,1,75469,task2,233322,false,true,301,image-keyboard-response,31
true,2,2,1,2,true,d,false,true,0.0-2.0-0.6-0.57-3.57,0,0,0,68,false,stim,false,1,456.5,2,0,2,75469,task2,235295,false,false,304,image-keyboard-response,32
true,2,0,1,0,true,q,false,true,0.0-2.0-0.6-0.58-3.58,0,0,0,81,false,stim,false,1,349.30000001192093,2,0,0,75469,task2,237159,false,false,307,image-keyboard-response,33
true,2,2,1,2,true,d,false,true,0.0-2.0-0.6-0.59-3.59,0,0,0,68,false,stim,false,1,375.90000000596046,2,0,2,75469,task2,239063,false,false,310,image-keyboard-response,34
true,2,0,1,0,true,q,false,true,0.0-2.0-0.6-0.60-3.60,0,0,0,81,false,stim,false,2,338.90000000596046,2,0,1,75469,task2,240928,false,false,313,image-keyboard-response,35
true,2,0,1,0,true,q,false,true,0.0-2.0-0.6-0.61-3.61,0,0,0,81,false,stim,false,2,351.90000000596046,2,0,1,75469,task2,242798,false,false,316,image-keyboard-response,36
true,2,0,1,0,true,q,false,true,0.0-2.0-0.6-0.62-3.62,0,0,0,81,false,stim,false,1,548.9000000059605,2,0,0,75469,task2,244875,false,false,319,image-keyboard-response,37
true,2,2,1,2,true,d,false,true,0.0-2.0-0.7-0.63-3.63,0,0,0,68,false,stim,false,1,527.8000000119209,2,0,2,75469,task2,246931,false,false,322,image-keyboard-response,38
true,3,0,1,1,false,z,false,false,0.0-2.0-0.7-0.64-3.64,0,0,0,81,true,stim,true,0,427.20000000298023,2,0,1,75469,task2,248878,false,false,325,image-keyboard-response,1
true,3,0,1,1,false,z,false,false,0.0-2.0-0.7-0.65-3.65,0,0,0,81,false,stim,true,0,684.1000000089407,2,0,0,75469,task2,251083,false,false,328,image-keyboard-response,2
true,3,1,1,1,true,z,false,true,0.0-2.0-0.7-0.66-3.66,0,0,0,90,false,stim,false,0,505.09999999403954,2,0,1,75469,task2,253109,false,false,331,image-keyboard-response,3
true,3,2,1,1,false,z,true,false,0.0-2.0-0.7-0.67-3.67,0,0,0,68,false,stim,false,0,410.20000000298023,2,0,0,75469,task2,255043,false,false,334,image-keyboard-response,4
true,3,1,1,1,true,z,false,true,0.0-2.0-0.7-0.68-3.68,0,0,0,90,false,stim,false,0,395.70000000298023,2,0,1,75469,task2,256969,false,false,337,image-keyboard-response,5
true,3,1,1,1,true,z,false,true,0.0-2.0-0.7-0.69-3.69,0,0,0,90,false,stim,false,0,330.90000000596046,2,0,0,75469,task2,258829,false,false,340,image-keyboard-response,6
true,3,2,1,0,false,q,false,false,0.0-2.0-0.7-0.70-3.70,0,0,0,68,false,stim,true,2,440.19999998807907,2,0,2,75469,task2,260785,false,false,343,image-keyboard-response,7
true,3,0,1,0,true,q,false,true,0.0-2.0-0.7-0.71-3.71,0,0,0,81,false,stim,false,2,408.6000000089407,2,0,2,75469,task2,262714,false,false,346,image-keyboard-response,8
true,3,1,1,1,true,z,false,true,0.0-2.0-0.8-0.72-3.72,0,0,0,90,false,stim,false,0,567.6999999880791,2,0,0,75469,task2,264811,false,false,349,image-keyboard-response,9
true,3,1,1,1,true,z,false,true,0.0-2.0-0.8-0.73-3.73,0,0,0,90,false,stim,false,0,360.29999999701977,2,0,1,75469,task2,266695,false,false,352,image-keyboard-response,10
true,3,1,1,1,true,z,false,true,0.0-2.0-0.8-0.74-3.74,0,0,0,90,false,stim,false,0,474.80000001192093,2,0,1,75469,task2,268698,false,false,355,image-keyboard-response,11
true,3,1,1,1,true,z,false,true,0.0-2.0-0.8-0.75-3.75,0,0,0,90,false,stim,false,0,573.1999999880791,2,0,0,75469,task2,270789,false,false,358,image-keyboard-response,12
true,3,0,1,0,true,q,false,true,0.0-2.0-0.8-0.76-3.76,0,0,0,81,false,stim,false,2,389.20000000298023,2,0,2,75469,task2,272697,false,false,361,image-keyboard-response,13
true,3,0,1,0,true,q,false,true,0.0-2.0-0.8-0.77-3.77,0,0,0,81,false,stim,false,2,444.40000000596046,2,0,2,75469,task2,274661,false,false,364,image-keyboard-response,14
true,3,1,1,1,true,z,false,true,0.0-2.0-0.8-0.78-3.78,0,0,0,90,false,stim,false,0,490.6000000089407,2,0,1,75469,task2,276680,false,false,367,image-keyboard-response,15
true,3,0,1,0,true,q,false,true,0.0-2.0-0.8-0.79-3.79,0,0,0,81,false,stim,false,2,915.4000000059605,2,0,2,75469,task2,279127,false,false,370,image-keyboard-response,16
true,3,1,1,1,true,z,false,true,0.0-2.0-0.8-0.80-3.80,0,0,0,90,false,stim,false,0,377.09999999403954,2,0,0,75469,task2,281037,false,false,373,image-keyboard-response,17
true,3,1,1,1,true,z,false,true,0.0-2.0-0.9-0.81-3.81,0,0,0,90,false,stim,false,0,1014.7000000029802,2,0,1,75469,task2,283568,false,false,376,image-keyboard-response,18
true,3,1,1,1,true,z,false,true,0.0-2.0-0.9-0.82-3.82,0,0,0,90,false,stim,false,0,443.3999999910593,2,0,1,75469,task2,285544,false,false,379,image-keyboard-response,19
true,3,1,1,1,true,z,false,true,0.0-2.0-0.9-0.83-3.83,0,0,0,90,false,stim,false,0,761.8999999910593,2,0,0,75469,task2,287834,false,false,382,image-keyboard-response,20
true,3,0,1,0,true,q,false,false,0.0-2.0-0.9-0.84-3.84,0,0,0,81,false,stim,false,2,665.0999999940395,2,0,2,75469,task2,290017,false,true,385,image-keyboard-response,21
true,3,1,1,1,true,z,false,true,0.0-2.0-0.9-0.85-3.85,0,0,0,90,false,stim,false,0,429.29999999701977,2,0,0,75469,task2,291970,false,false,388,image-keyboard-response,22
true,3,1,1,1,true,z,false,true,0.0-2.0-0.9-0.86-3.86,0,0,0,90,false,stim,false,0,520.1000000089407,2,0,1,75469,task2,294019,false,false,391,image-keyboard-response,23
true,3,0,1,0,true,q,false,false,0.0-2.0-0.9-0.87-3.87,0,0,0,81,false,stim,false,2,698.0999999940395,2,0,2,75469,task2,296245,false,true,394,image-keyboard-response,24
true,3,1,1,0,false,q,true,false,0.0-2.0-0.9-0.88-3.88,0,0,0,90,false,stim,false,2,636.2000000029802,2,0,2,75469,task2,298408,false,false,397,image-keyboard-response,25
true,3,1,1,1,true,z,false,true,0.0-2.0-0.9-0.89-3.89,0,0,0,90,false,stim,false,0,459.20000000298023,2,0,0,75469,task2,300391,false,false,400,image-keyboard-response,26
true,3,2,1,0,false,q,false,false,0.0-2.0-0.10-0.90-3.90,0,0,0,68,false,stim,true,2,432.19999998807907,2,0,2,75469,task2,302349,false,false,403,image-keyboard-response,27
true,3,1,1,1,true,z,false,true,0.0-2.0-0.10-0.91-3.91,0,0,0,90,false,stim,false,0,654.0,2,0,1,75469,task2,304526,false,false,406,image-keyboard-response,28
true,3,1,1,1,true,z,false,true,0.0-2.0-0.10-0.92-3.92,0,0,0,90,false,stim,false,0,729.8999999910593,2,0,0,75469,task2,306776,false,false,409,image-keyboard-response,29
true,3,1,1,1,true,z,false,true,0.0-2.0-0.10-0.93-3.93,0,0,0,90,false,stim,false,0,494.20000000298023,2,0,1,75469,task2,308790,false,false,412,image-keyboard-response,30
true,3,1,1,1,true,z,false,true,0.0-2.0-0.10-0.94-3.94,0,0,0,90,false,stim,false,0,381.40000000596046,2,0,1,75469,task2,310697,false,false,415,image-keyboard-response,31
true,3,1,1,1,true,z,false,true,0.0-2.0-0.10-0.95-3.95,0,0,0,90,false,stim,false,0,418.5,2,0,0,75469,task2,312631,false,false,418,image-keyboard-response,32
true,3,0,1,0,true,q,false,false,0.0-2.0-0.10-0.96-3.96,0,0,0,81,false,stim,false,2,417.59999999403954,2,0,2,75469,task2,314573,false,true,421,image-keyboard-response,33
true,3,1,1,1,true,z,false,true,0.0-2.0-0.10-0.97-3.97,0,0,0,90,false,stim,false,0,480.70000000298023,2,0,0,75469,task2,316575,false,false,424,image-keyboard-response,34
true,3,2,1,0,false,q,false,false,0.0-2.0-0.10-0.98-3.98,0,0,0,68,false,stim,true,2,564.2000000029802,2,0,2,75469,task2,318663,false,false,427,image-keyboard-response,35
true,3,1,1,0,false,q,true,false,0.0-2.0-0.11-0.99-3.99,0,0,0,90,false,stim,false,2,386.5,2,0,2,75469,task2,320579,false,false,430,image-keyboard-response,36
true,3,1,1,1,true,z,false,true,0.0-2.0-0.11-0.100-3.100,0,0,0,90,false,stim,false,0,627.5,2,0,1,75469,task2,322722,false,false,433,image-keyboard-response,37
true,3,2,1,0,false,q,false,false,0.0-2.0-0.11-0.101-3.101,0,0,0,68,false,stim,true,2,622.7000000029802,2,0,2,75469,task2,324862,false,false,436,image-keyboard-response,38
true,4,1,1,0,false,q,false,false,0.0-2.0-0.11-0.102-3.102,0,0,0,90,true,stim,true,1,526.9000000059605,2,0,0,75469,task2,326910,false,false,439,image-keyboard-response,1
true,4,1,1,2,false,d,false,false,0.0-2.0-0.11-0.103-3.103,0,0,0,90,false,stim,true,1,709.5,2,0,1,75469,task2,329145,false,false,442,image-keyboard-response,2
true,4,2,1,0,false,q,true,true,0.0-2.0-0.11-0.104-3.104,0,0,0,68,false,stim,false,1,544.2000000029802,2,0,0,75469,task2,331222,false,true,445,image-keyboard-response,3
true,4,2,1,0,false,q,true,false,0.0-2.0-0.11-0.105-3.105,0,0,0,68,false,stim,false,1,400.79999999701977,2,0,0,75469,task2,333140,false,false,448,image-keyboard-response,4
true,4,0,1,2,false,d,false,false,0.0-2.0-0.11-0.106-3.106,0,0,0,81,false,stim,true,0,596.5,2,0,2,75469,task2,335264,false,false,451,image-keyboard-response,5
true,4,2,1,2,true,d,false,true,0.0-2.0-0.11-0.107-3.107,0,0,0,68,false,stim,false,1,661.7999999970198,2,0,1,75469,task2,337456,false,false,454,image-keyboard-response,6
true,4,2,1,2,true,d,false,true,0.0-2.0-0.12-0.108-3.108,0,0,0,68,false,stim,false,1,512.6000000089407,2,0,1,75469,task2,339497,false,false,457,image-keyboard-response,7
true,4,2,1,0,false,q,true,false,0.0-2.0-0.12-0.109-3.109,0,0,0,68,false,stim,false,1,331.1000000089407,2,0,0,75469,task2,341351,false,false,460,image-keyboard-response,8
true,4,2,1,2,true,d,false,true,0.0-2.0-0.12-0.110-3.110,0,0,0,68,false,stim,false,0,593.2000000029802,2,0,2,75469,task2,343466,false,false,463,image-keyboard-response,9
true,4,1,1,0,false,q,false,false,0.0-2.0-0.12-0.111-3.111,0,0,0,90,false,stim,true,1,431.8999999910593,2,0,0,75469,task2,345416,false,false,466,image-keyboard-response,10
true,4,2,1,2,true,d,false,true,0.0-2.0-0.12-0.112-3.112,0,0,0,68,false,stim,false,0,450.90000000596046,2,0,2,75469,task2,347392,false,false,469,image-keyboard-response,11
true,4,2,1,2,true,d,false,true,0.0-2.0-0.12-0.113-3.113,0,0,0,68,false,stim,false,0,579.5,2,0,2,75469,task2,349493,false,false,472,image-keyboard-response,12
true,4,2,1,2,true,d,false,true,0.0-2.0-0.12-0.114-3.114,0,0,0,68,false,stim,false,1,499.3999999910593,2,0,1,75469,task2,351523,false,false,475,image-keyboard-response,13
true,4,0,1,0,true,q,false,true,0.0-2.0-0.12-0.115-3.115,0,0,0,81,false,stim,false,1,799.5,2,0,0,75469,task2,353845,false,false,478,image-keyboard-response,14
true,4,2,1,2,true,d,false,true,0.0-2.0-0.12-0.116-3.116,0,0,0,68,false,stim,false,1,513.8999999910593,2,0,1,75469,task2,355880,false,false,481,image-keyboard-response,15
true,4,2,1,2,true,d,false,true,0.0-2.0-0.13-0.117-3.117,0,0,0,68,false,stim,false,1,325.3999999910593,2,0,1,75469,task2,357727,false,false,484,image-keyboard-response,16
true,4,2,1,2,true,d,false,true,0.0-2.0-0.13-0.118-3.118,0,0,0,68,false,stim,false,0,336.0,2,0,2,75469,task2,359589,false,false,487,image-keyboard-response,17
true,4,0,1,0,true,q,false,true,0.0-2.0-0.13-0.119-3.119,0,0,0,81,false,stim,false,1,493.29999999701977,2,0,0,75469,task2,361614,false,false,490,image-keyboard-response,18
true,4,2,1,2,true,d,false,true,0.0-2.0-0.13-0.120-3.120,0,0,0,68,false,stim,false,1,422.8999999910593,2,0,1,75469,task2,363565,false,false,493,image-keyboard-response,19
true,4,0,1,0,true,q,false,false,0.0-2.0-0.13-0.121-3.121,0,0,0,81,false,stim,false,1,702.4000000059605,2,0,0,75469,task2,365799,false,true,496,image-keyboard-response,20
true,4,2,1,2,true,d,false,true,0.0-2.0-0.13-0.122-3.122,0,0,0,68,false,stim,false,1,847.0999999940395,2,0,1,75469,task2,368167,false,false,499,image-keyboard-response,21
true,4,2,1,2,true,d,false,true,0.0-2.0-0.13-0.123-3.123,0,0,0,68,false,stim,false,0,595.7000000029802,2,0,2,75469,task2,370294,false,false,502,image-keyboard-response,22
true,4,2,1,2,true,d,false,true,0.0-2.0-0.13-0.124-3.124,0,0,0,68,false,stim,false,0,364.5,2,0,2,75469,task2,372187,false,false,505,image-keyboard-response,23
true,4,0,1,0,true,q,false,true,0.0-2.0-0.13-0.125-3.125,0,0,0,81,false,stim,false,1,606.5,2,0,0,75469,task2,374316,false,false,508,image-keyboard-response,24
true,4,0,1,0,true,q,false,true,0.0-2.0-0.14-0.126-3.126,0,0,0,81,false,stim,false,1,391.29999999701977,2,0,0,75469,task2,376234,false,false,511,image-keyboard-response,25
true,4,2,1,2,true,d,false,true,0.0-2.0-0.14-0.127-3.127,0,0,0,68,false,stim,false,1,417.0,2,0,1,75469,task2,378180,false,false,514,image-keyboard-response,26
true,4,2,1,2,true,d,false,true,0.0-2.0-0.14-0.128-3.128,0,0,0,68,false,stim,false,0,464.5,2,0,2,75469,task2,380173,false,false,517,image-keyboard-response,27
true,4,2,1,2,true,d,false,true,0.0-2.0-0.14-0.129-3.129,0,0,0,68,false,stim,false,0,466.20000000298023,2,0,2,75469,task2,382162,false,false,520,image-keyboard-response,28
true,4,2,1,2,true,d,false,true,0.0-2.0-0.14-0.130-3.130,0,0,0,68,false,stim,false,0,430.5,2,0,2,75469,task2,384113,false,false,523,image-keyboard-response,29
true,4,2,1,2,true,d,false,false,0.0-2.0-0.14-0.131-3.131,0,0,0,68,false,stim,false,1,668.2999999970198,2,0,1,75469,task2,386304,false,true,526,image-keyboard-response,30
true,4,2,1,2,true,d,false,true,0.0-2.0-0.14-0.132-3.132,0,0,0,68,false,stim,false,1,346.8999999910593,2,0,1,75469,task2,388177,false,false,529,image-keyboard-response,31
true,4,0,1,0,true,q,false,true,0.0-2.0-0.14-0.133-3.133,0,0,0,81,false,stim,false,1,429.40000000596046,2,0,0,75469,task2,390123,false,false,532,image-keyboard-response,32
true,4,0,1,0,true,q,false,true,0.0-2.0-0.14-0.134-3.134,0,0,0,81,false,stim,false,1,403.1000000089407,2,0,0,75469,task2,392052,false,false,535,image-keyboard-response,33
true,4,0,1,0,true,q,false,true,0.0-2.0-0.15-0.135-3.135,0,0,0,81,false,stim,false,1,372.29999999701977,2,0,0,75469,task2,393947,false,false,538,image-keyboard-response,34
true,4,2,1,2,true,d,false,true,0.0-2.0-0.15-0.136-3.136,0,0,0,68,false,stim,false,1,432.70000000298023,2,0,1,75469,task2,395906,false,false,541,image-keyboard-response,35
true,5,2,1,1,false,z,false,false,0.0-2.0-0.15-0.137-3.137,0,0,0,68,true,stim,true,2,368.0,2,0,2,75469,task2,397799,false,false,544,image-keyboard-response,1
true,5,0,1,2,false,d,false,false,0.0-2.0-0.15-0.138-3.138,0,0,0,81,false,stim,true,0,609.2999999970198,2,0,0,75469,task2,399936,false,false,547,image-keyboard-response,2
true,5,2,1,1,false,z,false,false,0.0-2.0-0.15-0.139-3.139,0,0,0,68,false,stim,true,2,537.0,2,0,1,75469,task2,402005,false,false,550,image-keyboard-response,3
true,5,0,1,2,false,d,false,true,0.0-2.0-0.15-0.140-3.140,0,0,0,81,false,stim,true,0,416.0,2,0,0,75469,task2,403952,false,true,553,image-keyboard-response,4
true,5,0,1,1,false,z,true,false,0.0-2.0-0.15-0.141-3.141,0,0,0,81,false,stim,false,2,511.0,2,0,2,75469,task2,405994,false,false,556,image-keyboard-response,5
true,5,2,1,1,false,z,false,false,0.0-2.0-0.15-0.142-3.142,0,0,0,68,false,stim,true,2,799.2000000029802,2,0,1,75469,task2,408306,false,false,559,image-keyboard-response,6
true,5,2,1,1,false,z,false,false,0.0-2.0-0.15-0.143-3.143,0,0,0,68,false,stim,true,2,687.5,2,0,2,75469,task2,410514,false,false,562,image-keyboard-response,7
true,5,1,1,1,true,z,false,false,0.0-2.0-0.16-0.144-3.144,0,0,0,90,false,stim,false,2,572.5999999940395,2,0,2,75469,task2,412619,false,true,565,image-keyboard-response,8
true,5,0,1,1,false,z,true,true,0.0-2.0-0.16-0.145-3.145,0,0,0,81,false,stim,false,2,752.7999999970198,2,0,1,75469,task2,414898,false,true,568,image-keyboard-response,9
true,5,0,1,1,false,z,true,false,0.0-2.0-0.16-0.146-3.146,0,0,0,81,false,stim,false,2,436.5,2,0,1,75469,task2,416859,false,false,571,image-keyboard-response,10
true,5,0,1,2,false,d,false,false,0.0-2.0-0.16-0.147-3.147,0,0,0,81,false,stim,true,0,378.79999999701977,2,0,0,75469,task2,418767,false,false,574,image-keyboard-response,11
true,5,0,1,1,false,z,true,false,0.0-2.0-0.16-0.148-3.148,0,0,0,81,false,stim,false,2,785.8999999910593,2,0,2,75469,task2,421075,false,false,577,image-keyboard-response,12
true,5,1,1,2,false,d,true,false,0.0-2.0-0.16-0.149-3.149,0,0,0,90,false,stim,false,0,748.3999999910593,2,0,0,75469,task2,423344,false,false,580,image-keyboard-response,13
true,5,0,1,1,false,z,true,false,0.0-2.0-0.16-0.150-3.150,0,0,0,81,false,stim,false,2,555.0,2,0,2,75469,task2,425422,false,false,583,image-keyboard-response,14
true,5,0,1,1,false,z,true,false,0.0-2.0-0.16-0.151-3.151,0,0,0,81,false,stim,false,2,717.2000000029802,2,0,1,75469,task2,427666,false,false,586,image-keyboard-response,15
true,5,0,1,2,false,d,false,true,0.0-2.0-0.16-0.152-3.152,0,0,0,81,false,stim,true,0,705.6000000089407,2,0,0,75469,task2,429898,false,true,589,image-keyboard-response,16
true,5,2,1,1,false,z,false,false,0.0-2.0-0.17-0.153-3.153,0,0,0,68,false,stim,true,2,782.0999999940395,2,0,1,75469,task2,432198,false,false,592,image-keyboard-response,17
true,5,1,1,1,true,z,false,true,0.0-2.0-0.17-0.154-3.154,0,0,0,90,false,stim,false,2,474.90000000596046,2,0,1,75469,task2,434189,false,false,595,image-keyboard-response,18
true,5,1,1,1,true,z,false,true,0.0-2.0-0.17-0.155-3.155,0,0,0,90,false,stim,false,2,630.0,2,0,2,75469,task2,436336,false,false,598,image-keyboard-response,19
true,5,1,1,1,true,z,false,true,0.0-2.0-0.17-0.156-3.156,0,0,0,90,false,stim,false,2,382.5,2,0,2,75469,task2,438249,false,false,601,image-keyboard-response,20
true,5,0,1,2,false,d,false,false,0.0-2.0-0.17-0.157-3.157,0,0,0,81,false,stim,true,0,507.0,2,0,0,75469,task2,440282,false,false,604,image-keyboard-response,21
true,5,1,1,1,true,z,false,true,0.0-2.0-0.17-0.158-3.158,0,0,0,90,false,stim,false,2,437.0,2,0,1,75469,task2,442252,false,false,607,image-keyboard-response,22
true,5,0,1,2,false,d,false,false,0.0-2.0-0.17-0.159-3.159,0,0,0,81,false,stim,true,0,632.9000000059605,2,0,0,75469,task2,444404,false,false,610,image-keyboard-response,23
true,5,2,1,2,true,d,false,true,0.0-2.0-0.17-0.160-3.160,0,0,0,68,false,stim,false,0,443.0,2,0,0,75469,task2,446364,false,false,613,image-keyboard-response,24
true,5,1,1,1,true,z,false,true,0.0-2.0-0.17-0.161-3.161,0,0,0,90,false,stim,false,2,387.5,2,0,2,75469,task2,448271,false,false,616,image-keyboard-response,25
true,5,1,1,1,true,z,false,true,0.0-2.0-0.18-0.162-3.162,0,0,0,90,false,stim,false,2,287.3999999910593,2,0,2,75469,task2,450073,false,false,619,image-keyboard-response,26
true,5,2,1,2,true,d,false,true,0.0-2.0-0.18-0.163-3.163,0,0,0,68,false,stim,false,0,513.7000000029802,2,0,0,75469,task2,452108,false,false,622,image-keyboard-response,27
true,5,1,1,1,true,z,false,true,0.0-2.0-0.18-0.164-3.164,0,0,0,90,false,stim,false,2,828.1000000089407,2,0,2,75469,task2,454461,false,false,625,image-keyboard-response,28
true,5,1,1,1,true,z,false,true,0.0-2.0-0.18-0.165-3.165,0,0,0,90,false,stim,false,2,301.5,2,0,1,75469,task2,456287,false,false,628,image-keyboard-response,29
true,5,1,1,1,true,z,false,true,0.0-2.0-0.18-0.166-3.166,0,0,0,90,false,stim,false,2,427.3999999910593,2,0,1,75469,task2,458229,false,false,631,image-keyboard-response,30
true,5,2,1,2,true,d,false,true,0.0-2.0-0.18-0.167-3.167,0,0,0,68,false,stim,false,0,460.09999999403954,2,0,0,75469,task2,460208,false,false,634,image-keyboard-response,31
true,5,1,1,1,true,z,false,true,0.0-2.0-0.18-0.168-3.168,0,0,0,90,false,stim,false,2,407.0,2,0,1,75469,task2,462137,false,false,637,image-keyboard-response,32
true,5,2,1,2,true,d,false,true,0.0-2.0-0.18-0.169-3.169,0,0,0,68,false,stim,false,0,1252.7999999970198,2,0,0,75469,task2,464907,false,false,640,image-keyboard-response,33
true,5,1,1,1,true,z,false,true,0.0-2.0-0.18-0.170-3.170,0,0,0,90,false,stim,false,2,391.0,2,0,2,75469,task2,466822,false,false,643,image-keyboard-response,34
true,5,1,1,1,true,z,false,true,0.0-2.0-0.19-0.171-3.171,0,0,0,90,false,stim,false,2,660.1000000089407,2,0,2,75469,task2,469013,false,false,646,image-keyboard-response,35
true,5,1,1,1,true,z,false,true,0.0-2.0-0.19-0.172-3.172,0,0,0,90,false,stim,false,2,440.5,2,0,2,75469,task2,470984,false,false,649,image-keyboard-response,36
true,6,2,1,1,false,z,false,false,0.0-2.0-0.19-0.173-3.173,0,0,0,68,true,stim,true,2,737.6000000089407,2,0,0,75469,task2,473237,false,false,652,image-keyboard-response,1
true,6,1,1,2,false,d,false,false,0.0-2.0-0.19-0.174-3.174,0,0,0,90,false,stim,true,1,503.5,2,0,1,75469,task2,475257,false,false,655,image-keyboard-response,2
true,6,1,1,1,true,z,false,true,0.0-2.0-0.19-0.175-3.175,0,0,0,90,false,stim,false,2,381.8999999910593,2,0,0,75469,task2,477168,false,false,658,image-keyboard-response,3
true,6,1,1,1,true,z,false,false,0.0-2.0-0.19-0.176-3.176,0,0,0,90,false,stim,false,2,564.6000000089407,2,0,0,75469,task2,479263,false,true,661,image-keyboard-response,4
true,6,0,1,2,false,d,true,false,0.0-2.0-0.19-0.177-3.177,0,0,0,81,false,stim,false,1,622.3999999910593,2,0,1,75469,task2,481403,false,false,664,image-keyboard-response,5
true,6,1,1,2,false,d,false,false,0.0-2.0-0.19-0.178-3.178,0,0,0,90,false,stim,true,1,578.1999999880791,2,0,2,75469,task2,483502,false,false,667,image-keyboard-response,6
true,6,2,1,2,true,d,false,true,0.0-2.0-0.19-0.179-3.179,0,0,0,68,false,stim,false,1,1205.5,2,0,1,75469,task2,486232,false,false,670,image-keyboard-response,7
true,6,2,1,2,true,d,false,true,0.0-2.0-0.20-0.180-3.180,0,0,0,68,false,stim,false,1,595.0,2,0,1,75469,task2,488349,false,false,673,image-keyboard-response,8
true,6,2,1,2,true,d,false,true,0.0-2.0-0.20-0.181-3.181,0,0,0,68,false,stim,false,1,531.7000000029802,2,0,1,75469,task2,490406,false,false,676,image-keyboard-response,9
true,6,2,1,2,true,d,false,true,0.0-2.0-0.20-0.182-3.182,0,0,0,68,false,stim,false,1,455.5,2,0,1,75469,task2,492387,false,false,679,image-keyboard-response,10
true,6,0,1,2,false,d,true,false,0.0-2.0-0.20-0.183-3.183,0,0,0,81,false,stim,false,1,812.7999999970198,2,0,2,75469,task2,494718,false,false,682,image-keyboard-response,11
true,6,1,1,1,true,z,false,true,0.0-2.0-0.20-0.184-3.184,0,0,0,90,false,stim,false,2,472.0,2,0,0,75469,task2,496718,false,false,685,image-keyboard-response,12
true,6,1,1,2,false,d,false,false,0.0-2.0-0.20-0.185-3.185,0,0,0,90,false,stim,true,1,405.20000000298023,2,0,2,75469,task2,498650,false,false,688,image-keyboard-response,13
true,6,2,1,2,true,d,false,true,0.0-2.0-0.20-0.186-3.186,0,0,0,68,false,stim,false,1,541.6000000089407,2,0,2,75469,task2,500713,false,false,691,image-keyboard-response,14
true,6,1,1,1,true,z,false,true,0.0-2.0-0.20-0.187-3.187,0,0,0,90,false,stim,false,2,581.5,2,0,0,75469,task2,502817,false,false,694,image-keyboard-response,15
true,6,1,1,1,true,z,false,false,0.0-2.0-0.20-0.188-3.188,0,0,0,90,false,stim,false,2,465.70000000298023,2,0,0,75469,task2,504811,false,true,697,image-keyboard-response,16
true,6,2,1,2,true,d,false,true,0.0-2.0-0.21-0.189-3.189,0,0,0,68,false,stim,false,1,465.79999999701977,2,0,2,75469,task2,506797,false,false,700,image-keyboard-response,17
true,6,1,1,1,true,z,false,false,0.0-2.0-0.21-0.190-3.190,0,0,0,90,false,stim,false,2,477.70000000298023,2,0,0,75469,task2,508797,false,true,703,image-keyboard-response,18
true,6,2,1,2,true,d,false,true,0.0-2.0-0.21-0.191-3.191,0,0,0,68,false,stim,false,1,380.20000000298023,2,0,2,75469,task2,510704,false,false,706,image-keyboard-response,19
true,6,2,1,2,true,d,false,true,0.0-2.0-0.21-0.192-3.192,0,0,0,68,false,stim,false,1,497.19999998807907,2,0,1,75469,task2,512722,false,false,709,image-keyboard-response,20
true,6,0,1,1,false,z,true,false,0.0-2.0-0.21-0.193-3.193,0,0,0,81,false,stim,false,2,441.70000000298023,2,0,0,75469,task2,514682,false,false,712,image-keyboard-response,21
true,6,2,1,2,true,d,false,true,0.0-2.0-0.21-0.194-3.194,0,0,0,68,false,stim,false,1,366.40000000596046,2,0,2,75469,task2,516570,false,false,715,image-keyboard-response,22
true,6,1,1,1,true,z,false,true,0.0-2.0-0.21-0.195-3.195,0,0,0,90,false,stim,false,2,406.3999999910593,2,0,0,75469,task2,518507,false,false,718,image-keyboard-response,23
true,6,2,1,2,true,d,false,true,0.0-2.0-0.21-0.196-3.196,0,0,0,68,false,stim,false,1,510.30000001192093,2,0,1,75469,task2,520534,false,false,721,image-keyboard-response,24
true,6,2,1,2,true,d,false,true,0.0-2.0-0.21-0.197-3.197,0,0,0,68,false,stim,false,1,417.70000000298023,2,0,1,75469,task2,522475,false,false,724,image-keyboard-response,25
true,6,2,1,2,true,d,false,true,0.0-2.0-0.22-0.198-3.198,0,0,0,68,false,stim,false,1,402.90000000596046,2,0,1,75469,task2,524392,false,false,727,image-keyboard-response,26
true,6,2,1,2,true,d,false,true,0.0-2.0-0.22-0.199-3.199,0,0,0,68,false,stim,false,1,323.6000000089407,2,0,2,75469,task2,526238,false,false,730,image-keyboard-response,27
true,6,2,1,2,true,d,false,true,0.0-2.0-0.22-0.200-3.200,0,0,0,68,false,stim,false,1,312.0,2,0,2,75469,task2,528073,false,false,733,image-keyboard-response,28
true,6,1,1,1,true,z,false,true,0.0-2.0-0.22-0.201-3.201,0,0,0,90,false,stim,false,2,545.9000000059605,2,0,0,75469,task2,530138,false,false,736,image-keyboard-response,29
true,6,1,1,1,true,z,false,true,0.0-2.0-0.22-0.202-3.202,0,0,0,90,false,stim,false,2,403.5,2,0,0,75469,task2,532063,false,false,739,image-keyboard-response,30
true,6,1,1,1,true,z,false,true,0.0-2.0-0.22-0.203-3.203,0,0,0,90,false,stim,false,2,383.59999999403954,2,0,0,75469,task2,533966,false,false,742,image-keyboard-response,31
true,6,2,1,2,true,d,false,true,0.0-2.0-0.22-0.204-3.204,0,0,0,68,false,stim,false,1,491.80000001192093,2,1,1,75469,task2,535987,false,false,745,image-keyboard-response,32
true,6,2,1,2,true,d,false,true,0.0-2.0-0.22-0.205-3.205,0,0,0,68,false,stim,false,1,716.6000000089407,2,0,2,75469,task2,538227,false,false,748,image-keyboard-response,33
true,6,1,1,2,false,d,false,false,0.0-2.0-0.22-0.206-3.206,0,0,0,90,false,stim,true,1,414.70000000298023,2,1,1,75469,task2,540159,false,false,751,image-keyboard-response,34
true,6,2,1,2,true,d,false,true,0.0-2.0-0.23-0.207-3.207,0,0,0,68,false,stim,false,1,381.0,2,1,1,75469,task2,542067,false,false,754,image-keyboard-response,35
true,7,1,2,0,false,q,false,false,0.0-2.0-0.23-0.208-3.208,0,1,0,90,true,stim,true,1,475.59999999403954,2,0,0,75469,task2,544069,false,false,757,image-keyboard-response,1
true,7,1,2,0,false,q,false,false,0.0-2.0-0.23-0.209-3.209,0,1,0,90,false,stim,true,1,425.79999999701977,2,0,0,75469,task2,546015,false,false,760,image-keyboard-response,2
true,7,2,2,2,true,d,false,true,0.0-2.0-0.23-0.210-3.210,0,1,0,68,false,stim,false,2,679.7999999970198,2,1,1,75469,task2,548226,false,false,763,image-keyboard-response,3
true,7,2,2,2,true,d,false,true,0.0-2.0-0.23-0.211-3.211,0,1,0,68,false,stim,false,2,425.5,2,1,1,75469,task2,550170,false,false,766,image-keyboard-response,4
true,7,2,2,0,false,q,false,false,0.0-2.0-0.23-0.212-3.212,0,1,0,68,false,stim,true,2,396.70000000298023,2,0,2,75469,task2,552095,false,false,769,image-keyboard-response,5
true,7,2,2,0,false,q,false,true,0.0-2.0-0.23-0.213-3.213,0,1,0,68,false,stim,true,2,443.3999999910593,2,0,2,75469,task2,554056,false,true,772,image-keyboard-response,6
true,7,2,2,0,false,q,false,false,0.0-2.0-0.23-0.214-3.214,0,1,0,68,false,stim,true,2,468.5,2,0,2,75469,task2,556052,false,false,775,image-keyboard-response,7
true,7,1,2,0,false,q,false,false,0.0-2.0-0.23-0.215-3.215,0,1,0,90,false,stim,true,1,911.1000000089407,2,0,0,75469,task2,558483,false,false,778,image-keyboard-response,8
true,7,2,2,2,true,d,false,true,0.0-2.0-0.24-0.216-3.216,0,1,0,68,false,stim,false,2,724.7000000029802,2,1,1,75469,task2,560731,false,false,781,image-keyboard-response,9
true,7,0,2,0,true,q,false,false,0.0-2.0-0.24-0.217-3.217,0,1,0,81,false,stim,false,1,389.5,2,0,0,75469,task2,562637,false,true,784,image-keyboard-response,10
true,7,2,2,0,false,q,true,false,0.0-2.0-0.24-0.218-3.218,0,1,0,68,false,stim,false,1,526.5999999940395,2,0,0,75469,task2,564687,false,false,787,image-keyboard-response,11
true,7,2,2,0,false,q,false,false,0.0-2.0-0.24-0.219-3.219,0,1,0,68,false,stim,true,2,525.0,2,0,2,75469,task2,566737,false,false,790,image-keyboard-response,12
true,7,2,2,2,true,d,false,true,0.0-2.0-0.24-0.220-3.220,0,1,0,68,false,stim,false,2,768.7000000029802,2,1,1,75469,task2,569032,false,false,793,image-keyboard-response,13
true,7,1,2,0,false,q,true,false,0.0-2.0-0.24-0.221-3.221,0,1,0,90,false,stim,false,2,756.5999999940395,2,0,2,75469,task2,571308,false,false,796,image-keyboard-response,14
true,7,1,2,2,false,d,true,false,0.0-2.0-0.24-0.222-3.222,0,1,0,90,false,stim,false,2,362.5,2,1,1,75469,task2,573194,false,false,799,image-keyboard-response,15
true,7,0,2,0,true,q,false,true,0.0-2.0-0.24-0.223-3.223,0,1,0,81,false,stim,false,2,779.0999999940395,2,0,2,75469,task2,575493,false,false,802,image-keyboard-response,16
true,7,2,2,0,false,q,true,true,0.0-2.0-0.24-0.224-3.224,0,1,0,68,false,stim,false,1,983.6000000089407,2,0,0,75469,task2,577996,false,true,805,image-keyboard-response,17
true,7,2,2,0,false,q,true,false,0.0-2.0-0.25-0.225-3.225,0,1,0,68,false,stim,false,1,645.4000000059605,2,0,0,75469,task2,580160,false,false,808,image-keyboard-response,18
true,7,0,2,0,true,q,false,true,0.0-2.0-0.25-0.226-3.226,0,1,0,81,false,stim,false,2,621.3000000119209,2,0,2,75469,task2,582297,false,false,811,image-keyboard-response,19
true,7,2,2,2,true,d,false,true,0.0-2.0-0.25-0.227-3.227,0,1,0,68,false,stim,false,2,780.9000000059605,2,1,1,75469,task2,584597,false,false,814,image-keyboard-response,20
true,7,0,2,0,true,q,false,true,0.0-2.0-0.25-0.228-3.228,0,1,0,81,false,stim,false,2,449.0,2,0,2,75469,task2,586564,false,false,817,image-keyboard-response,21
true,7,1,2,0,false,q,false,false,0.0-2.0-0.25-0.229-3.229,0,1,0,90,false,stim,true,1,440.40000000596046,2,0,0,75469,task2,588532,false,false,820,image-keyboard-response,22
true,7,0,2,0,true,q,false,true,0.0-2.0-0.25-0.230-3.230,0,1,0,81,false,stim,false,2,830.0,2,0,2,75469,task2,590887,false,false,823,image-keyboard-response,23
true,7,2,2,0,false,q,true,false,0.0-2.0-0.25-0.231-3.231,0,1,0,68,false,stim,false,1,571.2000000029802,2,0,0,75469,task2,592988,false,false,826,image-keyboard-response,24
true,7,2,2,2,true,d,false,false,0.0-2.0-0.25-0.232-3.232,0,1,0,68,false,stim,false,2,517.4000000059605,2,1,1,75469,task2,595032,false,true,829,image-keyboard-response,25
true,7,2,2,2,true,d,false,true,0.0-2.0-0.25-0.233-3.233,0,1,0,68,false,stim,false,2,656.4000000059605,2,1,1,75469,task2,597220,false,false,832,image-keyboard-response,26
true,7,2,2,0,false,q,true,false,0.0-2.0-0.26-0.234-3.234,0,1,0,68,false,stim,false,1,773.1999999880791,2,0,0,75469,task2,599514,false,false,835,image-keyboard-response,27
true,7,0,2,0,true,q,false,true,0.0-2.0-0.26-0.235-3.235,0,1,0,81,false,stim,false,1,430.79999999701977,2,0,0,75469,task2,601475,false,false,838,image-keyboard-response,28
true,7,2,2,2,true,d,false,true,0.0-2.0-0.26-0.236-3.236,0,1,0,68,false,stim,false,2,645.2999999970198,2,0,1,75469,task2,603646,false,false,841,image-keyboard-response,29
true,7,0,2,0,true,q,false,true,0.0-2.0-0.26-0.237-3.237,0,1,0,81,false,stim,false,2,541.0,2,1,2,75469,task2,605707,false,false,844,image-keyboard-response,30
true,7,0,2,0,true,q,false,true,0.0-2.0-0.26-0.238-3.238,0,1,0,81,false,stim,false,2,391.09999999403954,2,1,2,75469,task2,607627,false,false,847,image-keyboard-response,31
true,7,2,2,2,true,d,false,true,0.0-2.0-0.26-0.239-3.239,0,1,0,68,false,stim,false,2,714.1999999880791,2,0,1,75469,task2,609861,false,false,850,image-keyboard-response,32
true,8,2,2,0,false,q,false,false,0.0-2.0-0.26-0.240-3.240,0,0,1,68,true,stim,true,2,604.2999999970198,2,0,1,75469,task2,611988,false,false,853,image-keyboard-response,1
true,8,0,2,0,true,q,false,true,0.0-2.0-0.26-0.241-3.241,0,0,1,81,false,stim,false,0,854.2999999970198,2,1,2,75469,task2,614374,false,false,856,image-keyboard-response,2
true,8,0,2,2,false,d,false,false,0.0-2.0-0.26-0.242-3.242,0,0,1,81,false,stim,true,0,798.5,2,0,0,75469,task2,616707,false,false,859,image-keyboard-response,3
true,8,2,2,0,false,q,false,false,0.0-2.0-0.27-0.243-3.243,0,0,1,68,false,stim,true,2,575.9000000059605,2,0,1,75469,task2,618801,false,false,862,image-keyboard-response,4
true,8,0,2,0,true,q,false,true,0.0-2.0-0.27-0.244-3.244,0,0,1,81,false,stim,false,0,575.5,2,1,2,75469,task2,620884,false,false,865,image-keyboard-response,5
true,8,2,2,0,false,q,false,false,0.0-2.0-0.27-0.245-3.245,0,0,1,68,false,stim,true,2,546.9000000059605,2,0,1,75469,task2,622955,false,false,868,image-keyboard-response,6
true,8,0,2,2,false,d,false,false,0.0-2.0-0.27-0.246-3.246,0,0,1,81,false,stim,true,0,618.1000000089407,2,0,0,75469,task2,625102,false,false,871,image-keyboard-response,7
true,8,0,2,2,false,d,false,false,0.0-2.0-0.27-0.247-3.247,0,0,1,81,false,stim,true,0,942.2000000029802,2,0,0,75469,task2,627567,false,false,874,image-keyboard-response,8
true,8,0,2,0,true,q,false,true,0.0-2.0-0.27-0.248-3.248,0,0,1,81,false,stim,false,0,659.4000000059605,2,1,2,75469,task2,629753,false,false,877,image-keyboard-response,9
true,8,1,2,2,false,d,true,false,0.0-2.0-0.27-0.249-3.249,0,0,1,90,false,stim,false,0,723.7999999970198,2,0,0,75469,task2,632003,false,false,880,image-keyboard-response,10
true,8,1,2,0,false,q,true,false,0.0-2.0-0.27-0.250-3.250,0,0,1,90,false,stim,false,2,565.3000000119209,2,0,1,75469,task2,634086,false,false,883,image-keyboard-response,11
true,8,0,2,0,true,q,false,false,0.0-2.0-0.27-0.251-3.251,0,0,1,81,false,stim,false,0,543.2000000029802,2,1,2,75469,task2,636145,false,true,886,image-keyboard-response,12
true,8,2,2,0,false,q,true,false,0.0-2.0-0.28-0.252-3.252,0,0,1,68,false,stim,false,0,851.0,2,1,2,75469,task2,638513,false,false,889,image-keyboard-response,13
true,8,0,2,0,true,q,false,true,0.0-2.0-0.28-0.253-3.253,0,0,1,81,false,stim,false,2,479.79999999701977,2,0,1,75469,task2,640523,false,false,892,image-keyboard-response,14
true,8,2,2,2,true,d,false,true,0.0-2.0-0.28-0.254-3.254,0,0,1,68,false,stim,false,0,574.3000000119209,2,0,0,75469,task2,642616,false,false,895,image-keyboard-response,15
true,8,2,2,0,false,q,true,false,0.0-2.0-0.28-0.255-3.255,0,0,1,68,false,stim,false,0,949.5999999940395,2,1,2,75469,task2,645093,false,false,898,image-keyboard-response,16
true,8,2,2,2,true,d,false,true,0.0-2.0-0.28-0.256-3.256,0,0,1,68,false,stim,false,0,586.2000000029802,2,0,0,75469,task2,647209,false,false,901,image-keyboard-response,17
true,8,0,2,0,true,q,false,false,0.0-2.0-0.28-0.257-3.257,0,0,1,81,false,stim,false,2,413.20000000298023,2,0,1,75469,task2,649148,false,true,904,image-keyboard-response,18
true,8,1,2,0,false,q,true,false,0.0-2.0-0.28-0.258-3.258,0,0,1,90,false,stim,false,0,544.2999999970198,2,1,2,75469,task2,651225,false,false,907,image-keyboard-response,19
true,8,0,2,0,true,q,false,false,0.0-2.0-0.28-0.259-3.259,0,0,1,81,false,stim,false,2,499.0,2,0,1,75469,task2,653244,false,true,910,image-keyboard-response,20
true,8,2,2,2,true,d,false,true,0.0-2.0-0.28-0.260-3.260,0,0,1,68,false,stim,false,0,670.0,2,0,0,75469,task2,655432,false,false,913,image-keyboard-response,21
true,8,2,2,2,true,d,false,true,0.0-2.0-0.29-0.261-3.261,0,0,1,68,false,stim,false,0,625.1999999880791,2,0,0,75469,task2,657577,false,false,916,image-keyboard-response,22
true,8,0,2,0,true,q,false,true,0.0-2.0-0.29-0.262-3.262,0,0,1,81,false,stim,false,2,729.7000000029802,2,0,1,75469,task2,659835,false,false,919,image-keyboard-response,23
true,8,2,2,2,true,d,false,true,0.0-2.0-0.29-0.263-3.263,0,0,1,68,false,stim,false,0,593.9000000059605,2,0,0,75469,task2,661952,false,false,922,image-keyboard-response,24
true,8,0,2,0,true,q,false,true,0.0-2.0-0.29-0.264-3.264,0,0,1,81,false,stim,false,0,610.8999999910593,2,1,2,75469,task2,664086,false,false,925,image-keyboard-response,25
true,8,0,2,0,true,q,false,false,0.0-2.0-0.29-0.265-3.265,0,0,1,81,false,stim,false,2,567.7999999970198,2,0,1,75469,task2,666173,false,true,928,image-keyboard-response,26
true,8,0,2,0,true,q,false,true,0.0-2.0-0.29-0.266-3.266,0,0,1,81,false,stim,false,0,635.0,2,1,2,75469,task2,668337,false,false,931,image-keyboard-response,27
true,8,0,2,0,true,q,false,true,0.0-2.0-0.29-0.267-3.267,0,0,1,81,false,stim,false,2,514.3999999910593,2,0,1,75469,task2,670374,false,false,934,image-keyboard-response,28
true,8,2,2,2,true,d,false,true,0.0-2.0-0.29-0.268-3.268,0,0,1,68,false,stim,false,0,310.0,2,0,0,75469,task2,672209,false,false,937,image-keyboard-response,29
true,8,0,2,0,true,q,false,false,0.0-2.0-0.29-0.269-3.269,0,0,1,81,false,stim,false,0,571.6000000089407,2,1,2,75469,task2,674292,false,true,940,image-keyboard-response,30
true,8,0,2,0,true,q,false,true,0.0-2.0-0.30-0.270-3.270,0,0,1,81,false,stim,false,0,864.5999999940395,2,1,2,75469,task2,676681,false,false,943,image-keyboard-response,31
true,8,2,2,2,true,d,false,true,0.0-2.0-0.30-0.271-3.271,0,0,1,68,false,stim,false,0,808.1000000089407,2,0,0,75469,task2,679020,false,false,946,image-keyboard-response,32
true,9,2,2,1,false,z,false,true,0.0-2.0-0.30-0.272-3.272,0,0,1,68,true,stim,true,2,922.5,2,0,0,75469,task2,681464,false,true,949,image-keyboard-response,1
true,9,0,2,2,false,d,false,false,0.0-2.0-0.30-0.273-3.273,0,0,1,81,false,stim,true,0,462.0,2,0,1,75469,task2,683458,false,false,952,image-keyboard-response,2
true,9,0,2,2,false,d,false,false,0.0-2.0-0.30-0.274-3.274,0,0,1,81,false,stim,true,0,686.8999999910593,2,0,1,75469,task2,685666,false,false,955,image-keyboard-response,3
true,9,2,2,1,false,z,false,false,0.0-2.0-0.30-0.275-3.275,0,0,1,68,false,stim,true,2,524.5999999940395,2,0,0,75469,task2,687712,false,false,958,image-keyboard-response,4
true,9,0,2,0,true,q,false,true,0.0-2.0-0.30-0.276-3.276,0,0,1,81,false,stim,false,0,745.0,2,1,2,75469,task2,689980,false,false,961,image-keyboard-response,5
true,9,1,2,2,false,d,true,false,0.0-2.0-0.30-0.277-3.277,0,0,1,90,false,stim,false,0,585.7999999970198,2,0,1,75469,task2,692085,false,false,964,image-keyboard-response,6
true,9,0,2,0,true,q,false,true,0.0-2.0-0.30-0.278-3.278,0,0,1,81,false,stim,false,0,693.5,2,1,2,75469,task2,694303,false,false,967,image-keyboard-response,7
true,9,0,2,0,true,q,false,false,0.0-2.0-0.31-0.279-3.279,0,0,1,81,false,stim,false,0,557.8000000119209,2,1,2,75469,task2,696384,false,true,970,image-keyboard-response,8
true,9,2,2,2,true,d,false,true,0.0-2.0-0.31-0.280-3.280,0,0,1,68,false,stim,false,0,392.69999998807907,2,0,1,75469,task2,698297,false,false,973,image-keyboard-response,9
true,9,0,2,1,false,z,true,false,0.0-2.0-0.31-0.281-3.281,0,0,1,81,false,stim,false,2,985.8999999910593,2,0,0,75469,task2,700802,false,false,976,image-keyboard-response,10
true,9,2,2,2,true,d,false,false,0.0-2.0-0.31-0.282-3.282,0,0,1,68,false,stim,false,0,565.2000000029802,2,0,1,75469,task2,702884,false,true,979,image-keyboard-response,11
true,9,2,2,2,true,d,false,false,0.0-2.0-0.31-0.283-3.283,0,0,1,68,false,stim,false,0,353.8999999910593,2,0,1,75469,task2,704759,false,true,982,image-keyboard-response,12
true,9,0,2,0,true,q,false,true,0.0-2.0-0.31-0.284-3.284,0,0,1,81,false,stim,false,0,628.8999999910593,2,1,2,75469,task2,706908,false,false,985,image-keyboard-response,13
true,9,2,2,1,false,z,false,false,0.0-2.0-0.31-0.285-3.285,0,0,1,68,false,stim,true,2,918.5999999940395,2,0,0,75469,task2,709354,false,false,988,image-keyboard-response,14
true,9,0,2,0,true,q,false,true,0.0-2.0-0.31-0.286-3.286,0,0,1,81,false,stim,false,0,625.9000000059605,2,1,2,75469,task2,711504,false,false,991,image-keyboard-response,15
true,9,1,2,1,true,z,false,true,0.0-2.0-0.31-0.287-3.287,0,0,1,90,false,stim,false,2,669.6000000089407,2,0,0,75469,task2,713700,false,false,994,image-keyboard-response,16
true,9,1,2,1,true,z,false,true,0.0-2.0-0.32-0.288-3.288,0,0,1,90,false,stim,false,2,417.8999999910593,2,0,0,75469,task2,715650,false,false,997,image-keyboard-response,17
true,9,1,2,2,false,d,true,false,0.0-2.0-0.32-0.289-3.289,0,0,1,90,false,stim,false,0,758.0,2,0,1,75469,task2,717926,false,false,1000,image-keyboard-response,18
true,9,0,2,0,true,q,false,true,0.0-2.0-0.32-0.290-3.290,0,0,1,81,false,stim,false,0,534.0999999940395,2,1,2,75469,task2,719995,false,false,1003,image-keyboard-response,19
true,9,1,2,0,false,q,true,false,0.0-2.0-0.32-0.291-3.291,0,0,1,90,false,stim,false,0,597.0999999940395,2,1,2,75469,task2,722122,false,false,1006,image-keyboard-response,20
true,9,0,2,0,true,q,false,true,0.0-2.0-0.32-0.292-3.292,0,0,1,81,false,stim,false,0,437.1000000089407,2,1,2,75469,task2,724082,false,false,1009,image-keyboard-response,21
true,9,0,2,2,false,d,false,true,0.0-2.0-0.32-0.293-3.293,0,0,1,81,false,stim,true,0,657.7000000029802,2,0,1,75469,task2,726268,false,true,1012,image-keyboard-response,22
true,9,2,2,1,false,z,false,false,0.0-2.0-0.32-0.294-3.294,0,0,1,68,false,stim,true,2,642.5,2,0,0,75469,task2,728440,false,false,1015,image-keyboard-response,23
true,9,1,2,1,true,z,false,true,0.0-2.0-0.32-0.295-3.295,0,0,1,90,false,stim,false,2,352.70000000298023,2,0,0,75469,task2,730324,false,false,1018,image-keyboard-response,24
true,9,0,2,2,false,d,false,false,0.0-2.0-0.32-0.296-3.296,0,0,1,81,false,stim,true,0,362.5,2,0,1,75469,task2,732210,false,false,1021,image-keyboard-response,25
true,9,1,2,1,true,z,false,true,0.0-2.0-0.33-0.297-3.297,0,0,1,90,false,stim,false,2,375.0,2,0,0,75469,task2,734116,false,false,1024,image-keyboard-response,26
true,9,1,2,1,true,z,false,true,0.0-2.0-0.33-0.298-3.298,0,0,1,90,false,stim,false,2,417.90000000596046,2,0,0,75469,task2,736055,false,false,1027,image-keyboard-response,27
true,9,0,2,0,true,q,false,true,0.0-2.0-0.33-0.299-3.299,0,0,1,81,false,stim,false,0,485.0,2,1,2,75469,task2,738067,false,false,1030,image-keyboard-response,28
true,9,0,2,2,false,d,false,false,0.0-2.0-0.33-0.300-3.300,0,0,1,81,false,stim,true,0,1061.7000000029802,2,0,1,75469,task2,740650,false,false,1033,image-keyboard-response,29
true,9,2,2,2,true,d,false,true,0.0-2.0-0.33-0.301-3.301,0,0,1,68,false,stim,false,0,839.7999999970198,2,0,1,75469,task2,743009,false,false,1036,image-keyboard-response,30
true,9,0,2,0,true,q,false,true,0.0-2.0-0.33-0.302-3.302,0,0,1,81,false,stim,false,0,678.5999999940395,2,1,2,75469,task2,745204,false,false,1039,image-keyboard-response,31
true,9,0,2,0,true,q,false,true,0.0-2.0-0.33-0.303-3.303,0,0,1,81,false,stim,false,0,534.7000000029802,2,1,2,75469,task2,747261,false,false,1042,image-keyboard-response,32
true,9,2,2,2,true,d,false,true,0.0-2.0-0.33-0.304-3.304,0,0,1,68,false,stim,false,0,728.4000000059605,2,0,1,75469,task2,749513,false,false,1045,image-keyboard-response,33
true,10,1,2,0,false,q,false,false,0.0-2.0-0.33-0.305-3.305,0,0,1,90,true,stim,true,1,393.59999999403954,2,0,0,75469,task2,751423,false,false,1048,image-keyboard-response,1
true,10,2,2,1,false,z,false,false,0.0-2.0-0.34-0.306-3.306,0,0,1,68,false,stim,true,2,536.7999999970198,2,0,1,75469,task2,753481,false,false,1051,image-keyboard-response,2
true,10,0,2,0,true,q,false,true,0.0-2.0-0.34-0.307-3.307,0,0,1,81,false,stim,false,0,364.79999999701977,2,1,2,75469,task2,755369,false,false,1054,image-keyboard-response,3
true,10,1,2,1,true,z,false,false,0.0-2.0-0.34-0.308-3.308,0,0,1,90,false,stim,false,2,675.8999999910593,2,0,1,75469,task2,757574,false,true,1057,image-keyboard-response,4
true,10,2,2,0,false,q,true,false,0.0-2.0-0.34-0.309-3.309,0,0,1,68,false,stim,false,0,458.40000000596046,2,1,2,75469,task2,759564,false,false,1060,image-keyboard-response,5
true,10,0,2,0,true,q,false,true,0.0-2.0-0.34-0.310-3.310,0,0,1,81,false,stim,false,1,1035.2000000029802,2,0,0,75469,task2,762123,false,false,1063,image-keyboard-response,6
true,10,0,2,0,true,q,false,true,0.0-2.0-0.34-0.311-3.311,0,0,1,81,false,stim,false,1,402.0,2,0,0,75469,task2,764049,false,false,1066,image-keyboard-response,7
true,10,2,2,1,false,z,false,true,0.0-2.0-0.34-0.312-3.312,0,0,1,68,false,stim,true,2,754.5999999940395,2,0,1,75469,task2,766323,false,true,1069,image-keyboard-response,8
true,10,1,2,0,false,q,true,false,0.0-2.0-0.34-0.313-3.313,0,0,1,90,false,stim,false,0,511.09999999403954,2,1,2,75469,task2,768363,false,false,1072,image-keyboard-response,9
true,10,0,2,0,true,q,false,true,0.0-2.0-0.34-0.314-3.314,0,0,1,81,false,stim,false,1,605.2000000029802,2,0,0,75469,task2,770490,false,false,1075,image-keyboard-response,10
true,10,0,2,0,true,q,false,true,0.0-2.0-0.35-0.315-3.315,0,0,1,81,false,stim,false,0,440.8999999910593,2,1,2,75469,task2,772461,false,false,1078,image-keyboard-response,11
true,10,0,2,0,true,q,false,true,0.0-2.0-0.35-0.316-3.316,0,0,1,81,false,stim,false,1,537.2000000029802,2,0,0,75469,task2,774521,false,false,1081,image-keyboard-response,12
true,10,0,2,0,true,q,false,true,0.0-2.0-0.35-0.317-3.317,0,0,1,81,false,stim,false,1,450.69999998807907,2,0,0,75469,task2,776497,false,false,1084,image-keyboard-response,13
true,10,2,2,1,false,z,false,false,0.0-2.0-0.35-0.318-3.318,0,0,1,68,false,stim,true,2,615.5999999940395,2,0,1,75469,task2,778636,false,false,1087,image-keyboard-response,14
true,10,0,2,0,true,q,false,true,0.0-2.0-0.35-0.319-3.319,0,0,1,81,false,stim,false,1,411.80000001192093,2,0,0,75469,task2,780576,false,false,1090,image-keyboard-response,15
true,10,2,2,1,false,z,false,false,0.0-2.0-0.35-0.320-3.320,0,0,1,68,false,stim,true,2,997.0,2,0,1,75469,task2,783101,false,false,1093,image-keyboard-response,16
true,10,1,2,1,true,z,false,false,0.0-2.0-0.35-0.321-3.321,0,0,1,90,false,stim,false,2,511.0,2,0,1,75469,task2,785135,false,true,1096,image-keyboard-response,17
true,10,0,2,0,true,q,false,true,0.0-2.0-0.35-0.322-3.322,0,0,1,81,false,stim,false,0,601.1999999880791,2,1,2,75469,task2,787264,false,false,1099,image-keyboard-response,18
true,10,0,2,0,true,q,false,true,0.0-2.0-0.35-0.323-3.323,0,0,1,81,false,stim,false,0,538.7999999970198,2,1,2,75469,task2,789349,false,false,1102,image-keyboard-response,19
true,10,2,2,1,false,z,false,false,0.0-2.0-0.36-0.324-3.324,0,0,1,68,false,stim,true,2,464.40000000596046,2,0,1,75469,task2,791344,false,false,1105,image-keyboard-response,20
true,10,0,2,0,true,q,false,false,0.0-2.0-0.36-0.325-3.325,0,0,1,81,false,stim,false,0,387.29999999701977,2,1,2,75469,task2,793263,false,true,1108,image-keyboard-response,21
true,10,0,2,0,true,q,false,true,0.0-2.0-0.36-0.326-3.326,0,0,1,81,false,stim,false,1,813.0,2,0,0,75469,task2,795595,false,false,1111,image-keyboard-response,22
true,10,0,2,0,true,q,false,true,0.0-2.0-0.36-0.327-3.327,0,0,1,81,false,stim,false,1,605.2000000029802,2,0,0,75469,task2,797722,false,false,1114,image-keyboard-response,23
true,10,0,2,1,false,z,true,false,0.0-2.0-0.36-0.328-3.328,0,0,1,81,false,stim,false,2,734.6999999880791,2,0,1,75469,task2,799976,false,false,1117,image-keyboard-response,24
true,10,0,2,1,false,z,true,false,0.0-2.0-0.36-0.329-3.329,0,0,1,81,false,stim,false,2,1182.0999999940395,2,0,1,75469,task2,802681,false,false,1120,image-keyboard-response,25
true,10,0,2,0,true,q,false,true,0.0-2.0-0.36-0.330-3.330,0,0,1,81,false,stim,false,1,693.0,2,0,0,75469,task2,804893,false,false,1123,image-keyboard-response,26
true,10,1,2,0,false,q,true,false,0.0-2.0-0.36-0.331-3.331,0,0,1,90,false,stim,false,0,374.90000000596046,2,1,2,75469,task2,806790,false,false,1126,image-keyboard-response,27
true,10,0,2,0,true,q,false,true,0.0-2.0-0.36-0.332-3.332,0,0,1,81,false,stim,false,0,1303.7000000029802,2,1,2,75469,task2,809615,false,false,1129,image-keyboard-response,28
true,10,2,2,1,false,z,false,false,0.0-2.0-0.37-0.333-3.333,0,0,1,68,false,stim,true,2,800.5,2,0,1,75469,task2,811941,false,false,1132,image-keyboard-response,29
true,10,2,2,1,false,z,false,false,0.0-2.0-0.37-0.334-3.334,0,0,1,68,false,stim,true,2,990.7999999970198,2,0,1,75469,task2,814461,false,false,1135,image-keyboard-response,30
true,10,0,2,0,true,q,false,true,0.0-2.0-0.37-0.335-3.335,0,0,1,81,false,stim,false,0,724.9000000059605,2,1,2,75469,task2,816716,false,false,1138,image-keyboard-response,31
true,10,0,2,0,true,q,false,true,0.0-2.0-0.37-0.336-3.336,0,0,1,81,false,stim,false,1,569.5,2,0,0,75469,task2,818806,false,false,1141,image-keyboard-response,32
true,10,1,2,1,true,z,false,true,0.0-2.0-0.37-0.337-3.337,0,0,1,90,false,stim,false,2,387.79999999701977,2,0,1,75469,task2,820727,false,false,1144,image-keyboard-response,33
true,10,0,2,0,true,q,false,false,0.0-2.0-0.37-0.338-3.338,0,0,1,81,false,stim,false,1,547.4000000059605,2,0,0,75469,task2,822798,false,true,1147,image-keyboard-response,34
true,11,0,2,0,true,q,false,true,0.0-2.0-0.37-0.339-3.339,0,0,1,81,true,stim,false,0,597.5,2,1,2,75469,task2,824912,false,false,1150,image-keyboard-response,1
true,11,0,2,2,false,d,false,false,0.0-2.0-0.37-0.340-3.340,0,0,1,81,false,stim,true,0,481.79999999701977,2,0,0,75469,task2,826917,false,false,1153,image-keyboard-response,2
true,11,0,2,0,true,q,false,true,0.0-2.0-0.37-0.341-3.341,0,0,1,81,false,stim,false,0,420.70000000298023,2,1,2,75469,task2,828871,false,false,1156,image-keyboard-response,3
true,11,1,2,2,false,d,false,false,0.0-2.0-0.38-0.342-3.342,0,0,1,90,false,stim,true,1,297.70000000298023,2,0,1,75469,task2,830693,false,false,1159,image-keyboard-response,4
true,11,0,2,2,false,d,true,false,0.0-2.0-0.38-0.343-3.343,0,0,1,81,false,stim,false,1,444.20000000298023,2,0,1,75469,task2,832659,false,false,1162,image-keyboard-response,5
true,11,0,2,0,true,q,false,true,0.0-2.0-0.38-0.344-3.344,0,0,1,81,false,stim,false,0,602.7999999970198,2,1,2,75469,task2,834779,false,false,1165,image-keyboard-response,6
true,11,0,2,2,false,d,true,false,0.0-2.0-0.38-0.345-3.345,0,0,1,81,false,stim,false,1,606.4000000059605,2,0,1,75469,task2,836914,false,false,1168,image-keyboard-response,7
true,11,0,2,0,true,q,false,true,0.0-2.0-0.38-0.346-3.346,0,0,1,81,false,stim,false,0,591.6000000089407,2,1,2,75469,task2,839034,false,false,1171,image-keyboard-response,8
true,11,0,2,2,false,d,false,false,0.0-2.0-0.38-0.347-3.347,0,0,1,81,false,stim,true,0,747.5999999940395,2,0,0,75469,task2,841300,false,false,1174,image-keyboard-response,9
true,11,1,2,2,false,d,true,false,0.0-2.0-0.38-0.348-3.348,0,0,1,90,false,stim,false,0,596.2999999970198,2,0,0,75469,task2,843419,false,false,1177,image-keyboard-response,10
true,11,0,2,0,true,q,false,true,0.0-2.0-0.38-0.349-3.349,0,0,1,81,false,stim,false,0,691.5999999940395,2,1,2,75469,task2,845629,false,false,1180,image-keyboard-response,11
true,11,2,2,2,true,d,false,true,0.0-2.0-0.38-0.350-3.350,0,0,1,68,false,stim,false,0,498.5,2,0,0,75469,task2,847652,false,false,1183,image-keyboard-response,12
true,11,1,2,2,false,d,false,false,0.0-2.0-0.39-0.351-3.351,0,0,1,90,false,stim,true,1,490.1000000089407,2,0,1,75469,task2,849673,false,false,1186,image-keyboard-response,13
true,11,0,2,0,true,q,false,true,0.0-2.0-0.39-0.352-3.352,0,0,1,81,false,stim,false,0,516.7999999970198,2,1,2,75469,task2,851710,false,false,1189,image-keyboard-response,14
true,11,2,2,2,true,d,false,true,0.0-2.0-0.39-0.353-3.353,0,0,1,68,false,stim,false,0,627.1000000089407,2,0,0,75469,task2,853855,false,false,1192,image-keyboard-response,15
true,11,2,2,2,true,d,false,true,0.0-2.0-0.39-0.354-3.354,0,0,1,68,false,stim,false,0,539.2999999970198,2,0,0,75469,task2,855921,false,false,1195,image-keyboard-response,16
true,11,0,2,0,true,q,false,true,0.0-2.0-0.39-0.355-3.355,0,0,1,81,false,stim,false,0,816.0999999940395,2,1,2,75469,task2,858264,false,false,1198,image-keyboard-response,17
true,11,0,2,0,true,q,false,true,0.0-2.0-0.39-0.356-3.356,0,0,1,81,false,stim,false,0,433.5,2,1,2,75469,task2,860236,false,false,1201,image-keyboard-response,18
true,11,2,2,2,true,d,false,true,0.0-2.0-0.39-0.357-3.357,0,0,1,68,false,stim,false,0,725.8000000119209,2,0,0,75469,task2,862478,false,false,1204,image-keyboard-response,19
true,11,0,2,2,false,d,true,false,0.0-2.0-0.39-0.358-3.358,0,0,1,81,false,stim,false,1,530.5999999940395,2,0,1,75469,task2,864532,false,false,1207,image-keyboard-response,20
true,11,2,2,2,true,d,false,true,0.0-2.0-0.39-0.359-3.359,0,0,1,68,false,stim,false,1,380.5,2,0,1,75469,task2,866439,false,false,1210,image-keyboard-response,21
true,11,2,2,2,true,d,false,true,0.0-2.0-0.40-0.360-3.360,0,0,1,68,false,stim,false,0,485.5,2,0,0,75469,task2,868443,false,false,1213,image-keyboard-response,22
true,11,2,2,2,true,d,false,true,0.0-2.0-0.40-0.361-3.361,0,0,1,68,false,stim,false,0,502.79999999701977,2,0,0,75469,task2,870466,false,false,1216,image-keyboard-response,23
true,11,2,2,2,true,d,false,true,0.0-2.0-0.40-0.362-3.362,0,0,1,68,false,stim,false,1,744.1999999880791,2,0,1,75469,task2,872728,false,false,1219,image-keyboard-response,24
true,11,2,2,2,true,d,false,true,0.0-2.0-0.40-0.363-3.363,0,0,1,68,false,stim,false,1,532.6999999880791,2,0,1,75469,task2,874780,false,false,1222,image-keyboard-response,25
true,11,2,2,2,true,d,false,true,0.0-2.0-0.40-0.364-3.364,0,0,1,68,false,stim,false,1,508.0,2,0,1,75469,task2,876821,false,false,1225,image-keyboard-response,26
true,11,0,2,0,true,q,false,true,0.0-2.0-0.40-0.365-3.365,0,0,1,81,false,stim,false,0,625.7000000029802,2,1,2,75469,task2,878970,false,false,1228,image-keyboard-response,27
true,11,0,2,0,true,q,false,true,0.0-2.0-0.40-0.366-3.366,0,0,1,81,false,stim,false,0,433.0,2,0,2,75469,task2,880922,false,false,1231,image-keyboard-response,28
true,11,0,2,0,true,q,false,true,0.0-2.0-0.40-0.367-3.367,0,0,1,81,false,stim,false,0,552.5,2,0,2,75469,task2,882993,false,false,1234,image-keyboard-response,29
true,11,2,2,2,true,d,false,true,0.0-2.0-0.40-0.368-3.368,0,0,1,68,false,stim,false,0,493.59999999403954,2,0,0,75469,task2,885014,false,false,1237,image-keyboard-response,30
true,11,2,2,2,true,d,false,true,0.0-2.0-0.41-0.369-3.369,0,0,1,68,false,stim,false,1,740.2999999970198,2,1,1,75469,task2,887279,false,false,1240,image-keyboard-response,31
true,11,2,2,2,true,d,false,true,0.0-2.0-0.41-0.370-3.370,0,0,1,68,false,stim,false,0,711.4000000059605,2,0,0,75469,task2,889518,false,false,1243,image-keyboard-response,32
true,12,0,2,1,false,z,false,false,0.0-2.0-0.41-0.371-3.371,0,1,0,81,true,stim,true,0,628.1000000089407,2,0,2,75469,task2,891677,false,false,1246,image-keyboard-response,1
true,12,2,2,2,true,d,false,true,0.0-2.0-0.41-0.372-3.372,0,1,0,68,false,stim,false,2,574.7999999970198,2,1,1,75469,task2,893782,false,false,1249,image-keyboard-response,2
true,12,2,2,0,false,q,false,false,0.0-2.0-0.41-0.373-3.373,0,1,0,68,false,stim,true,2,470.6000000089407,2,0,0,75469,task2,895779,false,false,1252,image-keyboard-response,3
true,12,0,2,1,false,z,false,false,0.0-2.0-0.41-0.374-3.374,0,1,0,81,false,stim,true,0,503.80000001192093,2,0,2,75469,task2,897805,false,false,1255,image-keyboard-response,4
true,12,1,2,1,true,z,false,false,0.0-2.0-0.41-0.375-3.375,0,1,0,90,false,stim,false,0,510.70000000298023,2,0,2,75469,task2,899831,false,true,1258,image-keyboard-response,5
true,12,2,2,0,false,q,false,false,0.0-2.0-0.41-0.376-3.376,0,1,0,68,false,stim,true,2,524.5999999940395,2,0,0,75469,task2,901878,false,false,1261,image-keyboard-response,6
true,12,2,2,2,true,d,false,true,0.0-2.0-0.41-0.377-3.377,0,1,0,68,false,stim,false,2,651.1000000089407,2,1,1,75469,task2,904057,false,false,1264,image-keyboard-response,7
true,12,0,2,0,true,q,false,false,0.0-2.0-0.42-0.378-3.378,0,1,0,81,false,stim,false,2,418.20000000298023,2,0,0,75469,task2,905990,false,true,1267,image-keyboard-response,8
true,12,1,2,0,false,q,true,false,0.0-2.0-0.42-0.379-3.379,0,1,0,90,false,stim,false,2,520.7000000029802,2,0,0,75469,task2,908037,false,false,1270,image-keyboard-response,9
true,12,2,2,1,false,z,true,false,0.0-2.0-0.42-0.380-3.380,0,1,0,68,false,stim,false,0,430.6000000089407,2,0,2,75469,task2,910002,false,false,1273,image-keyboard-response,10
true,12,0,2,1,false,z,false,false,0.0-2.0-0.42-0.381-3.381,0,1,0,81,false,stim,true,0,422.79999999701977,2,0,2,75469,task2,911960,false,false,1276,image-keyboard-response,11
true,12,0,2,1,false,z,false,false,0.0-2.0-0.42-0.382-3.382,0,1,0,81,false,stim,true,0,383.90000000596046,2,0,2,75469,task2,913877,false,false,1279,image-keyboard-response,12
true,12,1,2,0,false,q,true,false,0.0-2.0-0.42-0.383-3.383,0,1,0,90,false,stim,false,2,815.2999999970198,2,0,0,75469,task2,916218,false,false,1282,image-keyboard-response,13
true,12,2,2,2,true,d,false,true,0.0-2.0-0.42-0.384-3.384,0,1,0,68,false,stim,false,2,595.6000000089407,2,1,1,75469,task2,918345,false,false,1285,image-keyboard-response,14
true,12,2,2,2,true,d,false,true,0.0-2.0-0.42-0.385-3.385,0,1,0,68,false,stim,false,2,693.5999999940395,2,1,1,75469,task2,920555,false,false,1288,image-keyboard-response,15
true,12,2,2,2,true,d,false,true,0.0-2.0-0.42-0.386-3.386,0,1,0,68,false,stim,false,2,561.1999999880791,2,1,1,75469,task2,922640,false,false,1291,image-keyboard-response,16
true,12,0,2,1,false,z,false,false,0.0-2.0-0.43-0.387-3.387,0,1,0,81,false,stim,true,0,853.3999999910593,2,0,2,75469,task2,925021,false,false,1294,image-keyboard-response,17
true,12,2,2,0,false,q,false,false,0.0-2.0-0.43-0.388-3.388,0,1,0,68,false,stim,true,2,782.7000000029802,2,0,0,75469,task2,927331,false,false,1297,image-keyboard-response,18
true,12,2,2,1,false,z,true,true,0.0-2.0-0.43-0.389-3.389,0,1,0,68,false,stim,false,0,423.20000000298023,2,0,2,75469,task2,929266,false,true,1300,image-keyboard-response,19
true,12,2,2,2,true,d,false,true,0.0-2.0-0.43-0.390-3.390,0,1,0,68,false,stim,false,2,393.79999999701977,2,1,1,75469,task2,931196,false,false,1303,image-keyboard-response,20
true,12,0,2,0,true,q,false,true,0.0-2.0-0.43-0.391-3.391,0,1,0,81,false,stim,false,2,437.29999999701977,2,0,0,75469,task2,933163,false,false,1306,image-keyboard-response,21
true,12,2,2,1,false,z,true,false,0.0-2.0-0.43-0.392-3.392,0,1,0,68,false,stim,false,0,582.9000000059605,2,0,2,75469,task2,935267,false,false,1309,image-keyboard-response,22
true,12,2,2,2,true,d,false,true,0.0-2.0-0.43-0.393-3.393,0,1,0,68,false,stim,false,2,390.29999999701977,2,1,1,75469,task2,937189,false,false,1312,image-keyboard-response,23
true,12,2,2,2,true,d,false,true,0.0-2.0-0.43-0.394-3.394,0,1,0,68,false,stim,false,2,463.09999999403954,2,1,1,75469,task2,939173,false,false,1315,image-keyboard-response,24
true,12,0,2,0,true,q,false,true,0.0-2.0-0.43-0.395-3.395,0,1,0,81,false,stim,false,2,425.09999999403954,2,0,0,75469,task2,941122,false,false,1318,image-keyboard-response,25
true,12,2,2,2,true,d,false,false,0.0-2.0-0.44-0.396-3.396,0,1,0,68,false,stim,false,2,478.40000000596046,2,1,1,75469,task2,943118,false,true,1321,image-keyboard-response,26
true,12,2,2,1,false,z,true,false,0.0-2.0-0.44-0.397-3.397,0,1,0,68,false,stim,false,0,705.5,2,0,2,75469,task2,945350,false,false,1324,image-keyboard-response,27
true,12,2,2,1,false,z,true,false,0.0-2.0-0.44-0.398-3.398,0,1,0,68,false,stim,false,0,347.6000000089407,2,0,2,75469,task2,947221,false,false,1327,image-keyboard-response,28
true,12,0,2,0,true,q,false,true,0.0-2.0-0.44-0.399-3.399,0,1,0,81,false,stim,false,2,626.3999999910593,2,0,0,75469,task2,949375,false,false,1330,image-keyboard-response,29
true,12,0,2,0,true,q,false,true,0.0-2.0-0.44-0.400-3.400,0,1,0,81,false,stim,false,2,962.7000000029802,2,0,0,75469,task2,951862,false,false,1333,image-keyboard-response,30
true,12,1,2,2,false,d,true,true,0.0-2.0-0.44-0.401-3.401,0,1,0,90,false,stim,false,2,550.8999999910593,2,0,1,75469,task2,953942,false,true,1336,image-keyboard-response,31
true,12,1,2,1,true,z,false,true,0.0-2.0-0.44-0.402-3.402,0,1,0,90,false,stim,false,0,483.59999999403954,2,1,2,75469,task2,955960,false,false,1339,image-keyboard-response,32
true,12,0,2,0,true,q,false,true,0.0-2.0-0.44-0.403-3.403,0,1,0,81,false,stim,false,2,386.5,2,0,0,75469,task2,957867,false,false,1342,image-keyboard-response,33
true,12,1,2,2,false,d,true,false,0.0-2.0-0.44-0.404-3.404,0,1,0,90,false,stim,false,2,370.40000000596046,2,0,1,75469,task2,959758,false,false,1345,image-keyboard-response,34
true,13,1,2,1,true,z,false,true,0.0-2.0-0.45-0.405-3.405,0,0,1,90,true,stim,false,1,381.0,2,1,2,75469,task2,961663,false,false,1348,image-keyboard-response,1
true,13,0,2,1,false,z,false,true,0.0-2.0-0.45-0.406-3.406,0,0,1,81,false,stim,true,0,413.5,2,0,0,75469,task2,963609,false,true,1351,image-keyboard-response,2
true,13,0,2,1,false,z,false,false,0.0-2.0-0.45-0.407-3.407,0,0,1,81,false,stim,true,0,600.5,2,0,0,75469,task2,965737,false,false,1354,image-keyboard-response,3
true,13,1,2,0,false,q,true,false,0.0-2.0-0.45-0.408-3.408,0,0,1,90,false,stim,false,2,697.5,2,0,1,75469,task2,967956,false,false,1357,image-keyboard-response,4
true,13,1,2,1,true,z,false,true,0.0-2.0-0.45-0.409-3.409,0,0,1,90,false,stim,false,1,671.0,2,1,2,75469,task2,970149,false,false,1360,image-keyboard-response,5
true,13,1,2,0,false,q,true,true,0.0-2.0-0.45-0.410-3.410,0,0,1,90,false,stim,false,2,1051.2000000029802,2,0,1,75469,task2,972720,false,true,1363,image-keyboard-response,6
true,13,1,2,0,false,q,true,false,0.0-2.0-0.45-0.411-3.411,0,0,1,90,false,stim,false,2,656.7000000029802,2,0,1,75469,task2,974897,false,false,1366,image-keyboard-response,7
true,13,0,2,1,false,z,false,false,0.0-2.0-0.45-0.412-3.412,0,0,1,81,false,stim,true,0,1106.5,2,0,0,75469,task2,977529,false,false,1369,image-keyboard-response,8
true,13,1,2,1,true,z,false,true,0.0-2.0-0.45-0.413-3.413,0,0,1,90,false,stim,false,1,636.4000000059605,2,1,2,75469,task2,979688,false,false,1372,image-keyboard-response,9
true,13,1,2,1,true,z,false,true,0.0-2.0-0.46-0.414-3.414,0,0,1,90,false,stim,false,1,481.3999999910593,2,1,2,75469,task2,981689,false,false,1375,image-keyboard-response,10
true,13,2,2,1,false,z,true,false,0.0-2.0-0.46-0.415-3.415,0,0,1,68,false,stim,false,0,401.70000000298023,2,0,0,75469,task2,983619,false,false,1378,image-keyboard-response,11
true,13,2,2,1,false,z,true,false,0.0-2.0-0.46-0.416-3.416,0,0,1,68,false,stim,false,0,481.5,2,0,0,75469,task2,985621,false,false,1381,image-keyboard-response,12
true,13,1,2,0,false,q,true,false,0.0-2.0-0.46-0.417-3.417,0,0,1,90,false,stim,false,2,382.90000000596046,2,0,1,75469,task2,987533,false,false,1384,image-keyboard-response,13
true,13,1,2,0,false,q,true,true,0.0-2.0-0.46-0.418-3.418,0,0,1,90,false,stim,false,2,404.6000000089407,2,0,1,75469,task2,989465,false,true,1387,image-keyboard-response,14
true,13,1,2,1,true,z,false,true,0.0-2.0-0.46-0.419-3.419,0,0,1,90,false,stim,false,0,985.0999999940395,2,0,0,75469,task2,991973,false,false,1390,image-keyboard-response,15
true,13,1,2,1,true,z,false,true,0.0-2.0-0.46-0.420-3.420,0,0,1,90,false,stim,false,1,613.7000000029802,2,1,2,75469,task2,994114,false,false,1393,image-keyboard-response,16
true,13,1,2,1,true,z,false,true,0.0-2.0-0.46-0.421-3.421,0,0,1,90,false,stim,false,1,625.9000000059605,2,1,2,75469,task2,996271,false,false,1396,image-keyboard-response,17
true,13,1,2,0,false,q,true,false,0.0-2.0-0.46-0.422-3.422,0,0,1,90,false,stim,false,2,414.29999999701977,2,0,1,75469,task2,998216,false,false,1399,image-keyboard-response,18
true,13,1,2,1,true,z,false,true,0.0-2.0-0.47-0.423-3.423,0,0,1,90,false,stim,false,1,554.7000000029802,2,1,2,75469,task2,1000304,false,false,1402,image-keyboard-response,19
true,13,1,2,1,true,z,false,true,0.0-2.0-0.47-0.424-3.424,0,0,1,90,false,stim,false,1,432.5,2,1,2,75469,task2,1002268,false,false,1405,image-keyboard-response,20
true,13,0,2,0,true,q,false,true,0.0-2.0-0.47-0.425-3.425,0,0,1,81,false,stim,false,2,1096.8999999910593,2,0,1,75469,task2,1004887,false,false,1408,image-keyboard-response,21
true,13,0,2,0,true,q,false,true,0.0-2.0-0.47-0.426-3.426,0,0,1,81,false,stim,false,2,373.79999999701977,2,0,1,75469,task2,1006793,false,false,1411,image-keyboard-response,22
true,13,1,2,1,true,z,false,true,0.0-2.0-0.47-0.427-3.427,0,0,1,90,false,stim,false,0,579.6000000089407,2,0,0,75469,task2,1008894,false,false,1414,image-keyboard-response,23
true,13,1,2,1,true,z,false,true,0.0-2.0-0.47-0.428-3.428,0,0,1,90,false,stim,false,0,445.0,2,0,0,75469,task2,1010865,false,false,1417,image-keyboard-response,24
true,13,1,2,1,true,z,false,true,0.0-2.0-0.47-0.429-3.429,0,0,1,90,false,stim,false,0,413.0,2,0,0,75469,task2,1012804,false,false,1420,image-keyboard-response,25
true,13,0,2,0,true,q,false,true,0.0-2.0-0.47-0.430-3.430,0,0,1,81,false,stim,false,2,611.0,2,0,1,75469,task2,1014933,false,false,1423,image-keyboard-response,26
true,13,1,2,1,true,z,false,true,0.0-2.0-0.47-0.431-3.431,0,0,1,90,false,stim,false,1,950.5,2,1,2,75469,task2,1017403,false,false,1426,image-keyboard-response,27
true,13,1,2,1,true,z,false,true,0.0-2.0-0.48-0.432-3.432,0,0,1,90,false,stim,false,0,496.20000000298023,2,0,0,75469,task2,1019430,false,false,1429,image-keyboard-response,28
true,13,1,2,1,true,z,false,true,0.0-2.0-0.48-0.433-3.433,0,0,1,90,false,stim,false,1,620.5,2,1,2,75469,task2,1021569,false,false,1432,image-keyboard-response,29
true,13,0,2,0,true,q,false,true,0.0-2.0-0.48-0.434-3.434,0,0,1,81,false,stim,false,2,825.2999999970198,2,0,1,75469,task2,1023918,false,false,1435,image-keyboard-response,30
true,13,0,2,0,true,q,false,true,0.0-2.0-0.48-0.435-3.435,0,0,1,81,false,stim,false,2,774.7999999970198,2,0,1,75469,task2,1026216,false,false,1438,image-keyboard-response,31
true,13,1,2,1,true,z,false,true,0.0-2.0-0.48-0.436-3.436,0,0,1,90,false,stim,false,0,456.6000000089407,2,0,0,75469,task2,1028205,false,false,1441,image-keyboard-response,32
true,13,1,2,1,true,z,false,true,0.0-2.0-0.48-0.437-3.437,0,0,1,90,false,stim,false,1,1079.6000000089407,2,1,2,75469,task2,1030818,false,false,1444,image-keyboard-response,33
true,13,1,2,1,true,z,false,false,0.0-2.0-0.48-0.438-3.438,0,0,1,90,false,stim,false,0,1487.1000000089407,2,0,0,75469,task2,1033831,false,true,1447,image-keyboard-response,34
true,14,1,2,1,true,z,false,true,0.0-2.0-0.48-0.439-3.439,0,0,1,90,true,stim,false,1,567.8999999910593,2,1,2,75469,task2,1035928,false,false,1450,image-keyboard-response,1
true,14,0,2,2,false,d,false,false,0.0-2.0-0.48-0.440-3.440,0,0,1,81,false,stim,true,0,414.90000000596046,2,0,1,75469,task2,1037862,false,false,1453,image-keyboard-response,2
true,14,1,2,2,false,d,true,false,0.0-2.0-0.49-0.441-3.441,0,0,1,90,false,stim,false,0,368.79999999701977,2,0,1,75469,task2,1039752,false,false,1456,image-keyboard-response,3
true,14,2,2,2,true,d,false,true,0.0-2.0-0.49-0.442-3.442,0,0,1,68,false,stim,false,0,740.6000000089407,2,0,1,75469,task2,1042017,false,false,1459,image-keyboard-response,4
true,14,1,2,1,true,z,false,true,0.0-2.0-0.49-0.443-3.443,0,0,1,90,false,stim,false,1,1443.9000000059605,2,1,2,75469,task2,1044983,false,false,1462,image-keyboard-response,5
true,14,0,2,2,false,d,true,false,0.0-2.0-0.49-0.444-3.444,0,0,1,81,false,stim,false,1,776.4000000059605,2,0,0,75469,task2,1047284,false,false,1465,image-keyboard-response,6
true,14,1,2,1,true,z,false,true,0.0-2.0-0.49-0.445-3.445,0,0,1,90,false,stim,false,1,561.7000000029802,2,1,2,75469,task2,1049368,false,false,1468,image-keyboard-response,7
true,14,2,2,2,true,d,false,false,0.0-2.0-0.49-0.446-3.446,0,0,1,68,false,stim,false,0,635.7999999970198,2,0,1,75469,task2,1051537,false,true,1471,image-keyboard-response,8
true,14,1,2,1,true,z,false,true,0.0-2.0-0.49-0.447-3.447,0,0,1,90,false,stim,false,1,631.9000000059605,2,1,2,75469,task2,1053685,false,false,1474,image-keyboard-response,9
true,14,2,2,2,true,d,false,true,0.0-2.0-0.49-0.448-3.448,0,0,1,68,false,stim,false,1,600.4000000059605,2,0,0,75469,task2,1055809,false,false,1477,image-keyboard-response,10
true,14,2,2,2,true,d,false,true,0.0-2.0-0.49-0.449-3.449,0,0,1,68,false,stim,false,1,521.3999999910593,2,0,0,75469,task2,1057852,false,false,1480,image-keyboard-response,11
true,14,1,2,1,true,z,false,true,0.0-2.0-0.50-0.450-3.450,0,0,1,90,false,stim,false,1,434.5,2,1,2,75469,task2,1059817,false,false,1483,image-keyboard-response,12
true,14,2,2,2,true,d,false,true,0.0-2.0-0.50-0.451-3.451,0,0,1,68,false,stim,false,0,726.2000000029802,2,0,1,75469,task2,1062065,false,false,1486,image-keyboard-response,13
true,14,1,2,2,false,d,false,true,0.0-2.0-0.50-0.452-3.452,0,0,1,90,false,stim,true,1,401.79999999701977,2,0,0,75469,task2,1063989,false,true,1489,image-keyboard-response,14
true,14,1,2,1,true,z,false,false,0.0-2.0-0.50-0.453-3.453,0,0,1,90,false,stim,false,1,381.0,2,1,2,75469,task2,1065896,false,true,1492,image-keyboard-response,15
true,14,1,2,2,false,d,false,false,0.0-2.0-0.50-0.454-3.454,0,0,1,90,false,stim,true,1,465.59999999403954,2,0,0,75469,task2,1067884,false,false,1495,image-keyboard-response,16
true,14,2,2,2,true,d,false,false,0.0-2.0-0.50-0.455-3.455,0,0,1,68,false,stim,false,0,566.1000000089407,2,0,1,75469,task2,1069981,false,true,1498,image-keyboard-response,17
true,14,2,2,2,true,d,false,true,0.0-2.0-0.50-0.456-3.456,0,0,1,68,false,stim,false,1,753.6999999880791,2,0,0,75469,task2,1072270,false,false,1501,image-keyboard-response,18
true,14,1,2,1,true,z,false,false,0.0-2.0-0.50-0.457-3.457,0,0,1,90,false,stim,false,1,930.4000000059605,2,1,2,75469,task2,1074718,false,true,1504,image-keyboard-response,19
true,14,2,2,2,true,d,false,true,0.0-2.0-0.50-0.458-3.458,0,0,1,68,false,stim,false,0,1365.2000000029802,2,0,1,75469,task2,1077609,false,false,1507,image-keyboard-response,20
true,14,2,2,2,true,d,false,true,0.0-2.0-0.51-0.459-3.459,0,0,1,68,false,stim,false,0,459.90000000596046,2,0,1,75469,task2,1079593,false,false,1510,image-keyboard-response,21
true,14,0,2,1,false,z,true,false,0.0-2.0-0.51-0.460-3.460,0,0,1,81,false,stim,false,1,855.5,2,1,2,75469,task2,1081963,false,false,1513,image-keyboard-response,22
true,14,1,2,2,false,d,false,false,0.0-2.0-0.51-0.461-3.461,0,0,1,90,false,stim,true,1,733.8999999910593,2,0,0,75469,task2,1084218,false,false,1516,image-keyboard-response,23
true,14,0,2,2,false,d,true,false,0.0-2.0-0.51-0.462-3.462,0,0,1,81,false,stim,false,1,832.4000000059605,2,0,0,75469,task2,1086578,false,false,1519,image-keyboard-response,24
true,14,2,2,2,true,d,false,true,0.0-2.0-0.51-0.463-3.463,0,0,1,68,false,stim,false,1,606.8999999910593,2,0,0,75469,task2,1088709,false,false,1522,image-keyboard-response,25
true,14,2,2,1,false,z,true,false,0.0-2.0-0.51-0.464-3.464,0,0,1,68,false,stim,false,1,626.4000000059605,2,1,2,75469,task2,1090854,false,false,1525,image-keyboard-response,26
true,14,2,2,2,true,d,false,true,0.0-2.0-0.51-0.465-3.465,0,0,1,68,false,stim,false,0,403.79999999701977,2,0,1,75469,task2,1092777,false,false,1528,image-keyboard-response,27
true,14,0,2,1,false,z,true,false,0.0-2.0-0.51-0.466-3.466,0,0,1,81,false,stim,false,1,946.7000000029802,2,1,2,75469,task2,1095250,false,false,1531,image-keyboard-response,28
true,14,1,2,2,false,d,true,false,0.0-2.0-0.51-0.467-3.467,0,0,1,90,false,stim,false,0,1201.800000011921,2,0,1,75469,task2,1097978,false,false,1534,image-keyboard-response,29
true,14,2,2,2,true,d,false,true,0.0-2.0-0.52-0.468-3.468,0,0,1,68,false,stim,false,1,393.59999999403954,2,0,0,75469,task2,1099903,false,false,1537,image-keyboard-response,30
true,14,2,2,2,true,d,false,true,0.0-2.0-0.52-0.469-3.469,0,0,1,68,false,stim,false,0,431.6000000089407,2,0,1,75469,task2,1101865,false,false,1540,image-keyboard-response,31
true,14,2,2,2,true,d,false,true,0.0-2.0-0.52-0.470-3.470,0,0,1,68,false,stim,false,1,456.79999999701977,2,0,0,75469,task2,1103850,false,false,1543,image-keyboard-response,32
true,14,1,2,1,true,z,false,true,0.0-2.0-0.52-0.471-3.471,0,0,1,90,false,stim,false,1,430.90000000596046,2,0,2,75469,task2,1105806,false,false,1546,image-keyboard-response,33
true,14,2,2,2,true,d,false,true,0.0-2.0-0.52-0.472-3.472,0,0,1,68,false,stim,false,0,539.2000000029802,2,0,1,75469,task2,1107863,false,false,1549,image-keyboard-response,34
true,14,2,2,2,true,d,false,true,0.0-2.0-0.52-0.473-3.473,0,0,1,68,false,stim,false,0,539.8000000119209,2,0,1,75469,task2,1109930,false,false,1552,image-keyboard-response,35
true,15,1,1,2,false,d,false,false,0.0-2.0-0.52-0.474-3.474,0,0,0,90,true,stim,true,1,774.0,2,0,2,75469,task2,1112233,false,false,1555,image-keyboard-response,1
false,15,-1,1,1,false,z,true,false,0.0-2.0-0.52-0.475-3.475,0,0,0,,false,stim,false,2,,2,0,0,75469,task2,1116778,false,false,1558,image-keyboard-response,2
true,15,2,1,2,true,d,false,true,0.0-2.0-0.52-0.476-3.476,0,0,0,68,false,stim,false,1,921.0999999940395,2,0,2,75469,task2,1119226,false,false,1561,image-keyboard-response,3
true,15,2,1,1,false,z,false,false,0.0-2.0-0.53-0.477-3.477,0,0,0,68,false,stim,true,2,589.5,2,0,1,75469,task2,1121338,false,false,1564,image-keyboard-response,4
true,15,2,1,1,false,z,false,false,0.0-2.0-0.53-0.478-3.478,0,0,0,68,false,stim,true,2,481.1000000089407,2,0,0,75469,task2,1123342,false,false,1567,image-keyboard-response,5
true,15,0,1,1,false,z,true,false,0.0-2.0-0.53-0.479-3.479,0,0,0,81,false,stim,false,2,1016.7999999970198,2,0,1,75469,task2,1125881,false,false,1570,image-keyboard-response,6
true,15,1,1,1,true,z,false,true,0.0-2.0-0.53-0.480-3.480,0,0,0,90,false,stim,false,2,558.2999999970198,2,0,0,75469,task2,1127963,false,false,1573,image-keyboard-response,7
true,15,2,1,2,true,d,false,true,0.0-2.0-0.53-0.481-3.481,0,0,0,68,false,stim,false,1,553.5,2,0,2,75469,task2,1130041,false,false,1576,image-keyboard-response,8
true,15,1,1,1,true,z,false,true,0.0-2.0-0.53-0.482-3.482,0,0,0,90,false,stim,false,2,456.79999999701977,2,0,1,75469,task2,1132033,false,false,1579,image-keyboard-response,9
true,15,2,1,2,true,d,false,true,0.0-2.0-0.53-0.483-3.483,0,0,0,68,false,stim,false,1,468.5,2,0,2,75469,task2,1134030,false,false,1582,image-keyboard-response,10
true,15,2,1,2,true,d,false,true,0.0-2.0-0.53-0.484-3.484,0,0,0,68,false,stim,false,1,688.5,2,0,2,75469,task2,1136242,false,false,1585,image-keyboard-response,11
true,15,1,1,1,true,z,false,true,0.0-2.0-0.53-0.485-3.485,0,0,0,90,false,stim,false,2,389.5,2,0,0,75469,task2,1138151,false,false,1588,image-keyboard-response,12
true,15,2,1,2,true,d,false,true,0.0-2.0-0.54-0.486-3.486,0,0,0,68,false,stim,false,1,532.1999999880791,2,0,2,75469,task2,1140209,false,false,1591,image-keyboard-response,13
true,15,2,1,2,true,d,false,true,0.0-2.0-0.54-0.487-3.487,0,0,0,68,false,stim,false,1,435.29999999701977,2,0,2,75469,task2,1142165,false,false,1594,image-keyboard-response,14
true,15,2,1,2,true,d,false,false,0.0-2.0-0.54-0.488-3.488,0,0,0,68,false,stim,false,1,353.90000000596046,2,0,2,75469,task2,1144037,false,true,1597,image-keyboard-response,15
true,15,1,1,1,true,z,false,true,0.0-2.0-0.54-0.489-3.489,0,0,0,90,false,stim,false,2,447.6000000089407,2,0,0,75469,task2,1146008,false,false,1600,image-keyboard-response,16
true,15,1,1,1,true,z,false,true,0.0-2.0-0.54-0.490-3.490,0,0,0,90,false,stim,false,2,477.59999999403954,2,0,1,75469,task2,1148028,false,false,1603,image-keyboard-response,17
true,15,1,1,1,true,z,false,true,0.0-2.0-0.54-0.491-3.491,0,0,0,90,false,stim,false,2,409.6000000089407,2,0,1,75469,task2,1149961,false,false,1606,image-keyboard-response,18
true,15,1,1,1,true,z,false,true,0.0-2.0-0.54-0.492-3.492,0,0,0,90,false,stim,false,2,522.0,2,0,0,75469,task2,1152012,false,false,1609,image-keyboard-response,19
true,15,1,1,1,true,z,false,true,0.0-2.0-0.54-0.493-3.493,0,0,0,90,false,stim,false,2,466.80000001192093,2,0,0,75469,task2,1154008,false,false,1612,image-keyboard-response,20
true,15,1,1,1,true,z,false,true,0.0-2.0-0.54-0.494-3.494,0,0,0,90,false,stim,false,2,580.2000000029802,2,0,1,75469,task2,1156120,false,false,1615,image-keyboard-response,21
true,15,1,1,1,true,z,false,true,0.0-2.0-0.55-0.495-3.495,0,0,0,90,false,stim,false,2,478.6000000089407,2,0,0,75469,task2,1158114,false,false,1618,image-keyboard-response,22
true,15,1,1,1,true,z,false,true,0.0-2.0-0.55-0.496-3.496,0,0,0,90,false,stim,false,2,582.7999999970198,2,0,1,75469,task2,1160220,false,false,1621,image-keyboard-response,23
true,15,1,1,1,true,z,false,true,0.0-2.0-0.55-0.497-3.497,0,0,0,90,false,stim,false,2,707.8999999910593,2,0,0,75469,task2,1162450,false,false,1624,image-keyboard-response,24
true,15,1,1,1,true,z,false,true,0.0-2.0-0.55-0.498-3.498,0,0,0,90,false,stim,false,2,438.5,2,0,0,75469,task2,1164412,false,false,1627,image-keyboard-response,25
true,15,2,1,2,true,d,false,true,0.0-2.0-0.55-0.499-3.499,0,0,0,68,false,stim,false,1,526.4000000059605,2,0,2,75469,task2,1166467,false,false,1630,image-keyboard-response,26
true,15,1,1,1,true,z,false,true,0.0-2.0-0.55-0.500-3.500,0,0,0,90,false,stim,false,2,420.79999999701977,2,0,1,75469,task2,1168412,false,false,1633,image-keyboard-response,27
true,15,2,1,2,true,d,false,true,0.0-2.0-0.55-0.501-3.501,0,0,0,68,false,stim,false,1,477.5,2,0,2,75469,task2,1170414,false,false,1636,image-keyboard-response,28
true,15,2,1,2,true,d,false,false,0.0-2.0-0.55-0.502-3.502,0,0,0,68,false,stim,false,1,601.8000000119209,2,0,2,75469,task2,1172546,false,true,1639,image-keyboard-response,29
true,15,1,1,1,true,z,false,true,0.0-2.0-0.55-0.503-3.503,0,0,0,90,false,stim,false,2,608.3999999910593,2,0,1,75469,task2,1174685,false,false,1642,image-keyboard-response,30
true,15,1,1,1,true,z,false,true,0.0-2.0-0.56-0.504-3.504,0,0,0,90,false,stim,false,2,595.7000000029802,2,0,0,75469,task2,1176803,false,false,1645,image-keyboard-response,31
true,15,2,1,2,true,d,false,false,0.0-2.0-0.56-0.505-3.505,0,0,0,68,false,stim,false,1,1033.2000000029802,2,0,2,75469,task2,1179352,false,true,1648,image-keyboard-response,32
true,15,1,1,1,true,z,false,true,0.0-2.0-0.56-0.506-3.506,0,0,0,90,false,stim,false,2,480.70000000298023,2,1,1,75469,task2,1181354,false,false,1651,image-keyboard-response,33
true,15,2,1,2,true,d,false,true,0.0-2.0-0.56-0.507-3.507,0,0,0,68,false,stim,false,1,1235.5,2,1,2,75469,task2,1184116,false,false,1654,image-keyboard-response,34
true,15,1,1,1,true,z,false,true,0.0-2.0-0.56-0.508-3.508,0,0,0,90,false,stim,false,2,591.2999999970198,2,1,0,75469,task2,1186236,false,false,1657,image-keyboard-response,35
true,15,2,1,2,true,d,false,true,0.0-2.0-0.56-0.509-3.509,0,0,0,68,false,stim,false,1,560.8999999910593,2,1,2,75469,task2,1188317,false,false,1660,image-keyboard-response,36
true,15,1,1,1,true,z,false,true,0.0-2.0-0.56-0.510-3.510,0,0,0,90,false,stim,false,2,635.9000000059605,2,1,1,75469,task2,1190472,false,false,1663,image-keyboard-response,37
true,16,0,0,1,false,z,true,false,0.0-2.0-0.56-0.511-3.511,1,1,1,81,true,stim,false,1,637.7999999970198,2,1,1,75469,task2,1225362,false,false,1699,image-keyboard-response,1
true,16,1,0,1,true,z,false,true,0.0-2.0-0.56-0.512-3.512,1,1,1,90,false,stim,false,1,411.90000000596046,2,1,0,75469,task2,1227308,false,false,1702,image-keyboard-response,2
true,16,1,0,1,true,z,false,false,0.0-2.0-0.57-0.513-3.513,1,1,1,90,false,stim,false,1,342.5,2,1,0,75469,task2,1229182,false,true,1705,image-keyboard-response,3
true,16,1,0,1,true,z,false,true,0.0-2.0-0.57-0.514-3.514,1,1,1,90,false,stim,false,1,335.20000000298023,2,1,0,75469,task2,1231052,false,false,1708,image-keyboard-response,4
true,16,1,0,2,false,d,true,false,0.0-2.0-0.57-0.515-3.515,1,1,1,90,false,stim,false,2,638.5,2,1,2,75469,task2,1233215,false,false,1711,image-keyboard-response,5
true,16,0,0,2,false,d,true,false,0.0-2.0-0.57-0.516-3.516,1,1,1,81,false,stim,false,2,343.09999999403954,2,1,2,75469,task2,1235079,false,false,1714,image-keyboard-response,6
true,16,2,0,2,true,d,false,false,0.0-2.0-0.57-0.517-3.517,1,1,1,68,false,stim,false,2,424.20000000298023,2,1,2,75469,task2,1237022,false,true,1717,image-keyboard-response,7
true,16,1,0,1,true,z,false,true,0.0-2.0-0.57-0.518-3.518,1,1,1,90,false,stim,false,1,915.9000000059605,2,1,1,75469,task2,1239455,false,false,1720,image-keyboard-response,8
true,16,1,0,1,true,z,false,false,0.0-2.0-0.57-0.519-3.519,1,1,1,90,false,stim,false,1,623.0,2,1,1,75469,task2,1241612,false,true,1723,image-keyboard-response,9
true,16,1,0,1,true,z,false,true,0.0-2.0-0.57-0.520-3.520,1,1,1,90,false,stim,false,1,336.70000000298023,2,1,1,75469,task2,1243468,false,false,1726,image-keyboard-response,10
true,16,1,0,1,true,z,false,false,0.0-2.0-0.57-0.521-3.521,1,1,1,90,false,stim,false,1,293.70000000298023,2,0,0,75469,task2,1245290,false,true,1729,image-keyboard-response,11
true,16,1,0,1,true,z,false,true,0.0-2.0-0.58-0.522-3.522,1,1,1,90,false,stim,false,1,466.0,2,1,1,75469,task2,1247277,false,false,1732,image-keyboard-response,12
true,16,2,0,2,true,d,false,true,0.0-2.0-0.58-0.523-3.523,1,1,1,68,false,stim,false,2,494.5,2,0,2,75469,task2,1249303,false,false,1735,image-keyboard-response,13
true,17,1,2,0,false,q,false,false,0.0-2.0-0.58-0.524-3.524,0,1,0,90,true,stim,true,1,559.7000000029802,2,0,0,75469,task2,1251391,false,false,1738,image-keyboard-response,1
true,17,1,2,1,true,z,false,true,0.0-2.0-0.58-0.525-3.525,0,1,0,90,false,stim,false,1,524.6000000089407,2,1,1,75469,task2,1253441,false,false,1741,image-keyboard-response,2
true,17,1,2,1,true,z,false,true,0.0-2.0-0.58-0.526-3.526,0,1,0,90,false,stim,false,1,377.69999998807907,2,1,1,75469,task2,1255344,false,false,1744,image-keyboard-response,3
true,17,2,2,1,false,z,false,false,0.0-2.0-0.58-0.527-3.527,0,1,0,68,false,stim,true,2,629.4000000059605,2,0,2,75469,task2,1257506,false,false,1747,image-keyboard-response,4
true,17,1,2,0,false,q,false,false,0.0-2.0-0.58-0.528-3.528,0,1,0,90,false,stim,true,1,506.5,2,0,0,75469,task2,1259531,false,false,1750,image-keyboard-response,5
true,17,1,2,0,false,q,false,false,0.0-2.0-0.58-0.529-3.529,0,1,0,90,false,stim,true,1,398.0,2,0,0,75469,task2,1261460,false,false,1753,image-keyboard-response,6
true,17,2,2,1,false,z,false,false,0.0-2.0-0.58-0.530-3.530,0,1,0,68,false,stim,true,2,382.79999999701977,2,0,2,75469,task2,1263369,false,false,1756,image-keyboard-response,7
true,17,0,2,0,true,q,false,true,0.0-2.0-0.59-0.531-3.531,0,1,0,81,false,stim,false,1,696.7999999970198,2,0,0,75469,task2,1265594,false,false,1759,image-keyboard-response,8
true,17,0,2,1,false,z,true,false,0.0-2.0-0.59-0.532-3.532,0,1,0,81,false,stim,false,2,512.9000000059605,2,0,2,75469,task2,1267637,false,false,1762,image-keyboard-response,9
true,17,1,2,1,true,z,false,true,0.0-2.0-0.59-0.533-3.533,0,1,0,90,false,stim,false,1,552.3999999910593,2,1,1,75469,task2,1269708,false,false,1765,image-keyboard-response,10
true,17,1,2,1,true,z,false,false,0.0-2.0-0.59-0.534-3.534,0,1,0,90,false,stim,false,1,557.2999999970198,2,1,1,75469,task2,1271790,false,true,1768,image-keyboard-response,11
true,17,0,2,0,true,q,false,false,0.0-2.0-0.59-0.535-3.535,0,1,0,81,false,stim,false,1,551.0,2,0,0,75469,task2,1273871,false,true,1771,image-keyboard-response,12
true,17,1,2,1,true,z,false,false,0.0-2.0-0.59-0.536-3.536,0,1,0,90,false,stim,false,2,430.3999999910593,2,0,2,75469,task2,1275816,false,true,1774,image-keyboard-response,13
true,17,1,2,1,true,z,false,true,0.0-2.0-0.59-0.537-3.537,0,1,0,90,false,stim,false,1,377.1000000089407,2,1,1,75469,task2,1277718,false,false,1777,image-keyboard-response,14
true,17,0,2,0,true,q,false,false,0.0-2.0-0.59-0.538-3.538,0,1,0,81,false,stim,false,1,566.7000000029802,2,0,0,75469,task2,1279814,false,true,1780,image-keyboard-response,15
true,17,1,2,1,true,z,false,true,0.0-2.0-0.59-0.539-3.539,0,1,0,90,false,stim,false,2,482.29999999701977,2,0,2,75469,task2,1281816,false,false,1783,image-keyboard-response,16
true,17,2,2,0,false,q,true,false,0.0-2.0-0.60-0.540-3.540,0,1,0,68,false,stim,false,1,609.6000000089407,2,0,0,75469,task2,1283944,false,false,1786,image-keyboard-response,17
true,17,1,2,1,true,z,false,true,0.0-2.0-0.60-0.541-3.541,0,1,0,90,false,stim,false,1,452.3999999910593,2,1,1,75469,task2,1285914,false,false,1789,image-keyboard-response,18
true,17,1,2,0,false,q,false,false,0.0-2.0-0.60-0.542-3.542,0,1,0,90,false,stim,true,1,669.4000000059605,2,0,0,75469,task2,1288113,false,false,1792,image-keyboard-response,19
true,17,0,2,1,false,z,true,false,0.0-2.0-0.60-0.543-3.543,0,1,0,81,false,stim,false,2,449.20000000298023,2,0,2,75469,task2,1290088,false,false,1795,image-keyboard-response,20
true,17,1,2,1,true,z,false,true,0.0-2.0-0.60-0.544-3.544,0,1,0,90,false,stim,false,1,616.2999999970198,2,1,1,75469,task2,1292231,false,false,1798,image-keyboard-response,21
true,17,1,2,0,false,q,false,true,0.0-2.0-0.60-0.545-3.545,0,1,0,90,false,stim,true,1,719.0,2,0,0,75469,task2,1294495,false,true,1801,image-keyboard-response,22
true,17,2,2,1,false,z,false,false,0.0-2.0-0.60-0.546-3.546,0,1,0,68,false,stim,true,2,364.8999999910593,2,0,2,75469,task2,1296392,false,false,1804,image-keyboard-response,23
true,17,1,2,1,true,z,false,true,0.0-2.0-0.60-0.547-3.547,0,1,0,90,false,stim,false,1,507.30000001192093,2,1,1,75469,task2,1298418,false,false,1807,image-keyboard-response,24
true,17,2,2,1,false,z,false,false,0.0-2.0-0.60-0.548-3.548,0,1,0,68,false,stim,true,2,450.59999999403954,2,0,2,75469,task2,1300391,false,false,1810,image-keyboard-response,25
true,17,1,2,0,false,q,false,false,0.0-2.0-0.61-0.549-3.549,0,1,0,90,false,stim,true,1,479.29999999701977,2,0,0,75469,task2,1302393,false,false,1813,image-keyboard-response,26
true,17,1,2,1,true,z,false,false,0.0-2.0-0.61-0.550-3.550,0,1,0,90,false,stim,false,1,599.9000000059605,2,1,1,75469,task2,1304514,false,true,1816,image-keyboard-response,27
true,17,1,2,1,true,z,false,true,0.0-2.0-0.61-0.551-3.551,0,1,0,90,false,stim,false,1,497.90000000596046,2,1,1,75469,task2,1306536,false,false,1819,image-keyboard-response,28
true,17,1,2,1,true,z,false,false,0.0-2.0-0.61-0.552-3.552,0,1,0,90,false,stim,false,1,355.80000001192093,2,0,1,75469,task2,1308415,false,true,1822,image-keyboard-response,29
true,17,1,2,1,true,z,false,true,0.0-2.0-0.61-0.553-3.553,0,1,0,90,false,stim,false,2,349.79999999701977,2,0,2,75469,task2,1310286,false,false,1825,image-keyboard-response,30
true,17,0,2,0,true,q,false,true,0.0-2.0-0.61-0.554-3.554,0,1,0,81,false,stim,false,1,534.0999999940395,2,0,0,75469,task2,1312336,false,false,1828,image-keyboard-response,31
true,17,0,2,0,true,q,false,true,0.0-2.0-0.61-0.555-3.555,0,1,0,81,false,stim,false,1,398.90000000596046,2,0,0,75469,task2,1314264,false,false,1831,image-keyboard-response,32
true,17,1,2,1,true,z,false,true,0.0-2.0-0.61-0.556-3.556,0,1,0,90,false,stim,false,2,422.29999999701977,2,0,2,75469,task2,1316213,false,false,1834,image-keyboard-response,33
true,18,1,1,2,false,d,false,false,0.0-2.0-0.61-0.557-3.557,0,0,0,90,true,stim,true,1,375.79999999701977,2,0,2,75469,task2,1318119,false,false,1837,image-keyboard-response,1
true,18,0,1,1,false,z,false,false,0.0-2.0-0.62-0.558-3.558,0,0,0,81,false,stim,true,0,557.5999999940395,2,0,0,75469,task2,1320209,false,false,1840,image-keyboard-response,2
true,18,1,1,0,false,q,false,false,0.0-2.0-0.62-0.559-3.559,0,0,0,90,false,stim,true,1,377.79999999701977,2,0,1,75469,task2,1322101,false,false,1843,image-keyboard-response,3
true,18,0,1,1,false,z,false,false,0.0-2.0-0.62-0.560-3.560,0,0,0,81,false,stim,true,0,610.7000000029802,2,0,0,75469,task2,1324242,false,false,1846,image-keyboard-response,4
true,18,1,1,0,false,q,false,true,0.0-2.0-0.62-0.561-3.561,0,0,0,90,false,stim,true,1,475.09999999403954,2,0,1,75469,task2,1326245,false,true,1849,image-keyboard-response,5
true,18,1,1,2,false,d,false,false,0.0-2.0-0.62-0.562-3.562,0,0,0,90,false,stim,true,1,462.0,2,0,2,75469,task2,1328237,false,false,1852,image-keyboard-response,6
true,18,1,1,0,false,q,false,false,0.0-2.0-0.62-0.563-3.563,0,0,0,90,false,stim,true,1,508.70000000298023,2,0,1,75469,task2,1330271,false,false,1855,image-keyboard-response,7
true,18,1,1,2,false,d,false,false,0.0-2.0-0.62-0.564-3.564,0,0,0,90,false,stim,true,1,537.6000000089407,2,0,2,75469,task2,1332338,false,false,1858,image-keyboard-response,8
true,18,0,1,1,false,z,false,false,0.0-2.0-0.62-0.565-3.565,0,0,0,81,false,stim,true,0,379.70000000298023,2,0,0,75469,task2,1334248,false,false,1861,image-keyboard-response,9
true,18,2,1,2,true,d,false,true,0.0-2.0-0.62-0.566-3.566,0,0,0,68,false,stim,false,1,658.2999999970198,2,0,2,75469,task2,1336432,false,false,1864,image-keyboard-response,10
true,18,2,1,2,true,d,false,true,0.0-2.0-0.63-0.567-3.567,0,0,0,68,false,stim,false,1,415.5,2,0,2,75469,task2,1338375,false,false,1867,image-keyboard-response,11
true,18,2,1,0,false,q,true,false,0.0-2.0-0.63-0.568-3.568,0,0,0,68,false,stim,false,1,400.70000000298023,2,0,1,75469,task2,1340309,false,false,1870,image-keyboard-response,12
true,18,1,1,1,true,z,false,true,0.0-2.0-0.63-0.569-3.569,0,0,0,90,false,stim,false,0,1072.0,2,0,0,75469,task2,1342909,false,false,1873,image-keyboard-response,13
true,18,1,1,0,false,q,false,false,0.0-2.0-0.63-0.570-3.570,0,0,0,90,false,stim,true,1,413.29999999701977,2,0,1,75469,task2,1344844,false,false,1876,image-keyboard-response,14
true,18,1,1,1,true,z,false,true,0.0-2.0-0.63-0.571-3.571,0,0,0,90,false,stim,false,0,775.0999999940395,2,0,0,75469,task2,1347146,false,false,1879,image-keyboard-response,15
true,18,2,1,2,true,d,false,true,0.0-2.0-0.63-0.572-3.572,0,0,0,68,false,stim,false,1,475.3999999910593,2,0,2,75469,task2,1349149,false,false,1882,image-keyboard-response,16
true,18,1,1,0,false,q,false,false,0.0-2.0-0.63-0.573-3.573,0,0,0,90,false,stim,true,1,551.4000000059605,2,0,1,75469,task2,1351230,false,false,1885,image-keyboard-response,17
true,18,2,1,2,true,d,false,true,0.0-2.0-0.63-0.574-3.574,0,0,0,68,false,stim,false,1,705.5,2,0,2,75469,task2,1353463,false,false,1888,image-keyboard-response,18
true,18,1,1,1,true,z,false,false,0.0-2.0-0.63-0.575-3.575,0,0,0,90,false,stim,false,0,883.7999999970198,2,0,0,75469,task2,1355867,false,true,1891,image-keyboard-response,19
true,18,0,1,1,false,z,false,false,0.0-2.0-0.64-0.576-3.576,0,0,0,81,false,stim,true,0,693.6000000089407,2,0,0,75469,task2,1358088,false,false,1894,image-keyboard-response,20
true,18,0,1,0,true,q,false,true,0.0-2.0-0.64-0.577-3.577,0,0,0,81,false,stim,false,1,501.79999999701977,2,0,1,75469,task2,1360109,false,false,1897,image-keyboard-response,21
true,18,2,1,2,true,d,false,true,0.0-2.0-0.64-0.578-3.578,0,0,0,68,false,stim,false,1,649.7999999970198,2,0,2,75469,task2,1362292,false,false,1900,image-keyboard-response,22
true,18,0,1,0,true,q,false,true,0.0-2.0-0.64-0.579-3.579,0,0,0,81,false,stim,false,1,752.6999999880791,2,0,1,75469,task2,1364585,false,false,1903,image-keyboard-response,23
true,18,0,1,0,true,q,false,true,0.0-2.0-0.64-0.580-3.580,0,0,0,81,false,stim,false,1,565.6000000089407,2,0,1,75469,task2,1366682,false,false,1906,image-keyboard-response,24
true,18,2,1,2,true,d,false,true,0.0-2.0-0.64-0.581-3.581,0,0,0,68,false,stim,false,1,528.6000000089407,2,0,2,75469,task2,1368736,false,false,1909,image-keyboard-response,25
true,18,1,1,1,true,z,false,true,0.0-2.0-0.64-0.582-3.582,0,0,0,90,false,stim,false,0,379.8999999910593,2,0,0,75469,task2,1370638,false,false,1912,image-keyboard-response,26
true,18,2,1,2,true,d,false,true,0.0-2.0-0.64-0.583-3.583,0,0,0,68,false,stim,false,1,573.2999999970198,2,0,2,75469,task2,1372725,false,false,1915,image-keyboard-response,27
true,18,1,1,1,true,z,false,true,0.0-2.0-0.64-0.584-3.584,0,0,0,90,false,stim,false,0,791.2999999970198,2,0,0,75469,task2,1375042,false,false,1918,image-keyboard-response,28
true,18,0,1,0,true,q,false,true,0.0-2.0-0.65-0.585-3.585,0,0,0,81,false,stim,false,1,596.8999999910593,2,0,1,75469,task2,1377161,false,false,1921,image-keyboard-response,29
true,18,2,1,2,true,d,false,false,0.0-2.0-0.65-0.586-3.586,0,0,0,68,false,stim,false,1,524.9000000059605,2,0,2,75469,task2,1379208,false,true,1924,image-keyboard-response,30
true,18,2,1,2,true,d,false,true,0.0-2.0-0.65-0.587-3.587,0,0,0,68,false,stim,false,1,562.4000000059605,2,0,2,75469,task2,1381296,false,false,1927,image-keyboard-response,31
true,18,1,1,1,true,z,false,true,0.0-2.0-0.65-0.588-3.588,0,0,0,90,false,stim,false,0,688.2000000029802,2,0,0,75469,task2,1383510,false,false,1930,image-keyboard-response,32
true,18,2,1,2,true,d,false,true,0.0-2.0-0.65-0.589-3.589,0,0,0,68,false,stim,false,1,522.7999999970198,2,1,2,75469,task2,1385560,false,false,1933,image-keyboard-response,33
true,18,1,1,1,true,z,false,true,0.0-2.0-0.65-0.590-3.590,0,0,0,90,false,stim,false,0,474.30000001192093,2,0,0,75469,task2,1387562,false,false,1936,image-keyboard-response,34
true,18,0,1,0,true,q,false,true,0.0-2.0-0.65-0.591-3.591,0,0,0,81,false,stim,false,1,773.7000000029802,2,0,1,75469,task2,1389863,false,false,1939,image-keyboard-response,35
