answered,blockNum,choice,condition,corResp,correct,correct_response,explo,fb,internal_node_id,isStable_1,isStable_2,isStable_3,key_press,newBlock,part,persev,persevResp,rt,sessNum,stableAS,stimulus,subject,task,time_elapsed,training,trap,trial_index,trial_type,trialsInBlock
true,1,1,0,2,false,d,true,false,0.0-2.0-0.0-0.0-3.0,0,0,0,90,true,stim,false,-1,793,2,0,1,75720,task3,92653,false,false,79,image-keyboard-response,1
true,1,0,0,2,false,d,true,false,0.0-2.0-0.0-0.1-3.1,0,0,0,81,false,stim,false,-1,427,2,0,1,75720,task3,94601,false,false,82,image-keyboard-response,2
true,1,0,0,2,false,d,true,false,0.0-2.0-0.0-0.2-3.2,0,0,0,81,false,stim,false,-1,719,2,0,0,75720,task3,96834,false,false,85,image-keyboard-response,3
true,1,1,0,1,true,z,false,true,0.0-2.0-0.0-0.3-3.3,0,0,0,90,false,stim,false,-1,670,2,0,2,75720,task3,99030,false,false,88,image-keyboard-response,4
true,1,1,0,2,false,d,true,false,0.0-2.0-0.0-0.4-3.4,0,0,0,90,false,stim,false,-1,671,2,0,0,75720,task3,101225,false,false,91,image-keyboard-response,5
true,1,2,0,2,true,d,false,true,0.0-2.0-0.0-0.5-3.5,0,0,0,68,false,stim,false,-1,518,2,0,0,75720,task3,103269,false,false,94,image-keyboard-response,6
true,1,2,0,2,true,d,false,true,0.0-2.0-0.0-0.6-3.6,0,0,0,68,false,stim,false,-1,839,2,0,1,75720,task3,105622,false,false,97,image-keyboard-response,7
true,1,1,0,1,true,z,false,true,0.0-2.0-0.0-0.7-3.7,0,0,0,90,false,stim,false,-1,399,2,0,2,75720,task3,107544,false,false,100,image-keyboard-response,8
true,1,1,0,1,true,z,false,true,0.0-2.0-0.0-0.8-3.8,0,0,0,90,false,stim,false,-1,644,2,0,2,75720,task3,109699,false,false,103,image-keyboard-response,9
true,1,2,0,2,true,d,false,false,0.0-2.0-0.1-0.9-3.9,0,0,0,68,false,stim,false,-1,605,2,0,0,75720,task3,111826,false,true,106,image-keyboard-response,10
true,1,1,0,2,false,d,true,false,0.0-2.0-0.1-0.10-3.10,0,0,0,90,false,stim,false,-1,453,2,0,1,75720,task3,113796,false,false,109,image-keyboard-response,11
true,1,1,0,1,true,z,false,true,0.0-2.0-0.1-0.11-3.11,0,0,0,90,false,stim,false,-1,719,2,0,2,75720,task3,116033,false,false,112,image-keyboard-response,12
true,1,2,0,2,true,d,false,true,0.0-2.0-0.1-0.12-3.12,0,0,0,68,false,stim,false,-1,1094,2,0,0,75720,task3,118642,false,false,115,image-keyboard-response,13
true,1,1,0,1,true,z,false,true,0.0-2.0-0.1-0.13-3.13,0,0,0,90,false,stim,false,-1,683,2,0,2,75720,task3,120840,false,false,118,image-keyboard-response,14
true,1,1,0,1,true,z,false,true,0.0-2.0-0.1-0.14-3.14,0,0,0,90,false,stim,false,-1,749,2,0,2,75720,task3,123121,false,false,121,image-keyboard-response,15
true,1,2,0,2,true,d,false,true,0.0-2.0-0.1-0.15-3.15,0,0,0,68,false,stim,false,-1,689,2,0,1,75720,task3,125321,false,false,124,image-keyboard-response,16
true,1,2,0,2,true,d,false,true,0.0-2.0-0.1-0.16-3.16,0,0,0,68,false,stim,false,-1,613,2,0,0,75720,task3,127445,false,false,127,image-keyboard-response,17
true,1,2,0,2,true,d,false,true,0.0-2.0-0.1-0.17-3.17,0,0,0,68,false,stim,false,-1,704,2,0,1,75720,task3,129671,false,false,130,image-keyboard-response,18
true,1,2,0,2,true,d,false,true,0.0-2.0-0.2-0.18-3.18,0,0,0,68,false,stim,false,-1,489,2,1,1,75720,task3,131689,false,false,133,image-keyboard-response,19
true,1,2,0,2,true,d,false,true,0.0-2.0-0.2-0.19-3.19,0,0,0,68,false,stim,false,-1,876,2,0,0,75720,task3,134088,false,false,136,image-keyboard-response,20
true,1,2,0,2,true,d,false,true,0.0-2.0-0.2-0.20-3.20,0,0,0,68,false,stim,false,-1,764,2,1,1,75720,task3,136383,false,false,139,image-keyboard-response,21
true,1,1,0,1,true,z,false,true,0.0-2.0-0.2-0.21-3.21,0,0,0,90,false,stim,false,-1,625,2,1,2,75720,task3,138523,false,false,142,image-keyboard-response,22
true,1,2,0,2,true,d,false,true,0.0-2.0-0.2-0.22-3.22,0,0,0,68,false,stim,false,-1,572,2,0,0,75720,task3,140614,false,false,145,image-keyboard-response,23
true,2,2,2,2,true,d,false,true,0.0-2.0-0.2-0.23-3.23,0,1,1,68,true,stim,false,2,836,2,1,1,75720,task3,142971,false,false,148,image-keyboard-response,1
true,2,2,2,0,false,q,false,false,0.0-2.0-0.2-0.24-3.24,0,1,1,68,false,stim,true,2,754,2,0,0,75720,task3,145241,false,false,151,image-keyboard-response,2
true,2,1,2,1,true,z,false,true,0.0-2.0-0.2-0.25-3.25,0,1,1,90,false,stim,false,1,604,2,1,2,75720,task3,147358,false,false,154,image-keyboard-response,3
true,2,1,2,1,true,z,false,true,0.0-2.0-0.2-0.26-3.26,0,1,1,90,false,stim,false,1,723,2,1,2,75720,task3,149596,false,false,157,image-keyboard-response,4
true,2,1,2,1,true,z,false,true,0.0-2.0-0.3-0.27-3.27,0,1,1,90,false,stim,false,1,469,2,1,2,75720,task3,151574,false,false,160,image-keyboard-response,5
true,2,1,2,0,false,q,true,false,0.0-2.0-0.3-0.28-3.28,0,1,1,90,false,stim,false,2,426,2,0,0,75720,task3,153521,false,false,163,image-keyboard-response,6
true,2,2,2,2,true,d,false,true,0.0-2.0-0.3-0.29-3.29,0,1,1,68,false,stim,false,2,1265,2,1,1,75720,task3,156308,false,false,166,image-keyboard-response,7
true,2,2,2,0,false,q,false,false,0.0-2.0-0.3-0.30-3.30,0,1,1,68,false,stim,true,2,1920,2,1,0,75720,task3,159747,false,false,169,image-keyboard-response,8
true,2,1,2,1,true,z,false,true,0.0-2.0-0.3-0.31-3.31,0,1,1,90,false,stim,false,1,831,2,0,2,75720,task3,162101,false,false,172,image-keyboard-response,9
true,2,0,2,0,true,q,false,true,0.0-2.0-0.3-0.32-3.32,0,1,1,81,false,stim,false,2,557,2,1,0,75720,task3,164183,false,false,175,image-keyboard-response,10
true,2,1,2,1,true,z,false,true,0.0-2.0-0.3-0.33-3.33,0,1,1,90,false,stim,false,1,691,2,0,2,75720,task3,166394,false,false,178,image-keyboard-response,11
true,2,2,2,2,true,d,false,true,0.0-2.0-0.3-0.34-3.34,0,1,1,68,false,stim,false,2,650,2,1,1,75720,task3,168575,false,false,181,image-keyboard-response,12
true,3,2,2,2,true,d,false,true,0.0-2.0-0.3-0.35-3.35,1,1,0,68,true,stim,false,2,1258,2,1,1,75720,task3,171364,false,false,184,image-keyboard-response,1
true,3,1,2,0,false,q,true,false,0.0-2.0-0.4-0.36-3.36,1,1,0,90,false,stim,false,0,1050,2,1,0,75720,task3,173935,false,false,187,image-keyboard-response,2
true,3,1,2,0,false,q,true,false,0.0-2.0-0.4-0.37-3.37,1,1,0,90,false,stim,false,0,423,2,1,0,75720,task3,175881,false,false,190,image-keyboard-response,3
true,3,2,2,2,true,d,false,true,0.0-2.0-0.4-0.38-3.38,1,1,0,68,false,stim,false,2,788,2,1,1,75720,task3,178185,false,false,193,image-keyboard-response,4
true,3,2,2,2,true,d,false,true,0.0-2.0-0.4-0.39-3.39,1,1,0,68,false,stim,false,2,832,2,1,1,75720,task3,180531,false,false,196,image-keyboard-response,5
true,3,2,2,2,true,d,false,true,0.0-2.0-0.4-0.40-3.40,1,1,0,68,false,stim,false,2,436,2,1,1,75720,task3,182480,false,false,199,image-keyboard-response,6
true,3,0,2,0,true,q,false,false,0.0-2.0-0.4-0.41-3.41,1,1,0,81,false,stim,false,1,877,2,0,2,75720,task3,184890,false,true,202,image-keyboard-response,7
true,3,2,2,0,false,q,true,false,0.0-2.0-0.4-0.42-3.42,1,1,0,68,false,stim,false,0,1218,2,1,0,75720,task3,187625,false,false,205,image-keyboard-response,8
true,3,1,2,0,false,q,false,false,0.0-2.0-0.4-0.43-3.43,1,1,0,90,false,stim,true,1,588,2,0,2,75720,task3,189728,false,false,208,image-keyboard-response,9
true,3,0,2,0,true,q,false,true,0.0-2.0-0.4-0.44-3.44,1,1,0,81,false,stim,false,1,643,2,0,2,75720,task3,191897,false,false,211,image-keyboard-response,10
true,3,0,2,0,true,q,false,true,0.0-2.0-0.5-0.45-3.45,1,1,0,81,false,stim,false,0,978,2,1,0,75720,task3,194394,false,false,214,image-keyboard-response,11
true,3,0,2,0,true,q,false,true,0.0-2.0-0.5-0.46-3.46,1,1,0,81,false,stim,false,1,902,2,0,2,75720,task3,196811,false,false,217,image-keyboard-response,12
true,3,2,2,2,true,d,false,true,0.0-2.0-0.5-0.47-3.47,1,1,0,68,false,stim,false,2,487,2,1,1,75720,task3,198821,false,false,220,image-keyboard-response,13
true,3,2,2,2,true,d,false,true,0.0-2.0-0.5-0.48-3.48,1,1,0,68,false,stim,false,2,1035,2,1,1,75720,task3,201370,false,false,223,image-keyboard-response,14
true,3,0,2,0,true,q,false,true,0.0-2.0-0.5-0.49-3.49,1,1,0,81,false,stim,false,0,1145,2,1,0,75720,task3,204044,false,false,226,image-keyboard-response,15
true,3,0,2,0,true,q,false,true,0.0-2.0-0.5-0.50-3.50,1,1,0,81,false,stim,false,1,833,2,0,2,75720,task3,206383,false,false,229,image-keyboard-response,16
true,3,0,2,0,true,q,false,true,0.0-2.0-0.5-0.51-3.51,1,1,0,81,false,stim,false,0,1611,2,1,0,75720,task3,209514,false,false,232,image-keyboard-response,17
true,3,2,2,2,true,d,false,true,0.0-2.0-0.5-0.52-3.52,1,1,0,68,false,stim,false,2,852,2,1,1,75720,task3,211887,false,false,235,image-keyboard-response,18
true,3,0,2,0,true,q,false,true,0.0-2.0-0.5-0.53-3.53,1,1,0,81,false,stim,false,1,794,2,0,2,75720,task3,214214,false,false,238,image-keyboard-response,19
true,3,0,2,0,true,q,false,true,0.0-2.0-0.6-0.54-3.54,1,1,0,81,false,stim,false,0,1161,2,1,0,75720,task3,216896,false,false,241,image-keyboard-response,20
true,3,0,2,0,true,q,false,true,0.0-2.0-0.6-0.55-3.55,1,1,0,81,false,stim,false,0,626,2,1,0,75720,task3,219040,false,false,244,image-keyboard-response,21
true,3,0,2,0,true,q,false,true,0.0-2.0-0.6-0.56-3.56,1,1,0,81,false,stim,false,1,707,2,0,2,75720,task3,221262,false,false,247,image-keyboard-response,22
true,3,0,2,0,true,q,false,true,0.0-2.0-0.6-0.57-3.57,1,1,0,81,false,stim,false,1,528,2,0,2,75720,task3,223300,false,false,250,image-keyboard-response,23
true,3,0,2,0,true,q,false,true,0.0-2.0-0.6-0.58-3.58,1,1,0,81,false,stim,false,0,866,2,1,0,75720,task3,225683,false,false,253,image-keyboard-response,24
true,3,2,2,2,true,d,false,true,0.0-2.0-0.6-0.59-3.59,1,1,0,68,false,stim,false,2,429,2,1,1,75720,task3,227636,false,false,256,image-keyboard-response,25
true,3,0,2,0,true,q,false,true,0.0-2.0-0.6-0.60-3.60,1,1,0,81,false,stim,false,1,411,2,0,2,75720,task3,229565,false,false,259,image-keyboard-response,26
true,4,2,2,2,true,d,false,true,0.0-2.0-0.6-0.61-3.61,1,1,0,68,true,stim,false,2,1100,2,1,1,75720,task3,232186,false,false,262,image-keyboard-response,1
true,4,2,2,2,true,d,false,true,0.0-2.0-0.6-0.62-3.62,1,1,0,68,false,stim,false,2,821,2,1,1,75720,task3,234529,false,false,265,image-keyboard-response,2
true,4,2,2,2,true,d,false,true,0.0-2.0-0.7-0.63-3.63,1,1,0,68,false,stim,false,2,555,2,1,1,75720,task3,236604,false,false,268,image-keyboard-response,3
true,4,2,2,2,true,d,false,true,0.0-2.0-0.7-0.64-3.64,1,1,0,68,false,stim,false,2,586,2,1,1,75720,task3,238715,false,false,271,image-keyboard-response,4
true,4,0,2,2,false,d,false,false,0.0-2.0-0.7-0.65-3.65,1,1,0,81,false,stim,true,0,538,2,0,2,75720,task3,240771,false,false,274,image-keyboard-response,5
true,4,2,2,2,true,d,false,true,0.0-2.0-0.7-0.66-3.66,1,1,0,68,false,stim,false,2,1544,2,1,1,75720,task3,243836,false,false,277,image-keyboard-response,6
true,4,0,2,0,true,q,false,true,0.0-2.0-0.7-0.67-3.67,1,1,0,81,false,stim,false,0,619,2,1,0,75720,task3,245985,false,false,280,image-keyboard-response,7
true,4,0,2,2,false,d,false,true,0.0-2.0-0.7-0.68-3.68,1,1,0,81,false,stim,true,0,392,2,0,2,75720,task3,247896,false,true,283,image-keyboard-response,8
true,4,0,2,2,false,d,false,false,0.0-2.0-0.7-0.69-3.69,1,1,0,81,false,stim,true,0,610,2,0,2,75720,task3,250027,false,false,286,image-keyboard-response,9
true,4,0,2,0,true,q,false,true,0.0-2.0-0.7-0.70-3.70,1,1,0,81,false,stim,false,0,1124,2,1,0,75720,task3,252676,false,false,289,image-keyboard-response,10
true,4,0,2,0,true,q,false,true,0.0-2.0-0.7-0.71-3.71,1,1,0,81,false,stim,false,0,1130,2,1,0,75720,task3,255321,false,false,292,image-keyboard-response,11
true,4,2,2,2,true,d,false,true,0.0-2.0-0.8-0.72-3.72,1,1,0,68,false,stim,false,0,544,2,0,2,75720,task3,257393,false,false,295,image-keyboard-response,12
true,4,2,2,2,true,d,false,true,0.0-2.0-0.8-0.73-3.73,1,1,0,68,false,stim,false,0,545,2,0,2,75720,task3,259458,false,false,298,image-keyboard-response,13
true,4,0,2,0,true,q,false,true,0.0-2.0-0.8-0.74-3.74,1,1,0,81,false,stim,false,0,942,2,1,0,75720,task3,261918,false,false,301,image-keyboard-response,14
true,4,2,2,2,true,d,false,true,0.0-2.0-0.8-0.75-3.75,1,1,0,68,false,stim,false,2,1554,2,1,1,75720,task3,264987,false,false,304,image-keyboard-response,15
true,4,0,2,0,true,q,false,true,0.0-2.0-0.8-0.76-3.76,1,1,0,81,false,stim,false,0,634,2,1,0,75720,task3,267134,false,false,307,image-keyboard-response,16
true,4,2,2,2,true,d,false,true,0.0-2.0-0.8-0.77-3.77,1,1,0,68,false,stim,false,2,615,2,1,1,75720,task3,269276,false,false,310,image-keyboard-response,17
true,4,2,2,2,true,d,false,false,0.0-2.0-0.8-0.78-3.78,1,1,0,68,false,stim,false,0,697,2,0,2,75720,task3,271492,false,true,313,image-keyboard-response,18
true,4,0,2,0,true,q,false,true,0.0-2.0-0.8-0.79-3.79,1,1,0,81,false,stim,false,0,777,2,1,0,75720,task3,273782,false,false,316,image-keyboard-response,19
true,4,2,2,2,true,d,false,true,0.0-2.0-0.8-0.80-3.80,1,1,0,68,false,stim,false,2,722,2,1,1,75720,task3,276029,false,false,319,image-keyboard-response,20
true,4,2,2,2,true,d,false,true,0.0-2.0-0.9-0.81-3.81,1,1,0,68,false,stim,false,0,455,2,0,2,75720,task3,278006,false,false,322,image-keyboard-response,21
true,4,2,2,2,true,d,false,true,0.0-2.0-0.9-0.82-3.82,1,1,0,68,false,stim,false,2,1000,2,0,1,75720,task3,280513,false,false,325,image-keyboard-response,22
true,4,0,2,0,true,q,false,false,0.0-2.0-0.9-0.83-3.83,1,1,0,81,false,stim,false,0,1069,2,1,0,75720,task3,283098,false,true,328,image-keyboard-response,23
true,4,0,2,0,true,q,false,true,0.0-2.0-0.9-0.84-3.84,1,1,0,81,false,stim,false,0,389,2,1,0,75720,task3,285013,false,false,331,image-keyboard-response,24
true,4,2,2,2,true,d,false,true,0.0-2.0-0.9-0.85-3.85,1,1,0,68,false,stim,false,2,1079,2,0,1,75720,task3,287621,false,false,334,image-keyboard-response,25
true,4,2,2,2,true,d,false,true,0.0-2.0-0.9-0.86-3.86,1,1,0,68,false,stim,false,0,714,2,0,2,75720,task3,289853,false,false,337,image-keyboard-response,26
true,5,2,1,1,false,z,false,false,0.0-2.0-0.9-0.87-3.87,1,0,0,68,true,stim,true,2,616,2,0,1,75720,task3,291982,false,false,340,image-keyboard-response,1
true,5,0,1,0,true,q,false,true,0.0-2.0-0.9-0.88-3.88,1,0,0,81,false,stim,false,0,800,2,1,0,75720,task3,294344,false,false,343,image-keyboard-response,2
true,5,2,1,1,false,z,false,false,0.0-2.0-0.9-0.89-3.89,1,0,0,68,false,stim,true,2,697,2,0,2,75720,task3,296560,false,false,346,image-keyboard-response,3
true,5,1,1,1,true,z,false,true,0.0-2.0-0.10-0.90-3.90,1,0,0,90,false,stim,false,2,435,2,0,1,75720,task3,298520,false,false,349,image-keyboard-response,4
true,5,0,1,0,true,q,false,false,0.0-2.0-0.10-0.91-3.91,1,0,0,81,false,stim,false,0,727,2,1,0,75720,task3,300767,false,true,352,image-keyboard-response,5
true,5,2,1,1,false,z,false,false,0.0-2.0-0.10-0.92-3.92,1,0,0,68,false,stim,true,2,1131,2,0,2,75720,task3,303415,false,false,355,image-keyboard-response,6
true,5,0,1,1,false,z,true,true,0.0-2.0-0.10-0.93-3.93,1,0,0,81,false,stim,false,2,596,2,0,2,75720,task3,305536,false,true,358,image-keyboard-response,7
true,5,0,1,1,false,z,true,false,0.0-2.0-0.10-0.94-3.94,1,0,0,81,false,stim,false,2,837,2,0,2,75720,task3,307890,false,false,361,image-keyboard-response,8
true,5,1,1,1,true,z,false,true,0.0-2.0-0.10-0.95-3.95,1,0,0,90,false,stim,false,2,1086,2,0,1,75720,task3,310495,false,false,364,image-keyboard-response,9
true,5,0,1,0,true,q,false,false,0.0-2.0-0.10-0.96-3.96,1,0,0,81,false,stim,false,0,575,2,1,0,75720,task3,312582,false,true,367,image-keyboard-response,10
true,5,1,1,1,true,z,false,true,0.0-2.0-0.10-0.97-3.97,1,0,0,90,false,stim,false,2,1584,2,0,1,75720,task3,315694,false,false,370,image-keyboard-response,11
true,5,2,1,0,false,q,true,false,0.0-2.0-0.10-0.98-3.98,1,0,0,68,false,stim,false,0,770,2,1,0,75720,task3,317983,false,false,373,image-keyboard-response,12
true,5,0,1,1,false,z,true,false,0.0-2.0-0.11-0.99-3.99,1,0,0,81,false,stim,false,2,619,2,0,2,75720,task3,320121,false,false,376,image-keyboard-response,13
true,5,1,1,1,true,z,false,true,0.0-2.0-0.11-0.100-3.100,1,0,0,90,false,stim,false,2,409,2,0,1,75720,task3,322048,false,false,379,image-keyboard-response,14
true,5,1,1,1,true,z,false,true,0.0-2.0-0.11-0.101-3.101,1,0,0,90,false,stim,false,2,597,2,0,1,75720,task3,324158,false,false,382,image-keyboard-response,15
true,5,1,1,1,true,z,false,true,0.0-2.0-0.11-0.102-3.102,1,0,0,90,false,stim,false,2,751,2,0,2,75720,task3,326429,false,false,385,image-keyboard-response,16
true,5,0,1,0,true,q,false,true,0.0-2.0-0.11-0.103-3.103,1,0,0,81,false,stim,false,0,498,2,1,0,75720,task3,328444,false,false,388,image-keyboard-response,17
true,5,1,1,1,true,z,false,false,0.0-2.0-0.11-0.104-3.104,1,0,0,90,false,stim,false,2,879,2,1,1,75720,task3,330844,false,true,391,image-keyboard-response,18
true,5,0,1,0,true,q,false,true,0.0-2.0-0.11-0.105-3.105,1,0,0,81,false,stim,false,0,913,2,0,0,75720,task3,333269,false,false,394,image-keyboard-response,19
true,5,1,1,1,true,z,false,true,0.0-2.0-0.11-0.106-3.106,1,0,0,90,false,stim,false,2,609,2,0,2,75720,task3,335399,false,false,397,image-keyboard-response,20
true,5,0,1,0,true,q,false,true,0.0-2.0-0.11-0.107-3.107,1,0,0,81,false,stim,false,0,1011,2,0,0,75720,task3,337929,false,false,400,image-keyboard-response,21
true,5,1,1,1,true,z,false,false,0.0-2.0-0.12-0.108-3.108,1,0,0,90,false,stim,false,2,1012,2,1,1,75720,task3,340475,false,true,403,image-keyboard-response,22
true,6,2,1,1,false,z,true,false,0.0-2.0-0.12-0.109-3.109,0,1,0,68,true,stim,false,1,1289,2,1,1,75720,task3,343284,false,false,406,image-keyboard-response,1
true,6,1,1,2,false,d,false,true,0.0-2.0-0.12-0.110-3.110,0,1,0,90,false,stim,true,1,695,2,0,2,75720,task3,345500,false,true,409,image-keyboard-response,2
true,6,0,1,1,false,z,false,true,0.0-2.0-0.12-0.111-3.111,0,1,0,81,false,stim,true,0,729,2,0,0,75720,task3,347750,false,true,412,image-keyboard-response,3
true,6,0,1,1,false,z,false,false,0.0-2.0-0.12-0.112-3.112,0,1,0,81,false,stim,true,0,691,2,0,0,75720,task3,349950,false,false,415,image-keyboard-response,4
true,6,1,1,2,false,d,false,false,0.0-2.0-0.12-0.113-3.113,0,1,0,90,false,stim,true,1,613,2,0,2,75720,task3,352084,false,false,418,image-keyboard-response,5
true,6,0,1,1,false,z,false,false,0.0-2.0-0.12-0.114-3.114,0,1,0,81,false,stim,true,0,828,2,0,0,75720,task3,354426,false,false,421,image-keyboard-response,6
true,6,0,1,2,false,d,true,false,0.0-2.0-0.12-0.115-3.115,0,1,0,81,false,stim,false,1,1611,2,0,2,75720,task3,357572,false,false,424,image-keyboard-response,7
true,6,1,1,1,true,z,false,true,0.0-2.0-0.12-0.116-3.116,0,1,0,90,false,stim,false,1,574,2,1,1,75720,task3,359661,false,false,427,image-keyboard-response,8
true,6,2,1,1,false,z,true,false,0.0-2.0-0.13-0.117-3.117,0,1,0,68,false,stim,false,0,435,2,0,0,75720,task3,361605,false,false,430,image-keyboard-response,9
true,6,2,1,2,true,d,false,true,0.0-2.0-0.13-0.118-3.118,0,1,0,68,false,stim,false,1,749,2,0,2,75720,task3,363876,false,false,433,image-keyboard-response,10
true,6,2,1,2,true,d,false,true,0.0-2.0-0.13-0.119-3.119,0,1,0,68,false,stim,false,1,670,2,0,2,75720,task3,366066,false,false,436,image-keyboard-response,11
true,6,1,1,1,true,z,false,true,0.0-2.0-0.13-0.120-3.120,0,1,0,90,false,stim,false,1,762,2,1,1,75720,task3,368355,false,false,439,image-keyboard-response,12
true,6,1,1,1,true,z,false,true,0.0-2.0-0.13-0.121-3.121,0,1,0,90,false,stim,false,1,615,2,1,1,75720,task3,370502,false,false,442,image-keyboard-response,13
true,6,2,1,2,true,d,false,false,0.0-2.0-0.13-0.122-3.122,0,1,0,68,false,stim,false,1,797,2,0,2,75720,task3,372811,false,true,445,image-keyboard-response,14
true,6,1,1,1,true,z,false,true,0.0-2.0-0.13-0.123-3.123,0,1,0,90,false,stim,false,0,687,2,0,0,75720,task3,375014,false,false,448,image-keyboard-response,15
true,6,1,1,1,true,z,false,true,0.0-2.0-0.13-0.124-3.124,0,1,0,90,false,stim,false,1,641,2,1,1,75720,task3,377180,false,false,451,image-keyboard-response,16
true,6,1,1,1,true,z,false,true,0.0-2.0-0.13-0.125-3.125,0,1,0,90,false,stim,false,0,1179,2,0,0,75720,task3,379872,false,false,454,image-keyboard-response,17
true,6,2,1,2,true,d,false,true,0.0-2.0-0.14-0.126-3.126,0,1,0,68,false,stim,false,1,607,2,0,2,75720,task3,382010,false,false,457,image-keyboard-response,18
true,6,2,1,2,true,d,false,true,0.0-2.0-0.14-0.127-3.127,0,1,0,68,false,stim,false,1,943,2,0,2,75720,task3,384466,false,false,460,image-keyboard-response,19
true,6,1,1,1,true,z,false,true,0.0-2.0-0.14-0.128-3.128,0,1,0,90,false,stim,false,0,639,2,0,0,75720,task3,386621,false,false,463,image-keyboard-response,20
true,6,1,1,1,true,z,false,true,0.0-2.0-0.14-0.129-3.129,0,1,0,90,false,stim,false,0,668,2,0,0,75720,task3,388822,false,false,466,image-keyboard-response,21
true,6,1,1,1,true,z,false,true,0.0-2.0-0.14-0.130-3.130,0,1,0,90,false,stim,false,0,749,2,1,0,75720,task3,391084,false,false,469,image-keyboard-response,22
true,6,1,1,1,true,z,false,false,0.0-2.0-0.14-0.131-3.131,0,1,0,90,false,stim,false,1,891,2,0,1,75720,task3,393501,false,true,472,image-keyboard-response,23
true,6,1,1,1,true,z,false,true,0.0-2.0-0.14-0.132-3.132,0,1,0,90,false,stim,false,1,514,2,0,1,75720,task3,395522,false,false,475,image-keyboard-response,24
true,6,0,1,1,false,z,true,false,0.0-2.0-0.14-0.133-3.133,0,1,0,81,false,stim,false,1,1238,2,0,1,75720,task3,398277,false,false,478,image-keyboard-response,25
true,6,1,1,2,false,d,false,false,0.0-2.0-0.14-0.134-3.134,0,1,0,90,false,stim,true,1,643,2,0,2,75720,task3,400432,false,false,481,image-keyboard-response,26
true,7,1,1,2,false,d,false,false,0.0-2.0-0.15-0.135-3.135,1,0,0,90,true,stim,true,1,607,2,0,1,75720,task3,402559,false,false,484,image-keyboard-response,1
true,7,1,1,1,true,z,false,true,0.0-2.0-0.15-0.136-3.136,1,0,0,90,false,stim,false,1,1212,2,1,0,75720,task3,405293,false,false,487,image-keyboard-response,2
true,7,2,1,1,false,z,false,false,0.0-2.0-0.15-0.137-3.137,1,0,0,68,false,stim,true,2,618,2,0,2,75720,task3,407439,false,false,490,image-keyboard-response,3
true,7,1,1,1,true,z,false,true,0.0-2.0-0.15-0.138-3.138,1,0,0,90,false,stim,false,1,1312,2,1,0,75720,task3,410266,false,false,493,image-keyboard-response,4
true,7,2,1,1,false,z,false,false,0.0-2.0-0.15-0.139-3.139,1,0,0,68,false,stim,true,2,2082,2,0,2,75720,task3,413863,false,false,496,image-keyboard-response,5
true,7,1,1,1,true,z,false,true,0.0-2.0-0.15-0.140-3.140,1,0,0,90,false,stim,false,1,882,2,1,0,75720,task3,416261,false,false,499,image-keyboard-response,6
true,7,2,1,2,true,d,false,true,0.0-2.0-0.15-0.141-3.141,1,0,0,68,false,stim,false,1,733,2,0,1,75720,task3,418515,false,false,502,image-keyboard-response,7
true,7,2,1,2,true,d,false,true,0.0-2.0-0.15-0.142-3.142,1,0,0,68,false,stim,false,1,556,2,0,1,75720,task3,420595,false,false,505,image-keyboard-response,8
true,7,1,1,1,true,z,false,true,0.0-2.0-0.15-0.143-3.143,1,0,0,90,false,stim,false,2,583,2,0,2,75720,task3,422698,false,false,508,image-keyboard-response,9
true,7,2,1,2,true,d,false,true,0.0-2.0-0.16-0.144-3.144,1,0,0,68,false,stim,false,1,625,2,0,1,75720,task3,424843,false,false,511,image-keyboard-response,10
true,7,2,1,2,true,d,false,true,0.0-2.0-0.16-0.145-3.145,1,0,0,68,false,stim,false,1,730,2,0,1,75720,task3,427095,false,false,514,image-keyboard-response,11
true,7,1,1,1,true,z,false,true,0.0-2.0-0.16-0.146-3.146,1,0,0,90,false,stim,false,1,781,2,1,0,75720,task3,429392,false,false,517,image-keyboard-response,12
true,7,2,1,2,true,d,false,true,0.0-2.0-0.16-0.147-3.147,1,0,0,68,false,stim,false,1,1029,2,0,1,75720,task3,431946,false,false,520,image-keyboard-response,13
true,7,1,1,1,true,z,false,true,0.0-2.0-0.16-0.148-3.148,1,0,0,90,false,stim,false,2,597,2,0,2,75720,task3,434055,false,false,523,image-keyboard-response,14
true,7,1,1,1,true,z,false,true,0.0-2.0-0.16-0.149-3.149,1,0,0,90,false,stim,false,2,721,2,0,2,75720,task3,436300,false,false,526,image-keyboard-response,15
true,7,1,1,1,true,z,false,true,0.0-2.0-0.16-0.150-3.150,1,0,0,90,false,stim,false,1,1150,2,1,0,75720,task3,438971,false,false,529,image-keyboard-response,16
true,7,1,1,1,true,z,false,true,0.0-2.0-0.16-0.151-3.151,1,0,0,90,false,stim,false,2,831,2,0,2,75720,task3,441320,false,false,532,image-keyboard-response,17
true,7,1,1,1,true,z,false,true,0.0-2.0-0.16-0.152-3.152,1,0,0,90,false,stim,false,1,1489,2,1,0,75720,task3,444322,false,false,535,image-keyboard-response,18
true,7,1,1,1,true,z,false,true,0.0-2.0-0.17-0.153-3.153,1,0,0,90,false,stim,false,2,669,2,0,2,75720,task3,446517,false,false,538,image-keyboard-response,19
true,7,1,1,1,true,z,false,true,0.0-2.0-0.17-0.154-3.154,1,0,0,90,false,stim,false,1,889,2,1,0,75720,task3,448916,false,false,541,image-keyboard-response,20
true,7,1,1,1,true,z,false,false,0.0-2.0-0.17-0.155-3.155,1,0,0,90,false,stim,false,2,581,2,0,2,75720,task3,451014,false,true,544,image-keyboard-response,21
true,8,2,1,0,false,q,false,false,0.0-2.0-0.17-0.156-3.156,1,0,0,68,true,stim,true,2,799,2,0,1,75720,task3,453331,false,false,547,image-keyboard-response,1
true,8,1,1,1,true,z,false,true,0.0-2.0-0.17-0.157-3.157,1,0,0,90,false,stim,false,1,892,2,1,0,75720,task3,455756,false,false,550,image-keyboard-response,2
true,8,1,1,0,false,q,false,false,0.0-2.0-0.17-0.158-3.158,1,0,0,90,false,stim,true,1,539,2,0,2,75720,task3,457814,false,false,553,image-keyboard-response,3
true,8,0,1,0,true,q,false,true,0.0-2.0-0.17-0.159-3.159,1,0,0,81,false,stim,false,2,896,2,0,1,75720,task3,460229,false,false,556,image-keyboard-response,4
true,8,1,1,1,true,z,false,true,0.0-2.0-0.17-0.160-3.160,1,0,0,90,false,stim,false,1,831,2,1,0,75720,task3,462575,false,false,559,image-keyboard-response,5
true,8,0,1,0,true,q,false,false,0.0-2.0-0.17-0.161-3.161,1,0,0,81,false,stim,false,2,565,2,0,1,75720,task3,464666,false,true,562,image-keyboard-response,6
true,8,1,1,1,true,z,false,true,0.0-2.0-0.18-0.162-3.162,1,0,0,90,false,stim,false,1,726,2,1,0,75720,task3,466912,false,false,565,image-keyboard-response,7
true,8,1,1,1,true,z,false,true,0.0-2.0-0.18-0.163-3.163,1,0,0,90,false,stim,false,1,895,2,1,0,75720,task3,469326,false,false,568,image-keyboard-response,8
true,8,0,1,0,true,q,false,true,0.0-2.0-0.18-0.164-3.164,1,0,0,81,false,stim,false,1,620,2,0,2,75720,task3,471479,false,false,571,image-keyboard-response,9
true,8,1,1,1,true,z,false,true,0.0-2.0-0.18-0.165-3.165,1,0,0,90,false,stim,false,1,570,2,1,0,75720,task3,473565,false,false,574,image-keyboard-response,10
true,8,0,1,0,true,q,false,true,0.0-2.0-0.18-0.166-3.166,1,0,0,81,false,stim,false,1,737,2,0,2,75720,task3,475821,false,false,577,image-keyboard-response,11
true,8,1,1,0,false,q,true,false,0.0-2.0-0.18-0.167-3.167,1,0,0,90,false,stim,false,2,900,2,0,1,75720,task3,478240,false,false,580,image-keyboard-response,12
true,8,0,1,0,true,q,false,true,0.0-2.0-0.18-0.168-3.168,1,0,0,81,false,stim,false,1,729,2,0,2,75720,task3,480494,false,false,583,image-keyboard-response,13
true,8,0,1,0,true,q,false,true,0.0-2.0-0.18-0.169-3.169,1,0,0,81,false,stim,false,2,703,2,0,1,75720,task3,482728,false,false,586,image-keyboard-response,14
true,8,0,1,0,true,q,false,false,0.0-2.0-0.18-0.170-3.170,1,0,0,81,false,stim,false,2,641,2,0,1,75720,task3,484892,false,true,589,image-keyboard-response,15
true,8,0,1,0,true,q,false,true,0.0-2.0-0.19-0.171-3.171,1,0,0,81,false,stim,false,1,864,2,0,2,75720,task3,487281,false,false,592,image-keyboard-response,16
true,8,0,1,0,true,q,false,true,0.0-2.0-0.19-0.172-3.172,1,0,0,81,false,stim,false,2,896,2,0,1,75720,task3,489683,false,false,595,image-keyboard-response,17
true,8,0,1,0,true,q,false,true,0.0-2.0-0.19-0.173-3.173,1,0,0,81,false,stim,false,2,513,2,1,1,75720,task3,491711,false,false,598,image-keyboard-response,18
true,8,0,1,0,true,q,false,true,0.0-2.0-0.19-0.174-3.174,1,0,0,81,false,stim,false,1,615,2,0,2,75720,task3,493858,false,false,601,image-keyboard-response,19
true,8,1,1,1,true,z,false,true,0.0-2.0-0.19-0.175-3.175,1,0,0,90,false,stim,false,1,737,2,1,0,75720,task3,496118,false,false,604,image-keyboard-response,20
true,8,0,1,0,true,q,false,true,0.0-2.0-0.19-0.176-3.176,1,0,0,81,false,stim,false,2,534,2,1,1,75720,task3,498169,false,false,607,image-keyboard-response,21
true,8,1,1,1,true,z,false,false,0.0-2.0-0.19-0.177-3.177,1,0,0,90,false,stim,false,1,976,2,1,0,75720,task3,500666,false,true,610,image-keyboard-response,22
true,9,0,2,2,false,d,false,false,0.0-2.0-0.19-0.178-3.178,1,1,0,81,true,stim,true,0,725,2,0,2,75720,task3,502903,false,false,613,image-keyboard-response,1
true,9,1,2,1,true,z,false,true,0.0-2.0-0.19-0.179-3.179,1,1,0,90,false,stim,false,1,1166,2,1,0,75720,task3,505589,false,false,616,image-keyboard-response,2
true,9,0,2,0,true,q,false,true,0.0-2.0-0.20-0.180-3.180,1,1,0,81,false,stim,false,0,655,2,1,1,75720,task3,507755,false,false,619,image-keyboard-response,3
true,9,0,2,2,false,d,false,false,0.0-2.0-0.20-0.181-3.181,1,1,0,81,false,stim,true,0,796,2,0,2,75720,task3,510058,false,false,622,image-keyboard-response,4
true,9,1,2,1,true,z,false,true,0.0-2.0-0.20-0.182-3.182,1,1,0,90,false,stim,false,1,671,2,1,0,75720,task3,512245,false,false,625,image-keyboard-response,5
true,9,0,2,0,true,q,false,true,0.0-2.0-0.20-0.183-3.183,1,1,0,81,false,stim,false,0,1319,2,1,1,75720,task3,515090,false,false,628,image-keyboard-response,6
true,9,0,2,2,false,d,false,false,0.0-2.0-0.20-0.184-3.184,1,1,0,81,false,stim,true,0,421,2,0,2,75720,task3,517030,false,false,631,image-keyboard-response,7
true,9,1,2,2,false,d,true,false,0.0-2.0-0.20-0.185-3.185,1,1,0,90,false,stim,false,0,955,2,0,2,75720,task3,519505,false,false,634,image-keyboard-response,8
true,9,1,2,1,true,z,false,true,0.0-2.0-0.20-0.186-3.186,1,1,0,90,false,stim,false,1,849,2,1,0,75720,task3,521869,false,false,637,image-keyboard-response,9
true,9,0,2,0,true,q,false,true,0.0-2.0-0.20-0.187-3.187,1,1,0,81,false,stim,false,0,855,2,1,1,75720,task3,524237,false,false,640,image-keyboard-response,10
true,9,1,2,1,true,z,false,true,0.0-2.0-0.20-0.188-3.188,1,1,0,90,false,stim,false,1,666,2,0,0,75720,task3,526432,false,false,643,image-keyboard-response,11
true,9,2,2,2,true,d,false,true,0.0-2.0-0.21-0.189-3.189,1,1,0,68,false,stim,false,0,539,2,1,2,75720,task3,528490,false,false,646,image-keyboard-response,12
true,9,0,2,0,true,q,false,true,0.0-2.0-0.21-0.190-3.190,1,1,0,81,false,stim,false,0,711,2,1,1,75720,task3,530713,false,false,649,image-keyboard-response,13
true,9,2,2,2,true,d,false,true,0.0-2.0-0.21-0.191-3.191,1,1,0,68,false,stim,false,0,599,2,1,2,75720,task3,532834,false,false,652,image-keyboard-response,14
true,9,0,2,0,true,q,false,true,0.0-2.0-0.21-0.192-3.192,1,1,0,81,false,stim,false,0,724,2,1,1,75720,task3,535073,false,false,655,image-keyboard-response,15
true,10,1,2,0,false,q,false,false,0.0-2.0-0.21-0.193-3.193,0,1,1,90,true,stim,true,1,702,2,0,0,75720,task3,537301,false,false,658,image-keyboard-response,1
true,10,1,2,0,false,q,false,false,0.0-2.0-0.21-0.194-3.194,0,1,1,90,false,stim,true,1,379,2,0,0,75720,task3,539196,false,false,661,image-keyboard-response,2
true,10,0,2,0,true,q,false,true,0.0-2.0-0.21-0.195-3.195,0,1,1,81,false,stim,false,0,649,2,1,1,75720,task3,541366,false,false,664,image-keyboard-response,3
true,10,0,2,0,true,q,false,false,0.0-2.0-0.21-0.196-3.196,0,1,1,81,false,stim,false,1,406,2,0,0,75720,task3,543282,false,true,667,image-keyboard-response,4
true,10,2,2,2,true,d,false,true,0.0-2.0-0.21-0.197-3.197,0,1,1,68,false,stim,false,2,632,2,1,2,75720,task3,545432,false,false,670,image-keyboard-response,5
true,10,2,2,2,true,d,false,true,0.0-2.0-0.22-0.198-3.198,0,1,1,68,false,stim,false,2,565,2,1,2,75720,task3,547511,false,false,673,image-keyboard-response,6
true,10,0,2,0,true,q,false,true,0.0-2.0-0.22-0.199-3.199,0,1,1,81,false,stim,false,0,620,2,1,1,75720,task3,549649,false,false,676,image-keyboard-response,7
true,10,2,2,2,true,d,false,true,0.0-2.0-0.22-0.200-3.200,0,1,1,68,false,stim,false,2,809,2,1,2,75720,task3,551985,false,false,679,image-keyboard-response,8
true,10,2,2,0,false,q,true,false,0.0-2.0-0.22-0.201-3.201,0,1,1,68,false,stim,false,1,408,2,0,0,75720,task3,553903,false,false,682,image-keyboard-response,9
true,10,2,2,2,true,d,false,false,0.0-2.0-0.22-0.202-3.202,0,1,1,68,false,stim,false,2,872,2,1,2,75720,task3,556305,false,true,685,image-keyboard-response,10
true,10,0,2,0,true,q,false,true,0.0-2.0-0.22-0.203-3.203,0,1,1,81,false,stim,false,1,749,2,0,0,75720,task3,558584,false,false,688,image-keyboard-response,11
true,10,0,2,0,true,q,false,true,0.0-2.0-0.22-0.204-3.204,0,1,1,81,false,stim,false,1,533,2,0,0,75720,task3,560640,false,false,691,image-keyboard-response,12
true,10,0,2,0,true,q,false,true,0.0-2.0-0.22-0.205-3.205,0,1,1,81,false,stim,false,0,798,2,1,1,75720,task3,562958,false,false,694,image-keyboard-response,13
true,10,0,2,0,true,q,false,true,0.0-2.0-0.22-0.206-3.206,0,1,1,81,false,stim,false,0,479,2,1,1,75720,task3,564966,false,false,697,image-keyboard-response,14
true,10,0,2,0,true,q,false,true,0.0-2.0-0.23-0.207-3.207,0,1,1,81,false,stim,false,0,720,2,1,1,75720,task3,567204,false,false,700,image-keyboard-response,15
true,10,0,2,0,true,q,false,true,0.0-2.0-0.23-0.208-3.208,0,1,1,81,false,stim,false,1,447,2,0,0,75720,task3,569178,false,false,703,image-keyboard-response,16
true,10,2,2,2,true,d,false,true,0.0-2.0-0.23-0.209-3.209,0,1,1,68,false,stim,false,2,584,2,1,2,75720,task3,571272,false,false,706,image-keyboard-response,17
true,10,0,2,0,true,q,false,true,0.0-2.0-0.23-0.210-3.210,0,1,1,81,false,stim,false,0,674,2,1,1,75720,task3,573464,false,false,709,image-keyboard-response,18
true,10,2,2,2,true,d,false,true,0.0-2.0-0.23-0.211-3.211,0,1,1,68,false,stim,false,2,709,2,1,2,75720,task3,575699,false,false,712,image-keyboard-response,19
true,10,0,2,0,true,q,false,true,0.0-2.0-0.23-0.212-3.212,0,1,1,81,false,stim,false,0,624,2,1,1,75720,task3,577833,false,false,715,image-keyboard-response,20
true,10,0,2,0,true,q,false,true,0.0-2.0-0.23-0.213-3.213,0,1,1,81,false,stim,false,1,944,2,0,0,75720,task3,580291,false,false,718,image-keyboard-response,21
true,10,0,2,0,true,q,false,true,0.0-2.0-0.23-0.214-3.214,0,1,1,81,false,stim,false,1,661,2,0,0,75720,task3,582475,false,false,721,image-keyboard-response,22
true,10,2,2,2,true,d,false,false,0.0-2.0-0.23-0.215-3.215,0,1,1,68,false,stim,false,2,519,2,1,2,75720,task3,584522,false,true,724,image-keyboard-response,23
true,10,0,2,0,true,q,false,true,0.0-2.0-0.24-0.216-3.216,0,1,1,81,false,stim,false,0,1394,2,0,1,75720,task3,587444,false,false,727,image-keyboard-response,24
true,10,1,2,2,false,d,true,false,0.0-2.0-0.24-0.217-3.217,0,1,1,90,false,stim,false,2,654,2,1,2,75720,task3,589615,false,false,730,image-keyboard-response,25
true,10,0,2,0,true,q,false,true,0.0-2.0-0.24-0.218-3.218,0,1,1,81,false,stim,false,0,666,2,0,1,75720,task3,591797,false,false,733,image-keyboard-response,26
true,10,2,2,2,true,d,false,true,0.0-2.0-0.24-0.219-3.219,0,1,1,68,false,stim,false,2,641,2,1,2,75720,task3,593954,false,false,736,image-keyboard-response,27
true,11,0,1,2,false,d,false,false,0.0-2.0-0.24-0.220-3.220,0,0,1,81,true,stim,true,0,969,2,0,0,75720,task3,596445,false,false,739,image-keyboard-response,1
true,11,0,1,1,false,z,false,false,0.0-2.0-0.24-0.221-3.221,0,0,1,81,false,stim,true,0,1234,2,0,1,75720,task3,599201,false,false,742,image-keyboard-response,2
true,11,2,1,2,true,d,false,true,0.0-2.0-0.24-0.222-3.222,0,0,1,68,false,stim,false,2,353,2,1,2,75720,task3,601075,false,false,745,image-keyboard-response,3
true,11,2,1,2,true,d,false,true,0.0-2.0-0.24-0.223-3.223,0,0,1,68,false,stim,false,0,926,2,0,0,75720,task3,603513,false,false,748,image-keyboard-response,4
true,11,2,1,2,true,d,false,true,0.0-2.0-0.24-0.224-3.224,0,0,1,68,false,stim,false,0,1007,2,0,0,75720,task3,606035,false,false,751,image-keyboard-response,5
true,11,1,1,1,true,z,false,true,0.0-2.0-0.25-0.225-3.225,0,0,1,90,false,stim,false,0,965,2,0,1,75720,task3,608515,false,false,754,image-keyboard-response,6
true,11,1,1,1,true,z,false,true,0.0-2.0-0.25-0.226-3.226,0,0,1,90,false,stim,false,0,577,2,0,1,75720,task3,610605,false,false,757,image-keyboard-response,7
true,11,2,1,2,true,d,false,true,0.0-2.0-0.25-0.227-3.227,0,0,1,68,false,stim,false,0,927,2,0,0,75720,task3,613059,false,false,760,image-keyboard-response,8
true,11,2,1,2,true,d,false,true,0.0-2.0-0.25-0.228-3.228,0,0,1,68,false,stim,false,2,1050,2,1,2,75720,task3,615633,false,false,763,image-keyboard-response,9
true,11,2,1,2,true,d,false,true,0.0-2.0-0.25-0.229-3.229,0,0,1,68,false,stim,false,2,553,2,1,2,75720,task3,617708,false,false,766,image-keyboard-response,10
true,11,2,1,2,true,d,false,true,0.0-2.0-0.25-0.230-3.230,0,0,1,68,false,stim,false,0,889,2,0,0,75720,task3,620108,false,false,769,image-keyboard-response,11
true,11,1,1,1,true,z,false,true,0.0-2.0-0.25-0.231-3.231,0,0,1,90,false,stim,false,0,1218,2,0,1,75720,task3,622849,false,false,772,image-keyboard-response,12
true,11,2,1,2,true,d,false,true,0.0-2.0-0.25-0.232-3.232,0,0,1,68,false,stim,false,2,739,2,1,2,75720,task3,625110,false,false,775,image-keyboard-response,13
true,11,2,1,2,true,d,false,true,0.0-2.0-0.25-0.233-3.233,0,0,1,68,false,stim,false,0,1201,2,0,0,75720,task3,627835,false,false,778,image-keyboard-response,14
true,11,1,1,1,true,z,false,true,0.0-2.0-0.26-0.234-3.234,0,0,1,90,false,stim,false,0,593,2,0,1,75720,task3,629951,false,false,781,image-keyboard-response,15
true,11,2,1,2,true,d,false,true,0.0-2.0-0.26-0.235-3.235,0,0,1,68,false,stim,false,0,840,2,0,0,75720,task3,632306,false,false,784,image-keyboard-response,16
true,11,2,1,2,true,d,false,true,0.0-2.0-0.26-0.236-3.236,0,0,1,68,false,stim,false,2,2491,2,1,2,75720,task3,636315,false,false,787,image-keyboard-response,17
true,11,2,1,2,true,d,false,true,0.0-2.0-0.26-0.237-3.237,0,0,1,68,false,stim,false,0,672,2,0,0,75720,task3,638505,false,false,790,image-keyboard-response,18
true,11,2,1,2,true,d,false,true,0.0-2.0-0.26-0.238-3.238,0,0,1,68,false,stim,false,0,1664,2,0,0,75720,task3,641704,false,false,793,image-keyboard-response,19
true,11,2,1,2,true,d,false,false,0.0-2.0-0.26-0.239-3.239,0,0,1,68,false,stim,false,2,630,2,1,2,75720,task3,643851,false,true,796,image-keyboard-response,20
true,11,1,1,1,true,z,false,true,0.0-2.0-0.26-0.240-3.240,0,0,1,90,false,stim,false,0,759,2,0,1,75720,task3,646123,false,false,799,image-keyboard-response,21
true,11,1,1,1,true,z,false,true,0.0-2.0-0.26-0.241-3.241,0,0,1,90,false,stim,false,0,836,2,0,1,75720,task3,648499,false,false,802,image-keyboard-response,22
true,11,2,1,2,true,d,false,true,0.0-2.0-0.26-0.242-3.242,0,0,1,68,false,stim,false,2,1052,2,1,2,75720,task3,651065,false,false,805,image-keyboard-response,23
true,11,2,1,2,true,d,false,false,0.0-2.0-0.27-0.243-3.243,0,0,1,68,false,stim,false,2,425,2,1,2,75720,task3,653008,false,true,808,image-keyboard-response,24
true,11,1,1,1,true,z,false,true,0.0-2.0-0.27-0.244-3.244,0,0,1,90,false,stim,false,0,785,2,0,1,75720,task3,655308,false,false,811,image-keyboard-response,25
true,12,1,1,2,false,d,true,false,0.0-2.0-0.27-0.245-3.245,0,0,1,90,true,stim,false,2,586,2,1,2,75720,task3,657417,false,false,814,image-keyboard-response,1
true,12,2,1,1,false,z,false,true,0.0-2.0-0.27-0.246-3.246,0,0,1,68,false,stim,true,2,420,2,0,0,75720,task3,659349,false,true,817,image-keyboard-response,2
true,12,1,1,2,false,d,false,false,0.0-2.0-0.27-0.247-3.247,0,0,1,90,false,stim,true,1,667,2,0,1,75720,task3,661545,false,false,820,image-keyboard-response,3
true,12,2,1,1,false,z,false,false,0.0-2.0-0.27-0.248-3.248,0,0,1,68,false,stim,true,2,949,2,0,0,75720,task3,664014,false,false,823,image-keyboard-response,4
true,12,2,1,1,false,z,false,false,0.0-2.0-0.27-0.249-3.249,0,0,1,68,false,stim,true,2,767,2,0,0,75720,task3,666311,false,false,826,image-keyboard-response,5
true,12,2,1,2,true,d,false,true,0.0-2.0-0.27-0.250-3.250,0,0,1,68,false,stim,false,1,1645,2,0,1,75720,task3,669477,false,false,829,image-keyboard-response,6
true,12,1,1,2,false,d,true,false,0.0-2.0-0.27-0.251-3.251,0,0,1,90,false,stim,false,2,791,2,1,2,75720,task3,671787,false,false,832,image-keyboard-response,7
true,12,2,1,2,true,d,false,true,0.0-2.0-0.28-0.252-3.252,0,0,1,68,false,stim,false,1,472,2,0,1,75720,task3,673775,false,false,835,image-keyboard-response,8
true,12,0,1,1,false,z,true,false,0.0-2.0-0.28-0.253-3.253,0,0,1,81,false,stim,false,2,887,2,0,0,75720,task3,676187,false,false,838,image-keyboard-response,9
true,12,0,1,2,false,d,true,true,0.0-2.0-0.28-0.254-3.254,0,0,1,81,false,stim,false,2,965,2,1,2,75720,task3,678675,false,true,841,image-keyboard-response,10
true,12,2,1,2,true,d,false,true,0.0-2.0-0.28-0.255-3.255,0,0,1,68,false,stim,false,1,1163,2,0,1,75720,task3,681367,false,false,844,image-keyboard-response,11
true,12,1,1,1,true,z,false,true,0.0-2.0-0.28-0.256-3.256,0,0,1,90,false,stim,false,2,1236,2,0,0,75720,task3,684126,false,false,847,image-keyboard-response,12
true,12,2,1,2,true,d,false,true,0.0-2.0-0.28-0.257-3.257,0,0,1,68,false,stim,false,1,721,2,0,1,75720,task3,686367,false,false,850,image-keyboard-response,13
true,12,1,1,1,true,z,false,true,0.0-2.0-0.28-0.258-3.258,0,0,1,90,false,stim,false,2,974,2,0,0,75720,task3,688864,false,false,853,image-keyboard-response,14
true,12,0,1,2,false,d,true,false,0.0-2.0-0.28-0.259-3.259,0,0,1,81,false,stim,false,2,745,2,1,2,75720,task3,691122,false,false,856,image-keyboard-response,15
true,12,1,1,2,false,d,true,false,0.0-2.0-0.28-0.260-3.260,0,0,1,90,false,stim,false,2,1625,2,1,2,75720,task3,694265,false,false,859,image-keyboard-response,16
true,12,0,1,2,false,d,true,false,0.0-2.0-0.29-0.261-3.261,0,0,1,81,false,stim,false,2,791,2,1,2,75720,task3,696578,false,false,862,image-keyboard-response,17
true,12,2,1,2,true,d,false,true,0.0-2.0-0.29-0.262-3.262,0,0,1,68,false,stim,false,1,1302,2,0,1,75720,task3,699400,false,false,865,image-keyboard-response,18
true,12,2,1,2,true,d,false,true,0.0-2.0-0.29-0.263-3.263,0,0,1,68,false,stim,false,2,410,2,0,2,75720,task3,701334,false,false,868,image-keyboard-response,19
true,12,2,1,2,true,d,false,true,0.0-2.0-0.29-0.264-3.264,0,0,1,68,false,stim,false,2,582,2,0,2,75720,task3,703434,false,false,871,image-keyboard-response,20
true,12,2,1,2,true,d,false,true,0.0-2.0-0.29-0.265-3.265,0,0,1,68,false,stim,false,1,1475,2,0,1,75720,task3,706420,false,false,874,image-keyboard-response,21
true,12,1,1,1,true,z,false,true,0.0-2.0-0.29-0.266-3.266,0,0,1,90,false,stim,false,2,1063,2,1,0,75720,task3,709019,false,false,877,image-keyboard-response,22
true,12,2,1,2,true,d,false,true,0.0-2.0-0.29-0.267-3.267,0,0,1,68,false,stim,false,1,617,2,0,1,75720,task3,711160,false,false,880,image-keyboard-response,23
true,13,1,1,1,true,z,false,true,0.0-2.0-0.29-0.268-3.268,1,0,0,90,true,stim,false,1,794,2,1,0,75720,task3,713480,false,false,883,image-keyboard-response,1
true,13,1,1,1,true,z,false,false,0.0-2.0-0.29-0.269-3.269,1,0,0,90,false,stim,false,1,548,2,1,0,75720,task3,715540,false,true,886,image-keyboard-response,2
true,13,2,1,0,false,q,false,false,0.0-2.0-0.30-0.270-3.270,1,0,0,68,false,stim,true,2,825,2,0,1,75720,task3,717889,false,false,889,image-keyboard-response,3
true,13,1,1,1,true,z,false,true,0.0-2.0-0.30-0.271-3.271,1,0,0,90,false,stim,false,1,484,2,1,0,75720,task3,719899,false,false,892,image-keyboard-response,4
true,13,2,1,1,false,z,false,true,0.0-2.0-0.30-0.272-3.272,1,0,0,68,false,stim,true,2,618,2,0,2,75720,task3,722044,false,true,895,image-keyboard-response,5
true,13,2,1,0,false,q,false,false,0.0-2.0-0.30-0.273-3.273,1,0,0,68,false,stim,true,2,1552,2,0,1,75720,task3,725106,false,false,898,image-keyboard-response,6
true,13,1,1,1,true,z,false,true,0.0-2.0-0.30-0.274-3.274,1,0,0,90,false,stim,false,1,471,2,1,0,75720,task3,727121,false,false,901,image-keyboard-response,7
true,13,2,1,0,false,q,false,false,0.0-2.0-0.30-0.275-3.275,1,0,0,68,false,stim,true,2,511,2,0,1,75720,task3,729155,false,false,904,image-keyboard-response,8
true,13,2,1,1,false,z,false,false,0.0-2.0-0.30-0.276-3.276,1,0,0,68,false,stim,true,2,1050,2,0,2,75720,task3,731717,false,false,907,image-keyboard-response,9
true,13,1,1,1,true,z,false,true,0.0-2.0-0.30-0.277-3.277,1,0,0,90,false,stim,false,2,989,2,0,2,75720,task3,734225,false,false,910,image-keyboard-response,10
true,13,1,1,1,true,z,false,true,0.0-2.0-0.30-0.278-3.278,1,0,0,90,false,stim,false,1,424,2,1,0,75720,task3,736170,false,false,913,image-keyboard-response,11
true,13,1,1,1,true,z,false,true,0.0-2.0-0.31-0.279-3.279,1,0,0,90,false,stim,false,2,558,2,0,2,75720,task3,738254,false,false,916,image-keyboard-response,12
true,13,0,1,0,true,q,false,true,0.0-2.0-0.31-0.280-3.280,1,0,0,81,false,stim,false,2,848,2,0,1,75720,task3,740633,false,false,919,image-keyboard-response,13
true,13,1,1,1,true,z,false,true,0.0-2.0-0.31-0.281-3.281,1,0,0,90,false,stim,false,1,818,2,1,0,75720,task3,742964,false,false,922,image-keyboard-response,14
true,13,1,1,1,true,z,false,true,0.0-2.0-0.31-0.282-3.282,1,0,0,90,false,stim,false,2,1070,2,0,2,75720,task3,745560,false,false,925,image-keyboard-response,15
true,13,1,1,1,true,z,false,true,0.0-2.0-0.31-0.283-3.283,1,0,0,90,false,stim,false,2,562,2,0,2,75720,task3,747656,false,false,928,image-keyboard-response,16
true,13,1,1,1,true,z,false,true,0.0-2.0-0.31-0.284-3.284,1,0,0,90,false,stim,false,1,894,2,1,0,75720,task3,750058,false,false,931,image-keyboard-response,17
true,13,0,1,0,true,q,false,true,0.0-2.0-0.31-0.285-3.285,1,0,0,81,false,stim,false,2,610,2,1,1,75720,task3,752182,false,false,934,image-keyboard-response,18
true,13,1,1,1,true,z,false,true,0.0-2.0-0.31-0.286-3.286,1,0,0,90,false,stim,false,1,831,2,0,0,75720,task3,754538,false,false,937,image-keyboard-response,19
true,13,0,1,0,true,q,false,true,0.0-2.0-0.31-0.287-3.287,1,0,0,81,false,stim,false,2,550,2,1,1,75720,task3,756610,false,false,940,image-keyboard-response,20
true,13,1,1,1,true,z,false,true,0.0-2.0-0.32-0.288-3.288,1,0,0,90,false,stim,false,2,709,2,0,2,75720,task3,758843,false,false,943,image-keyboard-response,21
true,13,0,1,0,true,q,false,true,0.0-2.0-0.32-0.289-3.289,1,0,0,81,false,stim,false,2,519,2,1,1,75720,task3,760887,false,false,946,image-keyboard-response,22
true,14,1,1,0,false,q,false,false,0.0-2.0-0.32-0.290-3.290,0,1,0,90,true,stim,true,1,649,2,0,2,75720,task3,763054,false,false,949,image-keyboard-response,1
true,14,1,1,0,false,q,false,false,0.0-2.0-0.32-0.291-3.291,0,1,0,90,false,stim,true,1,1247,2,0,2,75720,task3,765815,false,false,952,image-keyboard-response,2
true,14,1,1,2,false,d,false,false,0.0-2.0-0.32-0.292-3.292,0,1,0,90,false,stim,true,1,1467,2,0,0,75720,task3,768809,false,false,955,image-keyboard-response,3
true,14,0,1,2,false,d,true,false,0.0-2.0-0.32-0.293-3.293,0,1,0,81,false,stim,false,1,1058,2,0,0,75720,task3,771392,false,false,958,image-keyboard-response,4
true,14,0,1,0,true,q,false,true,0.0-2.0-0.32-0.294-3.294,0,1,0,81,false,stim,false,0,859,2,1,1,75720,task3,773769,false,false,961,image-keyboard-response,5
true,14,2,1,2,true,d,false,true,0.0-2.0-0.32-0.295-3.295,0,1,0,68,false,stim,false,1,478,2,0,0,75720,task3,775780,false,false,964,image-keyboard-response,6
true,14,0,1,0,true,q,false,true,0.0-2.0-0.32-0.296-3.296,0,1,0,81,false,stim,false,0,647,2,1,1,75720,task3,777941,false,false,967,image-keyboard-response,7
true,14,0,1,0,true,q,false,true,0.0-2.0-0.33-0.297-3.297,0,1,0,81,false,stim,false,1,837,2,0,2,75720,task3,780289,false,false,970,image-keyboard-response,8
true,14,0,1,0,true,q,false,true,0.0-2.0-0.33-0.298-3.298,0,1,0,81,false,stim,false,0,652,2,1,1,75720,task3,782462,false,false,973,image-keyboard-response,9
true,14,2,1,2,true,d,false,true,0.0-2.0-0.33-0.299-3.299,0,1,0,68,false,stim,false,1,621,2,0,0,75720,task3,784604,false,false,976,image-keyboard-response,10
true,14,0,1,0,true,q,false,true,0.0-2.0-0.33-0.300-3.300,0,1,0,81,false,stim,false,0,545,2,1,1,75720,task3,786671,false,false,979,image-keyboard-response,11
true,14,0,1,0,true,q,false,true,0.0-2.0-0.33-0.301-3.301,0,1,0,81,false,stim,false,0,475,2,1,1,75720,task3,788675,false,false,982,image-keyboard-response,12
true,14,0,1,0,true,q,false,true,0.0-2.0-0.33-0.302-3.302,0,1,0,81,false,stim,false,1,804,2,0,2,75720,task3,791014,false,false,985,image-keyboard-response,13
true,14,0,1,0,true,q,false,true,0.0-2.0-0.33-0.303-3.303,0,1,0,81,false,stim,false,1,801,2,0,2,75720,task3,793336,false,false,988,image-keyboard-response,14
true,14,2,1,2,true,d,false,true,0.0-2.0-0.33-0.304-3.304,0,1,0,68,false,stim,false,1,454,2,0,0,75720,task3,795303,false,false,991,image-keyboard-response,15
true,14,2,1,2,true,d,false,true,0.0-2.0-0.33-0.305-3.305,0,1,0,68,false,stim,false,1,1394,2,0,0,75720,task3,798220,false,false,994,image-keyboard-response,16
true,14,2,1,2,true,d,false,true,0.0-2.0-0.34-0.306-3.306,0,1,0,68,false,stim,false,1,1442,2,0,0,75720,task3,801200,false,false,997,image-keyboard-response,17
true,14,0,1,0,true,q,false,false,0.0-2.0-0.34-0.307-3.307,0,1,0,81,false,stim,false,1,846,2,0,2,75720,task3,803570,false,true,1000,image-keyboard-response,18
true,14,0,1,0,true,q,false,true,0.0-2.0-0.34-0.308-3.308,0,1,0,81,false,stim,false,1,356,2,0,2,75720,task3,805465,false,false,1003,image-keyboard-response,19
true,14,0,1,0,true,q,false,true,0.0-2.0-0.34-0.309-3.309,0,1,0,81,false,stim,false,0,1179,2,1,1,75720,task3,808162,false,false,1006,image-keyboard-response,20
true,14,0,1,0,true,q,false,true,0.0-2.0-0.34-0.310-3.310,0,1,0,81,false,stim,false,0,645,2,1,1,75720,task3,810325,false,false,1009,image-keyboard-response,21
true,14,2,1,2,true,d,false,true,0.0-2.0-0.34-0.311-3.311,0,1,0,68,false,stim,false,1,844,2,1,0,75720,task3,812700,false,false,1012,image-keyboard-response,22
true,14,2,1,2,true,d,false,true,0.0-2.0-0.34-0.312-3.312,0,1,0,68,false,stim,false,1,640,2,1,0,75720,task3,814866,false,false,1015,image-keyboard-response,23
true,14,0,1,0,true,q,false,true,0.0-2.0-0.34-0.313-3.313,0,1,0,81,false,stim,false,0,549,2,1,1,75720,task3,816947,false,false,1018,image-keyboard-response,24
true,15,0,2,2,false,d,false,false,0.0-2.0-0.34-0.314-3.314,1,1,0,81,true,stim,true,0,795,2,0,2,75720,task3,819279,false,false,1021,image-keyboard-response,1
true,15,2,2,2,true,d,false,true,0.0-2.0-0.35-0.315-3.315,1,1,0,68,false,stim,false,2,1306,2,1,0,75720,task3,822113,false,false,1024,image-keyboard-response,2
true,15,0,2,0,true,q,false,true,0.0-2.0-0.35-0.316-3.316,1,1,0,81,false,stim,false,0,866,2,1,1,75720,task3,824497,false,false,1027,image-keyboard-response,3
true,15,1,2,2,false,d,true,false,0.0-2.0-0.35-0.317-3.317,1,1,0,90,false,stim,false,0,444,2,0,2,75720,task3,826454,false,false,1030,image-keyboard-response,4
true,15,2,2,2,true,d,false,true,0.0-2.0-0.35-0.318-3.318,1,1,0,68,false,stim,false,2,773,2,1,0,75720,task3,828749,false,false,1033,image-keyboard-response,5
true,15,2,2,2,true,d,false,true,0.0-2.0-0.35-0.319-3.319,1,1,0,68,false,stim,false,0,385,2,0,2,75720,task3,830653,false,false,1036,image-keyboard-response,6
true,15,0,2,0,true,q,false,true,0.0-2.0-0.35-0.320-3.320,1,1,0,81,false,stim,false,0,731,2,1,1,75720,task3,832905,false,false,1039,image-keyboard-response,7
true,15,2,2,2,true,d,false,true,0.0-2.0-0.35-0.321-3.321,1,1,0,68,false,stim,false,0,695,2,0,2,75720,task3,835123,false,false,1042,image-keyboard-response,8
true,15,0,2,0,true,q,false,true,0.0-2.0-0.35-0.322-3.322,1,1,0,81,false,stim,false,0,1107,2,1,1,75720,task3,837746,false,false,1045,image-keyboard-response,9
true,15,2,2,2,true,d,false,true,0.0-2.0-0.35-0.323-3.323,1,1,0,68,false,stim,false,2,598,2,1,0,75720,task3,839866,false,false,1048,image-keyboard-response,10
true,15,2,2,2,true,d,false,false,0.0-2.0-0.36-0.324-3.324,1,1,0,68,false,stim,false,2,1190,2,1,0,75720,task3,842576,false,true,1051,image-keyboard-response,11
true,15,2,2,2,true,d,false,true,0.0-2.0-0.36-0.325-3.325,1,1,0,68,false,stim,false,2,543,2,1,0,75720,task3,844630,false,false,1054,image-keyboard-response,12
true,15,2,2,2,true,d,false,true,0.0-2.0-0.36-0.326-3.326,1,1,0,68,false,stim,false,0,1846,2,0,2,75720,task3,848006,false,false,1057,image-keyboard-response,13
true,15,2,2,2,true,d,false,true,0.0-2.0-0.36-0.327-3.327,1,1,0,68,false,stim,false,2,872,2,1,0,75720,task3,850406,false,false,1060,image-keyboard-response,14
true,15,2,2,2,true,d,false,true,0.0-2.0-0.36-0.328-3.328,1,1,0,68,false,stim,false,0,502,2,0,2,75720,task3,852430,false,false,1063,image-keyboard-response,15
true,15,0,2,0,true,q,false,true,0.0-2.0-0.36-0.329-3.329,1,1,0,81,false,stim,false,0,492,2,1,1,75720,task3,854433,false,false,1066,image-keyboard-response,16
true,15,0,2,0,true,q,false,true,0.0-2.0-0.36-0.330-3.330,1,1,0,81,false,stim,false,0,603,2,1,1,75720,task3,856550,false,false,1069,image-keyboard-response,17
true,15,2,2,2,true,d,false,true,0.0-2.0-0.36-0.331-3.331,1,1,0,68,false,stim,false,0,757,2,0,2,75720,task3,858839,false,false,1072,image-keyboard-response,18
true,15,0,2,0,true,q,false,true,0.0-2.0-0.36-0.332-3.332,1,1,0,81,false,stim,false,0,767,2,1,1,75720,task3,861119,false,false,1075,image-keyboard-response,19
true,15,0,2,0,true,q,false,true,0.0-2.0-0.37-0.333-3.333,1,1,0,81,false,stim,false,0,501,2,1,1,75720,task3,863135,false,false,1078,image-keyboard-response,20
true,15,0,2,0,true,q,false,true,0.0-2.0-0.37-0.334-3.334,1,1,0,81,false,stim,false,0,470,2,1,1,75720,task3,865121,false,false,1081,image-keyboard-response,21
true,15,2,2,2,true,d,false,true,0.0-2.0-0.37-0.335-3.335,1,1,0,68,false,stim,false,2,839,2,0,0,75720,task3,867476,false,false,1084,image-keyboard-response,22
true,15,2,2,2,true,d,false,true,0.0-2.0-0.37-0.336-3.336,1,1,0,68,false,stim,false,2,833,2,0,0,75720,task3,869820,false,false,1087,image-keyboard-response,23
true,16,0,1,0,true,q,false,false,0.0-2.0-0.37-0.337-3.337,0,1,0,81,true,stim,false,0,645,2,1,1,75720,task3,871992,false,true,1090,image-keyboard-response,1
true,16,2,1,0,false,q,false,false,0.0-2.0-0.37-0.338-3.338,0,1,0,68,false,stim,true,2,849,2,0,0,75720,task3,874366,false,false,1093,image-keyboard-response,2
true,16,2,1,1,false,z,false,false,0.0-2.0-0.37-0.339-3.339,0,1,0,68,false,stim,true,2,1124,2,0,2,75720,task3,877024,false,false,1096,image-keyboard-response,3
true,16,2,1,1,false,z,false,false,0.0-2.0-0.37-0.340-3.340,0,1,0,68,false,stim,true,2,1572,2,0,2,75720,task3,880118,false,false,1099,image-keyboard-response,4
true,16,1,1,1,true,z,false,true,0.0-2.0-0.37-0.341-3.341,0,1,0,90,false,stim,false,2,530,2,0,2,75720,task3,882181,false,false,1102,image-keyboard-response,5
true,16,0,1,0,true,q,false,true,0.0-2.0-0.38-0.342-3.342,0,1,0,81,false,stim,false,0,1157,2,1,1,75720,task3,884858,false,false,1105,image-keyboard-response,6
true,16,0,1,0,true,q,false,true,0.0-2.0-0.38-0.343-3.343,0,1,0,81,false,stim,false,0,880,2,1,1,75720,task3,887261,false,false,1108,image-keyboard-response,7
true,16,1,1,1,true,z,false,true,0.0-2.0-0.38-0.344-3.344,0,1,0,90,false,stim,false,2,1258,2,0,2,75720,task3,890046,false,false,1111,image-keyboard-response,8
true,16,0,1,0,true,q,false,true,0.0-2.0-0.38-0.345-3.345,0,1,0,81,false,stim,false,2,504,2,0,0,75720,task3,892068,false,false,1114,image-keyboard-response,9
true,16,0,1,0,true,q,false,false,0.0-2.0-0.38-0.346-3.346,0,1,0,81,false,stim,false,0,817,2,1,1,75720,task3,894418,false,true,1117,image-keyboard-response,10
true,16,0,1,0,true,q,false,true,0.0-2.0-0.38-0.347-3.347,0,1,0,81,false,stim,false,2,1119,2,0,0,75720,task3,897054,false,false,1120,image-keyboard-response,11
true,16,0,1,0,true,q,false,true,0.0-2.0-0.38-0.348-3.348,0,1,0,81,false,stim,false,2,639,2,0,0,75720,task3,899221,false,false,1123,image-keyboard-response,12
true,16,1,1,1,true,z,false,true,0.0-2.0-0.38-0.349-3.349,0,1,0,90,false,stim,false,2,671,2,0,2,75720,task3,901418,false,false,1126,image-keyboard-response,13
true,16,1,1,1,true,z,false,true,0.0-2.0-0.38-0.350-3.350,0,1,0,90,false,stim,false,2,835,2,0,2,75720,task3,903775,false,false,1129,image-keyboard-response,14
true,16,0,1,0,true,q,false,true,0.0-2.0-0.39-0.351-3.351,0,1,0,81,false,stim,false,0,793,2,1,1,75720,task3,906101,false,false,1132,image-keyboard-response,15
true,16,0,1,0,true,q,false,true,0.0-2.0-0.39-0.352-3.352,0,1,0,81,false,stim,false,0,546,2,1,1,75720,task3,908177,false,false,1135,image-keyboard-response,16
true,16,1,1,1,true,z,false,false,0.0-2.0-0.39-0.353-3.353,0,1,0,90,false,stim,false,2,557,2,0,2,75720,task3,910243,false,true,1138,image-keyboard-response,17
true,16,0,1,0,true,q,false,true,0.0-2.0-0.39-0.354-3.354,0,1,0,81,false,stim,false,2,749,2,0,0,75720,task3,912514,false,false,1141,image-keyboard-response,18
true,16,2,1,1,false,z,false,false,0.0-2.0-0.39-0.355-3.355,0,1,0,68,false,stim,true,2,1219,2,0,2,75720,task3,915257,false,false,1144,image-keyboard-response,19
true,16,0,1,0,true,q,false,true,0.0-2.0-0.39-0.356-3.356,0,1,0,81,false,stim,false,0,795,2,1,1,75720,task3,917567,false,false,1147,image-keyboard-response,20
true,16,0,1,0,true,q,false,true,0.0-2.0-0.39-0.357-3.357,0,1,0,81,false,stim,false,2,714,2,0,0,75720,task3,919795,false,false,1150,image-keyboard-response,21
true,16,0,1,0,true,q,false,true,0.0-2.0-0.39-0.358-3.358,0,1,0,81,false,stim,false,2,665,2,0,0,75720,task3,921980,false,false,1153,image-keyboard-response,22
true,16,1,1,1,true,z,false,true,0.0-2.0-0.39-0.359-3.359,0,1,0,90,false,stim,false,2,440,2,1,2,75720,task3,923939,false,false,1156,image-keyboard-response,23
true,16,1,1,1,true,z,false,false,0.0-2.0-0.40-0.360-3.360,0,1,0,90,false,stim,false,2,638,2,1,2,75720,task3,926092,false,true,1159,image-keyboard-response,24
true,16,0,1,0,true,q,false,true,0.0-2.0-0.40-0.361-3.361,0,1,0,81,false,stim,false,2,741,2,0,0,75720,task3,928347,false,false,1162,image-keyboard-response,25
true,16,1,1,1,true,z,false,true,0.0-2.0-0.40-0.362-3.362,0,1,0,90,false,stim,false,2,548,2,1,2,75720,task3,930414,false,false,1165,image-keyboard-response,26
true,17,0,2,2,false,d,false,true,0.0-2.0-0.40-0.363-3.363,0,1,1,81,true,stim,true,0,894,2,0,0,75720,task3,932834,false,true,1168,image-keyboard-response,1
true,17,1,2,1,true,z,false,true,0.0-2.0-0.40-0.364-3.364,0,1,1,90,false,stim,false,1,498,2,1,2,75720,task3,934855,false,false,1171,image-keyboard-response,2
true,17,0,2,2,false,d,false,false,0.0-2.0-0.40-0.365-3.365,0,1,1,81,false,stim,true,0,638,2,0,0,75720,task3,937019,false,false,1174,image-keyboard-response,3
true,17,0,2,0,true,q,false,true,0.0-2.0-0.40-0.366-3.366,0,1,1,81,false,stim,false,0,945,2,1,1,75720,task3,939480,false,false,1177,image-keyboard-response,4
true,17,0,2,0,true,q,false,true,0.0-2.0-0.40-0.367-3.367,0,1,1,81,false,stim,false,0,769,2,1,1,75720,task3,941779,false,false,1180,image-keyboard-response,5
true,17,0,2,0,true,q,false,true,0.0-2.0-0.40-0.368-3.368,0,1,1,81,false,stim,false,0,588,2,1,1,75720,task3,943891,false,false,1183,image-keyboard-response,6
true,17,0,2,0,true,q,false,true,0.0-2.0-0.41-0.369-3.369,0,1,1,81,false,stim,false,0,659,2,1,1,75720,task3,946075,false,false,1186,image-keyboard-response,7
true,17,0,2,2,false,d,false,false,0.0-2.0-0.41-0.370-3.370,0,1,1,81,false,stim,true,0,836,2,0,0,75720,task3,948436,false,false,1189,image-keyboard-response,8
true,17,1,2,1,true,z,false,true,0.0-2.0-0.41-0.371-3.371,0,1,1,90,false,stim,false,1,512,2,1,2,75720,task3,950478,false,false,1192,image-keyboard-response,9
true,17,1,2,1,true,z,false,true,0.0-2.0-0.41-0.372-3.372,0,1,1,90,false,stim,false,1,670,2,0,2,75720,task3,952672,false,false,1195,image-keyboard-response,10
true,17,0,2,0,true,q,false,true,0.0-2.0-0.41-0.373-3.373,0,1,1,81,false,stim,false,0,549,2,0,1,75720,task3,954735,false,false,1198,image-keyboard-response,11
true,17,1,2,2,false,d,true,false,0.0-2.0-0.41-0.374-3.374,0,1,1,90,false,stim,false,0,465,2,1,0,75720,task3,956746,false,false,1201,image-keyboard-response,12
true,17,0,2,0,true,q,false,true,0.0-2.0-0.41-0.375-3.375,0,1,1,81,false,stim,false,0,904,2,0,1,75720,task3,959176,false,false,1204,image-keyboard-response,13
true,17,1,2,1,true,z,false,true,0.0-2.0-0.41-0.376-3.376,0,1,1,90,false,stim,false,1,568,2,0,2,75720,task3,961269,false,false,1207,image-keyboard-response,14
true,18,2,1,2,true,d,false,true,0.0-2.0-0.41-0.377-3.377,1,0,0,68,true,stim,false,2,346,2,1,0,75720,task3,963132,false,false,1210,image-keyboard-response,1
true,18,0,1,2,false,d,false,false,0.0-2.0-0.42-0.378-3.378,1,0,0,81,false,stim,true,0,1285,2,0,1,75720,task3,965943,false,false,1213,image-keyboard-response,2
true,18,2,1,2,true,d,false,true,0.0-2.0-0.42-0.379-3.379,1,0,0,68,false,stim,false,2,1277,2,1,0,75720,task3,968737,false,false,1216,image-keyboard-response,3
true,18,1,1,0,false,q,false,false,0.0-2.0-0.42-0.380-3.380,1,0,0,90,false,stim,true,1,633,2,0,2,75720,task3,970890,false,false,1219,image-keyboard-response,4
true,18,2,1,2,true,d,false,true,0.0-2.0-0.42-0.381-3.381,1,0,0,68,false,stim,false,2,1430,2,1,0,75720,task3,973853,false,false,1222,image-keyboard-response,5
true,18,2,1,0,false,q,true,false,0.0-2.0-0.42-0.382-3.382,1,0,0,68,false,stim,false,1,975,2,0,2,75720,task3,976354,false,false,1225,image-keyboard-response,6
true,18,0,1,0,true,q,false,true,0.0-2.0-0.42-0.383-3.383,1,0,0,81,false,stim,false,1,588,2,0,2,75720,task3,978467,false,false,1228,image-keyboard-response,7
true,18,2,1,2,true,d,false,true,0.0-2.0-0.42-0.384-3.384,1,0,0,68,false,stim,false,2,466,2,1,0,75720,task3,980459,false,false,1231,image-keyboard-response,8
true,18,0,1,2,false,d,false,false,0.0-2.0-0.42-0.385-3.385,1,0,0,81,false,stim,true,0,1095,2,0,1,75720,task3,983085,false,false,1234,image-keyboard-response,9
true,18,1,1,2,false,d,true,true,0.0-2.0-0.42-0.386-3.386,1,0,0,90,false,stim,false,0,637,2,1,1,75720,task3,985253,false,true,1237,image-keyboard-response,10
true,18,0,1,0,true,q,false,true,0.0-2.0-0.43-0.387-3.387,1,0,0,81,false,stim,false,1,913,2,1,2,75720,task3,987691,false,false,1240,image-keyboard-response,11
true,18,2,1,2,true,d,false,true,0.0-2.0-0.43-0.388-3.388,1,0,0,68,false,stim,false,2,690,2,0,0,75720,task3,989911,false,false,1243,image-keyboard-response,12
true,18,1,1,2,false,d,true,false,0.0-2.0-0.43-0.389-3.389,1,0,0,90,false,stim,false,0,785,2,1,1,75720,task3,992219,false,false,1246,image-keyboard-response,13
true,18,1,1,2,false,d,true,false,0.0-2.0-0.43-0.390-3.390,1,0,0,90,false,stim,false,0,396,2,1,1,75720,task3,994143,false,false,1249,image-keyboard-response,14
true,19,0,2,0,true,q,false,true,0.0-2.0-0.43-0.391-3.391,0,1,1,81,true,stim,false,0,739,2,1,2,75720,task3,996403,false,false,1252,image-keyboard-response,1
true,19,2,2,1,false,z,false,false,0.0-2.0-0.43-0.392-3.392,0,1,1,68,false,stim,true,2,898,2,0,0,75720,task3,998829,false,false,1255,image-keyboard-response,2
true,19,2,2,1,false,z,false,false,0.0-2.0-0.43-0.393-3.393,0,1,1,68,false,stim,true,2,981,2,0,0,75720,task3,1001331,false,false,1258,image-keyboard-response,3
true,19,0,2,2,false,d,true,false,0.0-2.0-0.43-0.394-3.394,0,1,1,81,false,stim,false,2,574,2,1,1,75720,task3,1003426,false,false,1261,image-keyboard-response,4
true,19,0,2,0,true,q,false,true,0.0-2.0-0.43-0.395-3.395,0,1,1,81,false,stim,false,0,858,2,1,2,75720,task3,1005820,false,false,1264,image-keyboard-response,5
true,19,2,2,1,false,z,false,false,0.0-2.0-0.44-0.396-3.396,0,1,1,68,false,stim,true,2,1505,2,0,0,75720,task3,1008844,false,false,1267,image-keyboard-response,6
true,19,0,2,2,false,d,true,true,0.0-2.0-0.44-0.397-3.397,0,1,1,81,false,stim,false,2,583,2,1,1,75720,task3,1010952,false,true,1270,image-keyboard-response,7
true,19,0,2,0,true,q,false,true,0.0-2.0-0.44-0.398-3.398,0,1,1,81,false,stim,false,0,643,2,1,2,75720,task3,1013115,false,false,1273,image-keyboard-response,8
true,19,0,2,2,false,d,true,false,0.0-2.0-0.44-0.399-3.399,0,1,1,81,false,stim,false,2,920,2,1,1,75720,task3,1015561,false,false,1276,image-keyboard-response,9
true,19,1,2,1,true,z,false,true,0.0-2.0-0.44-0.400-3.400,0,1,1,90,false,stim,false,2,655,2,0,0,75720,task3,1017741,false,false,1279,image-keyboard-response,10
true,19,2,2,0,false,q,true,false,0.0-2.0-0.44-0.401-3.401,0,1,1,68,false,stim,false,0,1112,2,1,2,75720,task3,1020383,false,false,1282,image-keyboard-response,11
true,19,0,2,2,false,d,true,false,0.0-2.0-0.44-0.402-3.402,0,1,1,81,false,stim,false,2,1031,2,1,1,75720,task3,1022937,false,false,1285,image-keyboard-response,12
true,19,1,2,0,false,q,true,true,0.0-2.0-0.44-0.403-3.403,0,1,1,90,false,stim,false,0,686,2,1,2,75720,task3,1025157,false,true,1288,image-keyboard-response,13
true,19,1,2,1,true,z,false,true,0.0-2.0-0.44-0.404-3.404,0,1,1,90,false,stim,false,2,566,2,0,0,75720,task3,1027249,false,false,1291,image-keyboard-response,14
true,19,1,2,1,true,z,false,false,0.0-2.0-0.45-0.405-3.405,0,1,1,90,false,stim,false,2,1157,2,0,0,75720,task3,1029924,false,true,1294,image-keyboard-response,15
true,19,1,2,0,false,q,true,false,0.0-2.0-0.45-0.406-3.406,0,1,1,90,false,stim,false,0,765,2,1,2,75720,task3,1032202,false,false,1297,image-keyboard-response,16
true,19,2,2,0,false,q,true,false,0.0-2.0-0.45-0.407-3.407,0,1,1,68,false,stim,false,0,586,2,1,2,75720,task3,1034305,false,false,1300,image-keyboard-response,17
true,19,0,2,1,false,z,true,false,0.0-2.0-0.45-0.408-3.408,0,1,1,81,false,stim,false,2,784,2,0,0,75720,task3,1036640,false,false,1303,image-keyboard-response,18
true,19,0,2,2,false,d,true,false,0.0-2.0-0.45-0.409-3.409,0,1,1,81,false,stim,false,2,820,2,1,1,75720,task3,1038974,false,false,1306,image-keyboard-response,19
true,19,2,2,2,true,d,false,true,0.0-2.0-0.45-0.410-3.410,0,1,1,68,false,stim,false,2,477,2,0,1,75720,task3,1040977,false,false,1309,image-keyboard-response,20
true,19,2,2,0,false,q,true,true,0.0-2.0-0.45-0.411-3.411,0,1,1,68,false,stim,false,0,429,2,1,2,75720,task3,1042923,false,true,1312,image-keyboard-response,21
true,19,2,2,2,true,d,false,true,0.0-2.0-0.45-0.412-3.412,0,1,1,68,false,stim,false,2,610,2,0,1,75720,task3,1045055,false,false,1315,image-keyboard-response,22
true,19,0,2,1,false,z,true,false,0.0-2.0-0.45-0.413-3.413,0,1,1,81,false,stim,false,2,517,2,0,0,75720,task3,1047092,false,false,1318,image-keyboard-response,23
true,19,2,2,0,false,q,true,false,0.0-2.0-0.46-0.414-3.414,0,1,1,68,false,stim,false,0,672,2,1,2,75720,task3,1049301,false,false,1321,image-keyboard-response,24
true,20,2,1,1,false,z,false,false,0.0-2.0-0.46-0.415-3.415,0,0,1,68,true,stim,true,2,975,2,0,1,75720,task3,1051793,false,false,1324,image-keyboard-response,1
true,20,1,1,2,false,d,false,false,0.0-2.0-0.46-0.416-3.416,0,0,1,90,false,stim,true,1,625,2,0,0,75720,task3,1053936,false,false,1327,image-keyboard-response,2
true,20,1,1,0,false,q,true,false,0.0-2.0-0.46-0.417-3.417,0,0,1,90,false,stim,false,0,947,2,1,2,75720,task3,1056399,false,false,1330,image-keyboard-response,3
true,20,2,1,2,true,d,false,true,0.0-2.0-0.46-0.418-3.418,0,0,1,68,false,stim,false,1,637,2,0,0,75720,task3,1058562,false,false,1333,image-keyboard-response,4
true,20,0,1,1,false,z,true,false,0.0-2.0-0.46-0.419-3.419,0,0,1,81,false,stim,false,2,589,2,0,1,75720,task3,1060674,false,false,1336,image-keyboard-response,5
true,20,0,1,0,true,q,false,true,0.0-2.0-0.46-0.420-3.420,0,0,1,81,false,stim,false,0,528,2,1,2,75720,task3,1062738,false,false,1339,image-keyboard-response,6
true,20,2,1,2,true,d,false,true,0.0-2.0-0.46-0.421-3.421,0,0,1,68,false,stim,false,1,803,2,0,0,75720,task3,1065063,false,false,1342,image-keyboard-response,7
true,20,1,1,1,true,z,false,true,0.0-2.0-0.46-0.422-3.422,0,0,1,90,false,stim,false,2,742,2,0,1,75720,task3,1067328,false,false,1345,image-keyboard-response,8
true,20,2,1,2,true,d,false,true,0.0-2.0-0.47-0.423-3.423,0,0,1,68,false,stim,false,1,912,2,0,0,75720,task3,1069762,false,false,1348,image-keyboard-response,9
true,20,0,1,0,true,q,false,true,0.0-2.0-0.47-0.424-3.424,0,0,1,81,false,stim,false,0,815,2,1,2,75720,task3,1072105,false,false,1351,image-keyboard-response,10
true,20,1,1,2,false,d,false,false,0.0-2.0-0.47-0.425-3.425,0,0,1,90,false,stim,true,1,694,2,0,0,75720,task3,1074320,false,false,1354,image-keyboard-response,11
true,20,1,1,1,true,z,false,true,0.0-2.0-0.47-0.426-3.426,0,0,1,90,false,stim,false,2,1078,2,0,1,75720,task3,1076915,false,false,1357,image-keyboard-response,12
true,20,2,1,2,true,d,false,true,0.0-2.0-0.47-0.427-3.427,0,0,1,68,false,stim,false,1,739,2,0,0,75720,task3,1079173,false,false,1360,image-keyboard-response,13
true,20,0,1,0,true,q,false,true,0.0-2.0-0.47-0.428-3.428,0,0,1,81,false,stim,false,0,732,2,1,2,75720,task3,1081421,false,false,1363,image-keyboard-response,14
true,20,1,1,1,true,z,false,true,0.0-2.0-0.47-0.429-3.429,0,0,1,90,false,stim,false,2,693,2,0,1,75720,task3,1083634,false,false,1366,image-keyboard-response,15
true,20,0,1,0,true,q,false,true,0.0-2.0-0.47-0.430-3.430,0,0,1,81,false,stim,false,0,891,2,1,2,75720,task3,1086053,false,false,1369,image-keyboard-response,16
true,20,1,1,1,true,z,false,true,0.0-2.0-0.47-0.431-3.431,0,0,1,90,false,stim,false,2,1395,2,0,1,75720,task3,1088973,false,false,1372,image-keyboard-response,17
true,20,1,1,1,true,z,false,true,0.0-2.0-0.48-0.432-3.432,0,0,1,90,false,stim,false,2,781,2,0,1,75720,task3,1091277,false,false,1375,image-keyboard-response,18
true,20,2,1,2,true,d,false,true,0.0-2.0-0.48-0.433-3.433,0,0,1,68,false,stim,false,1,967,2,0,0,75720,task3,1093768,false,false,1378,image-keyboard-response,19
true,20,0,1,0,true,q,false,true,0.0-2.0-0.48-0.434-3.434,0,0,1,81,false,stim,false,0,847,2,1,2,75720,task3,1096135,false,false,1381,image-keyboard-response,20
true,20,1,1,1,true,z,false,true,0.0-2.0-0.48-0.435-3.435,0,0,1,90,false,stim,false,2,529,2,0,1,75720,task3,1098185,false,false,1384,image-keyboard-response,21
true,20,0,1,0,true,q,false,true,0.0-2.0-0.48-0.436-3.436,0,0,1,81,false,stim,false,0,915,2,1,2,75720,task3,1100624,false,false,1387,image-keyboard-response,22
true,20,2,1,2,true,d,false,true,0.0-2.0-0.48-0.437-3.437,0,0,1,68,false,stim,false,1,1185,2,0,0,75720,task3,1103332,false,false,1390,image-keyboard-response,23
true,20,0,1,0,true,q,false,true,0.0-2.0-0.48-0.438-3.438,0,0,1,81,false,stim,false,0,450,2,1,2,75720,task3,1105316,false,false,1393,image-keyboard-response,24
true,20,1,1,1,true,z,false,true,0.0-2.0-0.48-0.439-3.439,0,0,1,90,false,stim,false,2,449,2,1,1,75720,task3,1107289,false,false,1396,image-keyboard-response,25
true,20,2,1,2,true,d,false,true,0.0-2.0-0.48-0.440-3.440,0,0,1,68,false,stim,false,1,984,2,0,0,75720,task3,1109790,false,false,1399,image-keyboard-response,26
true,20,2,1,2,true,d,false,true,0.0-2.0-0.49-0.441-3.441,0,0,1,68,false,stim,false,1,617,2,0,0,75720,task3,1111961,false,false,1402,image-keyboard-response,27
true,21,1,2,1,true,z,false,true,0.0-2.0-0.49-0.442-3.442,0,1,1,90,true,stim,false,1,1347,2,1,1,75720,task3,1114837,false,false,1405,image-keyboard-response,1
true,21,0,2,0,true,q,false,true,0.0-2.0-0.49-0.443-3.443,0,1,1,81,false,stim,false,0,893,2,1,2,75720,task3,1117261,false,false,1408,image-keyboard-response,2
true,21,2,2,1,false,z,false,false,0.0-2.0-0.49-0.444-3.444,0,1,1,68,false,stim,true,2,1099,2,0,0,75720,task3,1119886,false,false,1411,image-keyboard-response,3
true,21,1,2,1,true,z,false,true,0.0-2.0-0.49-0.445-3.445,0,1,1,90,false,stim,false,1,1492,2,1,1,75720,task3,1122897,false,false,1414,image-keyboard-response,4
true,21,0,2,0,true,q,false,true,0.0-2.0-0.49-0.446-3.446,0,1,1,81,false,stim,false,0,964,2,1,2,75720,task3,1125388,false,false,1417,image-keyboard-response,5
true,21,1,2,1,true,z,false,true,0.0-2.0-0.49-0.447-3.447,0,1,1,90,false,stim,false,2,1161,2,0,0,75720,task3,1128074,false,false,1420,image-keyboard-response,6
true,21,0,2,0,true,q,false,true,0.0-2.0-0.49-0.448-3.448,0,1,1,81,false,stim,false,0,982,2,1,2,75720,task3,1130582,false,false,1423,image-keyboard-response,7
true,21,1,2,1,true,z,false,false,0.0-2.0-0.49-0.449-3.449,0,1,1,90,false,stim,false,1,576,2,1,1,75720,task3,1132679,false,true,1426,image-keyboard-response,8
true,21,1,2,1,true,z,false,true,0.0-2.0-0.50-0.450-3.450,0,1,1,90,false,stim,false,2,1009,2,0,0,75720,task3,1135219,false,false,1429,image-keyboard-response,9
true,21,1,2,1,true,z,false,true,0.0-2.0-0.50-0.451-3.451,0,1,1,90,false,stim,false,2,792,2,0,0,75720,task3,1137524,false,false,1432,image-keyboard-response,10
true,21,0,2,1,false,z,true,true,0.0-2.0-0.50-0.452-3.452,0,1,1,81,false,stim,false,1,573,2,1,1,75720,task3,1139620,false,true,1435,image-keyboard-response,11
true,21,0,2,0,true,q,false,true,0.0-2.0-0.50-0.453-3.453,0,1,1,81,false,stim,false,0,987,2,1,2,75720,task3,1142131,false,false,1438,image-keyboard-response,12
true,21,0,2,1,false,z,true,false,0.0-2.0-0.50-0.454-3.454,0,1,1,81,false,stim,false,1,1114,2,1,1,75720,task3,1144771,false,false,1441,image-keyboard-response,13
true,21,0,2,1,false,z,true,false,0.0-2.0-0.50-0.455-3.455,0,1,1,81,false,stim,false,1,432,2,1,1,75720,task3,1146734,false,false,1444,image-keyboard-response,14
true,21,1,2,1,true,z,false,true,0.0-2.0-0.50-0.456-3.456,0,1,1,90,false,stim,false,2,1073,2,0,0,75720,task3,1149331,false,false,1447,image-keyboard-response,15
true,21,0,2,0,true,q,false,true,0.0-2.0-0.50-0.457-3.457,0,1,1,81,false,stim,false,0,744,2,1,2,75720,task3,1151604,false,false,1450,image-keyboard-response,16
true,21,0,2,0,true,q,false,true,0.0-2.0-0.50-0.458-3.458,0,1,1,81,false,stim,false,0,896,2,1,2,75720,task3,1154031,false,false,1453,image-keyboard-response,17
true,21,1,2,1,true,z,false,true,0.0-2.0-0.51-0.459-3.459,0,1,1,90,false,stim,false,2,421,2,0,0,75720,task3,1155970,false,false,1456,image-keyboard-response,18
true,21,2,2,1,false,z,true,false,0.0-2.0-0.51-0.460-3.460,0,1,1,68,false,stim,false,1,531,2,1,1,75720,task3,1158030,false,false,1459,image-keyboard-response,19
true,21,0,2,0,true,q,false,false,0.0-2.0-0.51-0.461-3.461,0,1,1,81,false,stim,false,0,1027,2,1,2,75720,task3,1160594,false,true,1462,image-keyboard-response,20
true,21,0,2,0,true,q,false,false,0.0-2.0-0.51-0.462-3.462,0,1,1,81,false,stim,false,0,825,2,1,2,75720,task3,1162957,false,true,1465,image-keyboard-response,21
true,21,0,2,1,false,z,true,true,0.0-2.0-0.51-0.463-3.463,0,1,1,81,false,stim,false,1,663,2,1,1,75720,task3,1165154,false,true,1468,image-keyboard-response,22
true,21,2,2,0,false,q,true,false,0.0-2.0-0.51-0.464-3.464,0,1,1,68,false,stim,false,0,500,2,1,2,75720,task3,1167171,false,false,1471,image-keyboard-response,23
true,21,0,2,1,false,z,true,false,0.0-2.0-0.51-0.465-3.465,0,1,1,81,false,stim,false,1,971,2,1,1,75720,task3,1169662,false,false,1474,image-keyboard-response,24
true,21,0,2,1,false,z,true,false,0.0-2.0-0.51-0.466-3.466,0,1,1,81,false,stim,false,2,581,2,0,0,75720,task3,1171772,false,false,1477,image-keyboard-response,25
true,21,1,2,1,true,z,false,true,0.0-2.0-0.51-0.467-3.467,0,1,1,90,false,stim,false,2,542,2,0,0,75720,task3,1173844,false,false,1480,image-keyboard-response,26
true,21,1,2,0,false,q,true,false,0.0-2.0-0.52-0.468-3.468,0,1,1,90,false,stim,false,0,589,2,1,2,75720,task3,1175955,false,false,1483,image-keyboard-response,27
true,21,1,2,1,true,z,false,true,0.0-2.0-0.52-0.469-3.469,0,1,1,90,false,stim,false,2,534,2,0,0,75720,task3,1178009,false,false,1486,image-keyboard-response,28
true,22,1,2,0,false,q,false,true,0.0-2.0-0.52-0.470-3.470,0,1,1,90,true,stim,true,1,582,2,0,0,75720,task3,1180127,false,true,1489,image-keyboard-response,1
true,22,0,2,1,false,z,true,false,0.0-2.0-0.52-0.471-3.471,0,1,1,81,false,stim,false,1,714,2,1,1,75720,task3,1182372,false,false,1492,image-keyboard-response,2
true,22,2,2,1,false,z,true,false,0.0-2.0-0.52-0.472-3.472,0,1,1,68,false,stim,false,1,583,2,1,1,75720,task3,1184478,false,false,1495,image-keyboard-response,3
true,22,1,2,0,false,q,false,false,0.0-2.0-0.52-0.473-3.473,0,1,1,90,false,stim,true,1,696,2,0,0,75720,task3,1186699,false,false,1498,image-keyboard-response,4
true,22,1,2,1,true,z,false,true,0.0-2.0-0.52-0.474-3.474,0,1,1,90,false,stim,false,1,659,2,1,1,75720,task3,1188909,false,false,1501,image-keyboard-response,5
true,22,1,2,0,false,q,true,false,0.0-2.0-0.52-0.475-3.475,0,1,1,90,false,stim,false,0,739,2,1,2,75720,task3,1191172,false,false,1504,image-keyboard-response,6
true,22,2,2,0,false,q,true,false,0.0-2.0-0.52-0.476-3.476,0,1,1,68,false,stim,false,0,884,2,1,2,75720,task3,1193578,false,false,1507,image-keyboard-response,7
true,22,1,2,0,false,q,false,false,0.0-2.0-0.53-0.477-3.477,0,1,1,90,false,stim,true,1,581,2,1,0,75720,task3,1195691,false,false,1510,image-keyboard-response,8
true,22,1,2,1,true,z,false,true,0.0-2.0-0.53-0.478-3.478,0,1,1,90,false,stim,false,1,463,2,1,1,75720,task3,1197693,false,false,1513,image-keyboard-response,9
true,22,0,2,0,true,q,false,true,0.0-2.0-0.53-0.479-3.479,0,1,1,81,false,stim,false,0,471,2,0,2,75720,task3,1199684,false,false,1516,image-keyboard-response,10
true,22,0,2,0,true,q,false,true,0.0-2.0-0.53-0.480-3.480,0,1,1,81,false,stim,false,0,608,2,0,2,75720,task3,1201818,false,false,1519,image-keyboard-response,11
true,22,0,2,0,true,q,false,true,0.0-2.0-0.53-0.481-3.481,0,1,1,81,false,stim,false,0,649,2,0,2,75720,task3,1203981,false,false,1522,image-keyboard-response,12
true,23,1,2,1,true,z,false,true,0.0-2.0-0.53-0.482-3.482,1,1,0,90,true,stim,false,1,1833,2,1,1,75720,task3,1207350,false,false,1525,image-keyboard-response,1
true,23,1,2,1,true,z,false,true,0.0-2.0-0.53-0.483-3.483,1,1,0,90,false,stim,false,1,662,2,1,1,75720,task3,1209541,false,false,1528,image-keyboard-response,2
true,23,0,2,0,true,q,false,true,0.0-2.0-0.53-0.484-3.484,1,1,0,81,false,stim,false,0,1108,2,1,0,75720,task3,1212183,false,false,1531,image-keyboard-response,3
true,23,0,2,0,true,q,false,true,0.0-2.0-0.53-0.485-3.485,1,1,0,81,false,stim,false,0,928,2,1,0,75720,task3,1214635,false,false,1534,image-keyboard-response,4
true,23,0,2,0,true,q,false,false,0.0-2.0-0.54-0.486-3.486,1,1,0,81,false,stim,false,0,426,2,1,0,75720,task3,1216585,false,true,1537,image-keyboard-response,5
true,23,0,2,2,false,d,false,true,0.0-2.0-0.54-0.487-3.487,1,1,0,81,false,stim,true,0,954,2,0,2,75720,task3,1219076,false,true,1540,image-keyboard-response,6
true,23,0,2,0,true,q,false,true,0.0-2.0-0.54-0.488-3.488,1,1,0,81,false,stim,false,0,775,2,1,0,75720,task3,1221381,false,false,1543,image-keyboard-response,7
true,23,0,2,2,false,d,false,false,0.0-2.0-0.54-0.489-3.489,1,1,0,81,false,stim,true,0,553,2,0,2,75720,task3,1223449,false,false,1546,image-keyboard-response,8
true,23,1,2,1,true,z,false,true,0.0-2.0-0.54-0.490-3.490,1,1,0,90,false,stim,false,1,471,2,1,1,75720,task3,1225454,false,false,1549,image-keyboard-response,9
true,23,1,2,2,false,d,true,false,0.0-2.0-0.54-0.491-3.491,1,1,0,90,false,stim,false,0,497,2,0,2,75720,task3,1227480,false,false,1552,image-keyboard-response,10
true,23,1,2,1,true,z,false,true,0.0-2.0-0.54-0.492-3.492,1,1,0,90,false,stim,false,1,897,2,1,1,75720,task3,1229897,false,false,1555,image-keyboard-response,11
true,23,0,2,0,true,q,false,true,0.0-2.0-0.54-0.493-3.493,1,1,0,81,false,stim,false,0,903,2,1,0,75720,task3,1232321,false,false,1558,image-keyboard-response,12
true,23,1,2,1,true,z,false,true,0.0-2.0-0.54-0.494-3.494,1,1,0,90,false,stim,false,1,731,2,1,1,75720,task3,1234582,false,false,1561,image-keyboard-response,13
true,23,1,2,1,true,z,false,true,0.0-2.0-0.55-0.495-3.495,1,1,0,90,false,stim,false,1,1132,2,1,1,75720,task3,1237246,false,false,1564,image-keyboard-response,14
true,23,0,2,2,false,d,false,false,0.0-2.0-0.55-0.496-3.496,1,1,0,81,false,stim,true,0,568,2,0,2,75720,task3,1239345,false,false,1567,image-keyboard-response,15
true,23,2,2,2,true,d,false,true,0.0-2.0-0.55-0.497-3.497,1,1,0,68,false,stim,false,0,550,2,0,2,75720,task3,1241420,false,false,1570,image-keyboard-response,16
true,23,1,2,1,true,z,false,true,0.0-2.0-0.55-0.498-3.498,1,1,0,90,false,stim,false,1,770,2,1,1,75720,task3,1243721,false,false,1573,image-keyboard-response,17
true,23,2,2,2,true,d,false,true,0.0-2.0-0.55-0.499-3.499,1,1,0,68,false,stim,false,0,670,2,0,2,75720,task3,1245912,false,false,1576,image-keyboard-response,18
true,23,1,2,0,false,q,true,false,0.0-2.0-0.55-0.500-3.500,1,1,0,90,false,stim,false,0,772,2,1,0,75720,task3,1248218,false,false,1579,image-keyboard-response,19
true,23,1,2,0,false,q,true,false,0.0-2.0-0.55-0.501-3.501,1,1,0,90,false,stim,false,0,411,2,1,0,75720,task3,1250155,false,false,1582,image-keyboard-response,20
true,23,0,2,1,false,z,true,false,0.0-2.0-0.55-0.502-3.502,1,1,0,81,false,stim,false,1,596,2,1,1,75720,task3,1252271,false,false,1585,image-keyboard-response,21
true,23,2,2,0,false,q,true,false,0.0-2.0-0.55-0.503-3.503,1,1,0,68,false,stim,false,0,788,2,1,0,75720,task3,1254597,false,false,1588,image-keyboard-response,22
true,23,2,2,2,true,d,false,true,0.0-2.0-0.56-0.504-3.504,1,1,0,68,false,stim,false,0,679,2,0,2,75720,task3,1256799,false,false,1591,image-keyboard-response,23
true,23,2,2,1,false,z,true,false,0.0-2.0-0.56-0.505-3.505,1,1,0,68,false,stim,false,1,606,2,0,1,75720,task3,1258925,false,false,1594,image-keyboard-response,24
true,23,1,2,1,true,z,false,true,0.0-2.0-0.56-0.506-3.506,1,1,0,90,false,stim,false,1,834,2,0,1,75720,task3,1261279,false,false,1597,image-keyboard-response,25
true,23,2,2,2,true,d,false,true,0.0-2.0-0.56-0.507-3.507,1,1,0,68,false,stim,false,0,774,2,0,2,75720,task3,1263575,false,false,1600,image-keyboard-response,26
true,24,1,1,0,false,q,true,false,0.0-2.0-0.56-0.508-3.508,1,0,0,90,true,stim,false,0,649,2,1,0,75720,task3,1265786,false,false,1603,image-keyboard-response,1
true,24,2,1,0,false,q,true,false,0.0-2.0-0.56-0.509-3.509,1,0,0,68,false,stim,false,0,450,2,1,0,75720,task3,1267758,false,false,1606,image-keyboard-response,2
true,24,0,1,0,true,q,false,true,0.0-2.0-0.56-0.510-3.510,1,0,0,81,false,stim,false,0,489,2,1,0,75720,task3,1269781,false,false,1609,image-keyboard-response,3
true,24,1,1,2,false,d,false,false,0.0-2.0-0.56-0.511-3.511,1,0,0,90,false,stim,true,1,551,2,0,1,75720,task3,1271859,false,false,1612,image-keyboard-response,4
true,24,2,1,1,false,z,false,false,0.0-2.0-0.56-0.512-3.512,1,0,0,68,false,stim,true,2,598,2,0,2,75720,task3,1273974,false,false,1615,image-keyboard-response,5
true,24,1,1,0,false,q,true,false,0.0-2.0-0.57-0.513-3.513,1,0,0,90,false,stim,false,0,709,2,1,0,75720,task3,1276202,false,false,1618,image-keyboard-response,6
true,24,2,1,2,true,d,false,true,0.0-2.0-0.57-0.514-3.514,1,0,0,68,false,stim,false,1,710,2,0,1,75720,task3,1278443,false,false,1621,image-keyboard-response,7
true,24,2,1,1,false,z,false,false,0.0-2.0-0.57-0.515-3.515,1,0,0,68,false,stim,true,2,625,2,0,2,75720,task3,1280597,false,false,1624,image-keyboard-response,8
true,24,2,1,2,true,d,false,true,0.0-2.0-0.57-0.516-3.516,1,0,0,68,false,stim,false,1,973,2,0,1,75720,task3,1283097,false,false,1627,image-keyboard-response,9
true,24,2,1,0,false,q,true,false,0.0-2.0-0.57-0.517-3.517,1,0,0,68,false,stim,false,0,611,2,1,0,75720,task3,1285241,false,false,1630,image-keyboard-response,10
true,24,1,1,0,false,q,true,false,0.0-2.0-0.57-0.518-3.518,1,0,0,90,false,stim,false,0,1469,2,1,0,75720,task3,1288241,false,false,1633,image-keyboard-response,11
true,24,0,1,1,false,z,true,false,0.0-2.0-0.57-0.519-3.519,1,0,0,81,false,stim,false,2,833,2,0,2,75720,task3,1290599,false,false,1636,image-keyboard-response,12
true,24,0,1,1,false,z,true,false,0.0-2.0-0.57-0.520-3.520,1,0,0,81,false,stim,false,2,781,2,0,2,75720,task3,1292913,false,false,1639,image-keyboard-response,13
true,24,2,1,2,true,d,false,true,0.0-2.0-0.57-0.521-3.521,1,0,0,68,false,stim,false,1,1225,2,0,1,75720,task3,1295674,false,false,1642,image-keyboard-response,14
true,24,2,1,1,false,z,false,false,0.0-2.0-0.58-0.522-3.522,1,0,0,68,false,stim,true,2,692,2,0,2,75720,task3,1297889,false,false,1645,image-keyboard-response,15
true,24,2,1,0,false,q,true,false,0.0-2.0-0.58-0.523-3.523,1,0,0,68,false,stim,false,0,453,2,1,0,75720,task3,1299861,false,false,1648,image-keyboard-response,16
true,24,2,1,2,true,d,false,true,0.0-2.0-0.58-0.524-3.524,1,0,0,68,false,stim,false,1,360,2,0,1,75720,task3,1301750,false,false,1651,image-keyboard-response,17
true,24,0,1,0,true,q,false,true,0.0-2.0-0.58-0.525-3.525,1,0,0,81,false,stim,false,0,529,2,1,0,75720,task3,1303800,false,false,1654,image-keyboard-response,18
true,24,0,1,1,false,z,true,false,0.0-2.0-0.58-0.526-3.526,1,0,0,81,false,stim,false,2,656,2,0,2,75720,task3,1305996,false,false,1657,image-keyboard-response,19
true,24,1,1,1,true,z,false,true,0.0-2.0-0.58-0.527-3.527,1,0,0,90,false,stim,false,2,693,2,0,2,75720,task3,1308214,false,false,1660,image-keyboard-response,20
true,24,0,1,0,true,q,false,true,0.0-2.0-0.58-0.528-3.528,1,0,0,81,false,stim,false,0,803,2,1,0,75720,task3,1310539,false,false,1663,image-keyboard-response,21
true,24,2,1,2,true,d,false,true,0.0-2.0-0.58-0.529-3.529,1,0,0,68,false,stim,false,1,1024,2,1,1,75720,task3,1313082,false,false,1666,image-keyboard-response,22
true,24,2,1,2,true,d,false,true,0.0-2.0-0.58-0.530-3.530,1,0,0,68,false,stim,false,1,969,2,1,1,75720,task3,1315572,false,false,1669,image-keyboard-response,23
true,24,2,1,2,true,d,false,true,0.0-2.0-0.59-0.531-3.531,1,0,0,68,false,stim,false,1,442,2,1,1,75720,task3,1317532,false,false,1672,image-keyboard-response,24
true,25,1,2,2,false,d,false,false,0.0-2.0-0.59-0.532-3.532,1,1,0,90,true,stim,true,1,909,2,0,2,75720,task3,1319972,false,false,1675,image-keyboard-response,1
true,25,1,2,2,false,d,true,false,0.0-2.0-0.59-0.533-3.533,1,1,0,90,false,stim,false,2,1143,2,1,1,75720,task3,1322642,false,false,1678,image-keyboard-response,2
true,25,0,2,0,true,q,false,true,0.0-2.0-0.59-0.534-3.534,1,1,0,81,false,stim,false,0,1432,2,1,0,75720,task3,1325595,false,false,1681,image-keyboard-response,3
true,25,2,2,2,true,d,false,true,0.0-2.0-0.59-0.535-3.535,1,1,0,68,false,stim,false,2,914,2,1,1,75720,task3,1328042,false,false,1684,image-keyboard-response,4
true,25,1,2,2,false,d,false,false,0.0-2.0-0.59-0.536-3.536,1,1,0,90,false,stim,true,1,882,2,0,2,75720,task3,1330444,false,false,1687,image-keyboard-response,5
true,25,0,2,0,true,q,false,true,0.0-2.0-0.59-0.537-3.537,1,1,0,81,false,stim,false,0,809,2,1,0,75720,task3,1332786,false,false,1690,image-keyboard-response,6
true,25,2,2,2,true,d,false,true,0.0-2.0-0.59-0.538-3.538,1,1,0,68,false,stim,false,1,1319,2,1,2,75720,task3,1335623,false,false,1693,image-keyboard-response,7
true,25,0,2,0,true,q,false,true,0.0-2.0-0.59-0.539-3.539,1,1,0,81,false,stim,false,0,664,2,1,0,75720,task3,1337817,false,false,1696,image-keyboard-response,8
true,25,2,2,2,true,d,false,true,0.0-2.0-0.60-0.540-3.540,1,1,0,68,false,stim,false,1,628,2,1,2,75720,task3,1339979,false,false,1699,image-keyboard-response,9
true,25,0,2,0,true,q,false,true,0.0-2.0-0.60-0.541-3.541,1,1,0,81,false,stim,false,0,829,2,1,0,75720,task3,1342371,false,false,1702,image-keyboard-response,10
true,26,1,0,0,false,q,true,false,0.0-2.0-0.60-0.542-3.542,1,1,1,90,true,stim,false,0,947,2,1,0,75720,task3,1466046,false,false,1825,image-keyboard-response,1
true,26,0,0,0,true,q,false,true,0.0-2.0-0.60-0.543-3.543,1,1,1,81,false,stim,false,0,480,2,1,0,75720,task3,1468054,false,false,1828,image-keyboard-response,2
true,26,2,0,2,true,d,false,true,0.0-2.0-0.60-0.544-3.544,1,1,1,68,false,stim,false,2,556,2,1,2,75720,task3,1470136,false,false,1831,image-keyboard-response,3
true,26,0,0,2,false,d,true,false,0.0-2.0-0.60-0.545-3.545,1,1,1,81,false,stim,false,2,1446,2,1,1,75720,task3,1473103,false,false,1834,image-keyboard-response,4
true,26,2,0,2,true,d,false,false,0.0-2.0-0.60-0.546-3.546,1,1,1,68,false,stim,false,2,589,2,1,1,75720,task3,1475215,false,true,1837,image-keyboard-response,5
true,26,2,0,2,true,d,false,true,0.0-2.0-0.60-0.547-3.547,1,1,1,68,false,stim,false,2,770,2,1,1,75720,task3,1477519,false,false,1840,image-keyboard-response,6
true,26,2,0,2,true,d,false,true,0.0-2.0-0.60-0.548-3.548,1,1,1,68,false,stim,false,2,641,2,1,2,75720,task3,1479690,false,false,1843,image-keyboard-response,7
true,26,0,0,0,true,q,false,true,0.0-2.0-0.61-0.549-3.549,1,1,1,81,false,stim,false,0,673,2,1,0,75720,task3,1481892,false,false,1846,image-keyboard-response,8
true,26,2,0,2,true,d,false,true,0.0-2.0-0.61-0.550-3.550,1,1,1,68,false,stim,false,2,665,2,1,2,75720,task3,1484091,false,false,1849,image-keyboard-response,9
true,26,0,0,0,true,q,false,true,0.0-2.0-0.61-0.551-3.551,1,1,1,81,false,stim,false,0,1117,2,1,0,75720,task3,1486727,false,false,1852,image-keyboard-response,10
true,26,2,0,2,true,d,false,true,0.0-2.0-0.61-0.552-3.552,1,1,1,68,false,stim,false,2,2098,2,1,1,75720,task3,1490344,false,false,1855,image-keyboard-response,11
true,26,2,0,2,true,d,false,true,0.0-2.0-0.61-0.553-3.553,1,1,1,68,false,stim,false,2,524,2,1,1,75720,task3,1492389,false,false,1858,image-keyboard-response,12
true,26,2,0,2,true,d,false,true,0.0-2.0-0.61-0.554-3.554,1,1,1,68,false,stim,false,2,502,2,1,1,75720,task3,1494405,false,false,1861,image-keyboard-response,13
true,26,2,0,2,true,d,false,true,0.0-2.0-0.61-0.555-3.555,1,1,1,68,false,stim,false,2,939,2,0,2,75720,task3,1496871,false,false,1864,image-keyboard-response,14
true,27,2,2,0,false,q,false,false,0.0-2.0-0.61-0.556-3.556,1,1,0,68,true,stim,true,2,1071,2,0,2,75720,task3,1499466,false,false,1867,image-keyboard-response,1
true,27,0,2,0,true,q,false,true,0.0-2.0-0.61-0.557-3.557,1,1,0,81,false,stim,false,0,778,2,1,0,75720,task3,1501766,false,false,1870,image-keyboard-response,2
true,27,2,2,0,false,q,false,false,0.0-2.0-0.62-0.558-3.558,1,1,0,68,false,stim,true,2,1070,2,0,2,75720,task3,1504363,false,false,1873,image-keyboard-response,3
true,27,1,2,2,false,d,true,false,0.0-2.0-0.62-0.559-3.559,1,1,0,90,false,stim,false,2,1847,2,1,1,75720,task3,1507743,false,false,1876,image-keyboard-response,4
true,27,0,2,0,true,q,false,true,0.0-2.0-0.62-0.560-3.560,1,1,0,81,false,stim,false,0,718,2,1,0,75720,task3,1509986,false,false,1879,image-keyboard-response,5
true,27,2,2,0,false,q,false,false,0.0-2.0-0.62-0.561-3.561,1,1,0,68,false,stim,true,2,1237,2,0,2,75720,task3,1512756,false,false,1882,image-keyboard-response,6
true,27,0,2,0,true,q,false,true,0.0-2.0-0.62-0.562-3.562,1,1,0,81,false,stim,false,2,529,2,0,2,75720,task3,1514818,false,false,1885,image-keyboard-response,7
true,27,2,2,2,true,d,false,false,0.0-2.0-0.62-0.563-3.563,1,1,0,68,false,stim,false,2,736,2,1,1,75720,task3,1517085,false,true,1888,image-keyboard-response,8
true,27,0,2,0,true,q,false,true,0.0-2.0-0.62-0.564-3.564,1,1,0,81,false,stim,false,0,604,2,1,0,75720,task3,1519226,false,false,1891,image-keyboard-response,9
true,27,0,2,2,false,d,true,false,0.0-2.0-0.62-0.565-3.565,1,1,0,81,false,stim,false,2,667,2,1,1,75720,task3,1521423,false,false,1894,image-keyboard-response,10
true,27,0,2,0,true,q,false,true,0.0-2.0-0.62-0.566-3.566,1,1,0,81,false,stim,false,0,1302,2,1,0,75720,task3,1524263,false,false,1897,image-keyboard-response,11
true,27,0,2,0,true,q,false,true,0.0-2.0-0.63-0.567-3.567,1,1,0,81,false,stim,false,2,459,2,0,2,75720,task3,1526259,false,false,1900,image-keyboard-response,12
true,27,0,2,0,true,q,false,true,0.0-2.0-0.63-0.568-3.568,1,1,0,81,false,stim,false,0,805,2,1,0,75720,task3,1528620,false,false,1903,image-keyboard-response,13
true,27,1,2,2,false,d,true,true,0.0-2.0-0.63-0.569-3.569,1,1,0,90,false,stim,false,2,1130,2,1,1,75720,task3,1531291,false,true,1906,image-keyboard-response,14
true,27,1,2,2,false,d,true,false,0.0-2.0-0.63-0.570-3.570,1,1,0,90,false,stim,false,2,797,2,1,1,75720,task3,1533610,false,false,1909,image-keyboard-response,15
true,27,0,2,0,true,q,false,false,0.0-2.0-0.63-0.571-3.571,1,1,0,81,false,stim,false,0,1837,2,1,0,75720,task3,1536963,false,true,1912,image-keyboard-response,16
true,27,0,2,0,true,q,false,true,0.0-2.0-0.63-0.572-3.572,1,1,0,81,false,stim,false,2,712,2,0,2,75720,task3,1539200,false,false,1915,image-keyboard-response,17
true,27,0,2,0,true,q,false,true,0.0-2.0-0.63-0.573-3.573,1,1,0,81,false,stim,false,2,632,2,0,2,75720,task3,1541353,false,false,1918,image-keyboard-response,18
true,27,0,2,0,true,q,false,true,0.0-2.0-0.63-0.574-3.574,1,1,0,81,false,stim,false,0,910,2,1,0,75720,task3,1543793,false,false,1921,image-keyboard-response,19
true,27,0,2,2,false,d,true,false,0.0-2.0-0.63-0.575-3.575,1,1,0,81,false,stim,false,2,1080,2,0,1,75720,task3,1546400,false,false,1924,image-keyboard-response,20
true,27,0,2,0,true,q,false,false,0.0-2.0-0.64-0.576-3.576,1,1,0,81,false,stim,false,2,656,2,0,2,75720,task3,1548577,false,true,1927,image-keyboard-response,21
true,27,2,2,2,true,d,false,true,0.0-2.0-0.64-0.577-3.577,1,1,0,68,false,stim,false,2,1464,2,0,1,75720,task3,1551570,false,false,1930,image-keyboard-response,22
true,28,0,1,0,true,q,false,true,0.0-2.0-0.64-0.578-3.578,1,0,0,81,true,stim,false,0,834,2,1,0,75720,task3,1553929,false,false,1933,image-keyboard-response,1
true,28,0,1,0,true,q,false,true,0.0-2.0-0.64-0.579-3.579,1,0,0,81,false,stim,false,0,786,2,1,0,75720,task3,1556237,false,false,1936,image-keyboard-response,2
true,28,0,1,1,false,z,false,false,0.0-2.0-0.64-0.580-3.580,1,0,0,81,false,stim,true,0,793,2,0,2,75720,task3,1558560,false,false,1939,image-keyboard-response,3
true,28,2,1,1,false,z,false,false,0.0-2.0-0.64-0.581-3.581,1,0,0,68,false,stim,true,2,618,2,0,1,75720,task3,1560718,false,false,1942,image-keyboard-response,4
true,28,2,1,1,false,z,true,true,0.0-2.0-0.64-0.582-3.582,1,0,0,68,false,stim,false,0,1494,2,0,2,75720,task3,1563737,false,true,1945,image-keyboard-response,5
true,28,1,1,1,true,z,false,true,0.0-2.0-0.64-0.583-3.583,1,0,0,90,false,stim,false,2,1010,2,0,1,75720,task3,1566265,false,false,1948,image-keyboard-response,6
true,28,0,1,0,true,q,false,true,0.0-2.0-0.64-0.584-3.584,1,0,0,81,false,stim,false,0,590,2,1,0,75720,task3,1568371,false,false,1951,image-keyboard-response,7
true,28,0,1,0,true,q,false,true,0.0-2.0-0.65-0.585-3.585,1,0,0,81,false,stim,false,0,859,2,1,0,75720,task3,1570768,false,false,1954,image-keyboard-response,8
true,28,2,1,1,false,z,true,false,0.0-2.0-0.65-0.586-3.586,1,0,0,68,false,stim,false,0,777,2,0,2,75720,task3,1573061,false,false,1957,image-keyboard-response,9
true,28,0,1,0,true,q,false,true,0.0-2.0-0.65-0.587-3.587,1,0,0,81,false,stim,false,0,583,2,0,0,75720,task3,1575173,false,false,1960,image-keyboard-response,10
true,28,2,1,1,false,z,false,false,0.0-2.0-0.65-0.588-3.588,1,0,0,68,false,stim,true,2,1088,2,1,1,75720,task3,1577796,false,false,1963,image-keyboard-response,11
true,28,0,1,0,true,q,false,true,0.0-2.0-0.65-0.589-3.589,1,0,0,81,false,stim,false,0,818,2,0,0,75720,task3,1580132,false,false,1966,image-keyboard-response,12
true,28,1,1,1,true,z,false,true,0.0-2.0-0.65-0.590-3.590,1,0,0,90,false,stim,false,2,607,2,1,1,75720,task3,1582268,false,false,1969,image-keyboard-response,13
true,28,1,1,1,true,z,false,true,0.0-2.0-0.65-0.591-3.591,1,0,0,90,false,stim,false,2,547,2,1,1,75720,task3,1584353,false,false,1972,image-keyboard-response,14
true,29,2,2,1,false,z,true,false,0.0-2.0-0.65-0.592-3.592,0,1,1,68,true,stim,false,1,665,2,1,2,75720,task3,1586546,false,false,1975,image-keyboard-response,1
true,29,2,2,1,false,z,true,true,0.0-2.0-0.65-0.593-3.593,0,1,1,68,false,stim,false,1,375,2,1,2,75720,task3,1588443,false,true,1978,image-keyboard-response,2
true,29,2,2,1,false,z,true,true,0.0-2.0-0.66-0.594-3.594,0,1,1,68,false,stim,false,1,407,2,1,2,75720,task3,1590364,false,true,1981,image-keyboard-response,3
true,29,1,2,1,true,z,false,true,0.0-2.0-0.66-0.595-3.595,0,1,1,90,false,stim,false,1,690,2,1,1,75720,task3,1592591,false,false,1984,image-keyboard-response,4
true,29,0,2,2,false,d,false,false,0.0-2.0-0.66-0.596-3.596,0,1,1,81,false,stim,true,0,646,2,0,0,75720,task3,1594759,false,false,1987,image-keyboard-response,5
true,29,0,2,2,false,d,false,false,0.0-2.0-0.66-0.597-3.597,0,1,1,81,false,stim,true,0,385,2,0,0,75720,task3,1596672,false,false,1990,image-keyboard-response,6
true,29,1,2,1,true,z,false,true,0.0-2.0-0.66-0.598-3.598,0,1,1,90,false,stim,false,1,1042,2,1,1,75720,task3,1599250,false,false,1993,image-keyboard-response,7
true,29,2,2,1,false,z,true,false,0.0-2.0-0.66-0.599-3.599,0,1,1,68,false,stim,false,1,487,2,1,2,75720,task3,1601265,false,false,1996,image-keyboard-response,8
true,29,2,2,1,false,z,true,false,0.0-2.0-0.66-0.600-3.600,0,1,1,68,false,stim,false,1,390,2,1,2,75720,task3,1603193,false,false,1999,image-keyboard-response,9
true,29,1,2,1,true,z,false,true,0.0-2.0-0.66-0.601-3.601,0,1,1,90,false,stim,false,1,1642,2,1,1,75720,task3,1606404,false,false,2002,image-keyboard-response,10
true,29,1,2,2,false,d,true,false,0.0-2.0-0.66-0.602-3.602,0,1,1,90,false,stim,false,0,562,2,0,0,75720,task3,1608503,false,false,2005,image-keyboard-response,11
true,29,1,2,1,true,z,false,true,0.0-2.0-0.67-0.603-3.603,0,1,1,90,false,stim,false,1,997,2,1,1,75720,task3,1611019,false,false,2008,image-keyboard-response,12
true,29,1,2,1,true,z,false,false,0.0-2.0-0.67-0.604-3.604,0,1,1,90,false,stim,false,1,467,2,1,2,75720,task3,1613019,false,true,2011,image-keyboard-response,13
true,29,2,2,2,true,d,false,true,0.0-2.0-0.67-0.605-3.605,0,1,1,68,false,stim,false,0,599,2,0,0,75720,task3,1615147,false,false,2014,image-keyboard-response,14
true,29,0,2,1,false,z,true,false,0.0-2.0-0.67-0.606-3.606,0,1,1,81,false,stim,false,1,1463,2,1,2,75720,task3,1618124,false,false,2017,image-keyboard-response,15
true,29,1,2,1,true,z,false,true,0.0-2.0-0.67-0.607-3.607,0,1,1,90,false,stim,false,1,878,2,1,1,75720,task3,1620523,false,false,2020,image-keyboard-response,16
true,29,1,2,1,true,z,false,true,0.0-2.0-0.67-0.608-3.608,0,1,1,90,false,stim,false,1,590,2,1,1,75720,task3,1622643,false,false,2023,image-keyboard-response,17
true,29,1,2,2,false,d,true,false,0.0-2.0-0.67-0.609-3.609,0,1,1,90,false,stim,false,0,396,2,0,0,75720,task3,1624566,false,false,2026,image-keyboard-response,18
true,29,0,2,1,false,z,true,false,0.0-2.0-0.67-0.610-3.610,0,1,1,81,false,stim,false,1,1448,2,0,2,75720,task3,1627533,false,false,2029,image-keyboard-response,19
true,29,2,2,2,true,d,false,true,0.0-2.0-0.67-0.611-3.611,0,1,1,68,false,stim,false,0,1057,2,0,0,75720,task3,1630117,false,false,2032,image-keyboard-response,20
true,29,2,2,1,false,z,true,false,0.0-2.0-0.68-0.612-3.612,0,1,1,68,false,stim,false,1,824,2,0,2,75720,task3,1632468,false,false,2035,image-keyboard-response,21
true,29,2,2,2,true,d,false,true,0.0-2.0-0.68-0.613-3.613,0,1,1,68,false,stim,false,0,943,2,0,0,75720,task3,1634945,false,false,2038,image-keyboard-response,22
true,29,1,2,1,true,z,false,true,0.0-2.0-0.68-0.614-3.614,0,1,1,90,false,stim,false,1,622,2,1,1,75720,task3,1637094,false,false,2041,image-keyboard-response,23
true,30,2,1,1,false,z,false,false,0.0-2.0-0.68-0.615-3.615,0,1,0,68,true,stim,true,2,931,2,0,0,75720,task3,1639557,false,false,2044,image-keyboard-response,1
true,30,1,1,1,true,z,false,true,0.0-2.0-0.68-0.616-3.616,0,1,0,90,false,stim,false,1,756,2,1,1,75720,task3,1641844,false,false,2047,image-keyboard-response,2
true,30,1,1,2,false,d,false,true,0.0-2.0-0.68-0.617-3.617,0,1,0,90,false,stim,true,1,474,2,0,2,75720,task3,1643857,false,true,2050,image-keyboard-response,3
true,30,0,1,1,false,z,true,false,0.0-2.0-0.68-0.618-3.618,0,1,0,81,false,stim,false,2,1018,2,0,0,75720,task3,1646410,false,false,2053,image-keyboard-response,4
true,30,1,1,1,true,z,false,true,0.0-2.0-0.68-0.619-3.619,0,1,0,90,false,stim,false,1,852,2,1,1,75720,task3,1648790,false,false,2056,image-keyboard-response,5
true,30,1,1,2,false,d,false,false,0.0-2.0-0.68-0.620-3.620,0,1,0,90,false,stim,true,1,676,2,0,2,75720,task3,1651004,false,false,2059,image-keyboard-response,6
true,30,1,1,1,true,z,false,true,0.0-2.0-0.69-0.621-3.621,0,1,0,90,false,stim,false,1,1070,2,0,1,75720,task3,1653602,false,false,2062,image-keyboard-response,7
true,30,1,1,1,true,z,false,true,0.0-2.0-0.69-0.622-3.622,0,1,0,90,false,stim,false,1,511,2,0,1,75720,task3,1655647,false,false,2065,image-keyboard-response,8
true,30,1,1,2,false,d,false,false,0.0-2.0-0.69-0.623-3.623,0,1,0,90,false,stim,true,1,1124,2,1,2,75720,task3,1658299,false,false,2068,image-keyboard-response,9
true,30,2,1,1,false,z,false,false,0.0-2.0-0.69-0.624-3.624,0,1,0,68,false,stim,true,2,803,2,1,0,75720,task3,1660626,false,false,2071,image-keyboard-response,10
true,30,1,1,1,true,z,false,true,0.0-2.0-0.69-0.625-3.625,0,1,0,90,false,stim,false,1,768,2,0,1,75720,task3,1662930,false,false,2074,image-keyboard-response,11
true,31,1,2,2,false,d,true,false,0.0-2.0-0.69-0.626-3.626,1,0,1,90,true,stim,false,2,882,2,1,2,75720,task3,1665343,false,false,2077,image-keyboard-response,1
true,31,0,2,1,false,z,true,false,0.0-2.0-0.69-0.627-3.627,1,0,1,81,false,stim,false,1,549,2,1,0,75720,task3,1667431,false,false,2080,image-keyboard-response,2
true,31,0,2,1,false,z,true,false,0.0-2.0-0.69-0.628-3.628,1,0,1,81,false,stim,false,1,507,2,1,0,75720,task3,1669462,false,false,2083,image-keyboard-response,3
true,31,1,2,2,false,d,true,false,0.0-2.0-0.69-0.629-3.629,1,0,1,90,false,stim,false,2,1780,2,1,2,75720,task3,1672775,false,false,2086,image-keyboard-response,4
true,31,1,2,1,true,z,false,true,0.0-2.0-0.70-0.630-3.630,1,0,1,90,false,stim,false,1,1598,2,1,0,75720,task3,1675900,false,false,2089,image-keyboard-response,5
true,31,1,2,0,false,q,false,false,0.0-2.0-0.70-0.631-3.631,1,0,1,90,false,stim,true,1,455,2,0,1,75720,task3,1677875,false,false,2092,image-keyboard-response,6
true,31,1,2,1,true,z,false,true,0.0-2.0-0.70-0.632-3.632,1,0,1,90,false,stim,false,1,375,2,1,0,75720,task3,1679773,false,false,2095,image-keyboard-response,7
true,31,2,2,2,true,d,false,false,0.0-2.0-0.70-0.633-3.633,1,0,1,68,false,stim,false,2,897,2,1,2,75720,task3,1682192,false,true,2098,image-keyboard-response,8
