answered,blockNum,choice,condition,corResp,correct,correct_response,explo,fb,internal_node_id,isStable_1,isStable_2,isStable_3,key_press,newBlock,part,persev,persevResp,rt,sessNum,stableAS,stimulus,subject,task,time_elapsed,training,trap,trial_index,trial_type,trialsInBlock
true,1,1,0,0,false,q,true,false,0.0-2.0-0.0-0.0-3.0,0,0,0,90,true,stim,false,-1,1064,1,0,2,75720,task2,131892,false,false,81,image-keyboard-response,1
true,1,1,0,2,false,d,true,false,0.0-2.0-0.0-0.1-3.1,0,0,0,90,false,stim,false,-1,688,1,0,0,75720,task2,134111,false,false,84,image-keyboard-response,2
true,1,1,0,0,false,q,true,false,0.0-2.0-0.0-0.2-3.2,0,0,0,90,false,stim,false,-1,651,1,0,1,75720,task2,136277,false,false,87,image-keyboard-response,3
true,1,2,0,2,true,d,false,true,0.0-2.0-0.0-0.3-3.3,0,0,0,68,false,stim,false,-1,675,1,0,0,75720,task2,138472,false,false,90,image-keyboard-response,4
true,1,2,0,2,true,d,false,true,0.0-2.0-0.0-0.4-3.4,0,0,0,68,false,stim,false,-1,398,1,0,0,75720,task2,140392,false,false,93,image-keyboard-response,5
true,1,2,0,0,false,q,true,false,0.0-2.0-0.0-0.5-3.5,0,0,0,68,false,stim,false,-1,771,1,0,2,75720,task2,142694,false,false,96,image-keyboard-response,6
true,1,2,0,0,false,q,true,false,0.0-2.0-0.0-0.6-3.6,0,0,0,68,false,stim,false,-1,1084,1,0,1,75720,task2,145306,false,false,99,image-keyboard-response,7
true,1,0,0,0,true,q,false,true,0.0-2.0-0.0-0.7-3.7,0,0,0,81,false,stim,false,-1,753,1,0,2,75720,task2,147583,false,false,102,image-keyboard-response,8
true,1,0,0,0,true,q,false,true,0.0-2.0-0.0-0.8-3.8,0,0,0,81,false,stim,false,-1,691,1,0,1,75720,task2,149801,false,false,105,image-keyboard-response,9
true,1,2,0,2,true,d,false,true,0.0-2.0-0.1-0.9-3.9,0,0,0,68,false,stim,false,-1,693,1,0,0,75720,task2,152013,false,false,108,image-keyboard-response,10
true,1,0,0,0,true,q,false,false,0.0-2.0-0.1-0.10-3.10,0,0,0,81,false,stim,false,-1,678,1,0,2,75720,task2,154208,false,true,111,image-keyboard-response,11
true,1,1,0,0,false,q,true,false,0.0-2.0-0.1-0.11-3.11,0,0,0,90,false,stim,false,-1,733,1,0,2,75720,task2,156454,false,false,114,image-keyboard-response,12
true,1,2,0,2,true,d,false,true,0.0-2.0-0.1-0.12-3.12,0,0,0,68,false,stim,false,-1,639,1,0,0,75720,task2,158619,false,false,117,image-keyboard-response,13
true,1,0,0,0,true,q,false,false,0.0-2.0-0.1-0.13-3.13,0,0,0,81,false,stim,false,-1,977,1,0,1,75720,task2,161126,false,true,120,image-keyboard-response,14
true,1,0,0,0,true,q,false,true,0.0-2.0-0.1-0.14-3.14,0,0,0,81,false,stim,false,-1,1101,1,0,1,75720,task2,163745,false,false,123,image-keyboard-response,15
true,1,2,0,2,true,d,false,true,0.0-2.0-0.1-0.15-3.15,0,0,0,68,false,stim,false,-1,727,1,0,0,75720,task2,165992,false,false,126,image-keyboard-response,16
true,1,0,0,0,true,q,false,true,0.0-2.0-0.1-0.16-3.16,0,0,0,81,false,stim,false,-1,820,1,0,1,75720,task2,168344,false,false,129,image-keyboard-response,17
true,1,0,0,0,true,q,false,true,0.0-2.0-0.1-0.17-3.17,0,0,0,81,false,stim,false,-1,668,1,0,2,75720,task2,170537,false,false,132,image-keyboard-response,18
true,1,0,0,0,true,q,false,true,0.0-2.0-0.2-0.18-3.18,0,0,0,81,false,stim,false,-1,940,1,0,1,75720,task2,173009,false,false,135,image-keyboard-response,19
true,1,0,0,0,true,q,false,true,0.0-2.0-0.2-0.19-3.19,0,0,0,81,false,stim,false,-1,794,1,0,2,75720,task2,175333,false,false,138,image-keyboard-response,20
true,1,2,0,2,true,d,false,true,0.0-2.0-0.2-0.20-3.20,0,0,0,68,false,stim,false,-1,566,1,0,0,75720,task2,177419,false,false,141,image-keyboard-response,21
true,1,0,0,0,true,q,false,true,0.0-2.0-0.2-0.21-3.21,0,0,0,81,false,stim,false,-1,958,1,0,1,75720,task2,179893,false,false,144,image-keyboard-response,22
true,1,0,0,0,true,q,false,true,0.0-2.0-0.2-0.22-3.22,0,0,0,81,false,stim,false,-1,830,1,0,2,75720,task2,182244,false,false,147,image-keyboard-response,23
true,1,2,0,2,true,d,false,true,0.0-2.0-0.2-0.23-3.23,0,0,0,68,false,stim,false,-1,690,1,0,0,75720,task2,184452,false,false,150,image-keyboard-response,24
true,1,0,0,0,true,q,false,true,0.0-2.0-0.2-0.24-3.24,0,0,0,81,false,stim,false,-1,916,1,0,1,75720,task2,186877,false,false,153,image-keyboard-response,25
true,1,0,0,0,true,q,false,false,0.0-2.0-0.2-0.25-3.25,0,0,0,81,false,stim,false,-1,753,1,0,2,75720,task2,189155,false,true,156,image-keyboard-response,26
true,2,2,1,0,false,q,false,false,0.0-2.0-0.2-0.26-3.26,0,0,0,68,true,stim,true,2,578,1,0,0,75720,task2,191258,false,false,159,image-keyboard-response,1
true,2,0,1,1,false,z,false,false,0.0-2.0-0.3-0.27-3.27,0,0,0,81,false,stim,true,0,1128,1,0,2,75720,task2,193910,false,false,162,image-keyboard-response,2
true,2,1,1,1,true,z,false,true,0.0-2.0-0.3-0.28-3.28,0,0,0,90,false,stim,false,0,722,1,0,2,75720,task2,196153,false,false,165,image-keyboard-response,3
true,2,1,1,0,false,q,true,false,0.0-2.0-0.3-0.29-3.29,0,0,0,90,false,stim,false,2,1034,1,0,0,75720,task2,198713,false,false,168,image-keyboard-response,4
true,2,0,1,1,false,z,false,true,0.0-2.0-0.3-0.30-3.30,0,0,0,81,false,stim,true,0,457,1,0,1,75720,task2,200699,false,true,171,image-keyboard-response,5
true,2,0,1,1,false,z,false,false,0.0-2.0-0.3-0.31-3.31,0,0,0,81,false,stim,true,0,774,1,0,1,75720,task2,202987,false,false,174,image-keyboard-response,6
true,2,1,1,1,true,z,false,true,0.0-2.0-0.3-0.32-3.32,0,0,0,90,false,stim,false,0,797,1,0,1,75720,task2,205305,false,false,177,image-keyboard-response,7
true,2,0,1,0,true,q,false,true,0.0-2.0-0.3-0.33-3.33,0,0,0,81,false,stim,false,2,1073,1,0,0,75720,task2,207906,false,false,180,image-keyboard-response,8
true,2,1,1,1,true,z,false,true,0.0-2.0-0.3-0.34-3.34,0,0,0,90,false,stim,false,0,803,1,0,2,75720,task2,210240,false,false,183,image-keyboard-response,9
true,2,0,1,0,true,q,false,true,0.0-2.0-0.3-0.35-3.35,0,0,0,81,false,stim,false,2,735,1,0,0,75720,task2,212499,false,false,186,image-keyboard-response,10
true,2,1,1,1,true,z,false,true,0.0-2.0-0.4-0.36-3.36,0,0,0,90,false,stim,false,0,550,1,0,2,75720,task2,214563,false,false,189,image-keyboard-response,11
true,2,0,1,0,true,q,false,true,0.0-2.0-0.4-0.37-3.37,0,0,0,81,false,stim,false,2,588,1,0,0,75720,task2,216661,false,false,192,image-keyboard-response,12
true,2,0,1,0,true,q,false,true,0.0-2.0-0.4-0.38-3.38,0,0,0,81,false,stim,false,2,695,1,0,0,75720,task2,218884,false,false,195,image-keyboard-response,13
true,2,1,1,1,true,z,false,false,0.0-2.0-0.4-0.39-3.39,0,0,0,90,false,stim,false,0,600,1,0,2,75720,task2,221000,false,true,198,image-keyboard-response,14
true,2,2,1,0,false,q,false,false,0.0-2.0-0.4-0.40-3.40,0,0,0,68,false,stim,true,2,804,1,0,0,75720,task2,223329,false,false,201,image-keyboard-response,15
true,2,1,1,1,true,z,false,true,0.0-2.0-0.4-0.41-3.41,0,0,0,90,false,stim,false,0,775,1,0,1,75720,task2,225629,false,false,204,image-keyboard-response,16
true,2,2,1,1,false,z,true,false,0.0-2.0-0.4-0.42-3.42,0,0,0,68,false,stim,false,0,826,1,0,2,75720,task2,227977,false,false,207,image-keyboard-response,17
true,2,1,1,1,true,z,false,true,0.0-2.0-0.4-0.43-3.43,0,0,0,90,false,stim,false,0,535,1,0,1,75720,task2,230027,false,false,210,image-keyboard-response,18
true,2,1,1,1,true,z,false,true,0.0-2.0-0.4-0.44-3.44,0,0,0,90,false,stim,false,0,854,1,0,1,75720,task2,232401,false,false,213,image-keyboard-response,19
true,2,0,1,1,false,z,false,true,0.0-2.0-0.5-0.45-3.45,0,0,0,81,false,stim,true,0,740,1,0,2,75720,task2,234657,false,true,216,image-keyboard-response,20
true,2,0,1,1,false,z,false,false,0.0-2.0-0.5-0.46-3.46,0,0,0,81,false,stim,true,0,535,1,0,2,75720,task2,236702,false,false,219,image-keyboard-response,21
true,2,1,1,1,true,z,false,true,0.0-2.0-0.5-0.47-3.47,0,0,0,90,false,stim,false,0,908,1,0,1,75720,task2,239143,false,false,222,image-keyboard-response,22
true,2,0,1,1,false,z,false,false,0.0-2.0-0.5-0.48-3.48,0,0,0,81,false,stim,true,0,574,1,0,2,75720,task2,241238,false,false,225,image-keyboard-response,23
true,2,0,1,0,true,q,false,true,0.0-2.0-0.5-0.49-3.49,0,0,0,81,false,stim,false,2,816,1,0,0,75720,task2,243577,false,false,228,image-keyboard-response,24
true,2,0,1,0,true,q,false,true,0.0-2.0-0.5-0.50-3.50,0,0,0,81,false,stim,false,2,864,1,0,0,75720,task2,245963,false,false,231,image-keyboard-response,25
true,2,1,1,1,true,z,false,true,0.0-2.0-0.5-0.51-3.51,0,0,0,90,false,stim,false,0,1037,1,0,1,75720,task2,248520,false,false,234,image-keyboard-response,26
true,2,1,1,1,true,z,false,true,0.0-2.0-0.5-0.52-3.52,0,0,0,90,false,stim,false,0,414,1,0,1,75720,task2,250459,false,false,237,image-keyboard-response,27
true,2,0,1,0,true,q,false,true,0.0-2.0-0.5-0.53-3.53,0,0,0,81,false,stim,false,2,842,1,0,0,75720,task2,252829,false,false,240,image-keyboard-response,28
true,2,1,1,1,true,z,false,true,0.0-2.0-0.6-0.54-3.54,0,0,0,90,false,stim,false,0,818,1,0,1,75720,task2,255177,false,false,243,image-keyboard-response,29
true,2,1,1,1,true,z,false,true,0.0-2.0-0.6-0.55-3.55,0,0,0,90,false,stim,false,0,528,1,0,1,75720,task2,257228,false,false,246,image-keyboard-response,30
true,2,1,1,1,true,z,false,true,0.0-2.0-0.6-0.56-3.56,0,0,0,90,false,stim,false,0,553,1,0,2,75720,task2,259301,false,false,249,image-keyboard-response,31
true,2,0,1,0,true,q,false,false,0.0-2.0-0.6-0.57-3.57,0,0,0,81,false,stim,false,2,538,1,0,0,75720,task2,261352,false,true,252,image-keyboard-response,32
true,2,1,1,1,true,z,false,true,0.0-2.0-0.6-0.58-3.58,0,0,0,90,false,stim,false,0,939,1,0,1,75720,task2,263818,false,false,255,image-keyboard-response,33
true,2,1,1,0,false,q,true,false,0.0-2.0-0.6-0.59-3.59,0,0,0,90,false,stim,false,2,1367,1,0,0,75720,task2,266718,false,false,258,image-keyboard-response,34
true,2,1,1,1,true,z,false,true,0.0-2.0-0.6-0.60-3.60,0,0,0,90,false,stim,false,0,557,1,0,2,75720,task2,268804,false,false,261,image-keyboard-response,35
true,3,0,1,1,false,z,false,true,0.0-2.0-0.6-0.61-3.61,0,0,0,81,true,stim,true,0,843,1,0,0,75720,task2,271165,false,true,264,image-keyboard-response,1
true,3,1,1,2,false,d,false,false,0.0-2.0-0.6-0.62-3.62,0,0,0,90,false,stim,true,1,632,1,0,2,75720,task2,273323,false,false,267,image-keyboard-response,2
true,3,0,1,1,false,z,false,true,0.0-2.0-0.7-0.63-3.63,0,0,0,81,false,stim,true,0,1223,1,0,0,75720,task2,276068,false,true,270,image-keyboard-response,3
true,3,1,1,2,false,d,false,false,0.0-2.0-0.7-0.64-3.64,0,0,0,90,false,stim,true,1,625,1,0,1,75720,task2,278212,false,false,273,image-keyboard-response,4
true,3,0,1,2,false,d,true,false,0.0-2.0-0.7-0.65-3.65,0,0,0,81,false,stim,false,1,649,1,0,2,75720,task2,280380,false,false,276,image-keyboard-response,5
true,3,2,1,2,true,d,false,true,0.0-2.0-0.7-0.66-3.66,0,0,0,68,false,stim,false,1,1493,1,0,1,75720,task2,283383,false,false,279,image-keyboard-response,6
true,3,1,1,2,false,d,false,false,0.0-2.0-0.7-0.67-3.67,0,0,0,90,false,stim,true,1,717,1,0,2,75720,task2,285615,false,false,282,image-keyboard-response,7
true,3,0,1,2,false,d,true,false,0.0-2.0-0.7-0.68-3.68,0,0,0,81,false,stim,false,1,1178,1,0,2,75720,task2,288322,false,false,285,image-keyboard-response,8
true,3,0,1,1,false,z,false,false,0.0-2.0-0.7-0.69-3.69,0,0,0,81,false,stim,true,0,635,1,0,0,75720,task2,290483,false,false,288,image-keyboard-response,9
true,3,2,1,1,false,z,true,false,0.0-2.0-0.7-0.70-3.70,0,0,0,68,false,stim,false,0,808,1,0,0,75720,task2,292819,false,false,291,image-keyboard-response,10
true,3,2,1,2,true,d,false,true,0.0-2.0-0.7-0.71-3.71,0,0,0,68,false,stim,false,1,889,1,0,1,75720,task2,295220,false,false,294,image-keyboard-response,11
true,3,2,1,2,true,d,false,true,0.0-2.0-0.8-0.72-3.72,0,0,0,68,false,stim,false,1,739,1,0,1,75720,task2,297476,false,false,297,image-keyboard-response,12
true,3,2,1,1,false,z,true,false,0.0-2.0-0.8-0.73-3.73,0,0,0,68,false,stim,false,0,743,1,0,0,75720,task2,299742,false,false,300,image-keyboard-response,13
true,3,2,1,2,true,d,false,true,0.0-2.0-0.8-0.74-3.74,0,0,0,68,false,stim,false,1,571,1,0,2,75720,task2,301850,false,false,303,image-keyboard-response,14
true,3,2,1,2,true,d,false,true,0.0-2.0-0.8-0.75-3.75,0,0,0,68,false,stim,false,1,914,1,0,1,75720,task2,304281,false,false,306,image-keyboard-response,15
true,3,2,1,2,true,d,false,true,0.0-2.0-0.8-0.76-3.76,0,0,0,68,false,stim,false,1,564,1,0,2,75720,task2,306363,false,false,309,image-keyboard-response,16
true,3,2,1,2,true,d,false,true,0.0-2.0-0.8-0.77-3.77,0,0,0,68,false,stim,false,1,637,1,0,2,75720,task2,308517,false,false,312,image-keyboard-response,17
true,3,1,1,1,true,z,false,true,0.0-2.0-0.8-0.78-3.78,0,0,0,90,false,stim,false,0,1340,1,0,0,75720,task2,311379,false,false,315,image-keyboard-response,18
true,3,1,1,1,true,z,false,true,0.0-2.0-0.8-0.79-3.79,0,0,0,90,false,stim,false,0,1084,1,0,0,75720,task2,313982,false,false,318,image-keyboard-response,19
true,3,2,1,2,true,d,false,false,0.0-2.0-0.8-0.80-3.80,0,0,0,68,false,stim,false,1,1175,1,0,1,75720,task2,316678,false,true,321,image-keyboard-response,20
true,3,1,1,1,true,z,false,false,0.0-2.0-0.9-0.81-3.81,0,0,0,90,false,stim,false,0,756,1,0,0,75720,task2,318963,false,true,324,image-keyboard-response,21
true,3,2,1,1,false,z,true,true,0.0-2.0-0.9-0.82-3.82,0,0,0,68,false,stim,false,0,1042,1,0,0,75720,task2,321527,false,true,327,image-keyboard-response,22
true,3,2,1,1,false,z,true,false,0.0-2.0-0.9-0.83-3.83,0,0,0,68,false,stim,false,0,701,1,0,0,75720,task2,323740,false,false,330,image-keyboard-response,23
true,3,1,1,2,false,d,false,true,0.0-2.0-0.9-0.84-3.84,0,0,0,90,false,stim,true,1,1172,1,0,1,75720,task2,326425,false,true,333,image-keyboard-response,24
true,3,1,1,2,false,d,false,false,0.0-2.0-0.9-0.85-3.85,0,0,0,90,false,stim,true,1,481,1,0,1,75720,task2,328430,false,false,336,image-keyboard-response,25
true,3,2,1,2,true,d,false,true,0.0-2.0-0.9-0.86-3.86,0,0,0,68,false,stim,false,1,747,1,0,2,75720,task2,330689,false,false,339,image-keyboard-response,26
true,3,2,1,2,true,d,false,true,0.0-2.0-0.9-0.87-3.87,0,0,0,68,false,stim,false,1,528,1,0,2,75720,task2,332747,false,false,342,image-keyboard-response,27
true,3,0,1,2,false,d,true,false,0.0-2.0-0.9-0.88-3.88,0,0,0,81,false,stim,false,1,615,1,0,1,75720,task2,334878,false,false,345,image-keyboard-response,28
true,3,2,1,2,true,d,false,true,0.0-2.0-0.9-0.89-3.89,0,0,0,68,false,stim,false,1,577,1,0,2,75720,task2,336973,false,false,348,image-keyboard-response,29
true,3,2,1,2,true,d,false,true,0.0-2.0-0.10-0.90-3.90,0,0,0,68,false,stim,false,1,480,1,0,2,75720,task2,338977,false,false,351,image-keyboard-response,30
true,3,2,1,2,true,d,false,true,0.0-2.0-0.10-0.91-3.91,0,0,0,68,false,stim,false,1,489,1,0,2,75720,task2,340987,false,false,354,image-keyboard-response,31
true,3,2,1,1,false,z,true,false,0.0-2.0-0.10-0.92-3.92,0,0,0,68,false,stim,false,0,1332,1,0,0,75720,task2,343834,false,false,357,image-keyboard-response,32
true,3,1,1,1,true,z,false,false,0.0-2.0-0.10-0.93-3.93,0,0,0,90,false,stim,false,0,510,1,0,0,75720,task2,345869,false,true,360,image-keyboard-response,33
true,3,2,1,2,true,d,false,false,0.0-2.0-0.10-0.94-3.94,0,0,0,68,false,stim,false,1,951,1,0,1,75720,task2,348335,false,true,363,image-keyboard-response,34
true,4,2,1,0,false,q,false,false,0.0-2.0-0.10-0.95-3.95,0,0,0,68,true,stim,true,2,540,1,0,2,75720,task2,350400,false,false,366,image-keyboard-response,1
true,4,0,1,1,false,z,true,false,0.0-2.0-0.10-0.96-3.96,0,0,0,81,false,stim,false,2,575,1,0,1,75720,task2,352497,false,false,369,image-keyboard-response,2
true,4,1,1,1,true,z,false,true,0.0-2.0-0.10-0.97-3.97,0,0,0,90,false,stim,false,2,557,1,0,1,75720,task2,354579,false,false,372,image-keyboard-response,3
true,4,1,1,2,false,d,false,false,0.0-2.0-0.10-0.98-3.98,0,0,0,90,false,stim,true,1,428,1,0,0,75720,task2,356516,false,false,375,image-keyboard-response,4
true,4,1,1,1,true,z,false,true,0.0-2.0-0.11-0.99-3.99,0,0,0,90,false,stim,false,2,606,1,0,1,75720,task2,358634,false,false,378,image-keyboard-response,5
true,4,1,1,1,true,z,false,true,0.0-2.0-0.11-0.100-3.100,0,0,0,90,false,stim,false,2,627,1,0,1,75720,task2,360779,false,false,381,image-keyboard-response,6
true,4,1,1,1,true,z,false,true,0.0-2.0-0.11-0.101-3.101,0,0,0,90,false,stim,false,2,481,1,0,1,75720,task2,362781,false,false,384,image-keyboard-response,7
true,4,1,1,2,false,d,false,false,0.0-2.0-0.11-0.102-3.102,0,0,0,90,false,stim,true,1,997,1,0,0,75720,task2,365293,false,false,387,image-keyboard-response,8
true,4,0,1,2,false,d,true,false,0.0-2.0-0.11-0.103-3.103,0,0,0,81,false,stim,false,1,516,1,0,0,75720,task2,367331,false,false,390,image-keyboard-response,9
true,4,1,1,0,false,q,true,false,0.0-2.0-0.11-0.104-3.104,0,0,0,90,false,stim,false,2,1050,1,0,2,75720,task2,369909,false,false,393,image-keyboard-response,10
true,4,2,1,2,true,d,false,true,0.0-2.0-0.11-0.105-3.105,0,0,0,68,false,stim,false,1,1870,1,0,0,75720,task2,373307,false,false,396,image-keyboard-response,11
true,4,2,1,0,false,q,false,false,0.0-2.0-0.11-0.106-3.106,0,0,0,68,false,stim,true,2,683,1,0,2,75720,task2,375522,false,false,399,image-keyboard-response,12
true,4,1,1,0,false,q,true,false,0.0-2.0-0.11-0.107-3.107,0,0,0,90,false,stim,false,2,917,1,0,2,75720,task2,377973,false,false,402,image-keyboard-response,13
true,4,2,1,2,true,d,false,true,0.0-2.0-0.12-0.108-3.108,0,0,0,68,false,stim,false,1,833,1,0,0,75720,task2,380334,false,false,405,image-keyboard-response,14
true,4,1,1,1,true,z,false,true,0.0-2.0-0.12-0.109-3.109,0,0,0,90,false,stim,false,2,468,1,0,1,75720,task2,382320,false,false,408,image-keyboard-response,15
true,4,1,1,1,true,z,false,true,0.0-2.0-0.12-0.110-3.110,0,0,0,90,false,stim,false,2,380,1,0,1,75720,task2,384230,false,false,411,image-keyboard-response,16
true,4,2,1,2,true,d,false,true,0.0-2.0-0.12-0.111-3.111,0,0,0,68,false,stim,false,1,627,1,0,0,75720,task2,386374,false,false,414,image-keyboard-response,17
true,4,0,1,0,true,q,false,true,0.0-2.0-0.12-0.112-3.112,0,0,0,81,false,stim,false,2,1011,1,0,2,75720,task2,388899,false,false,417,image-keyboard-response,18
true,4,1,1,1,true,z,false,true,0.0-2.0-0.12-0.113-3.113,0,0,0,90,false,stim,false,2,582,1,0,1,75720,task2,391005,false,false,420,image-keyboard-response,19
true,4,1,1,0,false,q,true,false,0.0-2.0-0.12-0.114-3.114,0,0,0,90,false,stim,false,2,748,1,0,2,75720,task2,393271,false,false,423,image-keyboard-response,20
true,4,0,1,0,true,q,false,true,0.0-2.0-0.12-0.115-3.115,0,0,0,81,false,stim,false,2,685,1,0,2,75720,task2,395477,false,false,426,image-keyboard-response,21
true,4,2,1,2,true,d,false,true,0.0-2.0-0.12-0.116-3.116,0,0,0,68,false,stim,false,1,737,1,0,0,75720,task2,397736,false,false,429,image-keyboard-response,22
true,4,1,1,1,true,z,false,true,0.0-2.0-0.13-0.117-3.117,0,0,0,90,false,stim,false,2,719,1,0,1,75720,task2,399978,false,false,432,image-keyboard-response,23
true,4,1,1,1,true,z,false,true,0.0-2.0-0.13-0.118-3.118,0,0,0,90,false,stim,false,2,795,1,0,1,75720,task2,402291,false,false,435,image-keyboard-response,24
true,4,2,1,2,true,d,false,true,0.0-2.0-0.13-0.119-3.119,0,0,0,68,false,stim,false,1,871,1,0,0,75720,task2,404683,false,false,438,image-keyboard-response,25
true,4,1,1,1,true,z,false,true,0.0-2.0-0.13-0.120-3.120,0,0,0,90,false,stim,false,2,883,1,0,1,75720,task2,407084,false,false,441,image-keyboard-response,26
true,4,2,1,2,true,d,false,true,0.0-2.0-0.13-0.121-3.121,0,0,0,68,false,stim,false,1,885,1,0,0,75720,task2,409488,false,false,444,image-keyboard-response,27
true,4,0,1,0,true,q,false,true,0.0-2.0-0.13-0.122-3.122,0,0,0,81,false,stim,false,2,759,1,0,2,75720,task2,411775,false,false,447,image-keyboard-response,28
true,4,2,1,2,true,d,false,true,0.0-2.0-0.13-0.123-3.123,0,0,0,68,false,stim,false,1,799,1,0,0,75720,task2,414099,false,false,450,image-keyboard-response,29
true,4,0,1,0,true,q,false,true,0.0-2.0-0.13-0.124-3.124,0,0,0,81,false,stim,false,2,666,1,0,2,75720,task2,416286,false,false,453,image-keyboard-response,30
true,4,0,1,0,true,q,false,false,0.0-2.0-0.13-0.125-3.125,0,0,0,81,false,stim,false,2,844,1,0,2,75720,task2,418654,false,true,456,image-keyboard-response,31
true,4,1,1,0,false,q,true,false,0.0-2.0-0.14-0.126-3.126,0,0,0,90,false,stim,false,2,764,1,0,2,75720,task2,420946,false,false,459,image-keyboard-response,32
true,4,1,1,1,true,z,false,true,0.0-2.0-0.14-0.127-3.127,0,0,0,90,false,stim,false,2,815,1,0,1,75720,task2,423278,false,false,462,image-keyboard-response,33
true,4,2,1,2,true,d,false,true,0.0-2.0-0.14-0.128-3.128,0,0,0,68,false,stim,false,1,741,1,0,0,75720,task2,425545,false,false,465,image-keyboard-response,34
true,4,2,1,2,true,d,false,true,0.0-2.0-0.14-0.129-3.129,0,0,0,68,false,stim,false,1,980,1,0,0,75720,task2,428030,false,false,468,image-keyboard-response,35
true,4,1,1,1,true,z,false,true,0.0-2.0-0.14-0.130-3.130,0,0,0,90,false,stim,false,2,1087,1,0,1,75720,task2,430643,false,false,471,image-keyboard-response,36
true,5,1,1,0,false,q,false,false,0.0-2.0-0.14-0.131-3.131,0,0,0,90,true,stim,true,1,567,1,0,1,75720,task2,432723,false,false,474,image-keyboard-response,1
true,5,2,1,0,false,q,false,false,0.0-2.0-0.14-0.132-3.132,0,0,0,68,false,stim,true,2,513,1,0,0,75720,task2,434757,false,false,477,image-keyboard-response,2
true,5,0,1,2,false,d,false,true,0.0-2.0-0.14-0.133-3.133,0,0,0,81,false,stim,true,0,473,1,0,2,75720,task2,436740,false,true,480,image-keyboard-response,3
true,5,0,1,2,false,d,false,true,0.0-2.0-0.14-0.134-3.134,0,0,0,81,false,stim,true,0,621,1,0,2,75720,task2,438879,false,true,483,image-keyboard-response,4
true,5,0,1,2,false,d,false,false,0.0-2.0-0.15-0.135-3.135,0,0,0,81,false,stim,true,0,477,1,0,2,75720,task2,440879,false,false,486,image-keyboard-response,5
true,5,1,1,0,false,q,false,false,0.0-2.0-0.15-0.136-3.136,0,0,0,90,false,stim,true,1,721,1,0,1,75720,task2,443128,false,false,489,image-keyboard-response,6
true,5,0,1,0,true,q,false,true,0.0-2.0-0.15-0.137-3.137,0,0,0,81,false,stim,false,2,711,1,0,0,75720,task2,445364,false,false,492,image-keyboard-response,7
true,5,2,1,2,true,d,false,false,0.0-2.0-0.15-0.138-3.138,0,0,0,68,false,stim,false,0,499,1,0,2,75720,task2,447389,false,true,495,image-keyboard-response,8
true,5,2,1,0,false,q,true,true,0.0-2.0-0.15-0.139-3.139,0,0,0,68,false,stim,false,1,1111,1,0,1,75720,task2,450025,false,true,498,image-keyboard-response,9
true,5,0,1,0,true,q,false,true,0.0-2.0-0.15-0.140-3.140,0,0,0,81,false,stim,false,2,682,1,0,0,75720,task2,452229,false,false,501,image-keyboard-response,10
true,5,0,1,2,false,d,false,false,0.0-2.0-0.15-0.141-3.141,0,0,0,81,false,stim,true,0,1028,1,0,2,75720,task2,454779,false,false,504,image-keyboard-response,11
true,5,0,1,0,true,q,false,true,0.0-2.0-0.15-0.142-3.142,0,0,0,81,false,stim,false,2,814,1,0,0,75720,task2,457106,false,false,507,image-keyboard-response,12
true,5,2,1,0,false,q,true,false,0.0-2.0-0.15-0.143-3.143,0,0,0,68,false,stim,false,1,681,1,0,1,75720,task2,459309,false,false,510,image-keyboard-response,13
true,5,2,1,2,true,d,false,true,0.0-2.0-0.16-0.144-3.144,0,0,0,68,false,stim,false,0,807,1,0,2,75720,task2,461647,false,false,513,image-keyboard-response,14
true,5,2,1,2,true,d,false,true,0.0-2.0-0.16-0.145-3.145,0,0,0,68,false,stim,false,0,468,1,0,2,75720,task2,463634,false,false,516,image-keyboard-response,15
true,5,2,1,0,false,q,true,true,0.0-2.0-0.16-0.146-3.146,0,0,0,68,false,stim,false,1,778,1,0,1,75720,task2,465929,false,true,519,image-keyboard-response,16
true,5,0,1,0,true,q,false,true,0.0-2.0-0.16-0.147-3.147,0,0,0,81,false,stim,false,2,627,1,0,0,75720,task2,468081,false,false,522,image-keyboard-response,17
true,5,0,1,0,true,q,false,true,0.0-2.0-0.16-0.148-3.148,0,0,0,81,false,stim,false,2,476,1,0,0,75720,task2,470074,false,false,525,image-keyboard-response,18
true,5,2,1,0,false,q,true,false,0.0-2.0-0.16-0.149-3.149,0,0,0,68,false,stim,false,1,768,1,0,1,75720,task2,472363,false,false,528,image-keyboard-response,19
true,5,0,1,2,false,d,false,false,0.0-2.0-0.16-0.150-3.150,0,0,0,81,false,stim,true,0,1308,1,0,2,75720,task2,475190,false,false,531,image-keyboard-response,20
true,5,1,1,0,false,q,false,false,0.0-2.0-0.16-0.151-3.151,0,0,0,90,false,stim,true,1,1183,1,0,1,75720,task2,477892,false,false,534,image-keyboard-response,21
true,5,0,1,0,true,q,false,true,0.0-2.0-0.16-0.152-3.152,0,0,0,81,false,stim,false,2,825,1,0,0,75720,task2,480237,false,false,537,image-keyboard-response,22
true,5,0,1,0,true,q,false,true,0.0-2.0-0.17-0.153-3.153,0,0,0,81,false,stim,false,2,655,1,0,0,75720,task2,482409,false,false,540,image-keyboard-response,23
true,5,0,1,0,true,q,false,true,0.0-2.0-0.17-0.154-3.154,0,0,0,81,false,stim,false,2,805,1,0,0,75720,task2,484736,false,false,543,image-keyboard-response,24
true,5,0,1,0,true,q,false,true,0.0-2.0-0.17-0.155-3.155,0,0,0,81,false,stim,false,2,519,1,0,0,75720,task2,486772,false,false,546,image-keyboard-response,25
true,5,1,1,2,false,d,true,false,0.0-2.0-0.17-0.156-3.156,0,0,0,90,false,stim,false,0,1090,1,0,2,75720,task2,489384,false,false,549,image-keyboard-response,26
true,5,2,1,2,true,d,false,false,0.0-2.0-0.17-0.157-3.157,0,0,0,68,false,stim,false,0,915,1,0,2,75720,task2,491823,false,true,552,image-keyboard-response,27
true,5,0,1,2,false,d,false,false,0.0-2.0-0.17-0.158-3.158,0,0,0,81,false,stim,true,0,581,1,0,2,75720,task2,493925,false,false,555,image-keyboard-response,28
true,5,2,1,0,false,q,true,false,0.0-2.0-0.17-0.159-3.159,0,0,0,68,false,stim,false,1,1376,1,0,1,75720,task2,496807,false,false,558,image-keyboard-response,29
true,5,0,1,0,true,q,false,true,0.0-2.0-0.17-0.160-3.160,0,0,0,81,false,stim,false,1,654,1,0,1,75720,task2,498987,false,false,561,image-keyboard-response,30
true,5,0,1,0,true,q,false,true,0.0-2.0-0.17-0.161-3.161,0,0,0,81,false,stim,false,1,523,1,0,1,75720,task2,501038,false,false,564,image-keyboard-response,31
true,5,0,1,0,true,q,false,true,0.0-2.0-0.18-0.162-3.162,0,0,0,81,false,stim,false,1,422,1,0,1,75720,task2,502981,false,false,567,image-keyboard-response,32
true,5,0,1,0,true,q,false,false,0.0-2.0-0.18-0.163-3.163,0,0,0,81,false,stim,false,1,601,1,0,1,75720,task2,505095,false,true,570,image-keyboard-response,33
true,5,1,1,2,false,d,true,false,0.0-2.0-0.18-0.164-3.164,0,0,0,90,false,stim,false,0,1550,1,1,2,75720,task2,508158,false,false,573,image-keyboard-response,34
true,5,2,1,2,true,d,false,true,0.0-2.0-0.18-0.165-3.165,0,0,0,68,false,stim,false,0,748,1,1,2,75720,task2,510432,false,false,576,image-keyboard-response,35
true,5,0,1,0,true,q,false,true,0.0-2.0-0.18-0.166-3.166,0,0,0,81,false,stim,false,2,533,1,0,0,75720,task2,512479,false,false,579,image-keyboard-response,36
true,6,0,2,1,false,z,false,false,0.0-2.0-0.18-0.167-3.167,0,0,1,81,true,stim,true,0,610,1,0,0,75720,task2,514610,false,false,582,image-keyboard-response,1
true,6,2,2,2,true,d,false,true,0.0-2.0-0.18-0.168-3.168,0,0,1,68,false,stim,false,2,477,1,1,2,75720,task2,516615,false,false,585,image-keyboard-response,2
true,6,1,2,1,true,z,false,true,0.0-2.0-0.18-0.169-3.169,0,0,1,90,false,stim,false,0,762,1,0,1,75720,task2,518895,false,false,588,image-keyboard-response,3
true,6,2,2,1,false,z,true,false,0.0-2.0-0.18-0.170-3.170,0,0,1,68,false,stim,false,0,1141,1,0,0,75720,task2,521558,false,false,591,image-keyboard-response,4
true,6,1,2,1,true,z,false,true,0.0-2.0-0.19-0.171-3.171,0,0,1,90,false,stim,false,0,457,1,0,1,75720,task2,523539,false,false,594,image-keyboard-response,5
true,6,2,2,2,true,d,false,true,0.0-2.0-0.19-0.172-3.172,0,0,1,68,false,stim,false,2,540,1,1,2,75720,task2,525609,false,false,597,image-keyboard-response,6
true,6,1,2,2,false,d,true,true,0.0-2.0-0.19-0.173-3.173,0,0,1,90,false,stim,false,2,1537,1,1,2,75720,task2,528676,false,true,600,image-keyboard-response,7
true,6,1,2,2,false,d,true,false,0.0-2.0-0.19-0.174-3.174,0,0,1,90,false,stim,false,2,559,1,1,2,75720,task2,530773,false,false,603,image-keyboard-response,8
true,6,1,2,1,true,z,false,true,0.0-2.0-0.19-0.175-3.175,0,0,1,90,false,stim,false,0,860,1,0,0,75720,task2,533160,false,false,606,image-keyboard-response,9
true,6,1,2,1,true,z,false,true,0.0-2.0-0.19-0.176-3.176,0,0,1,90,false,stim,false,0,385,1,0,1,75720,task2,535073,false,false,609,image-keyboard-response,10
true,6,1,2,1,true,z,false,true,0.0-2.0-0.19-0.177-3.177,0,0,1,90,false,stim,false,0,615,1,0,1,75720,task2,537218,false,false,612,image-keyboard-response,11
true,6,1,2,1,true,z,false,true,0.0-2.0-0.19-0.178-3.178,0,0,1,90,false,stim,false,0,930,1,0,0,75720,task2,539670,false,false,615,image-keyboard-response,12
true,6,1,2,1,true,z,false,true,0.0-2.0-0.19-0.179-3.179,0,0,1,90,false,stim,false,0,949,1,0,0,75720,task2,542147,false,false,618,image-keyboard-response,13
true,6,2,2,2,true,d,false,true,0.0-2.0-0.20-0.180-3.180,0,0,1,68,false,stim,false,2,662,1,1,2,75720,task2,544334,false,false,621,image-keyboard-response,14
true,6,2,2,2,true,d,false,true,0.0-2.0-0.20-0.181-3.181,0,0,1,68,false,stim,false,2,622,1,1,2,75720,task2,546481,false,false,624,image-keyboard-response,15
true,6,1,2,1,true,z,false,true,0.0-2.0-0.20-0.182-3.182,0,0,1,90,false,stim,false,0,1148,1,0,0,75720,task2,549157,false,false,627,image-keyboard-response,16
true,6,1,2,1,true,z,false,true,0.0-2.0-0.20-0.183-3.183,0,0,1,90,false,stim,false,0,801,1,0,1,75720,task2,551480,false,false,630,image-keyboard-response,17
true,6,1,2,1,true,z,false,true,0.0-2.0-0.20-0.184-3.184,0,0,1,90,false,stim,false,0,819,1,0,0,75720,task2,553834,false,false,633,image-keyboard-response,18
true,6,1,2,1,true,z,false,true,0.0-2.0-0.20-0.185-3.185,0,0,1,90,false,stim,false,0,605,1,0,1,75720,task2,555958,false,false,636,image-keyboard-response,19
true,6,1,2,1,true,z,false,true,0.0-2.0-0.20-0.186-3.186,0,0,1,90,false,stim,false,0,403,1,0,1,75720,task2,557888,false,false,639,image-keyboard-response,20
true,6,1,2,1,true,z,false,true,0.0-2.0-0.20-0.187-3.187,0,0,1,90,false,stim,false,0,482,1,0,0,75720,task2,559901,false,false,642,image-keyboard-response,21
true,6,2,2,2,true,d,false,true,0.0-2.0-0.20-0.188-3.188,0,0,1,68,false,stim,false,2,528,1,1,2,75720,task2,561955,false,false,645,image-keyboard-response,22
true,6,2,2,2,true,d,false,true,0.0-2.0-0.21-0.189-3.189,0,0,1,68,false,stim,false,2,707,1,1,2,75720,task2,564191,false,false,648,image-keyboard-response,23
true,6,1,2,1,true,z,false,true,0.0-2.0-0.21-0.190-3.190,0,0,1,90,false,stim,false,0,881,1,0,1,75720,task2,566596,false,false,651,image-keyboard-response,24
true,6,1,2,1,true,z,false,true,0.0-2.0-0.21-0.191-3.191,0,0,1,90,false,stim,false,0,450,1,0,1,75720,task2,568578,false,false,654,image-keyboard-response,25
true,6,1,2,1,true,z,false,true,0.0-2.0-0.21-0.192-3.192,0,0,1,90,false,stim,false,0,469,1,0,1,75720,task2,570562,false,false,657,image-keyboard-response,26
true,6,2,2,2,true,d,false,true,0.0-2.0-0.21-0.193-3.193,0,0,1,68,false,stim,false,2,1116,1,1,2,75720,task2,573204,false,false,660,image-keyboard-response,27
true,6,1,2,1,true,z,false,true,0.0-2.0-0.21-0.194-3.194,0,0,1,90,false,stim,false,0,617,1,0,0,75720,task2,575338,false,false,663,image-keyboard-response,28
true,6,1,2,1,true,z,false,true,0.0-2.0-0.21-0.195-3.195,0,0,1,90,false,stim,false,0,704,1,0,0,75720,task2,577567,false,false,666,image-keyboard-response,29
true,6,2,2,2,true,d,false,true,0.0-2.0-0.21-0.196-3.196,0,0,1,68,false,stim,false,2,700,1,1,2,75720,task2,579795,false,false,669,image-keyboard-response,30
true,6,1,2,1,true,z,false,true,0.0-2.0-0.21-0.197-3.197,0,0,1,90,false,stim,false,0,708,1,0,0,75720,task2,582020,false,false,672,image-keyboard-response,31
true,6,2,2,2,true,d,false,true,0.0-2.0-0.22-0.198-3.198,0,0,1,68,false,stim,false,2,861,1,0,2,75720,task2,584411,false,false,675,image-keyboard-response,32
true,6,1,2,1,true,z,false,true,0.0-2.0-0.22-0.199-3.199,0,0,1,90,false,stim,false,0,1326,1,1,1,75720,task2,587260,false,false,678,image-keyboard-response,33
true,6,2,2,2,true,d,false,true,0.0-2.0-0.22-0.200-3.200,0,0,1,68,false,stim,false,2,887,1,0,2,75720,task2,589668,false,false,681,image-keyboard-response,34
true,6,1,2,1,true,z,false,true,0.0-2.0-0.22-0.201-3.201,0,0,1,90,false,stim,false,0,647,1,1,1,75720,task2,591834,false,false,684,image-keyboard-response,35
true,7,1,2,1,true,z,false,true,0.0-2.0-0.22-0.202-3.202,0,1,0,90,true,stim,false,1,546,1,1,1,75720,task2,593894,false,false,687,image-keyboard-response,1
true,7,1,2,2,false,d,false,false,0.0-2.0-0.22-0.203-3.203,0,1,0,90,false,stim,true,1,755,1,0,0,75720,task2,596181,false,false,690,image-keyboard-response,2
true,7,2,2,2,true,d,false,true,0.0-2.0-0.22-0.204-3.204,0,1,0,68,false,stim,false,1,1152,1,0,0,75720,task2,598860,false,false,693,image-keyboard-response,3
true,7,2,2,1,false,z,false,false,0.0-2.0-0.22-0.205-3.205,0,1,0,68,false,stim,true,2,883,1,0,2,75720,task2,601266,false,false,696,image-keyboard-response,4
true,7,2,2,2,true,d,false,true,0.0-2.0-0.22-0.206-3.206,0,1,0,68,false,stim,false,1,867,1,0,0,75720,task2,603661,false,false,699,image-keyboard-response,5
true,7,2,2,2,true,d,false,true,0.0-2.0-0.23-0.207-3.207,0,1,0,68,false,stim,false,1,698,1,0,0,75720,task2,605896,false,false,702,image-keyboard-response,6
true,7,1,2,1,true,z,false,false,0.0-2.0-0.23-0.208-3.208,0,1,0,90,false,stim,false,1,507,1,1,1,75720,task2,607921,false,true,705,image-keyboard-response,7
true,7,1,2,1,true,z,false,true,0.0-2.0-0.23-0.209-3.209,0,1,0,90,false,stim,false,2,499,1,0,2,75720,task2,609947,false,false,708,image-keyboard-response,8
true,7,2,2,1,false,z,true,false,0.0-2.0-0.23-0.210-3.210,0,1,0,68,false,stim,false,1,1840,1,1,1,75720,task2,613307,false,false,711,image-keyboard-response,9
true,7,1,2,1,true,z,false,true,0.0-2.0-0.23-0.211-3.211,0,1,0,90,false,stim,false,2,587,1,0,2,75720,task2,615409,false,false,714,image-keyboard-response,10
true,7,0,2,1,false,z,true,false,0.0-2.0-0.23-0.212-3.212,0,1,0,81,false,stim,false,1,1085,1,1,1,75720,task2,618010,false,false,717,image-keyboard-response,11
true,7,1,2,1,true,z,false,true,0.0-2.0-0.23-0.213-3.213,0,1,0,90,false,stim,false,2,865,1,0,2,75720,task2,620403,false,false,720,image-keyboard-response,12
true,7,2,2,2,true,d,false,true,0.0-2.0-0.23-0.214-3.214,0,1,0,68,false,stim,false,1,604,1,0,0,75720,task2,622520,false,false,723,image-keyboard-response,13
true,7,2,2,2,true,d,false,true,0.0-2.0-0.23-0.215-3.215,0,1,0,68,false,stim,false,1,536,1,0,0,75720,task2,624573,false,false,726,image-keyboard-response,14
true,7,2,2,2,true,d,false,false,0.0-2.0-0.24-0.216-3.216,0,1,0,68,false,stim,false,1,662,1,0,0,75720,task2,626761,false,true,729,image-keyboard-response,15
true,7,1,2,1,true,z,false,true,0.0-2.0-0.24-0.217-3.217,0,1,0,90,false,stim,false,2,532,1,0,2,75720,task2,628812,false,false,732,image-keyboard-response,16
true,7,1,2,1,true,z,false,true,0.0-2.0-0.24-0.218-3.218,0,1,0,90,false,stim,false,1,789,1,1,1,75720,task2,631124,false,false,735,image-keyboard-response,17
true,7,1,2,2,false,d,false,false,0.0-2.0-0.24-0.219-3.219,0,1,0,90,false,stim,true,1,436,1,0,0,75720,task2,633076,false,false,738,image-keyboard-response,18
true,7,1,2,1,true,z,false,true,0.0-2.0-0.24-0.220-3.220,0,1,0,90,false,stim,false,2,669,1,0,2,75720,task2,635260,false,false,741,image-keyboard-response,19
true,7,1,2,1,true,z,false,true,0.0-2.0-0.24-0.221-3.221,0,1,0,90,false,stim,false,2,586,1,0,2,75720,task2,637359,false,false,744,image-keyboard-response,20
true,7,0,2,2,false,d,true,false,0.0-2.0-0.24-0.222-3.222,0,1,0,81,false,stim,false,1,904,1,0,0,75720,task2,639785,false,false,747,image-keyboard-response,21
true,7,1,2,1,true,z,false,true,0.0-2.0-0.24-0.223-3.223,0,1,0,90,false,stim,false,1,931,1,1,1,75720,task2,642243,false,false,750,image-keyboard-response,22
true,7,1,2,1,true,z,false,true,0.0-2.0-0.24-0.224-3.224,0,1,0,90,false,stim,false,1,535,1,1,1,75720,task2,644304,false,false,753,image-keyboard-response,23
true,7,1,2,1,true,z,false,true,0.0-2.0-0.25-0.225-3.225,0,1,0,90,false,stim,false,1,425,1,1,1,75720,task2,646247,false,false,756,image-keyboard-response,24
true,7,1,2,1,true,z,false,true,0.0-2.0-0.25-0.226-3.226,0,1,0,90,false,stim,false,2,810,1,0,2,75720,task2,648585,false,false,759,image-keyboard-response,25
true,7,2,2,2,true,d,false,true,0.0-2.0-0.25-0.227-3.227,0,1,0,68,false,stim,false,1,927,1,0,0,75720,task2,651030,false,false,762,image-keyboard-response,26
true,7,1,2,1,true,z,false,true,0.0-2.0-0.25-0.228-3.228,0,1,0,90,false,stim,false,1,700,1,1,1,75720,task2,653259,false,false,765,image-keyboard-response,27
true,7,1,2,1,true,z,false,true,0.0-2.0-0.25-0.229-3.229,0,1,0,90,false,stim,false,2,808,1,0,2,75720,task2,655591,false,false,768,image-keyboard-response,28
true,7,2,2,2,true,d,false,true,0.0-2.0-0.25-0.230-3.230,0,1,0,68,false,stim,false,1,590,1,0,0,75720,task2,657709,false,false,771,image-keyboard-response,29
true,7,2,2,2,true,d,false,true,0.0-2.0-0.25-0.231-3.231,0,1,0,68,false,stim,false,1,461,1,0,0,75720,task2,659694,false,false,774,image-keyboard-response,30
true,7,1,2,1,true,z,false,true,0.0-2.0-0.25-0.232-3.232,0,1,0,90,false,stim,false,1,1175,1,0,1,75720,task2,662399,false,false,777,image-keyboard-response,31
true,7,1,2,1,true,z,false,true,0.0-2.0-0.25-0.233-3.233,0,1,0,90,false,stim,false,2,784,1,0,2,75720,task2,664700,false,false,780,image-keyboard-response,32
true,7,1,2,1,true,z,false,true,0.0-2.0-0.26-0.234-3.234,0,1,0,90,false,stim,false,2,442,1,0,2,75720,task2,666671,false,false,783,image-keyboard-response,33
true,7,1,2,1,true,z,false,false,0.0-2.0-0.26-0.235-3.235,0,1,0,90,false,stim,false,1,884,1,0,1,75720,task2,669084,false,true,786,image-keyboard-response,34
true,7,2,2,1,false,z,true,false,0.0-2.0-0.26-0.236-3.236,0,1,0,68,false,stim,false,1,745,1,0,1,75720,task2,671354,false,false,789,image-keyboard-response,35
true,8,1,1,2,false,d,false,false,0.0-2.0-0.26-0.237-3.237,0,0,0,90,true,stim,true,1,743,1,0,2,75720,task2,673626,false,false,792,image-keyboard-response,1
true,8,0,1,0,true,q,false,true,0.0-2.0-0.26-0.238-3.238,0,0,0,81,false,stim,false,1,982,1,0,1,75720,task2,676128,false,false,795,image-keyboard-response,2
true,8,2,1,1,false,z,false,false,0.0-2.0-0.26-0.239-3.239,0,0,0,68,false,stim,true,2,433,1,0,0,75720,task2,678071,false,false,798,image-keyboard-response,3
true,8,2,1,1,false,z,false,false,0.0-2.0-0.26-0.240-3.240,0,0,0,68,false,stim,true,2,1319,1,0,0,75720,task2,680937,false,false,801,image-keyboard-response,4
true,8,2,1,2,true,d,false,true,0.0-2.0-0.26-0.241-3.241,0,0,0,68,false,stim,false,1,934,1,0,2,75720,task2,683401,false,false,804,image-keyboard-response,5
true,8,0,1,1,false,z,true,false,0.0-2.0-0.26-0.242-3.242,0,0,0,81,false,stim,false,2,765,1,0,0,75720,task2,685692,false,false,807,image-keyboard-response,6
true,8,1,1,1,true,z,false,true,0.0-2.0-0.27-0.243-3.243,0,0,0,90,false,stim,false,2,897,1,0,0,75720,task2,688117,false,false,810,image-keyboard-response,7
true,8,0,1,0,true,q,false,true,0.0-2.0-0.27-0.244-3.244,0,0,0,81,false,stim,false,1,761,1,0,1,75720,task2,690401,false,false,813,image-keyboard-response,8
true,8,0,1,0,true,q,false,false,0.0-2.0-0.27-0.245-3.245,0,0,0,81,false,stim,false,1,674,1,0,1,75720,task2,692603,false,true,816,image-keyboard-response,9
true,8,2,1,2,true,d,false,true,0.0-2.0-0.27-0.246-3.246,0,0,0,68,false,stim,false,1,612,1,0,2,75720,task2,694737,false,false,819,image-keyboard-response,10
true,8,2,1,2,true,d,false,false,0.0-2.0-0.27-0.247-3.247,0,0,0,68,false,stim,false,1,561,1,0,2,75720,task2,696826,false,true,822,image-keyboard-response,11
true,8,1,1,1,true,z,false,true,0.0-2.0-0.27-0.248-3.248,0,0,0,90,false,stim,false,2,357,1,0,0,75720,task2,698695,false,false,825,image-keyboard-response,12
true,8,1,1,0,false,q,false,false,0.0-2.0-0.27-0.249-3.249,0,0,0,90,false,stim,true,1,619,1,0,1,75720,task2,700838,false,false,828,image-keyboard-response,13
true,8,0,1,2,false,d,true,false,0.0-2.0-0.27-0.250-3.250,0,0,0,81,false,stim,false,1,916,1,0,2,75720,task2,703285,false,false,831,image-keyboard-response,14
true,8,1,1,1,true,z,false,true,0.0-2.0-0.27-0.251-3.251,0,0,0,90,false,stim,false,2,402,1,0,0,75720,task2,705212,false,false,834,image-keyboard-response,15
true,8,2,1,0,false,q,true,false,0.0-2.0-0.28-0.252-3.252,0,0,0,68,false,stim,false,1,593,1,0,1,75720,task2,707322,false,false,837,image-keyboard-response,16
true,8,1,1,1,true,z,false,true,0.0-2.0-0.28-0.253-3.253,0,0,0,90,false,stim,false,2,741,1,0,0,75720,task2,709586,false,false,840,image-keyboard-response,17
true,8,1,1,0,false,q,false,true,0.0-2.0-0.28-0.254-3.254,0,0,0,90,false,stim,true,1,761,1,0,1,75720,task2,711854,false,true,843,image-keyboard-response,18
true,8,1,1,1,true,z,false,true,0.0-2.0-0.28-0.255-3.255,0,0,0,90,false,stim,false,2,670,1,0,0,75720,task2,714054,false,false,846,image-keyboard-response,19
true,8,1,1,1,true,z,false,true,0.0-2.0-0.28-0.256-3.256,0,0,0,90,false,stim,false,2,362,1,0,0,75720,task2,715934,false,false,849,image-keyboard-response,20
true,8,1,1,0,false,q,false,false,0.0-2.0-0.28-0.257-3.257,0,0,0,90,false,stim,true,1,805,1,0,1,75720,task2,718257,false,false,852,image-keyboard-response,21
true,8,2,1,2,true,d,false,true,0.0-2.0-0.28-0.258-3.258,0,0,0,68,false,stim,false,1,786,1,0,2,75720,task2,720571,false,false,855,image-keyboard-response,22
true,8,2,1,2,true,d,false,true,0.0-2.0-0.28-0.259-3.259,0,0,0,68,false,stim,false,1,534,1,0,2,75720,task2,722616,false,false,858,image-keyboard-response,23
true,8,2,1,2,true,d,false,true,0.0-2.0-0.28-0.260-3.260,0,0,0,68,false,stim,false,1,511,1,0,2,75720,task2,724640,false,false,861,image-keyboard-response,24
true,8,1,1,1,true,z,false,true,0.0-2.0-0.29-0.261-3.261,0,0,0,90,false,stim,false,2,916,1,0,0,75720,task2,727075,false,false,864,image-keyboard-response,25
true,8,0,1,0,true,q,false,true,0.0-2.0-0.29-0.262-3.262,0,0,0,81,false,stim,false,1,1126,1,0,1,75720,task2,729725,false,false,867,image-keyboard-response,26
true,8,1,1,1,true,z,false,true,0.0-2.0-0.29-0.263-3.263,0,0,0,90,false,stim,false,2,796,1,0,0,75720,task2,732033,false,false,870,image-keyboard-response,27
true,8,2,1,2,true,d,false,true,0.0-2.0-0.29-0.264-3.264,0,0,0,68,false,stim,false,1,883,1,0,2,75720,task2,734436,false,false,873,image-keyboard-response,28
true,8,2,1,2,true,d,false,true,0.0-2.0-0.29-0.265-3.265,0,0,0,68,false,stim,false,1,1277,1,0,2,75720,task2,737226,false,false,876,image-keyboard-response,29
true,8,2,1,2,true,d,false,true,0.0-2.0-0.29-0.266-3.266,0,0,0,68,false,stim,false,1,599,1,0,2,75720,task2,739341,false,false,879,image-keyboard-response,30
true,8,0,1,0,true,q,false,true,0.0-2.0-0.29-0.267-3.267,0,0,0,81,false,stim,false,1,784,1,0,1,75720,task2,741636,false,false,882,image-keyboard-response,31
true,8,0,1,0,true,q,false,true,0.0-2.0-0.29-0.268-3.268,0,0,0,81,false,stim,false,1,578,1,0,1,75720,task2,743737,false,false,885,image-keyboard-response,32
true,8,1,1,1,true,z,false,false,0.0-2.0-0.29-0.269-3.269,0,0,0,90,false,stim,false,2,562,1,0,0,75720,task2,745817,false,true,888,image-keyboard-response,33
true,8,0,1,0,true,q,false,true,0.0-2.0-0.30-0.270-3.270,0,0,0,81,false,stim,false,1,1108,1,0,1,75720,task2,748451,false,false,891,image-keyboard-response,34
true,8,0,1,0,true,q,false,true,0.0-2.0-0.30-0.271-3.271,0,0,0,81,false,stim,false,1,614,1,0,1,75720,task2,750581,false,false,894,image-keyboard-response,35
true,8,2,1,1,false,z,false,false,0.0-2.0-0.30-0.272-3.272,0,0,0,68,false,stim,true,2,797,1,0,0,75720,task2,752900,false,false,897,image-keyboard-response,36
true,8,2,1,2,true,d,false,true,0.0-2.0-0.30-0.273-3.273,0,0,0,68,false,stim,false,1,651,1,1,2,75720,task2,755080,false,false,900,image-keyboard-response,37
true,8,1,1,1,true,z,false,true,0.0-2.0-0.30-0.274-3.274,0,0,0,90,false,stim,false,2,403,1,0,0,75720,task2,757034,false,false,903,image-keyboard-response,38
true,9,0,2,2,false,d,false,false,0.0-2.0-0.30-0.275-3.275,0,0,1,81,true,stim,true,0,616,1,0,1,75720,task2,759175,false,false,906,image-keyboard-response,1
true,9,2,2,2,true,d,false,true,0.0-2.0-0.30-0.276-3.276,0,0,1,68,false,stim,false,2,795,1,1,2,75720,task2,761480,false,false,909,image-keyboard-response,2
true,9,2,2,2,true,d,false,false,0.0-2.0-0.30-0.277-3.277,0,0,1,68,false,stim,false,2,716,1,1,2,75720,task2,763727,false,true,912,image-keyboard-response,3
true,9,1,2,0,false,q,false,false,0.0-2.0-0.30-0.278-3.278,0,0,1,90,false,stim,true,1,967,1,0,0,75720,task2,766208,false,false,915,image-keyboard-response,4
true,9,2,2,2,true,d,false,true,0.0-2.0-0.31-0.279-3.279,0,0,1,68,false,stim,false,0,590,1,0,1,75720,task2,768320,false,false,918,image-keyboard-response,5
true,9,2,2,0,false,q,true,false,0.0-2.0-0.31-0.280-3.280,0,0,1,68,false,stim,false,1,948,1,0,0,75720,task2,770786,false,false,921,image-keyboard-response,6
true,9,1,2,2,false,d,true,false,0.0-2.0-0.31-0.281-3.281,0,0,1,90,false,stim,false,2,1331,1,1,2,75720,task2,773643,false,false,924,image-keyboard-response,7
true,9,2,2,0,false,q,true,false,0.0-2.0-0.31-0.282-3.282,0,0,1,68,false,stim,false,1,1390,1,0,0,75720,task2,776548,false,false,927,image-keyboard-response,8
true,9,0,2,2,false,d,true,false,0.0-2.0-0.31-0.283-3.283,0,0,1,81,false,stim,false,2,877,1,1,2,75720,task2,778949,false,false,930,image-keyboard-response,9
true,9,2,2,2,true,d,false,true,0.0-2.0-0.31-0.284-3.284,0,0,1,68,false,stim,false,2,519,1,1,2,75720,task2,780999,false,false,933,image-keyboard-response,10
true,9,2,2,2,true,d,false,true,0.0-2.0-0.31-0.285-3.285,0,0,1,68,false,stim,false,0,618,1,0,1,75720,task2,783130,false,false,936,image-keyboard-response,11
true,9,0,2,0,true,q,false,true,0.0-2.0-0.31-0.286-3.286,0,0,1,81,false,stim,false,1,487,1,0,0,75720,task2,785136,false,false,939,image-keyboard-response,12
true,9,2,2,2,true,d,false,true,0.0-2.0-0.31-0.287-3.287,0,0,1,68,false,stim,false,0,698,1,0,1,75720,task2,787346,false,false,942,image-keyboard-response,13
true,9,0,2,0,true,q,false,true,0.0-2.0-0.32-0.288-3.288,0,0,1,81,false,stim,false,1,1042,1,0,0,75720,task2,789915,false,false,945,image-keyboard-response,14
true,9,2,2,2,true,d,false,true,0.0-2.0-0.32-0.289-3.289,0,0,1,68,false,stim,false,0,886,1,0,1,75720,task2,792309,false,false,948,image-keyboard-response,15
true,9,2,2,2,true,d,false,true,0.0-2.0-0.32-0.290-3.290,0,0,1,68,false,stim,false,0,556,1,0,1,75720,task2,794393,false,false,951,image-keyboard-response,16
true,9,2,2,2,true,d,false,true,0.0-2.0-0.32-0.291-3.291,0,0,1,68,false,stim,false,2,924,1,1,2,75720,task2,796846,false,false,954,image-keyboard-response,17
true,9,2,2,2,true,d,false,true,0.0-2.0-0.32-0.292-3.292,0,0,1,68,false,stim,false,2,709,1,1,2,75720,task2,799080,false,false,957,image-keyboard-response,18
true,9,0,2,0,true,q,false,true,0.0-2.0-0.32-0.293-3.293,0,0,1,81,false,stim,false,1,1111,1,0,0,75720,task2,801725,false,false,960,image-keyboard-response,19
true,9,0,2,0,true,q,false,true,0.0-2.0-0.32-0.294-3.294,0,0,1,81,false,stim,false,1,979,1,0,0,75720,task2,804222,false,false,963,image-keyboard-response,20
true,9,2,2,2,true,d,false,true,0.0-2.0-0.32-0.295-3.295,0,0,1,68,false,stim,false,2,663,1,1,2,75720,task2,806413,false,false,966,image-keyboard-response,21
true,9,2,2,2,true,d,false,true,0.0-2.0-0.32-0.296-3.296,0,0,1,68,false,stim,false,0,1481,1,0,1,75720,task2,809420,false,false,969,image-keyboard-response,22
true,9,2,2,2,true,d,false,true,0.0-2.0-0.33-0.297-3.297,0,0,1,68,false,stim,false,0,402,1,0,1,75720,task2,811341,false,false,972,image-keyboard-response,23
true,9,2,2,2,true,d,false,true,0.0-2.0-0.33-0.298-3.298,0,0,1,68,false,stim,false,0,536,1,0,1,75720,task2,813400,false,false,975,image-keyboard-response,24
true,9,0,2,0,true,q,false,true,0.0-2.0-0.33-0.299-3.299,0,0,1,81,false,stim,false,1,683,1,0,0,75720,task2,815600,false,false,978,image-keyboard-response,25
true,9,0,2,0,true,q,false,true,0.0-2.0-0.33-0.300-3.300,0,0,1,81,false,stim,false,1,456,1,0,0,75720,task2,817579,false,false,981,image-keyboard-response,26
true,9,2,2,2,true,d,false,true,0.0-2.0-0.33-0.301-3.301,0,0,1,68,false,stim,false,2,630,1,1,2,75720,task2,819718,false,false,984,image-keyboard-response,27
true,9,0,2,0,true,q,false,true,0.0-2.0-0.33-0.302-3.302,0,0,1,81,false,stim,false,1,952,1,0,0,75720,task2,822181,false,false,987,image-keyboard-response,28
true,9,2,2,2,true,d,false,true,0.0-2.0-0.33-0.303-3.303,0,0,1,68,false,stim,false,2,572,1,0,2,75720,task2,824276,false,false,990,image-keyboard-response,29
true,9,2,2,2,true,d,false,true,0.0-2.0-0.33-0.304-3.304,0,0,1,68,false,stim,false,2,771,1,0,2,75720,task2,826577,false,false,993,image-keyboard-response,30
true,9,2,2,2,true,d,false,true,0.0-2.0-0.33-0.305-3.305,0,0,1,68,false,stim,false,0,908,1,1,1,75720,task2,829016,false,false,996,image-keyboard-response,31
true,9,2,2,2,true,d,false,true,0.0-2.0-0.34-0.306-3.306,0,0,1,68,false,stim,false,0,468,1,1,1,75720,task2,831013,false,false,999,image-keyboard-response,32
true,9,2,2,2,true,d,false,false,0.0-2.0-0.34-0.307-3.307,0,0,1,68,false,stim,false,0,541,1,1,1,75720,task2,833093,false,true,1002,image-keyboard-response,33
true,10,2,2,1,false,z,false,false,0.0-2.0-0.34-0.308-3.308,0,1,0,68,true,stim,true,2,429,1,0,2,75720,task2,835033,false,false,1005,image-keyboard-response,1
true,10,1,2,1,true,z,false,true,0.0-2.0-0.34-0.309-3.309,0,1,0,90,false,stim,false,2,1480,1,0,2,75720,task2,838035,false,false,1008,image-keyboard-response,2
true,10,0,2,2,false,d,false,false,0.0-2.0-0.34-0.310-3.310,0,1,0,81,false,stim,true,0,429,1,0,0,75720,task2,839992,false,false,1011,image-keyboard-response,3
true,10,2,2,2,true,d,false,true,0.0-2.0-0.34-0.311-3.311,0,1,0,68,false,stim,false,0,864,1,0,0,75720,task2,842371,false,false,1014,image-keyboard-response,4
true,10,1,2,1,true,z,false,true,0.0-2.0-0.34-0.312-3.312,0,1,0,90,false,stim,false,2,800,1,0,2,75720,task2,844688,false,false,1017,image-keyboard-response,5
true,10,0,2,2,false,d,true,false,0.0-2.0-0.34-0.313-3.313,0,1,0,81,false,stim,false,2,768,1,1,1,75720,task2,846980,false,false,1020,image-keyboard-response,6
true,10,2,2,2,true,d,false,true,0.0-2.0-0.34-0.314-3.314,0,1,0,68,false,stim,false,0,898,1,0,0,75720,task2,849402,false,false,1023,image-keyboard-response,7
true,10,2,2,2,true,d,false,true,0.0-2.0-0.35-0.315-3.315,0,1,0,68,false,stim,false,0,910,1,0,0,75720,task2,851832,false,false,1026,image-keyboard-response,8
true,10,1,2,2,false,d,true,false,0.0-2.0-0.35-0.316-3.316,0,1,0,90,false,stim,false,2,719,1,1,1,75720,task2,854067,false,false,1029,image-keyboard-response,9
true,10,2,2,2,true,d,false,true,0.0-2.0-0.35-0.317-3.317,0,1,0,68,false,stim,false,0,829,1,0,0,75720,task2,856427,false,false,1032,image-keyboard-response,10
true,10,1,2,1,true,z,false,true,0.0-2.0-0.35-0.318-3.318,0,1,0,90,false,stim,false,2,1039,1,0,2,75720,task2,858991,false,false,1035,image-keyboard-response,11
true,10,1,2,1,true,z,false,true,0.0-2.0-0.35-0.319-3.319,0,1,0,90,false,stim,false,2,465,1,0,2,75720,task2,860987,false,false,1038,image-keyboard-response,12
true,10,2,2,2,true,d,false,true,0.0-2.0-0.35-0.320-3.320,0,1,0,68,false,stim,false,0,707,1,0,0,75720,task2,863213,false,false,1041,image-keyboard-response,13
true,10,2,2,2,true,d,false,true,0.0-2.0-0.35-0.321-3.321,0,1,0,68,false,stim,false,2,581,1,1,1,75720,task2,865314,false,false,1044,image-keyboard-response,14
true,10,2,2,2,true,d,false,true,0.0-2.0-0.35-0.322-3.322,0,1,0,68,false,stim,false,2,447,1,1,1,75720,task2,867276,false,false,1047,image-keyboard-response,15
true,10,1,2,1,true,z,false,false,0.0-2.0-0.35-0.323-3.323,0,1,0,90,false,stim,false,2,675,1,0,2,75720,task2,869464,false,true,1050,image-keyboard-response,16
true,10,2,2,2,true,d,false,true,0.0-2.0-0.36-0.324-3.324,0,1,0,68,false,stim,false,2,455,1,1,1,75720,task2,871437,false,false,1053,image-keyboard-response,17
true,10,2,2,1,false,z,false,false,0.0-2.0-0.36-0.325-3.325,0,1,0,68,false,stim,true,2,841,1,0,2,75720,task2,873810,false,false,1056,image-keyboard-response,18
true,10,2,2,2,true,d,false,true,0.0-2.0-0.36-0.326-3.326,0,1,0,68,false,stim,false,0,616,1,0,0,75720,task2,875950,false,false,1059,image-keyboard-response,19
true,10,2,2,2,true,d,false,false,0.0-2.0-0.36-0.327-3.327,0,1,0,68,false,stim,false,2,581,1,1,1,75720,task2,878060,false,true,1062,image-keyboard-response,20
true,10,2,2,2,true,d,false,true,0.0-2.0-0.36-0.328-3.328,0,1,0,68,false,stim,false,0,720,1,0,0,75720,task2,880293,false,false,1065,image-keyboard-response,21
true,10,0,2,2,false,d,true,false,0.0-2.0-0.36-0.329-3.329,0,1,0,81,false,stim,false,2,744,1,1,1,75720,task2,882554,false,false,1068,image-keyboard-response,22
true,10,0,2,1,false,z,true,false,0.0-2.0-0.36-0.330-3.330,0,1,0,81,false,stim,false,2,890,1,0,2,75720,task2,884958,false,false,1071,image-keyboard-response,23
true,10,2,2,2,true,d,false,true,0.0-2.0-0.36-0.331-3.331,0,1,0,68,false,stim,false,0,356,1,0,0,75720,task2,886836,false,false,1074,image-keyboard-response,24
true,10,2,2,1,false,z,false,false,0.0-2.0-0.36-0.332-3.332,0,1,0,68,false,stim,true,2,445,1,0,2,75720,task2,888790,false,false,1077,image-keyboard-response,25
true,10,1,2,1,true,z,false,true,0.0-2.0-0.37-0.333-3.333,0,1,0,90,false,stim,false,2,441,1,0,2,75720,task2,890761,false,false,1080,image-keyboard-response,26
true,10,2,2,2,true,d,false,true,0.0-2.0-0.37-0.334-3.334,0,1,0,68,false,stim,false,0,630,1,0,0,75720,task2,892904,false,false,1083,image-keyboard-response,27
true,10,1,2,1,true,z,false,true,0.0-2.0-0.37-0.335-3.335,0,1,0,90,false,stim,false,2,931,1,0,2,75720,task2,895360,false,false,1086,image-keyboard-response,28
true,10,2,2,2,true,d,false,true,0.0-2.0-0.37-0.336-3.336,0,1,0,68,false,stim,false,2,1088,1,1,1,75720,task2,897978,false,false,1089,image-keyboard-response,29
true,10,2,2,2,true,d,false,true,0.0-2.0-0.37-0.337-3.337,0,1,0,68,false,stim,false,0,1065,1,0,0,75720,task2,900566,false,false,1092,image-keyboard-response,30
true,10,2,2,2,true,d,false,true,0.0-2.0-0.37-0.338-3.338,0,1,0,68,false,stim,false,0,504,1,0,0,75720,task2,902594,false,false,1095,image-keyboard-response,31
true,10,2,2,2,true,d,false,true,0.0-2.0-0.37-0.339-3.339,0,1,0,68,false,stim,false,2,874,1,0,1,75720,task2,904986,false,false,1098,image-keyboard-response,32
true,10,1,2,1,true,z,false,false,0.0-2.0-0.37-0.340-3.340,0,1,0,90,false,stim,false,2,666,1,0,2,75720,task2,907193,false,true,1101,image-keyboard-response,33
true,10,2,2,2,true,d,false,true,0.0-2.0-0.37-0.341-3.341,0,1,0,68,false,stim,false,2,577,1,0,1,75720,task2,909282,false,false,1104,image-keyboard-response,34
true,11,2,1,1,false,z,false,false,0.0-2.0-0.38-0.342-3.342,0,0,0,68,true,stim,true,2,607,1,0,0,75720,task2,911410,false,false,1107,image-keyboard-response,1
true,11,2,1,1,false,z,false,false,0.0-2.0-0.38-0.343-3.343,0,0,0,68,false,stim,true,2,395,1,0,1,75720,task2,913328,false,false,1110,image-keyboard-response,2
true,11,1,1,1,true,z,false,true,0.0-2.0-0.38-0.344-3.344,0,0,0,90,false,stim,false,2,932,1,0,1,75720,task2,915788,false,false,1113,image-keyboard-response,3
true,11,1,1,0,false,q,false,false,0.0-2.0-0.38-0.345-3.345,0,0,0,90,false,stim,true,1,715,1,0,2,75720,task2,918024,false,false,1116,image-keyboard-response,4
true,11,0,1,1,false,z,true,false,0.0-2.0-0.38-0.346-3.346,0,0,0,81,false,stim,false,2,1127,1,0,0,75720,task2,920676,false,false,1119,image-keyboard-response,5
true,11,1,1,1,true,z,false,true,0.0-2.0-0.38-0.347-3.347,0,0,0,90,false,stim,false,2,834,1,0,1,75720,task2,923024,false,false,1122,image-keyboard-response,6
true,11,2,1,0,false,q,true,false,0.0-2.0-0.38-0.348-3.348,0,0,0,68,false,stim,false,1,773,1,0,2,75720,task2,925314,false,false,1125,image-keyboard-response,7
true,11,1,1,1,true,z,false,true,0.0-2.0-0.38-0.349-3.349,0,0,0,90,false,stim,false,2,1207,1,0,0,75720,task2,928039,false,false,1128,image-keyboard-response,8
true,11,0,1,0,true,q,false,true,0.0-2.0-0.38-0.350-3.350,0,0,0,81,false,stim,false,1,1241,1,0,2,75720,task2,930803,false,false,1131,image-keyboard-response,9
true,11,1,1,1,true,z,false,true,0.0-2.0-0.39-0.351-3.351,0,0,0,90,false,stim,false,2,654,1,0,0,75720,task2,932988,false,false,1134,image-keyboard-response,10
true,11,1,1,1,true,z,false,true,0.0-2.0-0.39-0.352-3.352,0,0,0,90,false,stim,false,2,640,1,0,1,75720,task2,935143,false,false,1137,image-keyboard-response,11
true,11,0,1,0,true,q,false,true,0.0-2.0-0.39-0.353-3.353,0,0,0,81,false,stim,false,1,682,1,0,2,75720,task2,937351,false,false,1140,image-keyboard-response,12
true,11,1,1,1,true,z,false,true,0.0-2.0-0.39-0.354-3.354,0,0,0,90,false,stim,false,2,748,1,0,0,75720,task2,939620,false,false,1143,image-keyboard-response,13
true,11,0,1,0,true,q,false,true,0.0-2.0-0.39-0.355-3.355,0,0,0,81,false,stim,false,1,748,1,0,2,75720,task2,941891,false,false,1146,image-keyboard-response,14
true,11,0,1,0,true,q,false,true,0.0-2.0-0.39-0.356-3.356,0,0,0,81,false,stim,false,1,1206,1,0,2,75720,task2,944609,false,false,1149,image-keyboard-response,15
true,11,1,1,1,true,z,false,true,0.0-2.0-0.39-0.357-3.357,0,0,0,90,false,stim,false,2,508,1,0,1,75720,task2,946637,false,false,1152,image-keyboard-response,16
true,11,1,1,1,true,z,false,false,0.0-2.0-0.39-0.358-3.358,0,0,0,90,false,stim,false,2,610,1,0,1,75720,task2,948774,false,true,1155,image-keyboard-response,17
true,11,1,1,1,true,z,false,false,0.0-2.0-0.39-0.359-3.359,0,0,0,90,false,stim,false,2,792,1,0,0,75720,task2,951085,false,true,1158,image-keyboard-response,18
true,11,2,1,1,false,z,false,false,0.0-2.0-0.40-0.360-3.360,0,0,0,68,false,stim,true,2,605,1,0,1,75720,task2,953209,false,false,1161,image-keyboard-response,19
true,11,0,1,1,false,z,true,false,0.0-2.0-0.40-0.361-3.361,0,0,0,81,false,stim,false,2,957,1,0,0,75720,task2,955701,false,false,1164,image-keyboard-response,20
true,11,1,1,1,true,z,false,true,0.0-2.0-0.40-0.362-3.362,0,0,0,90,false,stim,false,2,1056,1,0,0,75720,task2,958279,false,false,1167,image-keyboard-response,21
true,11,1,1,1,true,z,false,true,0.0-2.0-0.40-0.363-3.363,0,0,0,90,false,stim,false,2,882,1,0,1,75720,task2,960678,false,false,1170,image-keyboard-response,22
true,11,0,1,0,true,q,false,true,0.0-2.0-0.40-0.364-3.364,0,0,0,81,false,stim,false,1,682,1,0,2,75720,task2,962875,false,false,1173,image-keyboard-response,23
true,11,1,1,1,true,z,false,true,0.0-2.0-0.40-0.365-3.365,0,0,0,90,false,stim,false,2,1020,1,0,1,75720,task2,965408,false,false,1176,image-keyboard-response,24
true,11,0,1,0,true,q,false,true,0.0-2.0-0.40-0.366-3.366,0,0,0,81,false,stim,false,1,933,1,0,2,75720,task2,967863,false,false,1179,image-keyboard-response,25
true,11,1,1,1,true,z,false,true,0.0-2.0-0.40-0.367-3.367,0,0,0,90,false,stim,false,2,828,1,0,0,75720,task2,970212,false,false,1182,image-keyboard-response,26
true,11,0,1,0,true,q,false,true,0.0-2.0-0.40-0.368-3.368,0,0,0,81,false,stim,false,1,661,1,0,2,75720,task2,972383,false,false,1185,image-keyboard-response,27
true,11,0,1,0,true,q,false,true,0.0-2.0-0.41-0.369-3.369,0,0,0,81,false,stim,false,1,647,1,0,2,75720,task2,974551,false,false,1188,image-keyboard-response,28
true,11,0,1,0,true,q,false,false,0.0-2.0-0.41-0.370-3.370,0,0,0,81,false,stim,false,1,510,1,0,2,75720,task2,976586,false,true,1191,image-keyboard-response,29
true,11,1,1,1,true,z,false,true,0.0-2.0-0.41-0.371-3.371,0,0,0,90,false,stim,false,2,453,1,0,0,75720,task2,978557,false,false,1194,image-keyboard-response,30
true,11,1,1,1,true,z,false,true,0.0-2.0-0.41-0.372-3.372,0,0,0,90,false,stim,false,2,598,1,0,1,75720,task2,980667,false,false,1197,image-keyboard-response,31
true,11,1,1,0,false,q,false,false,0.0-2.0-0.41-0.373-3.373,0,0,0,90,false,stim,true,1,1041,1,0,2,75720,task2,983224,false,false,1200,image-keyboard-response,32
true,11,1,1,1,true,z,false,true,0.0-2.0-0.41-0.374-3.374,0,0,0,90,false,stim,false,2,581,1,1,1,75720,task2,985347,false,false,1203,image-keyboard-response,33
true,11,1,1,1,true,z,false,true,0.0-2.0-0.41-0.375-3.375,0,0,0,90,false,stim,false,2,717,1,0,0,75720,task2,987590,false,false,1206,image-keyboard-response,34
true,11,1,1,1,true,z,false,true,0.0-2.0-0.41-0.376-3.376,0,0,0,90,false,stim,false,2,678,1,1,1,75720,task2,989790,false,false,1209,image-keyboard-response,35
true,11,1,1,1,true,z,false,true,0.0-2.0-0.41-0.377-3.377,0,0,0,90,false,stim,false,2,486,1,0,0,75720,task2,991798,false,false,1212,image-keyboard-response,36
true,12,1,2,0,false,q,false,false,0.0-2.0-0.42-0.378-3.378,0,1,0,90,true,stim,true,1,499,1,0,0,75720,task2,993822,false,false,1215,image-keyboard-response,1
true,12,1,2,2,false,d,true,false,0.0-2.0-0.42-0.379-3.379,0,1,0,90,false,stim,false,0,599,1,0,2,75720,task2,995945,false,false,1218,image-keyboard-response,2
true,12,1,2,1,true,z,false,true,0.0-2.0-0.42-0.380-3.380,0,1,0,90,false,stim,false,1,501,1,1,1,75720,task2,997980,false,false,1221,image-keyboard-response,3
true,12,2,2,2,true,d,false,true,0.0-2.0-0.42-0.381-3.381,0,1,0,68,false,stim,false,0,491,1,0,2,75720,task2,999993,false,false,1224,image-keyboard-response,4
true,12,2,2,0,false,q,true,false,0.0-2.0-0.42-0.382-3.382,0,1,0,68,false,stim,false,1,897,1,0,0,75720,task2,1002412,false,false,1227,image-keyboard-response,5
true,12,1,2,1,true,z,false,true,0.0-2.0-0.42-0.383-3.383,0,1,0,90,false,stim,false,1,782,1,1,1,75720,task2,1004714,false,false,1230,image-keyboard-response,6
true,12,2,2,2,true,d,false,false,0.0-2.0-0.42-0.384-3.384,0,1,0,68,false,stim,false,0,618,1,0,2,75720,task2,1006857,false,true,1233,image-keyboard-response,7
true,12,1,2,1,true,z,false,false,0.0-2.0-0.42-0.385-3.385,0,1,0,90,false,stim,false,1,665,1,1,1,75720,task2,1009044,false,true,1236,image-keyboard-response,8
true,12,2,2,0,false,q,true,false,0.0-2.0-0.42-0.386-3.386,0,1,0,68,false,stim,false,1,795,1,0,0,75720,task2,1011357,false,false,1239,image-keyboard-response,9
true,12,1,2,0,false,q,false,false,0.0-2.0-0.43-0.387-3.387,0,1,0,90,false,stim,true,1,431,1,0,0,75720,task2,1013315,false,false,1242,image-keyboard-response,10
true,12,0,2,0,true,q,false,true,0.0-2.0-0.43-0.388-3.388,0,1,0,81,false,stim,false,1,708,1,0,0,75720,task2,1015542,false,false,1245,image-keyboard-response,11
true,12,0,2,1,false,z,true,false,0.0-2.0-0.43-0.389-3.389,0,1,0,81,false,stim,false,1,471,1,1,1,75720,task2,1017600,false,false,1248,image-keyboard-response,12
true,12,0,2,2,false,d,false,false,0.0-2.0-0.43-0.390-3.390,0,1,0,81,false,stim,true,0,869,1,0,2,75720,task2,1019998,false,false,1251,image-keyboard-response,13
true,12,2,2,2,true,d,false,true,0.0-2.0-0.43-0.391-3.391,0,1,0,68,false,stim,false,0,448,1,0,2,75720,task2,1021977,false,false,1254,image-keyboard-response,14
true,12,1,2,1,true,z,false,true,0.0-2.0-0.43-0.392-3.392,0,1,0,90,false,stim,false,1,469,1,1,1,75720,task2,1024006,false,false,1257,image-keyboard-response,15
true,12,1,2,1,true,z,false,true,0.0-2.0-0.43-0.393-3.393,0,1,0,90,false,stim,false,1,537,1,1,1,75720,task2,1026067,false,false,1260,image-keyboard-response,16
true,12,0,2,0,true,q,false,true,0.0-2.0-0.43-0.394-3.394,0,1,0,81,false,stim,false,1,951,1,0,0,75720,task2,1028542,false,false,1263,image-keyboard-response,17
true,12,2,2,2,true,d,false,true,0.0-2.0-0.43-0.395-3.395,0,1,0,68,false,stim,false,0,646,1,0,2,75720,task2,1030715,false,false,1266,image-keyboard-response,18
true,12,2,2,2,true,d,false,true,0.0-2.0-0.44-0.396-3.396,0,1,0,68,false,stim,false,0,724,1,0,2,75720,task2,1032961,false,false,1269,image-keyboard-response,19
true,12,0,2,0,true,q,false,true,0.0-2.0-0.44-0.397-3.397,0,1,0,81,false,stim,false,1,787,1,0,0,75720,task2,1035259,false,false,1272,image-keyboard-response,20
true,12,1,2,1,true,z,false,true,0.0-2.0-0.44-0.398-3.398,0,1,0,90,false,stim,false,1,953,1,1,1,75720,task2,1037734,false,false,1275,image-keyboard-response,21
true,12,1,2,1,true,z,false,true,0.0-2.0-0.44-0.399-3.399,0,1,0,90,false,stim,false,1,817,1,1,1,75720,task2,1040097,false,false,1278,image-keyboard-response,22
true,12,1,2,1,true,z,false,true,0.0-2.0-0.44-0.400-3.400,0,1,0,90,false,stim,false,1,437,1,1,1,75720,task2,1042061,false,false,1281,image-keyboard-response,23
true,12,2,2,2,true,d,false,true,0.0-2.0-0.44-0.401-3.401,0,1,0,68,false,stim,false,0,551,1,0,2,75720,task2,1044130,false,false,1284,image-keyboard-response,24
true,12,0,2,0,true,q,false,true,0.0-2.0-0.44-0.402-3.402,0,1,0,81,false,stim,false,1,935,1,0,0,75720,task2,1046595,false,false,1287,image-keyboard-response,25
true,12,2,2,2,true,d,false,true,0.0-2.0-0.44-0.403-3.403,0,1,0,68,false,stim,false,0,1106,1,0,2,75720,task2,1049220,false,false,1290,image-keyboard-response,26
true,12,0,2,0,true,q,false,true,0.0-2.0-0.44-0.404-3.404,0,1,0,81,false,stim,false,1,627,1,0,0,75720,task2,1051381,false,false,1293,image-keyboard-response,27
true,12,2,2,2,true,d,false,false,0.0-2.0-0.45-0.405-3.405,0,1,0,68,false,stim,false,0,657,1,0,2,75720,task2,1053576,false,true,1296,image-keyboard-response,28
true,12,1,2,1,true,z,false,true,0.0-2.0-0.45-0.406-3.406,0,1,0,90,false,stim,false,1,937,1,0,1,75720,task2,1056029,false,false,1299,image-keyboard-response,29
true,12,0,2,0,true,q,false,true,0.0-2.0-0.45-0.407-3.407,0,1,0,81,false,stim,false,1,709,1,0,0,75720,task2,1058289,false,false,1302,image-keyboard-response,30
true,12,1,2,1,true,z,false,true,0.0-2.0-0.45-0.408-3.408,0,1,0,90,false,stim,false,1,694,1,0,1,75720,task2,1060497,false,false,1305,image-keyboard-response,31
true,13,1,1,0,false,q,true,true,0.0-2.0-0.45-0.409-3.409,0,0,0,90,true,stim,false,2,1325,1,0,2,75720,task2,1063342,false,true,1308,image-keyboard-response,1
true,13,0,1,1,false,z,false,false,0.0-2.0-0.45-0.410-3.410,0,0,0,81,false,stim,true,0,651,1,0,0,75720,task2,1065529,false,false,1311,image-keyboard-response,2
true,13,1,1,0,false,q,true,false,0.0-2.0-0.45-0.411-3.411,0,0,0,90,false,stim,false,2,426,1,0,2,75720,task2,1067479,false,false,1314,image-keyboard-response,3
true,13,1,1,2,false,d,false,true,0.0-2.0-0.45-0.412-3.412,0,0,0,90,false,stim,true,1,424,1,0,1,75720,task2,1069427,false,true,1317,image-keyboard-response,4
true,13,0,1,1,false,z,false,false,0.0-2.0-0.45-0.413-3.413,0,0,0,81,false,stim,true,0,689,1,0,0,75720,task2,1071642,false,false,1320,image-keyboard-response,5
true,13,0,1,0,true,q,false,true,0.0-2.0-0.46-0.414-3.414,0,0,0,81,false,stim,false,2,1348,1,0,2,75720,task2,1074524,false,false,1323,image-keyboard-response,6
true,13,2,1,1,false,z,true,false,0.0-2.0-0.46-0.415-3.415,0,0,0,68,false,stim,false,0,808,1,0,0,75720,task2,1076863,false,false,1326,image-keyboard-response,7
true,13,1,1,2,false,d,false,false,0.0-2.0-0.46-0.416-3.416,0,0,0,90,false,stim,true,1,853,1,0,1,75720,task2,1079252,false,false,1329,image-keyboard-response,8
true,13,0,1,0,true,q,false,false,0.0-2.0-0.46-0.417-3.417,0,0,0,81,false,stim,false,2,416,1,0,2,75720,task2,1081189,false,true,1332,image-keyboard-response,9
true,13,0,1,1,false,z,false,false,0.0-2.0-0.46-0.418-3.418,0,0,0,81,false,stim,true,0,817,1,0,0,75720,task2,1083519,false,false,1335,image-keyboard-response,10
true,13,0,1,0,true,q,false,true,0.0-2.0-0.46-0.419-3.419,0,0,0,81,false,stim,false,2,968,1,0,2,75720,task2,1086016,false,false,1338,image-keyboard-response,11
true,13,1,1,1,true,z,false,true,0.0-2.0-0.46-0.420-3.420,0,0,0,90,false,stim,false,0,424,1,0,0,75720,task2,1087962,false,false,1341,image-keyboard-response,12
true,13,1,1,2,false,d,false,false,0.0-2.0-0.46-0.421-3.421,0,0,0,90,false,stim,true,1,414,1,0,1,75720,task2,1089901,false,false,1344,image-keyboard-response,13
true,13,0,1,2,false,d,true,false,0.0-2.0-0.46-0.422-3.422,0,0,0,81,false,stim,false,1,465,1,0,1,75720,task2,1091879,false,false,1347,image-keyboard-response,14
true,13,1,1,1,true,z,false,false,0.0-2.0-0.47-0.423-3.423,0,0,0,90,false,stim,false,0,892,1,0,0,75720,task2,1094291,false,true,1350,image-keyboard-response,15
true,13,2,1,2,true,d,false,true,0.0-2.0-0.47-0.424-3.424,0,0,0,68,false,stim,false,1,785,1,0,1,75720,task2,1096598,false,false,1353,image-keyboard-response,16
true,13,2,1,1,false,z,true,false,0.0-2.0-0.47-0.425-3.425,0,0,0,68,false,stim,false,0,1009,1,0,0,75720,task2,1099129,false,false,1356,image-keyboard-response,17
true,13,0,1,0,true,q,false,true,0.0-2.0-0.47-0.426-3.426,0,0,0,81,false,stim,false,2,918,1,0,2,75720,task2,1101578,false,false,1359,image-keyboard-response,18
true,13,0,1,0,true,q,false,true,0.0-2.0-0.47-0.427-3.427,0,0,0,81,false,stim,false,2,653,1,0,2,75720,task2,1103767,false,false,1362,image-keyboard-response,19
true,13,0,1,0,true,q,false,true,0.0-2.0-0.47-0.428-3.428,0,0,0,81,false,stim,false,2,551,1,0,2,75720,task2,1105849,false,false,1365,image-keyboard-response,20
true,13,2,1,2,true,d,false,true,0.0-2.0-0.47-0.429-3.429,0,0,0,68,false,stim,false,1,907,1,0,1,75720,task2,1108291,false,false,1368,image-keyboard-response,21
true,13,0,1,1,false,z,false,false,0.0-2.0-0.47-0.430-3.430,0,0,0,81,false,stim,true,0,452,1,0,0,75720,task2,1110272,false,false,1371,image-keyboard-response,22
true,13,2,1,2,true,d,false,false,0.0-2.0-0.47-0.431-3.431,0,0,0,68,false,stim,false,1,630,1,0,1,75720,task2,1112414,false,true,1374,image-keyboard-response,23
true,13,1,1,2,false,d,false,false,0.0-2.0-0.48-0.432-3.432,0,0,0,90,false,stim,true,1,1069,1,0,1,75720,task2,1114998,false,false,1377,image-keyboard-response,24
true,13,0,1,0,true,q,false,true,0.0-2.0-0.48-0.433-3.433,0,0,0,81,false,stim,false,2,855,1,0,2,75720,task2,1117384,false,false,1380,image-keyboard-response,25
true,13,0,1,2,false,d,true,false,0.0-2.0-0.48-0.434-3.434,0,0,0,81,false,stim,false,1,650,1,0,1,75720,task2,1119564,false,false,1383,image-keyboard-response,26
true,13,0,1,0,true,q,false,true,0.0-2.0-0.48-0.435-3.435,0,0,0,81,false,stim,false,2,472,1,0,2,75720,task2,1121567,false,false,1386,image-keyboard-response,27
true,13,0,1,1,false,z,false,true,0.0-2.0-0.48-0.436-3.436,0,0,0,81,false,stim,true,0,829,1,0,0,75720,task2,1123912,false,true,1389,image-keyboard-response,28
true,13,0,1,0,true,q,false,true,0.0-2.0-0.48-0.437-3.437,0,0,0,81,false,stim,false,2,548,1,0,2,75720,task2,1125982,false,false,1392,image-keyboard-response,29
true,13,2,1,1,false,z,true,false,0.0-2.0-0.48-0.438-3.438,0,0,0,68,false,stim,false,0,1212,1,0,0,75720,task2,1128712,false,false,1395,image-keyboard-response,30
true,13,1,1,2,false,d,false,false,0.0-2.0-0.48-0.439-3.439,0,0,0,90,false,stim,true,1,1575,1,0,1,75720,task2,1131808,false,false,1398,image-keyboard-response,31
true,13,0,1,1,false,z,false,false,0.0-2.0-0.48-0.440-3.440,0,0,0,81,false,stim,true,0,709,1,0,0,75720,task2,1134068,false,false,1401,image-keyboard-response,32
true,13,0,1,1,false,z,false,false,0.0-2.0-0.49-0.441-3.441,0,0,0,81,false,stim,true,0,611,1,0,0,75720,task2,1136205,false,false,1404,image-keyboard-response,33
true,13,0,1,2,false,d,true,false,0.0-2.0-0.49-0.442-3.442,0,0,0,81,false,stim,false,1,803,1,0,1,75720,task2,1138531,false,false,1407,image-keyboard-response,34
true,13,1,1,2,false,d,false,false,0.0-2.0-0.49-0.443-3.443,0,0,0,90,false,stim,true,1,1142,1,0,1,75720,task2,1141211,false,false,1410,image-keyboard-response,35
true,13,0,1,0,true,q,false,true,0.0-2.0-0.49-0.444-3.444,0,0,0,81,false,stim,false,2,793,1,0,2,75720,task2,1143542,false,false,1413,image-keyboard-response,36
true,13,2,1,1,false,z,true,false,0.0-2.0-0.49-0.445-3.445,0,0,0,68,false,stim,false,0,893,1,1,0,75720,task2,1145951,false,false,1416,image-keyboard-response,37
true,13,2,1,2,true,d,false,true,0.0-2.0-0.49-0.446-3.446,0,0,0,68,false,stim,false,1,1000,1,0,1,75720,task2,1148480,false,false,1419,image-keyboard-response,38
true,14,0,2,1,false,z,false,false,0.0-2.0-0.49-0.447-3.447,1,0,0,81,true,stim,true,0,450,1,0,2,75720,task2,1150453,false,false,1422,image-keyboard-response,1
true,14,2,2,1,false,z,true,false,0.0-2.0-0.49-0.448-3.448,1,0,0,68,false,stim,false,0,922,1,0,2,75720,task2,1152905,false,false,1425,image-keyboard-response,2
true,14,2,2,1,false,z,true,false,0.0-2.0-0.49-0.449-3.449,1,0,0,68,false,stim,false,1,1106,1,1,0,75720,task2,1155535,false,false,1428,image-keyboard-response,3
true,14,2,2,0,false,q,false,false,0.0-2.0-0.50-0.450-3.450,1,0,0,68,false,stim,true,2,525,1,0,1,75720,task2,1157583,false,false,1431,image-keyboard-response,4
true,14,2,2,1,false,z,true,false,0.0-2.0-0.50-0.451-3.451,1,0,0,68,false,stim,false,1,864,1,1,0,75720,task2,1159967,false,false,1434,image-keyboard-response,5
true,14,0,2,1,false,z,false,false,0.0-2.0-0.50-0.452-3.452,1,0,0,81,false,stim,true,0,609,1,0,2,75720,task2,1162101,false,false,1437,image-keyboard-response,6
true,14,0,2,1,false,z,true,false,0.0-2.0-0.50-0.453-3.453,1,0,0,81,false,stim,false,1,813,1,1,0,75720,task2,1164438,false,false,1440,image-keyboard-response,7
true,14,2,2,0,false,q,false,false,0.0-2.0-0.50-0.454-3.454,1,0,0,68,false,stim,true,2,1174,1,0,1,75720,task2,1167128,false,false,1443,image-keyboard-response,8
true,14,0,2,1,false,z,false,false,0.0-2.0-0.50-0.455-3.455,1,0,0,81,false,stim,true,0,559,1,0,2,75720,task2,1169203,false,false,1446,image-keyboard-response,9
true,14,1,2,1,true,z,false,true,0.0-2.0-0.50-0.456-3.456,1,0,0,90,false,stim,false,0,567,1,0,2,75720,task2,1171306,false,false,1449,image-keyboard-response,10
true,14,0,2,1,false,z,true,false,0.0-2.0-0.50-0.457-3.457,1,0,0,81,false,stim,false,1,1133,1,1,0,75720,task2,1173971,false,false,1452,image-keyboard-response,11
true,14,1,2,0,false,q,true,false,0.0-2.0-0.50-0.458-3.458,1,0,0,90,false,stim,false,2,873,1,0,1,75720,task2,1176362,false,false,1455,image-keyboard-response,12
true,14,0,2,0,true,q,false,true,0.0-2.0-0.51-0.459-3.459,1,0,0,81,false,stim,false,2,339,1,0,1,75720,task2,1178236,false,false,1458,image-keyboard-response,13
true,14,1,2,1,true,z,false,true,0.0-2.0-0.51-0.460-3.460,1,0,0,90,false,stim,false,1,984,1,1,0,75720,task2,1180743,false,false,1461,image-keyboard-response,14
true,14,1,2,1,true,z,false,true,0.0-2.0-0.51-0.461-3.461,1,0,0,90,false,stim,false,1,451,1,1,0,75720,task2,1182724,false,false,1464,image-keyboard-response,15
true,14,0,2,0,true,q,false,true,0.0-2.0-0.51-0.462-3.462,1,0,0,81,false,stim,false,2,593,1,0,1,75720,task2,1184843,false,false,1467,image-keyboard-response,16
true,14,1,2,1,true,z,false,true,0.0-2.0-0.51-0.463-3.463,1,0,0,90,false,stim,false,0,547,1,0,2,75720,task2,1186926,false,false,1470,image-keyboard-response,17
true,14,1,2,1,true,z,false,true,0.0-2.0-0.51-0.464-3.464,1,0,0,90,false,stim,false,1,1028,1,1,0,75720,task2,1189478,false,false,1473,image-keyboard-response,18
true,14,1,2,1,true,z,false,true,0.0-2.0-0.51-0.465-3.465,1,0,0,90,false,stim,false,0,766,1,0,2,75720,task2,1191756,false,false,1476,image-keyboard-response,19
true,14,1,2,1,true,z,false,true,0.0-2.0-0.51-0.466-3.466,1,0,0,90,false,stim,false,0,465,1,0,2,75720,task2,1193756,false,false,1479,image-keyboard-response,20
true,14,0,2,0,true,q,false,true,0.0-2.0-0.51-0.467-3.467,1,0,0,81,false,stim,false,2,805,1,0,1,75720,task2,1196089,false,false,1482,image-keyboard-response,21
true,14,1,2,1,true,z,false,false,0.0-2.0-0.52-0.468-3.468,1,0,0,90,false,stim,false,1,941,1,1,0,75720,task2,1198557,false,true,1485,image-keyboard-response,22
true,14,2,2,1,false,z,true,false,0.0-2.0-0.52-0.469-3.469,1,0,0,68,false,stim,false,1,796,1,1,0,75720,task2,1200871,false,false,1488,image-keyboard-response,23
true,14,1,2,1,true,z,false,false,0.0-2.0-0.52-0.470-3.470,1,0,0,90,false,stim,false,0,993,1,0,2,75720,task2,1203389,false,true,1491,image-keyboard-response,24
true,14,0,2,1,false,z,false,false,0.0-2.0-0.52-0.471-3.471,1,0,0,81,false,stim,true,0,1142,1,0,2,75720,task2,1206060,false,false,1494,image-keyboard-response,25
true,14,0,2,0,true,q,false,true,0.0-2.0-0.52-0.472-3.472,1,0,0,81,false,stim,false,2,709,1,0,1,75720,task2,1208291,false,false,1497,image-keyboard-response,26
true,14,0,2,0,true,q,false,false,0.0-2.0-0.52-0.473-3.473,1,0,0,81,false,stim,false,2,863,1,0,1,75720,task2,1210677,false,true,1500,image-keyboard-response,27
true,14,1,2,1,true,z,false,true,0.0-2.0-0.52-0.474-3.474,1,0,0,90,false,stim,false,1,488,1,1,0,75720,task2,1212717,false,false,1503,image-keyboard-response,28
true,14,0,2,1,false,z,false,false,0.0-2.0-0.52-0.475-3.475,1,0,0,81,false,stim,true,0,1524,1,0,2,75720,task2,1215767,false,false,1506,image-keyboard-response,29
true,14,1,2,0,false,q,true,false,0.0-2.0-0.52-0.476-3.476,1,0,0,90,false,stim,false,2,1343,1,0,1,75720,task2,1218630,false,false,1509,image-keyboard-response,30
true,14,1,2,1,true,z,false,true,0.0-2.0-0.53-0.477-3.477,1,0,0,90,false,stim,false,0,873,1,1,2,75720,task2,1221042,false,false,1512,image-keyboard-response,31
true,14,0,2,0,true,q,false,true,0.0-2.0-0.53-0.478-3.478,1,0,0,81,false,stim,false,2,1300,1,0,1,75720,task2,1223866,false,false,1515,image-keyboard-response,32
true,14,0,2,0,true,q,false,false,0.0-2.0-0.53-0.479-3.479,1,0,0,81,false,stim,false,2,641,1,0,1,75720,task2,1226034,false,true,1518,image-keyboard-response,33
true,14,1,2,1,true,z,false,true,0.0-2.0-0.53-0.480-3.480,1,0,0,90,false,stim,false,0,491,1,1,2,75720,task2,1228060,false,false,1521,image-keyboard-response,34
true,15,2,2,2,true,d,false,true,0.0-2.0-0.53-0.481-3.481,0,0,1,68,true,stim,false,0,1166,1,0,1,75720,task2,1230750,false,false,1524,image-keyboard-response,1
true,15,1,2,0,false,q,false,false,0.0-2.0-0.53-0.482-3.482,0,0,1,90,false,stim,true,1,605,1,0,0,75720,task2,1232879,false,false,1527,image-keyboard-response,2
true,15,1,2,1,true,z,false,true,0.0-2.0-0.53-0.483-3.483,0,0,1,90,false,stim,false,1,583,1,1,2,75720,task2,1234989,false,false,1530,image-keyboard-response,3
true,15,2,2,0,false,q,true,false,0.0-2.0-0.53-0.484-3.484,0,0,1,68,false,stim,false,1,1279,1,0,0,75720,task2,1237798,false,false,1533,image-keyboard-response,4
true,15,0,2,0,true,q,false,true,0.0-2.0-0.53-0.485-3.485,0,0,1,81,false,stim,false,1,821,1,0,0,75720,task2,1240151,false,false,1536,image-keyboard-response,5
true,15,1,2,1,true,z,false,true,0.0-2.0-0.54-0.486-3.486,0,0,1,90,false,stim,false,1,593,1,1,2,75720,task2,1242276,false,false,1539,image-keyboard-response,6
true,15,0,2,0,true,q,false,true,0.0-2.0-0.54-0.487-3.487,0,0,1,81,false,stim,false,1,702,1,0,0,75720,task2,1244496,false,false,1542,image-keyboard-response,7
true,15,1,2,1,true,z,false,true,0.0-2.0-0.54-0.488-3.488,0,0,1,90,false,stim,false,1,903,1,1,2,75720,task2,1246929,false,false,1545,image-keyboard-response,8
true,15,1,2,1,true,z,false,true,0.0-2.0-0.54-0.489-3.489,0,0,1,90,false,stim,false,1,612,1,1,2,75720,task2,1249072,false,false,1548,image-keyboard-response,9
true,15,0,2,0,true,q,false,true,0.0-2.0-0.54-0.490-3.490,0,0,1,81,false,stim,false,1,754,1,0,0,75720,task2,1251344,false,false,1551,image-keyboard-response,10
true,15,0,2,0,true,q,false,true,0.0-2.0-0.54-0.491-3.491,0,0,1,81,false,stim,false,1,437,1,0,0,75720,task2,1253310,false,false,1554,image-keyboard-response,11
true,15,2,2,2,true,d,false,true,0.0-2.0-0.54-0.492-3.492,0,0,1,68,false,stim,false,0,832,1,0,1,75720,task2,1255681,false,false,1557,image-keyboard-response,12
true,15,2,2,2,true,d,false,true,0.0-2.0-0.54-0.493-3.493,0,0,1,68,false,stim,false,0,540,1,0,1,75720,task2,1257754,false,false,1560,image-keyboard-response,13
true,15,2,2,2,true,d,false,true,0.0-2.0-0.54-0.494-3.494,0,0,1,68,false,stim,false,0,840,1,0,1,75720,task2,1260126,false,false,1563,image-keyboard-response,14
true,15,2,2,2,true,d,false,true,0.0-2.0-0.55-0.495-3.495,0,0,1,68,false,stim,false,0,434,1,0,1,75720,task2,1262089,false,false,1566,image-keyboard-response,15
true,15,0,2,0,true,q,false,true,0.0-2.0-0.55-0.496-3.496,0,0,1,81,false,stim,false,1,797,1,0,0,75720,task2,1264402,false,false,1569,image-keyboard-response,16
true,15,1,2,1,true,z,false,true,0.0-2.0-0.55-0.497-3.497,0,0,1,90,false,stim,false,1,928,1,1,2,75720,task2,1266856,false,false,1572,image-keyboard-response,17
true,15,2,2,2,true,d,false,true,0.0-2.0-0.55-0.498-3.498,0,0,1,68,false,stim,false,0,588,1,0,1,75720,task2,1268964,false,false,1575,image-keyboard-response,18
true,15,1,2,1,true,z,false,false,0.0-2.0-0.55-0.499-3.499,0,0,1,90,false,stim,false,1,811,1,1,2,75720,task2,1271294,false,true,1578,image-keyboard-response,19
true,15,0,2,0,true,q,false,false,0.0-2.0-0.55-0.500-3.500,0,0,1,81,false,stim,false,1,1245,1,0,0,75720,task2,1274074,false,true,1581,image-keyboard-response,20
true,15,1,2,1,true,z,false,true,0.0-2.0-0.55-0.501-3.501,0,0,1,90,false,stim,false,1,1435,1,1,2,75720,task2,1277023,false,false,1584,image-keyboard-response,21
true,15,2,2,2,true,d,false,true,0.0-2.0-0.55-0.502-3.502,0,0,1,68,false,stim,false,0,664,1,0,1,75720,task2,1279213,false,false,1587,image-keyboard-response,22
true,15,0,2,0,true,q,false,true,0.0-2.0-0.55-0.503-3.503,0,0,1,81,false,stim,false,1,436,1,0,0,75720,task2,1281178,false,false,1590,image-keyboard-response,23
true,15,1,2,1,true,z,false,true,0.0-2.0-0.56-0.504-3.504,0,0,1,90,false,stim,false,1,633,1,1,2,75720,task2,1283347,false,false,1593,image-keyboard-response,24
true,15,2,2,2,true,d,false,true,0.0-2.0-0.56-0.505-3.505,0,0,1,68,false,stim,false,0,643,1,0,1,75720,task2,1285513,false,false,1596,image-keyboard-response,25
true,15,0,2,0,true,q,false,true,0.0-2.0-0.56-0.506-3.506,0,0,1,81,false,stim,false,1,552,1,0,0,75720,task2,1287592,false,false,1599,image-keyboard-response,26
true,15,2,2,2,true,d,false,true,0.0-2.0-0.56-0.507-3.507,0,0,1,68,false,stim,false,0,650,1,0,1,75720,task2,1289810,false,false,1602,image-keyboard-response,27
true,15,0,2,0,true,q,false,true,0.0-2.0-0.56-0.508-3.508,0,0,1,81,false,stim,false,1,727,1,0,0,75720,task2,1292060,false,false,1605,image-keyboard-response,28
true,15,1,2,1,true,z,false,true,0.0-2.0-0.56-0.509-3.509,0,0,1,90,false,stim,false,1,696,1,0,2,75720,task2,1294274,false,false,1608,image-keyboard-response,29
true,15,0,2,0,true,q,false,true,0.0-2.0-0.56-0.510-3.510,0,0,1,81,false,stim,false,1,629,1,0,0,75720,task2,1296418,false,false,1611,image-keyboard-response,30
true,15,1,2,1,true,z,false,true,0.0-2.0-0.56-0.511-3.511,0,0,1,90,false,stim,false,1,718,1,0,2,75720,task2,1298650,false,false,1614,image-keyboard-response,31
true,15,2,2,2,true,d,false,true,0.0-2.0-0.56-0.512-3.512,0,0,1,68,false,stim,false,0,568,1,1,1,75720,task2,1300749,false,false,1617,image-keyboard-response,32
true,15,2,2,2,true,d,false,true,0.0-2.0-0.57-0.513-3.513,0,0,1,68,false,stim,false,0,1132,1,1,1,75720,task2,1303401,false,false,1620,image-keyboard-response,33
true,16,0,2,2,false,d,false,false,0.0-2.0-0.57-0.514-3.514,0,1,0,81,true,stim,true,0,550,1,0,0,75720,task2,1305472,false,false,1623,image-keyboard-response,1
true,16,2,2,2,true,d,false,true,0.0-2.0-0.57-0.515-3.515,0,1,0,68,false,stim,false,2,1038,1,1,1,75720,task2,1308028,false,false,1626,image-keyboard-response,2
true,16,2,2,2,true,d,false,true,0.0-2.0-0.57-0.516-3.516,0,1,0,68,false,stim,false,0,403,1,0,0,75720,task2,1309969,false,false,1629,image-keyboard-response,3
true,16,1,2,0,false,q,false,true,0.0-2.0-0.57-0.517-3.517,0,1,0,90,false,stim,true,1,679,1,0,2,75720,task2,1312185,false,true,1632,image-keyboard-response,4
true,16,1,2,0,false,q,false,false,0.0-2.0-0.57-0.518-3.518,0,1,0,90,false,stim,true,1,555,1,0,2,75720,task2,1314272,false,false,1635,image-keyboard-response,5
true,16,2,2,2,true,d,false,true,0.0-2.0-0.57-0.519-3.519,0,1,0,68,false,stim,false,2,640,1,1,1,75720,task2,1316423,false,false,1638,image-keyboard-response,6
true,16,2,2,2,true,d,false,true,0.0-2.0-0.57-0.520-3.520,0,1,0,68,false,stim,false,0,635,1,0,0,75720,task2,1318574,false,false,1641,image-keyboard-response,7
true,16,0,2,0,true,q,false,true,0.0-2.0-0.57-0.521-3.521,0,1,0,81,false,stim,false,1,792,1,0,2,75720,task2,1320879,false,false,1644,image-keyboard-response,8
true,16,0,2,0,true,q,false,true,0.0-2.0-0.58-0.522-3.522,0,1,0,81,false,stim,false,1,527,1,0,2,75720,task2,1322919,false,false,1647,image-keyboard-response,9
true,16,2,2,2,true,d,false,true,0.0-2.0-0.58-0.523-3.523,0,1,0,68,false,stim,false,2,725,1,1,1,75720,task2,1325168,false,false,1650,image-keyboard-response,10
true,16,2,2,2,true,d,false,true,0.0-2.0-0.58-0.524-3.524,0,1,0,68,false,stim,false,0,950,1,0,0,75720,task2,1327634,false,false,1653,image-keyboard-response,11
true,16,2,2,0,false,q,true,false,0.0-2.0-0.58-0.525-3.525,0,1,0,68,false,stim,false,1,896,1,0,2,75720,task2,1330061,false,false,1656,image-keyboard-response,12
true,16,2,2,2,true,d,false,true,0.0-2.0-0.58-0.526-3.526,0,1,0,68,false,stim,false,0,542,1,0,0,75720,task2,1332117,false,false,1659,image-keyboard-response,13
true,16,2,2,2,true,d,false,true,0.0-2.0-0.58-0.527-3.527,0,1,0,68,false,stim,false,2,504,1,1,1,75720,task2,1334143,false,false,1662,image-keyboard-response,14
true,16,0,2,0,true,q,false,true,0.0-2.0-0.58-0.528-3.528,0,1,0,81,false,stim,false,1,402,1,0,2,75720,task2,1336073,false,false,1665,image-keyboard-response,15
true,16,2,2,2,true,d,false,true,0.0-2.0-0.58-0.529-3.529,0,1,0,68,false,stim,false,0,651,1,0,0,75720,task2,1338245,false,false,1668,image-keyboard-response,16
true,16,2,2,2,true,d,false,true,0.0-2.0-0.58-0.530-3.530,0,1,0,68,false,stim,false,2,666,1,1,1,75720,task2,1340448,false,false,1671,image-keyboard-response,17
true,16,0,2,0,true,q,false,true,0.0-2.0-0.59-0.531-3.531,0,1,0,81,false,stim,false,1,448,1,0,2,75720,task2,1342414,false,false,1674,image-keyboard-response,18
true,16,2,2,2,true,d,false,true,0.0-2.0-0.59-0.532-3.532,0,1,0,68,false,stim,false,0,975,1,0,0,75720,task2,1344910,false,false,1677,image-keyboard-response,19
true,16,2,2,2,true,d,false,true,0.0-2.0-0.59-0.533-3.533,0,1,0,68,false,stim,false,2,956,1,1,1,75720,task2,1347388,false,false,1680,image-keyboard-response,20
true,16,0,2,0,true,q,false,true,0.0-2.0-0.59-0.534-3.534,0,1,0,81,false,stim,false,1,465,1,0,2,75720,task2,1349385,false,false,1683,image-keyboard-response,21
true,16,2,2,2,true,d,false,true,0.0-2.0-0.59-0.535-3.535,0,1,0,68,false,stim,false,0,476,1,0,0,75720,task2,1351397,false,false,1686,image-keyboard-response,22
true,16,2,2,2,true,d,false,true,0.0-2.0-0.59-0.536-3.536,0,1,0,68,false,stim,false,2,1102,1,1,1,75720,task2,1354025,false,false,1689,image-keyboard-response,23
true,16,0,2,0,true,q,false,true,0.0-2.0-0.59-0.537-3.537,0,1,0,81,false,stim,false,1,869,1,0,2,75720,task2,1356421,false,false,1692,image-keyboard-response,24
true,16,2,2,2,true,d,false,true,0.0-2.0-0.59-0.538-3.538,0,1,0,68,false,stim,false,2,672,1,1,1,75720,task2,1358619,false,false,1695,image-keyboard-response,25
true,16,2,2,2,true,d,false,true,0.0-2.0-0.59-0.539-3.539,0,1,0,68,false,stim,false,0,772,1,0,0,75720,task2,1360920,false,false,1698,image-keyboard-response,26
true,16,2,2,2,true,d,false,false,0.0-2.0-0.60-0.540-3.540,0,1,0,68,false,stim,false,2,567,1,1,1,75720,task2,1363052,false,true,1701,image-keyboard-response,27
true,16,1,2,2,false,d,true,false,0.0-2.0-0.60-0.541-3.541,0,1,0,90,false,stim,false,2,986,1,1,1,75720,task2,1365568,false,false,1704,image-keyboard-response,28
true,16,0,2,0,true,q,false,true,0.0-2.0-0.60-0.542-3.542,0,1,0,81,false,stim,false,1,625,1,0,2,75720,task2,1367714,false,false,1707,image-keyboard-response,29
true,16,2,2,2,true,d,false,true,0.0-2.0-0.60-0.543-3.543,0,1,0,68,false,stim,false,0,822,1,0,0,75720,task2,1370055,false,false,1710,image-keyboard-response,30
true,16,0,2,0,true,q,false,true,0.0-2.0-0.60-0.544-3.544,0,1,0,81,false,stim,false,1,684,1,1,2,75720,task2,1372259,false,false,1713,image-keyboard-response,31
true,16,0,2,2,false,d,true,false,0.0-2.0-0.60-0.545-3.545,0,1,0,81,false,stim,false,2,800,1,1,1,75720,task2,1374583,false,false,1716,image-keyboard-response,32
true,16,2,2,2,true,d,false,true,0.0-2.0-0.60-0.546-3.546,0,1,0,68,false,stim,false,0,892,1,1,0,75720,task2,1376987,false,false,1719,image-keyboard-response,33
true,16,2,2,2,true,d,false,true,0.0-2.0-0.60-0.547-3.547,0,1,0,68,false,stim,false,0,658,1,1,0,75720,task2,1379170,false,false,1722,image-keyboard-response,34
true,16,0,2,0,true,q,false,true,0.0-2.0-0.60-0.548-3.548,0,1,0,81,false,stim,false,1,778,1,1,2,75720,task2,1381473,false,false,1725,image-keyboard-response,35
true,17,0,0,2,false,d,true,false,0.0-2.0-0.61-0.549-3.549,1,1,1,81,true,stim,false,2,851,1,1,1,75720,task2,1505094,false,false,1848,image-keyboard-response,1
true,17,0,0,2,false,d,true,false,0.0-2.0-0.61-0.550-3.550,1,1,1,81,false,stim,false,2,710,1,1,0,75720,task2,1507322,false,false,1851,image-keyboard-response,2
true,17,2,0,2,true,d,false,false,0.0-2.0-0.61-0.551-3.551,1,1,1,68,false,stim,false,2,545,1,1,0,75720,task2,1509391,false,true,1854,image-keyboard-response,3
true,17,2,0,0,false,q,true,false,0.0-2.0-0.61-0.552-3.552,1,1,1,68,false,stim,false,0,847,1,1,2,75720,task2,1511752,false,false,1857,image-keyboard-response,4
true,17,1,0,2,false,d,true,false,0.0-2.0-0.61-0.553-3.553,1,1,1,90,false,stim,false,2,1318,1,1,1,75720,task2,1514602,false,false,1860,image-keyboard-response,5
true,17,2,0,0,false,q,true,false,0.0-2.0-0.61-0.554-3.554,1,1,1,68,false,stim,false,0,966,1,1,2,75720,task2,1517089,false,false,1863,image-keyboard-response,6
true,17,1,0,0,false,q,true,false,0.0-2.0-0.61-0.555-3.555,1,1,1,90,false,stim,false,0,591,1,1,2,75720,task2,1519201,false,false,1866,image-keyboard-response,7
true,17,2,0,2,true,d,false,true,0.0-2.0-0.61-0.556-3.556,1,1,1,68,false,stim,false,2,772,1,1,0,75720,task2,1521484,false,false,1869,image-keyboard-response,8
true,17,2,0,2,true,d,false,true,0.0-2.0-0.61-0.557-3.557,1,1,1,68,false,stim,false,2,977,1,0,1,75720,task2,1523997,false,false,1872,image-keyboard-response,9
true,17,2,0,2,true,d,false,true,0.0-2.0-0.62-0.558-3.558,1,1,1,68,false,stim,false,2,867,1,0,0,75720,task2,1526390,false,false,1875,image-keyboard-response,10
true,17,2,0,0,false,q,true,false,0.0-2.0-0.62-0.559-3.559,1,1,1,68,false,stim,false,0,827,1,0,2,75720,task2,1528740,false,false,1878,image-keyboard-response,11
true,17,2,0,2,true,d,false,true,0.0-2.0-0.62-0.560-3.560,1,1,1,68,false,stim,false,2,609,1,0,1,75720,task2,1530879,false,false,1881,image-keyboard-response,12
true,17,0,0,0,true,q,false,true,0.0-2.0-0.62-0.561-3.561,1,1,1,81,false,stim,false,0,878,1,0,2,75720,task2,1533292,false,false,1884,image-keyboard-response,13
true,18,2,1,0,false,q,false,false,0.0-2.0-0.62-0.562-3.562,0,0,0,68,true,stim,true,2,568,1,0,1,75720,task2,1535383,false,false,1887,image-keyboard-response,1
true,18,2,1,0,false,q,false,false,0.0-2.0-0.62-0.563-3.563,0,0,0,68,false,stim,true,2,920,1,0,0,75720,task2,1537833,false,false,1890,image-keyboard-response,2
true,18,1,1,0,false,q,true,false,0.0-2.0-0.62-0.564-3.564,0,0,0,90,false,stim,false,2,884,1,0,1,75720,task2,1540233,false,false,1893,image-keyboard-response,3
true,18,0,1,0,true,q,false,true,0.0-2.0-0.62-0.565-3.565,0,0,0,81,false,stim,false,2,1229,1,0,0,75720,task2,1542978,false,false,1896,image-keyboard-response,4
true,18,0,1,1,false,z,false,false,0.0-2.0-0.62-0.566-3.566,0,0,0,81,false,stim,true,0,505,1,0,2,75720,task2,1545009,false,false,1899,image-keyboard-response,5
true,18,0,1,0,true,q,false,true,0.0-2.0-0.63-0.567-3.567,0,0,0,81,false,stim,false,2,606,1,0,0,75720,task2,1547172,false,false,1902,image-keyboard-response,6
true,18,0,1,0,true,q,false,false,0.0-2.0-0.63-0.568-3.568,0,0,0,81,false,stim,false,2,578,1,0,1,75720,task2,1549274,false,true,1905,image-keyboard-response,7
true,18,2,1,0,false,q,false,false,0.0-2.0-0.63-0.569-3.569,0,0,0,68,false,stim,true,2,986,1,0,1,75720,task2,1551796,false,false,1908,image-keyboard-response,8
true,18,0,1,0,true,q,false,true,0.0-2.0-0.63-0.570-3.570,0,0,0,81,false,stim,false,2,396,1,0,0,75720,task2,1553709,false,false,1911,image-keyboard-response,9
true,18,1,1,0,false,q,true,false,0.0-2.0-0.63-0.571-3.571,0,0,0,90,false,stim,false,2,556,1,0,1,75720,task2,1555805,false,false,1914,image-keyboard-response,10
true,18,1,1,1,true,z,false,true,0.0-2.0-0.63-0.572-3.572,0,0,0,90,false,stim,false,0,1039,1,0,2,75720,task2,1558368,false,false,1917,image-keyboard-response,11
true,18,1,1,1,true,z,false,true,0.0-2.0-0.63-0.573-3.573,0,0,0,90,false,stim,false,0,533,1,0,2,75720,task2,1560423,false,false,1920,image-keyboard-response,12
true,18,0,1,0,true,q,false,true,0.0-2.0-0.63-0.574-3.574,0,0,0,81,false,stim,false,2,716,1,0,0,75720,task2,1562666,false,false,1923,image-keyboard-response,13
true,18,1,1,1,true,z,false,true,0.0-2.0-0.63-0.575-3.575,0,0,0,90,false,stim,false,0,687,1,0,2,75720,task2,1564886,false,false,1926,image-keyboard-response,14
true,18,1,1,1,true,z,false,true,0.0-2.0-0.64-0.576-3.576,0,0,0,90,false,stim,false,0,490,1,0,2,75720,task2,1566898,false,false,1929,image-keyboard-response,15
true,18,0,1,0,true,q,false,false,0.0-2.0-0.64-0.577-3.577,0,0,0,81,false,stim,false,2,794,1,0,0,75720,task2,1569225,false,true,1932,image-keyboard-response,16
true,18,2,1,0,false,q,false,false,0.0-2.0-0.64-0.578-3.578,0,0,0,68,false,stim,true,2,759,1,0,0,75720,task2,1571505,false,false,1935,image-keyboard-response,17
true,18,0,1,0,true,q,false,true,0.0-2.0-0.64-0.579-3.579,0,0,0,81,false,stim,false,2,1194,1,0,1,75720,task2,1574225,false,false,1938,image-keyboard-response,18
true,18,0,1,0,true,q,false,true,0.0-2.0-0.64-0.580-3.580,0,0,0,81,false,stim,false,2,1055,1,0,0,75720,task2,1576805,false,false,1941,image-keyboard-response,19
true,18,1,1,1,true,z,false,true,0.0-2.0-0.64-0.581-3.581,0,0,0,90,false,stim,false,0,785,1,0,2,75720,task2,1579120,false,false,1944,image-keyboard-response,20
true,18,1,1,1,true,z,false,true,0.0-2.0-0.64-0.582-3.582,0,0,0,90,false,stim,false,0,1149,1,0,2,75720,task2,1581802,false,false,1947,image-keyboard-response,21
true,18,0,1,0,true,q,false,true,0.0-2.0-0.64-0.583-3.583,0,0,0,81,false,stim,false,2,582,1,0,1,75720,task2,1583902,false,false,1950,image-keyboard-response,22
true,18,1,1,0,false,q,true,false,0.0-2.0-0.64-0.584-3.584,0,0,0,90,false,stim,false,2,1212,1,0,1,75720,task2,1586634,false,false,1953,image-keyboard-response,23
true,18,0,1,0,true,q,false,true,0.0-2.0-0.65-0.585-3.585,0,0,0,81,false,stim,false,2,923,1,0,0,75720,task2,1589107,false,false,1956,image-keyboard-response,24
true,18,0,1,0,true,q,false,true,0.0-2.0-0.65-0.586-3.586,0,0,0,81,false,stim,false,2,964,1,0,1,75720,task2,1591584,false,false,1959,image-keyboard-response,25
true,18,0,1,0,true,q,false,false,0.0-2.0-0.65-0.587-3.587,0,0,0,81,false,stim,false,2,454,1,0,1,75720,task2,1593560,false,true,1962,image-keyboard-response,26
true,18,1,1,1,true,z,false,false,0.0-2.0-0.65-0.588-3.588,0,0,0,90,false,stim,false,0,721,1,0,2,75720,task2,1595804,false,true,1965,image-keyboard-response,27
true,18,0,1,0,true,q,false,true,0.0-2.0-0.65-0.589-3.589,0,0,0,81,false,stim,false,2,716,1,0,1,75720,task2,1598038,false,false,1968,image-keyboard-response,28
true,18,0,1,0,true,q,false,true,0.0-2.0-0.65-0.590-3.590,0,0,0,81,false,stim,false,2,800,1,0,0,75720,task2,1600354,false,false,1971,image-keyboard-response,29
true,18,0,1,0,true,q,false,true,0.0-2.0-0.65-0.591-3.591,0,0,0,81,false,stim,false,2,553,1,0,0,75720,task2,1602429,false,false,1974,image-keyboard-response,30
true,18,2,1,1,false,z,true,false,0.0-2.0-0.65-0.592-3.592,0,0,0,68,false,stim,false,0,464,1,1,2,75720,task2,1604414,false,false,1977,image-keyboard-response,31
true,18,1,1,1,true,z,false,true,0.0-2.0-0.65-0.593-3.593,0,0,0,90,false,stim,false,0,550,1,1,2,75720,task2,1606480,false,false,1980,image-keyboard-response,32
true,18,0,1,0,true,q,false,true,0.0-2.0-0.66-0.594-3.594,0,0,0,81,false,stim,false,2,599,1,0,0,75720,task2,1608606,false,false,1983,image-keyboard-response,33
true,18,1,1,1,true,z,false,true,0.0-2.0-0.66-0.595-3.595,0,0,0,90,false,stim,false,0,745,1,1,2,75720,task2,1610872,false,false,1986,image-keyboard-response,34
true,18,0,1,0,true,q,false,true,0.0-2.0-0.66-0.596-3.596,0,0,0,81,false,stim,false,2,558,1,0,1,75720,task2,1612958,false,false,1989,image-keyboard-response,35
true,19,1,2,1,true,z,false,true,0.0-2.0-0.66-0.597-3.597,0,0,1,90,true,stim,false,1,1231,1,1,2,75720,task2,1615720,false,false,1992,image-keyboard-response,1
true,19,0,2,1,false,z,false,false,0.0-2.0-0.66-0.598-3.598,0,0,1,81,false,stim,true,0,517,1,0,0,75720,task2,1617766,false,false,1995,image-keyboard-response,2
true,19,1,2,1,true,z,false,true,0.0-2.0-0.66-0.599-3.599,0,0,1,90,false,stim,false,1,714,1,1,2,75720,task2,1620008,false,false,1998,image-keyboard-response,3
true,19,0,2,2,false,d,false,false,0.0-2.0-0.66-0.600-3.600,0,0,1,81,false,stim,true,0,589,1,0,1,75720,task2,1622150,false,false,2001,image-keyboard-response,4
true,19,2,2,1,false,z,true,true,0.0-2.0-0.66-0.601-3.601,0,0,1,68,false,stim,false,0,898,1,0,0,75720,task2,1624580,false,true,2004,image-keyboard-response,5
true,19,1,2,2,false,d,true,false,0.0-2.0-0.66-0.602-3.602,0,0,1,90,false,stim,false,0,1018,1,0,1,75720,task2,1627114,false,false,2007,image-keyboard-response,6
true,19,2,2,1,false,z,true,false,0.0-2.0-0.67-0.603-3.603,0,0,1,68,false,stim,false,1,654,1,1,2,75720,task2,1629287,false,false,2010,image-keyboard-response,7
true,19,2,2,1,false,z,true,false,0.0-2.0-0.67-0.604-3.604,0,0,1,68,false,stim,false,0,668,1,0,0,75720,task2,1631469,false,false,2013,image-keyboard-response,8
true,19,1,2,2,false,d,true,false,0.0-2.0-0.67-0.605-3.605,0,0,1,90,false,stim,false,0,473,1,0,1,75720,task2,1633462,false,false,2016,image-keyboard-response,9
true,19,2,2,2,true,d,false,true,0.0-2.0-0.67-0.606-3.606,0,0,1,68,false,stim,false,0,366,1,0,1,75720,task2,1635355,false,false,2019,image-keyboard-response,10
true,19,0,2,1,false,z,false,false,0.0-2.0-0.67-0.607-3.607,0,0,1,81,false,stim,true,0,743,1,0,0,75720,task2,1637622,false,false,2022,image-keyboard-response,11
true,19,2,2,1,false,z,true,false,0.0-2.0-0.67-0.608-3.608,0,0,1,68,false,stim,false,1,1188,1,1,2,75720,task2,1640337,false,false,2025,image-keyboard-response,12
true,19,0,2,1,false,z,true,false,0.0-2.0-0.67-0.609-3.609,0,0,1,81,false,stim,false,1,391,1,1,2,75720,task2,1642258,false,false,2028,image-keyboard-response,13
true,19,2,2,2,true,d,false,true,0.0-2.0-0.67-0.610-3.610,0,0,1,68,false,stim,false,0,710,1,0,1,75720,task2,1644504,false,false,2031,image-keyboard-response,14
true,19,1,2,1,true,z,false,true,0.0-2.0-0.67-0.611-3.611,0,0,1,90,false,stim,false,0,708,1,0,0,75720,task2,1646737,false,false,2034,image-keyboard-response,15
true,19,2,2,1,false,z,true,false,0.0-2.0-0.68-0.612-3.612,0,0,1,68,false,stim,false,1,1105,1,1,2,75720,task2,1649354,false,false,2037,image-keyboard-response,16
true,19,1,2,1,true,z,false,false,0.0-2.0-0.68-0.613-3.613,0,0,1,90,false,stim,false,0,1015,1,0,0,75720,task2,1651889,false,true,2040,image-keyboard-response,17
true,19,2,2,2,true,d,false,true,0.0-2.0-0.68-0.614-3.614,0,0,1,68,false,stim,false,0,740,1,0,1,75720,task2,1654160,false,false,2043,image-keyboard-response,18
true,19,2,2,1,false,z,true,false,0.0-2.0-0.68-0.615-3.615,0,0,1,68,false,stim,false,0,393,1,0,0,75720,task2,1656072,false,false,2046,image-keyboard-response,19
true,19,0,2,1,false,z,false,false,0.0-2.0-0.68-0.616-3.616,0,0,1,81,false,stim,true,0,696,1,0,0,75720,task2,1658302,false,false,2049,image-keyboard-response,20
true,19,2,2,1,false,z,true,false,0.0-2.0-0.68-0.617-3.617,0,0,1,68,false,stim,false,1,780,1,1,2,75720,task2,1660600,false,false,2052,image-keyboard-response,21
true,19,0,2,1,false,z,true,false,0.0-2.0-0.68-0.618-3.618,0,0,1,81,false,stim,false,1,808,1,1,2,75720,task2,1662947,false,false,2055,image-keyboard-response,22
true,19,2,2,2,true,d,false,true,0.0-2.0-0.68-0.619-3.619,0,0,1,68,false,stim,false,0,475,1,0,1,75720,task2,1664945,false,false,2058,image-keyboard-response,23
true,19,2,2,2,true,d,false,true,0.0-2.0-0.68-0.620-3.620,0,0,1,68,false,stim,false,0,626,1,0,1,75720,task2,1667095,false,false,2061,image-keyboard-response,24
true,19,2,2,2,true,d,false,true,0.0-2.0-0.69-0.621-3.621,0,0,1,68,false,stim,false,0,499,1,0,1,75720,task2,1669125,false,false,2064,image-keyboard-response,25
true,19,0,2,1,false,z,false,true,0.0-2.0-0.69-0.622-3.622,0,0,1,81,false,stim,true,0,1091,1,0,0,75720,task2,1671746,false,true,2067,image-keyboard-response,26
true,19,2,2,2,true,d,false,true,0.0-2.0-0.69-0.623-3.623,0,0,1,68,false,stim,false,0,741,1,0,1,75720,task2,1674003,false,false,2070,image-keyboard-response,27
true,19,2,2,1,false,z,true,false,0.0-2.0-0.69-0.624-3.624,0,0,1,68,false,stim,false,1,867,1,0,2,75720,task2,1676399,false,false,2073,image-keyboard-response,28
true,19,0,2,1,false,z,false,false,0.0-2.0-0.69-0.625-3.625,0,0,1,81,false,stim,true,0,551,1,0,0,75720,task2,1678477,false,false,2076,image-keyboard-response,29
true,19,2,2,1,false,z,true,false,0.0-2.0-0.69-0.626-3.626,0,0,1,68,false,stim,false,0,1367,1,0,0,75720,task2,1681367,false,false,2079,image-keyboard-response,30
true,19,2,2,2,true,d,false,true,0.0-2.0-0.69-0.627-3.627,0,0,1,68,false,stim,false,0,812,1,1,1,75720,task2,1683716,false,false,2082,image-keyboard-response,31
true,19,1,2,1,true,z,false,true,0.0-2.0-0.69-0.628-3.628,0,0,1,90,false,stim,false,1,880,1,0,2,75720,task2,1686111,false,false,2085,image-keyboard-response,32
true,20,2,2,0,false,q,true,false,0.0-2.0-0.69-0.629-3.629,0,1,0,68,true,stim,false,1,510,1,0,2,75720,task2,1688150,false,false,2088,image-keyboard-response,1
true,20,1,2,0,false,q,false,false,0.0-2.0-0.70-0.630-3.630,0,1,0,90,false,stim,true,1,1195,1,0,0,75720,task2,1690878,false,false,2091,image-keyboard-response,2
true,20,2,2,0,false,q,true,false,0.0-2.0-0.70-0.631-3.631,0,1,0,68,false,stim,false,1,463,1,0,0,75720,task2,1692867,false,false,2094,image-keyboard-response,3
true,20,1,2,2,false,d,true,false,0.0-2.0-0.70-0.632-3.632,0,1,0,90,false,stim,false,2,766,1,1,1,75720,task2,1695162,false,false,2097,image-keyboard-response,4
true,20,0,2,2,false,d,true,false,0.0-2.0-0.70-0.633-3.633,0,1,0,81,false,stim,false,2,581,1,1,1,75720,task2,1697270,false,false,2100,image-keyboard-response,5
