answered,blockNum,choice,condition,corResp,correct,correct_response,explo,fb,internal_node_id,isStable_1,isStable_2,isStable_3,key_press,newBlock,part,persev,persevResp,rt,sessNum,stableAS,stimulus,subject,task,time_elapsed,training,trap,trial_index,trial_type,trialsInBlock
true,1,1,0,2,false,d,true,false,0.0-2.0-0.0-0.0-3.0,0,0,0,90,true,stim,false,-1,1909,0,0,0,75720,task1,219607,false,false,154,image-keyboard-response,1
true,1,1,0,1,true,z,false,true,0.0-2.0-0.0-0.1-3.1,0,0,0,90,false,stim,false,-1,813,0,0,2,75720,task1,221946,false,false,157,image-keyboard-response,2
true,1,1,0,1,true,z,false,true,0.0-2.0-0.0-0.2-3.2,0,0,0,90,false,stim,false,-1,540,0,0,2,75720,task1,224013,false,false,160,image-keyboard-response,3
true,1,0,0,2,false,d,true,false,0.0-2.0-0.0-0.3-3.3,0,0,0,81,false,stim,false,-1,1006,0,0,0,75720,task1,226542,false,false,163,image-keyboard-response,4
true,1,0,0,0,true,q,false,true,0.0-2.0-0.0-0.4-3.4,0,0,0,81,false,stim,false,-1,861,0,0,1,75720,task1,228921,false,false,166,image-keyboard-response,5
true,1,0,0,0,true,q,false,true,0.0-2.0-0.0-0.5-3.5,0,0,0,81,false,stim,false,-1,598,0,0,1,75720,task1,231037,false,false,169,image-keyboard-response,6
true,1,1,0,1,true,z,false,false,0.0-2.0-0.0-0.6-3.6,0,0,0,90,false,stim,false,-1,724,0,0,2,75720,task1,233278,false,true,172,image-keyboard-response,7
true,1,0,0,0,true,q,false,true,0.0-2.0-0.0-0.7-3.7,0,0,0,81,false,stim,false,-1,509,0,0,1,75720,task1,235314,false,false,175,image-keyboard-response,8
true,1,2,0,2,true,d,false,false,0.0-2.0-0.0-0.8-3.8,0,0,0,68,false,stim,false,-1,1337,0,0,0,75720,task1,238170,false,true,178,image-keyboard-response,9
true,1,0,0,1,false,z,true,false,0.0-2.0-0.1-0.9-3.9,0,0,0,81,false,stim,false,-1,1448,0,0,2,75720,task1,241133,false,false,181,image-keyboard-response,10
true,1,2,0,1,false,z,true,false,0.0-2.0-0.1-0.10-3.10,0,0,0,68,false,stim,false,-1,983,0,0,2,75720,task1,243643,false,false,184,image-keyboard-response,11
true,1,1,0,1,true,z,false,true,0.0-2.0-0.1-0.11-3.11,0,0,0,90,false,stim,false,-1,431,0,0,2,75720,task1,245591,false,false,187,image-keyboard-response,12
true,1,0,0,0,true,q,false,true,0.0-2.0-0.1-0.12-3.12,0,0,0,81,false,stim,false,-1,598,0,0,1,75720,task1,247708,false,false,190,image-keyboard-response,13
true,1,0,0,2,false,d,true,true,0.0-2.0-0.1-0.13-3.13,0,0,0,81,false,stim,false,-1,1609,0,0,0,75720,task1,250828,false,true,193,image-keyboard-response,14
true,1,0,0,2,false,d,true,false,0.0-2.0-0.1-0.14-3.14,0,0,0,81,false,stim,false,-1,481,0,0,0,75720,task1,252830,false,false,196,image-keyboard-response,15
true,1,1,0,2,false,d,true,false,0.0-2.0-0.1-0.15-3.15,0,0,0,90,false,stim,false,-1,677,0,0,0,75720,task1,255033,false,false,199,image-keyboard-response,16
true,1,0,0,0,true,q,false,true,0.0-2.0-0.1-0.16-3.16,0,0,0,81,false,stim,false,-1,689,0,0,1,75720,task1,257243,false,false,202,image-keyboard-response,17
true,1,0,0,0,true,q,false,true,0.0-2.0-0.1-0.17-3.17,0,0,0,81,false,stim,false,-1,1430,0,0,1,75720,task1,260191,false,false,205,image-keyboard-response,18
true,1,1,0,1,true,z,false,true,0.0-2.0-0.2-0.18-3.18,0,0,0,90,false,stim,false,-1,939,0,0,2,75720,task1,262654,false,false,208,image-keyboard-response,19
true,1,0,0,0,true,q,false,true,0.0-2.0-0.2-0.19-3.19,0,0,0,81,false,stim,false,-1,813,0,0,1,75720,task1,264994,false,false,211,image-keyboard-response,20
true,1,0,0,0,true,q,false,true,0.0-2.0-0.2-0.20-3.20,0,0,0,81,false,stim,false,-1,522,0,0,1,75720,task1,267049,false,false,214,image-keyboard-response,21
true,1,2,0,2,true,d,false,true,0.0-2.0-0.2-0.21-3.21,0,0,0,68,false,stim,false,-1,836,0,0,0,75720,task1,269402,false,false,217,image-keyboard-response,22
true,1,1,0,1,true,z,false,true,0.0-2.0-0.2-0.22-3.22,0,0,0,90,false,stim,false,-1,666,0,0,2,75720,task1,271598,false,false,220,image-keyboard-response,23
true,1,2,0,2,true,d,false,false,0.0-2.0-0.2-0.23-3.23,0,0,0,68,false,stim,false,-1,1049,0,0,0,75720,task1,274165,false,true,223,image-keyboard-response,24
true,1,1,0,1,true,z,false,true,0.0-2.0-0.2-0.24-3.24,0,0,0,90,false,stim,false,-1,787,0,0,2,75720,task1,276462,false,false,226,image-keyboard-response,25
true,1,0,0,2,false,d,true,false,0.0-2.0-0.2-0.25-3.25,0,0,0,81,false,stim,false,-1,1235,0,0,0,75720,task1,279221,false,false,229,image-keyboard-response,26
true,2,0,1,2,false,d,false,false,0.0-2.0-0.2-0.26-3.26,0,0,0,81,true,stim,true,0,538,0,0,1,75720,task1,281286,false,false,232,image-keyboard-response,1
true,2,0,1,1,false,z,true,false,0.0-2.0-0.3-0.27-3.27,0,0,0,81,false,stim,false,2,1151,0,0,0,75720,task1,283972,false,false,235,image-keyboard-response,2
true,2,1,1,2,false,d,true,false,0.0-2.0-0.3-0.28-3.28,0,0,0,90,false,stim,false,0,1319,0,0,1,75720,task1,286803,false,false,238,image-keyboard-response,3
true,2,1,1,2,false,d,false,false,0.0-2.0-0.3-0.29-3.29,0,0,0,90,false,stim,true,1,595,0,0,2,75720,task1,288912,false,false,241,image-keyboard-response,4
true,2,1,1,1,true,z,false,true,0.0-2.0-0.3-0.30-3.30,0,0,0,90,false,stim,false,2,1342,0,0,0,75720,task1,291766,false,false,244,image-keyboard-response,5
true,2,1,1,1,true,z,false,true,0.0-2.0-0.3-0.31-3.31,0,0,0,90,false,stim,false,2,478,0,0,0,75720,task1,293770,false,false,247,image-keyboard-response,6
true,2,2,1,2,true,d,false,true,0.0-2.0-0.3-0.32-3.32,0,0,0,68,false,stim,false,0,957,0,0,1,75720,task1,296246,false,false,250,image-keyboard-response,7
true,2,0,1,2,false,d,true,false,0.0-2.0-0.3-0.33-3.33,0,0,0,81,false,stim,false,1,825,0,0,2,75720,task1,298598,false,false,253,image-keyboard-response,8
true,2,1,1,2,false,d,false,false,0.0-2.0-0.3-0.34-3.34,0,0,0,90,false,stim,true,1,771,0,0,2,75720,task1,300894,false,false,256,image-keyboard-response,9
true,2,2,1,2,true,d,false,true,0.0-2.0-0.3-0.35-3.35,0,0,0,68,false,stim,false,0,564,0,0,1,75720,task1,302986,false,false,259,image-keyboard-response,10
true,2,2,1,2,true,d,false,true,0.0-2.0-0.4-0.36-3.36,0,0,0,68,false,stim,false,1,803,0,0,2,75720,task1,305325,false,false,262,image-keyboard-response,11
true,2,1,1,1,true,z,false,true,0.0-2.0-0.4-0.37-3.37,0,0,0,90,false,stim,false,2,674,0,0,0,75720,task1,307529,false,false,265,image-keyboard-response,12
true,2,2,1,2,true,d,false,true,0.0-2.0-0.4-0.38-3.38,0,0,0,68,false,stim,false,0,442,0,0,1,75720,task1,309498,false,false,268,image-keyboard-response,13
true,2,1,1,1,true,z,false,true,0.0-2.0-0.4-0.39-3.39,0,0,0,90,false,stim,false,2,680,0,0,0,75720,task1,311702,false,false,271,image-keyboard-response,14
true,2,2,1,2,true,d,false,true,0.0-2.0-0.4-0.40-3.40,0,0,0,68,false,stim,false,1,786,0,0,2,75720,task1,314012,false,false,274,image-keyboard-response,15
true,2,2,1,2,true,d,false,true,0.0-2.0-0.4-0.41-3.41,0,0,0,68,false,stim,false,0,883,0,0,1,75720,task1,316412,false,false,277,image-keyboard-response,16
true,2,2,1,2,true,d,false,true,0.0-2.0-0.4-0.42-3.42,0,0,0,68,false,stim,false,1,773,0,0,2,75720,task1,318712,false,false,280,image-keyboard-response,17
true,2,1,1,1,true,z,false,false,0.0-2.0-0.4-0.43-3.43,0,0,0,90,false,stim,false,2,776,0,0,0,75720,task1,321010,false,true,283,image-keyboard-response,18
true,2,2,1,2,true,d,false,true,0.0-2.0-0.4-0.44-3.44,0,0,0,68,false,stim,false,0,801,0,0,1,75720,task1,323336,false,false,286,image-keyboard-response,19
true,2,0,1,1,false,z,true,false,0.0-2.0-0.5-0.45-3.45,0,0,0,81,false,stim,false,2,611,0,0,0,75720,task1,325469,false,false,289,image-keyboard-response,20
true,2,2,1,2,true,d,false,true,0.0-2.0-0.5-0.46-3.46,0,0,0,68,false,stim,false,0,670,0,0,1,75720,task1,327654,false,false,292,image-keyboard-response,21
true,2,2,1,2,true,d,false,true,0.0-2.0-0.5-0.47-3.47,0,0,0,68,false,stim,false,1,784,0,0,2,75720,task1,329968,false,false,295,image-keyboard-response,22
true,2,2,1,2,true,d,false,true,0.0-2.0-0.5-0.48-3.48,0,0,0,68,false,stim,false,0,1045,0,0,1,75720,task1,332534,false,false,298,image-keyboard-response,23
true,2,2,1,1,false,z,false,true,0.0-2.0-0.5-0.49-3.49,0,0,0,68,false,stim,true,2,864,0,0,0,75720,task1,334915,false,true,301,image-keyboard-response,24
true,2,2,1,2,true,d,false,true,0.0-2.0-0.5-0.50-3.50,0,0,0,68,false,stim,false,1,813,0,0,2,75720,task1,337249,false,false,304,image-keyboard-response,25
true,2,2,1,2,true,d,false,true,0.0-2.0-0.5-0.51-3.51,0,0,0,68,false,stim,false,0,408,0,0,1,75720,task1,339178,false,false,307,image-keyboard-response,26
true,2,2,1,2,true,d,false,true,0.0-2.0-0.5-0.52-3.52,0,0,0,68,false,stim,false,1,734,0,0,2,75720,task1,341424,false,false,310,image-keyboard-response,27
true,2,2,1,1,false,z,false,false,0.0-2.0-0.5-0.53-3.53,0,0,0,68,false,stim,true,2,615,0,0,0,75720,task1,343571,false,false,313,image-keyboard-response,28
true,2,1,1,1,true,z,false,true,0.0-2.0-0.6-0.54-3.54,0,0,0,90,false,stim,false,2,1040,0,0,0,75720,task1,346142,false,false,316,image-keyboard-response,29
true,2,2,1,2,true,d,false,true,0.0-2.0-0.6-0.55-3.55,0,0,0,68,false,stim,false,1,593,0,0,2,75720,task1,348266,false,false,319,image-keyboard-response,30
true,2,2,1,2,true,d,false,true,0.0-2.0-0.6-0.56-3.56,0,0,0,68,false,stim,false,0,873,0,0,1,75720,task1,350669,false,false,322,image-keyboard-response,31
true,2,2,1,2,true,d,false,true,0.0-2.0-0.6-0.57-3.57,0,0,0,68,false,stim,false,1,710,0,0,2,75720,task1,352900,false,false,325,image-keyboard-response,32
true,2,2,1,2,true,d,false,true,0.0-2.0-0.6-0.58-3.58,0,0,0,68,false,stim,false,0,686,0,0,1,75720,task1,355100,false,false,328,image-keyboard-response,33
true,2,2,1,2,true,d,false,true,0.0-2.0-0.6-0.59-3.59,0,0,0,68,false,stim,false,0,544,0,0,1,75720,task1,357164,false,false,331,image-keyboard-response,34
true,2,2,1,2,true,d,false,true,0.0-2.0-0.6-0.60-3.60,0,0,0,68,false,stim,false,1,759,0,0,2,75720,task1,359438,false,false,334,image-keyboard-response,35
true,2,1,1,1,true,z,false,true,0.0-2.0-0.6-0.61-3.61,0,0,0,90,false,stim,false,2,391,0,0,0,75720,task1,361357,false,false,337,image-keyboard-response,36
true,2,1,1,1,true,z,false,true,0.0-2.0-0.6-0.62-3.62,0,0,0,90,false,stim,false,2,722,0,0,0,75720,task1,363586,false,false,340,image-keyboard-response,37
true,2,2,1,2,true,d,false,true,0.0-2.0-0.7-0.63-3.63,0,0,0,68,false,stim,false,1,671,0,0,2,75720,task1,365782,false,false,343,image-keyboard-response,38
true,2,2,1,2,true,d,false,true,0.0-2.0-0.7-0.64-3.64,0,0,0,68,false,stim,false,1,595,0,0,2,75720,task1,367907,false,false,346,image-keyboard-response,39
true,2,2,1,2,true,d,false,true,0.0-2.0-0.7-0.65-3.65,0,0,0,68,false,stim,false,0,760,0,0,1,75720,task1,370194,false,false,349,image-keyboard-response,40
true,3,2,1,1,false,z,false,false,0.0-2.0-0.7-0.66-3.66,0,0,0,68,true,stim,true,2,498,0,0,1,75720,task1,372218,false,false,352,image-keyboard-response,1
true,3,0,1,1,false,z,true,false,0.0-2.0-0.7-0.67-3.67,0,0,0,81,false,stim,false,2,946,0,0,1,75720,task1,374675,false,false,355,image-keyboard-response,2
true,3,1,1,0,false,q,false,false,0.0-2.0-0.7-0.68-3.68,0,0,0,90,false,stim,true,1,403,0,0,0,75720,task1,376589,false,false,358,image-keyboard-response,3
true,3,0,1,0,true,q,false,true,0.0-2.0-0.7-0.69-3.69,0,0,0,81,false,stim,false,1,503,0,0,0,75720,task1,378612,false,false,361,image-keyboard-response,4
true,3,0,1,0,true,q,false,true,0.0-2.0-0.7-0.70-3.70,0,0,0,81,false,stim,false,1,654,0,0,0,75720,task1,380795,false,false,364,image-keyboard-response,5
true,3,2,1,0,false,q,false,false,0.0-2.0-0.7-0.71-3.71,0,0,0,68,false,stim,true,2,668,0,0,2,75720,task1,382992,false,false,367,image-keyboard-response,6
true,3,0,1,0,true,q,false,true,0.0-2.0-0.8-0.72-3.72,0,0,0,81,false,stim,false,2,728,0,0,2,75720,task1,385238,false,false,370,image-keyboard-response,7
true,3,2,1,1,false,z,false,false,0.0-2.0-0.8-0.73-3.73,0,0,0,68,false,stim,true,2,657,0,0,1,75720,task1,387406,false,false,373,image-keyboard-response,8
true,3,1,1,1,true,z,false,true,0.0-2.0-0.8-0.74-3.74,0,0,0,90,false,stim,false,2,1028,0,0,1,75720,task1,389956,false,false,376,image-keyboard-response,9
true,3,0,1,0,true,q,false,true,0.0-2.0-0.8-0.75-3.75,0,0,0,81,false,stim,false,1,760,0,0,0,75720,task1,392230,false,false,379,image-keyboard-response,10
true,3,0,1,0,true,q,false,true,0.0-2.0-0.8-0.76-3.76,0,0,0,81,false,stim,false,2,843,0,0,2,75720,task1,394590,false,false,382,image-keyboard-response,11
true,3,0,1,0,true,q,false,true,0.0-2.0-0.8-0.77-3.77,0,0,0,81,false,stim,false,2,649,0,0,2,75720,task1,396758,false,false,385,image-keyboard-response,12
true,3,0,1,0,true,q,false,true,0.0-2.0-0.8-0.78-3.78,0,0,0,81,false,stim,false,1,1032,0,0,0,75720,task1,399300,false,false,388,image-keyboard-response,13
true,3,0,1,0,true,q,false,true,0.0-2.0-0.8-0.79-3.79,0,0,0,81,false,stim,false,1,429,0,0,0,75720,task1,401255,false,false,391,image-keyboard-response,14
true,3,1,1,1,true,z,false,true,0.0-2.0-0.8-0.80-3.80,0,0,0,90,false,stim,false,2,879,0,0,1,75720,task1,403659,false,false,394,image-keyboard-response,15
true,3,0,1,0,true,q,false,true,0.0-2.0-0.9-0.81-3.81,0,0,0,81,false,stim,false,2,580,0,0,2,75720,task1,405760,false,false,397,image-keyboard-response,16
true,3,0,1,0,true,q,false,true,0.0-2.0-0.9-0.82-3.82,0,0,0,81,false,stim,false,1,890,0,0,0,75720,task1,408169,false,false,400,image-keyboard-response,17
true,3,1,1,1,true,z,false,false,0.0-2.0-0.9-0.83-3.83,0,0,0,90,false,stim,false,2,1014,0,0,1,75720,task1,410711,false,true,403,image-keyboard-response,18
true,3,2,1,1,false,z,false,false,0.0-2.0-0.9-0.84-3.84,0,0,0,68,false,stim,true,2,491,0,0,1,75720,task1,412721,false,false,406,image-keyboard-response,19
true,3,0,1,0,true,q,false,true,0.0-2.0-0.9-0.85-3.85,0,0,0,81,false,stim,false,2,792,0,0,2,75720,task1,415025,false,false,409,image-keyboard-response,20
true,3,0,1,0,true,q,false,true,0.0-2.0-0.9-0.86-3.86,0,0,0,81,false,stim,false,1,710,0,0,0,75720,task1,417269,false,false,412,image-keyboard-response,21
true,3,0,1,0,true,q,false,true,0.0-2.0-0.9-0.87-3.87,0,0,0,81,false,stim,false,1,625,0,0,0,75720,task1,419418,false,false,415,image-keyboard-response,22
true,3,0,1,0,true,q,false,true,0.0-2.0-0.9-0.88-3.88,0,0,0,81,false,stim,false,2,673,0,0,2,75720,task1,421609,false,false,418,image-keyboard-response,23
true,3,0,1,1,false,z,true,false,0.0-2.0-0.9-0.89-3.89,0,0,0,81,false,stim,false,2,408,0,0,1,75720,task1,423525,false,false,421,image-keyboard-response,24
true,3,0,1,0,true,q,false,true,0.0-2.0-0.10-0.90-3.90,0,0,0,81,false,stim,false,2,757,0,0,2,75720,task1,425807,false,false,424,image-keyboard-response,25
true,3,0,1,0,true,q,false,true,0.0-2.0-0.10-0.91-3.91,0,0,0,81,false,stim,false,2,517,0,0,2,75720,task1,427853,false,false,427,image-keyboard-response,26
true,3,0,1,0,true,q,false,true,0.0-2.0-0.10-0.92-3.92,0,0,0,81,false,stim,false,2,558,0,0,2,75720,task1,429937,false,false,430,image-keyboard-response,27
true,3,1,1,1,true,z,false,true,0.0-2.0-0.10-0.93-3.93,0,0,0,90,false,stim,false,2,889,0,0,1,75720,task1,432340,false,false,433,image-keyboard-response,28
true,3,1,1,1,true,z,false,true,0.0-2.0-0.10-0.94-3.94,0,0,0,90,false,stim,false,2,1001,0,0,1,75720,task1,434854,false,false,436,image-keyboard-response,29
true,3,1,1,1,true,z,false,true,0.0-2.0-0.10-0.95-3.95,0,0,0,90,false,stim,false,2,567,0,0,1,75720,task1,436946,false,false,439,image-keyboard-response,30
true,3,0,1,0,true,q,false,true,0.0-2.0-0.10-0.96-3.96,0,0,0,81,false,stim,false,1,731,0,0,0,75720,task1,439192,false,false,442,image-keyboard-response,31
true,3,0,1,0,true,q,false,true,0.0-2.0-0.10-0.97-3.97,0,0,0,81,false,stim,false,1,634,0,0,0,75720,task1,441350,false,false,445,image-keyboard-response,32
true,3,0,1,0,true,q,false,true,0.0-2.0-0.10-0.98-3.98,0,0,0,81,false,stim,false,1,500,0,0,0,75720,task1,443376,false,false,448,image-keyboard-response,33
true,3,1,1,1,true,z,false,true,0.0-2.0-0.11-0.99-3.99,0,0,0,90,false,stim,false,2,784,0,0,1,75720,task1,445679,false,false,451,image-keyboard-response,34
true,3,0,1,0,true,q,false,true,0.0-2.0-0.11-0.100-3.100,0,0,0,81,false,stim,false,1,658,0,0,0,75720,task1,447858,false,false,454,image-keyboard-response,35
true,3,0,1,0,true,q,false,true,0.0-2.0-0.11-0.101-3.101,0,0,0,81,false,stim,false,2,876,0,0,2,75720,task1,450254,false,false,457,image-keyboard-response,36
true,3,0,1,0,true,q,false,true,0.0-2.0-0.11-0.102-3.102,0,0,0,81,false,stim,false,1,563,0,0,0,75720,task1,452346,false,false,460,image-keyboard-response,37
true,3,0,1,0,true,q,false,true,0.0-2.0-0.11-0.103-3.103,0,0,0,81,false,stim,false,2,691,0,0,2,75720,task1,454555,false,false,463,image-keyboard-response,38
true,3,0,1,1,false,z,true,false,0.0-2.0-0.11-0.104-3.104,0,0,0,81,false,stim,false,2,784,0,0,1,75720,task1,456855,false,false,466,image-keyboard-response,39
true,3,0,1,0,true,q,false,true,0.0-2.0-0.11-0.105-3.105,0,0,0,81,false,stim,false,2,677,0,0,2,75720,task1,459049,false,false,469,image-keyboard-response,40
true,4,1,1,0,false,q,false,false,0.0-2.0-0.11-0.106-3.106,0,0,0,90,true,stim,true,1,574,0,0,1,75720,task1,461139,false,false,472,image-keyboard-response,1
true,4,0,1,1,false,z,false,false,0.0-2.0-0.11-0.107-3.107,0,0,0,81,false,stim,true,0,718,0,0,0,75720,task1,463374,false,false,475,image-keyboard-response,2
true,4,0,1,1,false,z,false,false,0.0-2.0-0.12-0.108-3.108,0,0,0,81,false,stim,true,0,1423,0,0,2,75720,task1,466312,false,false,478,image-keyboard-response,3
true,4,2,1,1,false,z,true,false,0.0-2.0-0.12-0.109-3.109,0,0,0,68,false,stim,false,0,604,0,0,2,75720,task1,468435,false,false,481,image-keyboard-response,4
true,4,2,1,0,false,q,true,false,0.0-2.0-0.12-0.110-3.110,0,0,0,68,false,stim,false,1,611,0,0,1,75720,task1,470562,false,false,484,image-keyboard-response,5
true,4,1,1,1,true,z,false,true,0.0-2.0-0.12-0.111-3.111,0,0,0,90,false,stim,false,0,522,0,0,2,75720,task1,472601,false,false,487,image-keyboard-response,6
true,4,0,1,0,true,q,false,true,0.0-2.0-0.12-0.112-3.112,0,0,0,81,false,stim,false,1,1321,0,0,1,75720,task1,475450,false,false,490,image-keyboard-response,7
true,4,0,1,1,false,z,false,false,0.0-2.0-0.12-0.113-3.113,0,0,0,81,false,stim,true,0,671,0,0,0,75720,task1,477640,false,false,493,image-keyboard-response,8
true,4,1,1,1,true,z,false,true,0.0-2.0-0.12-0.114-3.114,0,0,0,90,false,stim,false,0,834,0,0,0,75720,task1,479999,false,false,496,image-keyboard-response,9
true,4,1,1,1,true,z,false,true,0.0-2.0-0.12-0.115-3.115,0,0,0,90,false,stim,false,0,579,0,0,0,75720,task1,482096,false,false,499,image-keyboard-response,10
true,4,0,1,0,true,q,false,true,0.0-2.0-0.12-0.116-3.116,0,0,0,81,false,stim,false,1,807,0,0,1,75720,task1,484441,false,false,502,image-keyboard-response,11
true,4,0,1,0,true,q,false,true,0.0-2.0-0.13-0.117-3.117,0,0,0,81,false,stim,false,1,808,0,0,1,75720,task1,486778,false,false,505,image-keyboard-response,12
true,4,0,1,1,false,z,false,false,0.0-2.0-0.13-0.118-3.118,0,0,0,81,false,stim,true,0,1739,0,0,2,75720,task1,490032,false,false,508,image-keyboard-response,13
true,4,1,1,1,true,z,false,true,0.0-2.0-0.13-0.119-3.119,0,0,0,90,false,stim,false,0,655,0,0,0,75720,task1,492218,false,false,511,image-keyboard-response,14
true,4,1,1,1,true,z,false,true,0.0-2.0-0.13-0.120-3.120,0,0,0,90,false,stim,false,0,474,0,0,2,75720,task1,494210,false,false,514,image-keyboard-response,15
true,4,0,1,0,true,q,false,true,0.0-2.0-0.13-0.121-3.121,0,0,0,81,false,stim,false,1,856,0,0,1,75720,task1,496594,false,false,517,image-keyboard-response,16
true,4,1,1,1,true,z,false,true,0.0-2.0-0.13-0.122-3.122,0,0,0,90,false,stim,false,0,691,0,0,2,75720,task1,498796,false,false,520,image-keyboard-response,17
true,4,1,1,1,true,z,false,true,0.0-2.0-0.13-0.123-3.123,0,0,0,90,false,stim,false,0,692,0,0,0,75720,task1,501011,false,false,523,image-keyboard-response,18
true,4,0,1,0,true,q,false,true,0.0-2.0-0.13-0.124-3.124,0,0,0,81,false,stim,false,1,498,0,0,1,75720,task1,503033,false,false,526,image-keyboard-response,19
true,4,1,1,1,true,z,false,true,0.0-2.0-0.13-0.125-3.125,0,0,0,90,false,stim,false,0,921,0,0,0,75720,task1,505475,false,false,529,image-keyboard-response,20
true,4,1,1,1,true,z,false,true,0.0-2.0-0.14-0.126-3.126,0,0,0,90,false,stim,false,0,484,0,0,0,75720,task1,507472,false,false,532,image-keyboard-response,21
true,4,1,1,1,true,z,false,true,0.0-2.0-0.14-0.127-3.127,0,0,0,90,false,stim,false,0,624,0,0,2,75720,task1,509619,false,false,535,image-keyboard-response,22
true,4,1,1,1,true,z,false,true,0.0-2.0-0.14-0.128-3.128,0,0,0,90,false,stim,false,0,871,0,0,0,75720,task1,512000,false,false,538,image-keyboard-response,23
true,4,1,1,1,true,z,false,true,0.0-2.0-0.14-0.129-3.129,0,0,0,90,false,stim,false,0,652,0,0,2,75720,task1,514178,false,false,541,image-keyboard-response,24
true,4,0,1,0,true,q,false,true,0.0-2.0-0.14-0.130-3.130,0,0,0,81,false,stim,false,1,623,0,0,1,75720,task1,516312,false,false,544,image-keyboard-response,25
true,4,0,1,0,true,q,false,true,0.0-2.0-0.14-0.131-3.131,0,0,0,81,false,stim,false,1,1447,0,0,1,75720,task1,519278,false,false,547,image-keyboard-response,26
true,4,1,1,1,true,z,false,true,0.0-2.0-0.14-0.132-3.132,0,0,0,90,false,stim,false,0,600,0,0,2,75720,task1,521410,false,false,550,image-keyboard-response,27
true,4,1,1,1,true,z,false,true,0.0-2.0-0.14-0.133-3.133,0,0,0,90,false,stim,false,0,1198,0,0,0,75720,task1,524122,false,false,553,image-keyboard-response,28
true,4,0,1,0,true,q,false,true,0.0-2.0-0.14-0.134-3.134,0,0,0,81,false,stim,false,1,570,0,0,1,75720,task1,526213,false,false,556,image-keyboard-response,29
true,4,1,1,1,true,z,false,true,0.0-2.0-0.15-0.135-3.135,0,0,0,90,false,stim,false,0,747,0,0,2,75720,task1,528483,false,false,559,image-keyboard-response,30
true,4,1,1,1,true,z,false,true,0.0-2.0-0.15-0.136-3.136,0,0,0,90,false,stim,false,0,1161,0,0,0,75720,task1,531171,false,false,562,image-keyboard-response,31
true,4,1,1,1,true,z,false,true,0.0-2.0-0.15-0.137-3.137,0,0,0,90,false,stim,false,0,751,0,0,2,75720,task1,533439,false,false,565,image-keyboard-response,32
true,4,1,1,1,true,z,false,true,0.0-2.0-0.15-0.138-3.138,0,0,0,90,false,stim,false,0,1258,0,0,0,75720,task1,536210,false,false,568,image-keyboard-response,33
true,4,0,1,0,true,q,false,true,0.0-2.0-0.15-0.139-3.139,0,0,0,81,false,stim,false,1,809,0,0,1,75720,task1,538540,false,false,571,image-keyboard-response,34
true,4,1,1,1,true,z,false,true,0.0-2.0-0.15-0.140-3.140,0,0,0,90,false,stim,false,0,1407,0,0,2,75720,task1,541479,false,false,574,image-keyboard-response,35
true,4,1,1,1,true,z,false,true,0.0-2.0-0.15-0.141-3.141,0,0,0,90,false,stim,false,0,1042,0,0,0,75720,task1,544048,false,false,577,image-keyboard-response,36
true,4,0,1,0,true,q,false,true,0.0-2.0-0.15-0.142-3.142,0,0,0,81,false,stim,false,1,628,0,0,1,75720,task1,546206,false,false,580,image-keyboard-response,37
true,4,0,1,0,true,q,false,true,0.0-2.0-0.15-0.143-3.143,0,0,0,81,false,stim,false,1,681,0,0,1,75720,task1,548407,false,false,583,image-keyboard-response,38
true,4,1,1,1,true,z,false,true,0.0-2.0-0.16-0.144-3.144,0,0,0,90,false,stim,false,0,926,0,0,2,75720,task1,550845,false,false,586,image-keyboard-response,39
true,4,1,1,1,true,z,false,true,0.0-2.0-0.16-0.145-3.145,0,0,0,90,false,stim,false,0,488,0,0,0,75720,task1,552855,false,false,589,image-keyboard-response,40
true,4,1,1,1,true,z,false,true,0.0-2.0-0.16-0.146-3.146,0,0,0,90,false,stim,false,0,732,0,0,2,75720,task1,555108,false,false,592,image-keyboard-response,41
true,5,0,1,1,false,z,false,false,0.0-2.0-0.16-0.147-3.147,0,0,0,81,true,stim,true,0,700,0,0,1,75720,task1,557331,false,false,595,image-keyboard-response,1
true,5,1,1,2,false,d,false,false,0.0-2.0-0.16-0.148-3.148,0,0,0,90,false,stim,true,1,1146,0,0,0,75720,task1,560002,false,false,598,image-keyboard-response,2
true,5,1,1,1,true,z,false,true,0.0-2.0-0.16-0.149-3.149,0,0,0,90,false,stim,false,0,959,0,0,1,75720,task1,562488,false,false,601,image-keyboard-response,3
true,5,0,1,2,false,d,true,false,0.0-2.0-0.16-0.150-3.150,0,0,0,81,false,stim,false,1,1575,0,0,0,75720,task1,565579,false,false,604,image-keyboard-response,4
true,5,1,1,0,false,q,false,false,0.0-2.0-0.16-0.151-3.151,0,0,0,90,false,stim,true,1,518,0,0,2,75720,task1,567609,false,false,607,image-keyboard-response,5
true,5,1,1,1,true,z,false,true,0.0-2.0-0.16-0.152-3.152,0,0,0,90,false,stim,false,0,381,0,0,1,75720,task1,569521,false,false,610,image-keyboard-response,6
true,5,2,1,2,true,d,false,true,0.0-2.0-0.17-0.153-3.153,0,0,0,68,false,stim,false,1,593,0,0,0,75720,task1,571649,false,false,613,image-keyboard-response,7
true,5,1,1,1,true,z,false,true,0.0-2.0-0.17-0.154-3.154,0,0,0,90,false,stim,false,0,1147,0,0,1,75720,task1,574320,false,false,616,image-keyboard-response,8
true,5,2,1,2,true,d,false,true,0.0-2.0-0.17-0.155-3.155,0,0,0,68,false,stim,false,1,687,0,0,0,75720,task1,576537,false,false,619,image-keyboard-response,9
true,5,2,1,0,false,q,true,false,0.0-2.0-0.17-0.156-3.156,0,0,0,68,false,stim,false,1,984,0,0,2,75720,task1,579046,false,false,622,image-keyboard-response,10
true,5,0,1,0,true,q,false,true,0.0-2.0-0.17-0.157-3.157,0,0,0,81,false,stim,false,1,713,0,0,2,75720,task1,581276,false,false,625,image-keyboard-response,11
true,5,2,1,2,true,d,false,false,0.0-2.0-0.17-0.158-3.158,0,0,0,68,false,stim,false,1,884,0,0,0,75720,task1,583674,false,true,628,image-keyboard-response,12
true,5,0,1,0,true,q,false,true,0.0-2.0-0.17-0.159-3.159,0,0,0,81,false,stim,false,1,1136,0,0,2,75720,task1,586333,false,false,631,image-keyboard-response,13
true,5,1,1,1,true,z,false,true,0.0-2.0-0.17-0.160-3.160,0,0,0,90,false,stim,false,0,552,0,0,1,75720,task1,588407,false,false,634,image-keyboard-response,14
true,5,1,1,1,true,z,false,true,0.0-2.0-0.17-0.161-3.161,0,0,0,90,false,stim,false,0,569,0,0,1,75720,task1,590502,false,false,637,image-keyboard-response,15
true,5,1,1,1,true,z,false,true,0.0-2.0-0.18-0.162-3.162,0,0,0,90,false,stim,false,0,640,0,0,1,75720,task1,592662,false,false,640,image-keyboard-response,16
true,5,0,1,0,true,q,false,true,0.0-2.0-0.18-0.163-3.163,0,0,0,81,false,stim,false,1,656,0,0,2,75720,task1,594843,false,false,643,image-keyboard-response,17
true,5,1,1,2,false,d,false,false,0.0-2.0-0.18-0.164-3.164,0,0,0,90,false,stim,true,1,634,0,0,0,75720,task1,597011,false,false,646,image-keyboard-response,18
true,5,0,1,0,true,q,false,true,0.0-2.0-0.18-0.165-3.165,0,0,0,81,false,stim,false,1,720,0,0,2,75720,task1,599245,false,false,649,image-keyboard-response,19
true,5,0,1,2,false,d,true,false,0.0-2.0-0.18-0.166-3.166,0,0,0,81,false,stim,false,1,461,0,0,0,75720,task1,601230,false,false,652,image-keyboard-response,20
true,5,1,1,2,false,d,false,false,0.0-2.0-0.18-0.167-3.167,0,0,0,90,false,stim,true,1,547,0,0,0,75720,task1,603305,false,false,655,image-keyboard-response,21
true,5,0,1,0,true,q,false,true,0.0-2.0-0.18-0.168-3.168,0,0,0,81,false,stim,false,1,507,0,0,2,75720,task1,605337,false,false,658,image-keyboard-response,22
true,5,1,1,1,true,z,false,true,0.0-2.0-0.18-0.169-3.169,0,0,0,90,false,stim,false,0,451,0,0,1,75720,task1,607301,false,false,661,image-keyboard-response,23
true,5,1,1,1,true,z,false,true,0.0-2.0-0.18-0.170-3.170,0,0,0,90,false,stim,false,0,666,0,0,1,75720,task1,609496,false,false,664,image-keyboard-response,24
true,5,1,1,1,true,z,false,true,0.0-2.0-0.19-0.171-3.171,0,0,0,90,false,stim,false,0,595,0,0,1,75720,task1,611614,false,false,667,image-keyboard-response,25
true,5,2,1,2,true,d,false,true,0.0-2.0-0.19-0.172-3.172,0,0,0,68,false,stim,false,1,619,0,0,0,75720,task1,613764,false,false,670,image-keyboard-response,26
true,5,2,1,2,true,d,false,true,0.0-2.0-0.19-0.173-3.173,0,0,0,68,false,stim,false,1,638,0,0,0,75720,task1,615924,false,false,673,image-keyboard-response,27
true,5,0,1,0,true,q,false,true,0.0-2.0-0.19-0.174-3.174,0,0,0,81,false,stim,false,1,1012,0,0,2,75720,task1,618458,false,false,676,image-keyboard-response,28
true,5,0,1,0,true,q,false,true,0.0-2.0-0.19-0.175-3.175,0,0,0,81,false,stim,false,1,560,0,0,2,75720,task1,620546,false,false,679,image-keyboard-response,29
true,5,1,1,1,true,z,false,true,0.0-2.0-0.19-0.176-3.176,0,0,0,90,false,stim,false,0,828,0,0,1,75720,task1,622900,false,false,682,image-keyboard-response,30
true,5,0,1,0,true,q,false,true,0.0-2.0-0.19-0.177-3.177,0,0,0,81,false,stim,false,1,876,0,0,2,75720,task1,625295,false,false,685,image-keyboard-response,31
true,5,2,1,2,true,d,false,true,0.0-2.0-0.19-0.178-3.178,0,0,0,68,false,stim,false,1,958,0,0,0,75720,task1,627766,false,false,688,image-keyboard-response,32
true,5,1,1,1,true,z,false,false,0.0-2.0-0.19-0.179-3.179,0,0,0,90,false,stim,false,0,1039,0,0,1,75720,task1,630318,false,true,691,image-keyboard-response,33
true,5,2,1,2,true,d,false,true,0.0-2.0-0.20-0.180-3.180,0,0,0,68,false,stim,false,1,902,0,0,0,75720,task1,632741,false,false,694,image-keyboard-response,34
true,5,0,1,0,true,q,false,false,0.0-2.0-0.20-0.181-3.181,0,0,0,81,false,stim,false,1,581,0,0,2,75720,task1,634845,false,true,697,image-keyboard-response,35
true,5,0,1,1,false,z,false,false,0.0-2.0-0.20-0.182-3.182,0,0,0,81,false,stim,true,0,1190,0,0,1,75720,task1,637565,false,false,700,image-keyboard-response,36
true,5,1,1,0,false,q,false,false,0.0-2.0-0.20-0.183-3.183,0,0,0,90,false,stim,true,1,1494,0,0,2,75720,task1,640594,false,false,703,image-keyboard-response,37
true,5,2,1,1,false,z,true,false,0.0-2.0-0.20-0.184-3.184,0,0,0,68,false,stim,false,0,1037,0,0,1,75720,task1,643163,false,false,706,image-keyboard-response,38
true,5,2,1,2,true,d,false,true,0.0-2.0-0.20-0.185-3.185,0,0,0,68,false,stim,false,1,407,0,0,0,75720,task1,645097,false,false,709,image-keyboard-response,39
true,5,0,1,1,false,z,false,false,0.0-2.0-0.20-0.186-3.186,0,0,0,81,false,stim,true,0,820,0,0,1,75720,task1,647450,false,false,712,image-keyboard-response,40
true,5,2,1,2,true,d,false,true,0.0-2.0-0.20-0.187-3.187,0,0,0,68,false,stim,false,1,669,0,0,0,75720,task1,649636,false,false,715,image-keyboard-response,41
true,5,0,1,0,true,q,false,true,0.0-2.0-0.20-0.188-3.188,0,0,0,81,false,stim,false,1,983,0,0,2,75720,task1,652138,false,false,718,image-keyboard-response,42
true,6,2,2,0,false,q,true,false,0.0-2.0-0.21-0.189-3.189,0,0,0,68,true,stim,false,1,1351,0,0,1,75720,task1,655006,false,false,721,image-keyboard-response,1
true,6,0,2,1,false,z,false,false,0.0-2.0-0.21-0.190-3.190,0,0,0,81,false,stim,true,0,566,0,0,2,75720,task1,657101,false,false,724,image-keyboard-response,2
true,6,0,2,1,false,z,true,false,0.0-2.0-0.21-0.191-3.191,0,0,0,81,false,stim,false,2,889,0,0,0,75720,task1,659519,false,false,727,image-keyboard-response,3
true,6,1,2,1,true,z,false,true,0.0-2.0-0.21-0.192-3.192,0,0,0,90,false,stim,false,0,1251,0,0,2,75720,task1,662296,false,false,730,image-keyboard-response,4
true,6,2,2,1,false,z,false,false,0.0-2.0-0.21-0.193-3.193,0,0,0,68,false,stim,true,2,452,0,0,0,75720,task1,664270,false,false,733,image-keyboard-response,5
true,6,0,2,1,false,z,true,false,0.0-2.0-0.21-0.194-3.194,0,0,0,81,false,stim,false,2,1143,0,0,0,75720,task1,666931,false,false,736,image-keyboard-response,6
true,6,1,2,1,true,z,false,true,0.0-2.0-0.21-0.195-3.195,0,0,0,90,false,stim,false,0,397,0,0,2,75720,task1,668855,false,false,739,image-keyboard-response,7
true,6,1,2,0,false,q,false,false,0.0-2.0-0.21-0.196-3.196,0,0,0,90,false,stim,true,1,692,0,0,1,75720,task1,671078,false,false,742,image-keyboard-response,8
true,6,2,2,0,false,q,true,false,0.0-2.0-0.21-0.197-3.197,0,0,0,68,false,stim,false,1,857,0,0,1,75720,task1,673467,false,false,745,image-keyboard-response,9
true,6,1,2,1,true,z,false,true,0.0-2.0-0.22-0.198-3.198,0,0,0,90,false,stim,false,0,858,0,0,2,75720,task1,675837,false,false,748,image-keyboard-response,10
true,6,0,2,1,false,z,true,false,0.0-2.0-0.22-0.199-3.199,0,0,0,81,false,stim,false,2,662,0,0,0,75720,task1,678025,false,false,751,image-keyboard-response,11
true,6,1,2,1,true,z,false,true,0.0-2.0-0.22-0.200-3.200,0,0,0,90,false,stim,false,2,708,0,0,0,75720,task1,680244,false,false,754,image-keyboard-response,12
true,6,1,2,0,false,q,false,false,0.0-2.0-0.22-0.201-3.201,0,0,0,90,false,stim,true,1,725,0,0,1,75720,task1,682500,false,false,757,image-keyboard-response,13
true,6,1,2,1,true,z,false,true,0.0-2.0-0.22-0.202-3.202,0,0,0,90,false,stim,false,0,608,0,0,2,75720,task1,684627,false,false,760,image-keyboard-response,14
true,6,0,2,0,true,q,false,true,0.0-2.0-0.22-0.203-3.203,0,0,0,81,false,stim,false,1,1063,0,0,1,75720,task1,687205,false,false,763,image-keyboard-response,15
true,6,0,2,0,true,q,false,true,0.0-2.0-0.22-0.204-3.204,0,0,0,81,false,stim,false,1,449,0,0,1,75720,task1,689178,false,false,766,image-keyboard-response,16
true,6,1,2,1,true,z,false,true,0.0-2.0-0.22-0.205-3.205,0,0,0,90,false,stim,false,2,738,0,0,0,75720,task1,691427,false,false,769,image-keyboard-response,17
true,6,1,2,1,true,z,false,true,0.0-2.0-0.22-0.206-3.206,0,0,0,90,false,stim,false,0,862,0,0,2,75720,task1,693812,false,false,772,image-keyboard-response,18
true,6,1,2,1,true,z,false,true,0.0-2.0-0.23-0.207-3.207,0,0,0,90,false,stim,false,0,507,0,0,2,75720,task1,695839,false,false,775,image-keyboard-response,19
true,6,1,2,1,true,z,false,true,0.0-2.0-0.23-0.208-3.208,0,0,0,90,false,stim,false,2,727,0,0,0,75720,task1,698091,false,false,778,image-keyboard-response,20
true,6,1,2,1,true,z,false,true,0.0-2.0-0.23-0.209-3.209,0,0,0,90,false,stim,false,0,702,0,0,2,75720,task1,700319,false,false,781,image-keyboard-response,21
true,6,1,2,1,true,z,false,true,0.0-2.0-0.23-0.210-3.210,0,0,0,90,false,stim,false,2,733,0,0,0,75720,task1,702578,false,false,784,image-keyboard-response,22
true,6,0,2,0,true,q,false,true,0.0-2.0-0.23-0.211-3.211,0,0,0,81,false,stim,false,1,527,0,0,1,75720,task1,704625,false,false,787,image-keyboard-response,23
true,6,0,2,0,true,q,false,true,0.0-2.0-0.23-0.212-3.212,0,0,0,81,false,stim,false,1,775,0,0,1,75720,task1,706924,false,false,790,image-keyboard-response,24
true,6,0,2,0,true,q,false,true,0.0-2.0-0.23-0.213-3.213,0,0,0,81,false,stim,false,1,665,0,0,1,75720,task1,709106,false,false,793,image-keyboard-response,25
true,6,1,2,1,true,z,false,true,0.0-2.0-0.23-0.214-3.214,0,0,0,90,false,stim,false,0,780,0,0,2,75720,task1,711406,false,false,796,image-keyboard-response,26
true,6,1,2,1,true,z,false,true,0.0-2.0-0.23-0.215-3.215,0,0,0,90,false,stim,false,2,1054,0,0,0,75720,task1,713979,false,false,799,image-keyboard-response,27
true,6,1,2,1,true,z,false,true,0.0-2.0-0.24-0.216-3.216,0,0,0,90,false,stim,false,2,843,0,0,0,75720,task1,716354,false,false,802,image-keyboard-response,28
true,6,1,2,1,true,z,false,true,0.0-2.0-0.24-0.217-3.217,0,0,0,90,false,stim,false,2,756,0,0,0,75720,task1,718637,false,false,805,image-keyboard-response,29
true,6,1,2,1,true,z,false,true,0.0-2.0-0.24-0.218-3.218,0,0,0,90,false,stim,false,0,770,0,0,2,75720,task1,720924,false,false,808,image-keyboard-response,30
true,6,1,2,1,true,z,false,true,0.0-2.0-0.24-0.219-3.219,0,0,0,90,false,stim,false,0,506,0,0,2,75720,task1,722941,false,false,811,image-keyboard-response,31
true,6,0,2,0,true,q,false,true,0.0-2.0-0.24-0.220-3.220,0,0,0,81,false,stim,false,1,611,0,0,1,75720,task1,725073,false,false,814,image-keyboard-response,32
true,6,1,2,1,true,z,false,true,0.0-2.0-0.24-0.221-3.221,0,0,0,90,false,stim,false,2,903,0,0,0,75720,task1,727493,false,false,817,image-keyboard-response,33
true,6,0,2,0,true,q,false,true,0.0-2.0-0.24-0.222-3.222,0,0,0,81,false,stim,false,1,664,0,0,1,75720,task1,729679,false,false,820,image-keyboard-response,34
true,6,0,2,0,true,q,false,true,0.0-2.0-0.24-0.223-3.223,0,0,0,81,false,stim,false,1,937,0,0,1,75720,task1,732136,false,false,823,image-keyboard-response,35
true,6,1,2,1,true,z,false,true,0.0-2.0-0.24-0.224-3.224,0,0,0,90,false,stim,false,0,653,0,0,2,75720,task1,734309,false,false,826,image-keyboard-response,36
true,6,1,2,1,true,z,false,true,0.0-2.0-0.25-0.225-3.225,0,0,0,90,false,stim,false,0,406,0,0,2,75720,task1,736246,false,false,829,image-keyboard-response,37
true,6,0,2,0,true,q,false,true,0.0-2.0-0.25-0.226-3.226,0,0,0,81,false,stim,false,1,881,0,0,1,75720,task1,738655,false,false,832,image-keyboard-response,38
true,6,1,2,1,true,z,false,true,0.0-2.0-0.25-0.227-3.227,0,0,0,90,false,stim,false,0,617,0,0,2,75720,task1,740796,false,false,835,image-keyboard-response,39
true,6,1,2,1,true,z,false,true,0.0-2.0-0.25-0.228-3.228,0,0,0,90,false,stim,false,2,956,0,0,0,75720,task1,743266,false,false,838,image-keyboard-response,40
true,6,0,2,0,true,q,false,false,0.0-2.0-0.25-0.229-3.229,0,0,0,81,false,stim,false,1,1226,0,0,1,75720,task1,746018,false,true,841,image-keyboard-response,41
true,6,1,2,1,true,z,false,true,0.0-2.0-0.25-0.230-3.230,0,0,0,90,false,stim,false,2,1011,0,0,0,75720,task1,748557,false,false,844,image-keyboard-response,42
true,7,1,2,0,false,q,false,false,0.0-2.0-0.25-0.231-3.231,0,0,0,90,true,stim,true,1,667,0,0,2,75720,task1,750741,false,false,847,image-keyboard-response,1
true,7,1,2,1,true,z,false,true,0.0-2.0-0.25-0.232-3.232,0,0,0,90,false,stim,false,0,1109,0,0,1,75720,task1,753364,false,false,850,image-keyboard-response,2
true,7,1,2,2,false,d,false,false,0.0-2.0-0.25-0.233-3.233,0,0,0,90,false,stim,true,1,518,0,0,0,75720,task1,755393,false,false,853,image-keyboard-response,3
true,7,2,2,2,true,d,false,true,0.0-2.0-0.26-0.234-3.234,0,0,0,68,false,stim,false,1,867,0,0,0,75720,task1,757781,false,false,856,image-keyboard-response,4
true,7,0,2,0,true,q,false,true,0.0-2.0-0.26-0.235-3.235,0,0,0,81,false,stim,false,1,1085,0,0,2,75720,task1,760375,false,false,859,image-keyboard-response,5
true,7,1,2,1,true,z,false,true,0.0-2.0-0.26-0.236-3.236,0,0,0,90,false,stim,false,0,847,0,0,1,75720,task1,762747,false,false,862,image-keyboard-response,6
true,7,1,2,1,true,z,false,true,0.0-2.0-0.26-0.237-3.237,0,0,0,90,false,stim,false,0,886,0,0,1,75720,task1,765154,false,false,865,image-keyboard-response,7
true,7,1,2,1,true,z,false,true,0.0-2.0-0.26-0.238-3.238,0,0,0,90,false,stim,false,0,537,0,0,1,75720,task1,767216,false,false,868,image-keyboard-response,8
true,7,2,2,2,true,d,false,true,0.0-2.0-0.26-0.239-3.239,0,0,0,68,false,stim,false,1,703,0,0,0,75720,task1,769449,false,false,871,image-keyboard-response,9
true,7,2,2,2,true,d,false,true,0.0-2.0-0.26-0.240-3.240,0,0,0,68,false,stim,false,1,646,0,0,0,75720,task1,771611,false,false,874,image-keyboard-response,10
true,7,0,2,0,true,q,false,true,0.0-2.0-0.26-0.241-3.241,0,0,0,81,false,stim,false,1,765,0,0,2,75720,task1,773906,false,false,877,image-keyboard-response,11
true,7,0,2,0,true,q,false,true,0.0-2.0-0.26-0.242-3.242,0,0,0,81,false,stim,false,1,541,0,0,2,75720,task1,775972,false,false,880,image-keyboard-response,12
true,7,2,2,2,true,d,false,true,0.0-2.0-0.27-0.243-3.243,0,0,0,68,false,stim,false,1,909,0,0,0,75720,task1,778406,false,false,883,image-keyboard-response,13
true,7,2,2,2,true,d,false,true,0.0-2.0-0.27-0.244-3.244,0,0,0,68,false,stim,false,1,620,0,0,0,75720,task1,780550,false,false,886,image-keyboard-response,14
true,7,1,2,1,true,z,false,true,0.0-2.0-0.27-0.245-3.245,0,0,0,90,false,stim,false,0,1118,0,0,1,75720,task1,783182,false,false,889,image-keyboard-response,15
true,7,1,2,1,true,z,false,true,0.0-2.0-0.27-0.246-3.246,0,0,0,90,false,stim,false,0,550,0,0,1,75720,task1,785250,false,false,892,image-keyboard-response,16
true,7,0,2,0,true,q,false,true,0.0-2.0-0.27-0.247-3.247,0,0,0,81,false,stim,false,1,775,0,0,2,75720,task1,787538,false,false,895,image-keyboard-response,17
true,7,0,2,0,true,q,false,true,0.0-2.0-0.27-0.248-3.248,0,0,0,81,false,stim,false,1,506,0,0,2,75720,task1,789567,false,false,898,image-keyboard-response,18
true,7,2,2,2,true,d,false,true,0.0-2.0-0.27-0.249-3.249,0,0,0,68,false,stim,false,1,962,0,0,0,75720,task1,792064,false,false,901,image-keyboard-response,19
true,7,0,2,0,true,q,false,true,0.0-2.0-0.27-0.250-3.250,0,0,0,81,false,stim,false,1,675,0,0,2,75720,task1,794274,false,false,904,image-keyboard-response,20
true,7,1,2,1,true,z,false,true,0.0-2.0-0.27-0.251-3.251,0,0,0,90,false,stim,false,0,1219,0,0,1,75720,task1,797017,false,false,907,image-keyboard-response,21
true,7,1,2,1,true,z,false,true,0.0-2.0-0.28-0.252-3.252,0,0,0,90,false,stim,false,0,757,0,0,1,75720,task1,799293,false,false,910,image-keyboard-response,22
true,7,2,2,2,true,d,false,true,0.0-2.0-0.28-0.253-3.253,0,0,0,68,false,stim,false,1,1087,0,0,0,75720,task1,801896,false,false,913,image-keyboard-response,23
true,7,2,2,2,true,d,false,false,0.0-2.0-0.28-0.254-3.254,0,0,0,68,false,stim,false,1,1206,0,0,0,75720,task1,804621,false,true,916,image-keyboard-response,24
true,7,1,2,1,true,z,false,true,0.0-2.0-0.28-0.255-3.255,0,0,0,90,false,stim,false,0,722,0,0,1,75720,task1,806859,false,false,919,image-keyboard-response,25
true,7,0,2,0,true,q,false,true,0.0-2.0-0.28-0.256-3.256,0,0,0,81,false,stim,false,1,804,0,0,2,75720,task1,809190,false,false,922,image-keyboard-response,26
true,7,1,2,2,false,d,false,false,0.0-2.0-0.28-0.257-3.257,0,0,0,90,false,stim,true,1,1030,0,0,0,75720,task1,811759,false,false,925,image-keyboard-response,27
true,7,1,2,1,true,z,false,false,0.0-2.0-0.28-0.258-3.258,0,0,0,90,false,stim,false,0,955,0,0,1,75720,task1,814226,false,true,928,image-keyboard-response,28
true,7,0,2,0,true,q,false,true,0.0-2.0-0.28-0.259-3.259,0,0,0,81,false,stim,false,1,630,0,0,2,75720,task1,816377,false,false,931,image-keyboard-response,29
true,7,0,2,0,true,q,false,true,0.0-2.0-0.28-0.260-3.260,0,0,0,81,false,stim,false,1,637,0,0,2,75720,task1,818534,false,false,934,image-keyboard-response,30
true,7,0,2,2,false,d,true,false,0.0-2.0-0.29-0.261-3.261,0,0,0,81,false,stim,false,1,504,0,0,0,75720,task1,820562,false,false,937,image-keyboard-response,31
true,7,1,2,2,false,d,false,false,0.0-2.0-0.29-0.262-3.262,0,0,0,90,false,stim,true,1,812,0,0,0,75720,task1,822889,false,false,940,image-keyboard-response,32
true,7,0,2,0,true,q,false,true,0.0-2.0-0.29-0.263-3.263,0,0,0,81,false,stim,false,1,523,0,0,2,75720,task1,824941,false,false,943,image-keyboard-response,33
true,7,0,2,2,false,d,true,false,0.0-2.0-0.29-0.264-3.264,0,0,0,81,false,stim,false,1,583,0,0,0,75720,task1,827055,false,false,946,image-keyboard-response,34
true,7,1,2,1,true,z,false,true,0.0-2.0-0.29-0.265-3.265,0,0,0,90,false,stim,false,0,722,0,0,1,75720,task1,829297,false,false,949,image-keyboard-response,35
true,7,1,2,1,true,z,false,true,0.0-2.0-0.29-0.266-3.266,0,0,0,90,false,stim,false,0,654,0,0,1,75720,task1,831463,false,false,952,image-keyboard-response,36
true,7,0,2,0,true,q,false,true,0.0-2.0-0.29-0.267-3.267,0,0,0,81,false,stim,false,1,893,0,0,2,75720,task1,833889,false,false,955,image-keyboard-response,37
true,7,1,2,1,true,z,false,true,0.0-2.0-0.29-0.268-3.268,0,0,0,90,false,stim,false,0,493,0,0,1,75720,task1,835909,false,false,958,image-keyboard-response,38
true,7,0,2,0,true,q,false,true,0.0-2.0-0.29-0.269-3.269,0,0,0,81,false,stim,false,1,778,0,0,2,75720,task1,838204,false,false,961,image-keyboard-response,39
true,7,1,2,1,true,z,false,true,0.0-2.0-0.30-0.270-3.270,0,0,0,90,false,stim,false,0,944,0,0,1,75720,task1,840676,false,false,964,image-keyboard-response,40
true,7,1,2,1,true,z,false,false,0.0-2.0-0.30-0.271-3.271,0,0,0,90,false,stim,false,0,748,0,0,1,75720,task1,842935,false,true,967,image-keyboard-response,41
true,7,1,2,2,false,d,false,false,0.0-2.0-0.30-0.272-3.272,0,0,0,90,false,stim,true,1,1145,0,0,0,75720,task1,845602,false,false,970,image-keyboard-response,42
true,7,0,2,0,true,q,false,true,0.0-2.0-0.30-0.273-3.273,0,0,0,81,false,stim,false,1,458,0,0,2,75720,task1,847588,false,false,973,image-keyboard-response,43
true,7,0,2,2,false,d,true,false,0.0-2.0-0.30-0.274-3.274,0,0,0,81,false,stim,false,1,966,0,0,0,75720,task1,850073,false,false,976,image-keyboard-response,44
true,8,0,2,0,true,q,false,true,0.0-2.0-0.30-0.275-3.275,0,0,0,81,true,stim,false,1,933,0,0,1,75720,task1,852522,false,false,979,image-keyboard-response,1
true,8,2,2,1,false,z,false,false,0.0-2.0-0.30-0.276-3.276,0,0,0,68,false,stim,true,2,1068,0,0,0,75720,task1,855121,false,false,982,image-keyboard-response,2
true,8,0,2,1,false,z,false,false,0.0-2.0-0.30-0.277-3.277,0,0,0,81,false,stim,true,0,577,0,0,2,75720,task1,857222,false,false,985,image-keyboard-response,3
true,8,1,2,1,true,z,false,true,0.0-2.0-0.30-0.278-3.278,0,0,0,90,false,stim,false,0,632,0,0,2,75720,task1,859370,false,false,988,image-keyboard-response,4
true,8,1,2,1,true,z,false,true,0.0-2.0-0.31-0.279-3.279,0,0,0,90,false,stim,false,0,521,0,0,2,75720,task1,861417,false,false,991,image-keyboard-response,5
true,8,0,2,0,true,q,false,true,0.0-2.0-0.31-0.280-3.280,0,0,0,81,false,stim,false,1,588,0,0,1,75720,task1,863520,false,false,994,image-keyboard-response,6
true,8,0,2,1,false,z,true,false,0.0-2.0-0.31-0.281-3.281,0,0,0,81,false,stim,false,2,544,0,0,0,75720,task1,865591,false,false,997,image-keyboard-response,7
true,8,1,2,1,true,z,false,true,0.0-2.0-0.31-0.282-3.282,0,0,0,90,false,stim,false,0,638,0,0,2,75720,task1,867759,false,false,1000,image-keyboard-response,8
true,8,1,2,1,true,z,false,true,0.0-2.0-0.31-0.283-3.283,0,0,0,90,false,stim,false,2,1235,0,0,0,75720,task1,870526,false,false,1003,image-keyboard-response,9
true,8,1,2,1,true,z,false,true,0.0-2.0-0.31-0.284-3.284,0,0,0,90,false,stim,false,0,746,0,0,2,75720,task1,872792,false,false,1006,image-keyboard-response,10
true,8,1,2,1,true,z,false,true,0.0-2.0-0.31-0.285-3.285,0,0,0,90,false,stim,false,2,512,0,0,0,75720,task1,874814,false,false,1009,image-keyboard-response,11
true,8,0,2,0,true,q,false,true,0.0-2.0-0.31-0.286-3.286,0,0,0,81,false,stim,false,1,913,0,0,1,75720,task1,877238,false,false,1012,image-keyboard-response,12
true,8,0,2,0,true,q,false,true,0.0-2.0-0.31-0.287-3.287,0,0,0,81,false,stim,false,1,821,0,0,1,75720,task1,879581,false,false,1015,image-keyboard-response,13
true,8,1,2,1,true,z,false,true,0.0-2.0-0.32-0.288-3.288,0,0,0,90,false,stim,false,2,1195,0,0,0,75720,task1,882301,false,false,1018,image-keyboard-response,14
true,8,1,2,1,true,z,false,false,0.0-2.0-0.32-0.289-3.289,0,0,0,90,false,stim,false,0,1162,0,0,2,75720,task1,884983,false,true,1021,image-keyboard-response,15
true,8,0,2,0,true,q,false,true,0.0-2.0-0.32-0.290-3.290,0,0,0,81,false,stim,false,1,801,0,0,1,75720,task1,887314,false,false,1024,image-keyboard-response,16
true,8,0,2,1,false,z,false,false,0.0-2.0-0.32-0.291-3.291,0,0,0,81,false,stim,true,0,442,0,0,2,75720,task1,889283,false,false,1027,image-keyboard-response,17
true,8,1,2,1,true,z,false,true,0.0-2.0-0.32-0.292-3.292,0,0,0,90,false,stim,false,2,538,0,0,0,75720,task1,891348,false,false,1030,image-keyboard-response,18
true,8,0,2,0,true,q,false,false,0.0-2.0-0.32-0.293-3.293,0,0,0,81,false,stim,false,1,742,0,0,1,75720,task1,893616,false,true,1033,image-keyboard-response,19
true,8,0,2,1,false,z,false,false,0.0-2.0-0.32-0.294-3.294,0,0,0,81,false,stim,true,0,852,0,0,2,75720,task1,895995,false,false,1036,image-keyboard-response,20
true,8,1,2,1,true,z,false,true,0.0-2.0-0.32-0.295-3.295,0,0,0,90,false,stim,false,2,482,0,0,0,75720,task1,898007,false,false,1039,image-keyboard-response,21
true,8,1,2,0,false,q,false,false,0.0-2.0-0.32-0.296-3.296,0,0,0,90,false,stim,true,1,523,0,0,1,75720,task1,900051,false,false,1042,image-keyboard-response,22
true,8,1,2,1,true,z,false,true,0.0-2.0-0.33-0.297-3.297,0,0,0,90,false,stim,false,2,392,0,0,0,75720,task1,901953,false,false,1045,image-keyboard-response,23
true,8,2,2,1,false,z,true,false,0.0-2.0-0.33-0.298-3.298,0,0,0,68,false,stim,false,0,523,0,0,2,75720,task1,904000,false,false,1048,image-keyboard-response,24
true,8,1,2,0,false,q,false,true,0.0-2.0-0.33-0.299-3.299,0,0,0,90,false,stim,true,1,1577,0,0,1,75720,task1,907094,false,true,1051,image-keyboard-response,25
true,8,1,2,1,true,z,false,true,0.0-2.0-0.33-0.300-3.300,0,0,0,90,false,stim,false,2,418,0,0,0,75720,task1,909045,false,false,1054,image-keyboard-response,26
true,8,1,2,0,false,q,false,false,0.0-2.0-0.33-0.301-3.301,0,0,0,90,false,stim,true,1,944,0,0,1,75720,task1,911506,false,false,1057,image-keyboard-response,27
true,8,0,2,1,false,z,false,false,0.0-2.0-0.33-0.302-3.302,0,0,0,81,false,stim,true,0,644,0,0,2,75720,task1,913680,false,false,1060,image-keyboard-response,28
true,8,1,2,1,true,z,false,true,0.0-2.0-0.33-0.303-3.303,0,0,0,90,false,stim,false,2,523,0,0,0,75720,task1,915722,false,false,1063,image-keyboard-response,29
true,8,0,2,0,true,q,false,true,0.0-2.0-0.33-0.304-3.304,0,0,0,81,false,stim,false,1,580,0,0,1,75720,task1,917825,false,false,1066,image-keyboard-response,30
true,8,1,2,1,true,z,false,true,0.0-2.0-0.33-0.305-3.305,0,0,0,90,false,stim,false,0,898,0,0,2,75720,task1,920237,false,false,1069,image-keyboard-response,31
true,8,1,2,1,true,z,false,true,0.0-2.0-0.34-0.306-3.306,0,0,0,90,false,stim,false,2,886,0,0,0,75720,task1,922652,false,false,1072,image-keyboard-response,32
true,8,0,2,0,true,q,false,true,0.0-2.0-0.34-0.307-3.307,0,0,0,81,false,stim,false,1,825,0,0,1,75720,task1,924998,false,false,1075,image-keyboard-response,33
true,8,0,2,0,true,q,false,true,0.0-2.0-0.34-0.308-3.308,0,0,0,81,false,stim,false,1,765,0,0,1,75720,task1,927289,false,false,1078,image-keyboard-response,34
true,8,0,2,0,true,q,false,true,0.0-2.0-0.34-0.309-3.309,0,0,0,81,false,stim,false,1,643,0,0,1,75720,task1,929465,false,false,1081,image-keyboard-response,35
true,8,1,2,1,true,z,false,false,0.0-2.0-0.34-0.310-3.310,0,0,0,90,false,stim,false,0,754,0,0,2,75720,task1,931734,false,true,1084,image-keyboard-response,36
true,8,1,2,1,true,z,false,true,0.0-2.0-0.34-0.311-3.311,0,0,0,90,false,stim,false,2,473,0,0,0,75720,task1,933724,false,false,1087,image-keyboard-response,37
true,8,2,2,1,false,z,true,false,0.0-2.0-0.34-0.312-3.312,0,0,0,68,false,stim,false,0,730,0,0,2,75720,task1,935971,false,false,1090,image-keyboard-response,38
true,8,1,2,1,true,z,false,true,0.0-2.0-0.34-0.313-3.313,0,0,0,90,false,stim,false,2,460,0,0,0,75720,task1,937956,false,false,1093,image-keyboard-response,39
true,8,1,2,1,true,z,false,true,0.0-2.0-0.34-0.314-3.314,0,0,0,90,false,stim,false,0,1390,0,0,2,75720,task1,940883,false,false,1096,image-keyboard-response,40
true,8,1,2,1,true,z,false,true,0.0-2.0-0.35-0.315-3.315,0,0,0,90,false,stim,false,0,621,0,0,2,75720,task1,943038,false,false,1099,image-keyboard-response,41
true,9,1,2,2,false,d,false,false,0.0-2.0-0.35-0.316-3.316,0,0,0,90,true,stim,true,1,666,0,0,0,75720,task1,945251,false,false,1102,image-keyboard-response,1
true,9,0,2,2,false,d,true,false,0.0-2.0-0.35-0.317-3.317,0,0,0,81,false,stim,false,1,1061,0,0,0,75720,task1,947834,false,false,1105,image-keyboard-response,2
true,9,0,2,1,false,z,false,false,0.0-2.0-0.35-0.318-3.318,0,0,0,81,false,stim,true,0,608,0,0,1,75720,task1,949969,false,false,1108,image-keyboard-response,3
true,9,1,2,0,false,q,false,false,0.0-2.0-0.35-0.319-3.319,0,0,0,90,false,stim,true,1,1507,0,0,2,75720,task1,953001,false,false,1111,image-keyboard-response,4
true,9,1,2,1,true,z,false,true,0.0-2.0-0.35-0.320-3.320,0,0,0,90,false,stim,false,0,1001,0,0,1,75720,task1,955528,false,false,1114,image-keyboard-response,5
true,9,1,2,1,true,z,false,true,0.0-2.0-0.35-0.321-3.321,0,0,0,90,false,stim,false,0,593,0,0,1,75720,task1,957651,false,false,1117,image-keyboard-response,6
true,9,2,2,0,false,q,true,false,0.0-2.0-0.35-0.322-3.322,0,0,0,68,false,stim,false,1,1141,0,0,2,75720,task1,960320,false,false,1120,image-keyboard-response,7
true,9,1,2,2,false,d,false,false,0.0-2.0-0.35-0.323-3.323,0,0,0,90,false,stim,true,1,629,0,0,0,75720,task1,962471,false,false,1123,image-keyboard-response,8
true,9,0,2,0,true,q,false,true,0.0-2.0-0.36-0.324-3.324,0,0,0,81,false,stim,false,1,1535,0,0,2,75720,task1,965532,false,false,1126,image-keyboard-response,9
true,9,1,2,1,true,z,false,true,0.0-2.0-0.36-0.325-3.325,0,0,0,90,false,stim,false,0,635,0,0,1,75720,task1,967692,false,false,1129,image-keyboard-response,10
true,9,0,2,0,true,q,false,true,0.0-2.0-0.36-0.326-3.326,0,0,0,81,false,stim,false,1,982,0,0,2,75720,task1,970186,false,false,1132,image-keyboard-response,11
true,9,0,2,0,true,q,false,true,0.0-2.0-0.36-0.327-3.327,0,0,0,81,false,stim,false,1,835,0,0,2,75720,task1,972539,false,false,1135,image-keyboard-response,12
true,9,0,2,2,false,d,true,false,0.0-2.0-0.36-0.328-3.328,0,0,0,81,false,stim,false,1,1551,0,0,0,75720,task1,975616,false,false,1138,image-keyboard-response,13
true,9,1,2,2,false,d,false,true,0.0-2.0-0.36-0.329-3.329,0,0,0,90,false,stim,true,1,731,0,0,0,75720,task1,977875,false,true,1141,image-keyboard-response,14
true,9,1,2,2,false,d,false,false,0.0-2.0-0.36-0.330-3.330,0,0,0,90,false,stim,true,1,583,0,0,0,75720,task1,979991,false,false,1144,image-keyboard-response,15
true,9,1,2,1,true,z,false,false,0.0-2.0-0.36-0.331-3.331,0,0,0,90,false,stim,false,0,577,0,0,1,75720,task1,982091,false,true,1147,image-keyboard-response,16
true,9,0,2,1,false,z,false,false,0.0-2.0-0.36-0.332-3.332,0,0,0,81,false,stim,true,0,784,0,0,1,75720,task1,984391,false,false,1150,image-keyboard-response,17
true,9,2,2,2,true,d,false,true,0.0-2.0-0.37-0.333-3.333,0,0,0,68,false,stim,false,1,766,0,0,0,75720,task1,986674,false,false,1153,image-keyboard-response,18
true,9,2,2,2,true,d,false,true,0.0-2.0-0.37-0.334-3.334,0,0,0,68,false,stim,false,1,485,0,0,0,75720,task1,988681,false,false,1156,image-keyboard-response,19
true,9,2,2,1,false,z,true,false,0.0-2.0-0.37-0.335-3.335,0,0,0,68,false,stim,false,0,765,0,0,1,75720,task1,990971,false,false,1159,image-keyboard-response,20
true,9,1,2,1,true,z,false,true,0.0-2.0-0.37-0.336-3.336,0,0,0,90,false,stim,false,0,678,0,0,1,75720,task1,993173,false,false,1162,image-keyboard-response,21
true,9,0,2,0,true,q,false,true,0.0-2.0-0.37-0.337-3.337,0,0,0,81,false,stim,false,1,1200,0,0,2,75720,task1,995904,false,false,1165,image-keyboard-response,22
true,9,0,2,0,true,q,false,true,0.0-2.0-0.37-0.338-3.338,0,0,0,81,false,stim,false,1,1208,0,0,2,75720,task1,998639,false,false,1168,image-keyboard-response,23
true,9,2,2,2,true,d,false,true,0.0-2.0-0.37-0.339-3.339,0,0,0,68,false,stim,false,1,740,0,0,0,75720,task1,1000898,false,false,1171,image-keyboard-response,24
true,9,1,2,1,true,z,false,true,0.0-2.0-0.37-0.340-3.340,0,0,0,90,false,stim,false,0,861,0,0,1,75720,task1,1003283,false,false,1174,image-keyboard-response,25
true,9,0,2,0,true,q,false,true,0.0-2.0-0.37-0.341-3.341,0,0,0,81,false,stim,false,1,688,0,0,2,75720,task1,1005497,false,false,1177,image-keyboard-response,26
true,9,0,2,0,true,q,false,true,0.0-2.0-0.38-0.342-3.342,0,0,0,81,false,stim,false,1,622,0,0,2,75720,task1,1007654,false,false,1180,image-keyboard-response,27
true,9,2,2,2,true,d,false,true,0.0-2.0-0.38-0.343-3.343,0,0,0,68,false,stim,false,1,800,0,0,0,75720,task1,1009987,false,false,1183,image-keyboard-response,28
true,9,1,2,1,true,z,false,true,0.0-2.0-0.38-0.344-3.344,0,0,0,90,false,stim,false,0,1163,0,0,1,75720,task1,1012672,false,false,1186,image-keyboard-response,29
true,9,2,2,2,true,d,false,true,0.0-2.0-0.38-0.345-3.345,0,0,0,68,false,stim,false,1,760,0,0,0,75720,task1,1014957,false,false,1189,image-keyboard-response,30
true,9,0,2,0,true,q,false,true,0.0-2.0-0.38-0.346-3.346,0,0,0,81,false,stim,false,1,921,0,0,2,75720,task1,1017403,false,false,1192,image-keyboard-response,31
true,9,0,2,0,true,q,false,true,0.0-2.0-0.38-0.347-3.347,0,0,0,81,false,stim,false,1,645,0,0,2,75720,task1,1019572,false,false,1195,image-keyboard-response,32
true,9,1,2,1,true,z,false,true,0.0-2.0-0.38-0.348-3.348,0,0,0,90,false,stim,false,0,892,0,0,1,75720,task1,1021979,false,false,1198,image-keyboard-response,33
true,9,2,2,2,true,d,false,true,0.0-2.0-0.38-0.349-3.349,0,0,0,68,false,stim,false,1,518,0,0,0,75720,task1,1024028,false,false,1201,image-keyboard-response,34
true,9,1,2,1,true,z,false,true,0.0-2.0-0.38-0.350-3.350,0,0,0,90,false,stim,false,0,1088,0,0,1,75720,task1,1026636,false,false,1204,image-keyboard-response,35
true,9,1,2,1,true,z,false,true,0.0-2.0-0.39-0.351-3.351,0,0,0,90,false,stim,false,0,416,0,0,1,75720,task1,1028565,false,false,1207,image-keyboard-response,36
true,9,1,2,1,true,z,false,true,0.0-2.0-0.39-0.352-3.352,0,0,0,90,false,stim,false,0,511,0,0,1,75720,task1,1030600,false,false,1210,image-keyboard-response,37
true,9,2,2,2,true,d,false,false,0.0-2.0-0.39-0.353-3.353,0,0,0,68,false,stim,false,1,739,0,0,0,75720,task1,1032863,false,true,1213,image-keyboard-response,38
true,9,1,2,1,true,z,false,true,0.0-2.0-0.39-0.354-3.354,0,0,0,90,false,stim,false,0,898,0,0,1,75720,task1,1035284,false,false,1216,image-keyboard-response,39
true,9,0,2,0,true,q,false,true,0.0-2.0-0.39-0.355-3.355,0,0,0,81,false,stim,false,1,775,0,0,2,75720,task1,1037580,false,false,1219,image-keyboard-response,40
true,9,1,2,2,false,d,false,false,0.0-2.0-0.39-0.356-3.356,0,0,0,90,false,stim,true,1,651,0,0,0,75720,task1,1039752,false,false,1222,image-keyboard-response,41
true,9,0,2,0,true,q,false,true,0.0-2.0-0.39-0.357-3.357,0,0,0,81,false,stim,false,1,632,0,0,2,75720,task1,1041908,false,false,1225,image-keyboard-response,42
true,9,1,2,2,false,d,false,false,0.0-2.0-0.39-0.358-3.358,0,0,0,90,false,stim,true,1,1428,0,0,0,75720,task1,1044859,false,false,1228,image-keyboard-response,43
true,9,0,2,0,true,q,false,true,0.0-2.0-0.39-0.359-3.359,0,0,0,81,false,stim,false,1,670,0,0,2,75720,task1,1047046,false,false,1231,image-keyboard-response,44
true,10,0,1,0,true,q,false,true,0.0-2.0-0.40-0.360-3.360,0,0,0,81,true,stim,false,2,619,0,0,0,75720,task1,1049195,false,false,1234,image-keyboard-response,1
true,10,0,1,1,false,z,false,false,0.0-2.0-0.40-0.361-3.361,0,0,0,81,false,stim,true,0,614,0,0,2,75720,task1,1051324,false,false,1237,image-keyboard-response,2
true,10,0,1,0,true,q,false,true,0.0-2.0-0.40-0.362-3.362,0,0,0,81,false,stim,false,2,1041,0,0,0,75720,task1,1053892,false,false,1240,image-keyboard-response,3
true,10,1,1,2,false,d,false,false,0.0-2.0-0.40-0.363-3.363,0,0,0,90,false,stim,true,1,736,0,0,1,75720,task1,1056160,false,false,1243,image-keyboard-response,4
true,10,0,1,2,false,d,true,false,0.0-2.0-0.40-0.364-3.364,0,0,0,81,false,stim,false,1,1141,0,0,1,75720,task1,1058819,false,false,1246,image-keyboard-response,5
true,10,2,1,1,false,z,true,true,0.0-2.0-0.40-0.365-3.365,0,0,0,68,false,stim,false,0,668,0,0,2,75720,task1,1061006,false,true,1249,image-keyboard-response,6
true,10,0,1,0,true,q,false,true,0.0-2.0-0.40-0.366-3.366,0,0,0,81,false,stim,false,2,1108,0,0,0,75720,task1,1063650,false,false,1252,image-keyboard-response,7
true,10,2,1,1,false,z,true,false,0.0-2.0-0.40-0.367-3.367,0,0,0,68,false,stim,false,0,471,0,0,2,75720,task1,1065632,false,false,1255,image-keyboard-response,8
true,10,2,1,2,true,d,false,true,0.0-2.0-0.40-0.368-3.368,0,0,0,68,false,stim,false,1,789,0,0,1,75720,task1,1067953,false,false,1258,image-keyboard-response,9
true,10,2,1,2,true,d,false,true,0.0-2.0-0.41-0.369-3.369,0,0,0,68,false,stim,false,1,451,0,0,1,75720,task1,1069928,false,false,1261,image-keyboard-response,10
true,10,0,1,0,true,q,false,true,0.0-2.0-0.41-0.370-3.370,0,0,0,81,false,stim,false,2,950,0,0,0,75720,task1,1072402,false,false,1264,image-keyboard-response,11
true,10,0,1,0,true,q,false,true,0.0-2.0-0.41-0.371-3.371,0,0,0,81,false,stim,false,2,920,0,0,0,75720,task1,1074853,false,false,1267,image-keyboard-response,12
true,10,0,1,0,true,q,false,true,0.0-2.0-0.41-0.372-3.372,0,0,0,81,false,stim,false,2,609,0,0,0,75720,task1,1076980,false,false,1270,image-keyboard-response,13
true,10,2,1,2,true,d,false,true,0.0-2.0-0.41-0.373-3.373,0,0,0,68,false,stim,false,1,621,0,0,1,75720,task1,1079136,false,false,1273,image-keyboard-response,14
true,10,0,1,1,false,z,false,false,0.0-2.0-0.41-0.374-3.374,0,0,0,81,false,stim,true,0,1157,0,0,2,75720,task1,1081814,false,false,1276,image-keyboard-response,15
true,10,1,1,1,true,z,false,true,0.0-2.0-0.41-0.375-3.375,0,0,0,90,false,stim,false,0,869,0,0,2,75720,task1,1084215,false,false,1279,image-keyboard-response,16
true,10,1,1,1,true,z,false,true,0.0-2.0-0.41-0.376-3.376,0,0,0,90,false,stim,false,0,444,0,0,2,75720,task1,1086189,false,false,1282,image-keyboard-response,17
true,10,2,1,2,true,d,false,true,0.0-2.0-0.41-0.377-3.377,0,0,0,68,false,stim,false,1,1004,0,0,1,75720,task1,1088711,false,false,1285,image-keyboard-response,18
true,10,0,1,0,true,q,false,true,0.0-2.0-0.42-0.378-3.378,0,0,0,81,false,stim,false,2,742,0,0,0,75720,task1,1090980,false,false,1288,image-keyboard-response,19
true,10,2,1,2,true,d,false,true,0.0-2.0-0.42-0.379-3.379,0,0,0,68,false,stim,false,1,1210,0,0,1,75720,task1,1093713,false,false,1291,image-keyboard-response,20
true,10,2,1,2,true,d,false,true,0.0-2.0-0.42-0.380-3.380,0,0,0,68,false,stim,false,1,567,0,0,1,75720,task1,1095796,false,false,1294,image-keyboard-response,21
true,10,0,1,0,true,q,false,true,0.0-2.0-0.42-0.381-3.381,0,0,0,81,false,stim,false,2,656,0,0,0,75720,task1,1097975,false,false,1297,image-keyboard-response,22
true,10,1,1,1,true,z,false,true,0.0-2.0-0.42-0.382-3.382,0,0,0,90,false,stim,false,0,525,0,0,2,75720,task1,1100021,false,false,1300,image-keyboard-response,23
true,10,1,1,1,true,z,false,true,0.0-2.0-0.42-0.383-3.383,0,0,0,90,false,stim,false,0,464,0,0,2,75720,task1,1102023,false,false,1303,image-keyboard-response,24
true,10,0,1,0,true,q,false,true,0.0-2.0-0.42-0.384-3.384,0,0,0,81,false,stim,false,2,769,0,0,0,75720,task1,1104312,false,false,1306,image-keyboard-response,25
true,10,1,1,1,true,z,false,false,0.0-2.0-0.42-0.385-3.385,0,0,0,90,false,stim,false,0,692,0,0,2,75720,task1,1106528,false,true,1309,image-keyboard-response,26
true,10,2,1,2,true,d,false,true,0.0-2.0-0.42-0.386-3.386,0,0,0,68,false,stim,false,1,849,0,0,1,75720,task1,1108894,false,false,1312,image-keyboard-response,27
true,10,2,1,1,false,z,true,false,0.0-2.0-0.43-0.387-3.387,0,0,0,68,false,stim,false,0,422,0,0,2,75720,task1,1110839,false,false,1315,image-keyboard-response,28
true,10,2,1,2,true,d,false,true,0.0-2.0-0.43-0.388-3.388,0,0,0,68,false,stim,false,1,876,0,0,1,75720,task1,1113243,false,false,1318,image-keyboard-response,29
true,10,0,1,1,false,z,false,true,0.0-2.0-0.43-0.389-3.389,0,0,0,81,false,stim,true,0,485,0,0,2,75720,task1,1115253,false,true,1321,image-keyboard-response,30
true,10,2,1,2,true,d,false,true,0.0-2.0-0.43-0.390-3.390,0,0,0,68,false,stim,false,1,889,0,0,1,75720,task1,1117667,false,false,1324,image-keyboard-response,31
true,10,0,1,0,true,q,false,true,0.0-2.0-0.43-0.391-3.391,0,0,0,81,false,stim,false,2,731,0,0,0,75720,task1,1119931,false,false,1327,image-keyboard-response,32
true,10,2,1,2,true,d,false,true,0.0-2.0-0.43-0.392-3.392,0,0,0,68,false,stim,false,1,650,0,0,1,75720,task1,1122097,false,false,1330,image-keyboard-response,33
true,10,0,1,1,false,z,false,false,0.0-2.0-0.43-0.393-3.393,0,0,0,81,false,stim,true,0,495,0,0,2,75720,task1,1124114,false,false,1333,image-keyboard-response,34
true,10,0,1,0,true,q,false,true,0.0-2.0-0.43-0.394-3.394,0,0,0,81,false,stim,false,2,949,0,0,0,75720,task1,1126581,false,false,1336,image-keyboard-response,35
true,10,0,1,0,true,q,false,true,0.0-2.0-0.43-0.395-3.395,0,0,0,81,false,stim,false,2,561,0,0,0,75720,task1,1128668,false,false,1339,image-keyboard-response,36
true,10,2,1,1,false,z,true,false,0.0-2.0-0.44-0.396-3.396,0,0,0,68,false,stim,false,0,518,0,0,2,75720,task1,1130720,false,false,1342,image-keyboard-response,37
true,10,0,1,0,true,q,false,true,0.0-2.0-0.44-0.397-3.397,0,0,0,81,false,stim,false,2,552,0,0,0,75720,task1,1132799,false,false,1345,image-keyboard-response,38
true,10,1,1,1,true,z,false,true,0.0-2.0-0.44-0.398-3.398,0,0,0,90,false,stim,false,0,561,0,0,2,75720,task1,1134895,false,false,1348,image-keyboard-response,39
true,10,1,1,1,true,z,false,true,0.0-2.0-0.44-0.399-3.399,0,0,0,90,false,stim,false,0,455,0,0,2,75720,task1,1136881,false,false,1351,image-keyboard-response,40
true,10,0,1,0,true,q,false,true,0.0-2.0-0.44-0.400-3.400,0,0,0,81,false,stim,false,2,800,0,0,0,75720,task1,1139200,false,false,1354,image-keyboard-response,41
true,11,2,2,1,false,z,false,false,0.0-2.0-0.44-0.401-3.401,0,0,0,68,true,stim,true,2,585,0,0,1,75720,task1,1141311,false,false,1357,image-keyboard-response,1
true,11,1,2,1,true,z,false,true,0.0-2.0-0.44-0.402-3.402,0,0,0,90,false,stim,false,2,953,0,0,1,75720,task1,1143793,false,false,1360,image-keyboard-response,2
true,11,1,2,1,true,z,false,true,0.0-2.0-0.44-0.403-3.403,0,0,0,90,false,stim,false,2,785,0,0,1,75720,task1,1146107,false,false,1363,image-keyboard-response,3
true,11,0,2,2,false,d,false,false,0.0-2.0-0.44-0.404-3.404,0,0,0,81,false,stim,true,0,830,0,0,0,75720,task1,1148466,false,false,1366,image-keyboard-response,4
true,11,1,2,0,false,q,false,false,0.0-2.0-0.45-0.405-3.405,0,0,0,90,false,stim,true,1,515,0,0,2,75720,task1,1150496,false,false,1369,image-keyboard-response,5
true,11,1,2,1,true,z,false,true,0.0-2.0-0.45-0.406-3.406,0,0,0,90,false,stim,false,2,423,0,0,1,75720,task1,1152434,false,false,1372,image-keyboard-response,6
true,11,1,2,2,false,d,true,false,0.0-2.0-0.45-0.407-3.407,0,0,0,90,false,stim,false,0,1049,0,0,0,75720,task1,1154998,false,false,1375,image-keyboard-response,7
true,11,1,2,1,true,z,false,true,0.0-2.0-0.45-0.408-3.408,0,0,0,90,false,stim,false,2,733,0,0,1,75720,task1,1157255,false,false,1378,image-keyboard-response,8
true,11,2,2,2,true,d,false,true,0.0-2.0-0.45-0.409-3.409,0,0,0,68,false,stim,false,0,564,0,0,0,75720,task1,1159350,false,false,1381,image-keyboard-response,9
true,11,2,2,2,true,d,false,true,0.0-2.0-0.45-0.410-3.410,0,0,0,68,false,stim,false,0,523,0,0,0,75720,task1,1161409,false,false,1384,image-keyboard-response,10
true,11,0,2,0,true,q,false,true,0.0-2.0-0.45-0.411-3.411,0,0,0,81,false,stim,false,1,700,0,0,2,75720,task1,1163640,false,false,1387,image-keyboard-response,11
true,11,1,2,1,true,z,false,true,0.0-2.0-0.45-0.412-3.412,0,0,0,90,false,stim,false,2,534,0,0,1,75720,task1,1165705,false,false,1390,image-keyboard-response,12
true,11,0,2,0,true,q,false,false,0.0-2.0-0.45-0.413-3.413,0,0,0,81,false,stim,false,1,1152,0,0,2,75720,task1,1168387,false,true,1393,image-keyboard-response,13
true,11,1,2,0,false,q,false,false,0.0-2.0-0.46-0.414-3.414,0,0,0,90,false,stim,true,1,859,0,0,2,75720,task1,1170779,false,false,1396,image-keyboard-response,14
true,11,2,2,2,true,d,false,true,0.0-2.0-0.46-0.415-3.415,0,0,0,68,false,stim,false,0,524,0,0,0,75720,task1,1172825,false,false,1399,image-keyboard-response,15
true,11,2,2,0,false,q,true,false,0.0-2.0-0.46-0.416-3.416,0,0,0,68,false,stim,false,1,413,0,0,2,75720,task1,1174783,false,false,1402,image-keyboard-response,16
true,11,2,2,2,true,d,false,true,0.0-2.0-0.46-0.417-3.417,0,0,0,68,false,stim,false,0,728,0,0,0,75720,task1,1177027,false,false,1405,image-keyboard-response,17
true,11,1,2,1,true,z,false,true,0.0-2.0-0.46-0.418-3.418,0,0,0,90,false,stim,false,2,684,0,0,1,75720,task1,1179226,false,false,1408,image-keyboard-response,18
true,11,2,2,2,true,d,false,true,0.0-2.0-0.46-0.419-3.419,0,0,0,68,false,stim,false,0,755,0,0,0,75720,task1,1181508,false,false,1411,image-keyboard-response,19
true,11,1,2,1,true,z,false,true,0.0-2.0-0.46-0.420-3.420,0,0,0,90,false,stim,false,2,1049,0,0,1,75720,task1,1184085,false,false,1414,image-keyboard-response,20
true,11,1,2,0,false,q,false,true,0.0-2.0-0.46-0.421-3.421,0,0,0,90,false,stim,true,1,801,0,0,2,75720,task1,1186418,false,true,1417,image-keyboard-response,21
true,11,1,2,1,true,z,false,false,0.0-2.0-0.46-0.422-3.422,0,0,0,90,false,stim,false,2,539,0,0,1,75720,task1,1188486,false,true,1420,image-keyboard-response,22
true,11,1,2,0,false,q,false,false,0.0-2.0-0.47-0.423-3.423,0,0,0,90,false,stim,true,1,639,0,0,2,75720,task1,1190654,false,false,1423,image-keyboard-response,23
true,11,0,2,0,true,q,false,true,0.0-2.0-0.47-0.424-3.424,0,0,0,81,false,stim,false,1,988,0,0,2,75720,task1,1193173,false,false,1426,image-keyboard-response,24
true,11,1,2,1,true,z,false,true,0.0-2.0-0.47-0.425-3.425,0,0,0,90,false,stim,false,2,1285,0,0,1,75720,task1,1195982,false,false,1429,image-keyboard-response,25
true,11,1,2,0,false,q,false,false,0.0-2.0-0.47-0.426-3.426,0,0,0,90,false,stim,true,1,635,0,0,2,75720,task1,1198136,false,false,1432,image-keyboard-response,26
true,11,2,2,2,true,d,false,true,0.0-2.0-0.47-0.427-3.427,0,0,0,68,false,stim,false,0,938,0,0,0,75720,task1,1200591,false,false,1435,image-keyboard-response,27
true,11,2,2,2,true,d,false,true,0.0-2.0-0.47-0.428-3.428,0,0,0,68,false,stim,false,0,821,0,0,0,75720,task1,1202933,false,false,1438,image-keyboard-response,28
true,11,1,2,1,true,z,false,true,0.0-2.0-0.47-0.429-3.429,0,0,0,90,false,stim,false,2,527,0,0,1,75720,task1,1204990,false,false,1441,image-keyboard-response,29
true,11,0,2,2,false,d,false,false,0.0-2.0-0.47-0.430-3.430,0,0,0,81,false,stim,true,0,707,0,0,0,75720,task1,1207209,false,false,1444,image-keyboard-response,30
true,11,1,2,1,true,z,false,true,0.0-2.0-0.47-0.431-3.431,0,0,0,90,false,stim,false,2,1133,0,0,1,75720,task1,1209856,false,false,1447,image-keyboard-response,31
true,11,1,2,1,true,z,false,true,0.0-2.0-0.48-0.432-3.432,0,0,0,90,false,stim,false,2,610,0,0,1,75720,task1,1211986,false,false,1450,image-keyboard-response,32
true,11,2,2,2,true,d,false,true,0.0-2.0-0.48-0.433-3.433,0,0,0,68,false,stim,false,0,588,0,0,0,75720,task1,1214098,false,false,1453,image-keyboard-response,33
true,11,2,2,2,true,d,false,true,0.0-2.0-0.48-0.434-3.434,0,0,0,68,false,stim,false,0,683,0,0,0,75720,task1,1216320,false,false,1456,image-keyboard-response,34
true,11,1,2,1,true,z,false,true,0.0-2.0-0.48-0.435-3.435,0,0,0,90,false,stim,false,2,1028,0,0,1,75720,task1,1218871,false,false,1459,image-keyboard-response,35
true,11,0,2,0,true,q,false,true,0.0-2.0-0.48-0.436-3.436,0,0,0,81,false,stim,false,1,786,0,0,2,75720,task1,1221174,false,false,1462,image-keyboard-response,36
true,11,2,2,2,true,d,false,true,0.0-2.0-0.48-0.437-3.437,0,0,0,68,false,stim,false,0,748,0,0,0,75720,task1,1223446,false,false,1465,image-keyboard-response,37
true,11,0,2,0,true,q,false,true,0.0-2.0-0.48-0.438-3.438,0,0,0,81,false,stim,false,1,1087,0,0,2,75720,task1,1226057,false,false,1468,image-keyboard-response,38
true,11,0,2,0,true,q,false,true,0.0-2.0-0.48-0.439-3.439,0,0,0,81,false,stim,false,1,691,0,0,2,75720,task1,1228274,false,false,1471,image-keyboard-response,39
true,12,1,2,0,false,q,false,false,0.0-2.0-0.48-0.440-3.440,0,0,0,90,true,stim,true,1,639,0,0,1,75720,task1,1230436,false,false,1474,image-keyboard-response,1
true,12,0,2,1,false,z,false,false,0.0-2.0-0.49-0.441-3.441,0,0,0,81,false,stim,true,0,930,0,0,2,75720,task1,1232895,false,false,1477,image-keyboard-response,2
true,12,0,2,0,true,q,false,true,0.0-2.0-0.49-0.442-3.442,0,0,0,81,false,stim,false,1,1030,0,0,1,75720,task1,1235441,false,false,1480,image-keyboard-response,3
true,12,2,2,1,false,z,false,false,0.0-2.0-0.49-0.443-3.443,0,0,0,68,false,stim,true,2,539,0,0,0,75720,task1,1237497,false,false,1483,image-keyboard-response,4
true,12,0,2,1,false,z,true,false,0.0-2.0-0.49-0.444-3.444,0,0,0,81,false,stim,false,2,877,0,0,0,75720,task1,1239910,false,false,1486,image-keyboard-response,5
true,12,0,2,0,true,q,false,true,0.0-2.0-0.49-0.445-3.445,0,0,0,81,false,stim,false,1,504,0,0,1,75720,task1,1241947,false,false,1489,image-keyboard-response,6
true,12,2,2,1,false,z,false,false,0.0-2.0-0.49-0.446-3.446,0,0,0,68,false,stim,true,2,652,0,0,0,75720,task1,1244125,false,false,1492,image-keyboard-response,7
true,12,0,2,1,false,z,false,false,0.0-2.0-0.49-0.447-3.447,0,0,0,81,false,stim,true,0,1397,0,0,2,75720,task1,1247046,false,false,1495,image-keyboard-response,8
true,12,2,2,1,false,z,true,false,0.0-2.0-0.49-0.448-3.448,0,0,0,68,false,stim,false,0,673,0,0,2,75720,task1,1249250,false,false,1498,image-keyboard-response,9
true,12,0,2,0,true,q,false,true,0.0-2.0-0.49-0.449-3.449,0,0,0,81,false,stim,false,1,803,0,0,1,75720,task1,1251595,false,false,1501,image-keyboard-response,10
true,12,0,2,1,false,z,true,false,0.0-2.0-0.50-0.450-3.450,0,0,0,81,false,stim,false,2,601,0,0,0,75720,task1,1253708,false,false,1504,image-keyboard-response,11
true,12,1,2,1,true,z,false,true,0.0-2.0-0.50-0.451-3.451,0,0,0,90,false,stim,false,0,1022,0,0,2,75720,task1,1256259,false,false,1507,image-keyboard-response,12
true,12,1,2,1,true,z,false,true,0.0-2.0-0.50-0.452-3.452,0,0,0,90,false,stim,false,2,1025,0,0,0,75720,task1,1258820,false,false,1510,image-keyboard-response,13
true,12,0,2,0,true,q,false,true,0.0-2.0-0.50-0.453-3.453,0,0,0,81,false,stim,false,1,775,0,0,1,75720,task1,1261120,false,false,1513,image-keyboard-response,14
true,12,0,2,0,true,q,false,true,0.0-2.0-0.50-0.454-3.454,0,0,0,81,false,stim,false,1,751,0,0,1,75720,task1,1263402,false,false,1516,image-keyboard-response,15
true,12,1,2,1,true,z,false,true,0.0-2.0-0.50-0.455-3.455,0,0,0,90,false,stim,false,0,1051,0,0,2,75720,task1,1265978,false,false,1519,image-keyboard-response,16
true,12,1,2,1,true,z,false,true,0.0-2.0-0.50-0.456-3.456,0,0,0,90,false,stim,false,0,752,0,0,2,75720,task1,1268241,false,false,1522,image-keyboard-response,17
true,12,0,2,0,true,q,false,true,0.0-2.0-0.50-0.457-3.457,0,0,0,81,false,stim,false,1,726,0,0,1,75720,task1,1270484,false,false,1525,image-keyboard-response,18
true,12,1,2,1,true,z,false,true,0.0-2.0-0.50-0.458-3.458,0,0,0,90,false,stim,false,2,1113,0,0,0,75720,task1,1273133,false,false,1528,image-keyboard-response,19
true,12,1,2,1,true,z,false,true,0.0-2.0-0.51-0.459-3.459,0,0,0,90,false,stim,false,2,888,0,0,0,75720,task1,1275547,false,false,1531,image-keyboard-response,20
true,12,0,2,0,true,q,false,true,0.0-2.0-0.51-0.460-3.460,0,0,0,81,false,stim,false,1,539,0,0,1,75720,task1,1277614,false,false,1534,image-keyboard-response,21
true,12,1,2,1,true,z,false,true,0.0-2.0-0.51-0.461-3.461,0,0,0,90,false,stim,false,0,665,0,0,2,75720,task1,1279805,false,false,1537,image-keyboard-response,22
true,12,1,2,1,true,z,false,true,0.0-2.0-0.51-0.462-3.462,0,0,0,90,false,stim,false,0,440,0,0,2,75720,task1,1281764,false,false,1540,image-keyboard-response,23
true,12,1,2,1,true,z,false,true,0.0-2.0-0.51-0.463-3.463,0,0,0,90,false,stim,false,2,1185,0,0,0,75720,task1,1284466,false,false,1543,image-keyboard-response,24
true,12,0,2,0,true,q,false,true,0.0-2.0-0.51-0.464-3.464,0,0,0,81,false,stim,false,1,737,0,0,1,75720,task1,1286743,false,false,1546,image-keyboard-response,25
true,12,0,2,0,true,q,false,false,0.0-2.0-0.51-0.465-3.465,0,0,0,81,false,stim,false,1,528,0,0,1,75720,task1,1288790,false,true,1549,image-keyboard-response,26
true,12,1,2,1,true,z,false,true,0.0-2.0-0.51-0.466-3.466,0,0,0,90,false,stim,false,0,730,0,0,2,75720,task1,1291051,false,false,1552,image-keyboard-response,27
true,12,1,2,1,true,z,false,true,0.0-2.0-0.51-0.467-3.467,0,0,0,90,false,stim,false,2,1015,0,0,0,75720,task1,1293581,false,false,1555,image-keyboard-response,28
true,12,1,2,1,true,z,false,false,0.0-2.0-0.52-0.468-3.468,0,0,0,90,false,stim,false,2,887,0,0,0,75720,task1,1295991,false,true,1558,image-keyboard-response,29
true,12,2,2,0,false,q,true,false,0.0-2.0-0.52-0.469-3.469,0,0,0,68,false,stim,false,1,766,0,0,1,75720,task1,1298276,false,false,1561,image-keyboard-response,30
true,12,1,2,1,true,z,false,true,0.0-2.0-0.52-0.470-3.470,0,0,0,90,false,stim,false,2,1652,0,0,0,75720,task1,1301454,false,false,1564,image-keyboard-response,31
true,12,1,2,1,true,z,false,true,0.0-2.0-0.52-0.471-3.471,0,0,0,90,false,stim,false,2,633,0,0,0,75720,task1,1303614,false,false,1567,image-keyboard-response,32
true,12,1,2,1,true,z,false,false,0.0-2.0-0.52-0.472-3.472,0,0,0,90,false,stim,false,0,955,0,0,2,75720,task1,1306176,false,true,1570,image-keyboard-response,33
true,12,0,2,1,false,z,false,false,0.0-2.0-0.52-0.473-3.473,0,0,0,81,false,stim,true,0,1000,0,0,2,75720,task1,1308698,false,false,1573,image-keyboard-response,34
true,12,0,2,0,true,q,false,true,0.0-2.0-0.52-0.474-3.474,0,0,0,81,false,stim,false,1,920,0,0,1,75720,task1,1311142,false,false,1576,image-keyboard-response,35
true,12,0,2,1,false,z,false,false,0.0-2.0-0.52-0.475-3.475,0,0,0,81,false,stim,true,0,1138,0,0,2,75720,task1,1313802,false,false,1579,image-keyboard-response,36
true,12,0,2,0,true,q,false,true,0.0-2.0-0.52-0.476-3.476,0,0,0,81,false,stim,false,1,1286,0,0,1,75720,task1,1316606,false,false,1582,image-keyboard-response,37
true,12,1,2,1,true,z,false,true,0.0-2.0-0.53-0.477-3.477,0,0,0,90,false,stim,false,2,1119,0,0,0,75720,task1,1319255,false,false,1585,image-keyboard-response,38
true,12,0,2,0,true,q,false,true,0.0-2.0-0.53-0.478-3.478,0,0,0,81,false,stim,false,1,654,0,0,1,75720,task1,1321441,false,false,1588,image-keyboard-response,39
true,12,2,2,1,false,z,true,true,0.0-2.0-0.53-0.479-3.479,0,0,0,68,false,stim,false,0,882,0,0,2,75720,task1,1323851,false,true,1591,image-keyboard-response,40
true,12,2,2,1,false,z,true,true,0.0-2.0-0.53-0.480-3.480,0,0,0,68,false,stim,false,0,682,0,0,2,75720,task1,1326063,false,true,1594,image-keyboard-response,41
true,12,1,2,1,true,z,false,true,0.0-2.0-0.53-0.481-3.481,0,0,0,90,false,stim,false,2,1025,0,0,0,75720,task1,1328612,false,false,1597,image-keyboard-response,42
true,13,0,1,2,false,d,false,false,0.0-2.0-0.53-0.482-3.482,0,0,0,81,true,stim,true,0,815,0,0,1,75720,task1,1330946,false,false,1600,image-keyboard-response,1
true,13,1,1,0,false,q,false,false,0.0-2.0-0.53-0.483-3.483,0,0,0,90,false,stim,true,1,569,0,0,0,75720,task1,1333058,false,false,1603,image-keyboard-response,2
true,13,2,1,0,false,q,true,false,0.0-2.0-0.53-0.484-3.484,0,0,0,68,false,stim,false,1,418,0,0,2,75720,task1,1334988,false,false,1606,image-keyboard-response,3
true,13,1,1,2,false,d,true,false,0.0-2.0-0.53-0.485-3.485,0,0,0,90,false,stim,false,0,623,0,0,1,75720,task1,1337121,false,false,1609,image-keyboard-response,4
true,13,0,1,2,false,d,false,false,0.0-2.0-0.54-0.486-3.486,0,0,0,81,false,stim,true,0,650,0,0,1,75720,task1,1339308,false,false,1612,image-keyboard-response,5
true,13,1,1,0,false,q,false,false,0.0-2.0-0.54-0.487-3.487,0,0,0,90,false,stim,true,1,1199,0,0,0,75720,task1,1342046,false,false,1615,image-keyboard-response,6
true,13,2,1,2,true,d,false,true,0.0-2.0-0.54-0.488-3.488,0,0,0,68,false,stim,false,0,882,0,0,1,75720,task1,1344453,false,false,1618,image-keyboard-response,7
true,13,0,1,0,true,q,false,true,0.0-2.0-0.54-0.489-3.489,0,0,0,81,false,stim,false,1,849,0,0,2,75720,task1,1346836,false,false,1621,image-keyboard-response,8
true,13,2,1,2,true,d,false,true,0.0-2.0-0.54-0.490-3.490,0,0,0,68,false,stim,false,0,919,0,0,1,75720,task1,1349269,false,false,1624,image-keyboard-response,9
true,13,0,1,0,true,q,false,false,0.0-2.0-0.54-0.491-3.491,0,0,0,81,false,stim,false,1,655,0,0,2,75720,task1,1351455,false,true,1627,image-keyboard-response,10
true,13,1,1,0,false,q,false,false,0.0-2.0-0.54-0.492-3.492,0,0,0,90,false,stim,true,1,763,0,0,2,75720,task1,1353746,false,false,1630,image-keyboard-response,11
true,13,1,1,0,false,q,false,true,0.0-2.0-0.54-0.493-3.493,0,0,0,90,false,stim,true,1,975,0,0,0,75720,task1,1356249,false,true,1633,image-keyboard-response,12
true,13,1,1,0,false,q,false,false,0.0-2.0-0.54-0.494-3.494,0,0,0,90,false,stim,true,1,770,0,0,0,75720,task1,1358541,false,false,1636,image-keyboard-response,13
true,13,2,1,2,true,d,false,true,0.0-2.0-0.55-0.495-3.495,0,0,0,68,false,stim,false,0,459,0,0,1,75720,task1,1360521,false,false,1639,image-keyboard-response,14
true,13,2,1,2,true,d,false,false,0.0-2.0-0.55-0.496-3.496,0,0,0,68,false,stim,false,0,1011,0,0,1,75720,task1,1363041,false,true,1642,image-keyboard-response,15
true,13,0,1,2,false,d,false,false,0.0-2.0-0.55-0.497-3.497,0,0,0,81,false,stim,true,0,1053,0,0,1,75720,task1,1365620,false,false,1645,image-keyboard-response,16
true,13,2,1,0,false,q,true,false,0.0-2.0-0.55-0.498-3.498,0,0,0,68,false,stim,false,1,656,0,0,0,75720,task1,1367803,false,false,1648,image-keyboard-response,17
true,13,2,1,0,false,q,true,false,0.0-2.0-0.55-0.499-3.499,0,0,0,68,false,stim,false,1,1285,0,0,2,75720,task1,1370604,false,false,1651,image-keyboard-response,18
true,13,1,1,0,false,q,false,false,0.0-2.0-0.55-0.500-3.500,0,0,0,90,false,stim,true,1,1053,0,0,2,75720,task1,1373195,false,false,1654,image-keyboard-response,19
true,13,0,1,0,true,q,false,true,0.0-2.0-0.55-0.501-3.501,0,0,0,81,false,stim,false,1,949,0,0,0,75720,task1,1375672,false,false,1657,image-keyboard-response,20
true,13,0,1,0,true,q,false,false,0.0-2.0-0.55-0.502-3.502,0,0,0,81,false,stim,false,1,1711,0,0,2,75720,task1,1378921,false,true,1660,image-keyboard-response,21
true,13,0,1,0,true,q,false,true,0.0-2.0-0.55-0.503-3.503,0,0,0,81,false,stim,false,1,814,0,0,0,75720,task1,1381261,false,false,1663,image-keyboard-response,22
true,13,2,1,2,true,d,false,true,0.0-2.0-0.56-0.504-3.504,0,0,0,68,false,stim,false,0,1172,0,0,1,75720,task1,1383954,false,false,1666,image-keyboard-response,23
true,13,2,1,0,false,q,true,true,0.0-2.0-0.56-0.505-3.505,0,0,0,68,false,stim,false,1,1263,0,0,2,75720,task1,1386744,false,true,1669,image-keyboard-response,24
true,13,1,1,2,false,d,true,true,0.0-2.0-0.56-0.506-3.506,0,0,0,90,false,stim,false,0,924,0,0,1,75720,task1,1389197,false,true,1672,image-keyboard-response,25
true,13,0,1,0,true,q,false,true,0.0-2.0-0.56-0.507-3.507,0,0,0,81,false,stim,false,1,737,0,0,0,75720,task1,1391468,false,false,1675,image-keyboard-response,26
true,13,0,1,0,true,q,false,true,0.0-2.0-0.56-0.508-3.508,0,0,0,81,false,stim,false,1,502,0,0,0,75720,task1,1393499,false,false,1678,image-keyboard-response,27
true,13,0,1,0,true,q,false,true,0.0-2.0-0.56-0.509-3.509,0,0,0,81,false,stim,false,1,433,0,0,0,75720,task1,1395459,false,false,1681,image-keyboard-response,28
true,13,2,1,0,false,q,true,true,0.0-2.0-0.56-0.510-3.510,0,0,0,68,false,stim,false,1,793,0,0,2,75720,task1,1397777,false,true,1684,image-keyboard-response,29
true,13,2,1,0,false,q,true,false,0.0-2.0-0.56-0.511-3.511,0,0,0,68,false,stim,false,1,994,0,0,2,75720,task1,1400294,false,false,1687,image-keyboard-response,30
true,13,1,1,2,false,d,true,false,0.0-2.0-0.56-0.512-3.512,0,0,0,90,false,stim,false,0,986,0,0,1,75720,task1,1402798,false,false,1690,image-keyboard-response,31
true,13,2,1,2,true,d,false,true,0.0-2.0-0.57-0.513-3.513,0,0,0,68,false,stim,false,0,551,0,0,1,75720,task1,1404871,false,false,1693,image-keyboard-response,32
true,13,0,1,0,true,q,false,true,0.0-2.0-0.57-0.514-3.514,0,0,0,81,false,stim,false,1,697,0,0,0,75720,task1,1407094,false,false,1696,image-keyboard-response,33
true,13,0,1,0,true,q,false,true,0.0-2.0-0.57-0.515-3.515,0,0,0,81,false,stim,false,1,616,0,0,0,75720,task1,1409226,false,false,1699,image-keyboard-response,34
true,13,2,1,2,true,d,false,true,0.0-2.0-0.57-0.516-3.516,0,0,0,68,false,stim,false,0,691,0,0,1,75720,task1,1411474,false,false,1702,image-keyboard-response,35
true,13,2,1,0,false,q,true,false,0.0-2.0-0.57-0.517-3.517,0,0,0,68,false,stim,false,1,793,0,0,2,75720,task1,1413793,false,false,1705,image-keyboard-response,36
true,13,1,1,0,false,q,false,false,0.0-2.0-0.57-0.518-3.518,0,0,0,90,false,stim,true,1,916,0,0,2,75720,task1,1416236,false,false,1708,image-keyboard-response,37
true,13,0,1,0,true,q,false,true,0.0-2.0-0.57-0.519-3.519,0,0,0,81,false,stim,false,1,698,0,0,0,75720,task1,1418452,false,false,1711,image-keyboard-response,38
true,13,2,1,2,true,d,false,true,0.0-2.0-0.57-0.520-3.520,0,0,0,68,false,stim,false,0,543,0,1,1,75720,task1,1420515,false,false,1714,image-keyboard-response,39
true,13,0,1,0,true,q,false,true,0.0-2.0-0.57-0.521-3.521,0,0,0,81,false,stim,false,1,523,0,1,2,75720,task1,1422556,false,false,1717,image-keyboard-response,40
true,13,0,1,0,true,q,false,true,0.0-2.0-0.58-0.522-3.522,0,0,0,81,false,stim,false,1,472,0,1,0,75720,task1,1424570,false,false,1720,image-keyboard-response,41
true,13,0,1,0,true,q,false,true,0.0-2.0-0.58-0.523-3.523,0,0,0,81,false,stim,false,1,425,0,1,0,75720,task1,1426531,false,false,1723,image-keyboard-response,42
true,13,2,1,0,false,q,true,false,0.0-2.0-0.58-0.524-3.524,0,0,0,68,false,stim,false,1,762,0,1,2,75720,task1,1428812,false,false,1726,image-keyboard-response,43
true,14,0,0,0,true,q,false,true,0.0-2.0-0.58-0.525-3.525,1,1,1,81,true,stim,false,0,970,0,1,2,75720,task1,1552516,false,false,1849,image-keyboard-response,1
true,14,0,0,2,false,d,true,false,0.0-2.0-0.58-0.526-3.526,1,1,1,81,false,stim,false,2,595,0,1,1,75720,task1,1554642,false,false,1852,image-keyboard-response,2
true,14,2,0,0,false,q,true,false,0.0-2.0-0.58-0.527-3.527,1,1,1,68,false,stim,false,0,1018,0,1,0,75720,task1,1557179,false,false,1855,image-keyboard-response,3
true,14,0,0,0,true,q,false,true,0.0-2.0-0.58-0.528-3.528,1,1,1,81,false,stim,false,0,478,0,1,2,75720,task1,1559184,false,false,1858,image-keyboard-response,4
true,14,1,0,2,false,d,true,false,0.0-2.0-0.58-0.529-3.529,1,1,1,90,false,stim,false,2,927,0,1,1,75720,task1,1561639,false,false,1861,image-keyboard-response,5
true,14,2,0,2,true,d,false,true,0.0-2.0-0.58-0.530-3.530,1,1,1,68,false,stim,false,2,634,0,1,1,75720,task1,1563796,false,false,1864,image-keyboard-response,6
true,14,2,0,2,true,d,false,true,0.0-2.0-0.59-0.531-3.531,1,1,1,68,false,stim,false,2,686,0,1,1,75720,task1,1566002,false,false,1867,image-keyboard-response,7
true,14,2,0,2,true,d,false,true,0.0-2.0-0.59-0.532-3.532,1,1,1,68,false,stim,false,2,544,0,1,1,75720,task1,1568072,false,false,1870,image-keyboard-response,8
true,14,1,0,0,false,q,true,false,0.0-2.0-0.59-0.533-3.533,1,1,1,90,false,stim,false,0,1044,0,0,0,75720,task1,1570641,false,false,1873,image-keyboard-response,9
true,14,2,0,2,true,d,false,true,0.0-2.0-0.59-0.534-3.534,1,1,1,68,false,stim,false,2,1320,0,0,1,75720,task1,1573486,false,false,1876,image-keyboard-response,10
true,14,0,0,0,true,q,false,true,0.0-2.0-0.59-0.535-3.535,1,1,1,81,false,stim,false,0,682,0,0,2,75720,task1,1575692,false,false,1879,image-keyboard-response,11
true,14,0,0,0,true,q,false,true,0.0-2.0-0.59-0.536-3.536,1,1,1,81,false,stim,false,0,1097,0,0,0,75720,task1,1578315,false,false,1882,image-keyboard-response,12
true,14,0,0,0,true,q,false,true,0.0-2.0-0.59-0.537-3.537,1,1,1,81,false,stim,false,0,921,0,0,2,75720,task1,1580761,false,false,1885,image-keyboard-response,13
true,15,0,2,1,false,z,false,false,0.0-2.0-0.59-0.538-3.538,0,0,0,81,true,stim,true,0,684,0,0,2,75720,task1,1582982,false,false,1888,image-keyboard-response,1
true,15,2,2,1,false,z,true,false,0.0-2.0-0.59-0.539-3.539,0,0,0,68,false,stim,false,0,1265,0,0,0,75720,task1,1585781,false,false,1891,image-keyboard-response,2
true,15,0,2,0,true,q,false,true,0.0-2.0-0.60-0.540-3.540,0,0,0,81,false,stim,false,2,1038,0,0,1,75720,task1,1588356,false,false,1894,image-keyboard-response,3
true,15,1,2,1,true,z,false,false,0.0-2.0-0.60-0.541-3.541,0,0,0,90,false,stim,false,0,860,0,0,0,75720,task1,1590744,false,true,1897,image-keyboard-response,4
true,15,0,2,1,false,z,false,false,0.0-2.0-0.60-0.542-3.542,0,0,0,81,false,stim,true,0,1008,0,0,0,75720,task1,1593267,false,false,1900,image-keyboard-response,5
true,15,2,2,1,false,z,true,false,0.0-2.0-0.60-0.543-3.543,0,0,0,68,false,stim,false,0,997,0,0,0,75720,task1,1595826,false,false,1903,image-keyboard-response,6
true,15,1,2,1,true,z,false,true,0.0-2.0-0.60-0.544-3.544,0,0,0,90,false,stim,false,0,934,0,0,2,75720,task1,1598276,false,false,1906,image-keyboard-response,7
true,15,0,2,0,true,q,false,true,0.0-2.0-0.60-0.545-3.545,0,0,0,81,false,stim,false,2,645,0,0,1,75720,task1,1600458,false,false,1909,image-keyboard-response,8
true,15,0,2,0,true,q,false,true,0.0-2.0-0.60-0.546-3.546,0,0,0,81,false,stim,false,2,537,0,0,1,75720,task1,1602516,false,false,1912,image-keyboard-response,9
true,15,1,2,1,true,z,false,false,0.0-2.0-0.60-0.547-3.547,0,0,0,90,false,stim,false,0,1199,0,0,2,75720,task1,1605247,false,true,1915,image-keyboard-response,10
true,15,0,2,1,false,z,false,false,0.0-2.0-0.60-0.548-3.548,0,0,0,81,false,stim,true,0,730,0,0,2,75720,task1,1607511,false,false,1918,image-keyboard-response,11
true,15,2,2,1,false,z,true,false,0.0-2.0-0.61-0.549-3.549,0,0,0,68,false,stim,false,0,576,0,0,2,75720,task1,1609617,false,false,1921,image-keyboard-response,12
true,15,0,2,0,true,q,false,true,0.0-2.0-0.61-0.550-3.550,0,0,0,81,false,stim,false,2,661,0,0,1,75720,task1,1611794,false,false,1924,image-keyboard-response,13
true,15,0,2,1,false,z,false,false,0.0-2.0-0.61-0.551-3.551,0,0,0,81,false,stim,true,0,916,0,0,0,75720,task1,1614228,false,false,1927,image-keyboard-response,14
true,15,1,2,1,true,z,false,true,0.0-2.0-0.61-0.552-3.552,0,0,0,90,false,stim,false,0,627,0,0,0,75720,task1,1616385,false,false,1930,image-keyboard-response,15
true,15,0,2,0,true,q,false,false,0.0-2.0-0.61-0.553-3.553,0,0,0,81,false,stim,false,2,673,0,0,1,75720,task1,1618585,false,true,1933,image-keyboard-response,16
true,15,1,2,0,false,q,true,false,0.0-2.0-0.61-0.554-3.554,0,0,0,90,false,stim,false,2,965,0,0,1,75720,task1,1621068,false,false,1936,image-keyboard-response,17
true,15,1,2,1,true,z,false,true,0.0-2.0-0.61-0.555-3.555,0,0,0,90,false,stim,false,0,600,0,0,0,75720,task1,1623208,false,false,1939,image-keyboard-response,18
true,15,0,2,1,false,z,false,false,0.0-2.0-0.61-0.556-3.556,0,0,0,81,false,stim,true,0,597,0,0,2,75720,task1,1625343,false,false,1942,image-keyboard-response,19
true,15,2,2,1,false,z,true,false,0.0-2.0-0.61-0.557-3.557,0,0,0,68,false,stim,false,0,656,0,0,2,75720,task1,1627537,false,false,1945,image-keyboard-response,20
true,15,2,2,0,false,q,false,false,0.0-2.0-0.62-0.558-3.558,0,0,0,68,false,stim,true,2,1109,0,0,1,75720,task1,1630172,false,false,1948,image-keyboard-response,21
true,15,1,2,0,false,q,true,false,0.0-2.0-0.62-0.559-3.559,0,0,0,90,false,stim,false,2,684,0,0,1,75720,task1,1632379,false,false,1951,image-keyboard-response,22
true,15,0,2,1,false,z,false,false,0.0-2.0-0.62-0.560-3.560,0,0,0,81,false,stim,true,0,1161,0,0,2,75720,task1,1635077,false,false,1954,image-keyboard-response,23
true,15,2,2,0,false,q,false,false,0.0-2.0-0.62-0.561-3.561,0,0,0,68,false,stim,true,2,706,0,0,1,75720,task1,1637320,false,false,1957,image-keyboard-response,24
true,15,1,2,1,true,z,false,true,0.0-2.0-0.62-0.562-3.562,0,0,0,90,false,stim,false,0,395,0,0,0,75720,task1,1639241,false,false,1960,image-keyboard-response,25
true,15,1,2,1,true,z,false,true,0.0-2.0-0.62-0.563-3.563,0,0,0,90,false,stim,false,0,734,0,0,0,75720,task1,1641500,false,false,1963,image-keyboard-response,26
true,15,1,2,1,true,z,false,true,0.0-2.0-0.62-0.564-3.564,0,0,0,90,false,stim,false,0,674,0,0,2,75720,task1,1643700,false,false,1966,image-keyboard-response,27
true,15,1,2,1,true,z,false,true,0.0-2.0-0.62-0.565-3.565,0,0,0,90,false,stim,false,0,914,0,0,2,75720,task1,1646140,false,false,1969,image-keyboard-response,28
true,15,1,2,1,true,z,false,true,0.0-2.0-0.62-0.566-3.566,0,0,0,90,false,stim,false,0,763,0,0,0,75720,task1,1648434,false,false,1972,image-keyboard-response,29
true,15,1,2,1,true,z,false,true,0.0-2.0-0.63-0.567-3.567,0,0,0,90,false,stim,false,0,493,0,0,0,75720,task1,1650458,false,false,1975,image-keyboard-response,30
true,15,2,2,0,false,q,false,false,0.0-2.0-0.63-0.568-3.568,0,0,0,68,false,stim,true,2,651,0,0,1,75720,task1,1652621,false,false,1978,image-keyboard-response,31
true,15,0,2,0,true,q,false,true,0.0-2.0-0.63-0.569-3.569,0,0,0,81,false,stim,false,2,677,0,0,1,75720,task1,1654825,false,false,1981,image-keyboard-response,32
true,15,1,2,1,true,z,false,true,0.0-2.0-0.63-0.570-3.570,0,0,0,90,false,stim,false,0,546,0,0,2,75720,task1,1656902,false,false,1984,image-keyboard-response,33
true,15,1,2,1,true,z,false,true,0.0-2.0-0.63-0.571-3.571,0,0,0,90,false,stim,false,0,684,0,0,0,75720,task1,1659111,false,false,1987,image-keyboard-response,34
true,15,1,2,1,true,z,false,true,0.0-2.0-0.63-0.572-3.572,0,0,0,90,false,stim,false,0,659,0,0,2,75720,task1,1661302,false,false,1990,image-keyboard-response,35
true,15,0,2,0,true,q,false,false,0.0-2.0-0.63-0.573-3.573,0,0,0,81,false,stim,false,2,704,0,0,1,75720,task1,1663520,false,true,1993,image-keyboard-response,36
true,15,1,2,1,true,z,false,true,0.0-2.0-0.63-0.574-3.574,0,0,0,90,false,stim,false,0,789,0,0,0,75720,task1,1665836,false,false,1996,image-keyboard-response,37
true,15,1,2,1,true,z,false,true,0.0-2.0-0.63-0.575-3.575,0,0,0,90,false,stim,false,0,793,0,0,2,75720,task1,1668154,false,false,1999,image-keyboard-response,38
true,15,2,2,0,false,q,false,false,0.0-2.0-0.64-0.576-3.576,0,0,0,68,false,stim,true,2,1251,0,0,1,75720,task1,1670966,false,false,2002,image-keyboard-response,39
true,15,1,2,1,true,z,false,true,0.0-2.0-0.64-0.577-3.577,0,0,0,90,false,stim,false,0,463,0,0,2,75720,task1,1672954,false,false,2005,image-keyboard-response,40
true,15,1,2,0,false,q,true,false,0.0-2.0-0.64-0.578-3.578,0,0,0,90,false,stim,false,2,510,0,0,1,75720,task1,1674988,false,false,2008,image-keyboard-response,41
true,15,1,2,1,true,z,false,true,0.0-2.0-0.64-0.579-3.579,0,0,0,90,false,stim,false,0,646,0,0,2,75720,task1,1677166,false,false,2011,image-keyboard-response,42
true,15,1,2,1,true,z,false,true,0.0-2.0-0.64-0.580-3.580,0,0,0,90,false,stim,false,0,664,0,0,0,75720,task1,1679360,false,false,2014,image-keyboard-response,43
true,15,1,2,1,true,z,false,true,0.0-2.0-0.64-0.581-3.581,0,0,0,90,false,stim,false,0,803,0,0,2,75720,task1,1681684,false,false,2017,image-keyboard-response,44
true,15,0,2,0,true,q,false,true,0.0-2.0-0.64-0.582-3.582,0,0,0,81,false,stim,false,2,1473,0,0,1,75720,task1,1684689,false,false,2020,image-keyboard-response,45
true,16,1,2,2,false,d,false,false,0.0-2.0-0.64-0.583-3.583,0,0,0,90,true,stim,true,1,637,0,0,0,75720,task1,1686846,false,false,2023,image-keyboard-response,1
true,16,2,2,2,true,d,false,false,0.0-2.0-0.64-0.584-3.584,0,0,0,68,false,stim,false,1,823,0,0,0,75720,task1,1689183,false,true,2026,image-keyboard-response,2
true,16,0,2,1,false,z,false,false,0.0-2.0-0.65-0.585-3.585,0,0,0,81,false,stim,true,0,723,0,0,1,75720,task1,1691426,false,false,2029,image-keyboard-response,3
true,16,1,2,0,false,q,false,false,0.0-2.0-0.65-0.586-3.586,0,0,0,90,false,stim,true,1,482,0,0,2,75720,task1,1693438,false,false,2032,image-keyboard-response,4
true,16,2,2,0,false,q,true,false,0.0-2.0-0.65-0.587-3.587,0,0,0,68,false,stim,false,1,433,0,0,2,75720,task1,1695391,false,false,2035,image-keyboard-response,5
true,16,2,2,1,false,z,true,false,0.0-2.0-0.65-0.588-3.588,0,0,0,68,false,stim,false,0,1243,0,0,1,75720,task1,1698166,false,false,2038,image-keyboard-response,6
true,16,0,2,0,true,q,false,true,0.0-2.0-0.65-0.589-3.589,0,0,0,81,false,stim,false,1,646,0,0,2,75720,task1,1700340,false,false,2041,image-keyboard-response,7
true,16,1,2,1,true,z,false,true,0.0-2.0-0.65-0.590-3.590,0,0,0,90,false,stim,false,0,1003,0,0,1,75720,task1,1702870,false,false,2044,image-keyboard-response,8
true,16,1,2,2,false,d,false,false,0.0-2.0-0.65-0.591-3.591,0,0,0,90,false,stim,true,1,939,0,0,0,75720,task1,1705347,false,false,2047,image-keyboard-response,9
true,16,2,2,2,true,d,false,true,0.0-2.0-0.65-0.592-3.592,0,0,0,68,false,stim,false,1,815,0,0,0,75720,task1,1707692,false,false,2050,image-keyboard-response,10
true,16,2,2,2,true,d,false,false,0.0-2.0-0.65-0.593-3.593,0,0,0,68,false,stim,false,1,522,0,0,0,75720,task1,1709755,false,true,2053,image-keyboard-response,11
true,16,1,2,2,false,d,false,false,0.0-2.0-0.66-0.594-3.594,0,0,0,90,false,stim,true,1,504,0,0,0,75720,task1,1711791,false,false,2056,image-keyboard-response,12
true,16,0,2,0,true,q,false,true,0.0-2.0-0.66-0.595-3.595,0,0,0,81,false,stim,false,1,667,0,0,2,75720,task1,1713975,false,false,2059,image-keyboard-response,13
true,16,0,2,0,true,q,false,true,0.0-2.0-0.66-0.596-3.596,0,0,0,81,false,stim,false,1,756,0,0,2,75720,task1,1716258,false,false,2062,image-keyboard-response,14
true,16,1,2,1,true,z,false,false,0.0-2.0-0.66-0.597-3.597,0,0,0,90,false,stim,false,0,969,0,0,1,75720,task1,1718755,false,true,2065,image-keyboard-response,15
true,16,0,2,1,false,z,false,false,0.0-2.0-0.66-0.598-3.598,0,0,0,81,false,stim,true,0,790,0,0,1,75720,task1,1721081,false,false,2068,image-keyboard-response,16
true,16,2,2,1,false,z,true,false,0.0-2.0-0.66-0.599-3.599,0,0,0,68,false,stim,false,0,720,0,0,1,75720,task1,1723328,false,false,2071,image-keyboard-response,17
true,16,1,2,2,false,d,false,false,0.0-2.0-0.66-0.600-3.600,0,0,0,90,false,stim,true,1,935,0,0,0,75720,task1,1725781,false,false,2074,image-keyboard-response,18
true,16,0,2,0,true,q,false,true,0.0-2.0-0.66-0.601-3.601,0,0,0,81,false,stim,false,1,495,0,0,2,75720,task1,1727807,false,false,2077,image-keyboard-response,19
true,16,0,2,2,false,d,true,false,0.0-2.0-0.66-0.602-3.602,0,0,0,81,false,stim,false,1,1055,0,0,0,75720,task1,1730376,false,false,2080,image-keyboard-response,20
true,16,1,2,2,false,d,false,false,0.0-2.0-0.67-0.603-3.603,0,0,0,90,false,stim,true,1,818,0,0,0,75720,task1,1732734,false,false,2083,image-keyboard-response,21
true,16,1,2,1,true,z,false,true,0.0-2.0-0.67-0.604-3.604,0,0,0,90,false,stim,false,0,1202,0,0,1,75720,task1,1735464,false,false,2086,image-keyboard-response,22
true,16,0,2,0,true,q,false,true,0.0-2.0-0.67-0.605-3.605,0,0,0,81,false,stim,false,1,753,0,0,2,75720,task1,1737732,false,false,2089,image-keyboard-response,23
true,16,1,2,2,false,d,false,true,0.0-2.0-0.67-0.606-3.606,0,0,0,90,false,stim,true,1,846,0,0,0,75720,task1,1740096,false,true,2092,image-keyboard-response,24
true,16,1,2,2,false,d,false,false,0.0-2.0-0.67-0.607-3.607,0,0,0,90,false,stim,true,1,473,0,0,0,75720,task1,1742095,false,false,2095,image-keyboard-response,25
true,16,0,2,0,true,q,false,true,0.0-2.0-0.67-0.608-3.608,0,0,0,81,false,stim,false,1,423,0,0,2,75720,task1,1744045,false,false,2098,image-keyboard-response,26
true,16,0,2,0,true,q,false,true,0.0-2.0-0.67-0.609-3.609,0,0,0,81,false,stim,false,1,589,0,0,2,75720,task1,1746201,false,false,2101,image-keyboard-response,27
true,16,0,2,1,false,z,false,false,0.0-2.0-0.67-0.610-3.610,0,0,0,81,false,stim,true,0,723,0,0,1,75720,task1,1748450,false,false,2104,image-keyboard-response,28
true,16,2,2,1,false,z,true,false,0.0-2.0-0.67-0.611-3.611,0,0,0,68,false,stim,false,0,572,0,0,1,75720,task1,1750549,false,false,2107,image-keyboard-response,29
true,16,1,2,1,true,z,false,true,0.0-2.0-0.68-0.612-3.612,0,0,0,90,false,stim,false,0,592,0,0,1,75720,task1,1752675,false,false,2110,image-keyboard-response,30
true,16,0,2,0,true,q,false,true,0.0-2.0-0.68-0.613-3.613,0,0,0,81,false,stim,false,1,588,0,0,2,75720,task1,1754789,false,false,2113,image-keyboard-response,31
true,16,1,2,1,true,z,false,true,0.0-2.0-0.68-0.614-3.614,0,0,0,90,false,stim,false,0,522,0,0,1,75720,task1,1756834,false,false,2116,image-keyboard-response,32
true,16,0,2,0,true,q,false,true,0.0-2.0-0.68-0.615-3.615,0,0,0,81,false,stim,false,1,639,0,0,2,75720,task1,1758998,false,false,2119,image-keyboard-response,33
true,16,1,2,2,false,d,false,false,0.0-2.0-0.68-0.616-3.616,0,0,0,90,false,stim,true,1,1012,0,0,0,75720,task1,1761540,false,false,2122,image-keyboard-response,34
true,16,0,2,2,false,d,true,false,0.0-2.0-0.68-0.617-3.617,0,0,0,81,false,stim,false,1,697,0,0,0,75720,task1,1763769,false,false,2125,image-keyboard-response,35
true,16,2,2,2,true,d,false,true,0.0-2.0-0.68-0.618-3.618,0,0,0,68,false,stim,false,1,622,0,0,0,75720,task1,1765923,false,false,2128,image-keyboard-response,36
true,16,1,2,1,true,z,false,true,0.0-2.0-0.68-0.619-3.619,0,0,0,90,false,stim,false,0,493,0,0,1,75720,task1,1767940,false,false,2131,image-keyboard-response,37
true,16,0,2,0,true,q,false,true,0.0-2.0-0.68-0.620-3.620,0,0,0,81,false,stim,false,1,386,0,0,2,75720,task1,1769852,false,false,2134,image-keyboard-response,38
true,16,0,2,0,true,q,false,true,0.0-2.0-0.69-0.621-3.621,0,0,0,81,false,stim,false,1,436,0,0,2,75720,task1,1771816,false,false,2137,image-keyboard-response,39
true,16,2,2,2,true,d,false,true,0.0-2.0-0.69-0.622-3.622,0,0,0,68,false,stim,false,1,1228,0,0,0,75720,task1,1774565,false,false,2140,image-keyboard-response,40
true,16,0,2,0,true,q,false,true,0.0-2.0-0.69-0.623-3.623,0,0,0,81,false,stim,false,1,836,0,0,2,75720,task1,1776919,false,false,2143,image-keyboard-response,41
true,16,1,2,1,true,z,false,true,0.0-2.0-0.69-0.624-3.624,0,0,0,90,false,stim,false,0,559,0,0,1,75720,task1,1778992,false,false,2146,image-keyboard-response,42
true,16,1,2,1,true,z,false,true,0.0-2.0-0.69-0.625-3.625,0,0,0,90,false,stim,false,0,645,0,0,1,75720,task1,1781154,false,false,2149,image-keyboard-response,43
true,16,2,2,2,true,d,false,true,0.0-2.0-0.69-0.626-3.626,0,0,0,68,false,stim,false,1,935,0,0,0,75720,task1,1783613,false,false,2152,image-keyboard-response,44
true,16,0,2,0,true,q,false,false,0.0-2.0-0.69-0.627-3.627,0,0,0,81,false,stim,false,1,645,0,0,2,75720,task1,1785775,false,true,2155,image-keyboard-response,45
true,17,2,2,1,false,z,false,false,0.0-2.0-0.69-0.628-3.628,0,0,0,68,true,stim,true,2,1231,0,0,0,75720,task1,1788521,false,false,2158,image-keyboard-response,1
true,17,1,2,0,false,q,false,false,0.0-2.0-0.69-0.629-3.629,0,0,0,90,false,stim,true,1,447,0,0,1,75720,task1,1790486,false,false,2161,image-keyboard-response,2
true,17,1,2,1,true,z,false,true,0.0-2.0-0.70-0.630-3.630,0,0,0,90,false,stim,false,2,1272,0,0,0,75720,task1,1793293,false,false,2164,image-keyboard-response,3
true,17,1,2,1,true,z,false,false,0.0-2.0-0.70-0.631-3.631,0,0,0,90,false,stim,false,2,790,0,0,0,75720,task1,1795617,false,true,2167,image-keyboard-response,4
true,17,0,2,1,false,z,false,false,0.0-2.0-0.70-0.632-3.632,0,0,0,81,false,stim,true,0,630,0,0,2,75720,task1,1797772,false,false,2170,image-keyboard-response,5
true,17,0,2,1,false,z,true,true,0.0-2.0-0.70-0.633-3.633,0,0,0,81,false,stim,false,2,421,0,0,0,75720,task1,1799723,false,true,2173,image-keyboard-response,6
