answered,blockNum,choice,condition,corResp,correct,correct_response,explo,fb,internal_node_id,isStable_1,isStable_2,isStable_3,key_press,newBlock,part,persev,persevResp,rt,sessNum,stableAS,stimulus,subject,task,time_elapsed,training,trap,trial_index,trial_type,trialsInBlock
true,1,1,0,0,false,q,true,false,0.0-2.0-0.0-0.0-3.0,0,0,0,90,true,stim,false,-1,1297,1,0,2,75813,task3,307955,false,false,79,image-keyboard-response,1
true,1,2,0,2,true,d,false,true,0.0-2.0-0.0-0.1-3.1,0,0,0,68,false,stim,false,-1,643,1,0,1,75813,task3,310119,false,false,82,image-keyboard-response,2
true,1,0,0,1,false,z,true,false,0.0-2.0-0.0-0.2-3.2,0,0,0,81,false,stim,false,-1,472,1,0,0,75813,task3,312110,false,false,85,image-keyboard-response,3
true,1,1,0,1,true,z,false,true,0.0-2.0-0.0-0.3-3.3,0,0,0,90,false,stim,false,-1,688,1,0,0,75813,task3,314309,false,false,88,image-keyboard-response,4
true,1,0,0,0,true,q,false,true,0.0-2.0-0.0-0.4-3.4,0,0,0,81,false,stim,false,-1,766,1,0,2,75813,task3,316588,false,false,91,image-keyboard-response,5
true,1,2,0,2,true,d,false,true,0.0-2.0-0.0-0.5-3.5,0,0,0,68,false,stim,false,-1,611,1,0,1,75813,task3,318724,false,false,94,image-keyboard-response,6
true,1,0,0,0,true,q,false,false,0.0-2.0-0.0-0.6-3.6,0,0,0,81,false,stim,false,-1,769,1,0,2,75813,task3,321008,false,true,97,image-keyboard-response,7
true,1,2,0,2,true,d,false,true,0.0-2.0-0.0-0.7-3.7,0,0,0,68,false,stim,false,-1,523,1,0,1,75813,task3,323049,false,false,100,image-keyboard-response,8
true,1,1,0,1,true,z,false,true,0.0-2.0-0.0-0.8-3.8,0,0,0,90,false,stim,false,-1,375,1,0,0,75813,task3,324944,false,false,103,image-keyboard-response,9
true,1,1,0,1,true,z,false,true,0.0-2.0-0.1-0.9-3.9,0,0,0,90,false,stim,false,-1,611,1,0,0,75813,task3,327064,false,false,106,image-keyboard-response,10
true,1,1,0,1,true,z,false,true,0.0-2.0-0.1-0.10-3.10,0,0,0,90,false,stim,false,-1,525,1,0,0,75813,task3,329114,false,false,109,image-keyboard-response,11
true,1,2,0,2,true,d,false,true,0.0-2.0-0.1-0.11-3.11,0,0,0,68,false,stim,false,-1,983,1,0,1,75813,task3,331613,false,false,112,image-keyboard-response,12
true,1,0,0,0,true,q,false,false,0.0-2.0-0.1-0.12-3.12,0,0,0,81,false,stim,false,-1,854,1,0,2,75813,task3,333989,false,true,115,image-keyboard-response,13
true,1,1,0,2,false,d,true,false,0.0-2.0-0.1-0.13-3.13,0,0,0,90,false,stim,false,-1,696,1,0,1,75813,task3,336204,false,false,118,image-keyboard-response,14
true,1,0,0,0,true,q,false,true,0.0-2.0-0.1-0.14-3.14,0,0,0,81,false,stim,false,-1,640,1,0,2,75813,task3,338371,false,false,121,image-keyboard-response,15
true,1,2,0,2,true,d,false,true,0.0-2.0-0.1-0.15-3.15,0,0,0,68,false,stim,false,-1,556,1,0,1,75813,task3,340439,false,false,124,image-keyboard-response,16
true,1,2,0,0,false,q,true,false,0.0-2.0-0.1-0.16-3.16,0,0,0,68,false,stim,false,-1,557,1,0,2,75813,task3,342511,false,false,127,image-keyboard-response,17
true,1,1,0,1,true,z,false,false,0.0-2.0-0.1-0.17-3.17,0,0,0,90,false,stim,false,-1,988,1,0,0,75813,task3,345024,false,true,130,image-keyboard-response,18
true,1,0,0,0,true,q,false,true,0.0-2.0-0.2-0.18-3.18,0,0,0,81,false,stim,false,-1,846,1,0,2,75813,task3,347388,false,false,133,image-keyboard-response,19
true,1,2,0,2,true,d,false,true,0.0-2.0-0.2-0.19-3.19,0,0,0,68,false,stim,false,-1,523,1,0,1,75813,task3,349433,false,false,136,image-keyboard-response,20
true,1,0,0,0,true,q,false,true,0.0-2.0-0.2-0.20-3.20,0,0,0,81,false,stim,false,-1,1170,1,1,2,75813,task3,352129,false,false,139,image-keyboard-response,21
true,1,1,0,1,true,z,false,true,0.0-2.0-0.2-0.21-3.21,0,0,0,90,false,stim,false,-1,873,1,0,0,75813,task3,354522,false,false,142,image-keyboard-response,22
true,1,1,0,1,true,z,false,false,0.0-2.0-0.2-0.22-3.22,0,0,0,90,false,stim,false,-1,1160,1,0,0,75813,task3,357203,false,true,145,image-keyboard-response,23
true,1,1,0,1,true,z,false,false,0.0-2.0-0.2-0.23-3.23,0,0,0,90,false,stim,false,-1,493,1,0,0,75813,task3,359208,false,true,148,image-keyboard-response,24
true,1,0,0,0,true,q,false,true,0.0-2.0-0.2-0.24-3.24,0,0,0,81,false,stim,false,-1,1206,1,1,2,75813,task3,361940,false,false,151,image-keyboard-response,25
true,2,2,1,0,false,q,false,false,0.0-2.0-0.2-0.25-3.25,0,0,1,68,true,stim,true,2,610,1,0,1,75813,task3,364072,false,false,154,image-keyboard-response,1
true,2,1,1,0,false,q,true,false,0.0-2.0-0.2-0.26-3.26,0,0,1,90,false,stim,false,2,919,1,0,1,75813,task3,366507,false,false,157,image-keyboard-response,2
true,2,0,1,0,true,q,false,true,0.0-2.0-0.3-0.27-3.27,0,0,1,81,false,stim,false,2,562,1,0,1,75813,task3,368590,false,false,160,image-keyboard-response,3
true,2,0,1,0,true,q,false,true,0.0-2.0-0.3-0.28-3.28,0,0,1,81,false,stim,false,2,441,1,0,1,75813,task3,370552,false,false,163,image-keyboard-response,4
true,2,0,1,0,true,q,false,false,0.0-2.0-0.3-0.29-3.29,0,0,1,81,false,stim,false,2,416,1,0,1,75813,task3,372474,false,true,166,image-keyboard-response,5
true,2,1,1,0,false,q,true,false,0.0-2.0-0.3-0.30-3.30,0,0,1,90,false,stim,false,0,712,1,1,2,75813,task3,374710,false,false,169,image-keyboard-response,6
true,2,2,1,2,true,d,false,true,0.0-2.0-0.3-0.31-3.31,0,0,1,68,false,stim,false,1,901,1,1,0,75813,task3,377135,false,false,172,image-keyboard-response,7
true,2,1,1,0,false,q,true,false,0.0-2.0-0.3-0.32-3.32,0,0,1,90,false,stim,false,0,698,1,0,2,75813,task3,379359,false,false,175,image-keyboard-response,8
true,2,0,1,0,true,q,false,true,0.0-2.0-0.3-0.33-3.33,0,0,1,81,false,stim,false,0,480,1,0,2,75813,task3,381355,false,false,178,image-keyboard-response,9
true,2,2,1,2,true,d,false,true,0.0-2.0-0.3-0.34-3.34,0,0,1,68,false,stim,false,1,944,1,1,0,75813,task3,383820,false,false,181,image-keyboard-response,10
true,2,2,1,2,true,d,false,true,0.0-2.0-0.3-0.35-3.35,0,0,1,68,false,stim,false,1,643,1,1,0,75813,task3,385980,false,false,184,image-keyboard-response,11
true,3,0,2,1,false,z,false,false,0.0-2.0-0.4-0.36-3.36,1,1,0,81,true,stim,true,0,524,1,0,2,75813,task3,388019,false,false,187,image-keyboard-response,1
true,3,2,2,2,true,d,false,true,0.0-2.0-0.4-0.37-3.37,1,1,0,68,false,stim,false,2,596,1,1,0,75813,task3,390130,false,false,190,image-keyboard-response,2
true,3,0,2,0,true,q,false,true,0.0-2.0-0.4-0.38-3.38,1,1,0,81,false,stim,false,0,532,1,1,1,75813,task3,392182,false,false,193,image-keyboard-response,3
true,3,0,2,1,false,z,false,true,0.0-2.0-0.4-0.39-3.39,1,1,0,81,false,stim,true,0,1377,1,0,2,75813,task3,395067,false,true,196,image-keyboard-response,4
true,3,0,2,1,false,z,false,false,0.0-2.0-0.4-0.40-3.40,1,1,0,81,false,stim,true,0,597,1,0,2,75813,task3,397182,false,false,199,image-keyboard-response,5
true,3,2,2,2,true,d,false,true,0.0-2.0-0.4-0.41-3.41,1,1,0,68,false,stim,false,2,471,1,0,0,75813,task3,399185,false,false,202,image-keyboard-response,6
true,3,0,2,0,true,q,false,true,0.0-2.0-0.4-0.42-3.42,1,1,0,81,false,stim,false,0,418,1,0,1,75813,task3,401125,false,false,205,image-keyboard-response,7
true,3,2,2,2,true,d,false,true,0.0-2.0-0.4-0.43-3.43,1,1,0,68,false,stim,false,2,873,1,0,0,75813,task3,403523,false,false,208,image-keyboard-response,8
true,3,0,2,0,true,q,false,true,0.0-2.0-0.4-0.44-3.44,1,1,0,81,false,stim,false,0,1171,1,0,1,75813,task3,406217,false,false,211,image-keyboard-response,9
true,3,2,2,2,true,d,false,true,0.0-2.0-0.5-0.45-3.45,1,1,0,68,false,stim,false,2,552,1,0,0,75813,task3,408287,false,false,214,image-keyboard-response,10
true,4,2,1,1,false,z,false,false,0.0-2.0-0.5-0.46-3.46,0,0,1,68,true,stim,true,2,653,1,0,0,75813,task3,410458,false,false,217,image-keyboard-response,1
true,4,0,1,1,false,z,true,false,0.0-2.0-0.5-0.47-3.47,0,0,1,81,false,stim,false,1,501,1,1,2,75813,task3,412481,false,false,220,image-keyboard-response,2
true,4,0,1,1,false,z,true,false,0.0-2.0-0.5-0.48-3.48,0,0,1,81,false,stim,false,1,669,1,1,2,75813,task3,414673,false,false,223,image-keyboard-response,3
true,4,0,1,1,false,z,true,false,0.0-2.0-0.5-0.49-3.49,0,0,1,81,false,stim,false,1,561,1,1,2,75813,task3,416768,false,false,226,image-keyboard-response,4
true,4,2,1,2,true,d,false,true,0.0-2.0-0.5-0.50-3.50,0,0,1,68,false,stim,false,0,1189,1,0,1,75813,task3,419486,false,false,229,image-keyboard-response,5
true,4,2,1,2,true,d,false,true,0.0-2.0-0.5-0.51-3.51,0,0,1,68,false,stim,false,0,552,1,0,1,75813,task3,421568,false,false,232,image-keyboard-response,6
true,4,2,1,2,true,d,false,true,0.0-2.0-0.5-0.52-3.52,0,0,1,68,false,stim,false,0,373,1,0,1,75813,task3,423462,false,false,235,image-keyboard-response,7
true,4,1,1,1,true,z,false,true,0.0-2.0-0.5-0.53-3.53,0,0,1,90,false,stim,false,2,667,1,0,0,75813,task3,425647,false,false,238,image-keyboard-response,8
true,4,2,1,2,true,d,false,true,0.0-2.0-0.6-0.54-3.54,0,0,1,68,false,stim,false,0,856,1,0,1,75813,task3,428021,false,false,241,image-keyboard-response,9
true,4,0,1,1,false,z,true,false,0.0-2.0-0.6-0.55-3.55,0,0,1,81,false,stim,false,1,620,1,1,2,75813,task3,430163,false,false,244,image-keyboard-response,10
true,4,2,1,2,true,d,false,true,0.0-2.0-0.6-0.56-3.56,0,0,1,68,false,stim,false,0,628,1,0,1,75813,task3,432310,false,false,247,image-keyboard-response,11
true,4,1,1,1,true,z,false,true,0.0-2.0-0.6-0.57-3.57,0,0,1,90,false,stim,false,2,802,1,0,0,75813,task3,434628,false,false,250,image-keyboard-response,12
true,4,1,1,1,true,z,false,true,0.0-2.0-0.6-0.58-3.58,0,0,1,90,false,stim,false,1,438,1,1,2,75813,task3,436582,false,false,253,image-keyboard-response,13
true,4,1,1,1,true,z,false,true,0.0-2.0-0.6-0.59-3.59,0,0,1,90,false,stim,false,2,686,1,0,0,75813,task3,438800,false,false,256,image-keyboard-response,14
true,4,1,1,1,true,z,false,true,0.0-2.0-0.6-0.60-3.60,0,0,1,90,false,stim,false,2,563,1,0,0,75813,task3,440879,false,false,259,image-keyboard-response,15
true,4,1,1,1,true,z,false,true,0.0-2.0-0.6-0.61-3.61,0,0,1,90,false,stim,false,1,1690,1,1,2,75813,task3,444086,false,false,262,image-keyboard-response,16
true,4,2,1,2,true,d,false,true,0.0-2.0-0.6-0.62-3.62,0,0,1,68,false,stim,false,0,396,1,0,1,75813,task3,445996,false,false,265,image-keyboard-response,17
true,4,2,1,2,true,d,false,true,0.0-2.0-0.7-0.63-3.63,0,0,1,68,false,stim,false,0,517,1,0,1,75813,task3,448031,false,false,268,image-keyboard-response,18
true,4,1,1,1,true,z,false,true,0.0-2.0-0.7-0.64-3.64,0,0,1,90,false,stim,false,1,526,1,1,2,75813,task3,450085,false,false,271,image-keyboard-response,19
true,4,2,1,2,true,d,false,true,0.0-2.0-0.7-0.65-3.65,0,0,1,68,false,stim,false,0,525,1,0,1,75813,task3,452134,false,false,274,image-keyboard-response,20
true,4,1,1,1,true,z,false,true,0.0-2.0-0.7-0.66-3.66,0,0,1,90,false,stim,false,2,417,1,0,0,75813,task3,454060,false,false,277,image-keyboard-response,21
true,4,2,1,2,true,d,false,true,0.0-2.0-0.7-0.67-3.67,0,0,1,68,false,stim,false,0,790,1,0,1,75813,task3,456368,false,false,280,image-keyboard-response,22
true,4,1,1,1,true,z,false,true,0.0-2.0-0.7-0.68-3.68,0,0,1,90,false,stim,false,1,513,1,1,2,75813,task3,458407,false,false,283,image-keyboard-response,23
true,4,1,1,1,true,z,false,true,0.0-2.0-0.7-0.69-3.69,0,0,1,90,false,stim,false,2,1555,1,0,0,75813,task3,461478,false,false,286,image-keyboard-response,24
true,4,1,1,1,true,z,false,true,0.0-2.0-0.7-0.70-3.70,0,0,1,90,false,stim,false,2,445,1,0,0,75813,task3,463437,false,false,289,image-keyboard-response,25
true,4,1,1,1,true,z,false,true,0.0-2.0-0.7-0.71-3.71,0,0,1,90,false,stim,false,1,451,1,1,2,75813,task3,465408,false,false,292,image-keyboard-response,26
true,4,2,1,2,true,d,false,true,0.0-2.0-0.8-0.72-3.72,0,0,1,68,false,stim,false,0,399,1,0,1,75813,task3,467318,false,false,295,image-keyboard-response,27
true,4,1,1,1,true,z,false,true,0.0-2.0-0.8-0.73-3.73,0,0,1,90,false,stim,false,1,478,1,1,2,75813,task3,469318,false,false,298,image-keyboard-response,28
true,4,1,1,1,true,z,false,true,0.0-2.0-0.8-0.74-3.74,0,0,1,90,false,stim,false,1,651,1,1,2,75813,task3,471490,false,false,301,image-keyboard-response,29
true,5,2,1,0,false,q,true,false,0.0-2.0-0.8-0.75-3.75,0,0,1,68,true,stim,false,1,734,1,0,0,75813,task3,473730,false,false,304,image-keyboard-response,1
true,5,1,1,0,false,q,false,false,0.0-2.0-0.8-0.76-3.76,0,0,1,90,false,stim,true,1,554,1,0,0,75813,task3,475795,false,false,307,image-keyboard-response,2
true,5,1,1,0,false,q,false,false,0.0-2.0-0.8-0.77-3.77,0,0,1,90,false,stim,true,1,407,1,0,0,75813,task3,477733,false,false,310,image-keyboard-response,3
true,5,2,1,1,false,z,false,false,0.0-2.0-0.8-0.78-3.78,0,0,1,68,false,stim,true,2,913,1,0,1,75813,task3,480183,false,false,313,image-keyboard-response,4
true,5,0,1,1,false,z,true,true,0.0-2.0-0.8-0.79-3.79,0,0,1,81,false,stim,false,2,738,1,0,1,75813,task3,482444,false,true,316,image-keyboard-response,5
true,5,1,1,1,true,z,false,true,0.0-2.0-0.8-0.80-3.80,0,0,1,90,false,stim,false,1,475,1,1,2,75813,task3,484439,false,false,319,image-keyboard-response,6
true,5,1,1,1,true,z,false,true,0.0-2.0-0.9-0.81-3.81,0,0,1,90,false,stim,false,1,517,1,1,2,75813,task3,486478,false,false,322,image-keyboard-response,7
true,5,0,1,1,false,z,true,false,0.0-2.0-0.9-0.82-3.82,0,0,1,81,false,stim,false,2,364,1,0,1,75813,task3,488360,false,false,325,image-keyboard-response,8
true,5,0,1,1,false,z,true,false,0.0-2.0-0.9-0.83-3.83,0,0,1,81,false,stim,false,2,359,1,0,1,75813,task3,490232,false,false,328,image-keyboard-response,9
true,5,1,1,1,true,z,false,true,0.0-2.0-0.9-0.84-3.84,0,0,1,90,false,stim,false,2,632,1,0,1,75813,task3,492391,false,false,331,image-keyboard-response,10
true,5,1,1,0,false,q,false,true,0.0-2.0-0.9-0.85-3.85,0,0,1,90,false,stim,true,1,469,1,0,0,75813,task3,494380,false,true,334,image-keyboard-response,11
true,5,1,1,0,false,q,false,false,0.0-2.0-0.9-0.86-3.86,0,0,1,90,false,stim,true,1,402,1,0,0,75813,task3,496302,false,false,337,image-keyboard-response,12
true,5,2,1,0,false,q,true,false,0.0-2.0-0.9-0.87-3.87,0,0,1,68,false,stim,false,1,507,1,0,0,75813,task3,498332,false,false,340,image-keyboard-response,13
true,5,1,1,1,true,z,false,true,0.0-2.0-0.9-0.88-3.88,0,0,1,90,false,stim,false,1,1177,1,1,2,75813,task3,501032,false,false,343,image-keyboard-response,14
true,5,1,1,1,true,z,false,true,0.0-2.0-0.9-0.89-3.89,0,0,1,90,false,stim,false,1,546,1,1,2,75813,task3,503100,false,false,346,image-keyboard-response,15
true,5,1,1,1,true,z,false,true,0.0-2.0-0.10-0.90-3.90,0,0,1,90,false,stim,false,2,424,1,0,1,75813,task3,505048,false,false,349,image-keyboard-response,16
true,5,1,1,1,true,z,false,true,0.0-2.0-0.10-0.91-3.91,0,0,1,90,false,stim,false,2,405,1,0,1,75813,task3,506969,false,false,352,image-keyboard-response,17
true,5,0,1,0,true,q,false,true,0.0-2.0-0.10-0.92-3.92,0,0,1,81,false,stim,false,1,412,1,0,0,75813,task3,508895,false,false,355,image-keyboard-response,18
true,5,1,1,1,true,z,false,true,0.0-2.0-0.10-0.93-3.93,0,0,1,90,false,stim,false,1,549,1,1,2,75813,task3,510963,false,false,358,image-keyboard-response,19
true,5,0,1,0,true,q,false,true,0.0-2.0-0.10-0.94-3.94,0,0,1,81,false,stim,false,1,523,1,0,0,75813,task3,513008,false,false,361,image-keyboard-response,20
true,5,1,1,1,true,z,false,true,0.0-2.0-0.10-0.95-3.95,0,0,1,90,false,stim,false,1,575,1,1,2,75813,task3,515100,false,false,364,image-keyboard-response,21
true,5,1,1,1,true,z,false,true,0.0-2.0-0.10-0.96-3.96,0,0,1,90,false,stim,false,1,541,1,1,2,75813,task3,517157,false,false,367,image-keyboard-response,22
true,5,0,1,0,true,q,false,true,0.0-2.0-0.10-0.97-3.97,0,0,1,81,false,stim,false,1,494,1,0,0,75813,task3,519163,false,false,370,image-keyboard-response,23
true,5,1,1,1,true,z,false,true,0.0-2.0-0.10-0.98-3.98,0,0,1,90,false,stim,false,2,485,1,1,1,75813,task3,521168,false,false,373,image-keyboard-response,24
true,6,0,2,2,false,d,false,false,0.0-2.0-0.11-0.99-3.99,0,1,1,81,true,stim,true,0,356,1,0,0,75813,task3,523049,false,false,376,image-keyboard-response,1
true,6,1,2,1,true,z,false,true,0.0-2.0-0.11-0.100-3.100,0,1,1,90,false,stim,false,1,440,1,1,1,75813,task3,525010,false,false,379,image-keyboard-response,2
true,6,1,2,1,true,z,false,true,0.0-2.0-0.11-0.101-3.101,0,1,1,90,false,stim,false,1,369,1,1,1,75813,task3,526904,false,false,382,image-keyboard-response,3
true,6,1,2,1,true,z,false,true,0.0-2.0-0.11-0.102-3.102,0,1,1,90,false,stim,false,1,326,1,1,1,75813,task3,528758,false,false,385,image-keyboard-response,4
true,6,1,2,1,true,z,false,true,0.0-2.0-0.11-0.103-3.103,0,1,1,90,false,stim,false,1,535,1,1,2,75813,task3,530810,false,false,388,image-keyboard-response,5
true,6,1,2,1,true,z,false,true,0.0-2.0-0.11-0.104-3.104,0,1,1,90,false,stim,false,1,802,1,1,2,75813,task3,533123,false,false,391,image-keyboard-response,6
true,6,0,2,2,false,d,false,false,0.0-2.0-0.11-0.105-3.105,0,1,1,81,false,stim,true,0,560,1,0,0,75813,task3,535199,false,false,394,image-keyboard-response,7
true,6,0,2,2,false,d,false,false,0.0-2.0-0.11-0.106-3.106,0,1,1,81,false,stim,true,0,849,1,0,0,75813,task3,537573,false,false,397,image-keyboard-response,8
true,6,1,2,1,true,z,false,true,0.0-2.0-0.11-0.107-3.107,0,1,1,90,false,stim,false,1,369,1,1,2,75813,task3,539457,false,false,400,image-keyboard-response,9
true,6,1,2,1,true,z,false,false,0.0-2.0-0.12-0.108-3.108,0,1,1,90,false,stim,false,1,331,1,1,1,75813,task3,541320,false,true,403,image-keyboard-response,10
true,6,1,2,1,true,z,false,true,0.0-2.0-0.12-0.109-3.109,0,1,1,90,false,stim,false,1,431,1,1,2,75813,task3,543263,false,false,406,image-keyboard-response,11
true,6,1,2,1,true,z,false,true,0.0-2.0-0.12-0.110-3.110,0,1,1,90,false,stim,false,1,531,1,1,2,75813,task3,545307,false,false,409,image-keyboard-response,12
true,6,0,2,2,false,d,false,false,0.0-2.0-0.12-0.111-3.111,0,1,1,81,false,stim,true,0,777,1,0,0,75813,task3,547606,false,false,412,image-keyboard-response,13
true,6,1,2,1,true,z,false,true,0.0-2.0-0.12-0.112-3.112,0,1,1,90,false,stim,false,1,493,1,1,1,75813,task3,549619,false,false,415,image-keyboard-response,14
true,6,1,2,1,true,z,false,true,0.0-2.0-0.12-0.113-3.113,0,1,1,90,false,stim,false,1,412,1,1,1,75813,task3,551538,false,false,418,image-keyboard-response,15
true,6,2,2,2,true,d,false,true,0.0-2.0-0.12-0.114-3.114,0,1,1,68,false,stim,false,0,658,1,0,0,75813,task3,553712,false,false,421,image-keyboard-response,16
true,6,1,2,1,true,z,false,true,0.0-2.0-0.12-0.115-3.115,0,1,1,90,false,stim,false,1,906,1,1,2,75813,task3,556130,false,false,424,image-keyboard-response,17
true,6,2,2,2,true,d,false,true,0.0-2.0-0.12-0.116-3.116,0,1,1,68,false,stim,false,0,467,1,0,0,75813,task3,558122,false,false,427,image-keyboard-response,18
true,6,1,2,1,true,z,false,true,0.0-2.0-0.13-0.117-3.117,0,1,1,90,false,stim,false,1,445,1,1,1,75813,task3,560084,false,false,430,image-keyboard-response,19
true,6,1,2,1,true,z,false,true,0.0-2.0-0.13-0.118-3.118,0,1,1,90,false,stim,false,1,445,1,1,2,75813,task3,562050,false,false,433,image-keyboard-response,20
true,6,1,2,1,true,z,false,true,0.0-2.0-0.13-0.119-3.119,0,1,1,90,false,stim,false,1,545,1,1,1,75813,task3,564112,false,false,436,image-keyboard-response,21
true,6,2,2,2,true,d,false,true,0.0-2.0-0.13-0.120-3.120,0,1,1,68,false,stim,false,0,526,1,0,0,75813,task3,566157,false,false,439,image-keyboard-response,22
true,6,1,2,1,true,z,false,true,0.0-2.0-0.13-0.121-3.121,0,1,1,90,false,stim,false,1,589,1,0,2,75813,task3,568259,false,false,442,image-keyboard-response,23
true,6,2,2,2,true,d,false,true,0.0-2.0-0.13-0.122-3.122,0,1,1,68,false,stim,false,0,775,1,0,0,75813,task3,570549,false,false,445,image-keyboard-response,24
true,6,1,2,1,true,z,false,true,0.0-2.0-0.13-0.123-3.123,0,1,1,90,false,stim,false,1,616,1,1,1,75813,task3,572676,false,false,448,image-keyboard-response,25
true,6,2,2,2,true,d,false,true,0.0-2.0-0.13-0.124-3.124,0,1,1,68,false,stim,false,0,1545,1,0,0,75813,task3,575732,false,false,451,image-keyboard-response,26
true,6,1,2,1,true,z,false,true,0.0-2.0-0.13-0.125-3.125,0,1,1,90,false,stim,false,1,389,1,0,2,75813,task3,577640,false,false,454,image-keyboard-response,27
true,7,1,1,1,true,z,false,true,0.0-2.0-0.14-0.126-3.126,0,1,0,90,true,stim,false,1,390,1,1,1,75813,task3,579549,false,false,457,image-keyboard-response,1
true,7,1,1,1,true,z,false,false,0.0-2.0-0.14-0.127-3.127,0,1,0,90,false,stim,false,1,351,1,1,1,75813,task3,581414,false,true,460,image-keyboard-response,2
true,7,2,1,2,true,d,false,true,0.0-2.0-0.14-0.128-3.128,0,1,0,68,false,stim,false,1,425,1,0,2,75813,task3,583361,false,false,463,image-keyboard-response,3
true,7,1,1,0,false,q,true,false,0.0-2.0-0.14-0.129-3.129,0,1,0,90,false,stim,false,2,851,1,0,0,75813,task3,585729,false,false,466,image-keyboard-response,4
true,7,0,1,0,true,q,false,true,0.0-2.0-0.14-0.130-3.130,0,1,0,81,false,stim,false,2,609,1,0,0,75813,task3,587863,false,false,469,image-keyboard-response,5
true,7,2,1,1,false,z,true,false,0.0-2.0-0.14-0.131-3.131,0,1,0,68,false,stim,false,1,1207,1,1,1,75813,task3,590597,false,false,472,image-keyboard-response,6
true,7,0,1,0,true,q,false,true,0.0-2.0-0.14-0.132-3.132,0,1,0,81,false,stim,false,2,543,1,0,0,75813,task3,592652,false,false,475,image-keyboard-response,7
true,7,2,1,2,true,d,false,true,0.0-2.0-0.14-0.133-3.133,0,1,0,68,false,stim,false,1,734,1,0,2,75813,task3,594910,false,false,478,image-keyboard-response,8
true,7,2,1,2,true,d,false,true,0.0-2.0-0.14-0.134-3.134,0,1,0,68,false,stim,false,1,980,1,0,2,75813,task3,597408,false,false,481,image-keyboard-response,9
true,7,0,1,0,true,q,false,true,0.0-2.0-0.15-0.135-3.135,0,1,0,81,false,stim,false,2,429,1,0,0,75813,task3,599353,false,false,484,image-keyboard-response,10
true,7,2,1,2,true,d,false,true,0.0-2.0-0.15-0.136-3.136,0,1,0,68,false,stim,false,1,461,1,0,2,75813,task3,601338,false,false,487,image-keyboard-response,11
true,7,2,1,2,true,d,false,true,0.0-2.0-0.15-0.137-3.137,0,1,0,68,false,stim,false,1,474,1,0,2,75813,task3,603340,false,false,490,image-keyboard-response,12
true,7,2,1,2,true,d,false,true,0.0-2.0-0.15-0.138-3.138,0,1,0,68,false,stim,false,1,857,1,0,2,75813,task3,605725,false,false,493,image-keyboard-response,13
true,7,0,1,0,true,q,false,true,0.0-2.0-0.15-0.139-3.139,0,1,0,81,false,stim,false,2,430,1,0,0,75813,task3,607676,false,false,496,image-keyboard-response,14
true,7,0,1,0,true,q,false,true,0.0-2.0-0.15-0.140-3.140,0,1,0,81,false,stim,false,2,481,1,0,0,75813,task3,609675,false,false,499,image-keyboard-response,15
true,7,2,1,1,false,z,true,false,0.0-2.0-0.15-0.141-3.141,0,1,0,68,false,stim,false,1,419,1,1,1,75813,task3,611610,false,false,502,image-keyboard-response,16
true,7,1,1,1,true,z,false,true,0.0-2.0-0.15-0.142-3.142,0,1,0,90,false,stim,false,1,442,1,1,1,75813,task3,613572,false,false,505,image-keyboard-response,17
true,7,1,1,1,true,z,false,true,0.0-2.0-0.15-0.143-3.143,0,1,0,90,false,stim,false,1,628,1,1,1,75813,task3,615725,false,false,508,image-keyboard-response,18
true,7,0,1,0,true,q,false,true,0.0-2.0-0.16-0.144-3.144,0,1,0,81,false,stim,false,2,431,1,0,0,75813,task3,617674,false,false,511,image-keyboard-response,19
true,7,2,1,2,true,d,false,false,0.0-2.0-0.16-0.145-3.145,0,1,0,68,false,stim,false,1,642,1,1,2,75813,task3,619835,false,true,514,image-keyboard-response,20
true,7,0,1,0,true,q,false,true,0.0-2.0-0.16-0.146-3.146,0,1,0,81,false,stim,false,2,650,1,0,0,75813,task3,622010,false,false,517,image-keyboard-response,21
true,7,0,1,0,true,q,false,true,0.0-2.0-0.16-0.147-3.147,0,1,0,81,false,stim,false,2,533,1,0,0,75813,task3,624053,false,false,520,image-keyboard-response,22
true,7,2,1,2,true,d,false,true,0.0-2.0-0.16-0.148-3.148,0,1,0,68,false,stim,false,1,578,1,1,2,75813,task3,626147,false,false,523,image-keyboard-response,23
true,8,1,1,0,false,q,false,false,0.0-2.0-0.16-0.149-3.149,0,0,1,90,true,stim,true,1,445,1,0,1,75813,task3,628107,false,false,526,image-keyboard-response,1
true,8,2,1,2,true,d,false,true,0.0-2.0-0.16-0.150-3.150,0,0,1,68,false,stim,false,2,815,1,1,2,75813,task3,630441,false,false,529,image-keyboard-response,2
true,8,1,1,0,false,q,false,false,0.0-2.0-0.16-0.151-3.151,0,0,1,90,false,stim,true,1,784,1,0,1,75813,task3,632748,false,false,532,image-keyboard-response,3
true,8,1,1,0,false,q,false,false,0.0-2.0-0.16-0.152-3.152,0,0,1,90,false,stim,true,1,548,1,0,1,75813,task3,634809,false,false,535,image-keyboard-response,4
true,8,0,1,1,false,z,false,false,0.0-2.0-0.17-0.153-3.153,0,0,1,81,false,stim,true,0,437,1,0,0,75813,task3,636768,false,false,538,image-keyboard-response,5
true,8,2,1,0,false,q,true,false,0.0-2.0-0.17-0.154-3.154,0,0,1,68,false,stim,false,1,610,1,0,1,75813,task3,638901,false,false,541,image-keyboard-response,6
true,8,1,1,2,false,d,true,false,0.0-2.0-0.17-0.155-3.155,0,0,1,90,false,stim,false,2,751,1,1,2,75813,task3,641171,false,false,544,image-keyboard-response,7
true,8,0,1,1,false,z,false,false,0.0-2.0-0.17-0.156-3.156,0,0,1,81,false,stim,true,0,435,1,0,0,75813,task3,643119,false,false,547,image-keyboard-response,8
true,8,2,1,0,false,q,true,false,0.0-2.0-0.17-0.157-3.157,0,0,1,68,false,stim,false,1,982,1,0,1,75813,task3,645617,false,false,550,image-keyboard-response,9
true,8,1,1,0,false,q,false,false,0.0-2.0-0.17-0.158-3.158,0,0,1,90,false,stim,true,1,732,1,0,1,75813,task3,647871,false,false,553,image-keyboard-response,10
true,8,0,1,2,false,d,true,true,0.0-2.0-0.17-0.159-3.159,0,0,1,81,false,stim,false,2,1018,1,1,2,75813,task3,650414,false,true,556,image-keyboard-response,11
true,8,1,1,1,true,z,false,true,0.0-2.0-0.17-0.160-3.160,0,0,1,90,false,stim,false,0,691,1,0,0,75813,task3,652624,false,false,559,image-keyboard-response,12
true,8,0,1,2,false,d,true,false,0.0-2.0-0.17-0.161-3.161,0,0,1,81,false,stim,false,2,725,1,1,2,75813,task3,654881,false,false,562,image-keyboard-response,13
true,8,1,1,0,false,q,false,false,0.0-2.0-0.18-0.162-3.162,0,0,1,90,false,stim,true,1,676,1,0,1,75813,task3,657074,false,false,565,image-keyboard-response,14
true,8,1,1,1,true,z,false,true,0.0-2.0-0.18-0.163-3.163,0,0,1,90,false,stim,false,0,1246,1,0,0,75813,task3,659838,false,false,568,image-keyboard-response,15
true,8,1,1,1,true,z,false,true,0.0-2.0-0.18-0.164-3.164,0,0,1,90,false,stim,false,0,461,1,0,0,75813,task3,661828,false,false,571,image-keyboard-response,16
true,8,1,1,1,true,z,false,true,0.0-2.0-0.18-0.165-3.165,0,0,1,90,false,stim,false,0,395,1,0,0,75813,task3,663740,false,false,574,image-keyboard-response,17
true,8,2,1,0,false,q,true,false,0.0-2.0-0.18-0.166-3.166,0,0,1,68,false,stim,false,1,1670,1,0,1,75813,task3,666939,false,false,577,image-keyboard-response,18
true,8,1,1,0,false,q,false,false,0.0-2.0-0.18-0.167-3.167,0,0,1,90,false,stim,true,1,572,1,0,1,75813,task3,669034,false,false,580,image-keyboard-response,19
true,8,0,1,2,false,d,true,false,0.0-2.0-0.18-0.168-3.168,0,0,1,81,false,stim,false,2,1321,1,1,2,75813,task3,671872,false,false,583,image-keyboard-response,20
true,8,1,1,2,false,d,true,false,0.0-2.0-0.18-0.169-3.169,0,0,1,90,false,stim,false,2,862,1,1,2,75813,task3,674256,false,false,586,image-keyboard-response,21
true,8,2,1,2,true,d,false,true,0.0-2.0-0.18-0.170-3.170,0,0,1,68,false,stim,false,2,451,1,1,2,75813,task3,676215,false,false,589,image-keyboard-response,22
true,8,1,1,1,true,z,false,true,0.0-2.0-0.19-0.171-3.171,0,0,1,90,false,stim,false,0,998,1,0,0,75813,task3,678733,false,false,592,image-keyboard-response,23
true,8,2,1,2,true,d,false,true,0.0-2.0-0.19-0.172-3.172,0,0,1,68,false,stim,false,2,838,1,1,2,75813,task3,681092,false,false,595,image-keyboard-response,24
true,8,2,1,1,false,z,true,false,0.0-2.0-0.19-0.173-3.173,0,0,1,68,false,stim,false,0,1291,1,0,0,75813,task3,683903,false,false,598,image-keyboard-response,25
true,8,1,1,0,false,q,false,false,0.0-2.0-0.19-0.174-3.174,0,0,1,90,false,stim,true,1,1080,1,0,1,75813,task3,686518,false,false,601,image-keyboard-response,26
true,8,0,1,2,false,d,true,false,0.0-2.0-0.19-0.175-3.175,0,0,1,81,false,stim,false,2,1763,1,1,2,75813,task3,689802,false,false,604,image-keyboard-response,27
true,8,1,1,0,false,q,false,false,0.0-2.0-0.19-0.176-3.176,0,0,1,90,false,stim,true,1,476,1,0,1,75813,task3,691800,false,false,607,image-keyboard-response,28
true,9,2,1,2,true,d,false,false,0.0-2.0-0.19-0.177-3.177,0,0,1,68,true,stim,false,2,558,1,1,2,75813,task3,693872,false,true,610,image-keyboard-response,1
true,9,0,1,1,false,z,false,false,0.0-2.0-0.19-0.178-3.178,0,0,1,81,false,stim,true,0,905,1,0,1,75813,task3,696290,false,false,613,image-keyboard-response,2
true,9,1,1,2,false,d,false,true,0.0-2.0-0.19-0.179-3.179,0,0,1,90,false,stim,true,1,622,1,0,0,75813,task3,698425,false,true,616,image-keyboard-response,3
true,9,2,1,1,false,z,true,false,0.0-2.0-0.20-0.180-3.180,0,0,1,68,false,stim,false,0,749,1,0,1,75813,task3,700692,false,false,619,image-keyboard-response,4
true,9,1,1,2,false,d,false,true,0.0-2.0-0.20-0.181-3.181,0,0,1,90,false,stim,true,1,405,1,0,0,75813,task3,702619,false,true,622,image-keyboard-response,5
true,9,0,1,1,false,z,false,false,0.0-2.0-0.20-0.182-3.182,0,0,1,81,false,stim,true,0,1252,1,0,1,75813,task3,705389,false,false,625,image-keyboard-response,6
true,9,1,1,2,false,d,true,true,0.0-2.0-0.20-0.183-3.183,0,0,1,90,false,stim,false,2,808,1,1,2,75813,task3,707708,false,true,628,image-keyboard-response,7
true,9,1,1,2,false,d,true,false,0.0-2.0-0.20-0.184-3.184,0,0,1,90,false,stim,false,2,393,1,1,2,75813,task3,709623,false,false,631,image-keyboard-response,8
true,9,1,1,1,true,z,false,true,0.0-2.0-0.20-0.185-3.185,0,0,1,90,false,stim,false,0,1166,1,0,1,75813,task3,712317,false,false,634,image-keyboard-response,9
true,9,1,1,2,false,d,false,false,0.0-2.0-0.20-0.186-3.186,0,0,1,90,false,stim,true,1,447,1,0,0,75813,task3,714288,false,false,637,image-keyboard-response,10
true,9,1,1,2,false,d,false,false,0.0-2.0-0.20-0.187-3.187,0,0,1,90,false,stim,true,1,476,1,0,0,75813,task3,716285,false,false,640,image-keyboard-response,11
true,9,1,1,2,false,d,true,false,0.0-2.0-0.20-0.188-3.188,0,0,1,90,false,stim,false,2,434,1,1,2,75813,task3,718233,false,false,643,image-keyboard-response,12
true,9,0,1,2,false,d,true,false,0.0-2.0-0.21-0.189-3.189,0,0,1,81,false,stim,false,1,544,1,0,0,75813,task3,720297,false,false,646,image-keyboard-response,13
true,9,2,1,2,true,d,false,true,0.0-2.0-0.21-0.190-3.190,0,0,1,68,false,stim,false,1,710,1,0,0,75813,task3,722519,false,false,649,image-keyboard-response,14
true,9,2,1,1,false,z,true,false,0.0-2.0-0.21-0.191-3.191,0,0,1,68,false,stim,false,0,1514,1,0,1,75813,task3,725548,false,false,652,image-keyboard-response,15
true,9,1,1,1,true,z,false,true,0.0-2.0-0.21-0.192-3.192,0,0,1,90,false,stim,false,0,694,1,0,1,75813,task3,727774,false,false,655,image-keyboard-response,16
true,9,0,1,2,false,d,true,true,0.0-2.0-0.21-0.193-3.193,0,0,1,81,false,stim,false,2,738,1,1,2,75813,task3,730033,false,true,658,image-keyboard-response,17
true,9,2,1,2,true,d,false,true,0.0-2.0-0.21-0.194-3.194,0,0,1,68,false,stim,false,1,562,1,0,0,75813,task3,732103,false,false,661,image-keyboard-response,18
true,9,0,1,2,false,d,true,true,0.0-2.0-0.21-0.195-3.195,0,0,1,81,false,stim,false,2,462,1,1,2,75813,task3,734078,false,true,664,image-keyboard-response,19
true,9,1,1,1,true,z,false,true,0.0-2.0-0.21-0.196-3.196,0,0,1,90,false,stim,false,0,425,1,0,1,75813,task3,736015,false,false,667,image-keyboard-response,20
true,9,0,1,2,false,d,true,true,0.0-2.0-0.21-0.197-3.197,0,0,1,81,false,stim,false,2,515,1,1,2,75813,task3,738041,false,true,670,image-keyboard-response,21
true,9,2,1,2,true,d,false,true,0.0-2.0-0.22-0.198-3.198,0,0,1,68,false,stim,false,1,574,1,0,0,75813,task3,740129,false,false,673,image-keyboard-response,22
true,9,0,1,2,false,d,true,true,0.0-2.0-0.22-0.199-3.199,0,0,1,81,false,stim,false,2,630,1,1,2,75813,task3,742278,false,true,676,image-keyboard-response,23
true,9,1,1,1,true,z,false,true,0.0-2.0-0.22-0.200-3.200,0,0,1,90,false,stim,false,0,375,1,0,1,75813,task3,744170,false,false,679,image-keyboard-response,24
true,9,0,1,2,false,d,true,true,0.0-2.0-0.22-0.201-3.201,0,0,1,81,false,stim,false,2,706,1,1,2,75813,task3,746389,false,true,682,image-keyboard-response,25
true,9,0,1,2,false,d,true,false,0.0-2.0-0.22-0.202-3.202,0,0,1,81,false,stim,false,2,416,1,1,2,75813,task3,748321,false,false,685,image-keyboard-response,26
true,9,1,1,1,true,z,false,true,0.0-2.0-0.22-0.203-3.203,0,0,1,90,false,stim,false,0,575,1,0,1,75813,task3,750422,false,false,688,image-keyboard-response,27
true,10,2,1,0,false,q,false,false,0.0-2.0-0.22-0.204-3.204,0,0,1,68,true,stim,true,2,389,1,0,0,75813,task3,752332,false,false,691,image-keyboard-response,1
true,10,2,1,0,false,q,false,false,0.0-2.0-0.22-0.205-3.205,0,0,1,68,false,stim,true,2,639,1,0,0,75813,task3,754500,false,false,694,image-keyboard-response,2
true,10,1,1,0,false,q,false,false,0.0-2.0-0.22-0.206-3.206,0,0,1,90,false,stim,true,1,688,1,0,1,75813,task3,756708,false,false,697,image-keyboard-response,3
true,10,0,1,0,true,q,false,true,0.0-2.0-0.23-0.207-3.207,0,0,1,81,false,stim,false,1,590,1,0,1,75813,task3,758821,false,false,700,image-keyboard-response,4
true,10,1,1,2,false,d,true,false,0.0-2.0-0.23-0.208-3.208,0,0,1,90,false,stim,false,2,760,1,1,2,75813,task3,761113,false,false,703,image-keyboard-response,5
true,10,2,1,2,true,d,false,true,0.0-2.0-0.23-0.209-3.209,0,0,1,68,false,stim,false,2,546,1,1,2,75813,task3,763184,false,false,706,image-keyboard-response,6
true,10,2,1,2,true,d,false,true,0.0-2.0-0.23-0.210-3.210,0,0,1,68,false,stim,false,2,556,1,1,2,75813,task3,765260,false,false,709,image-keyboard-response,7
true,10,0,1,0,true,q,false,true,0.0-2.0-0.23-0.211-3.211,0,0,1,81,false,stim,false,2,420,1,0,0,75813,task3,767198,false,false,712,image-keyboard-response,8
true,10,0,1,0,true,q,false,true,0.0-2.0-0.23-0.212-3.212,0,0,1,81,false,stim,false,2,562,1,0,0,75813,task3,769278,false,false,715,image-keyboard-response,9
true,10,1,1,0,false,q,false,false,0.0-2.0-0.23-0.213-3.213,0,0,1,90,false,stim,true,1,705,1,0,1,75813,task3,771511,false,false,718,image-keyboard-response,10
true,10,0,1,0,true,q,false,true,0.0-2.0-0.23-0.214-3.214,0,0,1,81,false,stim,false,2,463,1,0,0,75813,task3,773502,false,false,721,image-keyboard-response,11
true,10,2,1,0,false,q,true,false,0.0-2.0-0.23-0.215-3.215,0,0,1,68,false,stim,false,1,1006,1,0,1,75813,task3,776028,false,false,724,image-keyboard-response,12
true,10,0,1,0,true,q,false,true,0.0-2.0-0.24-0.216-3.216,0,0,1,81,false,stim,false,2,543,1,0,0,75813,task3,778089,false,false,727,image-keyboard-response,13
true,10,0,1,0,true,q,false,true,0.0-2.0-0.24-0.217-3.217,0,0,1,81,false,stim,false,1,677,1,0,1,75813,task3,780291,false,false,730,image-keyboard-response,14
true,10,0,1,0,true,q,false,true,0.0-2.0-0.24-0.218-3.218,0,0,1,81,false,stim,false,2,500,1,0,0,75813,task3,782319,false,false,733,image-keyboard-response,15
true,10,2,1,2,true,d,false,false,0.0-2.0-0.24-0.219-3.219,0,0,1,68,false,stim,false,2,439,1,1,2,75813,task3,784282,false,true,736,image-keyboard-response,16
true,10,0,1,0,true,q,false,true,0.0-2.0-0.24-0.220-3.220,0,0,1,81,false,stim,false,1,466,1,0,1,75813,task3,786278,false,false,739,image-keyboard-response,17
true,10,0,1,0,true,q,false,true,0.0-2.0-0.24-0.221-3.221,0,0,1,81,false,stim,false,2,323,1,0,0,75813,task3,788128,false,false,742,image-keyboard-response,18
true,10,1,1,2,false,d,true,false,0.0-2.0-0.24-0.222-3.222,0,0,1,90,false,stim,false,2,732,1,1,2,75813,task3,790378,false,false,745,image-keyboard-response,19
true,10,0,1,2,false,d,true,false,0.0-2.0-0.24-0.223-3.223,0,0,1,81,false,stim,false,2,692,1,1,2,75813,task3,792583,false,false,748,image-keyboard-response,20
true,10,0,1,0,true,q,false,true,0.0-2.0-0.24-0.224-3.224,0,0,1,81,false,stim,false,1,588,1,0,1,75813,task3,794693,false,false,751,image-keyboard-response,21
true,10,0,1,0,true,q,false,true,0.0-2.0-0.25-0.225-3.225,0,0,1,81,false,stim,false,1,446,1,1,1,75813,task3,796659,false,false,754,image-keyboard-response,22
true,10,0,1,0,true,q,false,true,0.0-2.0-0.25-0.226-3.226,0,0,1,81,false,stim,false,1,404,1,1,1,75813,task3,798578,false,false,757,image-keyboard-response,23
true,10,2,1,2,true,d,false,true,0.0-2.0-0.25-0.227-3.227,0,0,1,68,false,stim,false,2,458,1,1,2,75813,task3,800554,false,false,760,image-keyboard-response,24
true,10,0,1,0,true,q,false,true,0.0-2.0-0.25-0.228-3.228,0,0,1,81,false,stim,false,2,350,1,0,0,75813,task3,802411,false,false,763,image-keyboard-response,25
true,10,0,1,2,false,d,true,false,0.0-2.0-0.25-0.229-3.229,0,0,1,81,false,stim,false,2,256,1,1,2,75813,task3,804171,false,false,766,image-keyboard-response,26
true,11,0,2,0,true,q,false,false,0.0-2.0-0.25-0.230-3.230,0,1,1,81,true,stim,false,0,508,1,1,1,75813,task3,806199,false,true,769,image-keyboard-response,1
true,11,2,2,2,true,d,false,true,0.0-2.0-0.25-0.231-3.231,0,1,1,68,false,stim,false,2,718,1,1,2,75813,task3,808437,false,false,772,image-keyboard-response,2
true,11,0,2,2,false,d,false,false,0.0-2.0-0.25-0.232-3.232,0,1,1,81,false,stim,true,0,622,1,0,0,75813,task3,810579,false,false,775,image-keyboard-response,3
true,11,0,2,2,false,d,false,false,0.0-2.0-0.25-0.233-3.233,0,1,1,81,false,stim,true,0,483,1,0,0,75813,task3,812581,false,false,778,image-keyboard-response,4
true,11,2,2,2,true,d,false,true,0.0-2.0-0.26-0.234-3.234,0,1,1,68,false,stim,false,0,607,1,0,0,75813,task3,814700,false,false,781,image-keyboard-response,5
true,11,1,2,0,false,q,true,false,0.0-2.0-0.26-0.235-3.235,0,1,1,90,false,stim,false,0,1452,1,1,1,75813,task3,817671,false,false,784,image-keyboard-response,6
true,11,2,2,2,true,d,false,true,0.0-2.0-0.26-0.236-3.236,0,1,1,68,false,stim,false,2,570,1,1,2,75813,task3,819761,false,false,787,image-keyboard-response,7
true,11,2,2,0,false,q,true,true,0.0-2.0-0.26-0.237-3.237,0,1,1,68,false,stim,false,0,686,1,1,1,75813,task3,821957,false,true,790,image-keyboard-response,8
true,11,2,2,2,true,d,false,true,0.0-2.0-0.26-0.238-3.238,0,1,1,68,false,stim,false,0,359,1,0,0,75813,task3,823843,false,false,793,image-keyboard-response,9
true,11,2,2,2,true,d,false,true,0.0-2.0-0.26-0.239-3.239,0,1,1,68,false,stim,false,2,453,1,1,2,75813,task3,825805,false,false,796,image-keyboard-response,10
true,11,2,2,2,true,d,false,true,0.0-2.0-0.26-0.240-3.240,0,1,1,68,false,stim,false,0,386,1,0,0,75813,task3,827708,false,false,799,image-keyboard-response,11
true,11,2,2,0,false,q,true,false,0.0-2.0-0.26-0.241-3.241,0,1,1,68,false,stim,false,0,412,1,1,1,75813,task3,829653,false,false,802,image-keyboard-response,12
true,11,2,2,2,true,d,false,false,0.0-2.0-0.26-0.242-3.242,0,1,1,68,false,stim,false,2,419,1,1,2,75813,task3,831585,false,true,805,image-keyboard-response,13
true,11,1,2,2,false,d,true,true,0.0-2.0-0.27-0.243-3.243,0,1,1,90,false,stim,false,2,691,1,1,2,75813,task3,833786,false,true,808,image-keyboard-response,14
true,11,0,2,0,true,q,false,true,0.0-2.0-0.27-0.244-3.244,0,1,1,81,false,stim,false,0,789,1,1,1,75813,task3,836099,false,false,811,image-keyboard-response,15
true,11,1,2,2,false,d,true,false,0.0-2.0-0.27-0.245-3.245,0,1,1,90,false,stim,false,2,690,1,1,2,75813,task3,838309,false,false,814,image-keyboard-response,16
true,11,1,2,2,false,d,true,false,0.0-2.0-0.27-0.246-3.246,0,1,1,90,false,stim,false,2,1084,1,1,2,75813,task3,840908,false,false,817,image-keyboard-response,17
true,11,0,2,0,true,q,false,true,0.0-2.0-0.27-0.247-3.247,0,1,1,81,false,stim,false,0,484,1,1,1,75813,task3,842918,false,false,820,image-keyboard-response,18
true,11,2,2,2,true,d,false,false,0.0-2.0-0.27-0.248-3.248,0,1,1,68,false,stim,false,0,1200,1,0,0,75813,task3,845641,false,true,823,image-keyboard-response,19
true,11,1,2,2,false,d,true,false,0.0-2.0-0.27-0.249-3.249,0,1,1,90,false,stim,false,0,704,1,0,0,75813,task3,847863,false,false,826,image-keyboard-response,20
true,11,0,2,2,false,d,false,false,0.0-2.0-0.27-0.250-3.250,0,1,1,81,false,stim,true,0,1046,1,0,0,75813,task3,850432,false,false,829,image-keyboard-response,21
true,11,0,2,0,true,q,false,true,0.0-2.0-0.27-0.251-3.251,0,1,1,81,false,stim,false,0,537,1,0,1,75813,task3,852493,false,false,832,image-keyboard-response,22
true,11,0,2,0,true,q,false,true,0.0-2.0-0.28-0.252-3.252,0,1,1,81,false,stim,false,0,325,1,0,1,75813,task3,854332,false,false,835,image-keyboard-response,23
true,12,0,1,2,false,d,true,false,0.0-2.0-0.28-0.253-3.253,0,0,1,81,true,stim,false,2,864,1,1,2,75813,task3,856718,false,false,838,image-keyboard-response,1
true,12,0,1,2,false,d,false,false,0.0-2.0-0.28-0.254-3.254,0,0,1,81,false,stim,true,0,617,1,0,1,75813,task3,858850,false,false,841,image-keyboard-response,2
true,12,1,1,0,false,q,true,true,0.0-2.0-0.28-0.255-3.255,0,0,1,90,false,stim,false,2,384,1,0,0,75813,task3,860744,false,true,844,image-keyboard-response,3
true,12,1,1,2,false,d,true,false,0.0-2.0-0.28-0.256-3.256,0,0,1,90,false,stim,false,2,1035,1,1,2,75813,task3,863313,false,false,847,image-keyboard-response,4
true,12,0,1,0,true,q,false,true,0.0-2.0-0.28-0.257-3.257,0,0,1,81,false,stim,false,2,596,1,0,0,75813,task3,865427,false,false,850,image-keyboard-response,5
true,12,2,1,2,true,d,false,true,0.0-2.0-0.28-0.258-3.258,0,0,1,68,false,stim,false,2,946,1,1,2,75813,task3,867891,false,false,853,image-keyboard-response,6
true,12,0,1,0,true,q,false,true,0.0-2.0-0.28-0.259-3.259,0,0,1,81,false,stim,false,2,414,1,0,0,75813,task3,869820,false,false,856,image-keyboard-response,7
true,12,1,1,2,false,d,true,false,0.0-2.0-0.28-0.260-3.260,0,0,1,90,false,stim,false,0,750,1,0,1,75813,task3,872086,false,false,859,image-keyboard-response,8
true,12,2,1,2,true,d,false,true,0.0-2.0-0.29-0.261-3.261,0,0,1,68,false,stim,false,0,649,1,0,1,75813,task3,874255,false,false,862,image-keyboard-response,9
true,12,0,1,0,true,q,false,true,0.0-2.0-0.29-0.262-3.262,0,0,1,81,false,stim,false,2,416,1,0,0,75813,task3,876200,false,false,865,image-keyboard-response,10
true,12,0,1,0,true,q,false,true,0.0-2.0-0.29-0.263-3.263,0,0,1,81,false,stim,false,2,393,1,0,0,75813,task3,878113,false,false,868,image-keyboard-response,11
true,12,2,1,2,true,d,false,true,0.0-2.0-0.29-0.264-3.264,0,0,1,68,false,stim,false,2,637,1,1,2,75813,task3,880264,false,false,871,image-keyboard-response,12
true,12,0,1,2,false,d,false,false,0.0-2.0-0.29-0.265-3.265,0,0,1,81,false,stim,true,0,1048,1,0,1,75813,task3,882829,false,false,874,image-keyboard-response,13
true,12,0,1,0,true,q,false,true,0.0-2.0-0.29-0.266-3.266,0,0,1,81,false,stim,false,2,451,1,0,0,75813,task3,884801,false,false,877,image-keyboard-response,14
true,12,2,1,2,true,d,false,true,0.0-2.0-0.29-0.267-3.267,0,0,1,68,false,stim,false,0,566,1,0,1,75813,task3,886888,false,false,880,image-keyboard-response,15
true,12,2,1,2,true,d,false,true,0.0-2.0-0.29-0.268-3.268,0,0,1,68,false,stim,false,2,721,1,1,2,75813,task3,889121,false,false,883,image-keyboard-response,16
true,12,2,1,2,true,d,false,true,0.0-2.0-0.29-0.269-3.269,0,0,1,68,false,stim,false,2,487,1,1,2,75813,task3,891121,false,false,886,image-keyboard-response,17
true,12,0,1,2,false,d,false,false,0.0-2.0-0.30-0.270-3.270,0,0,1,81,false,stim,true,0,666,1,0,1,75813,task3,893312,false,false,889,image-keyboard-response,18
true,12,2,1,0,false,q,false,true,0.0-2.0-0.30-0.271-3.271,0,0,1,68,false,stim,true,2,317,1,0,0,75813,task3,895148,false,true,892,image-keyboard-response,19
true,12,2,1,2,true,d,false,true,0.0-2.0-0.30-0.272-3.272,0,0,1,68,false,stim,false,2,677,1,1,2,75813,task3,897343,false,false,895,image-keyboard-response,20
true,12,2,1,2,true,d,false,false,0.0-2.0-0.30-0.273-3.273,0,0,1,68,false,stim,false,2,585,1,1,2,75813,task3,899449,false,true,898,image-keyboard-response,21
true,12,0,1,2,false,d,false,false,0.0-2.0-0.30-0.274-3.274,0,0,1,81,false,stim,true,0,537,1,1,1,75813,task3,901508,false,false,901,image-keyboard-response,22
true,12,2,1,2,true,d,false,true,0.0-2.0-0.30-0.275-3.275,0,0,1,68,false,stim,false,2,737,1,0,2,75813,task3,903760,false,false,904,image-keyboard-response,23
true,12,0,1,0,true,q,false,true,0.0-2.0-0.30-0.276-3.276,0,0,1,81,false,stim,false,2,822,1,0,0,75813,task3,906104,false,false,907,image-keyboard-response,24
true,12,2,1,2,true,d,false,true,0.0-2.0-0.30-0.277-3.277,0,0,1,68,false,stim,false,0,916,1,1,1,75813,task3,908549,false,false,910,image-keyboard-response,25
true,12,0,1,0,true,q,false,true,0.0-2.0-0.30-0.278-3.278,0,0,1,81,false,stim,false,2,497,1,0,0,75813,task3,910570,false,false,913,image-keyboard-response,26
true,13,2,1,1,false,z,false,false,0.0-2.0-0.31-0.279-3.279,0,1,0,68,true,stim,true,2,751,1,0,2,75813,task3,912841,false,false,916,image-keyboard-response,1
true,13,2,1,1,false,z,false,false,0.0-2.0-0.31-0.280-3.280,0,1,0,68,false,stim,true,2,534,1,0,2,75813,task3,914888,false,false,919,image-keyboard-response,2
true,13,0,1,2,false,d,false,false,0.0-2.0-0.31-0.281-3.281,0,1,0,81,false,stim,true,0,500,1,0,0,75813,task3,916910,false,false,922,image-keyboard-response,3
true,13,2,1,2,true,d,false,true,0.0-2.0-0.31-0.282-3.282,0,1,0,68,false,stim,false,2,889,1,1,1,75813,task3,919325,false,false,925,image-keyboard-response,4
true,13,0,1,2,false,d,false,false,0.0-2.0-0.31-0.283-3.283,0,1,0,81,false,stim,true,0,802,1,0,0,75813,task3,921655,false,false,928,image-keyboard-response,5
true,13,2,1,2,true,d,false,true,0.0-2.0-0.31-0.284-3.284,0,1,0,68,false,stim,false,2,703,1,1,1,75813,task3,923887,false,false,931,image-keyboard-response,6
true,13,1,1,1,true,z,false,true,0.0-2.0-0.31-0.285-3.285,0,1,0,90,false,stim,false,2,847,1,0,2,75813,task3,926259,false,false,934,image-keyboard-response,7
true,13,2,1,2,true,d,false,true,0.0-2.0-0.31-0.286-3.286,0,1,0,68,false,stim,false,2,530,1,1,1,75813,task3,928314,false,false,937,image-keyboard-response,8
true,13,0,1,2,false,d,false,false,0.0-2.0-0.31-0.287-3.287,0,1,0,81,false,stim,true,0,463,1,0,0,75813,task3,930298,false,false,940,image-keyboard-response,9
true,13,1,1,2,false,d,true,false,0.0-2.0-0.32-0.288-3.288,0,1,0,90,false,stim,false,0,614,1,0,0,75813,task3,932438,false,false,943,image-keyboard-response,10
true,13,2,1,2,true,d,false,true,0.0-2.0-0.32-0.289-3.289,0,1,0,68,false,stim,false,0,467,1,0,0,75813,task3,934418,false,false,946,image-keyboard-response,11
true,13,1,1,1,true,z,false,true,0.0-2.0-0.32-0.290-3.290,0,1,0,90,false,stim,false,2,474,1,0,2,75813,task3,936418,false,false,949,image-keyboard-response,12
true,13,1,1,1,true,z,false,true,0.0-2.0-0.32-0.291-3.291,0,1,0,90,false,stim,false,2,696,1,0,2,75813,task3,938630,false,false,952,image-keyboard-response,13
true,13,2,1,2,true,d,false,true,0.0-2.0-0.32-0.292-3.292,0,1,0,68,false,stim,false,2,488,1,1,1,75813,task3,940648,false,false,955,image-keyboard-response,14
true,13,1,1,1,true,z,false,true,0.0-2.0-0.32-0.293-3.293,0,1,0,90,false,stim,false,2,979,1,0,2,75813,task3,943159,false,false,958,image-keyboard-response,15
true,13,2,1,2,true,d,false,true,0.0-2.0-0.32-0.294-3.294,0,1,0,68,false,stim,false,2,763,1,1,1,75813,task3,945432,false,false,961,image-keyboard-response,16
true,13,1,1,2,false,d,true,false,0.0-2.0-0.32-0.295-3.295,0,1,0,90,false,stim,false,0,549,1,0,0,75813,task3,947498,false,false,964,image-keyboard-response,17
true,13,2,1,2,true,d,false,true,0.0-2.0-0.32-0.296-3.296,0,1,0,68,false,stim,false,2,600,1,1,1,75813,task3,949628,false,false,967,image-keyboard-response,18
true,13,1,1,2,false,d,true,false,0.0-2.0-0.33-0.297-3.297,0,1,0,90,false,stim,false,0,460,1,0,0,75813,task3,951630,false,false,970,image-keyboard-response,19
true,13,2,1,1,false,z,false,false,0.0-2.0-0.33-0.298-3.298,0,1,0,68,false,stim,true,2,473,1,0,2,75813,task3,953619,false,false,973,image-keyboard-response,20
true,13,0,1,1,false,z,true,false,0.0-2.0-0.33-0.299-3.299,0,1,0,81,false,stim,false,2,306,1,0,2,75813,task3,955451,false,false,976,image-keyboard-response,21
true,13,1,1,2,false,d,true,false,0.0-2.0-0.33-0.300-3.300,0,1,0,90,false,stim,false,0,428,1,0,0,75813,task3,957393,false,false,979,image-keyboard-response,22
true,13,2,1,2,true,d,false,true,0.0-2.0-0.33-0.301-3.301,0,1,0,68,false,stim,false,0,588,1,0,0,75813,task3,959495,false,false,982,image-keyboard-response,23
true,13,1,1,2,false,d,true,false,0.0-2.0-0.33-0.302-3.302,0,1,0,90,false,stim,false,2,912,1,1,1,75813,task3,961928,false,false,985,image-keyboard-response,24
true,14,2,1,2,true,d,false,true,0.0-2.0-0.33-0.303-3.303,0,1,0,68,true,stim,false,2,383,1,1,1,75813,task3,963825,false,false,988,image-keyboard-response,1
true,14,2,1,2,true,d,false,true,0.0-2.0-0.33-0.304-3.304,0,1,0,68,false,stim,false,1,518,1,0,2,75813,task3,965864,false,false,991,image-keyboard-response,2
true,14,1,1,2,false,d,true,false,0.0-2.0-0.33-0.305-3.305,0,1,0,90,false,stim,false,2,740,1,1,1,75813,task3,968132,false,false,994,image-keyboard-response,3
true,14,2,1,2,true,d,false,true,0.0-2.0-0.34-0.306-3.306,0,1,0,68,false,stim,false,1,467,1,0,2,75813,task3,970117,false,false,997,image-keyboard-response,4
true,14,0,1,2,false,d,true,false,0.0-2.0-0.34-0.307-3.307,0,1,0,81,false,stim,false,2,506,1,1,1,75813,task3,972140,false,false,1000,image-keyboard-response,5
true,14,2,1,2,true,d,false,true,0.0-2.0-0.34-0.308-3.308,0,1,0,68,false,stim,false,1,397,1,0,2,75813,task3,974071,false,false,1003,image-keyboard-response,6
true,14,1,1,1,true,z,false,true,0.0-2.0-0.34-0.309-3.309,0,1,0,90,false,stim,false,2,468,1,0,0,75813,task3,976059,false,false,1006,image-keyboard-response,7
true,14,1,1,1,true,z,false,true,0.0-2.0-0.34-0.310-3.310,0,1,0,90,false,stim,false,2,494,1,1,0,75813,task3,978070,false,false,1009,image-keyboard-response,8
true,14,1,1,1,true,z,false,true,0.0-2.0-0.34-0.311-3.311,0,1,0,90,false,stim,false,2,378,1,1,0,75813,task3,979975,false,false,1012,image-keyboard-response,9
true,14,2,1,2,true,d,false,true,0.0-2.0-0.34-0.312-3.312,0,1,0,68,false,stim,false,2,465,1,0,1,75813,task3,981960,false,false,1015,image-keyboard-response,10
true,14,2,1,2,true,d,false,false,0.0-2.0-0.34-0.313-3.313,0,1,0,68,false,stim,false,2,537,1,0,1,75813,task3,984021,false,true,1018,image-keyboard-response,11
true,14,1,1,2,false,d,false,false,0.0-2.0-0.34-0.314-3.314,0,1,0,90,false,stim,true,1,558,1,1,2,75813,task3,986103,false,false,1021,image-keyboard-response,12
true,15,0,2,1,false,z,true,true,0.0-2.0-0.35-0.315-3.315,1,0,1,81,true,stim,false,1,350,1,1,0,75813,task3,987977,false,true,1024,image-keyboard-response,1
true,15,0,2,1,false,z,true,false,0.0-2.0-0.35-0.316-3.316,1,0,1,81,false,stim,false,1,330,1,1,0,75813,task3,989830,false,false,1027,image-keyboard-response,2
true,15,1,2,2,false,d,true,false,0.0-2.0-0.35-0.317-3.317,1,0,1,90,false,stim,false,2,334,1,1,2,75813,task3,991688,false,false,1030,image-keyboard-response,3
true,15,2,2,2,true,d,false,true,0.0-2.0-0.35-0.318-3.318,1,0,1,68,false,stim,false,2,385,1,1,2,75813,task3,993590,false,false,1033,image-keyboard-response,4
true,15,2,2,1,false,z,true,false,0.0-2.0-0.35-0.319-3.319,1,0,1,68,false,stim,false,1,399,1,1,0,75813,task3,995514,false,false,1036,image-keyboard-response,5
true,15,1,2,1,true,z,false,false,0.0-2.0-0.35-0.320-3.320,1,0,1,90,false,stim,false,2,407,1,0,1,75813,task3,997447,false,true,1039,image-keyboard-response,6
true,15,0,2,1,false,z,true,true,0.0-2.0-0.35-0.321-3.321,1,0,1,81,false,stim,false,2,198,1,0,1,75813,task3,999160,false,true,1042,image-keyboard-response,7
true,15,0,2,1,false,z,true,false,0.0-2.0-0.35-0.322-3.322,1,0,1,81,false,stim,false,2,483,1,1,1,75813,task3,1001162,false,false,1045,image-keyboard-response,8
true,15,2,2,2,true,d,false,true,0.0-2.0-0.35-0.323-3.323,1,0,1,68,false,stim,false,2,436,1,0,2,75813,task3,1003131,false,false,1048,image-keyboard-response,9
true,15,1,2,1,true,z,false,true,0.0-2.0-0.36-0.324-3.324,1,0,1,90,false,stim,false,1,486,1,1,0,75813,task3,1005142,false,false,1051,image-keyboard-response,10
true,15,2,2,2,true,d,false,true,0.0-2.0-0.36-0.325-3.325,1,0,1,68,false,stim,false,2,494,1,0,2,75813,task3,1007169,false,false,1054,image-keyboard-response,11
true,15,2,2,2,true,d,false,true,0.0-2.0-0.36-0.326-3.326,1,0,1,68,false,stim,false,2,528,1,0,2,75813,task3,1009221,false,false,1057,image-keyboard-response,12
true,16,0,2,1,false,z,true,true,0.0-2.0-0.36-0.327-3.327,1,1,0,81,true,stim,false,1,433,1,1,1,75813,task3,1011164,false,true,1060,image-keyboard-response,1
true,16,1,2,1,true,z,false,true,0.0-2.0-0.36-0.328-3.328,1,1,0,90,false,stim,false,1,557,1,1,0,75813,task3,1013244,false,false,1063,image-keyboard-response,2
true,16,2,2,0,false,q,false,false,0.0-2.0-0.36-0.329-3.329,1,1,0,68,false,stim,true,2,446,1,0,2,75813,task3,1015211,false,false,1066,image-keyboard-response,3
true,16,0,2,1,false,z,true,false,0.0-2.0-0.36-0.330-3.330,1,1,0,81,false,stim,false,1,412,1,1,0,75813,task3,1017148,false,false,1069,image-keyboard-response,4
true,16,1,2,1,true,z,false,true,0.0-2.0-0.36-0.331-3.331,1,1,0,90,false,stim,false,1,643,1,1,1,75813,task3,1019310,false,false,1072,image-keyboard-response,5
true,16,1,2,1,true,z,false,true,0.0-2.0-0.36-0.332-3.332,1,1,0,90,false,stim,false,1,495,1,1,1,75813,task3,1021318,false,false,1075,image-keyboard-response,6
true,16,2,2,1,false,z,true,false,0.0-2.0-0.37-0.333-3.333,1,1,0,68,false,stim,false,1,478,1,1,0,75813,task3,1023323,false,false,1078,image-keyboard-response,7
true,16,2,2,0,false,q,false,false,0.0-2.0-0.37-0.334-3.334,1,1,0,68,false,stim,true,2,600,1,0,2,75813,task3,1025441,false,false,1081,image-keyboard-response,8
true,16,0,2,1,false,z,true,false,0.0-2.0-0.37-0.335-3.335,1,1,0,81,false,stim,false,1,615,1,1,0,75813,task3,1027572,false,false,1084,image-keyboard-response,9
true,16,1,2,0,false,q,true,false,0.0-2.0-0.37-0.336-3.336,1,1,0,90,false,stim,false,2,377,1,0,2,75813,task3,1029476,false,false,1087,image-keyboard-response,10
true,16,0,2,1,false,z,true,true,0.0-2.0-0.37-0.337-3.337,1,1,0,81,false,stim,false,1,525,1,1,1,75813,task3,1031523,false,true,1090,image-keyboard-response,11
true,16,0,2,1,false,z,true,false,0.0-2.0-0.37-0.338-3.338,1,1,0,81,false,stim,false,1,477,1,1,1,75813,task3,1033524,false,false,1093,image-keyboard-response,12
true,16,0,2,1,false,z,true,false,0.0-2.0-0.37-0.339-3.339,1,1,0,81,false,stim,false,1,793,1,1,1,75813,task3,1035842,false,false,1096,image-keyboard-response,13
true,16,2,2,0,false,q,false,true,0.0-2.0-0.37-0.340-3.340,1,1,0,68,false,stim,true,2,763,1,0,2,75813,task3,1038120,false,true,1099,image-keyboard-response,14
true,16,1,2,1,true,z,false,true,0.0-2.0-0.37-0.341-3.341,1,1,0,90,false,stim,false,1,546,1,1,0,75813,task3,1040200,false,false,1102,image-keyboard-response,15
true,16,1,2,1,true,z,false,true,0.0-2.0-0.38-0.342-3.342,1,1,0,90,false,stim,false,1,525,1,1,0,75813,task3,1042249,false,false,1105,image-keyboard-response,16
true,16,2,2,0,false,q,false,true,0.0-2.0-0.38-0.343-3.343,1,1,0,68,false,stim,true,2,509,1,0,2,75813,task3,1044279,false,true,1108,image-keyboard-response,17
true,16,1,2,1,true,z,false,false,0.0-2.0-0.38-0.344-3.344,1,1,0,90,false,stim,false,1,1122,1,1,1,75813,task3,1046922,false,true,1111,image-keyboard-response,18
true,16,0,2,1,false,z,true,false,0.0-2.0-0.38-0.345-3.345,1,1,0,81,false,stim,false,1,709,1,1,0,75813,task3,1049151,false,false,1114,image-keyboard-response,19
true,16,2,2,1,false,z,true,false,0.0-2.0-0.38-0.346-3.346,1,1,0,68,false,stim,false,1,887,1,1,1,75813,task3,1051553,false,false,1117,image-keyboard-response,20
true,16,0,2,1,false,z,true,false,0.0-2.0-0.38-0.347-3.347,1,1,0,81,false,stim,false,1,470,1,1,0,75813,task3,1053540,false,false,1120,image-keyboard-response,21
true,16,2,2,0,false,q,false,true,0.0-2.0-0.38-0.348-3.348,1,1,0,68,false,stim,true,2,671,1,0,2,75813,task3,1055734,false,true,1123,image-keyboard-response,22
true,16,2,2,1,false,z,true,false,0.0-2.0-0.38-0.349-3.349,1,1,0,68,false,stim,false,1,1163,1,0,1,75813,task3,1058428,false,false,1126,image-keyboard-response,23
true,16,2,2,0,false,q,false,false,0.0-2.0-0.38-0.350-3.350,1,1,0,68,false,stim,true,2,825,1,0,2,75813,task3,1060776,false,false,1129,image-keyboard-response,24
true,16,0,2,1,false,z,true,false,0.0-2.0-0.39-0.351-3.351,1,1,0,81,false,stim,false,1,314,1,1,0,75813,task3,1062610,false,false,1132,image-keyboard-response,25
true,16,1,2,1,true,z,false,true,0.0-2.0-0.39-0.352-3.352,1,1,0,90,false,stim,false,1,800,1,0,1,75813,task3,1064930,false,false,1135,image-keyboard-response,26
true,17,2,1,1,false,z,true,true,0.0-2.0-0.39-0.353-3.353,1,0,0,68,true,stim,false,0,514,1,0,2,75813,task3,1066955,false,true,1138,image-keyboard-response,1
true,17,2,1,1,false,z,true,false,0.0-2.0-0.39-0.354-3.354,1,0,0,68,false,stim,false,0,521,1,0,2,75813,task3,1068990,false,false,1141,image-keyboard-response,2
true,17,0,1,1,false,z,true,false,0.0-2.0-0.39-0.355-3.355,1,0,0,81,false,stim,false,1,562,1,1,0,75813,task3,1071066,false,false,1144,image-keyboard-response,3
true,17,1,1,0,false,q,false,false,0.0-2.0-0.39-0.356-3.356,1,0,0,90,false,stim,true,1,489,1,0,1,75813,task3,1073074,false,false,1147,image-keyboard-response,4
true,17,2,1,1,false,z,true,false,0.0-2.0-0.39-0.357-3.357,1,0,0,68,false,stim,false,1,467,1,1,0,75813,task3,1075063,false,false,1150,image-keyboard-response,5
true,17,0,1,1,false,z,false,false,0.0-2.0-0.39-0.358-3.358,1,0,0,81,false,stim,true,0,997,1,0,2,75813,task3,1077581,false,false,1153,image-keyboard-response,6
true,17,1,1,0,false,q,false,false,0.0-2.0-0.39-0.359-3.359,1,0,0,90,false,stim,true,1,776,1,0,1,75813,task3,1079877,false,false,1156,image-keyboard-response,7
true,17,1,1,1,true,z,false,true,0.0-2.0-0.40-0.360-3.360,1,0,0,90,false,stim,false,0,1253,1,0,2,75813,task3,1082659,false,false,1159,image-keyboard-response,8
true,17,1,1,1,true,z,false,true,0.0-2.0-0.40-0.361-3.361,1,0,0,90,false,stim,false,0,447,1,0,2,75813,task3,1084631,false,false,1162,image-keyboard-response,9
true,17,2,1,1,false,z,true,false,0.0-2.0-0.40-0.362-3.362,1,0,0,68,false,stim,false,1,711,1,1,0,75813,task3,1086852,false,false,1165,image-keyboard-response,10
true,17,1,1,0,false,q,false,false,0.0-2.0-0.40-0.363-3.363,1,0,0,90,false,stim,true,1,504,1,0,1,75813,task3,1088864,false,false,1168,image-keyboard-response,11
true,17,0,1,1,false,z,true,false,0.0-2.0-0.40-0.364-3.364,1,0,0,81,false,stim,false,1,569,1,1,0,75813,task3,1090950,false,false,1171,image-keyboard-response,12
true,17,1,1,1,true,z,false,true,0.0-2.0-0.40-0.365-3.365,1,0,0,90,false,stim,false,0,893,1,0,2,75813,task3,1093382,false,false,1174,image-keyboard-response,13
true,17,0,1,0,true,q,false,false,0.0-2.0-0.40-0.366-3.366,1,0,0,81,false,stim,false,1,582,1,0,1,75813,task3,1095479,false,true,1177,image-keyboard-response,14
true,17,2,1,1,false,z,true,false,0.0-2.0-0.40-0.367-3.367,1,0,0,68,false,stim,false,1,1010,1,1,0,75813,task3,1098000,false,false,1180,image-keyboard-response,15
true,17,0,1,0,true,q,false,true,0.0-2.0-0.40-0.368-3.368,1,0,0,81,false,stim,false,1,1088,1,0,1,75813,task3,1100605,false,false,1183,image-keyboard-response,16
true,17,1,1,1,true,z,false,true,0.0-2.0-0.41-0.369-3.369,1,0,0,90,false,stim,false,0,822,1,0,2,75813,task3,1102944,false,false,1186,image-keyboard-response,17
true,17,2,1,1,false,z,true,true,0.0-2.0-0.41-0.370-3.370,1,0,0,68,false,stim,false,1,683,1,1,0,75813,task3,1105146,false,true,1189,image-keyboard-response,18
true,17,2,1,1,false,z,true,false,0.0-2.0-0.41-0.371-3.371,1,0,0,68,false,stim,false,1,546,1,1,0,75813,task3,1107200,false,false,1192,image-keyboard-response,19
true,17,2,1,1,false,z,true,false,0.0-2.0-0.41-0.372-3.372,1,0,0,68,false,stim,false,1,442,1,1,0,75813,task3,1109158,false,false,1195,image-keyboard-response,20
true,17,1,1,1,true,z,false,true,0.0-2.0-0.41-0.373-3.373,1,0,0,90,false,stim,false,0,764,1,0,2,75813,task3,1111441,false,false,1198,image-keyboard-response,21
true,17,0,1,0,true,q,false,false,0.0-2.0-0.41-0.374-3.374,1,0,0,81,false,stim,false,1,668,1,1,1,75813,task3,1113652,false,true,1201,image-keyboard-response,22
true,18,2,2,0,false,q,true,false,0.0-2.0-0.41-0.375-3.375,1,1,0,68,true,stim,false,0,682,1,1,1,75813,task3,1115851,false,false,1204,image-keyboard-response,1
true,18,1,2,0,false,q,true,true,0.0-2.0-0.41-0.376-3.376,1,1,0,90,false,stim,false,0,989,1,1,1,75813,task3,1118368,false,true,1207,image-keyboard-response,2
true,18,1,2,0,false,q,false,false,0.0-2.0-0.41-0.377-3.377,1,1,0,90,false,stim,true,1,405,1,0,2,75813,task3,1120290,false,false,1210,image-keyboard-response,3
true,18,1,2,1,true,z,false,true,0.0-2.0-0.42-0.378-3.378,1,1,0,90,false,stim,false,1,882,1,1,0,75813,task3,1122696,false,false,1213,image-keyboard-response,4
true,18,1,2,1,true,z,false,true,0.0-2.0-0.42-0.379-3.379,1,1,0,90,false,stim,false,1,374,1,1,0,75813,task3,1124585,false,false,1216,image-keyboard-response,5
true,18,1,2,1,true,z,false,true,0.0-2.0-0.42-0.380-3.380,1,1,0,90,false,stim,false,1,469,1,1,0,75813,task3,1126569,false,false,1219,image-keyboard-response,6
true,18,1,2,0,false,q,false,false,0.0-2.0-0.42-0.381-3.381,1,1,0,90,false,stim,true,1,313,1,0,2,75813,task3,1128410,false,false,1222,image-keyboard-response,7
true,18,0,2,0,true,q,false,true,0.0-2.0-0.42-0.382-3.382,1,1,0,81,false,stim,false,1,740,1,0,2,75813,task3,1130670,false,false,1225,image-keyboard-response,8
true,18,1,2,0,false,q,true,false,0.0-2.0-0.42-0.383-3.383,1,1,0,90,false,stim,false,0,479,1,1,1,75813,task3,1132665,false,false,1228,image-keyboard-response,9
true,18,0,2,0,true,q,false,true,0.0-2.0-0.42-0.384-3.384,1,1,0,81,false,stim,false,1,597,1,1,2,75813,task3,1134781,false,false,1231,image-keyboard-response,10
true,18,2,2,0,false,q,true,false,0.0-2.0-0.42-0.385-3.385,1,1,0,68,false,stim,false,0,865,1,0,1,75813,task3,1137160,false,false,1234,image-keyboard-response,11
true,18,0,2,0,true,q,false,true,0.0-2.0-0.42-0.386-3.386,1,1,0,81,false,stim,false,0,500,1,0,1,75813,task3,1139175,false,false,1237,image-keyboard-response,12
true,18,0,2,0,true,q,false,true,0.0-2.0-0.43-0.387-3.387,1,1,0,81,false,stim,false,0,341,1,0,1,75813,task3,1141039,false,false,1240,image-keyboard-response,13
true,18,1,2,1,true,z,false,true,0.0-2.0-0.43-0.388-3.388,1,1,0,90,false,stim,false,1,701,1,0,0,75813,task3,1143265,false,false,1243,image-keyboard-response,14
true,19,1,1,2,false,d,false,false,0.0-2.0-0.43-0.389-3.389,0,0,1,90,true,stim,true,1,607,1,0,0,75813,task3,1145401,false,false,1246,image-keyboard-response,1
true,19,0,1,2,false,d,true,false,0.0-2.0-0.43-0.390-3.390,0,0,1,81,false,stim,false,1,536,1,0,0,75813,task3,1147462,false,false,1249,image-keyboard-response,2
true,19,0,1,0,true,q,false,true,0.0-2.0-0.43-0.391-3.391,0,0,1,81,false,stim,false,0,586,1,1,2,75813,task3,1149571,false,false,1252,image-keyboard-response,3
true,19,0,1,0,true,q,false,true,0.0-2.0-0.43-0.392-3.392,0,0,1,81,false,stim,false,0,431,1,1,2,75813,task3,1151521,false,false,1255,image-keyboard-response,4
true,19,0,1,0,true,q,false,true,0.0-2.0-0.43-0.393-3.393,0,0,1,81,false,stim,false,0,406,1,1,2,75813,task3,1153454,false,false,1258,image-keyboard-response,5
true,19,0,1,2,false,d,false,false,0.0-2.0-0.43-0.394-3.394,0,0,1,81,false,stim,true,0,372,1,0,1,75813,task3,1155359,false,false,1261,image-keyboard-response,6
true,19,0,1,2,false,d,false,false,0.0-2.0-0.43-0.395-3.395,0,0,1,81,false,stim,true,0,562,1,0,1,75813,task3,1157450,false,false,1264,image-keyboard-response,7
true,19,0,1,2,false,d,false,false,0.0-2.0-0.44-0.396-3.396,0,0,1,81,false,stim,true,0,640,1,0,1,75813,task3,1159609,false,false,1267,image-keyboard-response,8
true,19,1,1,2,false,d,false,false,0.0-2.0-0.44-0.397-3.397,0,0,1,90,false,stim,true,1,996,1,0,0,75813,task3,1162131,false,false,1270,image-keyboard-response,9
true,19,2,1,0,false,q,true,true,0.0-2.0-0.44-0.398-3.398,0,0,1,68,false,stim,false,0,960,1,1,2,75813,task3,1164611,false,true,1273,image-keyboard-response,10
true,19,2,1,0,false,q,true,false,0.0-2.0-0.44-0.399-3.399,0,0,1,68,false,stim,false,0,459,1,1,2,75813,task3,1166583,false,false,1276,image-keyboard-response,11
true,19,2,1,2,true,d,false,true,0.0-2.0-0.44-0.400-3.400,0,0,1,68,false,stim,false,1,1039,1,0,0,75813,task3,1169150,false,false,1279,image-keyboard-response,12
true,19,2,1,2,true,d,false,true,0.0-2.0-0.44-0.401-3.401,0,0,1,68,false,stim,false,1,401,1,0,0,75813,task3,1171071,false,false,1282,image-keyboard-response,13
true,19,1,1,2,false,d,true,false,0.0-2.0-0.44-0.402-3.402,0,0,1,90,false,stim,false,0,1291,1,0,1,75813,task3,1173891,false,false,1285,image-keyboard-response,14
true,19,0,1,0,true,q,false,true,0.0-2.0-0.44-0.403-3.403,0,0,1,81,false,stim,false,0,363,1,1,2,75813,task3,1175776,false,false,1288,image-keyboard-response,15
true,19,2,1,2,true,d,false,true,0.0-2.0-0.44-0.404-3.404,0,0,1,68,false,stim,false,0,462,1,0,1,75813,task3,1177759,false,false,1291,image-keyboard-response,16
true,19,2,1,2,true,d,false,false,0.0-2.0-0.45-0.405-3.405,0,0,1,68,false,stim,false,1,466,1,0,0,75813,task3,1179738,false,true,1294,image-keyboard-response,17
true,19,0,1,0,true,q,false,true,0.0-2.0-0.45-0.406-3.406,0,0,1,81,false,stim,false,0,415,1,1,2,75813,task3,1181674,false,false,1297,image-keyboard-response,18
true,19,2,1,2,true,d,false,true,0.0-2.0-0.45-0.407-3.407,0,0,1,68,false,stim,false,0,635,1,1,1,75813,task3,1183829,false,false,1300,image-keyboard-response,19
true,19,2,1,2,true,d,false,true,0.0-2.0-0.45-0.408-3.408,0,0,1,68,false,stim,false,0,658,1,1,1,75813,task3,1186030,false,false,1303,image-keyboard-response,20
true,19,1,1,2,false,d,false,false,0.0-2.0-0.45-0.409-3.409,0,0,1,90,false,stim,true,1,807,1,0,0,75813,task3,1188358,false,false,1306,image-keyboard-response,21
true,19,2,1,0,false,q,true,false,0.0-2.0-0.45-0.410-3.410,0,0,1,68,false,stim,false,0,660,1,1,2,75813,task3,1190546,false,false,1309,image-keyboard-response,22
true,19,0,1,2,false,d,false,false,0.0-2.0-0.45-0.411-3.411,0,0,1,81,false,stim,true,0,210,1,1,1,75813,task3,1192281,false,false,1312,image-keyboard-response,23
true,20,1,2,0,false,q,true,false,0.0-2.0-0.45-0.412-3.412,0,1,1,90,true,stim,false,2,758,1,0,0,75813,task3,1194560,false,false,1315,image-keyboard-response,1
true,20,2,2,0,false,q,true,false,0.0-2.0-0.45-0.413-3.413,0,1,1,68,false,stim,false,0,846,1,1,2,75813,task3,1196930,false,false,1318,image-keyboard-response,2
true,20,0,2,0,true,q,false,true,0.0-2.0-0.46-0.414-3.414,0,1,1,81,false,stim,false,0,1037,1,1,2,75813,task3,1199491,false,false,1321,image-keyboard-response,3
true,20,0,2,0,true,q,false,true,0.0-2.0-0.46-0.415-3.415,0,1,1,81,false,stim,false,2,1123,1,0,0,75813,task3,1202124,false,false,1324,image-keyboard-response,4
true,20,1,2,0,false,q,true,false,0.0-2.0-0.46-0.416-3.416,0,1,1,90,false,stim,false,0,544,1,1,2,75813,task3,1204187,false,false,1327,image-keyboard-response,5
true,20,0,2,2,false,d,true,false,0.0-2.0-0.46-0.417-3.417,0,1,1,81,false,stim,false,2,516,1,1,1,75813,task3,1206221,false,false,1330,image-keyboard-response,6
true,20,2,2,0,false,q,true,false,0.0-2.0-0.46-0.418-3.418,0,1,1,68,false,stim,false,0,400,1,1,2,75813,task3,1208151,false,false,1333,image-keyboard-response,7
true,20,2,2,2,true,d,false,true,0.0-2.0-0.46-0.419-3.419,0,1,1,68,false,stim,false,2,1128,1,1,1,75813,task3,1210801,false,false,1336,image-keyboard-response,8
true,20,0,2,0,true,q,false,true,0.0-2.0-0.46-0.420-3.420,0,1,1,81,false,stim,false,2,821,1,0,0,75813,task3,1213134,false,false,1339,image-keyboard-response,9
true,20,0,2,0,true,q,false,true,0.0-2.0-0.46-0.421-3.421,0,1,1,81,false,stim,false,2,493,1,1,0,75813,task3,1215152,false,false,1342,image-keyboard-response,10
true,20,2,2,2,true,d,false,true,0.0-2.0-0.46-0.422-3.422,0,1,1,68,false,stim,false,2,537,1,0,1,75813,task3,1217225,false,false,1345,image-keyboard-response,11
true,20,0,2,0,true,q,false,true,0.0-2.0-0.47-0.423-3.423,0,1,1,81,false,stim,false,2,640,1,1,0,75813,task3,1219387,false,false,1348,image-keyboard-response,12
true,20,1,2,0,false,q,true,false,0.0-2.0-0.47-0.424-3.424,0,1,1,90,false,stim,false,0,1076,1,1,2,75813,task3,1221981,false,false,1351,image-keyboard-response,13
true,20,0,2,0,true,q,false,true,0.0-2.0-0.47-0.425-3.425,0,1,1,81,false,stim,false,0,638,1,1,2,75813,task3,1224138,false,false,1354,image-keyboard-response,14
true,21,0,2,0,true,q,false,true,0.0-2.0-0.47-0.426-3.426,1,0,1,81,true,stim,false,0,487,1,1,0,75813,task3,1226151,false,false,1357,image-keyboard-response,1
true,21,0,2,1,false,z,true,false,0.0-2.0-0.47-0.427-3.427,1,0,1,81,false,stim,false,2,387,1,0,1,75813,task3,1228058,false,false,1360,image-keyboard-response,2
true,21,0,2,0,true,q,false,true,0.0-2.0-0.47-0.428-3.428,1,0,1,81,false,stim,false,0,481,1,1,0,75813,task3,1230066,false,false,1363,image-keyboard-response,3
true,21,0,2,1,false,z,true,true,0.0-2.0-0.47-0.429-3.429,1,0,1,81,false,stim,false,2,444,1,0,1,75813,task3,1232034,false,true,1366,image-keyboard-response,4
true,21,0,2,1,false,z,true,false,0.0-2.0-0.47-0.430-3.430,1,0,1,81,false,stim,false,2,383,1,0,1,75813,task3,1233949,false,false,1369,image-keyboard-response,5
true,21,2,2,0,false,q,true,false,0.0-2.0-0.47-0.431-3.431,1,0,1,68,false,stim,false,0,509,1,1,2,75813,task3,1235969,false,false,1372,image-keyboard-response,6
true,21,0,2,1,false,z,true,false,0.0-2.0-0.48-0.432-3.432,1,0,1,81,false,stim,false,2,601,1,1,1,75813,task3,1238094,false,false,1375,image-keyboard-response,7
true,21,2,2,1,false,z,false,true,0.0-2.0-0.48-0.433-3.433,1,0,1,68,false,stim,true,2,704,1,1,1,75813,task3,1240320,false,true,1378,image-keyboard-response,8
true,21,0,2,0,true,q,false,true,0.0-2.0-0.48-0.434-3.434,1,0,1,81,false,stim,false,0,769,1,1,2,75813,task3,1242602,false,false,1381,image-keyboard-response,9
true,21,2,2,1,false,z,false,false,0.0-2.0-0.48-0.435-3.435,1,0,1,68,false,stim,true,2,404,1,1,1,75813,task3,1244524,false,false,1384,image-keyboard-response,10
true,21,0,2,0,true,q,false,true,0.0-2.0-0.48-0.436-3.436,1,0,1,81,false,stim,false,0,438,1,1,2,75813,task3,1246480,false,false,1387,image-keyboard-response,11
true,22,0,2,0,true,q,false,true,0.0-2.0-0.48-0.437-3.437,0,1,1,81,true,stim,false,0,518,1,1,2,75813,task3,1248515,false,false,1390,image-keyboard-response,1
true,22,1,2,2,false,d,true,false,0.0-2.0-0.48-0.438-3.438,0,1,1,90,false,stim,false,0,981,1,0,0,75813,task3,1251011,false,false,1393,image-keyboard-response,2
true,22,0,2,2,false,d,false,false,0.0-2.0-0.48-0.439-3.439,0,1,1,81,false,stim,true,0,233,1,0,0,75813,task3,1252761,false,false,1396,image-keyboard-response,3
true,22,2,2,2,true,d,false,true,0.0-2.0-0.48-0.440-3.440,0,1,1,68,false,stim,false,0,1044,1,0,0,75813,task3,1255319,false,false,1399,image-keyboard-response,4
true,22,2,2,1,false,z,true,false,0.0-2.0-0.49-0.441-3.441,0,1,1,68,false,stim,false,1,583,1,1,1,75813,task3,1257439,false,false,1402,image-keyboard-response,5
true,22,1,2,2,false,d,true,false,0.0-2.0-0.49-0.442-3.442,0,1,1,90,false,stim,false,0,916,1,0,0,75813,task3,1259864,false,false,1405,image-keyboard-response,6
true,22,0,2,2,false,d,false,false,0.0-2.0-0.49-0.443-3.443,0,1,1,81,false,stim,true,0,273,1,0,0,75813,task3,1261653,false,false,1408,image-keyboard-response,7
true,22,1,2,1,true,z,false,true,0.0-2.0-0.49-0.444-3.444,0,1,1,90,false,stim,false,1,420,1,0,1,75813,task3,1263600,false,false,1411,image-keyboard-response,8
true,22,2,2,2,true,d,false,true,0.0-2.0-0.49-0.445-3.445,0,1,1,68,false,stim,false,0,825,1,1,0,75813,task3,1265950,false,false,1414,image-keyboard-response,9
true,22,0,2,0,true,q,false,true,0.0-2.0-0.49-0.446-3.446,0,1,1,81,false,stim,false,0,740,1,1,2,75813,task3,1268220,false,false,1417,image-keyboard-response,10
true,22,1,2,1,true,z,false,true,0.0-2.0-0.49-0.447-3.447,0,1,1,90,false,stim,false,1,875,1,0,1,75813,task3,1270615,false,false,1420,image-keyboard-response,11
true,22,0,2,0,true,q,false,true,0.0-2.0-0.49-0.448-3.448,0,1,1,81,false,stim,false,0,858,1,1,2,75813,task3,1272994,false,false,1423,image-keyboard-response,12
true,23,0,2,0,true,q,false,true,0.0-2.0-0.49-0.449-3.449,1,0,1,81,true,stim,false,0,603,1,1,2,75813,task3,1275119,false,false,1426,image-keyboard-response,1
true,23,2,2,2,true,d,false,true,0.0-2.0-0.50-0.450-3.450,1,0,1,68,false,stim,false,2,907,1,1,0,75813,task3,1277541,false,false,1429,image-keyboard-response,2
true,23,1,2,0,false,q,false,false,0.0-2.0-0.50-0.451-3.451,1,0,1,90,false,stim,true,1,592,1,0,1,75813,task3,1279667,false,false,1432,image-keyboard-response,3
true,23,0,2,2,false,d,true,true,0.0-2.0-0.50-0.452-3.452,1,0,1,81,false,stim,false,2,655,1,1,0,75813,task3,1281852,false,true,1435,image-keyboard-response,4
true,23,2,2,0,false,q,true,false,0.0-2.0-0.50-0.453-3.453,1,0,1,68,false,stim,false,0,468,1,1,2,75813,task3,1283829,false,false,1438,image-keyboard-response,5
true,23,0,2,0,true,q,false,true,0.0-2.0-0.50-0.454-3.454,1,0,1,81,false,stim,false,0,387,1,1,2,75813,task3,1285741,false,false,1441,image-keyboard-response,6
true,23,0,2,0,true,q,false,true,0.0-2.0-0.50-0.455-3.455,1,0,1,81,false,stim,false,0,463,1,1,2,75813,task3,1287729,false,false,1444,image-keyboard-response,7
true,23,0,2,2,false,d,true,false,0.0-2.0-0.50-0.456-3.456,1,0,1,81,false,stim,false,2,419,1,1,0,75813,task3,1289671,false,false,1447,image-keyboard-response,8
true,23,1,2,0,false,q,false,false,0.0-2.0-0.50-0.457-3.457,1,0,1,90,false,stim,true,1,496,1,1,1,75813,task3,1291678,false,false,1450,image-keyboard-response,9
true,23,0,2,0,true,q,false,true,0.0-2.0-0.50-0.458-3.458,1,0,1,81,false,stim,false,1,454,1,1,1,75813,task3,1293663,false,false,1453,image-keyboard-response,10
true,23,0,2,2,false,d,true,false,0.0-2.0-0.51-0.459-3.459,1,0,1,81,false,stim,false,2,376,1,1,0,75813,task3,1295564,false,false,1456,image-keyboard-response,11
true,23,0,2,0,true,q,false,true,0.0-2.0-0.51-0.460-3.460,1,0,1,81,false,stim,false,0,368,1,0,2,75813,task3,1297459,false,false,1459,image-keyboard-response,12
true,23,0,2,0,true,q,false,true,0.0-2.0-0.51-0.461-3.461,1,0,1,81,false,stim,false,1,448,1,1,1,75813,task3,1299427,false,false,1462,image-keyboard-response,13
true,24,0,2,0,true,q,false,true,0.0-2.0-0.51-0.462-3.462,1,1,0,81,true,stim,false,0,488,1,1,1,75813,task3,1301434,false,false,1465,image-keyboard-response,1
true,24,1,2,2,false,d,true,false,0.0-2.0-0.51-0.463-3.463,1,1,0,90,false,stim,false,2,522,1,1,0,75813,task3,1303469,false,false,1468,image-keyboard-response,2
true,24,0,2,1,false,z,false,false,0.0-2.0-0.51-0.464-3.464,1,1,0,81,false,stim,true,0,590,1,0,2,75813,task3,1305580,false,false,1471,image-keyboard-response,3
true,24,0,2,0,true,q,false,false,0.0-2.0-0.51-0.465-3.465,1,1,0,81,false,stim,false,0,583,1,1,1,75813,task3,1307685,false,true,1474,image-keyboard-response,4
true,24,1,2,2,false,d,true,false,0.0-2.0-0.51-0.466-3.466,1,1,0,90,false,stim,false,2,886,1,1,0,75813,task3,1310095,false,false,1477,image-keyboard-response,5
true,24,2,2,1,false,z,true,false,0.0-2.0-0.51-0.467-3.467,1,1,0,68,false,stim,false,0,907,1,0,2,75813,task3,1312521,false,false,1480,image-keyboard-response,6
true,24,1,2,2,false,d,true,false,0.0-2.0-0.52-0.468-3.468,1,1,0,90,false,stim,false,2,499,1,1,0,75813,task3,1314548,false,false,1483,image-keyboard-response,7
true,24,0,2,0,true,q,false,true,0.0-2.0-0.52-0.469-3.469,1,1,0,81,false,stim,false,0,1167,1,1,1,75813,task3,1317234,false,false,1486,image-keyboard-response,8
true,24,1,2,2,false,d,true,true,0.0-2.0-0.52-0.470-3.470,1,1,0,90,false,stim,false,2,794,1,1,0,75813,task3,1319548,false,true,1489,image-keyboard-response,9
true,24,2,2,1,false,z,true,false,0.0-2.0-0.52-0.471-3.471,1,1,0,68,false,stim,false,0,564,1,1,2,75813,task3,1321640,false,false,1492,image-keyboard-response,10
true,24,1,2,1,true,z,false,true,0.0-2.0-0.52-0.472-3.472,1,1,0,90,false,stim,false,0,916,1,1,2,75813,task3,1324083,false,false,1495,image-keyboard-response,11
true,24,0,2,0,true,q,false,true,0.0-2.0-0.52-0.473-3.473,1,1,0,81,false,stim,false,0,563,1,1,1,75813,task3,1326160,false,false,1498,image-keyboard-response,12
true,24,0,2,0,true,q,false,true,0.0-2.0-0.52-0.474-3.474,1,1,0,81,false,stim,false,0,484,1,1,1,75813,task3,1328178,false,false,1501,image-keyboard-response,13
true,24,1,2,1,true,z,false,true,0.0-2.0-0.52-0.475-3.475,1,1,0,90,false,stim,false,0,723,1,1,2,75813,task3,1330420,false,false,1504,image-keyboard-response,14
true,25,1,2,0,false,q,true,true,0.0-2.0-0.52-0.476-3.476,0,1,1,90,true,stim,false,2,620,1,0,0,75813,task3,1332564,false,true,1507,image-keyboard-response,1
true,25,1,2,0,false,q,true,false,0.0-2.0-0.53-0.477-3.477,0,1,1,90,false,stim,false,2,447,1,0,0,75813,task3,1334540,false,false,1510,image-keyboard-response,2
true,25,1,2,0,false,q,true,true,0.0-2.0-0.53-0.478-3.478,0,1,1,90,false,stim,false,2,1107,1,0,0,75813,task3,1337162,false,true,1513,image-keyboard-response,3
true,25,1,2,0,false,q,true,false,0.0-2.0-0.53-0.479-3.479,0,1,1,90,false,stim,false,2,466,1,0,0,75813,task3,1339145,false,false,1516,image-keyboard-response,4
true,25,0,2,0,true,q,false,true,0.0-2.0-0.53-0.480-3.480,0,1,1,81,false,stim,false,0,451,1,1,1,75813,task3,1341110,false,false,1519,image-keyboard-response,5
true,25,1,2,1,true,z,false,true,0.0-2.0-0.53-0.481-3.481,0,1,1,90,false,stim,false,1,493,1,1,2,75813,task3,1343120,false,false,1522,image-keyboard-response,6
true,25,1,2,0,false,q,true,false,0.0-2.0-0.53-0.482-3.482,0,1,1,90,false,stim,false,0,410,1,1,1,75813,task3,1345052,false,false,1525,image-keyboard-response,7
true,25,1,2,1,true,z,false,true,0.0-2.0-0.53-0.483-3.483,0,1,1,90,false,stim,false,1,779,1,1,2,75813,task3,1347355,false,false,1528,image-keyboard-response,8
true,25,1,2,0,false,q,true,false,0.0-2.0-0.53-0.484-3.484,0,1,1,90,false,stim,false,0,841,1,1,1,75813,task3,1349721,false,false,1531,image-keyboard-response,9
true,25,1,2,1,true,z,false,true,0.0-2.0-0.53-0.485-3.485,0,1,1,90,false,stim,false,1,757,1,1,2,75813,task3,1351993,false,false,1534,image-keyboard-response,10
true,25,0,2,0,true,q,false,true,0.0-2.0-0.54-0.486-3.486,0,1,1,81,false,stim,false,0,469,1,1,1,75813,task3,1353984,false,false,1537,image-keyboard-response,11
true,25,1,2,1,true,z,false,true,0.0-2.0-0.54-0.487-3.487,0,1,1,90,false,stim,false,1,522,1,1,2,75813,task3,1356027,false,false,1540,image-keyboard-response,12
true,25,0,2,0,true,q,false,true,0.0-2.0-0.54-0.488-3.488,0,1,1,81,false,stim,false,0,348,1,1,1,75813,task3,1357903,false,false,1543,image-keyboard-response,13
true,26,0,0,0,true,q,false,true,0.0-2.0-0.54-0.489-3.489,1,1,1,81,true,stim,false,0,935,1,1,1,75813,task3,1481473,false,false,1666,image-keyboard-response,1
true,26,1,0,0,false,q,true,false,0.0-2.0-0.54-0.490-3.490,1,1,1,90,false,stim,false,0,385,1,1,0,75813,task3,1483376,false,false,1669,image-keyboard-response,2
true,26,2,0,1,false,z,true,true,0.0-2.0-0.54-0.491-3.491,1,1,1,68,false,stim,false,1,390,1,1,2,75813,task3,1485283,false,true,1672,image-keyboard-response,3
true,26,0,0,0,true,q,false,true,0.0-2.0-0.54-0.492-3.492,1,1,1,81,false,stim,false,0,756,1,1,0,75813,task3,1487566,false,false,1675,image-keyboard-response,4
true,26,2,0,1,false,z,true,false,0.0-2.0-0.54-0.493-3.493,1,1,1,68,false,stim,false,1,457,1,1,2,75813,task3,1489549,false,false,1678,image-keyboard-response,5
true,26,0,0,0,true,q,false,true,0.0-2.0-0.54-0.494-3.494,1,1,1,81,false,stim,false,0,484,1,1,0,75813,task3,1491559,false,false,1681,image-keyboard-response,6
true,26,0,0,0,true,q,false,true,0.0-2.0-0.55-0.495-3.495,1,1,1,81,false,stim,false,0,362,1,1,1,75813,task3,1493438,false,false,1684,image-keyboard-response,7
true,26,0,0,0,true,q,false,true,0.0-2.0-0.55-0.496-3.496,1,1,1,81,false,stim,false,0,496,1,1,0,75813,task3,1495451,false,false,1687,image-keyboard-response,8
true,26,0,0,0,true,q,false,true,0.0-2.0-0.55-0.497-3.497,1,1,1,81,false,stim,false,0,373,1,1,0,75813,task3,1497344,false,false,1690,image-keyboard-response,9
true,26,2,0,1,false,z,true,false,0.0-2.0-0.55-0.498-3.498,1,1,1,68,false,stim,false,1,456,1,1,2,75813,task3,1499332,false,false,1693,image-keyboard-response,10
true,26,0,0,0,true,q,false,true,0.0-2.0-0.55-0.499-3.499,1,1,1,81,false,stim,false,0,120,1,0,1,75813,task3,1500982,false,false,1696,image-keyboard-response,11
true,26,0,0,1,false,z,true,false,0.0-2.0-0.55-0.500-3.500,1,1,1,81,false,stim,false,1,231,1,1,2,75813,task3,1502737,false,false,1699,image-keyboard-response,12
true,27,0,2,1,false,z,false,false,0.0-2.0-0.55-0.501-3.501,1,0,1,81,true,stim,true,0,464,1,0,1,75813,task3,1504734,false,false,1702,image-keyboard-response,1
true,27,0,2,1,false,z,true,false,0.0-2.0-0.55-0.502-3.502,1,0,1,81,false,stim,false,1,1373,1,1,2,75813,task3,1507616,false,false,1705,image-keyboard-response,2
true,27,0,2,0,true,q,false,false,0.0-2.0-0.55-0.503-3.503,1,0,1,81,false,stim,false,0,1172,1,1,0,75813,task3,1510312,false,true,1708,image-keyboard-response,3
true,27,1,2,1,true,z,false,true,0.0-2.0-0.56-0.504-3.504,1,0,1,90,false,stim,false,0,429,1,0,1,75813,task3,1512274,false,false,1711,image-keyboard-response,4
true,27,2,2,1,false,z,true,false,0.0-2.0-0.56-0.505-3.505,1,0,1,68,false,stim,false,1,518,1,1,2,75813,task3,1514320,false,false,1714,image-keyboard-response,5
true,27,1,2,1,true,z,false,true,0.0-2.0-0.56-0.506-3.506,1,0,1,90,false,stim,false,0,349,1,0,1,75813,task3,1516185,false,false,1717,image-keyboard-response,6
true,27,0,2,1,false,z,true,true,0.0-2.0-0.56-0.507-3.507,1,0,1,81,false,stim,false,1,412,1,1,2,75813,task3,1518122,false,true,1720,image-keyboard-response,7
true,27,2,2,0,false,q,true,false,0.0-2.0-0.56-0.508-3.508,1,0,1,68,false,stim,false,0,563,1,1,0,75813,task3,1520223,false,false,1723,image-keyboard-response,8
true,27,2,2,0,false,q,true,false,0.0-2.0-0.56-0.509-3.509,1,0,1,68,false,stim,false,0,497,1,1,0,75813,task3,1522233,false,false,1726,image-keyboard-response,9
true,27,0,2,1,false,z,true,false,0.0-2.0-0.56-0.510-3.510,1,0,1,81,false,stim,false,1,601,1,1,2,75813,task3,1524357,false,false,1729,image-keyboard-response,10
true,27,1,2,0,false,q,true,false,0.0-2.0-0.56-0.511-3.511,1,0,1,90,false,stim,false,0,448,1,0,0,75813,task3,1526328,false,false,1732,image-keyboard-response,11
true,27,0,2,1,false,z,false,false,0.0-2.0-0.56-0.512-3.512,1,0,1,81,false,stim,true,0,333,1,1,1,75813,task3,1528190,false,false,1735,image-keyboard-response,12
true,27,1,2,1,true,z,false,true,0.0-2.0-0.57-0.513-3.513,1,0,1,90,false,stim,false,0,624,1,1,1,75813,task3,1530337,false,false,1738,image-keyboard-response,13
true,27,1,2,1,true,z,false,true,0.0-2.0-0.57-0.514-3.514,1,0,1,90,false,stim,false,1,678,1,1,2,75813,task3,1532543,false,false,1741,image-keyboard-response,14
true,27,1,2,0,false,q,true,false,0.0-2.0-0.57-0.515-3.515,1,0,1,90,false,stim,false,0,352,1,0,0,75813,task3,1534423,false,false,1744,image-keyboard-response,15
true,28,0,2,2,false,d,false,true,0.0-2.0-0.57-0.516-3.516,0,1,1,81,true,stim,true,0,650,1,0,0,75813,task3,1536584,false,true,1747,image-keyboard-response,1
true,28,1,2,1,true,z,false,true,0.0-2.0-0.57-0.517-3.517,0,1,1,90,false,stim,false,1,335,1,1,2,75813,task3,1538435,false,false,1750,image-keyboard-response,2
true,28,0,2,2,false,d,false,false,0.0-2.0-0.57-0.518-3.518,0,1,1,81,false,stim,true,0,470,1,0,0,75813,task3,1540422,false,false,1753,image-keyboard-response,3
true,28,1,2,1,true,z,false,true,0.0-2.0-0.57-0.519-3.519,0,1,1,90,false,stim,false,1,374,1,1,1,75813,task3,1542321,false,false,1756,image-keyboard-response,4
true,28,1,2,1,true,z,false,true,0.0-2.0-0.57-0.520-3.520,0,1,1,90,false,stim,false,1,384,1,1,2,75813,task3,1544226,false,false,1759,image-keyboard-response,5
true,28,0,2,1,false,z,true,false,0.0-2.0-0.57-0.521-3.521,0,1,1,81,false,stim,false,1,403,1,1,1,75813,task3,1546148,false,false,1762,image-keyboard-response,6
true,28,0,2,2,false,d,false,false,0.0-2.0-0.58-0.522-3.522,0,1,1,81,false,stim,true,0,445,1,0,0,75813,task3,1548111,false,false,1765,image-keyboard-response,7
true,28,1,2,1,true,z,false,true,0.0-2.0-0.58-0.523-3.523,0,1,1,90,false,stim,false,1,401,1,1,2,75813,task3,1550041,false,false,1768,image-keyboard-response,8
true,28,1,2,1,true,z,false,true,0.0-2.0-0.58-0.524-3.524,0,1,1,90,false,stim,false,1,411,1,1,2,75813,task3,1551972,false,false,1771,image-keyboard-response,9
true,28,1,2,2,false,d,true,false,0.0-2.0-0.58-0.525-3.525,0,1,1,90,false,stim,false,0,868,1,0,0,75813,task3,1554362,false,false,1774,image-keyboard-response,10
true,28,0,2,1,false,z,true,false,0.0-2.0-0.58-0.526-3.526,0,1,1,81,false,stim,false,1,339,1,1,1,75813,task3,1556230,false,false,1777,image-keyboard-response,11
true,28,1,2,1,true,z,false,true,0.0-2.0-0.58-0.527-3.527,0,1,1,90,false,stim,false,1,427,1,1,2,75813,task3,1558189,false,false,1780,image-keyboard-response,12
true,28,1,2,1,true,z,false,true,0.0-2.0-0.58-0.528-3.528,0,1,1,90,false,stim,false,1,460,1,1,1,75813,task3,1560171,false,false,1783,image-keyboard-response,13
true,28,0,2,2,false,d,false,false,0.0-2.0-0.58-0.529-3.529,0,1,1,81,false,stim,true,0,714,1,0,0,75813,task3,1562400,false,false,1786,image-keyboard-response,14
true,28,1,2,1,true,z,false,true,0.0-2.0-0.58-0.530-3.530,0,1,1,90,false,stim,false,1,285,1,1,1,75813,task3,1564204,false,false,1789,image-keyboard-response,15
true,28,1,2,2,false,d,true,false,0.0-2.0-0.59-0.531-3.531,0,1,1,90,false,stim,false,0,401,1,0,0,75813,task3,1566126,false,false,1792,image-keyboard-response,16
true,28,2,2,1,false,z,true,true,0.0-2.0-0.59-0.532-3.532,0,1,1,68,false,stim,false,1,259,1,1,1,75813,task3,1567904,false,true,1795,image-keyboard-response,17
true,28,0,2,2,false,d,false,false,0.0-2.0-0.59-0.533-3.533,0,1,1,81,false,stim,true,0,844,1,0,0,75813,task3,1570269,false,false,1798,image-keyboard-response,18
true,28,1,2,2,false,d,true,true,0.0-2.0-0.59-0.534-3.534,0,1,1,90,false,stim,false,0,632,1,0,0,75813,task3,1572434,false,true,1801,image-keyboard-response,19
true,28,2,2,1,false,z,true,true,0.0-2.0-0.59-0.535-3.535,0,1,1,68,false,stim,false,1,528,1,1,1,75813,task3,1574472,false,true,1804,image-keyboard-response,20
true,28,0,2,1,false,z,true,true,0.0-2.0-0.59-0.536-3.536,0,1,1,81,false,stim,false,1,1054,1,1,2,75813,task3,1577059,false,true,1807,image-keyboard-response,21
true,28,2,2,1,false,z,true,false,0.0-2.0-0.59-0.537-3.537,0,1,1,68,false,stim,false,1,1483,1,0,1,75813,task3,1580065,false,false,1810,image-keyboard-response,22
true,28,0,2,1,false,z,true,false,0.0-2.0-0.59-0.538-3.538,0,1,1,81,false,stim,false,1,760,1,1,2,75813,task3,1582361,false,false,1813,image-keyboard-response,23
true,28,1,2,1,true,z,false,true,0.0-2.0-0.59-0.539-3.539,0,1,1,90,false,stim,false,1,750,1,1,2,75813,task3,1584639,false,false,1816,image-keyboard-response,24
true,28,1,2,1,true,z,false,true,0.0-2.0-0.60-0.540-3.540,0,1,1,90,false,stim,false,1,449,1,1,2,75813,task3,1586601,false,false,1819,image-keyboard-response,25
true,29,0,1,2,false,d,true,false,0.0-2.0-0.60-0.541-3.541,0,0,1,81,true,stim,false,1,519,1,0,1,75813,task3,1588639,false,false,1822,image-keyboard-response,1
true,29,1,1,1,true,z,false,true,0.0-2.0-0.60-0.542-3.542,0,0,1,90,false,stim,false,1,537,1,1,2,75813,task3,1590688,false,false,1825,image-keyboard-response,2
true,29,2,1,2,true,d,false,false,0.0-2.0-0.60-0.543-3.543,0,0,1,68,false,stim,false,1,468,1,0,1,75813,task3,1592672,false,true,1828,image-keyboard-response,3
true,29,1,1,1,true,z,false,false,0.0-2.0-0.60-0.544-3.544,0,0,1,90,false,stim,false,1,426,1,1,2,75813,task3,1594611,false,true,1831,image-keyboard-response,4
true,29,0,1,1,false,z,true,false,0.0-2.0-0.60-0.545-3.545,0,0,1,81,false,stim,false,2,490,1,0,0,75813,task3,1596626,false,false,1834,image-keyboard-response,5
true,29,1,1,1,true,z,false,true,0.0-2.0-0.60-0.546-3.546,0,0,1,90,false,stim,false,2,268,1,0,0,75813,task3,1598409,false,false,1837,image-keyboard-response,6
true,29,1,1,1,true,z,false,true,0.0-2.0-0.60-0.547-3.547,0,0,1,90,false,stim,false,2,409,1,0,0,75813,task3,1600353,false,false,1840,image-keyboard-response,7
true,29,2,1,2,true,d,false,false,0.0-2.0-0.60-0.548-3.548,0,0,1,68,false,stim,false,1,468,1,0,1,75813,task3,1602343,false,true,1843,image-keyboard-response,8
true,29,0,1,2,false,d,true,false,0.0-2.0-0.61-0.549-3.549,0,0,1,81,false,stim,false,1,183,1,0,1,75813,task3,1604051,false,false,1846,image-keyboard-response,9
true,29,1,1,1,true,z,false,true,0.0-2.0-0.61-0.550-3.550,0,0,1,90,false,stim,false,2,213,1,0,0,75813,task3,1605774,false,false,1849,image-keyboard-response,10
true,29,0,1,1,false,z,true,false,0.0-2.0-0.61-0.551-3.551,0,0,1,81,false,stim,false,1,525,1,1,2,75813,task3,1607820,false,false,1852,image-keyboard-response,11
true,29,2,1,1,false,z,false,false,0.0-2.0-0.61-0.552-3.552,0,0,1,68,false,stim,true,2,313,1,0,0,75813,task3,1609663,false,false,1855,image-keyboard-response,12
true,29,1,1,2,false,d,false,true,0.0-2.0-0.61-0.553-3.553,0,0,1,90,false,stim,true,1,165,1,0,1,75813,task3,1611355,false,true,1858,image-keyboard-response,13
true,29,0,1,1,false,z,true,false,0.0-2.0-0.61-0.554-3.554,0,0,1,81,false,stim,false,1,506,1,1,2,75813,task3,1613382,false,false,1861,image-keyboard-response,14
true,29,2,1,1,false,z,true,false,0.0-2.0-0.61-0.555-3.555,0,0,1,68,false,stim,false,1,121,1,1,2,75813,task3,1615021,false,false,1864,image-keyboard-response,15
true,29,1,1,1,true,z,false,false,0.0-2.0-0.61-0.556-3.556,0,0,1,90,false,stim,false,2,157,1,0,0,75813,task3,1616698,false,true,1867,image-keyboard-response,16
true,29,0,1,2,false,d,true,false,0.0-2.0-0.61-0.557-3.557,0,0,1,81,false,stim,false,1,172,1,0,1,75813,task3,1618383,false,false,1870,image-keyboard-response,17
true,29,2,1,2,true,d,false,true,0.0-2.0-0.62-0.558-3.558,0,0,1,68,false,stim,false,1,780,1,0,1,75813,task3,1620687,false,false,1873,image-keyboard-response,18
true,29,1,1,1,true,z,false,false,0.0-2.0-0.62-0.559-3.559,0,0,1,90,false,stim,false,2,635,1,0,0,75813,task3,1622859,false,true,1876,image-keyboard-response,19
true,29,0,1,1,false,z,true,false,0.0-2.0-0.62-0.560-3.560,0,0,1,81,false,stim,false,1,587,1,1,2,75813,task3,1624961,false,false,1879,image-keyboard-response,20
true,29,1,1,1,true,z,false,true,0.0-2.0-0.62-0.561-3.561,0,0,1,90,false,stim,false,2,553,1,0,0,75813,task3,1627038,false,false,1882,image-keyboard-response,21
true,29,1,1,1,true,z,false,true,0.0-2.0-0.62-0.562-3.562,0,0,1,90,false,stim,false,2,434,1,0,0,75813,task3,1628990,false,false,1885,image-keyboard-response,22
true,29,2,1,2,true,d,false,true,0.0-2.0-0.62-0.563-3.563,0,0,1,68,false,stim,false,1,452,1,0,1,75813,task3,1630968,false,false,1888,image-keyboard-response,23
true,29,0,1,1,false,z,true,false,0.0-2.0-0.62-0.564-3.564,0,0,1,81,false,stim,false,1,677,1,0,2,75813,task3,1633168,false,false,1891,image-keyboard-response,24
true,29,2,1,2,true,d,false,true,0.0-2.0-0.62-0.565-3.565,0,0,1,68,false,stim,false,1,401,1,0,1,75813,task3,1635085,false,false,1894,image-keyboard-response,25
true,29,1,1,1,true,z,false,true,0.0-2.0-0.62-0.566-3.566,0,0,1,90,false,stim,false,1,1179,1,0,2,75813,task3,1637790,false,false,1897,image-keyboard-response,26
true,29,1,1,1,true,z,false,true,0.0-2.0-0.63-0.567-3.567,0,0,1,90,false,stim,false,2,402,1,1,0,75813,task3,1639719,false,false,1900,image-keyboard-response,27
true,30,2,1,0,false,q,false,false,0.0-2.0-0.63-0.568-3.568,1,0,0,68,true,stim,true,2,610,1,0,1,75813,task3,1641872,false,false,1903,image-keyboard-response,1
true,30,1,1,1,true,z,false,false,0.0-2.0-0.63-0.569-3.569,1,0,0,90,false,stim,false,1,385,1,1,0,75813,task3,1643780,false,true,1906,image-keyboard-response,2
true,30,2,1,0,false,q,false,false,0.0-2.0-0.63-0.570-3.570,1,0,0,68,false,stim,true,2,674,1,0,1,75813,task3,1645970,false,false,1909,image-keyboard-response,3
true,30,0,1,2,false,d,true,false,0.0-2.0-0.63-0.571-3.571,1,0,0,81,false,stim,false,1,753,1,0,2,75813,task3,1648245,false,false,1912,image-keyboard-response,4
true,30,1,1,1,true,z,false,true,0.0-2.0-0.63-0.572-3.572,1,0,0,90,false,stim,false,1,684,1,1,0,75813,task3,1650450,false,false,1915,image-keyboard-response,5
true,30,1,1,2,false,d,false,false,0.0-2.0-0.63-0.573-3.573,1,0,0,90,false,stim,true,1,799,1,0,2,75813,task3,1652773,false,false,1918,image-keyboard-response,6
true,30,0,1,0,true,q,false,true,0.0-2.0-0.63-0.574-3.574,1,0,0,81,false,stim,false,2,678,1,0,1,75813,task3,1654970,false,false,1921,image-keyboard-response,7
true,30,2,1,2,true,d,false,true,0.0-2.0-0.63-0.575-3.575,1,0,0,68,false,stim,false,1,595,1,0,2,75813,task3,1657081,false,false,1924,image-keyboard-response,8
true,30,1,1,1,true,z,false,true,0.0-2.0-0.64-0.576-3.576,1,0,0,90,false,stim,false,1,662,1,1,0,75813,task3,1659273,false,false,1927,image-keyboard-response,9
true,30,0,1,0,true,q,false,false,0.0-2.0-0.64-0.577-3.577,1,0,0,81,false,stim,false,2,412,1,0,1,75813,task3,1661210,false,true,1930,image-keyboard-response,10
true,30,0,1,0,true,q,false,true,0.0-2.0-0.64-0.578-3.578,1,0,0,81,false,stim,false,2,460,1,0,1,75813,task3,1663201,false,false,1933,image-keyboard-response,11
true,30,2,1,2,true,d,false,true,0.0-2.0-0.64-0.579-3.579,1,0,0,68,false,stim,false,1,483,1,0,2,75813,task3,1665213,false,false,1936,image-keyboard-response,12
true,30,0,1,0,true,q,false,true,0.0-2.0-0.64-0.580-3.580,1,0,0,81,false,stim,false,2,752,1,0,1,75813,task3,1667493,false,false,1939,image-keyboard-response,13
true,30,1,1,1,true,z,false,true,0.0-2.0-0.64-0.581-3.581,1,0,0,90,false,stim,false,1,365,1,1,0,75813,task3,1669391,false,false,1942,image-keyboard-response,14
true,30,2,1,2,true,d,false,true,0.0-2.0-0.64-0.582-3.582,1,0,0,68,false,stim,false,1,520,1,0,2,75813,task3,1671438,false,false,1945,image-keyboard-response,15
true,30,2,1,2,true,d,false,true,0.0-2.0-0.64-0.583-3.583,1,0,0,68,false,stim,false,1,558,1,0,2,75813,task3,1673530,false,false,1948,image-keyboard-response,16
true,30,0,1,1,false,z,true,false,0.0-2.0-0.64-0.584-3.584,1,0,0,81,false,stim,false,1,564,1,1,0,75813,task3,1675622,false,false,1951,image-keyboard-response,17
true,30,1,1,1,true,z,false,true,0.0-2.0-0.65-0.585-3.585,1,0,0,90,false,stim,false,1,493,1,1,0,75813,task3,1677643,false,false,1954,image-keyboard-response,18
true,30,1,1,1,true,z,false,true,0.0-2.0-0.65-0.586-3.586,1,0,0,90,false,stim,false,1,547,1,1,0,75813,task3,1679721,false,false,1957,image-keyboard-response,19
true,30,1,1,1,true,z,false,true,0.0-2.0-0.65-0.587-3.587,1,0,0,90,false,stim,false,1,578,1,1,0,75813,task3,1681822,false,false,1960,image-keyboard-response,20
true,30,2,1,0,false,q,false,false,0.0-2.0-0.65-0.588-3.588,1,0,0,68,false,stim,true,2,433,1,0,1,75813,task3,1683781,false,false,1963,image-keyboard-response,21
true,30,2,1,2,true,d,false,true,0.0-2.0-0.65-0.589-3.589,1,0,0,68,false,stim,false,1,627,1,1,2,75813,task3,1685931,false,false,1966,image-keyboard-response,22
true,30,2,1,2,true,d,false,true,0.0-2.0-0.65-0.590-3.590,1,0,0,68,false,stim,false,1,1054,1,1,2,75813,task3,1688504,false,false,1969,image-keyboard-response,23
true,30,2,1,2,true,d,false,true,0.0-2.0-0.65-0.591-3.591,1,0,0,68,false,stim,false,1,520,1,1,2,75813,task3,1690546,false,false,1972,image-keyboard-response,24
true,30,0,1,0,true,q,false,false,0.0-2.0-0.65-0.592-3.592,1,0,0,81,false,stim,false,2,420,1,0,1,75813,task3,1692485,false,true,1975,image-keyboard-response,25
true,31,0,1,1,false,z,false,false,0.0-2.0-0.65-0.593-3.593,0,0,1,81,true,stim,true,0,522,1,0,1,75813,task3,1694523,false,false,1978,image-keyboard-response,1
true,31,2,1,2,true,d,false,true,0.0-2.0-0.66-0.594-3.594,0,0,1,68,false,stim,false,2,474,1,1,2,75813,task3,1696521,false,false,1981,image-keyboard-response,2
true,31,0,1,0,true,q,false,true,0.0-2.0-0.66-0.595-3.595,0,0,1,81,false,stim,false,1,661,1,0,0,75813,task3,1698693,false,false,1984,image-keyboard-response,3
true,31,1,1,1,true,z,false,true,0.0-2.0-0.66-0.596-3.596,0,0,1,90,false,stim,false,0,1083,1,0,1,75813,task3,1701293,false,false,1987,image-keyboard-response,4
true,31,0,1,0,true,q,false,true,0.0-2.0-0.66-0.597-3.597,0,0,1,81,false,stim,false,1,556,1,0,0,75813,task3,1703367,false,false,1990,image-keyboard-response,5
true,31,2,1,1,false,z,true,false,0.0-2.0-0.66-0.598-3.598,0,0,1,68,false,stim,false,0,563,1,0,1,75813,task3,1705441,false,false,1993,image-keyboard-response,6
true,31,0,1,2,false,d,true,false,0.0-2.0-0.66-0.599-3.599,0,0,1,81,false,stim,false,2,475,1,1,2,75813,task3,1707429,false,false,1996,image-keyboard-response,7
true,31,2,1,2,true,d,false,true,0.0-2.0-0.66-0.600-3.600,0,0,1,68,false,stim,false,2,540,1,1,2,75813,task3,1709496,false,false,1999,image-keyboard-response,8
true,31,0,1,1,false,z,false,false,0.0-2.0-0.66-0.601-3.601,0,0,1,81,false,stim,true,0,827,1,0,1,75813,task3,1711871,false,false,2002,image-keyboard-response,9
true,31,1,1,0,false,q,false,false,0.0-2.0-0.66-0.602-3.602,0,0,1,90,false,stim,true,1,498,1,0,0,75813,task3,1713905,false,false,2005,image-keyboard-response,10
true,31,0,1,1,false,z,false,false,0.0-2.0-0.67-0.603-3.603,0,0,1,81,false,stim,true,0,718,1,0,1,75813,task3,1716149,false,false,2008,image-keyboard-response,11
true,31,1,1,0,false,q,false,false,0.0-2.0-0.67-0.604-3.604,0,0,1,90,false,stim,true,1,599,1,0,0,75813,task3,1718276,false,false,2011,image-keyboard-response,12
true,31,2,1,2,true,d,false,false,0.0-2.0-0.67-0.605-3.605,0,0,1,68,false,stim,false,2,533,1,1,2,75813,task3,1720322,false,true,2014,image-keyboard-response,13
true,31,0,1,1,false,z,false,false,0.0-2.0-0.67-0.606-3.606,0,0,1,81,false,stim,true,0,564,1,0,1,75813,task3,1722419,false,false,2017,image-keyboard-response,14
true,31,0,1,0,true,q,false,true,0.0-2.0-0.67-0.607-3.607,0,0,1,81,false,stim,false,1,946,1,0,0,75813,task3,1724887,false,false,2020,image-keyboard-response,15
true,31,2,1,2,true,d,false,true,0.0-2.0-0.67-0.608-3.608,0,0,1,68,false,stim,false,2,510,1,1,2,75813,task3,1726921,false,false,2023,image-keyboard-response,16
true,31,2,1,2,true,d,false,true,0.0-2.0-0.67-0.609-3.609,0,0,1,68,false,stim,false,2,620,1,1,2,75813,task3,1729059,false,false,2026,image-keyboard-response,17
true,31,1,1,1,true,z,false,true,0.0-2.0-0.67-0.610-3.610,0,0,1,90,false,stim,false,0,857,1,0,1,75813,task3,1731442,false,false,2029,image-keyboard-response,18
true,31,0,1,0,true,q,false,true,0.0-2.0-0.67-0.611-3.611,0,0,1,81,false,stim,false,1,509,1,0,0,75813,task3,1733474,false,false,2032,image-keyboard-response,19
true,31,2,1,2,true,d,false,true,0.0-2.0-0.68-0.612-3.612,0,0,1,68,false,stim,false,2,404,1,1,2,75813,task3,1735412,false,false,2035,image-keyboard-response,20
true,31,1,1,0,false,q,false,false,0.0-2.0-0.68-0.613-3.613,0,0,1,90,false,stim,true,1,573,1,0,0,75813,task3,1737511,false,false,2038,image-keyboard-response,21
true,31,0,1,0,true,q,false,true,0.0-2.0-0.68-0.614-3.614,0,0,1,81,false,stim,false,1,498,1,1,0,75813,task3,1739530,false,false,2041,image-keyboard-response,22
true,31,1,1,1,true,z,false,true,0.0-2.0-0.68-0.615-3.615,0,0,1,90,false,stim,false,0,586,1,0,1,75813,task3,1741639,false,false,2044,image-keyboard-response,23
true,31,1,1,1,true,z,false,true,0.0-2.0-0.68-0.616-3.616,0,0,1,90,false,stim,false,0,665,1,0,1,75813,task3,1743815,false,false,2047,image-keyboard-response,24
true,31,0,1,0,true,q,false,true,0.0-2.0-0.68-0.617-3.617,0,0,1,81,false,stim,false,1,529,1,1,0,75813,task3,1745866,false,false,2050,image-keyboard-response,25
true,31,2,1,2,true,d,false,true,0.0-2.0-0.68-0.618-3.618,0,0,1,68,false,stim,false,2,594,1,1,2,75813,task3,1747991,false,false,2053,image-keyboard-response,26
true,32,0,2,0,true,q,false,true,0.0-2.0-0.68-0.619-3.619,1,0,1,81,true,stim,false,1,1041,1,0,1,75813,task3,1750550,false,false,2056,image-keyboard-response,1
true,32,2,2,2,true,d,false,true,0.0-2.0-0.68-0.620-3.620,1,0,1,68,false,stim,false,2,693,1,1,2,75813,task3,1752768,false,false,2059,image-keyboard-response,2
true,32,2,2,2,true,d,false,true,0.0-2.0-0.69-0.621-3.621,1,0,1,68,false,stim,false,2,929,1,1,2,75813,task3,1755215,false,false,2062,image-keyboard-response,3
true,32,2,2,2,true,d,false,true,0.0-2.0-0.69-0.622-3.622,1,0,1,68,false,stim,false,2,402,1,1,2,75813,task3,1757143,false,false,2065,image-keyboard-response,4
true,32,0,2,0,true,q,false,true,0.0-2.0-0.69-0.623-3.623,1,0,1,81,false,stim,false,1,589,1,0,1,75813,task3,1759261,false,false,2068,image-keyboard-response,5
true,32,1,2,0,false,q,true,false,0.0-2.0-0.69-0.624-3.624,1,0,1,90,false,stim,false,0,518,1,1,0,75813,task3,1761304,false,false,2071,image-keyboard-response,6
true,32,1,2,0,false,q,true,false,0.0-2.0-0.69-0.625-3.625,1,0,1,90,false,stim,false,0,386,1,1,0,75813,task3,1763203,false,false,2074,image-keyboard-response,7
true,32,0,2,0,true,q,false,true,0.0-2.0-0.69-0.626-3.626,1,0,1,81,false,stim,false,1,812,1,0,1,75813,task3,1765541,false,false,2077,image-keyboard-response,8
true,32,0,2,0,true,q,false,true,0.0-2.0-0.69-0.627-3.627,1,0,1,81,false,stim,false,1,859,1,0,1,75813,task3,1767928,false,false,2080,image-keyboard-response,9
true,32,2,2,0,false,q,true,false,0.0-2.0-0.69-0.628-3.628,1,0,1,68,false,stim,false,0,664,1,1,0,75813,task3,1770110,false,false,2083,image-keyboard-response,10
true,32,2,2,2,true,d,false,true,0.0-2.0-0.69-0.629-3.629,1,0,1,68,false,stim,false,2,458,1,1,2,75813,task3,1772098,false,false,2086,image-keyboard-response,11
true,32,2,2,2,true,d,false,true,0.0-2.0-0.70-0.630-3.630,1,0,1,68,false,stim,false,2,559,1,1,2,75813,task3,1774171,false,false,2089,image-keyboard-response,12
true,32,1,2,0,false,q,false,true,0.0-2.0-0.70-0.631-3.631,1,0,1,90,false,stim,true,1,537,1,1,1,75813,task3,1776230,false,true,2092,image-keyboard-response,13
true,32,0,2,0,true,q,false,true,0.0-2.0-0.70-0.632-3.632,1,0,1,81,false,stim,false,0,403,1,0,0,75813,task3,1778159,false,false,2095,image-keyboard-response,14
true,32,0,2,0,true,q,false,true,0.0-2.0-0.70-0.633-3.633,1,0,1,81,false,stim,false,1,629,1,1,1,75813,task3,1780308,false,false,2098,image-keyboard-response,15
