answered,blockNum,choice,condition,corResp,correct,correct_response,explo,fb,internal_node_id,isStable_1,isStable_2,isStable_3,key_press,newBlock,part,persev,persevResp,rt,sessNum,stableAS,stimulus,subject,task,time_elapsed,training,trap,trial_index,trial_type,trialsInBlock
true,1,0,0,2,false,d,true,false,0.0-2.0-0.0-0.0-3.0,0,0,0,81,true,stim,false,-1,1153,0,0,0,75813,task2,256766,false,false,124,image-keyboard-response,1
true,1,1,0,2,false,d,true,false,0.0-2.0-0.0-0.1-3.1,0,0,0,90,false,stim,false,-1,1504,0,0,2,75813,task2,259806,false,false,127,image-keyboard-response,2
true,1,2,0,1,false,z,true,false,0.0-2.0-0.0-0.2-3.2,0,0,0,68,false,stim,false,-1,1692,0,0,1,75813,task2,263033,false,false,130,image-keyboard-response,3
true,1,1,0,2,false,d,true,false,0.0-2.0-0.0-0.3-3.3,0,0,0,90,false,stim,false,-1,1964,0,0,2,75813,task2,266527,false,false,133,image-keyboard-response,4
true,1,2,0,2,true,d,false,true,0.0-2.0-0.0-0.4-3.4,0,0,0,68,false,stim,false,-1,1266,0,0,2,75813,task2,269324,false,false,136,image-keyboard-response,5
true,1,0,0,2,false,d,true,false,0.0-2.0-0.0-0.5-3.5,0,0,0,81,false,stim,false,-1,1012,0,0,0,75813,task2,271864,false,false,139,image-keyboard-response,6
true,1,0,0,1,false,z,true,true,0.0-2.0-0.0-0.6-3.6,0,0,0,81,false,stim,false,-1,1168,0,0,1,75813,task2,274571,false,true,142,image-keyboard-response,7
true,1,0,0,1,false,z,true,false,0.0-2.0-0.0-0.7-3.7,0,0,0,81,false,stim,false,-1,632,0,0,1,75813,task2,276746,false,false,145,image-keyboard-response,8
true,1,1,0,2,false,d,true,false,0.0-2.0-0.0-0.8-3.8,0,0,0,90,false,stim,false,-1,952,0,0,0,75813,task2,279226,false,false,148,image-keyboard-response,9
true,1,0,0,2,false,d,true,false,0.0-2.0-0.1-0.9-3.9,0,0,0,81,false,stim,false,-1,1342,0,0,0,75813,task2,282097,false,false,151,image-keyboard-response,10
true,1,2,0,2,true,d,false,true,0.0-2.0-0.1-0.10-3.10,0,0,0,68,false,stim,false,-1,540,0,0,2,75813,task2,284174,false,false,154,image-keyboard-response,11
true,1,2,0,1,false,z,true,false,0.0-2.0-0.1-0.11-3.11,0,0,0,68,false,stim,false,-1,791,0,0,1,75813,task2,286494,false,false,157,image-keyboard-response,12
true,1,1,0,1,true,z,false,true,0.0-2.0-0.1-0.12-3.12,0,0,0,90,false,stim,false,-1,653,0,0,1,75813,task2,288675,false,false,160,image-keyboard-response,13
true,1,0,0,2,false,d,true,false,0.0-2.0-0.1-0.13-3.13,0,0,0,81,false,stim,false,-1,1265,0,0,2,75813,task2,291467,false,false,163,image-keyboard-response,14
true,1,1,0,2,false,d,true,false,0.0-2.0-0.1-0.14-3.14,0,0,0,90,false,stim,false,-1,2024,0,0,0,75813,task2,295026,false,false,166,image-keyboard-response,15
true,1,2,0,2,true,d,false,true,0.0-2.0-0.1-0.15-3.15,0,0,0,68,false,stim,false,-1,2115,0,0,2,75813,task2,298658,false,false,169,image-keyboard-response,16
true,1,0,0,2,false,d,true,false,0.0-2.0-0.1-0.16-3.16,0,0,0,81,false,stim,false,-1,2889,0,0,0,75813,task2,303082,false,false,172,image-keyboard-response,17
true,1,1,0,1,true,z,false,true,0.0-2.0-0.1-0.17-3.17,0,0,0,90,false,stim,false,-1,2619,0,0,1,75813,task2,307231,false,false,175,image-keyboard-response,18
true,1,2,0,2,true,d,false,false,0.0-2.0-0.2-0.18-3.18,0,0,0,68,false,stim,false,-1,943,0,0,2,75813,task2,309708,false,true,178,image-keyboard-response,19
true,1,1,0,1,true,z,false,true,0.0-2.0-0.2-0.19-3.19,0,0,0,90,false,stim,false,-1,1132,0,0,1,75813,task2,312376,false,false,181,image-keyboard-response,20
true,1,0,0,2,false,d,true,false,0.0-2.0-0.2-0.20-3.20,0,0,0,81,false,stim,false,-1,2446,0,0,0,75813,task2,316348,false,false,184,image-keyboard-response,21
true,1,2,0,2,true,d,false,true,0.0-2.0-0.2-0.21-3.21,0,0,0,68,false,stim,false,-1,2266,0,0,2,75813,task2,320134,false,false,187,image-keyboard-response,22
true,1,1,0,1,true,z,false,true,0.0-2.0-0.2-0.22-3.22,0,0,0,90,false,stim,false,-1,913,0,0,1,75813,task2,322576,false,false,190,image-keyboard-response,23
true,1,0,0,2,false,d,true,false,0.0-2.0-0.2-0.23-3.23,0,0,0,81,false,stim,false,-1,673,0,1,0,75813,task2,324786,false,false,193,image-keyboard-response,24
true,1,1,0,2,false,d,true,false,0.0-2.0-0.2-0.24-3.24,0,0,0,90,false,stim,false,-1,1293,0,1,0,75813,task2,327606,false,false,196,image-keyboard-response,25
true,1,2,0,2,true,d,false,true,0.0-2.0-0.2-0.25-3.25,0,0,0,68,false,stim,false,-1,903,0,0,2,75813,task2,330035,false,false,199,image-keyboard-response,26
true,2,1,2,2,false,d,false,false,0.0-2.0-0.2-0.26-3.26,1,0,0,90,true,stim,true,1,563,0,0,1,75813,task2,332125,false,false,202,image-keyboard-response,1
true,2,0,2,2,false,d,true,false,0.0-2.0-0.3-0.27-3.27,1,0,0,81,false,stim,false,1,904,0,0,1,75813,task2,334568,false,false,205,image-keyboard-response,2
true,2,2,2,0,false,q,false,false,0.0-2.0-0.3-0.28-3.28,1,0,0,68,false,stim,true,2,647,0,0,2,75813,task2,336741,false,false,208,image-keyboard-response,3
true,2,2,2,2,true,d,false,true,0.0-2.0-0.3-0.29-3.29,1,0,0,68,false,stim,false,1,1507,0,0,1,75813,task2,339775,false,false,211,image-keyboard-response,4
true,2,2,2,2,true,d,false,true,0.0-2.0-0.3-0.30-3.30,1,0,0,68,false,stim,false,1,1382,0,0,1,75813,task2,342693,false,false,214,image-keyboard-response,5
true,2,1,2,2,false,d,true,false,0.0-2.0-0.3-0.31-3.31,1,0,0,90,false,stim,false,2,2740,0,1,0,75813,task2,346963,false,false,217,image-keyboard-response,6
true,2,0,2,2,false,d,true,false,0.0-2.0-0.3-0.32-3.32,1,0,0,81,false,stim,false,2,1036,0,1,0,75813,task2,349538,false,false,220,image-keyboard-response,7
true,2,2,2,0,false,q,false,false,0.0-2.0-0.3-0.33-3.33,1,0,0,68,false,stim,true,2,1115,0,0,2,75813,task2,352168,false,false,223,image-keyboard-response,8
true,2,1,2,0,false,q,true,false,0.0-2.0-0.3-0.34-3.34,1,0,0,90,false,stim,false,2,1324,0,0,2,75813,task2,355017,false,false,226,image-keyboard-response,9
true,2,2,2,2,true,d,false,true,0.0-2.0-0.3-0.35-3.35,1,0,0,68,false,stim,false,2,1877,0,1,0,75813,task2,358419,false,false,229,image-keyboard-response,10
true,2,2,2,2,true,d,false,true,0.0-2.0-0.4-0.36-3.36,1,0,0,68,false,stim,false,2,673,0,1,0,75813,task2,360617,false,false,232,image-keyboard-response,11
true,2,2,2,0,false,q,false,false,0.0-2.0-0.4-0.37-3.37,1,0,0,68,false,stim,true,2,936,0,0,2,75813,task2,363099,false,false,235,image-keyboard-response,12
true,2,0,2,0,true,q,false,true,0.0-2.0-0.4-0.38-3.38,1,0,0,81,false,stim,false,2,1110,0,0,2,75813,task2,365732,false,false,238,image-keyboard-response,13
true,2,2,2,2,true,d,false,true,0.0-2.0-0.4-0.39-3.39,1,0,0,68,false,stim,false,2,711,0,1,0,75813,task2,367974,false,false,241,image-keyboard-response,14
true,2,1,2,2,false,d,false,true,0.0-2.0-0.4-0.40-3.40,1,0,0,90,false,stim,true,1,1493,0,0,1,75813,task2,370995,false,true,244,image-keyboard-response,15
true,2,1,2,2,false,d,false,false,0.0-2.0-0.4-0.41-3.41,1,0,0,90,false,stim,true,1,543,0,0,1,75813,task2,373065,false,false,247,image-keyboard-response,16
true,2,0,2,2,false,d,true,false,0.0-2.0-0.4-0.42-3.42,1,0,0,81,false,stim,false,2,1011,0,1,0,75813,task2,375603,false,false,250,image-keyboard-response,17
true,2,1,2,0,false,q,true,false,0.0-2.0-0.4-0.43-3.43,1,0,0,90,false,stim,false,2,2393,0,0,2,75813,task2,379526,false,false,253,image-keyboard-response,18
true,2,0,2,2,false,d,true,false,0.0-2.0-0.4-0.44-3.44,1,0,0,81,false,stim,false,1,2291,0,0,1,75813,task2,383355,false,false,256,image-keyboard-response,19
true,2,1,2,2,false,d,true,false,0.0-2.0-0.5-0.45-3.45,1,0,0,90,false,stim,false,2,540,0,1,0,75813,task2,385424,false,false,259,image-keyboard-response,20
true,2,2,2,0,false,q,false,false,0.0-2.0-0.5-0.46-3.46,1,0,0,68,false,stim,true,2,1291,0,0,2,75813,task2,388254,false,false,262,image-keyboard-response,21
true,2,1,2,0,false,q,true,false,0.0-2.0-0.5-0.47-3.47,1,0,0,90,false,stim,false,2,739,0,0,2,75813,task2,390531,false,false,265,image-keyboard-response,22
true,2,0,2,2,false,d,true,false,0.0-2.0-0.5-0.48-3.48,1,0,0,81,false,stim,false,1,1258,0,0,1,75813,task2,393331,false,false,268,image-keyboard-response,23
true,2,1,2,2,false,d,false,false,0.0-2.0-0.5-0.49-3.49,1,0,0,90,false,stim,true,1,635,0,0,1,75813,task2,395488,false,false,271,image-keyboard-response,24
true,2,1,2,2,false,d,true,false,0.0-2.0-0.5-0.50-3.50,1,0,0,90,false,stim,false,2,1741,0,1,0,75813,task2,398753,false,false,274,image-keyboard-response,25
true,2,0,2,2,false,d,true,false,0.0-2.0-0.5-0.51-3.51,1,0,0,81,false,stim,false,2,351,0,1,0,75813,task2,400633,false,false,277,image-keyboard-response,26
true,2,2,2,2,true,d,false,true,0.0-2.0-0.5-0.52-3.52,1,0,0,68,false,stim,false,1,349,0,0,1,75813,task2,402511,false,false,280,image-keyboard-response,27
true,2,2,2,0,false,q,false,false,0.0-2.0-0.5-0.53-3.53,1,0,0,68,false,stim,true,2,421,0,0,2,75813,task2,404465,false,false,283,image-keyboard-response,28
true,2,2,2,2,true,d,false,true,0.0-2.0-0.6-0.54-3.54,1,0,0,68,false,stim,false,2,476,0,0,0,75813,task2,406479,false,false,286,image-keyboard-response,29
true,2,1,2,0,false,q,true,false,0.0-2.0-0.6-0.55-3.55,1,0,0,90,false,stim,false,2,1804,0,0,2,75813,task2,409807,false,false,289,image-keyboard-response,30
true,2,2,2,2,true,d,false,true,0.0-2.0-0.6-0.56-3.56,1,0,0,68,false,stim,false,1,1378,0,0,1,75813,task2,412721,false,false,292,image-keyboard-response,31
true,2,2,2,2,true,d,false,true,0.0-2.0-0.6-0.57-3.57,1,0,0,68,false,stim,false,2,512,0,0,0,75813,task2,414776,false,false,295,image-keyboard-response,32
true,2,0,2,2,false,d,true,false,0.0-2.0-0.6-0.58-3.58,1,0,0,81,false,stim,false,1,337,0,0,1,75813,task2,416640,false,false,298,image-keyboard-response,33
true,3,2,1,1,false,z,false,true,0.0-2.0-0.6-0.59-3.59,0,0,0,68,true,stim,true,2,571,0,0,1,75813,task2,418733,false,true,301,image-keyboard-response,1
true,3,2,1,2,true,d,false,true,0.0-2.0-0.6-0.60-3.60,0,0,0,68,false,stim,false,0,360,0,0,2,75813,task2,420619,false,false,304,image-keyboard-response,2
true,3,2,1,0,false,q,false,false,0.0-2.0-0.6-0.61-3.61,0,0,0,68,false,stim,true,2,293,0,0,0,75813,task2,422436,false,false,307,image-keyboard-response,3
true,3,2,1,2,true,d,false,true,0.0-2.0-0.6-0.62-3.62,0,0,0,68,false,stim,false,0,444,0,0,2,75813,task2,424405,false,false,310,image-keyboard-response,4
true,3,1,1,0,false,q,true,false,0.0-2.0-0.7-0.63-3.63,0,0,0,90,false,stim,false,2,698,0,0,0,75813,task2,426633,false,false,313,image-keyboard-response,5
true,3,0,1,0,true,q,false,true,0.0-2.0-0.7-0.64-3.64,0,0,0,81,false,stim,false,2,455,0,0,0,75813,task2,428626,false,false,316,image-keyboard-response,6
true,3,2,1,2,true,d,false,true,0.0-2.0-0.7-0.65-3.65,0,0,0,68,false,stim,false,0,369,0,0,2,75813,task2,430522,false,false,319,image-keyboard-response,7
true,3,2,1,2,true,d,false,true,0.0-2.0-0.7-0.66-3.66,0,0,0,68,false,stim,false,0,785,0,0,2,75813,task2,432836,false,false,322,image-keyboard-response,8
true,3,2,1,2,true,d,false,true,0.0-2.0-0.7-0.67-3.67,0,0,0,68,false,stim,false,0,735,0,0,2,75813,task2,435099,false,false,325,image-keyboard-response,9
true,3,0,1,0,true,q,false,true,0.0-2.0-0.7-0.68-3.68,0,0,0,81,false,stim,false,2,424,0,0,0,75813,task2,437058,false,false,328,image-keyboard-response,10
true,3,2,1,1,false,z,false,true,0.0-2.0-0.7-0.69-3.69,0,0,0,68,false,stim,true,2,493,0,0,1,75813,task2,439075,false,true,331,image-keyboard-response,11
true,3,2,1,1,false,z,false,false,0.0-2.0-0.7-0.70-3.70,0,0,0,68,false,stim,true,2,467,0,0,1,75813,task2,441070,false,false,334,image-keyboard-response,12
false,3,-1,1,1,false,z,true,false,0.0-2.0-0.7-0.71-3.71,0,0,0,,false,stim,false,2,,0,0,1,75813,task2,445621,false,false,337,image-keyboard-response,13
true,3,2,1,2,true,d,false,true,0.0-2.0-0.8-0.72-3.72,0,0,0,68,false,stim,false,0,1287,0,0,2,75813,task2,448449,false,false,340,image-keyboard-response,14
true,3,0,1,0,true,q,false,true,0.0-2.0-0.8-0.73-3.73,0,0,0,81,false,stim,false,2,1734,0,0,0,75813,task2,451708,false,false,343,image-keyboard-response,15
true,3,0,1,0,true,q,false,true,0.0-2.0-0.8-0.74-3.74,0,0,0,81,false,stim,false,2,523,0,0,0,75813,task2,453750,false,false,346,image-keyboard-response,16
true,3,1,1,1,true,z,false,true,0.0-2.0-0.8-0.75-3.75,0,0,0,90,false,stim,false,2,336,0,0,1,75813,task2,455609,false,false,349,image-keyboard-response,17
true,3,1,1,1,true,z,false,true,0.0-2.0-0.8-0.76-3.76,0,0,0,90,false,stim,false,2,486,0,0,1,75813,task2,457619,false,false,352,image-keyboard-response,18
true,3,2,1,2,true,d,false,true,0.0-2.0-0.8-0.77-3.77,0,0,0,68,false,stim,false,0,616,0,0,2,75813,task2,459770,false,false,355,image-keyboard-response,19
true,3,1,1,1,true,z,false,true,0.0-2.0-0.8-0.78-3.78,0,0,0,90,false,stim,false,2,1768,0,0,1,75813,task2,463060,false,false,358,image-keyboard-response,20
true,3,2,1,2,true,d,false,true,0.0-2.0-0.8-0.79-3.79,0,0,0,68,false,stim,false,0,547,0,0,2,75813,task2,465139,false,false,361,image-keyboard-response,21
true,3,0,1,0,true,q,false,true,0.0-2.0-0.8-0.80-3.80,0,0,0,81,false,stim,false,2,495,0,0,0,75813,task2,467157,false,false,364,image-keyboard-response,22
true,3,1,1,1,true,z,false,true,0.0-2.0-0.9-0.81-3.81,0,0,0,90,false,stim,false,2,996,0,0,1,75813,task2,469681,false,false,367,image-keyboard-response,23
true,3,1,1,1,true,z,false,true,0.0-2.0-0.9-0.82-3.82,0,0,0,90,false,stim,false,2,473,0,0,1,75813,task2,471696,false,false,370,image-keyboard-response,24
true,3,2,1,2,true,d,false,true,0.0-2.0-0.9-0.83-3.83,0,0,0,68,false,stim,false,0,1034,0,0,2,75813,task2,474256,false,false,373,image-keyboard-response,25
true,3,2,1,2,true,d,false,true,0.0-2.0-0.9-0.84-3.84,0,0,0,68,false,stim,false,0,927,0,0,2,75813,task2,476711,false,false,376,image-keyboard-response,26
true,3,1,1,0,false,q,true,false,0.0-2.0-0.9-0.85-3.85,0,0,0,90,false,stim,false,2,1008,0,0,0,75813,task2,479250,false,false,379,image-keyboard-response,27
true,3,0,1,0,true,q,false,true,0.0-2.0-0.9-0.86-3.86,0,0,0,81,false,stim,false,2,582,0,0,0,75813,task2,481364,false,false,382,image-keyboard-response,28
true,3,0,1,2,false,d,false,false,0.0-2.0-0.9-0.87-3.87,0,0,0,81,false,stim,true,0,590,0,0,2,75813,task2,483474,false,false,385,image-keyboard-response,29
true,3,1,1,1,true,z,false,false,0.0-2.0-0.9-0.88-3.88,0,0,0,90,false,stim,false,2,2047,0,0,1,75813,task2,487051,false,true,388,image-keyboard-response,30
true,3,0,1,0,true,q,false,true,0.0-2.0-0.9-0.89-3.89,0,0,0,81,false,stim,false,2,762,0,0,0,75813,task2,489357,false,false,391,image-keyboard-response,31
true,3,2,1,2,true,d,false,true,0.0-2.0-0.10-0.90-3.90,0,0,0,68,false,stim,false,0,409,0,0,2,75813,task2,491302,false,false,394,image-keyboard-response,32
true,3,0,1,0,true,q,false,true,0.0-2.0-0.10-0.91-3.91,0,0,0,81,false,stim,false,2,1404,0,0,0,75813,task2,494237,false,false,397,image-keyboard-response,33
true,3,1,1,1,true,z,false,true,0.0-2.0-0.10-0.92-3.92,0,0,0,90,false,stim,false,2,367,0,0,1,75813,task2,496140,false,false,400,image-keyboard-response,34
true,3,0,1,0,true,q,false,true,0.0-2.0-0.10-0.93-3.93,0,0,0,81,false,stim,false,2,515,0,0,0,75813,task2,498197,false,false,403,image-keyboard-response,35
true,3,1,1,1,true,z,false,true,0.0-2.0-0.10-0.94-3.94,0,0,0,90,false,stim,false,2,556,0,0,1,75813,task2,500279,false,false,406,image-keyboard-response,36
true,3,0,1,0,true,q,false,true,0.0-2.0-0.10-0.95-3.95,0,0,0,81,false,stim,false,2,531,0,0,0,75813,task2,502334,false,false,409,image-keyboard-response,37
true,4,2,2,2,true,d,false,true,0.0-2.0-0.10-0.96-3.96,0,0,1,68,true,stim,false,2,841,0,1,2,75813,task2,504703,false,false,412,image-keyboard-response,1
true,4,2,2,2,true,d,false,true,0.0-2.0-0.10-0.97-3.97,0,0,1,68,false,stim,false,2,653,0,1,2,75813,task2,506885,false,false,415,image-keyboard-response,2
true,4,2,2,0,false,q,true,false,0.0-2.0-0.10-0.98-3.98,0,0,1,68,false,stim,false,1,651,0,0,1,75813,task2,509065,false,false,418,image-keyboard-response,3
true,4,1,2,0,false,q,false,false,0.0-2.0-0.11-0.99-3.99,0,0,1,90,false,stim,true,1,1625,0,0,1,75813,task2,512218,false,false,421,image-keyboard-response,4
true,4,0,2,1,false,z,false,false,0.0-2.0-0.11-0.100-3.100,0,0,1,81,false,stim,true,0,749,0,0,0,75813,task2,514501,false,false,424,image-keyboard-response,5
true,4,1,2,1,true,z,false,true,0.0-2.0-0.11-0.101-3.101,0,0,1,90,false,stim,false,0,734,0,0,0,75813,task2,516766,false,false,427,image-keyboard-response,6
true,4,2,2,2,true,d,false,true,0.0-2.0-0.11-0.102-3.102,0,0,1,68,false,stim,false,2,1088,0,1,2,75813,task2,519391,false,false,430,image-keyboard-response,7
true,4,1,2,1,true,z,false,true,0.0-2.0-0.11-0.103-3.103,0,0,1,90,false,stim,false,0,686,0,0,0,75813,task2,521609,false,false,433,image-keyboard-response,8
true,4,0,2,0,true,q,false,true,0.0-2.0-0.11-0.104-3.104,0,0,1,81,false,stim,false,1,1048,0,0,1,75813,task2,524181,false,false,436,image-keyboard-response,9
true,4,2,2,2,true,d,false,false,0.0-2.0-0.11-0.105-3.105,0,0,1,68,false,stim,false,2,797,0,1,2,75813,task2,526502,false,true,439,image-keyboard-response,10
true,4,0,2,0,true,q,false,true,0.0-2.0-0.11-0.106-3.106,0,0,1,81,false,stim,false,1,723,0,0,1,75813,task2,528766,false,false,442,image-keyboard-response,11
true,4,1,2,2,false,d,true,false,0.0-2.0-0.11-0.107-3.107,0,0,1,90,false,stim,false,2,760,0,1,2,75813,task2,531063,false,false,445,image-keyboard-response,12
true,4,2,2,2,true,d,false,true,0.0-2.0-0.12-0.108-3.108,0,0,1,68,false,stim,false,2,844,0,1,2,75813,task2,533436,false,false,448,image-keyboard-response,13
true,4,2,2,2,true,d,false,true,0.0-2.0-0.12-0.109-3.109,0,0,1,68,false,stim,false,2,516,0,1,2,75813,task2,535488,false,false,451,image-keyboard-response,14
true,4,0,2,0,true,q,false,true,0.0-2.0-0.12-0.110-3.110,0,0,1,81,false,stim,false,1,1121,0,0,1,75813,task2,538134,false,false,454,image-keyboard-response,15
true,4,2,2,2,true,d,false,true,0.0-2.0-0.12-0.111-3.111,0,0,1,68,false,stim,false,2,794,0,1,2,75813,task2,540467,false,false,457,image-keyboard-response,16
true,4,0,2,0,true,q,false,true,0.0-2.0-0.12-0.112-3.112,0,0,1,81,false,stim,false,1,867,0,0,1,75813,task2,542852,false,false,460,image-keyboard-response,17
true,4,0,2,0,true,q,false,true,0.0-2.0-0.12-0.113-3.113,0,0,1,81,false,stim,false,1,682,0,0,1,75813,task2,545050,false,false,463,image-keyboard-response,18
true,4,1,2,1,true,z,false,true,0.0-2.0-0.12-0.114-3.114,0,0,1,90,false,stim,false,0,701,0,0,0,75813,task2,547275,false,false,466,image-keyboard-response,19
true,4,1,2,1,true,z,false,true,0.0-2.0-0.12-0.115-3.115,0,0,1,90,false,stim,false,0,532,0,0,0,75813,task2,549346,false,false,469,image-keyboard-response,20
true,4,1,2,1,true,z,false,true,0.0-2.0-0.12-0.116-3.116,0,0,1,90,false,stim,false,0,686,0,0,0,75813,task2,551560,false,false,472,image-keyboard-response,21
true,4,1,2,1,true,z,false,true,0.0-2.0-0.13-0.117-3.117,0,0,1,90,false,stim,false,0,577,0,0,0,75813,task2,553680,false,false,475,image-keyboard-response,22
true,4,1,2,1,true,z,false,true,0.0-2.0-0.13-0.118-3.118,0,0,1,90,false,stim,false,0,404,0,0,0,75813,task2,555606,false,false,478,image-keyboard-response,23
true,4,0,2,0,true,q,false,true,0.0-2.0-0.13-0.119-3.119,0,0,1,81,false,stim,false,1,1043,0,0,1,75813,task2,558177,false,false,481,image-keyboard-response,24
true,4,1,2,1,true,z,false,true,0.0-2.0-0.13-0.120-3.120,0,0,1,90,false,stim,false,0,648,0,0,0,75813,task2,560362,false,false,484,image-keyboard-response,25
true,4,2,2,2,true,d,false,true,0.0-2.0-0.13-0.121-3.121,0,0,1,68,false,stim,false,2,574,0,1,2,75813,task2,562466,false,false,487,image-keyboard-response,26
true,4,0,2,0,true,q,false,true,0.0-2.0-0.13-0.122-3.122,0,0,1,81,false,stim,false,1,1797,0,0,1,75813,task2,565781,false,false,490,image-keyboard-response,27
true,4,0,2,0,true,q,false,true,0.0-2.0-0.13-0.123-3.123,0,0,1,81,false,stim,false,1,630,0,0,1,75813,task2,567934,false,false,493,image-keyboard-response,28
true,4,2,2,2,true,d,false,false,0.0-2.0-0.13-0.124-3.124,0,0,1,68,false,stim,false,2,734,0,1,2,75813,task2,570207,false,true,496,image-keyboard-response,29
true,4,1,2,2,false,d,true,false,0.0-2.0-0.13-0.125-3.125,0,0,1,90,false,stim,false,2,709,0,1,2,75813,task2,572441,false,false,499,image-keyboard-response,30
true,4,0,2,1,false,z,false,false,0.0-2.0-0.14-0.126-3.126,0,0,1,81,false,stim,true,0,1017,0,0,0,75813,task2,574981,false,false,502,image-keyboard-response,31
true,4,0,2,2,false,d,true,false,0.0-2.0-0.14-0.127-3.127,0,0,1,81,false,stim,false,2,717,0,0,2,75813,task2,577241,false,false,505,image-keyboard-response,32
true,4,1,2,1,true,z,false,true,0.0-2.0-0.14-0.128-3.128,0,0,1,90,false,stim,false,0,692,0,0,0,75813,task2,579476,false,false,508,image-keyboard-response,33
true,4,0,2,0,true,q,false,true,0.0-2.0-0.14-0.129-3.129,0,0,1,81,false,stim,false,1,1534,0,0,1,75813,task2,582537,false,false,511,image-keyboard-response,34
true,4,1,2,1,true,z,false,true,0.0-2.0-0.14-0.130-3.130,0,0,1,90,false,stim,false,0,768,0,0,0,75813,task2,584831,false,false,514,image-keyboard-response,35
true,5,2,1,1,false,z,false,false,0.0-2.0-0.14-0.131-3.131,0,0,0,68,true,stim,true,2,1421,0,0,2,75813,task2,587794,false,false,517,image-keyboard-response,1
true,5,0,1,1,false,z,false,false,0.0-2.0-0.14-0.132-3.132,0,0,0,81,false,stim,true,0,1368,0,0,1,75813,task2,590679,false,false,520,image-keyboard-response,2
true,5,1,1,1,true,z,false,true,0.0-2.0-0.14-0.133-3.133,0,0,0,90,false,stim,false,0,402,0,0,1,75813,task2,592616,false,false,523,image-keyboard-response,3
true,5,1,1,1,true,z,false,true,0.0-2.0-0.14-0.134-3.134,0,0,0,90,false,stim,false,2,903,0,0,2,75813,task2,595055,false,false,526,image-keyboard-response,4
true,5,1,1,1,true,z,false,true,0.0-2.0-0.15-0.135-3.135,0,0,0,90,false,stim,false,0,431,0,0,1,75813,task2,597024,false,false,529,image-keyboard-response,5
true,5,1,1,1,true,z,false,true,0.0-2.0-0.15-0.136-3.136,0,0,0,90,false,stim,false,2,372,0,0,2,75813,task2,598925,false,false,532,image-keyboard-response,6
true,5,1,1,1,true,z,false,true,0.0-2.0-0.15-0.137-3.137,0,0,0,90,false,stim,false,2,398,0,0,2,75813,task2,600860,false,false,535,image-keyboard-response,7
true,5,1,1,1,true,z,false,false,0.0-2.0-0.15-0.138-3.138,0,0,0,90,false,stim,false,0,414,0,0,1,75813,task2,602805,false,true,538,image-keyboard-response,8
true,5,0,1,0,true,q,false,true,0.0-2.0-0.15-0.139-3.139,0,0,0,81,false,stim,false,1,943,0,0,0,75813,task2,605276,false,false,541,image-keyboard-response,9
true,5,0,1,0,true,q,false,true,0.0-2.0-0.15-0.140-3.140,0,0,0,81,false,stim,false,1,568,0,0,0,75813,task2,607381,false,false,544,image-keyboard-response,10
true,5,1,1,1,true,z,false,true,0.0-2.0-0.15-0.141-3.141,0,0,0,90,false,stim,false,0,1807,0,0,1,75813,task2,610730,false,false,547,image-keyboard-response,11
true,5,0,1,0,true,q,false,true,0.0-2.0-0.15-0.142-3.142,0,0,0,81,false,stim,false,1,586,0,0,0,75813,task2,612850,false,false,550,image-keyboard-response,12
true,5,2,1,1,false,z,false,false,0.0-2.0-0.15-0.143-3.143,0,0,0,68,false,stim,true,2,759,0,0,2,75813,task2,615143,false,false,553,image-keyboard-response,13
true,5,1,1,1,true,z,false,false,0.0-2.0-0.16-0.144-3.144,0,0,0,90,false,stim,false,0,823,0,0,1,75813,task2,617506,false,true,556,image-keyboard-response,14
true,5,0,1,1,false,z,true,false,0.0-2.0-0.16-0.145-3.145,0,0,0,81,false,stim,false,2,1011,0,0,2,75813,task2,620054,false,false,559,image-keyboard-response,15
true,5,0,1,0,true,q,false,false,0.0-2.0-0.16-0.146-3.146,0,0,0,81,false,stim,false,1,736,0,0,0,75813,task2,622330,false,true,562,image-keyboard-response,16
true,5,1,1,1,true,z,false,true,0.0-2.0-0.16-0.147-3.147,0,0,0,90,false,stim,false,2,672,0,0,2,75813,task2,624536,false,false,565,image-keyboard-response,17
true,5,1,1,1,true,z,false,true,0.0-2.0-0.16-0.148-3.148,0,0,0,90,false,stim,false,2,403,0,0,2,75813,task2,626465,false,false,568,image-keyboard-response,18
true,5,0,1,1,false,z,false,true,0.0-2.0-0.16-0.149-3.149,0,0,0,81,false,stim,true,0,1640,0,0,1,75813,task2,629644,false,true,571,image-keyboard-response,19
true,5,2,1,0,false,q,true,true,0.0-2.0-0.16-0.150-3.150,0,0,0,68,false,stim,false,1,1342,0,0,0,75813,task2,632525,false,true,574,image-keyboard-response,20
true,5,2,1,0,false,q,true,false,0.0-2.0-0.16-0.151-3.151,0,0,0,68,false,stim,false,1,457,0,0,0,75813,task2,634521,false,false,577,image-keyboard-response,21
true,5,1,1,1,true,z,false,true,0.0-2.0-0.16-0.152-3.152,0,0,0,90,false,stim,false,0,1743,0,0,1,75813,task2,637796,false,false,580,image-keyboard-response,22
true,5,1,1,1,true,z,false,true,0.0-2.0-0.17-0.153-3.153,0,0,0,90,false,stim,false,0,531,0,0,1,75813,task2,639856,false,false,583,image-keyboard-response,23
true,5,1,1,1,true,z,false,true,0.0-2.0-0.17-0.154-3.154,0,0,0,90,false,stim,false,0,395,0,0,1,75813,task2,641775,false,false,586,image-keyboard-response,24
true,5,0,1,1,false,z,true,false,0.0-2.0-0.17-0.155-3.155,0,0,0,81,false,stim,false,2,1341,0,0,2,75813,task2,644644,false,false,589,image-keyboard-response,25
true,5,0,1,0,true,q,false,true,0.0-2.0-0.17-0.156-3.156,0,0,0,81,false,stim,false,1,1628,0,0,0,75813,task2,647791,false,false,592,image-keyboard-response,26
true,5,1,1,1,true,z,false,true,0.0-2.0-0.17-0.157-3.157,0,0,0,90,false,stim,false,0,1336,0,0,1,75813,task2,650653,false,false,595,image-keyboard-response,27
true,5,2,1,1,false,z,false,false,0.0-2.0-0.17-0.158-3.158,0,0,0,68,false,stim,true,2,860,0,0,2,75813,task2,653043,false,false,598,image-keyboard-response,28
true,5,0,1,0,true,q,false,true,0.0-2.0-0.17-0.159-3.159,0,0,0,81,false,stim,false,1,719,0,0,0,75813,task2,655298,false,false,601,image-keyboard-response,29
true,5,0,1,0,true,q,false,true,0.0-2.0-0.17-0.160-3.160,0,0,0,81,false,stim,false,1,628,0,0,0,75813,task2,657462,false,false,604,image-keyboard-response,30
true,5,1,1,1,true,z,false,true,0.0-2.0-0.17-0.161-3.161,0,0,0,90,false,stim,false,2,1384,0,0,2,75813,task2,660377,false,false,607,image-keyboard-response,31
true,5,1,1,1,true,z,false,true,0.0-2.0-0.18-0.162-3.162,0,0,0,90,false,stim,false,0,513,0,0,1,75813,task2,662428,false,false,610,image-keyboard-response,32
true,5,1,1,1,true,z,false,false,0.0-2.0-0.18-0.163-3.163,0,0,0,90,false,stim,false,2,817,0,0,2,75813,task2,664769,false,true,613,image-keyboard-response,33
true,5,0,1,1,false,z,true,false,0.0-2.0-0.18-0.164-3.164,0,0,0,81,false,stim,false,2,613,0,0,2,75813,task2,666918,false,false,616,image-keyboard-response,34
true,6,0,1,2,false,d,false,false,0.0-2.0-0.18-0.165-3.165,0,0,0,81,true,stim,true,0,671,0,0,0,75813,task2,669116,false,false,619,image-keyboard-response,1
true,6,1,1,0,false,q,false,false,0.0-2.0-0.18-0.166-3.166,0,0,0,90,false,stim,true,1,1337,0,0,1,75813,task2,671992,false,false,622,image-keyboard-response,2
true,6,0,1,0,true,q,false,true,0.0-2.0-0.18-0.167-3.167,0,0,0,81,false,stim,false,1,676,0,0,1,75813,task2,674211,false,false,625,image-keyboard-response,3
true,6,1,1,2,false,d,false,false,0.0-2.0-0.18-0.168-3.168,0,0,0,90,false,stim,true,1,669,0,0,2,75813,task2,676422,false,false,628,image-keyboard-response,4
true,6,1,1,2,false,d,true,false,0.0-2.0-0.18-0.169-3.169,0,0,0,90,false,stim,false,0,1266,0,0,0,75813,task2,679218,false,false,631,image-keyboard-response,5
true,6,2,1,2,true,d,false,false,0.0-2.0-0.18-0.170-3.170,0,0,0,68,false,stim,false,0,926,0,0,0,75813,task2,681669,false,true,634,image-keyboard-response,6
true,6,0,1,2,false,d,true,false,0.0-2.0-0.19-0.171-3.171,0,0,0,81,false,stim,false,1,1237,0,0,2,75813,task2,684432,false,false,637,image-keyboard-response,7
true,6,0,1,2,false,d,false,true,0.0-2.0-0.19-0.172-3.172,0,0,0,81,false,stim,true,0,2683,0,0,0,75813,task2,688655,false,true,640,image-keyboard-response,8
true,6,1,1,0,false,q,false,false,0.0-2.0-0.19-0.173-3.173,0,0,0,90,false,stim,true,1,410,0,0,1,75813,task2,690594,false,false,643,image-keyboard-response,9
true,6,2,1,0,false,q,true,false,0.0-2.0-0.19-0.174-3.174,0,0,0,68,false,stim,false,1,643,0,0,1,75813,task2,692766,false,false,646,image-keyboard-response,10
true,6,0,1,2,false,d,true,false,0.0-2.0-0.19-0.175-3.175,0,0,0,81,false,stim,false,1,398,0,0,2,75813,task2,694702,false,false,649,image-keyboard-response,11
true,6,0,1,2,false,d,false,false,0.0-2.0-0.19-0.176-3.176,0,0,0,81,false,stim,true,0,657,0,0,0,75813,task2,696901,false,false,652,image-keyboard-response,12
true,6,1,1,2,false,d,false,false,0.0-2.0-0.19-0.177-3.177,0,0,0,90,false,stim,true,1,1332,0,0,2,75813,task2,699765,false,false,655,image-keyboard-response,13
true,6,2,1,0,false,q,true,false,0.0-2.0-0.19-0.178-3.178,0,0,0,68,false,stim,false,1,850,0,0,1,75813,task2,702144,false,false,658,image-keyboard-response,14
true,6,0,1,2,false,d,false,false,0.0-2.0-0.19-0.179-3.179,0,0,0,81,false,stim,true,0,959,0,0,0,75813,task2,704644,false,false,661,image-keyboard-response,15
true,6,1,1,2,false,d,false,false,0.0-2.0-0.20-0.180-3.180,0,0,0,90,false,stim,true,1,449,0,0,2,75813,task2,706624,false,false,664,image-keyboard-response,16
true,6,2,1,2,true,d,false,true,0.0-2.0-0.20-0.181-3.181,0,0,0,68,false,stim,false,1,960,0,0,2,75813,task2,709114,false,false,667,image-keyboard-response,17
true,6,0,1,2,false,d,false,false,0.0-2.0-0.20-0.182-3.182,0,0,0,81,false,stim,true,0,793,0,0,0,75813,task2,711445,false,false,670,image-keyboard-response,18
true,6,1,1,2,false,d,true,false,0.0-2.0-0.20-0.183-3.183,0,0,0,90,false,stim,false,0,515,0,0,0,75813,task2,713489,false,false,673,image-keyboard-response,19
true,6,1,1,0,false,q,false,false,0.0-2.0-0.20-0.184-3.184,0,0,0,90,false,stim,true,1,1398,0,0,1,75813,task2,716411,false,false,676,image-keyboard-response,20
true,6,0,1,0,true,q,false,false,0.0-2.0-0.20-0.185-3.185,0,0,0,81,false,stim,false,1,563,0,0,1,75813,task2,718506,false,true,679,image-keyboard-response,21
true,6,2,1,2,true,d,false,true,0.0-2.0-0.20-0.186-3.186,0,0,0,68,false,stim,false,0,505,0,0,0,75813,task2,720548,false,false,682,image-keyboard-response,22
true,6,2,1,0,false,q,true,false,0.0-2.0-0.20-0.187-3.187,0,0,0,68,false,stim,false,1,459,0,0,1,75813,task2,722533,false,false,685,image-keyboard-response,23
true,6,2,1,2,true,d,false,true,0.0-2.0-0.20-0.188-3.188,0,0,0,68,false,stim,false,1,519,0,0,2,75813,task2,724595,false,false,688,image-keyboard-response,24
true,6,2,1,2,true,d,false,true,0.0-2.0-0.21-0.189-3.189,0,0,0,68,false,stim,false,0,566,0,0,0,75813,task2,726699,false,false,691,image-keyboard-response,25
true,6,0,1,0,true,q,false,true,0.0-2.0-0.21-0.190-3.190,0,0,0,81,false,stim,false,1,1154,0,0,1,75813,task2,729387,false,false,694,image-keyboard-response,26
true,6,2,1,2,true,d,false,true,0.0-2.0-0.21-0.191-3.191,0,0,0,68,false,stim,false,1,526,0,0,2,75813,task2,731450,false,false,697,image-keyboard-response,27
true,6,2,1,2,true,d,false,true,0.0-2.0-0.21-0.192-3.192,0,0,0,68,false,stim,false,0,491,0,0,0,75813,task2,733474,false,false,700,image-keyboard-response,28
true,6,0,1,0,true,q,false,true,0.0-2.0-0.21-0.193-3.193,0,0,0,81,false,stim,false,1,523,0,0,1,75813,task2,735537,false,false,703,image-keyboard-response,29
true,6,2,1,2,true,d,false,true,0.0-2.0-0.21-0.194-3.194,0,0,0,68,false,stim,false,1,481,0,0,2,75813,task2,737536,false,false,706,image-keyboard-response,30
true,6,0,1,0,true,q,false,true,0.0-2.0-0.21-0.195-3.195,0,0,0,81,false,stim,false,1,353,0,0,1,75813,task2,739427,false,false,709,image-keyboard-response,31
true,6,2,1,2,true,d,false,false,0.0-2.0-0.21-0.196-3.196,0,0,0,68,false,stim,false,1,571,0,0,2,75813,task2,741524,false,true,712,image-keyboard-response,32
true,6,2,1,2,true,d,false,true,0.0-2.0-0.21-0.197-3.197,0,0,0,68,false,stim,false,0,1584,0,0,0,75813,task2,744637,false,false,715,image-keyboard-response,33
true,6,1,1,2,false,d,false,false,0.0-2.0-0.22-0.198-3.198,0,0,0,90,false,stim,true,1,800,0,0,2,75813,task2,746964,false,false,718,image-keyboard-response,34
true,6,0,1,2,false,d,false,false,0.0-2.0-0.22-0.199-3.199,0,0,0,81,false,stim,true,0,485,0,0,0,75813,task2,748990,false,false,721,image-keyboard-response,35
true,6,0,1,0,true,q,false,true,0.0-2.0-0.22-0.200-3.200,0,0,0,81,false,stim,false,1,791,0,0,1,75813,task2,751315,false,false,724,image-keyboard-response,36
true,6,1,1,2,false,d,true,false,0.0-2.0-0.22-0.201-3.201,0,0,0,90,false,stim,false,0,626,0,0,0,75813,task2,753469,false,false,727,image-keyboard-response,37
true,7,2,1,0,false,q,false,false,0.0-2.0-0.22-0.202-3.202,0,0,0,68,true,stim,true,2,596,0,0,0,75813,task2,755599,false,false,730,image-keyboard-response,1
true,7,0,1,2,false,d,false,false,0.0-2.0-0.22-0.203-3.203,0,0,0,81,false,stim,true,0,455,0,0,1,75813,task2,757578,false,false,733,image-keyboard-response,2
true,7,1,1,2,false,d,true,false,0.0-2.0-0.22-0.204-3.204,0,0,0,90,false,stim,false,0,885,0,0,1,75813,task2,759990,false,false,736,image-keyboard-response,3
true,7,0,1,1,false,z,true,false,0.0-2.0-0.22-0.205-3.205,0,0,0,81,false,stim,false,2,2153,0,0,2,75813,task2,763677,false,false,739,image-keyboard-response,4
true,7,1,1,1,true,z,false,true,0.0-2.0-0.22-0.206-3.206,0,0,0,90,false,stim,false,2,1073,0,0,2,75813,task2,766266,false,false,742,image-keyboard-response,5
true,7,2,1,0,false,q,false,false,0.0-2.0-0.23-0.207-3.207,0,0,0,68,false,stim,true,2,1754,0,0,0,75813,task2,769548,false,false,745,image-keyboard-response,6
true,7,0,1,0,true,q,false,true,0.0-2.0-0.23-0.208-3.208,0,0,0,81,false,stim,false,2,1625,0,0,0,75813,task2,772699,false,false,748,image-keyboard-response,7
true,7,2,1,2,true,d,false,true,0.0-2.0-0.23-0.209-3.209,0,0,0,68,false,stim,false,0,1903,0,0,1,75813,task2,776127,false,false,751,image-keyboard-response,8
true,7,1,1,1,true,z,false,false,0.0-2.0-0.23-0.210-3.210,0,0,0,90,false,stim,false,2,1562,0,0,2,75813,task2,779227,false,true,754,image-keyboard-response,9
true,7,0,1,0,true,q,false,true,0.0-2.0-0.23-0.211-3.211,0,0,0,81,false,stim,false,2,1355,0,0,0,75813,task2,782108,false,false,757,image-keyboard-response,10
true,7,2,1,2,true,d,false,true,0.0-2.0-0.23-0.212-3.212,0,0,0,68,false,stim,false,0,776,0,0,1,75813,task2,784410,false,false,760,image-keyboard-response,11
true,7,2,1,2,true,d,false,true,0.0-2.0-0.23-0.213-3.213,0,0,0,68,false,stim,false,0,566,0,0,1,75813,task2,786510,false,false,763,image-keyboard-response,12
false,7,-1,1,1,false,z,true,false,0.0-2.0-0.23-0.214-3.214,0,0,0,,false,stim,false,2,,0,0,2,75813,task2,791061,false,false,766,image-keyboard-response,13
true,7,0,1,1,false,z,true,false,0.0-2.0-0.23-0.215-3.215,0,0,0,81,false,stim,false,2,639,0,0,2,75813,task2,793234,false,false,769,image-keyboard-response,14
true,7,2,1,1,false,z,false,false,0.0-2.0-0.24-0.216-3.216,0,0,0,68,false,stim,true,2,491,0,0,2,75813,task2,795266,false,false,772,image-keyboard-response,15
true,7,2,1,2,true,d,false,true,0.0-2.0-0.24-0.217-3.217,0,0,0,68,false,stim,false,0,2620,0,0,1,75813,task2,799403,false,false,775,image-keyboard-response,16
true,7,0,1,0,true,q,false,false,0.0-2.0-0.24-0.218-3.218,0,0,0,81,false,stim,false,2,528,0,0,0,75813,task2,801473,false,true,778,image-keyboard-response,17
true,7,1,1,0,false,q,true,false,0.0-2.0-0.24-0.219-3.219,0,0,0,90,false,stim,false,2,552,0,0,0,75813,task2,803555,false,false,781,image-keyboard-response,18
true,7,0,1,1,false,z,true,false,0.0-2.0-0.24-0.220-3.220,0,0,0,81,false,stim,false,2,1092,0,0,2,75813,task2,806175,false,false,784,image-keyboard-response,19
true,7,2,1,0,false,q,false,false,0.0-2.0-0.24-0.221-3.221,0,0,0,68,false,stim,true,2,1321,0,0,0,75813,task2,809024,false,false,787,image-keyboard-response,20
true,7,2,1,1,false,z,false,false,0.0-2.0-0.24-0.222-3.222,0,0,0,68,false,stim,true,2,1822,0,0,2,75813,task2,812386,false,false,790,image-keyboard-response,21
false,7,-1,1,2,false,d,true,false,0.0-2.0-0.24-0.223-3.223,0,0,0,,false,stim,false,0,,0,0,1,75813,task2,816942,false,false,793,image-keyboard-response,22
true,7,2,1,2,true,d,false,true,0.0-2.0-0.24-0.224-3.224,0,0,0,68,false,stim,false,0,527,0,0,1,75813,task2,819011,false,false,796,image-keyboard-response,23
true,7,0,1,0,true,q,false,true,0.0-2.0-0.25-0.225-3.225,0,0,0,81,false,stim,false,2,1393,0,0,0,75813,task2,821947,false,false,799,image-keyboard-response,24
true,7,1,1,1,true,z,false,true,0.0-2.0-0.25-0.226-3.226,0,0,0,90,false,stim,false,2,767,0,0,2,75813,task2,824242,false,false,802,image-keyboard-response,25
true,7,2,1,2,true,d,false,true,0.0-2.0-0.25-0.227-3.227,0,0,0,68,false,stim,false,0,580,0,0,1,75813,task2,826344,false,false,805,image-keyboard-response,26
true,7,1,1,1,true,z,false,true,0.0-2.0-0.25-0.228-3.228,0,0,0,90,false,stim,false,2,605,0,0,2,75813,task2,828488,false,false,808,image-keyboard-response,27
true,7,0,1,0,true,q,false,true,0.0-2.0-0.25-0.229-3.229,0,0,0,81,false,stim,false,2,420,0,0,0,75813,task2,830433,false,false,811,image-keyboard-response,28
true,7,2,1,2,true,d,false,true,0.0-2.0-0.25-0.230-3.230,0,0,0,68,false,stim,false,0,1417,0,0,1,75813,task2,833381,false,false,814,image-keyboard-response,29
true,7,2,1,2,true,d,false,true,0.0-2.0-0.25-0.231-3.231,0,0,0,68,false,stim,false,0,1758,0,0,1,75813,task2,836682,false,false,817,image-keyboard-response,30
true,7,1,1,1,true,z,false,false,0.0-2.0-0.25-0.232-3.232,0,0,0,90,false,stim,false,2,452,0,1,2,75813,task2,838666,false,true,820,image-keyboard-response,31
true,7,0,1,0,true,q,false,true,0.0-2.0-0.25-0.233-3.233,0,0,0,81,false,stim,false,2,1135,0,0,0,75813,task2,841339,false,false,823,image-keyboard-response,32
true,7,2,1,2,true,d,false,true,0.0-2.0-0.26-0.234-3.234,0,0,0,68,false,stim,false,0,1139,0,0,1,75813,task2,844003,false,false,826,image-keyboard-response,33
true,7,0,1,0,true,q,false,false,0.0-2.0-0.26-0.235-3.235,0,0,0,81,false,stim,false,2,343,0,0,0,75813,task2,845887,false,true,829,image-keyboard-response,34
true,7,0,1,1,false,z,true,false,0.0-2.0-0.26-0.236-3.236,0,0,0,81,false,stim,false,2,1906,0,1,2,75813,task2,849319,false,false,832,image-keyboard-response,35
true,8,1,2,1,true,z,false,true,0.0-2.0-0.26-0.237-3.237,0,0,1,90,true,stim,false,1,618,0,1,2,75813,task2,851461,false,false,835,image-keyboard-response,1
true,8,2,2,1,false,z,false,false,0.0-2.0-0.26-0.238-3.238,0,0,1,68,false,stim,true,2,475,0,0,1,75813,task2,853469,false,false,838,image-keyboard-response,2
true,8,1,2,1,true,z,false,true,0.0-2.0-0.26-0.239-3.239,0,0,1,90,false,stim,false,1,513,0,1,2,75813,task2,855516,false,false,841,image-keyboard-response,3
true,8,0,2,2,false,d,false,false,0.0-2.0-0.26-0.240-3.240,0,0,1,81,false,stim,true,0,678,0,0,0,75813,task2,857721,false,false,844,image-keyboard-response,4
true,8,1,2,1,true,z,false,false,0.0-2.0-0.26-0.241-3.241,0,0,1,90,false,stim,false,2,1355,0,0,1,75813,task2,860619,false,true,847,image-keyboard-response,5
true,8,1,2,2,false,d,true,true,0.0-2.0-0.26-0.242-3.242,0,0,1,90,false,stim,false,0,832,0,0,0,75813,task2,862976,false,true,850,image-keyboard-response,6
true,8,2,2,1,false,z,false,false,0.0-2.0-0.27-0.243-3.243,0,0,1,68,false,stim,true,2,743,0,0,1,75813,task2,865246,false,false,853,image-keyboard-response,7
true,8,0,2,1,false,z,true,false,0.0-2.0-0.27-0.244-3.244,0,0,1,81,false,stim,false,2,651,0,0,1,75813,task2,867418,false,false,856,image-keyboard-response,8
true,8,1,2,1,true,z,false,true,0.0-2.0-0.27-0.245-3.245,0,0,1,90,false,stim,false,1,367,0,1,2,75813,task2,869320,false,false,859,image-keyboard-response,9
true,8,1,2,1,true,z,false,false,0.0-2.0-0.27-0.246-3.246,0,0,1,90,false,stim,false,1,488,0,1,2,75813,task2,871342,false,true,862,image-keyboard-response,10
true,8,0,2,1,false,z,true,false,0.0-2.0-0.27-0.247-3.247,0,0,1,81,false,stim,false,1,736,0,1,2,75813,task2,873609,false,false,865,image-keyboard-response,11
true,8,2,2,1,false,z,false,false,0.0-2.0-0.27-0.248-3.248,0,0,1,68,false,stim,true,2,1781,0,0,1,75813,task2,876924,false,false,868,image-keyboard-response,12
true,8,1,2,2,false,d,true,false,0.0-2.0-0.27-0.249-3.249,0,0,1,90,false,stim,false,0,2592,0,0,0,75813,task2,881056,false,false,871,image-keyboard-response,13
true,8,0,2,2,false,d,false,false,0.0-2.0-0.27-0.250-3.250,0,0,1,81,false,stim,true,0,483,0,0,0,75813,task2,883076,false,false,874,image-keyboard-response,14
true,8,2,2,2,true,d,false,true,0.0-2.0-0.27-0.251-3.251,0,0,1,68,false,stim,false,0,701,0,0,0,75813,task2,885314,false,false,877,image-keyboard-response,15
true,8,1,2,1,true,z,false,true,0.0-2.0-0.28-0.252-3.252,0,0,1,90,false,stim,false,1,2244,0,1,2,75813,task2,889098,false,false,880,image-keyboard-response,16
true,8,0,2,2,false,d,false,false,0.0-2.0-0.28-0.253-3.253,0,0,1,81,false,stim,true,0,982,0,0,0,75813,task2,891607,false,false,883,image-keyboard-response,17
true,8,2,2,1,false,z,false,false,0.0-2.0-0.28-0.254-3.254,0,0,1,68,false,stim,true,2,1723,0,0,1,75813,task2,894857,false,false,886,image-keyboard-response,18
true,8,1,2,1,true,z,false,true,0.0-2.0-0.28-0.255-3.255,0,0,1,90,false,stim,false,1,948,0,1,2,75813,task2,897342,false,false,889,image-keyboard-response,19
true,8,0,2,1,false,z,true,false,0.0-2.0-0.28-0.256-3.256,0,0,1,81,false,stim,false,2,1285,0,0,1,75813,task2,900158,false,false,892,image-keyboard-response,20
true,8,1,2,1,true,z,false,true,0.0-2.0-0.28-0.257-3.257,0,0,1,90,false,stim,false,2,718,0,0,1,75813,task2,902412,false,false,895,image-keyboard-response,21
true,8,2,2,2,true,d,false,true,0.0-2.0-0.28-0.258-3.258,0,0,1,68,false,stim,false,0,779,0,0,0,75813,task2,904724,false,false,898,image-keyboard-response,22
true,8,0,2,1,false,z,true,false,0.0-2.0-0.28-0.259-3.259,0,0,1,81,false,stim,false,1,1366,0,1,2,75813,task2,907630,false,false,901,image-keyboard-response,23
true,8,2,2,2,true,d,false,true,0.0-2.0-0.28-0.260-3.260,0,0,1,68,false,stim,false,0,1017,0,0,0,75813,task2,910169,false,false,904,image-keyboard-response,24
true,8,1,2,1,true,z,false,true,0.0-2.0-0.29-0.261-3.261,0,0,1,90,false,stim,false,1,771,0,1,2,75813,task2,912464,false,false,907,image-keyboard-response,25
true,8,1,2,1,true,z,false,true,0.0-2.0-0.29-0.262-3.262,0,0,1,90,false,stim,false,2,536,0,0,1,75813,task2,914529,false,false,910,image-keyboard-response,26
true,8,1,2,1,true,z,false,true,0.0-2.0-0.29-0.263-3.263,0,0,1,90,false,stim,false,2,405,0,0,1,75813,task2,916459,false,false,913,image-keyboard-response,27
true,8,2,2,2,true,d,false,true,0.0-2.0-0.29-0.264-3.264,0,0,1,68,false,stim,false,0,625,0,0,0,75813,task2,918609,false,false,916,image-keyboard-response,28
true,8,2,2,2,true,d,false,true,0.0-2.0-0.29-0.265-3.265,0,0,1,68,false,stim,false,0,736,0,0,0,75813,task2,920870,false,false,919,image-keyboard-response,29
true,8,2,2,2,true,d,false,true,0.0-2.0-0.29-0.266-3.266,0,0,1,68,false,stim,false,0,442,0,0,0,75813,task2,922846,false,false,922,image-keyboard-response,30
true,8,1,2,1,true,z,false,true,0.0-2.0-0.29-0.267-3.267,0,0,1,90,false,stim,false,1,385,0,1,2,75813,task2,924769,false,false,925,image-keyboard-response,31
true,8,1,2,1,true,z,false,true,0.0-2.0-0.29-0.268-3.268,0,0,1,90,false,stim,false,1,394,0,1,2,75813,task2,926687,false,false,928,image-keyboard-response,32
true,8,1,2,1,true,z,false,true,0.0-2.0-0.29-0.269-3.269,0,0,1,90,false,stim,false,2,510,0,0,1,75813,task2,928724,false,false,931,image-keyboard-response,33
true,8,2,2,1,false,z,true,false,0.0-2.0-0.30-0.270-3.270,0,0,1,68,false,stim,false,1,471,0,1,2,75813,task2,930713,false,false,934,image-keyboard-response,34
true,9,0,2,1,false,z,true,false,0.0-2.0-0.30-0.271-3.271,0,0,1,81,true,stim,false,1,786,0,1,2,75813,task2,933040,false,false,937,image-keyboard-response,1
true,9,1,2,2,false,d,false,false,0.0-2.0-0.30-0.272-3.272,0,0,1,90,false,stim,true,1,370,0,0,1,75813,task2,934944,false,false,940,image-keyboard-response,2
true,9,1,2,1,true,z,false,true,0.0-2.0-0.30-0.273-3.273,0,0,1,90,false,stim,false,2,686,0,0,0,75813,task2,937159,false,false,943,image-keyboard-response,3
true,9,1,2,1,true,z,false,true,0.0-2.0-0.30-0.274-3.274,0,0,1,90,false,stim,false,2,743,0,0,0,75813,task2,939435,false,false,946,image-keyboard-response,4
true,9,0,2,2,false,d,true,false,0.0-2.0-0.30-0.275-3.275,0,0,1,81,false,stim,false,1,1498,0,0,1,75813,task2,942462,false,false,949,image-keyboard-response,5
true,9,2,2,1,false,z,true,false,0.0-2.0-0.30-0.276-3.276,0,0,1,68,false,stim,false,1,596,0,1,2,75813,task2,944599,false,false,952,image-keyboard-response,6
true,9,1,2,1,true,z,false,true,0.0-2.0-0.30-0.277-3.277,0,0,1,90,false,stim,false,2,498,0,0,0,75813,task2,946622,false,false,955,image-keyboard-response,7
true,9,1,2,2,false,d,false,false,0.0-2.0-0.30-0.278-3.278,0,0,1,90,false,stim,true,1,432,0,0,1,75813,task2,948594,false,false,958,image-keyboard-response,8
true,9,1,2,1,true,z,false,true,0.0-2.0-0.31-0.279-3.279,0,0,1,90,false,stim,false,2,449,0,0,0,75813,task2,950574,false,false,961,image-keyboard-response,9
true,9,2,2,1,false,z,true,false,0.0-2.0-0.31-0.280-3.280,0,0,1,68,false,stim,false,1,390,0,1,2,75813,task2,952493,false,false,964,image-keyboard-response,10
true,9,2,2,2,true,d,false,true,0.0-2.0-0.31-0.281-3.281,0,0,1,68,false,stim,false,1,1257,0,0,1,75813,task2,955281,false,false,967,image-keyboard-response,11
true,9,2,2,2,true,d,false,false,0.0-2.0-0.31-0.282-3.282,0,0,1,68,false,stim,false,1,632,0,0,1,75813,task2,957455,false,true,970,image-keyboard-response,12
true,9,1,2,1,true,z,false,true,0.0-2.0-0.31-0.283-3.283,0,0,1,90,false,stim,false,2,373,0,0,0,75813,task2,959357,false,false,973,image-keyboard-response,13
true,9,0,2,1,false,z,true,false,0.0-2.0-0.31-0.284-3.284,0,0,1,81,false,stim,false,1,736,0,1,2,75813,task2,961620,false,false,976,image-keyboard-response,14
true,9,1,2,1,true,z,false,false,0.0-2.0-0.31-0.285-3.285,0,0,1,90,false,stim,false,2,414,0,0,0,75813,task2,963552,false,true,979,image-keyboard-response,15
true,9,1,2,1,true,z,false,true,0.0-2.0-0.31-0.286-3.286,0,0,1,90,false,stim,false,1,564,0,1,2,75813,task2,965659,false,false,982,image-keyboard-response,16
true,9,1,2,2,false,d,false,false,0.0-2.0-0.31-0.287-3.287,0,0,1,90,false,stim,true,1,424,0,0,1,75813,task2,967617,false,false,985,image-keyboard-response,17
true,9,2,2,1,false,z,false,false,0.0-2.0-0.32-0.288-3.288,0,0,1,68,false,stim,true,2,198,0,0,0,75813,task2,969340,false,false,988,image-keyboard-response,18
true,9,0,2,2,false,d,true,false,0.0-2.0-0.32-0.289-3.289,0,0,1,81,false,stim,false,1,236,0,0,1,75813,task2,971120,false,false,991,image-keyboard-response,19
true,9,1,2,1,true,z,false,true,0.0-2.0-0.32-0.290-3.290,0,0,1,90,false,stim,false,1,1015,0,1,2,75813,task2,973658,false,false,994,image-keyboard-response,20
true,9,2,2,1,false,z,true,false,0.0-2.0-0.32-0.291-3.291,0,0,1,68,false,stim,false,1,1025,0,1,2,75813,task2,976218,false,false,997,image-keyboard-response,21
true,9,0,2,2,false,d,true,false,0.0-2.0-0.32-0.292-3.292,0,0,1,81,false,stim,false,1,22,0,0,1,75813,task2,977766,false,false,1000,image-keyboard-response,22
true,9,1,2,1,true,z,false,true,0.0-2.0-0.32-0.293-3.293,0,0,1,90,false,stim,false,2,727,0,0,0,75813,task2,980041,false,false,1003,image-keyboard-response,23
true,9,2,2,2,true,d,false,true,0.0-2.0-0.32-0.294-3.294,0,0,1,68,false,stim,false,1,1062,0,0,1,75813,task2,982631,false,false,1006,image-keyboard-response,24
true,9,2,2,1,false,z,false,false,0.0-2.0-0.32-0.295-3.295,0,0,1,68,false,stim,true,2,822,0,0,0,75813,task2,984994,false,false,1009,image-keyboard-response,25
true,9,2,2,1,false,z,true,false,0.0-2.0-0.32-0.296-3.296,0,0,1,68,false,stim,false,1,794,0,1,2,75813,task2,987328,false,false,1012,image-keyboard-response,26
true,9,0,2,1,false,z,true,false,0.0-2.0-0.33-0.297-3.297,0,0,1,81,false,stim,false,1,914,0,1,2,75813,task2,989777,false,false,1015,image-keyboard-response,27
true,9,1,2,1,true,z,false,true,0.0-2.0-0.33-0.298-3.298,0,0,1,90,false,stim,false,2,424,0,0,0,75813,task2,991727,false,false,1018,image-keyboard-response,28
true,9,2,2,1,false,z,true,false,0.0-2.0-0.33-0.299-3.299,0,0,1,68,false,stim,false,1,1412,0,1,2,75813,task2,994665,false,false,1021,image-keyboard-response,29
true,9,0,2,1,false,z,true,false,0.0-2.0-0.33-0.300-3.300,0,0,1,81,false,stim,false,2,289,0,0,0,75813,task2,996480,false,false,1024,image-keyboard-response,30
true,9,1,2,2,false,d,false,false,0.0-2.0-0.33-0.301-3.301,0,0,1,90,false,stim,true,1,21,0,0,1,75813,task2,998034,false,false,1027,image-keyboard-response,31
true,9,2,2,1,false,z,false,false,0.0-2.0-0.33-0.302-3.302,0,0,1,68,false,stim,true,2,1898,0,0,0,75813,task2,1001462,false,false,1030,image-keyboard-response,32
true,9,2,2,2,true,d,false,true,0.0-2.0-0.33-0.303-3.303,0,0,1,68,false,stim,false,1,1249,0,0,1,75813,task2,1004251,false,false,1033,image-keyboard-response,33
true,9,2,2,2,true,d,false,true,0.0-2.0-0.33-0.304-3.304,0,0,1,68,false,stim,false,1,443,0,0,1,75813,task2,1006238,false,false,1036,image-keyboard-response,34
true,9,0,2,1,false,z,true,false,0.0-2.0-0.33-0.305-3.305,0,0,1,81,false,stim,false,1,906,0,0,2,75813,task2,1008679,false,false,1039,image-keyboard-response,35
true,10,1,1,0,false,q,false,false,0.0-2.0-0.34-0.306-3.306,0,0,0,90,true,stim,true,1,383,0,0,2,75813,task2,1010588,false,false,1042,image-keyboard-response,1
true,10,2,1,1,false,z,false,false,0.0-2.0-0.34-0.307-3.307,0,0,0,68,false,stim,true,2,344,0,0,1,75813,task2,1012458,false,false,1045,image-keyboard-response,2
true,10,2,1,0,false,q,true,false,0.0-2.0-0.34-0.308-3.308,0,0,0,68,false,stim,false,1,891,0,0,0,75813,task2,1014874,false,false,1048,image-keyboard-response,3
true,10,1,1,1,true,z,false,true,0.0-2.0-0.34-0.309-3.309,0,0,0,90,false,stim,false,2,2268,0,0,1,75813,task2,1018673,false,false,1051,image-keyboard-response,4
true,10,1,1,0,false,q,false,false,0.0-2.0-0.34-0.310-3.310,0,0,0,90,false,stim,true,1,455,0,0,0,75813,task2,1020659,false,false,1054,image-keyboard-response,5
true,10,0,1,0,true,q,false,true,0.0-2.0-0.34-0.311-3.311,0,0,0,81,false,stim,false,1,743,0,0,0,75813,task2,1022915,false,false,1057,image-keyboard-response,6
true,10,1,1,1,true,z,false,true,0.0-2.0-0.34-0.312-3.312,0,0,0,90,false,stim,false,2,783,0,0,1,75813,task2,1025237,false,false,1060,image-keyboard-response,7
true,10,2,1,0,false,q,true,false,0.0-2.0-0.34-0.313-3.313,0,0,0,68,false,stim,false,1,907,0,0,2,75813,task2,1027675,false,false,1063,image-keyboard-response,8
true,10,0,1,0,true,q,false,true,0.0-2.0-0.34-0.314-3.314,0,0,0,81,false,stim,false,1,1030,0,0,2,75813,task2,1030242,false,false,1066,image-keyboard-response,9
true,10,0,1,0,true,q,false,true,0.0-2.0-0.35-0.315-3.315,0,0,0,81,false,stim,false,1,756,0,0,0,75813,task2,1032542,false,false,1069,image-keyboard-response,10
true,10,1,1,1,true,z,false,true,0.0-2.0-0.35-0.316-3.316,0,0,0,90,false,stim,false,2,394,0,0,1,75813,task2,1034477,false,false,1072,image-keyboard-response,11
true,10,0,1,0,true,q,false,true,0.0-2.0-0.35-0.317-3.317,0,0,0,81,false,stim,false,1,404,0,0,0,75813,task2,1036418,false,false,1075,image-keyboard-response,12
true,10,1,1,0,false,q,false,false,0.0-2.0-0.35-0.318-3.318,0,0,0,90,false,stim,true,1,1181,0,0,2,75813,task2,1039125,false,false,1078,image-keyboard-response,13
true,10,0,1,0,true,q,false,true,0.0-2.0-0.35-0.319-3.319,0,0,0,81,false,stim,false,1,776,0,0,0,75813,task2,1041437,false,false,1081,image-keyboard-response,14
true,10,0,1,0,true,q,false,true,0.0-2.0-0.35-0.320-3.320,0,0,0,81,false,stim,false,1,583,0,0,2,75813,task2,1043547,false,false,1084,image-keyboard-response,15
true,10,1,1,1,true,z,false,true,0.0-2.0-0.35-0.321-3.321,0,0,0,90,false,stim,false,2,399,0,0,1,75813,task2,1045483,false,false,1087,image-keyboard-response,16
true,10,0,1,0,true,q,false,true,0.0-2.0-0.35-0.322-3.322,0,0,0,81,false,stim,false,1,392,0,0,2,75813,task2,1047416,false,false,1090,image-keyboard-response,17
true,10,0,1,1,false,z,true,true,0.0-2.0-0.35-0.323-3.323,0,0,0,81,false,stim,false,2,398,0,0,1,75813,task2,1049352,false,true,1093,image-keyboard-response,18
true,10,0,1,1,false,z,true,false,0.0-2.0-0.36-0.324-3.324,0,0,0,81,false,stim,false,2,437,0,0,1,75813,task2,1051320,false,false,1096,image-keyboard-response,19
true,10,1,1,0,false,q,false,false,0.0-2.0-0.36-0.325-3.325,0,0,0,90,false,stim,true,1,1973,0,0,0,75813,task2,1054816,false,false,1099,image-keyboard-response,20
true,10,0,1,0,true,q,false,false,0.0-2.0-0.36-0.326-3.326,0,0,0,81,false,stim,false,1,2332,0,0,2,75813,task2,1058685,false,true,1102,image-keyboard-response,21
true,10,1,1,1,true,z,false,true,0.0-2.0-0.36-0.327-3.327,0,0,0,90,false,stim,false,2,451,0,0,1,75813,task2,1060664,false,false,1105,image-keyboard-response,22
true,10,1,1,1,true,z,false,true,0.0-2.0-0.36-0.328-3.328,0,0,0,90,false,stim,false,2,886,0,0,1,75813,task2,1063074,false,false,1108,image-keyboard-response,23
true,10,0,1,0,true,q,false,true,0.0-2.0-0.36-0.329-3.329,0,0,0,81,false,stim,false,1,472,0,0,2,75813,task2,1065085,false,false,1111,image-keyboard-response,24
true,10,0,1,0,true,q,false,true,0.0-2.0-0.36-0.330-3.330,0,0,0,81,false,stim,false,1,490,0,0,2,75813,task2,1067103,false,false,1114,image-keyboard-response,25
true,10,2,1,0,false,q,true,false,0.0-2.0-0.36-0.331-3.331,0,0,0,68,false,stim,false,1,1347,0,0,0,75813,task2,1069981,false,false,1117,image-keyboard-response,26
true,10,0,1,0,true,q,false,true,0.0-2.0-0.36-0.332-3.332,0,0,0,81,false,stim,false,1,839,0,0,0,75813,task2,1072363,false,false,1120,image-keyboard-response,27
true,10,0,1,0,true,q,false,true,0.0-2.0-0.37-0.333-3.333,0,0,0,81,false,stim,false,1,496,0,0,0,75813,task2,1074399,false,false,1123,image-keyboard-response,28
true,10,0,1,0,true,q,false,true,0.0-2.0-0.37-0.334-3.334,0,0,0,81,false,stim,false,1,529,0,0,0,75813,task2,1076452,false,false,1126,image-keyboard-response,29
true,10,1,1,0,false,q,false,false,0.0-2.0-0.37-0.335-3.335,0,0,0,90,false,stim,true,1,948,0,0,2,75813,task2,1078933,false,false,1129,image-keyboard-response,30
true,10,1,1,1,true,z,false,true,0.0-2.0-0.37-0.336-3.336,0,0,0,90,false,stim,false,2,1669,0,0,1,75813,task2,1082137,false,false,1132,image-keyboard-response,31
true,10,1,1,1,true,z,false,true,0.0-2.0-0.37-0.337-3.337,0,0,0,90,false,stim,false,2,646,0,0,1,75813,task2,1084322,false,false,1135,image-keyboard-response,32
true,10,0,1,0,true,q,false,true,0.0-2.0-0.37-0.338-3.338,0,0,0,81,false,stim,false,1,399,0,0,2,75813,task2,1086262,false,false,1138,image-keyboard-response,33
true,10,0,1,0,true,q,false,true,0.0-2.0-0.37-0.339-3.339,0,0,0,81,false,stim,false,1,549,0,0,0,75813,task2,1088341,false,false,1141,image-keyboard-response,34
true,10,0,1,0,true,q,false,true,0.0-2.0-0.37-0.340-3.340,0,0,0,81,false,stim,false,1,995,0,0,2,75813,task2,1090869,false,false,1144,image-keyboard-response,35
true,10,1,1,1,true,z,false,true,0.0-2.0-0.37-0.341-3.341,0,0,0,90,false,stim,false,2,654,0,0,1,75813,task2,1093058,false,false,1147,image-keyboard-response,36
true,10,1,1,1,true,z,false,false,0.0-2.0-0.38-0.342-3.342,0,0,0,90,false,stim,false,2,507,0,0,1,75813,task2,1095090,false,true,1150,image-keyboard-response,37
true,10,0,1,0,true,q,false,true,0.0-2.0-0.38-0.343-3.343,0,0,0,81,false,stim,false,1,873,0,0,2,75813,task2,1097498,false,false,1153,image-keyboard-response,38
true,11,0,1,2,false,d,false,false,0.0-2.0-0.38-0.344-3.344,0,0,0,81,true,stim,true,0,461,0,0,2,75813,task2,1099485,false,false,1156,image-keyboard-response,1
true,11,0,1,2,false,d,true,true,0.0-2.0-0.38-0.345-3.345,0,0,0,81,false,stim,false,1,997,0,0,1,75813,task2,1102020,false,true,1159,image-keyboard-response,2
true,11,0,1,2,false,d,true,false,0.0-2.0-0.38-0.346-3.346,0,0,0,81,false,stim,false,1,783,0,0,1,75813,task2,1104347,false,false,1162,image-keyboard-response,3
true,11,0,1,1,false,z,false,false,0.0-2.0-0.38-0.347-3.347,0,0,0,81,false,stim,true,0,884,0,0,0,75813,task2,1106752,false,false,1165,image-keyboard-response,4
true,11,0,1,1,false,z,false,false,0.0-2.0-0.38-0.348-3.348,0,0,0,81,false,stim,true,0,1135,0,0,0,75813,task2,1109428,false,false,1168,image-keyboard-response,5
true,11,2,1,1,false,z,true,false,0.0-2.0-0.38-0.349-3.349,0,0,0,68,false,stim,false,0,919,0,0,0,75813,task2,1111885,false,false,1171,image-keyboard-response,6
true,11,1,1,2,false,d,true,true,0.0-2.0-0.38-0.350-3.350,0,0,0,90,false,stim,false,0,2063,0,0,2,75813,task2,1115488,false,true,1174,image-keyboard-response,7
true,11,0,1,2,false,d,true,false,0.0-2.0-0.39-0.351-3.351,0,0,0,81,false,stim,false,1,825,0,0,1,75813,task2,1117838,false,false,1177,image-keyboard-response,8
true,11,1,1,2,false,d,false,false,0.0-2.0-0.39-0.352-3.352,0,0,0,90,false,stim,true,1,765,0,0,1,75813,task2,1120123,false,false,1180,image-keyboard-response,9
true,11,0,1,1,false,z,false,false,0.0-2.0-0.39-0.353-3.353,0,0,0,81,false,stim,true,0,1184,0,0,0,75813,task2,1122839,false,false,1183,image-keyboard-response,10
true,11,1,1,2,false,d,true,false,0.0-2.0-0.39-0.354-3.354,0,0,0,90,false,stim,false,0,447,0,0,2,75813,task2,1124821,false,false,1186,image-keyboard-response,11
true,11,2,1,1,false,z,true,false,0.0-2.0-0.39-0.355-3.355,0,0,0,68,false,stim,false,0,1055,0,0,0,75813,task2,1127409,false,false,1189,image-keyboard-response,12
false,11,-1,1,2,false,d,true,true,0.0-2.0-0.39-0.356-3.356,0,0,0,,false,stim,false,0,,0,0,2,75813,task2,1131961,false,true,1192,image-keyboard-response,13
true,11,0,1,1,false,z,false,false,0.0-2.0-0.39-0.357-3.357,0,0,0,81,false,stim,true,0,603,0,0,0,75813,task2,1134106,false,false,1195,image-keyboard-response,14
true,11,2,1,2,true,d,false,true,0.0-2.0-0.39-0.358-3.358,0,0,0,68,false,stim,false,0,1849,0,0,2,75813,task2,1137492,false,false,1198,image-keyboard-response,15
true,11,1,1,2,false,d,false,false,0.0-2.0-0.39-0.359-3.359,0,0,0,90,false,stim,true,1,511,0,0,1,75813,task2,1139553,false,false,1201,image-keyboard-response,16
true,11,1,1,2,false,d,false,true,0.0-2.0-0.40-0.360-3.360,0,0,0,90,false,stim,true,1,450,0,0,1,75813,task2,1141536,false,true,1204,image-keyboard-response,17
true,11,0,1,1,false,z,false,false,0.0-2.0-0.40-0.361-3.361,0,0,0,81,false,stim,true,0,874,0,0,0,75813,task2,1143937,false,false,1207,image-keyboard-response,18
true,11,2,1,2,true,d,false,true,0.0-2.0-0.40-0.362-3.362,0,0,0,68,false,stim,false,0,677,0,0,2,75813,task2,1146141,false,false,1210,image-keyboard-response,19
true,11,1,1,2,false,d,false,false,0.0-2.0-0.40-0.363-3.363,0,0,0,90,false,stim,true,1,596,0,0,1,75813,task2,1148279,false,false,1213,image-keyboard-response,20
true,11,1,1,1,true,z,false,true,0.0-2.0-0.40-0.364-3.364,0,0,0,90,false,stim,false,0,824,0,0,0,75813,task2,1150626,false,false,1216,image-keyboard-response,21
true,11,2,1,2,true,d,false,true,0.0-2.0-0.40-0.365-3.365,0,0,0,68,false,stim,false,0,665,0,0,2,75813,task2,1152829,false,false,1219,image-keyboard-response,22
true,11,2,1,2,true,d,false,true,0.0-2.0-0.40-0.366-3.366,0,0,0,68,false,stim,false,0,810,0,0,2,75813,task2,1155174,false,false,1222,image-keyboard-response,23
true,11,1,1,2,false,d,false,false,0.0-2.0-0.40-0.367-3.367,0,0,0,90,false,stim,true,1,837,0,0,1,75813,task2,1157542,false,false,1225,image-keyboard-response,24
true,11,0,1,1,false,z,false,false,0.0-2.0-0.40-0.368-3.368,0,0,0,81,false,stim,true,0,944,0,0,0,75813,task2,1160018,false,false,1228,image-keyboard-response,25
true,11,2,1,2,true,d,false,true,0.0-2.0-0.41-0.369-3.369,0,0,0,68,false,stim,false,0,802,0,0,2,75813,task2,1162347,false,false,1231,image-keyboard-response,26
true,11,1,1,2,false,d,false,false,0.0-2.0-0.41-0.370-3.370,0,0,0,90,false,stim,true,1,2451,0,0,1,75813,task2,1166335,false,false,1234,image-keyboard-response,27
true,11,1,1,1,true,z,false,false,0.0-2.0-0.41-0.371-3.371,0,0,0,90,false,stim,false,0,785,0,0,0,75813,task2,1168649,false,true,1237,image-keyboard-response,28
true,11,2,1,2,true,d,false,true,0.0-2.0-0.41-0.372-3.372,0,0,0,68,false,stim,false,0,432,0,0,2,75813,task2,1170615,false,false,1240,image-keyboard-response,29
true,11,0,1,1,false,z,false,true,0.0-2.0-0.41-0.373-3.373,0,0,0,81,false,stim,true,0,681,0,0,0,75813,task2,1172825,false,true,1243,image-keyboard-response,30
true,11,2,1,2,true,d,false,true,0.0-2.0-0.41-0.374-3.374,0,0,0,68,false,stim,false,0,520,0,0,2,75813,task2,1174884,false,false,1246,image-keyboard-response,31
true,11,0,1,2,false,d,true,false,0.0-2.0-0.41-0.375-3.375,0,0,0,81,false,stim,false,1,455,0,0,1,75813,task2,1176880,false,false,1249,image-keyboard-response,32
true,11,1,1,2,false,d,false,false,0.0-2.0-0.41-0.376-3.376,0,0,0,90,false,stim,true,1,580,0,0,1,75813,task2,1178994,false,false,1252,image-keyboard-response,33
true,11,2,1,1,false,z,true,true,0.0-2.0-0.41-0.377-3.377,0,0,0,68,false,stim,false,0,582,0,0,0,75813,task2,1181118,false,true,1255,image-keyboard-response,34
true,11,1,1,1,true,z,false,true,0.0-2.0-0.42-0.378-3.378,0,0,0,90,false,stim,false,0,624,0,0,0,75813,task2,1183277,false,false,1258,image-keyboard-response,35
true,11,2,1,2,true,d,false,true,0.0-2.0-0.42-0.379-3.379,0,0,0,68,false,stim,false,0,578,0,0,2,75813,task2,1185393,false,false,1261,image-keyboard-response,36
true,11,2,1,2,true,d,false,true,0.0-2.0-0.42-0.380-3.380,0,0,0,68,false,stim,false,0,447,0,0,2,75813,task2,1187382,false,false,1264,image-keyboard-response,37
true,11,2,1,2,true,d,false,true,0.0-2.0-0.42-0.381-3.381,0,0,0,68,false,stim,false,0,354,0,0,2,75813,task2,1189266,false,false,1267,image-keyboard-response,38
true,12,1,2,2,false,d,true,false,0.0-2.0-0.42-0.382-3.382,0,1,0,90,true,stim,false,2,897,0,1,1,75813,task2,1191685,false,false,1270,image-keyboard-response,1
true,12,0,2,2,false,d,true,false,0.0-2.0-0.42-0.383-3.383,0,1,0,81,false,stim,false,2,345,0,1,1,75813,task2,1193569,false,false,1273,image-keyboard-response,2
true,12,1,2,2,false,d,true,true,0.0-2.0-0.42-0.384-3.384,0,1,0,90,false,stim,false,2,297,0,1,1,75813,task2,1195400,false,true,1276,image-keyboard-response,3
true,12,2,2,2,true,d,false,true,0.0-2.0-0.42-0.385-3.385,0,1,0,68,false,stim,false,1,396,0,0,0,75813,task2,1197310,false,false,1279,image-keyboard-response,4
true,12,2,2,2,true,d,false,true,0.0-2.0-0.42-0.386-3.386,0,1,0,68,false,stim,false,1,417,0,0,0,75813,task2,1199249,false,false,1282,image-keyboard-response,5
true,12,2,2,2,true,d,false,true,0.0-2.0-0.43-0.387-3.387,0,1,0,68,false,stim,false,2,381,0,1,1,75813,task2,1201155,false,false,1285,image-keyboard-response,6
true,12,2,2,2,true,d,false,true,0.0-2.0-0.43-0.388-3.388,0,1,0,68,false,stim,false,2,351,0,1,1,75813,task2,1203035,false,false,1288,image-keyboard-response,7
true,12,2,2,2,true,d,false,true,0.0-2.0-0.43-0.389-3.389,0,1,0,68,false,stim,false,1,485,0,0,0,75813,task2,1205048,false,false,1291,image-keyboard-response,8
true,12,2,2,2,true,d,false,true,0.0-2.0-0.43-0.390-3.390,0,1,0,68,false,stim,false,2,543,0,1,1,75813,task2,1207123,false,false,1294,image-keyboard-response,9
true,12,2,2,2,true,d,false,true,0.0-2.0-0.43-0.391-3.391,0,1,0,68,false,stim,false,1,691,0,0,0,75813,task2,1209344,false,false,1297,image-keyboard-response,10
true,12,2,2,1,false,z,false,false,0.0-2.0-0.43-0.392-3.392,0,1,0,68,false,stim,true,2,445,0,0,2,75813,task2,1211319,false,false,1300,image-keyboard-response,11
true,12,1,2,1,true,z,false,true,0.0-2.0-0.43-0.393-3.393,0,1,0,90,false,stim,false,2,634,0,0,2,75813,task2,1213507,false,false,1303,image-keyboard-response,12
true,12,1,2,1,true,z,false,true,0.0-2.0-0.43-0.394-3.394,0,1,0,90,false,stim,false,2,554,0,0,2,75813,task2,1215599,false,false,1306,image-keyboard-response,13
true,12,0,2,2,false,d,true,true,0.0-2.0-0.43-0.395-3.395,0,1,0,81,false,stim,false,1,768,0,0,0,75813,task2,1217892,false,true,1309,image-keyboard-response,14
true,12,2,2,2,true,d,false,true,0.0-2.0-0.44-0.396-3.396,0,1,0,68,false,stim,false,2,477,0,1,1,75813,task2,1219912,false,false,1312,image-keyboard-response,15
true,12,1,2,1,true,z,false,true,0.0-2.0-0.44-0.397-3.397,0,1,0,90,false,stim,false,2,387,0,0,2,75813,task2,1221815,false,false,1315,image-keyboard-response,16
true,12,1,2,1,true,z,false,true,0.0-2.0-0.44-0.398-3.398,0,1,0,90,false,stim,false,2,711,0,0,2,75813,task2,1224056,false,false,1318,image-keyboard-response,17
true,12,0,2,2,false,d,true,false,0.0-2.0-0.44-0.399-3.399,0,1,0,81,false,stim,false,1,1453,0,0,0,75813,task2,1227038,false,false,1321,image-keyboard-response,18
true,12,1,2,2,false,d,false,false,0.0-2.0-0.44-0.400-3.400,0,1,0,90,false,stim,true,1,823,0,0,0,75813,task2,1229386,false,false,1324,image-keyboard-response,19
true,12,2,2,2,true,d,false,true,0.0-2.0-0.44-0.401-3.401,0,1,0,68,false,stim,false,2,874,0,1,1,75813,task2,1231785,false,false,1327,image-keyboard-response,20
true,12,1,2,2,false,d,false,false,0.0-2.0-0.44-0.402-3.402,0,1,0,90,false,stim,true,1,584,0,0,0,75813,task2,1233898,false,false,1330,image-keyboard-response,21
true,12,2,2,2,true,d,false,true,0.0-2.0-0.44-0.403-3.403,0,1,0,68,false,stim,false,2,614,0,1,1,75813,task2,1236049,false,false,1333,image-keyboard-response,22
true,12,2,2,1,false,z,false,false,0.0-2.0-0.44-0.404-3.404,0,1,0,68,false,stim,true,2,422,0,0,2,75813,task2,1238007,false,false,1336,image-keyboard-response,23
true,12,2,2,2,true,d,false,true,0.0-2.0-0.45-0.405-3.405,0,1,0,68,false,stim,false,2,711,0,1,1,75813,task2,1240255,false,false,1339,image-keyboard-response,24
true,12,0,2,2,false,d,true,false,0.0-2.0-0.45-0.406-3.406,0,1,0,81,false,stim,false,1,1121,0,0,0,75813,task2,1242904,false,false,1342,image-keyboard-response,25
true,12,1,2,2,false,d,false,false,0.0-2.0-0.45-0.407-3.407,0,1,0,90,false,stim,true,1,593,0,0,0,75813,task2,1245036,false,false,1345,image-keyboard-response,26
true,12,2,2,1,false,z,false,false,0.0-2.0-0.45-0.408-3.408,0,1,0,68,false,stim,true,2,1078,0,0,2,75813,task2,1247640,false,false,1348,image-keyboard-response,27
true,12,1,2,1,true,z,false,false,0.0-2.0-0.45-0.409-3.409,0,1,0,90,false,stim,false,2,787,0,0,2,75813,task2,1249957,false,true,1351,image-keyboard-response,28
true,12,2,2,2,true,d,false,true,0.0-2.0-0.45-0.410-3.410,0,1,0,68,false,stim,false,2,445,0,0,1,75813,task2,1251949,false,false,1354,image-keyboard-response,29
true,12,0,2,1,false,z,true,false,0.0-2.0-0.45-0.411-3.411,0,1,0,81,false,stim,false,2,946,0,0,2,75813,task2,1254429,false,false,1357,image-keyboard-response,30
true,12,1,2,2,false,d,false,false,0.0-2.0-0.45-0.412-3.412,0,1,0,90,false,stim,true,1,980,0,0,0,75813,task2,1256945,false,false,1360,image-keyboard-response,31
true,13,2,1,1,false,z,false,false,0.0-2.0-0.45-0.413-3.413,0,0,0,68,true,stim,true,2,466,0,0,1,75813,task2,1258950,false,false,1363,image-keyboard-response,1
true,13,1,1,1,true,z,false,true,0.0-2.0-0.46-0.414-3.414,0,0,0,90,false,stim,false,2,1302,0,0,0,75813,task2,1261796,false,false,1366,image-keyboard-response,2
true,13,2,1,0,false,q,true,true,0.0-2.0-0.46-0.415-3.415,0,0,0,68,false,stim,false,1,1162,0,0,2,75813,task2,1264496,false,true,1369,image-keyboard-response,3
true,13,0,1,1,false,z,true,false,0.0-2.0-0.46-0.416-3.416,0,0,0,81,false,stim,false,2,1085,0,0,1,75813,task2,1267108,false,false,1372,image-keyboard-response,4
true,13,1,1,1,true,z,false,false,0.0-2.0-0.46-0.417-3.417,0,0,0,90,false,stim,false,2,713,0,0,1,75813,task2,1269357,false,true,1375,image-keyboard-response,5
true,13,1,1,1,true,z,false,true,0.0-2.0-0.46-0.418-3.418,0,0,0,90,false,stim,false,2,1174,0,0,0,75813,task2,1272047,false,false,1378,image-keyboard-response,6
true,13,2,1,0,false,q,true,false,0.0-2.0-0.46-0.419-3.419,0,0,0,68,false,stim,false,1,461,0,0,2,75813,task2,1274045,false,false,1381,image-keyboard-response,7
true,13,2,1,1,false,z,false,true,0.0-2.0-0.46-0.420-3.420,0,0,0,68,false,stim,true,2,1533,0,0,1,75813,task2,1277098,false,true,1384,image-keyboard-response,8
true,13,1,1,1,true,z,false,true,0.0-2.0-0.46-0.421-3.421,0,0,0,90,false,stim,false,2,618,0,0,0,75813,task2,1279242,false,false,1387,image-keyboard-response,9
true,13,0,1,0,true,q,false,true,0.0-2.0-0.46-0.422-3.422,0,0,0,81,false,stim,false,1,933,0,0,2,75813,task2,1281708,false,false,1390,image-keyboard-response,10
true,13,2,1,1,false,z,false,false,0.0-2.0-0.47-0.423-3.423,0,0,0,68,false,stim,true,2,1739,0,0,1,75813,task2,1284974,false,false,1393,image-keyboard-response,11
true,13,1,1,0,false,q,false,false,0.0-2.0-0.47-0.424-3.424,0,0,0,90,false,stim,true,1,711,0,0,2,75813,task2,1287216,false,false,1396,image-keyboard-response,12
true,13,0,1,1,false,z,true,false,0.0-2.0-0.47-0.425-3.425,0,0,0,81,false,stim,false,2,1325,0,0,0,75813,task2,1290069,false,false,1399,image-keyboard-response,13
true,13,1,1,0,false,q,false,false,0.0-2.0-0.47-0.426-3.426,0,0,0,90,false,stim,true,1,435,0,0,2,75813,task2,1292029,false,false,1402,image-keyboard-response,14
true,13,2,1,1,false,z,false,false,0.0-2.0-0.47-0.427-3.427,0,0,0,68,false,stim,true,2,256,0,0,0,75813,task2,1293810,false,false,1405,image-keyboard-response,15
true,13,0,1,1,false,z,true,true,0.0-2.0-0.47-0.428-3.428,0,0,0,81,false,stim,false,2,36,0,0,1,75813,task2,1295379,false,true,1408,image-keyboard-response,16
true,13,1,1,1,true,z,false,true,0.0-2.0-0.47-0.429-3.429,0,0,0,90,false,stim,false,2,1023,0,0,0,75813,task2,1297928,false,false,1411,image-keyboard-response,17
true,13,2,1,0,false,q,true,false,0.0-2.0-0.47-0.430-3.430,0,0,0,68,false,stim,false,1,484,0,0,2,75813,task2,1299948,false,false,1414,image-keyboard-response,18
true,13,0,1,1,false,z,true,false,0.0-2.0-0.47-0.431-3.431,0,0,0,81,false,stim,false,2,514,0,0,1,75813,task2,1301998,false,false,1417,image-keyboard-response,19
true,13,1,1,1,true,z,false,true,0.0-2.0-0.48-0.432-3.432,0,0,0,90,false,stim,false,2,1931,0,0,0,75813,task2,1305474,false,false,1420,image-keyboard-response,20
true,13,1,1,1,true,z,false,true,0.0-2.0-0.48-0.433-3.433,0,0,0,90,false,stim,false,2,511,0,0,0,75813,task2,1307499,false,false,1423,image-keyboard-response,21
true,13,2,1,0,false,q,true,false,0.0-2.0-0.48-0.434-3.434,0,0,0,68,false,stim,false,1,1261,0,0,2,75813,task2,1310296,false,false,1426,image-keyboard-response,22
true,13,2,1,1,false,z,false,false,0.0-2.0-0.48-0.435-3.435,0,0,0,68,false,stim,true,2,1280,0,0,1,75813,task2,1313110,false,false,1429,image-keyboard-response,23
true,13,0,1,0,true,q,false,true,0.0-2.0-0.48-0.436-3.436,0,0,0,81,false,stim,false,1,1203,0,0,2,75813,task2,1315827,false,false,1432,image-keyboard-response,24
true,13,1,1,1,true,z,false,true,0.0-2.0-0.48-0.437-3.437,0,0,0,90,false,stim,false,2,481,0,0,0,75813,task2,1317844,false,false,1435,image-keyboard-response,25
true,13,2,1,1,false,z,false,false,0.0-2.0-0.48-0.438-3.438,0,0,0,68,false,stim,true,2,1334,0,0,1,75813,task2,1320718,false,false,1438,image-keyboard-response,26
true,13,0,1,1,false,z,true,false,0.0-2.0-0.48-0.439-3.439,0,0,0,81,false,stim,false,2,895,0,0,1,75813,task2,1323138,false,false,1441,image-keyboard-response,27
true,13,0,1,0,true,q,false,true,0.0-2.0-0.48-0.440-3.440,0,0,0,81,false,stim,false,1,846,0,0,2,75813,task2,1325500,false,false,1444,image-keyboard-response,28
true,13,1,1,1,true,z,false,true,0.0-2.0-0.49-0.441-3.441,0,0,0,90,false,stim,false,2,1157,0,0,1,75813,task2,1328191,false,false,1447,image-keyboard-response,29
true,13,0,1,0,true,q,false,true,0.0-2.0-0.49-0.442-3.442,0,0,0,81,false,stim,false,1,855,0,0,2,75813,task2,1330590,false,false,1450,image-keyboard-response,30
true,13,1,1,1,true,z,false,true,0.0-2.0-0.49-0.443-3.443,0,0,0,90,false,stim,false,2,412,0,0,0,75813,task2,1332528,false,false,1453,image-keyboard-response,31
true,13,0,1,0,true,q,false,true,0.0-2.0-0.49-0.444-3.444,0,0,0,81,false,stim,false,1,420,0,0,2,75813,task2,1334464,false,false,1456,image-keyboard-response,32
true,13,1,1,1,true,z,false,true,0.0-2.0-0.49-0.445-3.445,0,0,0,90,false,stim,false,2,467,0,0,1,75813,task2,1336472,false,false,1459,image-keyboard-response,33
true,13,1,1,1,true,z,false,true,0.0-2.0-0.49-0.446-3.446,0,0,0,90,false,stim,false,2,531,0,1,0,75813,task2,1338534,false,false,1462,image-keyboard-response,34
true,13,0,1,0,true,q,false,false,0.0-2.0-0.49-0.447-3.447,0,0,0,81,false,stim,false,1,423,0,0,2,75813,task2,1340487,false,true,1465,image-keyboard-response,35
true,13,1,1,1,true,z,false,true,0.0-2.0-0.49-0.448-3.448,0,0,0,90,false,stim,false,2,692,0,1,0,75813,task2,1342707,false,false,1468,image-keyboard-response,36
true,13,1,1,1,true,z,false,false,0.0-2.0-0.49-0.449-3.449,0,0,0,90,false,stim,false,2,656,0,0,1,75813,task2,1344902,false,true,1471,image-keyboard-response,37
true,14,1,2,1,true,z,false,true,0.0-2.0-0.50-0.450-3.450,1,0,0,90,true,stim,false,1,1352,0,1,0,75813,task2,1347796,false,false,1474,image-keyboard-response,1
true,14,2,2,0,false,q,true,false,0.0-2.0-0.50-0.451-3.451,1,0,0,68,false,stim,false,1,975,0,0,1,75813,task2,1350299,false,false,1477,image-keyboard-response,2
true,14,1,2,0,false,q,false,true,0.0-2.0-0.50-0.452-3.452,1,0,0,90,false,stim,true,1,1021,0,0,1,75813,task2,1352844,false,true,1480,image-keyboard-response,3
true,14,0,2,1,false,z,true,false,0.0-2.0-0.50-0.453-3.453,1,0,0,81,false,stim,false,1,546,0,1,0,75813,task2,1354920,false,false,1483,image-keyboard-response,4
true,14,1,2,0,false,q,false,false,0.0-2.0-0.50-0.454-3.454,1,0,0,90,false,stim,true,1,515,0,0,1,75813,task2,1356958,false,false,1486,image-keyboard-response,5
true,14,2,2,1,false,z,true,true,0.0-2.0-0.50-0.455-3.455,1,0,0,68,false,stim,false,1,416,0,1,0,75813,task2,1358909,false,true,1489,image-keyboard-response,6
true,14,0,2,1,false,z,false,false,0.0-2.0-0.50-0.456-3.456,1,0,0,81,false,stim,true,0,487,0,0,2,75813,task2,1360922,false,false,1492,image-keyboard-response,7
true,14,1,2,1,true,z,false,true,0.0-2.0-0.50-0.457-3.457,1,0,0,90,false,stim,false,0,1014,0,0,2,75813,task2,1363458,false,false,1495,image-keyboard-response,8
true,14,1,2,1,true,z,false,true,0.0-2.0-0.50-0.458-3.458,1,0,0,90,false,stim,false,0,447,0,0,2,75813,task2,1365432,false,false,1498,image-keyboard-response,9
true,14,2,2,0,false,q,true,false,0.0-2.0-0.51-0.459-3.459,1,0,0,68,false,stim,false,1,1632,0,0,1,75813,task2,1368612,false,false,1501,image-keyboard-response,10
true,14,1,2,1,true,z,false,true,0.0-2.0-0.51-0.460-3.460,1,0,0,90,false,stim,false,0,394,0,0,2,75813,task2,1370539,false,false,1504,image-keyboard-response,11
true,14,1,2,1,true,z,false,true,0.0-2.0-0.51-0.461-3.461,1,0,0,90,false,stim,false,0,560,0,0,2,75813,task2,1372624,false,false,1507,image-keyboard-response,12
true,14,1,2,1,true,z,false,false,0.0-2.0-0.51-0.462-3.462,1,0,0,90,false,stim,false,0,401,0,0,2,75813,task2,1374565,false,true,1510,image-keyboard-response,13
true,14,1,2,0,false,q,false,false,0.0-2.0-0.51-0.463-3.463,1,0,0,90,false,stim,true,1,1468,0,0,1,75813,task2,1377572,false,false,1513,image-keyboard-response,14
true,14,0,2,1,false,z,true,false,0.0-2.0-0.51-0.464-3.464,1,0,0,81,false,stim,false,1,803,0,1,0,75813,task2,1379906,false,false,1516,image-keyboard-response,15
true,14,2,2,1,false,z,true,false,0.0-2.0-0.51-0.465-3.465,1,0,0,68,false,stim,false,1,1711,0,1,0,75813,task2,1383156,false,false,1519,image-keyboard-response,16
true,14,0,2,0,true,q,false,true,0.0-2.0-0.51-0.466-3.466,1,0,0,81,false,stim,false,1,1049,0,0,1,75813,task2,1385742,false,false,1522,image-keyboard-response,17
true,14,1,2,1,true,z,false,true,0.0-2.0-0.51-0.467-3.467,1,0,0,90,false,stim,false,1,922,0,1,0,75813,task2,1388196,false,false,1525,image-keyboard-response,18
true,14,2,2,1,false,z,true,false,0.0-2.0-0.52-0.468-3.468,1,0,0,68,false,stim,false,0,472,0,0,2,75813,task2,1390197,false,false,1528,image-keyboard-response,19
true,14,0,2,0,true,q,false,true,0.0-2.0-0.52-0.469-3.469,1,0,0,81,false,stim,false,1,840,0,0,1,75813,task2,1392565,false,false,1531,image-keyboard-response,20
true,14,1,2,1,true,z,false,false,0.0-2.0-0.52-0.470-3.470,1,0,0,90,false,stim,false,1,405,0,1,0,75813,task2,1394508,false,true,1534,image-keyboard-response,21
true,14,0,2,1,false,z,true,false,0.0-2.0-0.52-0.471-3.471,1,0,0,81,false,stim,false,1,787,0,1,0,75813,task2,1396822,false,false,1537,image-keyboard-response,22
true,14,0,2,0,true,q,false,true,0.0-2.0-0.52-0.472-3.472,1,0,0,81,false,stim,false,1,653,0,0,1,75813,task2,1399007,false,false,1540,image-keyboard-response,23
true,14,0,2,0,true,q,false,true,0.0-2.0-0.52-0.473-3.473,1,0,0,81,false,stim,false,1,491,0,0,1,75813,task2,1401035,false,false,1543,image-keyboard-response,24
true,14,1,2,1,true,z,false,true,0.0-2.0-0.52-0.474-3.474,1,0,0,90,false,stim,false,0,901,0,0,2,75813,task2,1403466,false,false,1546,image-keyboard-response,25
true,14,1,2,1,true,z,false,true,0.0-2.0-0.52-0.475-3.475,1,0,0,90,false,stim,false,0,602,0,0,2,75813,task2,1405606,false,false,1549,image-keyboard-response,26
true,14,0,2,1,false,z,true,false,0.0-2.0-0.52-0.476-3.476,1,0,0,81,false,stim,false,1,918,0,1,0,75813,task2,1408062,false,false,1552,image-keyboard-response,27
true,14,1,2,1,true,z,false,true,0.0-2.0-0.53-0.477-3.477,1,0,0,90,false,stim,false,0,434,0,0,2,75813,task2,1410039,false,false,1555,image-keyboard-response,28
true,14,2,2,1,false,z,true,false,0.0-2.0-0.53-0.478-3.478,1,0,0,68,false,stim,false,1,734,0,1,0,75813,task2,1412298,false,false,1558,image-keyboard-response,29
true,14,0,2,1,false,z,false,false,0.0-2.0-0.53-0.479-3.479,1,0,0,81,false,stim,true,0,352,0,0,2,75813,task2,1414171,false,false,1561,image-keyboard-response,30
true,14,1,2,1,true,z,false,true,0.0-2.0-0.53-0.480-3.480,1,0,0,90,false,stim,false,1,1458,0,0,0,75813,task2,1417161,false,false,1564,image-keyboard-response,31
true,14,1,2,1,true,z,false,true,0.0-2.0-0.53-0.481-3.481,1,0,0,90,false,stim,false,1,499,0,0,0,75813,task2,1419188,false,false,1567,image-keyboard-response,32
true,14,0,2,0,true,q,false,true,0.0-2.0-0.53-0.482-3.482,1,0,0,81,false,stim,false,1,900,0,1,1,75813,task2,1421613,false,false,1570,image-keyboard-response,33
true,14,0,2,0,true,q,false,true,0.0-2.0-0.53-0.483-3.483,1,0,0,81,false,stim,false,1,659,0,1,1,75813,task2,1423802,false,false,1573,image-keyboard-response,34
true,14,2,2,1,false,z,true,false,0.0-2.0-0.53-0.484-3.484,1,0,0,68,false,stim,false,0,862,0,0,2,75813,task2,1426206,false,false,1576,image-keyboard-response,35
true,15,0,2,0,true,q,false,false,0.0-2.0-0.53-0.485-3.485,0,1,0,81,true,stim,false,0,716,0,1,1,75813,task2,1428459,false,true,1579,image-keyboard-response,1
true,15,1,2,0,false,q,true,false,0.0-2.0-0.54-0.486-3.486,0,1,0,90,false,stim,false,0,773,0,1,1,75813,task2,1430757,false,false,1582,image-keyboard-response,2
true,15,1,2,2,false,d,false,false,0.0-2.0-0.54-0.487-3.487,0,1,0,90,false,stim,true,1,1096,0,0,2,75813,task2,1433380,false,false,1585,image-keyboard-response,3
true,15,2,2,2,true,d,false,true,0.0-2.0-0.54-0.488-3.488,0,1,0,68,false,stim,false,1,985,0,0,2,75813,task2,1435909,false,false,1588,image-keyboard-response,4
true,15,1,2,0,false,q,true,false,0.0-2.0-0.54-0.489-3.489,0,1,0,90,false,stim,false,0,1677,0,1,1,75813,task2,1439120,false,false,1591,image-keyboard-response,5
true,15,0,2,0,true,q,false,true,0.0-2.0-0.54-0.490-3.490,0,1,0,81,false,stim,false,1,820,0,0,0,75813,task2,1441455,false,false,1594,image-keyboard-response,6
true,15,0,2,0,true,q,false,true,0.0-2.0-0.54-0.491-3.491,0,1,0,81,false,stim,false,1,662,0,0,0,75813,task2,1443655,false,false,1597,image-keyboard-response,7
true,15,0,2,0,true,q,false,true,0.0-2.0-0.54-0.492-3.492,0,1,0,81,false,stim,false,1,678,0,0,0,75813,task2,1445874,false,false,1600,image-keyboard-response,8
true,15,2,2,2,true,d,false,true,0.0-2.0-0.54-0.493-3.493,0,1,0,68,false,stim,false,1,670,0,0,2,75813,task2,1448086,false,false,1603,image-keyboard-response,9
true,15,0,2,0,true,q,false,true,0.0-2.0-0.54-0.494-3.494,0,1,0,81,false,stim,false,0,1654,0,1,1,75813,task2,1451279,false,false,1606,image-keyboard-response,10
true,15,2,2,2,true,d,false,true,0.0-2.0-0.55-0.495-3.495,0,1,0,68,false,stim,false,1,1004,0,0,2,75813,task2,1453808,false,false,1609,image-keyboard-response,11
true,15,0,2,0,true,q,false,true,0.0-2.0-0.55-0.496-3.496,0,1,0,81,false,stim,false,1,651,0,0,0,75813,task2,1455987,false,false,1612,image-keyboard-response,12
true,15,0,2,0,true,q,false,true,0.0-2.0-0.55-0.497-3.497,0,1,0,81,false,stim,false,0,686,0,1,1,75813,task2,1458210,false,false,1615,image-keyboard-response,13
true,15,0,2,0,true,q,false,true,0.0-2.0-0.55-0.498-3.498,0,1,0,81,false,stim,false,0,786,0,1,1,75813,task2,1460521,false,false,1618,image-keyboard-response,14
true,15,2,2,2,true,d,false,true,0.0-2.0-0.55-0.499-3.499,0,1,0,68,false,stim,false,1,1052,0,0,2,75813,task2,1463116,false,false,1621,image-keyboard-response,15
true,15,0,2,0,true,q,false,true,0.0-2.0-0.55-0.500-3.500,0,1,0,81,false,stim,false,1,903,0,0,0,75813,task2,1465546,false,false,1624,image-keyboard-response,16
true,15,0,2,0,true,q,false,false,0.0-2.0-0.55-0.501-3.501,0,1,0,81,false,stim,false,1,491,0,0,0,75813,task2,1467575,false,true,1627,image-keyboard-response,17
true,15,0,2,0,true,q,false,true,0.0-2.0-0.55-0.502-3.502,0,1,0,81,false,stim,false,0,798,0,1,1,75813,task2,1469902,false,false,1630,image-keyboard-response,18
true,15,2,2,2,true,d,false,true,0.0-2.0-0.55-0.503-3.503,0,1,0,68,false,stim,false,1,855,0,0,2,75813,task2,1472300,false,false,1633,image-keyboard-response,19
true,15,0,2,0,true,q,false,true,0.0-2.0-0.56-0.504-3.504,0,1,0,81,false,stim,false,0,1107,0,1,1,75813,task2,1474931,false,false,1636,image-keyboard-response,20
true,15,2,2,2,true,d,false,true,0.0-2.0-0.56-0.505-3.505,0,1,0,68,false,stim,false,1,566,0,0,2,75813,task2,1477032,false,false,1639,image-keyboard-response,21
true,15,0,2,0,true,q,false,true,0.0-2.0-0.56-0.506-3.506,0,1,0,81,false,stim,false,1,473,0,0,0,75813,task2,1479037,false,false,1642,image-keyboard-response,22
true,15,0,2,0,true,q,false,true,0.0-2.0-0.56-0.507-3.507,0,1,0,81,false,stim,false,1,889,0,0,0,75813,task2,1481454,false,false,1645,image-keyboard-response,23
true,15,0,2,0,true,q,false,true,0.0-2.0-0.56-0.508-3.508,0,1,0,81,false,stim,false,1,364,0,0,0,75813,task2,1483348,false,false,1648,image-keyboard-response,24
true,15,2,2,2,true,d,false,true,0.0-2.0-0.56-0.509-3.509,0,1,0,68,false,stim,false,1,632,0,0,2,75813,task2,1485497,false,false,1651,image-keyboard-response,25
true,15,2,2,2,true,d,false,true,0.0-2.0-0.56-0.510-3.510,0,1,0,68,false,stim,false,1,486,0,0,2,75813,task2,1487510,false,false,1654,image-keyboard-response,26
true,15,0,2,0,true,q,false,true,0.0-2.0-0.56-0.511-3.511,0,1,0,81,false,stim,false,0,455,0,1,1,75813,task2,1489500,false,false,1657,image-keyboard-response,27
true,15,0,2,0,true,q,false,true,0.0-2.0-0.56-0.512-3.512,0,1,0,81,false,stim,false,0,501,0,1,1,75813,task2,1491527,false,false,1660,image-keyboard-response,28
true,15,2,2,0,false,q,true,false,0.0-2.0-0.57-0.513-3.513,0,1,0,68,false,stim,false,1,542,0,0,0,75813,task2,1493606,false,false,1663,image-keyboard-response,29
true,15,0,2,0,true,q,false,true,0.0-2.0-0.57-0.514-3.514,0,1,0,81,false,stim,false,1,496,0,0,0,75813,task2,1495631,false,false,1666,image-keyboard-response,30
true,15,0,2,0,true,q,false,true,0.0-2.0-0.57-0.515-3.515,0,1,0,81,false,stim,false,1,531,0,0,0,75813,task2,1497706,false,false,1669,image-keyboard-response,31
true,15,0,2,0,true,q,false,true,0.0-2.0-0.57-0.516-3.516,0,1,0,81,false,stim,false,0,844,0,1,1,75813,task2,1500078,false,false,1672,image-keyboard-response,32
true,15,2,2,2,true,d,false,true,0.0-2.0-0.57-0.517-3.517,0,1,0,68,false,stim,false,1,896,0,0,2,75813,task2,1502507,false,false,1675,image-keyboard-response,33
true,15,2,2,2,true,d,false,true,0.0-2.0-0.57-0.518-3.518,0,1,0,68,false,stim,false,1,671,0,0,2,75813,task2,1504717,false,false,1678,image-keyboard-response,34
true,16,0,2,0,true,q,false,true,0.0-2.0-0.57-0.519-3.519,0,1,0,81,true,stim,false,0,806,0,1,1,75813,task2,1507050,false,false,1681,image-keyboard-response,1
true,16,0,2,0,true,q,false,true,0.0-2.0-0.57-0.520-3.520,0,1,0,81,false,stim,false,0,517,0,1,1,75813,task2,1509102,false,false,1684,image-keyboard-response,2
true,16,2,2,1,false,z,false,false,0.0-2.0-0.57-0.521-3.521,0,1,0,68,false,stim,true,2,836,0,0,2,75813,task2,1511470,false,false,1687,image-keyboard-response,3
true,16,0,2,0,true,q,false,false,0.0-2.0-0.58-0.522-3.522,0,1,0,81,false,stim,false,0,406,0,1,1,75813,task2,1513419,false,true,1690,image-keyboard-response,4
true,16,2,2,1,false,z,false,true,0.0-2.0-0.58-0.523-3.523,0,1,0,68,false,stim,true,2,1917,0,0,2,75813,task2,1516862,false,true,1693,image-keyboard-response,5
true,16,0,2,2,false,d,false,false,0.0-2.0-0.58-0.524-3.524,0,1,0,81,false,stim,true,0,449,0,0,0,75813,task2,1518853,false,false,1696,image-keyboard-response,6
true,16,1,2,2,false,d,true,false,0.0-2.0-0.58-0.525-3.525,0,1,0,90,false,stim,false,0,644,0,0,0,75813,task2,1521028,false,false,1699,image-keyboard-response,7
true,16,0,2,0,true,q,false,true,0.0-2.0-0.58-0.526-3.526,0,1,0,81,false,stim,false,0,1289,0,1,1,75813,task2,1523863,false,false,1702,image-keyboard-response,8
true,16,2,2,1,false,z,false,false,0.0-2.0-0.58-0.527-3.527,0,1,0,68,false,stim,true,2,552,0,0,2,75813,task2,1525946,false,false,1705,image-keyboard-response,9
true,16,1,2,1,true,z,false,true,0.0-2.0-0.58-0.528-3.528,0,1,0,90,false,stim,false,2,2143,0,0,2,75813,task2,1529618,false,false,1708,image-keyboard-response,10
true,16,0,2,0,true,q,false,true,0.0-2.0-0.58-0.529-3.529,0,1,0,81,false,stim,false,0,608,0,1,1,75813,task2,1531758,false,false,1711,image-keyboard-response,11
true,16,2,2,2,true,d,false,true,0.0-2.0-0.58-0.530-3.530,0,1,0,68,false,stim,false,0,682,0,0,0,75813,task2,1533976,false,false,1714,image-keyboard-response,12
true,16,1,2,1,true,z,false,false,0.0-2.0-0.59-0.531-3.531,0,1,0,90,false,stim,false,2,901,0,0,2,75813,task2,1536406,false,true,1717,image-keyboard-response,13
true,16,2,2,2,true,d,false,true,0.0-2.0-0.59-0.532-3.532,0,1,0,68,false,stim,false,0,1146,0,0,0,75813,task2,1539091,false,false,1720,image-keyboard-response,14
true,16,2,2,2,true,d,false,true,0.0-2.0-0.59-0.533-3.533,0,1,0,68,false,stim,false,0,520,0,0,0,75813,task2,1541144,false,false,1723,image-keyboard-response,15
true,16,0,2,1,false,z,true,false,0.0-2.0-0.59-0.534-3.534,0,1,0,81,false,stim,false,2,623,0,0,2,75813,task2,1543298,false,false,1726,image-keyboard-response,16
true,16,0,2,0,true,q,false,true,0.0-2.0-0.59-0.535-3.535,0,1,0,81,false,stim,false,0,439,0,1,1,75813,task2,1545275,false,false,1729,image-keyboard-response,17
true,16,2,2,2,true,d,false,true,0.0-2.0-0.59-0.536-3.536,0,1,0,68,false,stim,false,0,726,0,0,0,75813,task2,1547539,false,false,1732,image-keyboard-response,18
true,16,1,2,1,true,z,false,true,0.0-2.0-0.59-0.537-3.537,0,1,0,90,false,stim,false,2,639,0,0,2,75813,task2,1549711,false,false,1735,image-keyboard-response,19
true,16,0,2,0,true,q,false,true,0.0-2.0-0.59-0.538-3.538,0,1,0,81,false,stim,false,0,633,0,1,1,75813,task2,1551887,false,false,1738,image-keyboard-response,20
true,16,2,2,0,false,q,true,false,0.0-2.0-0.59-0.539-3.539,0,1,0,68,false,stim,false,0,460,0,1,1,75813,task2,1553875,false,false,1741,image-keyboard-response,21
true,16,1,2,2,false,d,true,true,0.0-2.0-0.60-0.540-3.540,0,1,0,90,false,stim,false,0,1097,0,0,0,75813,task2,1556510,false,true,1744,image-keyboard-response,22
true,16,2,2,1,false,z,false,false,0.0-2.0-0.60-0.541-3.541,0,1,0,68,false,stim,true,2,1380,0,0,2,75813,task2,1559416,false,false,1747,image-keyboard-response,23
true,16,0,2,1,false,z,true,false,0.0-2.0-0.60-0.542-3.542,0,1,0,81,false,stim,false,2,1128,0,0,2,75813,task2,1562082,false,false,1750,image-keyboard-response,24
true,16,0,2,2,false,d,false,false,0.0-2.0-0.60-0.543-3.543,0,1,0,81,false,stim,true,0,650,0,0,0,75813,task2,1564275,false,false,1753,image-keyboard-response,25
true,16,0,2,0,true,q,false,true,0.0-2.0-0.60-0.544-3.544,0,1,0,81,false,stim,false,0,727,0,1,1,75813,task2,1566530,false,false,1756,image-keyboard-response,26
true,16,0,2,0,true,q,false,true,0.0-2.0-0.60-0.545-3.545,0,1,0,81,false,stim,false,0,1370,0,1,1,75813,task2,1569435,false,false,1759,image-keyboard-response,27
true,16,1,2,2,false,d,true,false,0.0-2.0-0.60-0.546-3.546,0,1,0,90,false,stim,false,0,472,0,1,0,75813,task2,1571436,false,false,1762,image-keyboard-response,28
true,16,0,2,0,true,q,false,true,0.0-2.0-0.60-0.547-3.547,0,1,0,81,false,stim,false,0,750,0,1,1,75813,task2,1573714,false,false,1765,image-keyboard-response,29
true,16,2,2,1,false,z,false,false,0.0-2.0-0.60-0.548-3.548,0,1,0,68,false,stim,true,2,969,0,1,2,75813,task2,1576207,false,false,1768,image-keyboard-response,30
true,16,0,2,0,true,q,false,true,0.0-2.0-0.61-0.549-3.549,0,1,0,81,false,stim,false,0,462,0,1,1,75813,task2,1578206,false,false,1771,image-keyboard-response,31
true,16,0,2,0,true,q,false,true,0.0-2.0-0.61-0.550-3.550,0,1,0,81,false,stim,false,0,976,0,1,1,75813,task2,1580719,false,false,1774,image-keyboard-response,32
false,17,-1,0,2,false,d,true,false,0.0-2.0-0.61-0.551-3.551,1,1,1,,true,stim,false,2,,0,1,0,75813,task2,1707462,false,false,1897,image-keyboard-response,1
true,17,1,0,1,true,z,false,true,0.0-2.0-0.61-0.552-3.552,1,1,1,90,false,stim,false,1,700,0,1,2,75813,task2,1709705,false,false,1900,image-keyboard-response,2
true,17,2,0,2,true,d,false,true,0.0-2.0-0.61-0.553-3.553,1,1,1,68,false,stim,false,2,892,0,1,0,75813,task2,1712157,false,false,1903,image-keyboard-response,3
true,17,1,0,1,true,z,false,true,0.0-2.0-0.61-0.554-3.554,1,1,1,90,false,stim,false,1,420,0,1,2,75813,task2,1714105,false,false,1906,image-keyboard-response,4
true,17,1,0,1,true,z,false,true,0.0-2.0-0.61-0.555-3.555,1,1,1,90,false,stim,false,1,545,0,1,2,75813,task2,1716190,false,false,1909,image-keyboard-response,5
true,17,0,0,0,true,q,false,false,0.0-2.0-0.61-0.556-3.556,1,1,1,81,false,stim,false,0,1321,0,1,1,75813,task2,1719045,false,true,1912,image-keyboard-response,6
true,17,2,0,2,true,d,false,true,0.0-2.0-0.61-0.557-3.557,1,1,1,68,false,stim,false,2,436,0,1,0,75813,task2,1721021,false,false,1915,image-keyboard-response,7
true,17,1,0,1,true,z,false,true,0.0-2.0-0.62-0.558-3.558,1,1,1,90,false,stim,false,1,521,0,1,2,75813,task2,1723085,false,false,1918,image-keyboard-response,8
true,17,0,0,0,true,q,false,true,0.0-2.0-0.62-0.559-3.559,1,1,1,81,false,stim,false,0,2175,0,0,1,75813,task2,1726800,false,false,1921,image-keyboard-response,9
true,17,0,0,0,true,q,false,true,0.0-2.0-0.62-0.560-3.560,1,1,1,81,false,stim,false,0,680,0,0,1,75813,task2,1729004,false,false,1924,image-keyboard-response,10
true,17,2,0,2,true,d,false,true,0.0-2.0-0.62-0.561-3.561,1,1,1,68,false,stim,false,2,660,0,0,0,75813,task2,1731206,false,false,1927,image-keyboard-response,11
true,17,2,0,2,true,d,false,true,0.0-2.0-0.62-0.562-3.562,1,1,1,68,false,stim,false,2,682,0,0,0,75813,task2,1733417,false,false,1930,image-keyboard-response,12
true,17,2,0,2,true,d,false,true,0.0-2.0-0.62-0.563-3.563,1,1,1,68,false,stim,false,2,610,0,0,0,75813,task2,1735565,false,false,1933,image-keyboard-response,13
true,18,0,1,2,false,d,false,false,0.0-2.0-0.62-0.564-3.564,0,0,0,81,true,stim,true,0,902,0,0,1,75813,task2,1737996,false,false,1936,image-keyboard-response,1
true,18,0,1,0,true,q,false,true,0.0-2.0-0.62-0.565-3.565,0,0,0,81,false,stim,false,1,1500,0,0,2,75813,task2,1741034,false,false,1939,image-keyboard-response,2
true,18,0,1,0,true,q,false,true,0.0-2.0-0.62-0.566-3.566,0,0,0,81,false,stim,false,1,1180,0,0,2,75813,task2,1743745,false,false,1942,image-keyboard-response,3
true,18,0,1,0,true,q,false,true,0.0-2.0-0.63-0.567-3.567,0,0,0,81,false,stim,false,1,871,0,0,2,75813,task2,1746155,false,false,1945,image-keyboard-response,4
true,18,2,1,1,false,z,false,false,0.0-2.0-0.63-0.568-3.568,0,0,0,68,false,stim,true,2,809,0,0,0,75813,task2,1748504,false,false,1948,image-keyboard-response,5
true,18,0,1,0,true,q,false,true,0.0-2.0-0.63-0.569-3.569,0,0,0,81,false,stim,false,1,803,0,0,2,75813,task2,1750839,false,false,1951,image-keyboard-response,6
true,18,1,1,2,false,d,true,false,0.0-2.0-0.63-0.570-3.570,0,0,0,90,false,stim,false,0,981,0,0,1,75813,task2,1753335,false,false,1954,image-keyboard-response,7
true,18,0,1,2,false,d,false,false,0.0-2.0-0.63-0.571-3.571,0,0,0,81,false,stim,true,0,440,0,0,1,75813,task2,1755304,false,false,1957,image-keyboard-response,8
true,18,0,1,2,false,d,false,false,0.0-2.0-0.63-0.572-3.572,0,0,0,81,false,stim,true,0,856,0,0,1,75813,task2,1757700,false,false,1960,image-keyboard-response,9
true,18,1,1,0,false,q,false,false,0.0-2.0-0.63-0.573-3.573,0,0,0,90,false,stim,true,1,644,0,0,2,75813,task2,1759868,false,false,1963,image-keyboard-response,10
true,18,2,1,1,false,z,false,false,0.0-2.0-0.63-0.574-3.574,0,0,0,68,false,stim,true,2,1332,0,0,0,75813,task2,1762735,false,false,1966,image-keyboard-response,11
true,18,1,1,1,true,z,false,false,0.0-2.0-0.63-0.575-3.575,0,0,0,90,false,stim,false,2,925,0,0,0,75813,task2,1765186,false,true,1969,image-keyboard-response,12
true,18,0,1,2,false,d,false,false,0.0-2.0-0.64-0.576-3.576,0,0,0,81,false,stim,true,0,691,0,0,1,75813,task2,1767417,false,false,1972,image-keyboard-response,13
true,18,1,1,1,true,z,false,false,0.0-2.0-0.64-0.577-3.577,0,0,0,90,false,stim,false,2,596,0,0,0,75813,task2,1769539,false,true,1975,image-keyboard-response,14
true,18,2,1,0,false,q,true,false,0.0-2.0-0.64-0.578-3.578,0,0,0,68,false,stim,false,1,765,0,0,2,75813,task2,1771829,false,false,1978,image-keyboard-response,15
true,18,0,1,1,false,z,true,false,0.0-2.0-0.64-0.579-3.579,0,0,0,81,false,stim,false,2,1340,0,0,0,75813,task2,1774695,false,false,1981,image-keyboard-response,16
true,18,1,1,0,false,q,false,false,0.0-2.0-0.64-0.580-3.580,0,0,0,90,false,stim,true,1,639,0,0,2,75813,task2,1776874,false,false,1984,image-keyboard-response,17
true,18,1,1,1,true,z,false,true,0.0-2.0-0.64-0.581-3.581,0,0,0,90,false,stim,false,2,1563,0,0,0,75813,task2,1779978,false,false,1987,image-keyboard-response,18
true,18,0,1,2,false,d,false,false,0.0-2.0-0.64-0.582-3.582,0,0,0,81,false,stim,true,0,712,0,0,1,75813,task2,1782216,false,false,1990,image-keyboard-response,19
true,18,2,1,2,true,d,false,true,0.0-2.0-0.64-0.583-3.583,0,0,0,68,false,stim,false,0,1744,0,0,1,75813,task2,1785489,false,false,1993,image-keyboard-response,20
true,18,0,1,0,true,q,false,true,0.0-2.0-0.64-0.584-3.584,0,0,0,81,false,stim,false,1,1067,0,0,2,75813,task2,1788091,false,false,1996,image-keyboard-response,21
true,18,0,1,0,true,q,false,true,0.0-2.0-0.65-0.585-3.585,0,0,0,81,false,stim,false,1,607,0,0,2,75813,task2,1790232,false,false,1999,image-keyboard-response,22
true,18,2,1,2,true,d,false,true,0.0-2.0-0.65-0.586-3.586,0,0,0,68,false,stim,false,0,926,0,0,1,75813,task2,1792710,false,false,2002,image-keyboard-response,23
true,18,1,1,1,true,z,false,true,0.0-2.0-0.65-0.587-3.587,0,0,0,90,false,stim,false,2,522,0,0,0,75813,task2,1794757,false,false,2005,image-keyboard-response,24
true,18,1,1,1,true,z,false,true,0.0-2.0-0.65-0.588-3.588,0,0,0,90,false,stim,false,2,631,0,0,0,75813,task2,1796927,false,false,2008,image-keyboard-response,25
true,18,0,1,2,false,d,false,false,0.0-2.0-0.65-0.589-3.589,0,0,0,81,false,stim,true,0,677,0,0,1,75813,task2,1799130,false,false,2011,image-keyboard-response,26
true,18,0,1,0,true,q,false,true,0.0-2.0-0.65-0.590-3.590,0,0,0,81,false,stim,false,1,1781,0,0,2,75813,task2,1802455,false,false,2014,image-keyboard-response,27
true,18,0,1,0,true,q,false,true,0.0-2.0-0.65-0.591-3.591,0,0,0,81,false,stim,false,1,958,0,0,2,75813,task2,1804941,false,false,2017,image-keyboard-response,28
true,18,2,1,2,true,d,false,true,0.0-2.0-0.65-0.592-3.592,0,0,0,68,false,stim,false,0,593,0,0,1,75813,task2,1807076,false,false,2020,image-keyboard-response,29
true,18,1,1,1,true,z,false,true,0.0-2.0-0.65-0.593-3.593,0,0,0,90,false,stim,false,2,873,0,0,0,75813,task2,1809487,false,false,2023,image-keyboard-response,30
true,18,1,1,1,true,z,false,false,0.0-2.0-0.66-0.594-3.594,0,0,0,90,false,stim,false,2,602,0,0,0,75813,task2,1811626,false,true,2026,image-keyboard-response,31
true,18,1,1,1,true,z,false,true,0.0-2.0-0.66-0.595-3.595,0,0,0,90,false,stim,false,2,1413,0,0,0,75813,task2,1814577,false,false,2029,image-keyboard-response,32
true,18,0,1,0,true,q,false,true,0.0-2.0-0.66-0.596-3.596,0,0,0,81,false,stim,false,1,898,0,0,2,75813,task2,1817004,false,false,2032,image-keyboard-response,33
true,18,2,1,2,true,d,false,true,0.0-2.0-0.66-0.597-3.597,0,0,0,68,false,stim,false,0,453,0,0,1,75813,task2,1818978,false,false,2035,image-keyboard-response,34
true,18,1,1,1,true,z,false,true,0.0-2.0-0.66-0.598-3.598,0,0,0,90,false,stim,false,2,1352,0,0,0,75813,task2,1821866,false,false,2038,image-keyboard-response,35
true,18,0,1,0,true,q,false,true,0.0-2.0-0.66-0.599-3.599,0,0,0,81,false,stim,false,1,1349,0,0,2,75813,task2,1824753,false,false,2041,image-keyboard-response,36
true,19,2,1,0,false,q,false,false,0.0-2.0-0.66-0.600-3.600,0,0,0,68,true,stim,true,2,2655,0,0,1,75813,task2,1828939,false,false,2044,image-keyboard-response,1
true,19,0,1,1,false,z,false,false,0.0-2.0-0.66-0.601-3.601,0,0,0,81,false,stim,true,0,1682,0,0,2,75813,task2,1832137,false,false,2047,image-keyboard-response,2
true,19,0,1,0,true,q,false,true,0.0-2.0-0.66-0.602-3.602,0,0,0,81,false,stim,false,2,1113,0,0,1,75813,task2,1834788,false,false,2050,image-keyboard-response,3
true,19,0,1,0,true,q,false,false,0.0-2.0-0.67-0.603-3.603,0,0,0,81,false,stim,false,2,667,0,0,1,75813,task2,1836977,false,true,2053,image-keyboard-response,4
true,19,1,1,1,true,z,false,true,0.0-2.0-0.67-0.604-3.604,0,0,0,90,false,stim,false,0,861,0,0,2,75813,task2,1839360,false,false,2056,image-keyboard-response,5
true,19,0,1,0,true,q,false,true,0.0-2.0-0.67-0.605-3.605,0,0,0,81,false,stim,false,1,1096,0,0,0,75813,task2,1841970,false,false,2059,image-keyboard-response,6
true,19,1,1,1,true,z,false,true,0.0-2.0-0.67-0.606-3.606,0,0,0,90,false,stim,false,0,866,0,0,2,75813,task2,1844350,false,false,2062,image-keyboard-response,7
true,19,2,1,0,false,q,false,false,0.0-2.0-0.67-0.607-3.607,0,0,0,68,false,stim,true,2,828,0,0,1,75813,task2,1846702,false,false,2065,image-keyboard-response,8
true,19,1,1,1,true,z,false,true,0.0-2.0-0.67-0.608-3.608,0,0,0,90,false,stim,false,0,957,0,0,2,75813,task2,1849184,false,false,2068,image-keyboard-response,9
true,19,0,1,0,true,q,false,true,0.0-2.0-0.67-0.609-3.609,0,0,0,81,false,stim,false,2,1523,0,0,1,75813,task2,1852243,false,false,2071,image-keyboard-response,10
true,19,2,1,0,false,q,true,false,0.0-2.0-0.67-0.610-3.610,0,0,0,68,false,stim,false,1,671,0,0,0,75813,task2,1854441,false,false,2074,image-keyboard-response,11
true,19,1,1,0,false,q,false,false,0.0-2.0-0.67-0.611-3.611,0,0,0,90,false,stim,true,1,712,0,0,0,75813,task2,1856687,false,false,2077,image-keyboard-response,12
true,19,1,1,1,true,z,false,true,0.0-2.0-0.68-0.612-3.612,0,0,0,90,false,stim,false,0,1019,0,0,2,75813,task2,1859244,false,false,2080,image-keyboard-response,13
true,19,0,1,0,true,q,false,true,0.0-2.0-0.68-0.613-3.613,0,0,0,81,false,stim,false,1,686,0,0,0,75813,task2,1861454,false,false,2083,image-keyboard-response,14
true,19,0,1,0,true,q,false,true,0.0-2.0-0.68-0.614-3.614,0,0,0,81,false,stim,false,1,629,0,0,0,75813,task2,1863613,false,false,2086,image-keyboard-response,15
true,19,0,1,0,true,q,false,true,0.0-2.0-0.68-0.615-3.615,0,0,0,81,false,stim,false,2,1690,0,0,1,75813,task2,1866846,false,false,2089,image-keyboard-response,16
true,19,0,1,0,true,q,false,true,0.0-2.0-0.68-0.616-3.616,0,0,0,81,false,stim,false,2,548,0,0,1,75813,task2,1868923,false,false,2092,image-keyboard-response,17
true,19,0,1,0,true,q,false,true,0.0-2.0-0.68-0.617-3.617,0,0,0,81,false,stim,false,1,636,0,0,0,75813,task2,1871100,false,false,2095,image-keyboard-response,18
true,19,0,1,0,true,q,false,true,0.0-2.0-0.68-0.618-3.618,0,0,0,81,false,stim,false,2,1294,0,0,1,75813,task2,1873930,false,false,2098,image-keyboard-response,19
true,19,1,1,1,true,z,false,true,0.0-2.0-0.68-0.619-3.619,0,0,0,90,false,stim,false,0,410,0,0,2,75813,task2,1875886,false,false,2101,image-keyboard-response,20
true,19,1,1,1,true,z,false,true,0.0-2.0-0.68-0.620-3.620,0,0,0,90,false,stim,false,0,450,0,0,2,75813,task2,1877875,false,false,2104,image-keyboard-response,21
true,19,0,1,0,true,q,false,false,0.0-2.0-0.69-0.621-3.621,0,0,0,81,false,stim,false,2,566,0,0,1,75813,task2,1879971,false,true,2107,image-keyboard-response,22
true,19,0,1,0,true,q,false,true,0.0-2.0-0.69-0.622-3.622,0,0,0,81,false,stim,false,1,834,0,0,0,75813,task2,1882337,false,false,2110,image-keyboard-response,23
true,19,1,1,1,true,z,false,true,0.0-2.0-0.69-0.623-3.623,0,0,0,90,false,stim,false,0,1520,0,0,2,75813,task2,1885395,false,false,2113,image-keyboard-response,24
true,19,0,1,0,true,q,false,true,0.0-2.0-0.69-0.624-3.624,0,0,0,81,false,stim,false,2,505,0,0,1,75813,task2,1887440,false,false,2116,image-keyboard-response,25
true,19,0,1,1,false,z,false,false,0.0-2.0-0.69-0.625-3.625,0,0,0,81,false,stim,true,0,967,0,0,2,75813,task2,1889942,false,false,2119,image-keyboard-response,26
true,19,1,1,1,true,z,false,true,0.0-2.0-0.69-0.626-3.626,0,0,0,90,false,stim,false,0,324,0,0,2,75813,task2,1891798,false,false,2122,image-keyboard-response,27
true,19,0,1,0,true,q,false,true,0.0-2.0-0.69-0.627-3.627,0,0,0,81,false,stim,false,1,461,0,0,0,75813,task2,1893797,false,false,2125,image-keyboard-response,28
true,19,0,1,0,true,q,false,true,0.0-2.0-0.69-0.628-3.628,0,0,0,81,false,stim,false,1,550,0,0,0,75813,task2,1895884,false,false,2128,image-keyboard-response,29
true,19,1,1,0,false,q,true,false,0.0-2.0-0.69-0.629-3.629,0,0,0,90,false,stim,false,2,518,0,0,1,75813,task2,1897917,false,false,2131,image-keyboard-response,30
true,19,1,1,1,true,z,false,true,0.0-2.0-0.70-0.630-3.630,0,0,0,90,false,stim,false,0,713,0,0,2,75813,task2,1900167,false,false,2134,image-keyboard-response,31
true,19,1,1,1,true,z,false,true,0.0-2.0-0.70-0.631-3.631,0,0,0,90,false,stim,false,0,501,0,0,2,75813,task2,1902186,false,false,2137,image-keyboard-response,32
true,19,0,1,0,true,q,false,true,0.0-2.0-0.70-0.632-3.632,0,0,0,81,false,stim,false,2,463,0,0,1,75813,task2,1904187,false,false,2140,image-keyboard-response,33
