answered,blockNum,choice,condition,corResp,correct,correct_response,explo,fb,internal_node_id,isStable_1,isStable_2,isStable_3,key_press,newBlock,part,persev,persevResp,rt,sessNum,stableAS,stimulus,subject,task,time_elapsed,training,trap,trial_index,trial_type,trialsInBlock
true,1,0,0,0,true,q,false,true,0.0-2.0-0.0-0.0-3.0,0,0,0,81,true,stim,false,-1,1159.5999999940395,0,0,1,79260,task1,447654,false,false,290,image-keyboard-response,1
true,1,1,0,1,true,z,false,true,0.0-2.0-0.0-0.1-3.1,0,0,0,90,false,stim,false,-1,639.7000000178814,0,0,0,79260,task1,449823,false,false,293,image-keyboard-response,2
true,1,0,0,0,true,q,false,true,0.0-2.0-0.0-0.2-3.2,0,0,0,81,false,stim,false,-1,896.4000000059605,0,0,1,79260,task1,452243,false,false,296,image-keyboard-response,3
true,1,1,0,1,true,z,false,true,0.0-2.0-0.0-0.3-3.3,0,0,0,90,false,stim,false,-1,648.1999999880791,0,0,0,79260,task1,454427,false,false,299,image-keyboard-response,4
true,1,0,0,0,true,q,false,true,0.0-2.0-0.0-0.4-3.4,0,0,0,81,false,stim,false,-1,1118.0,0,0,1,79260,task1,457076,false,false,302,image-keyboard-response,5
true,1,2,0,1,false,z,true,true,0.0-2.0-0.0-0.5-3.5,0,0,0,68,false,stim,false,-1,376.5,0,0,2,79260,task1,458977,false,true,305,image-keyboard-response,6
true,1,1,0,1,true,z,false,true,0.0-2.0-0.0-0.6-3.6,0,0,0,90,false,stim,false,-1,858.5,0,0,0,79260,task1,461360,false,false,308,image-keyboard-response,7
true,1,2,0,1,false,z,true,false,0.0-2.0-0.0-0.7-3.7,0,0,0,68,false,stim,false,-1,806.9000000059605,0,0,2,79260,task1,463686,false,false,311,image-keyboard-response,8
true,1,1,0,1,true,z,false,true,0.0-2.0-0.0-0.8-3.8,0,0,0,90,false,stim,false,-1,836.5999999940395,0,0,2,79260,task1,466046,false,false,314,image-keyboard-response,9
true,1,1,0,1,true,z,false,true,0.0-2.0-0.1-0.9-3.9,0,0,0,90,false,stim,false,-1,634.5999999940395,0,0,0,79260,task1,468195,false,false,317,image-keyboard-response,10
true,1,1,0,1,true,z,false,false,0.0-2.0-0.1-0.10-3.10,0,0,0,90,false,stim,false,-1,499.7999999821186,0,0,0,79260,task1,470213,false,true,320,image-keyboard-response,11
true,1,0,0,0,true,q,false,true,0.0-2.0-0.1-0.11-3.11,0,0,0,81,false,stim,false,-1,836.0,0,0,1,79260,task1,472569,false,false,323,image-keyboard-response,12
true,1,2,0,1,false,z,true,false,0.0-2.0-0.1-0.12-3.12,0,0,0,68,false,stim,false,-1,560.6999999880791,0,0,0,79260,task1,474643,false,false,326,image-keyboard-response,13
true,1,1,0,1,true,z,false,true,0.0-2.0-0.1-0.13-3.13,0,0,0,90,false,stim,false,-1,721.4000000059605,0,0,2,79260,task1,476884,false,false,329,image-keyboard-response,14
true,1,0,0,0,true,q,false,true,0.0-2.0-0.1-0.14-3.14,0,0,0,81,false,stim,false,-1,1002.7999999821186,0,0,1,79260,task1,479411,false,false,332,image-keyboard-response,15
true,1,1,0,1,true,z,false,true,0.0-2.0-0.1-0.15-3.15,0,0,0,90,false,stim,false,-1,1048.2000000178814,0,0,2,79260,task1,481996,false,false,335,image-keyboard-response,16
true,1,1,0,0,false,q,true,false,0.0-2.0-0.1-0.16-3.16,0,0,0,90,false,stim,false,-1,1374.199999988079,0,0,1,79260,task1,484902,false,false,338,image-keyboard-response,17
true,1,1,0,1,true,z,false,true,0.0-2.0-0.1-0.17-3.17,0,0,0,90,false,stim,false,-1,1303.800000011921,0,0,2,79260,task1,487731,false,false,341,image-keyboard-response,18
true,1,1,0,0,false,q,true,false,0.0-2.0-0.2-0.18-3.18,0,0,0,90,false,stim,false,-1,1165.9000000059605,0,0,1,79260,task1,490406,false,false,344,image-keyboard-response,19
true,1,1,0,1,true,z,false,true,0.0-2.0-0.2-0.19-3.19,0,0,0,90,false,stim,false,-1,913.7000000178814,0,0,2,79260,task1,492842,false,false,347,image-keyboard-response,20
true,1,0,0,1,false,z,true,false,0.0-2.0-0.2-0.20-3.20,0,0,0,81,false,stim,false,-1,696.6999999880791,0,0,0,79260,task1,495057,false,false,350,image-keyboard-response,21
true,1,0,0,0,true,q,false,true,0.0-2.0-0.2-0.21-3.21,0,0,0,81,false,stim,false,-1,671.5999999940395,0,0,1,79260,task1,497263,false,false,353,image-keyboard-response,22
true,1,1,0,1,true,z,false,true,0.0-2.0-0.2-0.22-3.22,0,0,0,90,false,stim,false,-1,584.0999999940395,0,0,2,79260,task1,499377,false,false,356,image-keyboard-response,23
true,1,0,0,1,false,z,true,false,0.0-2.0-0.2-0.23-3.23,0,0,0,81,false,stim,false,-1,1013.2999999821186,0,0,2,79260,task1,501915,false,false,359,image-keyboard-response,24
true,1,2,0,1,false,z,true,false,0.0-2.0-0.2-0.24-3.24,0,0,0,68,false,stim,false,-1,746.0999999940395,0,0,0,79260,task1,504184,false,false,362,image-keyboard-response,25
true,1,1,0,0,false,q,true,false,0.0-2.0-0.2-0.25-3.25,0,0,0,90,false,stim,false,-1,1173.5999999940395,0,0,1,79260,task1,506878,false,false,365,image-keyboard-response,26
true,2,1,1,0,false,q,false,false,0.0-2.0-0.2-0.26-3.26,0,0,0,90,true,stim,true,1,1507.0,0,0,0,79260,task1,509896,false,false,368,image-keyboard-response,1
true,2,1,1,0,false,q,false,false,0.0-2.0-0.3-0.27-3.27,0,0,0,90,false,stim,true,1,900.8000000119209,0,0,2,79260,task1,512311,false,false,371,image-keyboard-response,2
true,2,0,1,0,true,q,false,false,0.0-2.0-0.3-0.28-3.28,0,0,0,81,false,stim,false,1,879.8000000119209,0,0,2,79260,task1,514723,false,true,374,image-keyboard-response,3
true,2,0,1,0,true,q,false,false,0.0-2.0-0.3-0.29-3.29,0,0,0,81,false,stim,false,1,1030.7000000178814,0,0,2,79260,task1,517280,false,true,377,image-keyboard-response,4
true,2,2,1,2,true,d,false,true,0.0-2.0-0.3-0.30-3.30,0,0,0,68,false,stim,false,0,590.7999999821186,0,0,1,79260,task1,519393,false,false,380,image-keyboard-response,5
true,2,2,1,0,false,q,true,true,0.0-2.0-0.3-0.31-3.31,0,0,0,68,false,stim,false,1,593.0999999940395,0,0,0,79260,task1,521512,false,true,383,image-keyboard-response,6
true,2,2,1,2,true,d,false,true,0.0-2.0-0.3-0.32-3.32,0,0,0,68,false,stim,false,0,960.8000000119209,0,0,1,79260,task1,523989,false,false,386,image-keyboard-response,7
true,2,2,1,2,true,d,false,true,0.0-2.0-0.3-0.33-3.33,0,0,0,68,false,stim,false,0,633.5,0,0,1,79260,task1,526139,false,false,389,image-keyboard-response,8
true,2,2,1,0,false,q,true,true,0.0-2.0-0.3-0.34-3.34,0,0,0,68,false,stim,false,1,618.9000000059605,0,0,0,79260,task1,528271,false,true,392,image-keyboard-response,9
true,2,2,1,0,false,q,true,false,0.0-2.0-0.3-0.35-3.35,0,0,0,68,false,stim,false,1,507.2999999821186,0,0,0,79260,task1,530307,false,false,395,image-keyboard-response,10
true,2,0,1,0,true,q,false,true,0.0-2.0-0.4-0.36-3.36,0,0,0,81,false,stim,false,1,713.6999999880791,0,0,0,79260,task1,532547,false,false,398,image-keyboard-response,11
true,2,2,1,0,false,q,true,false,0.0-2.0-0.4-0.37-3.37,0,0,0,68,false,stim,false,1,863.6999999880791,0,0,2,79260,task1,534929,false,false,401,image-keyboard-response,12
true,2,0,1,0,true,q,false,true,0.0-2.0-0.4-0.38-3.38,0,0,0,81,false,stim,false,1,976.0,0,0,0,79260,task1,537431,false,false,404,image-keyboard-response,13
true,2,2,1,2,true,d,false,true,0.0-2.0-0.4-0.39-3.39,0,0,0,68,false,stim,false,0,1147.1000000238419,0,0,1,79260,task1,540112,false,false,407,image-keyboard-response,14
true,2,1,1,0,false,q,false,true,0.0-2.0-0.4-0.40-3.40,0,0,0,90,false,stim,true,1,426.7999999821186,0,0,2,79260,task1,542062,false,true,410,image-keyboard-response,15
true,2,1,1,0,false,q,false,false,0.0-2.0-0.4-0.41-3.41,0,0,0,90,false,stim,true,1,653.8000000119209,0,0,2,79260,task1,544242,false,false,413,image-keyboard-response,16
true,2,0,1,0,true,q,false,true,0.0-2.0-0.4-0.42-3.42,0,0,0,81,false,stim,false,1,1073.1000000238419,0,0,0,79260,task1,546848,false,false,416,image-keyboard-response,17
true,2,2,1,2,true,d,false,true,0.0-2.0-0.4-0.43-3.43,0,0,0,68,false,stim,false,0,469.59999999403954,0,0,1,79260,task1,548848,false,false,419,image-keyboard-response,18
true,2,2,1,2,true,d,false,true,0.0-2.0-0.4-0.44-3.44,0,0,0,68,false,stim,false,0,544.9000000059605,0,0,1,79260,task1,550919,false,false,422,image-keyboard-response,19
true,2,2,1,2,true,d,false,true,0.0-2.0-0.5-0.45-3.45,0,0,0,68,false,stim,false,0,503.5,0,0,1,79260,task1,552946,false,false,425,image-keyboard-response,20
true,2,1,1,0,false,q,false,false,0.0-2.0-0.5-0.46-3.46,0,0,0,90,false,stim,true,1,863.9000000059605,0,0,2,79260,task1,555328,false,false,428,image-keyboard-response,21
true,2,2,1,2,true,d,false,true,0.0-2.0-0.5-0.47-3.47,0,0,0,68,false,stim,false,0,1268.2000000178814,0,0,1,79260,task1,558121,false,false,431,image-keyboard-response,22
true,2,0,1,0,true,q,false,true,0.0-2.0-0.5-0.48-3.48,0,0,0,81,false,stim,false,1,682.2000000178814,0,0,0,79260,task1,560335,false,false,434,image-keyboard-response,23
true,2,0,1,0,true,q,false,true,0.0-2.0-0.5-0.49-3.49,0,0,0,81,false,stim,false,1,796.4000000059605,0,0,0,79260,task1,562658,false,false,437,image-keyboard-response,24
true,2,0,1,0,true,q,false,false,0.0-2.0-0.5-0.50-3.50,0,0,0,81,false,stim,false,1,1034.300000011921,0,0,2,79260,task1,565211,false,true,440,image-keyboard-response,25
true,2,2,1,0,false,q,true,false,0.0-2.0-0.5-0.51-3.51,0,0,0,68,false,stim,false,1,473.19999998807907,0,0,2,79260,task1,567213,false,false,443,image-keyboard-response,26
true,2,0,1,0,true,q,false,true,0.0-2.0-0.5-0.52-3.52,0,0,0,81,false,stim,false,1,1505.9000000059605,0,0,0,79260,task1,570245,false,false,446,image-keyboard-response,27
true,2,2,1,2,true,d,false,true,0.0-2.0-0.5-0.53-3.53,0,0,0,68,false,stim,false,0,890.5,0,0,1,79260,task1,572661,false,false,449,image-keyboard-response,28
true,2,1,1,0,false,q,false,false,0.0-2.0-0.6-0.54-3.54,0,0,0,90,false,stim,true,1,375.30000001192093,0,0,2,79260,task1,574559,false,false,452,image-keyboard-response,29
true,2,0,1,0,true,q,false,true,0.0-2.0-0.6-0.55-3.55,0,0,0,81,false,stim,false,1,720.5999999940395,0,0,0,79260,task1,576802,false,false,455,image-keyboard-response,30
true,2,2,1,2,true,d,false,false,0.0-2.0-0.6-0.56-3.56,0,0,0,68,false,stim,false,0,601.0,0,0,1,79260,task1,578927,false,true,458,image-keyboard-response,31
true,2,1,1,2,false,d,true,true,0.0-2.0-0.6-0.57-3.57,0,0,0,90,false,stim,false,0,915.7999999821186,0,0,1,79260,task1,581375,false,true,461,image-keyboard-response,32
true,2,0,1,0,true,q,false,true,0.0-2.0-0.6-0.58-3.58,0,0,0,81,false,stim,false,1,828.0999999940395,0,0,2,79260,task1,583732,false,false,464,image-keyboard-response,33
true,2,0,1,0,true,q,false,true,0.0-2.0-0.6-0.59-3.59,0,0,0,81,false,stim,false,1,411.5,0,0,0,79260,task1,585658,false,false,467,image-keyboard-response,34
true,2,0,1,0,true,q,false,true,0.0-2.0-0.6-0.60-3.60,0,0,0,81,false,stim,false,1,805.0,0,0,2,79260,task1,587981,false,false,470,image-keyboard-response,35
true,2,1,1,2,false,d,true,false,0.0-2.0-0.6-0.61-3.61,0,0,0,90,false,stim,false,0,525.4000000059605,0,0,1,79260,task1,590035,false,false,473,image-keyboard-response,36
true,2,0,1,0,true,q,false,true,0.0-2.0-0.6-0.62-3.62,0,0,0,81,false,stim,false,1,927.8999999761581,0,0,0,79260,task1,592491,false,false,476,image-keyboard-response,37
true,2,0,1,0,true,q,false,true,0.0-2.0-0.7-0.63-3.63,0,0,0,81,false,stim,false,1,794.7000000178814,0,0,0,79260,task1,594818,false,false,479,image-keyboard-response,38
true,2,0,1,0,true,q,false,true,0.0-2.0-0.7-0.64-3.64,0,0,0,81,false,stim,false,1,601.1999999880791,0,0,0,79260,task1,596936,false,false,482,image-keyboard-response,39
true,2,2,1,2,true,d,false,true,0.0-2.0-0.7-0.65-3.65,0,0,0,68,false,stim,false,0,604.1999999880791,0,0,1,79260,task1,599058,false,false,485,image-keyboard-response,40
true,2,2,1,0,false,q,true,false,0.0-2.0-0.7-0.66-3.66,0,0,0,68,false,stim,false,1,1215.2000000178814,0,0,2,79260,task1,601802,false,false,488,image-keyboard-response,41
true,2,0,1,0,true,q,false,true,0.0-2.0-0.7-0.67-3.67,0,0,0,81,false,stim,false,1,1072.0,0,0,2,79260,task1,604400,false,false,491,image-keyboard-response,42
true,3,0,1,2,false,d,false,false,0.0-2.0-0.7-0.68-3.68,0,0,0,81,true,stim,true,0,434.5,0,0,0,79260,task1,606357,false,false,494,image-keyboard-response,1
true,3,0,1,2,false,d,false,false,0.0-2.0-0.7-0.69-3.69,0,0,0,81,false,stim,true,0,995.4000000059605,0,0,2,79260,task1,608870,false,false,497,image-keyboard-response,2
true,3,2,1,1,false,z,false,false,0.0-2.0-0.7-0.70-3.70,0,0,0,68,false,stim,true,2,1101.0,0,0,1,79260,task1,611504,false,false,500,image-keyboard-response,3
true,3,1,1,1,true,z,false,true,0.0-2.0-0.7-0.71-3.71,0,0,0,90,false,stim,false,2,654.5,0,0,1,79260,task1,613696,false,false,503,image-keyboard-response,4
true,3,1,1,1,true,z,false,true,0.0-2.0-0.8-0.72-3.72,0,0,0,90,false,stim,false,2,786.2999999821186,0,0,1,79260,task1,615997,false,false,506,image-keyboard-response,5
true,3,2,1,2,true,d,false,true,0.0-2.0-0.8-0.73-3.73,0,0,0,68,false,stim,false,0,1111.4000000059605,0,0,2,79260,task1,618644,false,false,509,image-keyboard-response,6
true,3,0,1,2,false,d,false,false,0.0-2.0-0.8-0.74-3.74,0,0,0,81,false,stim,true,0,767.6000000238419,0,0,0,79260,task1,620930,false,false,512,image-keyboard-response,7
true,3,2,1,2,true,d,false,true,0.0-2.0-0.8-0.75-3.75,0,0,0,68,false,stim,false,0,1019.2000000178814,0,0,2,79260,task1,623476,false,false,515,image-keyboard-response,8
true,3,2,1,2,true,d,false,false,0.0-2.0-0.8-0.76-3.76,0,0,0,68,false,stim,false,0,523.3000000119209,0,0,2,79260,task1,625513,false,true,518,image-keyboard-response,9
true,3,2,1,2,true,d,false,true,0.0-2.0-0.8-0.77-3.77,0,0,0,68,false,stim,false,0,996.8999999761581,0,0,0,79260,task1,628033,false,false,521,image-keyboard-response,10
true,3,2,1,2,true,d,false,true,0.0-2.0-0.8-0.78-3.78,0,0,0,68,false,stim,false,0,1044.5,0,0,0,79260,task1,630601,false,false,524,image-keyboard-response,11
true,3,1,1,1,true,z,false,false,0.0-2.0-0.8-0.79-3.79,0,0,0,90,false,stim,false,2,681.1999999880791,0,0,1,79260,task1,632815,false,true,527,image-keyboard-response,12
true,3,0,1,1,false,z,true,false,0.0-2.0-0.8-0.80-3.80,0,0,0,81,false,stim,false,2,1416.7000000178814,0,0,1,79260,task1,635747,false,false,530,image-keyboard-response,13
true,3,2,1,1,false,z,false,false,0.0-2.0-0.9-0.81-3.81,0,0,0,68,false,stim,true,2,733.5,0,0,1,79260,task1,638011,false,false,533,image-keyboard-response,14
true,3,1,1,1,true,z,false,true,0.0-2.0-0.9-0.82-3.82,0,0,0,90,false,stim,false,2,1014.5,0,0,1,79260,task1,640552,false,false,536,image-keyboard-response,15
true,3,0,1,2,false,d,false,false,0.0-2.0-0.9-0.83-3.83,0,0,0,81,false,stim,true,0,2182.0999999940395,0,0,2,79260,task1,644258,false,false,539,image-keyboard-response,16
true,3,2,1,2,true,d,false,true,0.0-2.0-0.9-0.84-3.84,0,0,0,68,false,stim,false,0,758.7999999821186,0,0,0,79260,task1,646552,false,false,542,image-keyboard-response,17
true,3,2,1,2,true,d,false,true,0.0-2.0-0.9-0.85-3.85,0,0,0,68,false,stim,false,0,581.9000000059605,0,0,0,79260,task1,648663,false,false,545,image-keyboard-response,18
true,3,1,1,1,true,z,false,true,0.0-2.0-0.9-0.86-3.86,0,0,0,90,false,stim,false,2,597.5999999940395,0,0,1,79260,task1,650786,false,false,548,image-keyboard-response,19
true,3,1,1,2,false,d,true,true,0.0-2.0-0.9-0.87-3.87,0,0,0,90,false,stim,false,0,465.19999998807907,0,0,2,79260,task1,652770,false,true,551,image-keyboard-response,20
true,3,1,1,2,false,d,true,false,0.0-2.0-0.9-0.88-3.88,0,0,0,90,false,stim,false,0,586.0,0,0,2,79260,task1,654876,false,false,554,image-keyboard-response,21
true,3,2,1,2,true,d,false,true,0.0-2.0-0.9-0.89-3.89,0,0,0,68,false,stim,false,0,748.5999999940395,0,0,0,79260,task1,657136,false,false,557,image-keyboard-response,22
true,3,1,1,2,false,d,true,false,0.0-2.0-0.10-0.90-3.90,0,0,0,90,false,stim,false,0,520.7000000178814,0,0,2,79260,task1,659190,false,false,560,image-keyboard-response,23
true,3,0,1,2,false,d,false,false,0.0-2.0-0.10-0.91-3.91,0,0,0,81,false,stim,true,0,820.9000000059605,0,0,2,79260,task1,661534,false,false,563,image-keyboard-response,24
true,3,2,1,2,true,d,false,true,0.0-2.0-0.10-0.92-3.92,0,0,0,68,false,stim,false,0,541.7000000178814,0,0,0,79260,task1,663586,false,false,566,image-keyboard-response,25
true,3,2,1,2,true,d,false,true,0.0-2.0-0.10-0.93-3.93,0,0,0,68,false,stim,false,0,1064.800000011921,0,0,0,79260,task1,666175,false,false,569,image-keyboard-response,26
true,3,2,1,2,true,d,false,true,0.0-2.0-0.10-0.94-3.94,0,0,0,68,false,stim,false,0,459.69999998807907,0,0,0,79260,task1,668154,false,false,572,image-keyboard-response,27
true,3,0,1,1,false,z,true,false,0.0-2.0-0.10-0.95-3.95,0,0,0,81,false,stim,false,2,983.1999999880791,0,0,1,79260,task1,670665,false,false,575,image-keyboard-response,28
true,3,2,1,2,true,d,false,true,0.0-2.0-0.10-0.96-3.96,0,0,0,68,false,stim,false,0,710.7999999821186,0,0,2,79260,task1,672910,false,false,578,image-keyboard-response,29
true,3,1,1,1,true,z,false,true,0.0-2.0-0.10-0.97-3.97,0,0,0,90,false,stim,false,2,495.69999998807907,0,0,1,79260,task1,674921,false,false,581,image-keyboard-response,30
true,3,1,1,1,true,z,false,false,0.0-2.0-0.10-0.98-3.98,0,0,0,90,false,stim,false,2,600.3999999761581,0,0,1,79260,task1,677057,false,true,584,image-keyboard-response,31
true,3,2,1,2,true,d,false,true,0.0-2.0-0.11-0.99-3.99,0,0,0,68,false,stim,false,0,598.5,0,0,2,79260,task1,679178,false,false,587,image-keyboard-response,32
true,3,2,1,2,true,d,false,true,0.0-2.0-0.11-0.100-3.100,0,0,0,68,false,stim,false,0,412.0,0,0,2,79260,task1,681114,false,false,590,image-keyboard-response,33
true,3,2,1,2,true,d,false,true,0.0-2.0-0.11-0.101-3.101,0,0,0,68,false,stim,false,0,456.5,0,0,2,79260,task1,683092,false,false,593,image-keyboard-response,34
true,3,2,1,2,true,d,false,true,0.0-2.0-0.11-0.102-3.102,0,0,0,68,false,stim,false,0,593.9000000059605,0,0,0,79260,task1,685207,false,false,596,image-keyboard-response,35
true,3,2,1,2,true,d,false,true,0.0-2.0-0.11-0.103-3.103,0,0,0,68,false,stim,false,0,466.40000000596046,0,0,0,79260,task1,687185,false,false,599,image-keyboard-response,36
true,3,2,1,1,false,z,false,false,0.0-2.0-0.11-0.104-3.104,0,0,0,68,false,stim,true,2,436.59999999403954,0,0,1,79260,task1,689158,false,false,602,image-keyboard-response,37
true,3,1,1,1,true,z,false,true,0.0-2.0-0.11-0.105-3.105,0,0,0,90,false,stim,false,2,504.40000000596046,0,0,1,79260,task1,691185,false,false,605,image-keyboard-response,38
true,3,1,1,1,true,z,false,true,0.0-2.0-0.11-0.106-3.106,0,0,0,90,false,stim,false,2,485.90000000596046,0,0,1,79260,task1,693190,false,false,608,image-keyboard-response,39
true,3,2,1,2,true,d,false,false,0.0-2.0-0.11-0.107-3.107,0,0,0,68,false,stim,false,0,507.0,0,0,0,79260,task1,695218,false,true,611,image-keyboard-response,40
true,3,2,1,2,true,d,false,true,0.0-2.0-0.12-0.108-3.108,0,0,0,68,false,stim,false,0,1000.5,0,0,2,79260,task1,697746,false,false,614,image-keyboard-response,41
true,3,0,1,2,false,d,false,true,0.0-2.0-0.12-0.109-3.109,0,0,0,81,false,stim,true,0,855.7000000178814,0,0,0,79260,task1,700123,false,true,617,image-keyboard-response,42
true,4,1,1,2,false,d,false,false,0.0-2.0-0.12-0.110-3.110,0,0,0,90,true,stim,true,1,704.4000000059605,0,0,1,79260,task1,702352,false,false,620,image-keyboard-response,1
true,4,0,1,0,true,q,false,true,0.0-2.0-0.12-0.111-3.111,0,0,0,81,false,stim,false,2,461.5,0,0,0,79260,task1,704338,false,false,623,image-keyboard-response,2
true,4,0,1,0,true,q,false,true,0.0-2.0-0.12-0.112-3.112,0,0,0,81,false,stim,false,2,544.4000000059605,0,0,0,79260,task1,706405,false,false,626,image-keyboard-response,3
true,4,2,1,2,true,d,false,true,0.0-2.0-0.12-0.113-3.113,0,0,0,68,false,stim,false,1,839.1999999880791,0,0,1,79260,task1,708763,false,false,629,image-keyboard-response,4
true,4,2,1,1,false,z,false,false,0.0-2.0-0.12-0.114-3.114,0,0,0,68,false,stim,true,2,816.8000000119209,0,0,2,79260,task1,711101,false,false,632,image-keyboard-response,5
true,4,2,1,2,true,d,false,true,0.0-2.0-0.12-0.115-3.115,0,0,0,68,false,stim,false,1,673.8999999761581,0,0,1,79260,task1,713306,false,false,635,image-keyboard-response,6
true,4,1,1,1,true,z,false,false,0.0-2.0-0.12-0.116-3.116,0,0,0,90,false,stim,false,2,455.40000000596046,0,0,2,79260,task1,715295,false,true,638,image-keyboard-response,7
true,4,2,1,2,true,d,false,true,0.0-2.0-0.13-0.117-3.117,0,0,0,68,false,stim,false,1,682.5,0,0,1,79260,task1,717500,false,false,641,image-keyboard-response,8
true,4,0,1,1,false,z,true,true,0.0-2.0-0.13-0.118-3.118,0,0,0,81,false,stim,false,2,476.0,0,0,2,79260,task1,719491,false,true,644,image-keyboard-response,9
true,4,0,1,1,false,z,true,false,0.0-2.0-0.13-0.119-3.119,0,0,0,81,false,stim,false,2,579.5,0,0,2,79260,task1,721602,false,false,647,image-keyboard-response,10
true,4,0,1,0,true,q,false,true,0.0-2.0-0.13-0.120-3.120,0,0,0,81,false,stim,false,2,380.7000000178814,0,0,0,79260,task1,723508,false,false,650,image-keyboard-response,11
true,4,0,1,0,true,q,false,true,0.0-2.0-0.13-0.121-3.121,0,0,0,81,false,stim,false,2,984.0999999940395,0,0,0,79260,task1,726026,false,false,653,image-keyboard-response,12
true,4,0,1,0,true,q,false,true,0.0-2.0-0.13-0.122-3.122,0,0,0,81,false,stim,false,2,522.5,0,0,0,79260,task1,728061,false,false,656,image-keyboard-response,13
true,4,2,1,2,true,d,false,true,0.0-2.0-0.13-0.123-3.123,0,0,0,68,false,stim,false,1,775.9000000059605,0,0,1,79260,task1,730363,false,false,659,image-keyboard-response,14
true,4,2,1,2,true,d,false,true,0.0-2.0-0.13-0.124-3.124,0,0,0,68,false,stim,false,1,868.7000000178814,0,0,1,79260,task1,732767,false,false,662,image-keyboard-response,15
true,4,0,1,1,false,z,true,false,0.0-2.0-0.13-0.125-3.125,0,0,0,81,false,stim,false,2,607.2000000178814,0,0,2,79260,task1,734897,false,false,665,image-keyboard-response,16
true,4,0,1,0,true,q,false,true,0.0-2.0-0.14-0.126-3.126,0,0,0,81,false,stim,false,2,859.5999999940395,0,0,0,79260,task1,737283,false,false,668,image-keyboard-response,17
true,4,0,1,0,true,q,false,true,0.0-2.0-0.14-0.127-3.127,0,0,0,81,false,stim,false,2,607.3999999761581,0,0,0,79260,task1,739414,false,false,671,image-keyboard-response,18
true,4,2,1,2,true,d,false,true,0.0-2.0-0.14-0.128-3.128,0,0,0,68,false,stim,false,1,678.0,0,0,1,79260,task1,741619,false,false,674,image-keyboard-response,19
true,4,0,1,0,true,q,false,true,0.0-2.0-0.14-0.129-3.129,0,0,0,81,false,stim,false,2,690.9000000059605,0,0,0,79260,task1,743843,false,false,677,image-keyboard-response,20
true,4,1,1,1,true,z,false,true,0.0-2.0-0.14-0.130-3.130,0,0,0,90,false,stim,false,2,585.2999999821186,0,0,2,79260,task1,745950,false,false,680,image-keyboard-response,21
true,4,2,1,2,true,d,false,true,0.0-2.0-0.14-0.131-3.131,0,0,0,68,false,stim,false,1,824.5999999940395,0,0,1,79260,task1,748307,false,false,683,image-keyboard-response,22
true,4,1,1,1,true,z,false,true,0.0-2.0-0.14-0.132-3.132,0,0,0,90,false,stim,false,2,867.5,0,0,2,79260,task1,750697,false,false,686,image-keyboard-response,23
true,4,2,1,2,true,d,false,true,0.0-2.0-0.14-0.133-3.133,0,0,0,68,false,stim,false,1,742.0999999940395,0,0,1,79260,task1,752965,false,false,689,image-keyboard-response,24
true,4,1,1,1,true,z,false,true,0.0-2.0-0.14-0.134-3.134,0,0,0,90,false,stim,false,2,549.6999999880791,0,0,2,79260,task1,755044,false,false,692,image-keyboard-response,25
true,4,1,1,1,true,z,false,true,0.0-2.0-0.15-0.135-3.135,0,0,0,90,false,stim,false,2,810.8000000119209,0,0,2,79260,task1,757370,false,false,695,image-keyboard-response,26
true,4,2,1,0,false,q,false,false,0.0-2.0-0.15-0.136-3.136,0,0,0,68,false,stim,true,2,570.0,0,0,0,79260,task1,759456,false,false,698,image-keyboard-response,27
true,4,2,1,2,true,d,false,false,0.0-2.0-0.15-0.137-3.137,0,0,0,68,false,stim,false,1,621.5999999940395,0,0,1,79260,task1,761617,false,true,701,image-keyboard-response,28
true,4,1,1,1,true,z,false,true,0.0-2.0-0.15-0.138-3.138,0,0,0,90,false,stim,false,2,733.1999999880791,0,0,2,79260,task1,763870,false,false,704,image-keyboard-response,29
true,4,1,1,2,false,d,false,false,0.0-2.0-0.15-0.139-3.139,0,0,0,90,false,stim,true,1,623.8000000119209,0,0,1,79260,task1,766020,false,false,707,image-keyboard-response,30
true,4,0,1,0,true,q,false,true,0.0-2.0-0.15-0.140-3.140,0,0,0,81,false,stim,false,2,549.8000000119209,0,0,0,79260,task1,768091,false,false,710,image-keyboard-response,31
true,4,0,1,0,true,q,false,true,0.0-2.0-0.15-0.141-3.141,0,0,0,81,false,stim,false,2,580.3000000119209,0,0,0,79260,task1,770183,false,false,713,image-keyboard-response,32
true,4,0,1,2,false,d,true,false,0.0-2.0-0.15-0.142-3.142,0,0,0,81,false,stim,false,1,413.40000000596046,0,0,1,79260,task1,772118,false,false,716,image-keyboard-response,33
true,4,1,1,1,true,z,false,true,0.0-2.0-0.15-0.143-3.143,0,0,0,90,false,stim,false,2,710.3000000119209,0,0,2,79260,task1,774356,false,false,719,image-keyboard-response,34
true,4,1,1,1,true,z,false,true,0.0-2.0-0.16-0.144-3.144,0,0,0,90,false,stim,false,2,744.9000000059605,0,0,2,79260,task1,776626,false,false,722,image-keyboard-response,35
true,4,1,1,2,false,d,false,false,0.0-2.0-0.16-0.145-3.145,0,0,0,90,false,stim,true,1,409.40000000596046,0,0,1,79260,task1,778552,false,false,725,image-keyboard-response,36
true,4,0,1,0,true,q,false,false,0.0-2.0-0.16-0.146-3.146,0,0,0,81,false,stim,false,2,1059.7999999821186,0,0,0,79260,task1,781133,false,true,728,image-keyboard-response,37
true,4,2,1,2,true,d,false,true,0.0-2.0-0.16-0.147-3.147,0,0,0,68,false,stim,false,1,590.6999999880791,0,0,1,79260,task1,783244,false,false,731,image-keyboard-response,38
true,4,2,1,0,false,q,false,false,0.0-2.0-0.16-0.148-3.148,0,0,0,68,false,stim,true,2,558.4000000059605,0,0,0,79260,task1,785329,false,false,734,image-keyboard-response,39
true,4,1,1,1,true,z,false,true,0.0-2.0-0.16-0.149-3.149,0,0,0,90,false,stim,false,2,617.1999999880791,0,0,2,79260,task1,787470,false,false,737,image-keyboard-response,40
true,5,1,1,1,true,z,false,true,0.0-2.0-0.16-0.150-3.150,0,0,0,90,true,stim,false,0,766.8000000119209,0,0,0,79260,task1,789765,false,false,740,image-keyboard-response,1
true,5,1,1,2,false,d,false,false,0.0-2.0-0.16-0.151-3.151,0,0,0,90,false,stim,true,1,520.2000000178814,0,0,2,79260,task1,791817,false,false,743,image-keyboard-response,2
true,5,2,1,1,false,z,false,false,0.0-2.0-0.16-0.152-3.152,0,0,0,68,false,stim,true,2,874.6999999880791,0,0,1,79260,task1,794220,false,false,746,image-keyboard-response,3
true,5,1,1,1,true,z,false,true,0.0-2.0-0.17-0.153-3.153,0,0,0,90,false,stim,false,2,1403.0,0,0,1,79260,task1,797161,false,false,749,image-keyboard-response,4
true,5,1,1,2,false,d,false,true,0.0-2.0-0.17-0.154-3.154,0,0,0,90,false,stim,true,1,905.0,0,0,2,79260,task1,799595,false,true,752,image-keyboard-response,5
true,5,1,1,1,true,z,false,true,0.0-2.0-0.17-0.155-3.155,0,0,0,90,false,stim,false,2,825.5999999940395,0,0,1,79260,task1,801941,false,false,755,image-keyboard-response,6
true,5,0,1,1,false,z,false,false,0.0-2.0-0.17-0.156-3.156,0,0,0,81,false,stim,true,0,801.0,0,0,0,79260,task1,804265,false,false,758,image-keyboard-response,7
true,5,1,1,2,false,d,false,false,0.0-2.0-0.17-0.157-3.157,0,0,0,90,false,stim,true,1,462.60000002384186,0,0,2,79260,task1,806255,false,false,761,image-keyboard-response,8
true,5,2,1,1,false,z,true,false,0.0-2.0-0.17-0.158-3.158,0,0,0,68,false,stim,false,0,967.9000000059605,0,0,0,79260,task1,808741,false,false,764,image-keyboard-response,9
true,5,1,1,1,true,z,false,true,0.0-2.0-0.17-0.159-3.159,0,0,0,90,false,stim,false,2,1186.800000011921,0,0,1,79260,task1,811460,false,false,767,image-keyboard-response,10
true,5,1,1,1,true,z,false,true,0.0-2.0-0.17-0.160-3.160,0,0,0,90,false,stim,false,0,614.3000000119209,0,0,0,79260,task1,813592,false,false,770,image-keyboard-response,11
true,5,0,1,2,false,d,true,false,0.0-2.0-0.17-0.161-3.161,0,0,0,81,false,stim,false,1,263.2000000178814,0,0,2,79260,task1,815377,false,false,773,image-keyboard-response,12
true,5,1,1,1,true,z,false,true,0.0-2.0-0.18-0.162-3.162,0,0,0,90,false,stim,false,2,653.1999999880791,0,0,1,79260,task1,817549,false,false,776,image-keyboard-response,13
true,5,1,1,1,true,z,false,false,0.0-2.0-0.18-0.163-3.163,0,0,0,90,false,stim,false,2,472.40000000596046,0,0,1,79260,task1,819555,false,true,779,image-keyboard-response,14
true,5,2,1,1,false,z,true,false,0.0-2.0-0.18-0.164-3.164,0,0,0,68,false,stim,false,0,607.9000000059605,0,0,0,79260,task1,821690,false,false,782,image-keyboard-response,15
true,5,1,1,2,false,d,false,false,0.0-2.0-0.18-0.165-3.165,0,0,0,90,false,stim,true,1,892.5999999940395,0,0,2,79260,task1,824104,false,false,785,image-keyboard-response,16
true,5,1,1,2,false,d,false,false,0.0-2.0-0.18-0.166-3.166,0,0,0,90,false,stim,true,1,2079.0999999940395,0,0,2,79260,task1,827696,false,false,788,image-keyboard-response,17
true,5,0,1,1,false,z,true,false,0.0-2.0-0.18-0.167-3.167,0,0,0,81,false,stim,false,2,859.1999999880791,0,0,1,79260,task1,830075,false,false,791,image-keyboard-response,18
true,5,1,1,1,true,z,false,true,0.0-2.0-0.18-0.168-3.168,0,0,0,90,false,stim,false,0,890.9000000059605,0,0,0,79260,task1,832494,false,false,794,image-keyboard-response,19
true,5,0,1,2,false,d,true,false,0.0-2.0-0.18-0.169-3.169,0,0,0,81,false,stim,false,1,1062.0,0,0,2,79260,task1,835073,false,false,797,image-keyboard-response,20
true,5,1,1,1,true,z,false,true,0.0-2.0-0.18-0.170-3.170,0,0,0,90,false,stim,false,0,646.5999999940395,0,0,0,79260,task1,837235,false,false,800,image-keyboard-response,21
true,5,2,1,1,false,z,false,false,0.0-2.0-0.19-0.171-3.171,0,0,0,68,false,stim,true,2,602.4000000059605,0,0,1,79260,task1,839377,false,false,803,image-keyboard-response,22
true,5,2,1,2,true,d,false,true,0.0-2.0-0.19-0.172-3.172,0,0,0,68,false,stim,false,1,952.1999999880791,0,0,2,79260,task1,841854,false,false,806,image-keyboard-response,23
true,5,2,1,2,true,d,false,true,0.0-2.0-0.19-0.173-3.173,0,0,0,68,false,stim,false,1,842.2000000178814,0,0,2,79260,task1,844212,false,false,809,image-keyboard-response,24
true,5,1,1,1,true,z,false,true,0.0-2.0-0.19-0.174-3.174,0,0,0,90,false,stim,false,2,567.6999999880791,0,0,1,79260,task1,846296,false,false,812,image-keyboard-response,25
true,5,2,1,2,true,d,false,true,0.0-2.0-0.19-0.175-3.175,0,0,0,68,false,stim,false,1,586.9000000059605,0,0,2,79260,task1,848402,false,false,815,image-keyboard-response,26
true,5,1,1,1,true,z,false,true,0.0-2.0-0.19-0.176-3.176,0,0,0,90,false,stim,false,0,569.3999999761581,0,0,0,79260,task1,850492,false,false,818,image-keyboard-response,27
true,5,1,1,1,true,z,false,true,0.0-2.0-0.19-0.177-3.177,0,0,0,90,false,stim,false,2,691.2000000178814,0,0,1,79260,task1,852713,false,false,821,image-keyboard-response,28
true,5,1,1,1,true,z,false,true,0.0-2.0-0.19-0.178-3.178,0,0,0,90,false,stim,false,0,477.0,0,0,0,79260,task1,854718,false,false,824,image-keyboard-response,29
true,5,1,1,1,true,z,false,true,0.0-2.0-0.19-0.179-3.179,0,0,0,90,false,stim,false,0,453.2999999821186,0,0,0,79260,task1,856691,false,false,827,image-keyboard-response,30
true,5,2,1,2,true,d,false,true,0.0-2.0-0.20-0.180-3.180,0,0,0,68,false,stim,false,1,587.7999999821186,0,0,2,79260,task1,858804,false,false,830,image-keyboard-response,31
true,5,1,1,1,true,z,false,false,0.0-2.0-0.20-0.181-3.181,0,0,0,90,false,stim,false,2,596.5999999940395,0,0,1,79260,task1,860931,false,true,833,image-keyboard-response,32
true,5,2,1,2,true,d,false,false,0.0-2.0-0.20-0.182-3.182,0,0,0,68,false,stim,false,1,795.7999999821186,0,0,2,79260,task1,863243,false,true,836,image-keyboard-response,33
true,5,1,1,1,true,z,false,true,0.0-2.0-0.20-0.183-3.183,0,0,0,90,false,stim,false,0,755.5999999940395,0,0,0,79260,task1,865534,false,false,839,image-keyboard-response,34
true,5,1,1,1,true,z,false,false,0.0-2.0-0.20-0.184-3.184,0,0,0,90,false,stim,false,0,572.3000000119209,0,0,0,79260,task1,867631,false,true,842,image-keyboard-response,35
true,5,2,1,2,true,d,false,true,0.0-2.0-0.20-0.185-3.185,0,0,0,68,false,stim,false,1,1039.699999988079,0,0,2,79260,task1,870185,false,false,845,image-keyboard-response,36
true,5,0,1,1,false,z,true,false,0.0-2.0-0.20-0.186-3.186,0,0,0,81,false,stim,false,2,1104.300000011921,0,0,1,79260,task1,872811,false,false,848,image-keyboard-response,37
true,5,1,1,1,true,z,false,true,0.0-2.0-0.20-0.187-3.187,0,0,0,90,false,stim,false,2,862.9000000059605,0,0,1,79260,task1,875200,false,false,851,image-keyboard-response,38
true,5,0,1,1,false,z,false,false,0.0-2.0-0.20-0.188-3.188,0,0,0,81,false,stim,true,0,494.80000001192093,0,0,0,79260,task1,877227,false,false,854,image-keyboard-response,39
true,5,1,1,1,true,z,false,true,0.0-2.0-0.21-0.189-3.189,0,0,0,90,false,stim,false,2,743.5999999940395,0,0,1,79260,task1,879491,false,false,857,image-keyboard-response,40
true,6,1,2,0,false,q,false,false,0.0-2.0-0.21-0.190-3.190,0,0,0,90,true,stim,true,1,768.9000000059605,0,0,0,79260,task1,881781,false,false,860,image-keyboard-response,1
true,6,2,2,1,false,z,false,false,0.0-2.0-0.21-0.191-3.191,0,0,0,68,false,stim,true,2,442.09999999403954,0,0,2,79260,task1,883750,false,false,863,image-keyboard-response,2
true,6,0,2,1,false,z,true,true,0.0-2.0-0.21-0.192-3.192,0,0,0,81,false,stim,false,2,821.1999999880791,0,0,2,79260,task1,886083,false,true,866,image-keyboard-response,3
true,6,0,2,1,false,z,true,false,0.0-2.0-0.21-0.193-3.193,0,0,0,81,false,stim,false,2,954.4000000059605,0,0,2,79260,task1,888556,false,false,869,image-keyboard-response,4
true,6,2,2,0,false,q,true,false,0.0-2.0-0.21-0.194-3.194,0,0,0,68,false,stim,false,1,742.0999999940395,0,0,0,79260,task1,890822,false,false,872,image-keyboard-response,5
true,6,1,2,2,false,d,false,false,0.0-2.0-0.21-0.195-3.195,0,0,0,90,false,stim,true,1,785.5999999940395,0,0,1,79260,task1,893135,false,false,875,image-keyboard-response,6
true,6,1,2,0,false,q,false,false,0.0-2.0-0.21-0.196-3.196,0,0,0,90,false,stim,true,1,655.1999999880791,0,0,0,79260,task1,895318,false,false,878,image-keyboard-response,7
true,6,0,2,2,false,d,true,false,0.0-2.0-0.21-0.197-3.197,0,0,0,81,false,stim,false,1,727.9000000059605,0,0,1,79260,task1,897568,false,false,881,image-keyboard-response,8
true,6,2,2,2,true,d,false,true,0.0-2.0-0.22-0.198-3.198,0,0,0,68,false,stim,false,1,527.7000000178814,0,0,1,79260,task1,899627,false,false,884,image-keyboard-response,9
true,6,2,2,2,true,d,false,true,0.0-2.0-0.22-0.199-3.199,0,0,0,68,false,stim,false,1,487.0,0,0,1,79260,task1,901637,false,false,887,image-keyboard-response,10
true,6,2,2,2,true,d,false,true,0.0-2.0-0.22-0.200-3.200,0,0,0,68,false,stim,false,1,559.7000000178814,0,0,1,79260,task1,903725,false,false,890,image-keyboard-response,11
true,6,2,2,1,false,z,false,false,0.0-2.0-0.22-0.201-3.201,0,0,0,68,false,stim,true,2,1645.0999999940395,0,0,2,79260,task1,906888,false,false,893,image-keyboard-response,12
true,6,1,2,0,false,q,false,false,0.0-2.0-0.22-0.202-3.202,0,0,0,90,false,stim,true,1,773.5999999940395,0,0,0,79260,task1,909196,false,false,896,image-keyboard-response,13
true,6,0,2,0,true,q,false,true,0.0-2.0-0.22-0.203-3.203,0,0,0,81,false,stim,false,1,637.3999999761581,0,0,0,79260,task1,911344,false,false,899,image-keyboard-response,14
true,6,1,2,1,true,z,false,true,0.0-2.0-0.22-0.204-3.204,0,0,0,90,false,stim,false,2,1519.300000011921,0,0,2,79260,task1,914400,false,false,902,image-keyboard-response,15
true,6,1,2,1,true,z,false,true,0.0-2.0-0.22-0.205-3.205,0,0,0,90,false,stim,false,2,511.40000000596046,0,0,2,79260,task1,916434,false,false,905,image-keyboard-response,16
true,6,0,2,0,true,q,false,false,0.0-2.0-0.22-0.206-3.206,0,0,0,81,false,stim,false,1,494.80000001192093,0,0,0,79260,task1,918455,false,true,908,image-keyboard-response,17
true,6,1,2,1,true,z,false,true,0.0-2.0-0.23-0.207-3.207,0,0,0,90,false,stim,false,2,663.7999999821186,0,0,2,79260,task1,920645,false,false,911,image-keyboard-response,18
true,6,0,2,0,true,q,false,true,0.0-2.0-0.23-0.208-3.208,0,0,0,81,false,stim,false,1,752.1999999880791,0,0,0,79260,task1,922912,false,false,914,image-keyboard-response,19
true,6,1,2,1,true,z,false,true,0.0-2.0-0.23-0.209-3.209,0,0,0,90,false,stim,false,2,1225.5999999940395,0,0,2,79260,task1,925667,false,false,917,image-keyboard-response,20
true,6,2,2,2,true,d,false,true,0.0-2.0-0.23-0.210-3.210,0,0,0,68,false,stim,false,1,445.10000002384186,0,0,1,79260,task1,927637,false,false,920,image-keyboard-response,21
true,6,1,2,1,true,z,false,true,0.0-2.0-0.23-0.211-3.211,0,0,0,90,false,stim,false,2,1255.7999999821186,0,0,2,79260,task1,930420,false,false,923,image-keyboard-response,22
true,6,0,2,0,true,q,false,true,0.0-2.0-0.23-0.212-3.212,0,0,0,81,false,stim,false,1,638.5,0,0,0,79260,task1,932585,false,false,926,image-keyboard-response,23
true,6,2,2,2,true,d,false,true,0.0-2.0-0.23-0.213-3.213,0,0,0,68,false,stim,false,1,713.1999999880791,0,0,1,79260,task1,934825,false,false,929,image-keyboard-response,24
true,6,0,2,0,true,q,false,true,0.0-2.0-0.23-0.214-3.214,0,0,0,81,false,stim,false,1,616.0,0,0,0,79260,task1,936963,false,false,932,image-keyboard-response,25
true,6,2,2,2,true,d,false,true,0.0-2.0-0.23-0.215-3.215,0,0,0,68,false,stim,false,1,824.5,0,0,1,79260,task1,939315,false,false,935,image-keyboard-response,26
true,6,0,2,0,true,q,false,true,0.0-2.0-0.24-0.216-3.216,0,0,0,81,false,stim,false,1,734.4000000059605,0,0,0,79260,task1,941574,false,false,938,image-keyboard-response,27
true,6,1,2,1,true,z,false,true,0.0-2.0-0.24-0.217-3.217,0,0,0,90,false,stim,false,2,488.0,0,0,2,79260,task1,943591,false,false,941,image-keyboard-response,28
true,6,0,2,0,true,q,false,true,0.0-2.0-0.24-0.218-3.218,0,0,0,81,false,stim,false,1,639.9000000059605,0,0,0,79260,task1,945761,false,false,944,image-keyboard-response,29
true,6,1,2,1,true,z,false,true,0.0-2.0-0.24-0.219-3.219,0,0,0,90,false,stim,false,2,521.4000000059605,0,0,2,79260,task1,947804,false,false,947,image-keyboard-response,30
true,6,2,2,2,true,d,false,false,0.0-2.0-0.24-0.220-3.220,0,0,0,68,false,stim,false,1,464.2999999821186,0,0,1,79260,task1,949796,false,true,950,image-keyboard-response,31
true,6,1,2,2,false,d,false,false,0.0-2.0-0.24-0.221-3.221,0,0,0,90,false,stim,true,1,1040.6000000238419,0,0,1,79260,task1,952368,false,false,953,image-keyboard-response,32
true,6,0,2,0,true,q,false,true,0.0-2.0-0.24-0.222-3.222,0,0,0,81,false,stim,false,1,922.0999999940395,0,0,0,79260,task1,954816,false,false,956,image-keyboard-response,33
true,6,0,2,2,false,d,true,false,0.0-2.0-0.24-0.223-3.223,0,0,0,81,false,stim,false,1,774.7999999821186,0,0,1,79260,task1,957115,false,false,959,image-keyboard-response,34
true,6,1,2,1,true,z,false,false,0.0-2.0-0.24-0.224-3.224,0,0,0,90,false,stim,false,2,486.19999998807907,0,0,2,79260,task1,959124,false,true,962,image-keyboard-response,35
true,6,0,2,0,true,q,false,true,0.0-2.0-0.25-0.225-3.225,0,0,0,81,false,stim,false,1,733.3000000119209,0,0,0,79260,task1,961368,false,false,965,image-keyboard-response,36
true,6,0,2,0,true,q,false,true,0.0-2.0-0.25-0.226-3.226,0,0,0,81,false,stim,false,1,610.4000000059605,0,0,0,79260,task1,963507,false,false,968,image-keyboard-response,37
true,6,0,2,0,true,q,false,true,0.0-2.0-0.25-0.227-3.227,0,0,0,81,false,stim,false,1,1142.9000000059605,0,0,0,79260,task1,966186,false,false,971,image-keyboard-response,38
true,6,2,2,2,true,d,false,true,0.0-2.0-0.25-0.228-3.228,0,0,0,68,false,stim,false,1,551.5999999940395,0,0,1,79260,task1,968267,false,false,974,image-keyboard-response,39
true,6,2,2,2,true,d,false,true,0.0-2.0-0.25-0.229-3.229,0,0,0,68,false,stim,false,1,831.9000000059605,0,0,1,79260,task1,970622,false,false,977,image-keyboard-response,40
true,6,0,2,1,false,z,true,false,0.0-2.0-0.25-0.230-3.230,0,0,0,81,false,stim,false,2,1007.7999999821186,0,0,2,79260,task1,973155,false,false,980,image-keyboard-response,41
true,6,2,2,2,true,d,false,false,0.0-2.0-0.25-0.231-3.231,0,0,0,68,false,stim,false,1,585.0,0,0,1,79260,task1,975282,false,true,983,image-keyboard-response,42
true,6,2,2,1,false,z,false,false,0.0-2.0-0.25-0.232-3.232,0,0,0,68,false,stim,true,2,505.80000001192093,0,0,2,79260,task1,977319,false,false,986,image-keyboard-response,43
true,6,1,2,1,true,z,false,true,0.0-2.0-0.25-0.233-3.233,0,0,0,90,false,stim,false,2,573.2999999821186,0,0,2,79260,task1,979409,false,false,989,image-keyboard-response,44
true,7,1,2,2,false,d,false,false,0.0-2.0-0.26-0.234-3.234,0,0,0,90,true,stim,true,1,546.0,0,0,2,79260,task1,981481,false,false,992,image-keyboard-response,1
true,7,0,2,1,false,z,true,false,0.0-2.0-0.26-0.235-3.235,0,0,0,81,false,stim,false,2,750.5,0,0,1,79260,task1,983756,false,false,995,image-keyboard-response,2
true,7,1,2,2,false,d,false,false,0.0-2.0-0.26-0.236-3.236,0,0,0,90,false,stim,true,1,1223.9000000059605,0,0,2,79260,task1,986511,false,false,998,image-keyboard-response,3
true,7,0,2,2,false,d,true,false,0.0-2.0-0.26-0.237-3.237,0,0,0,81,false,stim,false,1,547.0,0,0,2,79260,task1,988594,false,false,1001,image-keyboard-response,4
true,7,0,2,2,false,d,false,false,0.0-2.0-0.26-0.238-3.238,0,0,0,81,false,stim,true,0,917.3000000119209,0,0,0,79260,task1,991032,false,false,1004,image-keyboard-response,5
true,7,2,2,2,true,d,false,true,0.0-2.0-0.26-0.239-3.239,0,0,0,68,false,stim,false,0,812.6999999880791,0,0,0,79260,task1,993366,false,false,1007,image-keyboard-response,6
true,7,2,2,2,true,d,false,true,0.0-2.0-0.26-0.240-3.240,0,0,0,68,false,stim,false,0,518.2000000178814,0,0,0,79260,task1,995411,false,false,1010,image-keyboard-response,7
true,7,0,2,1,false,z,true,false,0.0-2.0-0.26-0.241-3.241,0,0,0,81,false,stim,false,2,1069.9000000059605,0,0,1,79260,task1,998007,false,false,1013,image-keyboard-response,8
true,7,1,2,1,true,z,false,true,0.0-2.0-0.26-0.242-3.242,0,0,0,90,false,stim,false,2,583.6000000238419,0,0,1,79260,task1,1000113,false,false,1016,image-keyboard-response,9
true,7,1,2,1,true,z,false,true,0.0-2.0-0.27-0.243-3.243,0,0,0,90,false,stim,false,2,544.8999999761581,0,0,1,79260,task1,1002179,false,false,1019,image-keyboard-response,10
true,7,2,2,2,true,d,false,true,0.0-2.0-0.27-0.244-3.244,0,0,0,68,false,stim,false,0,619.1999999880791,0,0,0,79260,task1,1004319,false,false,1022,image-keyboard-response,11
true,7,2,2,1,false,z,false,true,0.0-2.0-0.27-0.245-3.245,0,0,0,68,false,stim,true,2,428.0,0,0,1,79260,task1,1006286,false,true,1025,image-keyboard-response,12
true,7,2,2,2,true,d,false,true,0.0-2.0-0.27-0.246-3.246,0,0,0,68,false,stim,false,1,402.40000000596046,0,0,2,79260,task1,1008213,false,false,1028,image-keyboard-response,13
true,7,2,2,1,false,z,false,false,0.0-2.0-0.27-0.247-3.247,0,0,0,68,false,stim,true,2,1692.1000000238419,0,0,1,79260,task1,1011432,false,false,1031,image-keyboard-response,14
true,7,2,2,2,true,d,false,true,0.0-2.0-0.27-0.248-3.248,0,0,0,68,false,stim,false,0,376.90000000596046,0,0,0,79260,task1,1013332,false,false,1034,image-keyboard-response,15
true,7,2,2,2,true,d,false,true,0.0-2.0-0.27-0.249-3.249,0,0,0,68,false,stim,false,1,515.7999999821186,0,0,2,79260,task1,1015367,false,false,1037,image-keyboard-response,16
true,7,2,2,2,true,d,false,false,0.0-2.0-0.27-0.250-3.250,0,0,0,68,false,stim,false,1,526.2000000178814,0,0,2,79260,task1,1017426,false,true,1040,image-keyboard-response,17
true,7,2,2,2,true,d,false,true,0.0-2.0-0.27-0.251-3.251,0,0,0,68,false,stim,false,0,630.7999999821186,0,0,0,79260,task1,1019591,false,false,1043,image-keyboard-response,18
true,7,1,2,1,true,z,false,true,0.0-2.0-0.28-0.252-3.252,0,0,0,90,false,stim,false,2,328.10000002384186,0,0,1,79260,task1,1021440,false,false,1046,image-keyboard-response,19
true,7,2,2,2,true,d,false,true,0.0-2.0-0.28-0.253-3.253,0,0,0,68,false,stim,false,1,377.90000000596046,0,0,2,79260,task1,1023338,false,false,1049,image-keyboard-response,20
true,7,2,2,1,false,z,false,false,0.0-2.0-0.28-0.254-3.254,0,0,0,68,false,stim,true,2,389.40000000596046,0,0,1,79260,task1,1025260,false,false,1052,image-keyboard-response,21
true,7,2,2,2,true,d,false,true,0.0-2.0-0.28-0.255-3.255,0,0,0,68,false,stim,false,0,541.9000000059605,0,0,0,79260,task1,1027326,false,false,1055,image-keyboard-response,22
true,7,2,2,2,true,d,false,true,0.0-2.0-0.28-0.256-3.256,0,0,0,68,false,stim,false,0,500.09999999403954,0,0,0,79260,task1,1029356,false,false,1058,image-keyboard-response,23
true,7,2,2,2,true,d,false,true,0.0-2.0-0.28-0.257-3.257,0,0,0,68,false,stim,false,1,628.3999999761581,0,0,2,79260,task1,1031518,false,false,1061,image-keyboard-response,24
true,7,1,2,1,true,z,false,true,0.0-2.0-0.28-0.258-3.258,0,0,0,90,false,stim,false,2,369.09999999403954,0,0,1,79260,task1,1033406,false,false,1064,image-keyboard-response,25
true,7,2,2,2,true,d,false,false,0.0-2.0-0.28-0.259-3.259,0,0,0,68,false,stim,false,0,547.2000000178814,0,0,0,79260,task1,1035468,false,true,1067,image-keyboard-response,26
true,7,2,2,2,true,d,false,false,0.0-2.0-0.28-0.260-3.260,0,0,0,68,false,stim,false,1,650.6999999880791,0,0,2,79260,task1,1037647,false,true,1070,image-keyboard-response,27
true,7,0,2,2,false,d,false,false,0.0-2.0-0.29-0.261-3.261,0,0,0,81,false,stim,true,0,1190.0,0,0,0,79260,task1,1040366,false,false,1073,image-keyboard-response,28
true,7,0,2,2,false,d,true,false,0.0-2.0-0.29-0.262-3.262,0,0,0,81,false,stim,false,1,1832.9000000059605,0,0,2,79260,task1,1043717,false,false,1076,image-keyboard-response,29
true,7,1,2,2,false,d,false,false,0.0-2.0-0.29-0.263-3.263,0,0,0,90,false,stim,true,1,818.0999999940395,0,0,2,79260,task1,1046057,false,false,1079,image-keyboard-response,30
true,7,1,2,1,true,z,false,true,0.0-2.0-0.29-0.264-3.264,0,0,0,90,false,stim,false,2,1018.4000000059605,0,0,1,79260,task1,1048599,false,false,1082,image-keyboard-response,31
true,7,2,2,2,true,d,false,true,0.0-2.0-0.29-0.265-3.265,0,0,0,68,false,stim,false,0,1157.199999988079,0,0,0,79260,task1,1051283,false,false,1085,image-keyboard-response,32
true,7,1,2,1,true,z,false,false,0.0-2.0-0.29-0.266-3.266,0,0,0,90,false,stim,false,2,805.9000000059605,0,0,1,79260,task1,1053612,false,true,1088,image-keyboard-response,33
true,7,2,2,2,true,d,false,true,0.0-2.0-0.29-0.267-3.267,0,0,0,68,false,stim,false,0,805.4000000059605,0,0,0,79260,task1,1055946,false,false,1091,image-keyboard-response,34
true,7,1,2,1,true,z,false,true,0.0-2.0-0.29-0.268-3.268,0,0,0,90,false,stim,false,2,777.3000000119209,0,0,1,79260,task1,1058249,false,false,1094,image-keyboard-response,35
true,7,2,2,2,true,d,false,true,0.0-2.0-0.29-0.269-3.269,0,0,0,68,false,stim,false,1,366.60000002384186,0,0,2,79260,task1,1060147,false,false,1097,image-keyboard-response,36
true,7,2,2,2,true,d,false,false,0.0-2.0-0.30-0.270-3.270,0,0,0,68,false,stim,false,1,1223.9000000059605,0,0,2,79260,task1,1062889,false,true,1100,image-keyboard-response,37
true,7,0,2,2,false,d,true,false,0.0-2.0-0.30-0.271-3.271,0,0,0,81,false,stim,false,1,909.3000000119209,0,0,2,79260,task1,1065334,false,false,1103,image-keyboard-response,38
true,7,2,2,2,true,d,false,true,0.0-2.0-0.30-0.272-3.272,0,0,0,68,false,stim,false,0,947.3000000119209,0,0,0,79260,task1,1067801,false,false,1106,image-keyboard-response,39
true,8,1,2,2,false,d,false,false,0.0-2.0-0.30-0.273-3.273,0,0,0,90,true,stim,true,1,632.1999999880791,0,0,1,79260,task1,1069963,false,false,1109,image-keyboard-response,1
true,8,0,2,2,false,d,true,false,0.0-2.0-0.30-0.274-3.274,0,0,0,81,false,stim,false,1,1517.4000000059605,0,0,1,79260,task1,1073007,false,false,1112,image-keyboard-response,2
true,8,2,2,2,true,d,false,true,0.0-2.0-0.30-0.275-3.275,0,0,0,68,false,stim,false,1,430.5,0,0,1,79260,task1,1074969,false,false,1115,image-keyboard-response,3
true,8,2,2,0,false,q,false,true,0.0-2.0-0.30-0.276-3.276,0,0,0,68,false,stim,true,2,807.4000000059605,0,0,0,79260,task1,1077303,false,true,1118,image-keyboard-response,4
true,8,1,2,1,true,z,false,true,0.0-2.0-0.30-0.277-3.277,0,0,0,90,false,stim,false,2,909.0,0,0,2,79260,task1,1079734,false,false,1121,image-keyboard-response,5
true,8,2,2,0,false,q,false,false,0.0-2.0-0.30-0.278-3.278,0,0,0,68,false,stim,true,2,748.0,0,0,0,79260,task1,1082005,false,false,1124,image-keyboard-response,6
true,8,2,2,2,true,d,false,true,0.0-2.0-0.31-0.279-3.279,0,0,0,68,false,stim,false,1,559.9000000059605,0,0,1,79260,task1,1084083,false,false,1127,image-keyboard-response,7
true,8,1,2,1,true,z,false,false,0.0-2.0-0.31-0.280-3.280,0,0,0,90,false,stim,false,2,647.2999999821186,0,0,2,79260,task1,1086257,false,true,1130,image-keyboard-response,8
true,8,1,2,0,false,q,true,false,0.0-2.0-0.31-0.281-3.281,0,0,0,90,false,stim,false,2,1073.699999988079,0,0,0,79260,task1,1088862,false,false,1133,image-keyboard-response,9
true,8,0,2,0,true,q,false,true,0.0-2.0-0.31-0.282-3.282,0,0,0,81,false,stim,false,2,432.40000000596046,0,0,0,79260,task1,1090812,false,false,1136,image-keyboard-response,10
true,8,0,2,1,false,z,true,false,0.0-2.0-0.31-0.283-3.283,0,0,0,81,false,stim,false,2,1136.8999999761581,0,0,2,79260,task1,1093478,false,false,1139,image-keyboard-response,11
true,8,2,2,2,true,d,false,true,0.0-2.0-0.31-0.284-3.284,0,0,0,68,false,stim,false,1,591.2000000178814,0,0,1,79260,task1,1095596,false,false,1142,image-keyboard-response,12
true,8,2,2,1,false,z,false,false,0.0-2.0-0.31-0.285-3.285,0,0,0,68,false,stim,true,2,703.0999999940395,0,0,2,79260,task1,1097825,false,false,1145,image-keyboard-response,13
true,8,2,2,2,true,d,false,true,0.0-2.0-0.31-0.286-3.286,0,0,0,68,false,stim,false,1,520.3000000119209,0,0,1,79260,task1,1099870,false,false,1148,image-keyboard-response,14
true,8,1,2,0,false,q,true,false,0.0-2.0-0.31-0.287-3.287,0,0,0,90,false,stim,false,2,1244.5,0,0,0,79260,task1,1102630,false,false,1151,image-keyboard-response,15
true,8,0,2,1,false,z,true,false,0.0-2.0-0.32-0.288-3.288,0,0,0,81,false,stim,false,2,734.8000000119209,0,0,2,79260,task1,1104887,false,false,1154,image-keyboard-response,16
true,8,1,2,1,true,z,false,true,0.0-2.0-0.32-0.289-3.289,0,0,0,90,false,stim,false,2,754.5999999940395,0,0,2,79260,task1,1107174,false,false,1157,image-keyboard-response,17
true,8,0,2,0,true,q,false,true,0.0-2.0-0.32-0.290-3.290,0,0,0,81,false,stim,false,2,836.0,0,0,0,79260,task1,1109534,false,false,1160,image-keyboard-response,18
true,8,0,2,0,true,q,false,true,0.0-2.0-0.32-0.291-3.291,0,0,0,81,false,stim,false,2,560.2999999821186,0,0,0,79260,task1,1111626,false,false,1163,image-keyboard-response,19
true,8,2,2,2,true,d,false,true,0.0-2.0-0.32-0.292-3.292,0,0,0,68,false,stim,false,1,788.5,0,0,1,79260,task1,1113941,false,false,1166,image-keyboard-response,20
true,8,1,2,1,true,z,false,true,0.0-2.0-0.32-0.293-3.293,0,0,0,90,false,stim,false,2,573.8000000119209,0,0,2,79260,task1,1116051,false,false,1169,image-keyboard-response,21
true,8,2,2,2,true,d,false,true,0.0-2.0-0.32-0.294-3.294,0,0,0,68,false,stim,false,1,795.2000000178814,0,0,1,79260,task1,1118365,false,false,1172,image-keyboard-response,22
true,8,0,2,0,true,q,false,true,0.0-2.0-0.32-0.295-3.295,0,0,0,81,false,stim,false,2,555.5,0,0,0,79260,task1,1120442,false,false,1175,image-keyboard-response,23
true,8,2,2,2,true,d,false,true,0.0-2.0-0.32-0.296-3.296,0,0,0,68,false,stim,false,1,761.8000000119209,0,0,1,79260,task1,1122729,false,false,1178,image-keyboard-response,24
true,8,2,2,2,true,d,false,true,0.0-2.0-0.33-0.297-3.297,0,0,0,68,false,stim,false,1,581.6000000238419,0,0,1,79260,task1,1124835,false,false,1181,image-keyboard-response,25
true,8,0,2,0,true,q,false,true,0.0-2.0-0.33-0.298-3.298,0,0,0,81,false,stim,false,2,796.0999999940395,0,0,0,79260,task1,1127159,false,false,1184,image-keyboard-response,26
true,8,1,2,1,true,z,false,true,0.0-2.0-0.33-0.299-3.299,0,0,0,90,false,stim,false,2,847.8000000119209,0,0,2,79260,task1,1129545,false,false,1187,image-keyboard-response,27
true,8,2,2,2,true,d,false,true,0.0-2.0-0.33-0.300-3.300,0,0,0,68,false,stim,false,1,1206.5999999940395,0,0,1,79260,task1,1132272,false,false,1190,image-keyboard-response,28
true,8,1,2,1,true,z,false,false,0.0-2.0-0.33-0.301-3.301,0,0,0,90,false,stim,false,2,712.1000000238419,0,0,2,79260,task1,1134507,false,true,1193,image-keyboard-response,29
true,8,0,2,0,true,q,false,true,0.0-2.0-0.33-0.302-3.302,0,0,0,81,false,stim,false,2,530.8999999761581,0,0,0,79260,task1,1136568,false,false,1196,image-keyboard-response,30
true,8,0,2,0,true,q,false,false,0.0-2.0-0.33-0.303-3.303,0,0,0,81,false,stim,false,2,530.5999999940395,0,0,0,79260,task1,1138616,false,true,1199,image-keyboard-response,31
true,8,1,2,1,true,z,false,true,0.0-2.0-0.33-0.304-3.304,0,0,0,90,false,stim,false,2,1428.5,0,0,2,79260,task1,1141571,false,false,1202,image-keyboard-response,32
true,8,2,2,2,true,d,false,true,0.0-2.0-0.33-0.305-3.305,0,0,0,68,false,stim,false,1,545.8000000119209,0,0,1,79260,task1,1143638,false,false,1205,image-keyboard-response,33
true,8,0,2,0,true,q,false,true,0.0-2.0-0.34-0.306-3.306,0,0,0,81,false,stim,false,2,469.09999999403954,0,0,0,79260,task1,1145627,false,false,1208,image-keyboard-response,34
true,8,0,2,0,true,q,false,true,0.0-2.0-0.34-0.307-3.307,0,0,0,81,false,stim,false,2,525.8000000119209,0,0,0,79260,task1,1147670,false,false,1211,image-keyboard-response,35
true,8,1,2,1,true,z,false,true,0.0-2.0-0.34-0.308-3.308,0,0,0,90,false,stim,false,2,605.8000000119209,0,0,2,79260,task1,1149807,false,false,1214,image-keyboard-response,36
true,8,0,2,0,true,q,false,true,0.0-2.0-0.34-0.309-3.309,0,0,0,81,false,stim,false,2,687.0999999940395,0,0,0,79260,task1,1152015,false,false,1217,image-keyboard-response,37
true,8,2,2,2,true,d,false,true,0.0-2.0-0.34-0.310-3.310,0,0,0,68,false,stim,false,1,816.4000000059605,0,0,1,79260,task1,1154357,false,false,1220,image-keyboard-response,38
true,8,1,2,1,true,z,false,true,0.0-2.0-0.34-0.311-3.311,0,0,0,90,false,stim,false,2,700.3999999761581,0,0,2,79260,task1,1156572,false,false,1223,image-keyboard-response,39
true,8,2,2,2,true,d,false,true,0.0-2.0-0.34-0.312-3.312,0,0,0,68,false,stim,false,1,1002.5,0,0,1,79260,task1,1159089,false,false,1226,image-keyboard-response,40
true,9,1,1,0,false,q,false,true,0.0-2.0-0.34-0.313-3.313,0,0,0,90,true,stim,true,1,687.8999999761581,0,0,2,79260,task1,1161310,false,true,1229,image-keyboard-response,1
true,9,2,1,0,false,q,false,false,0.0-2.0-0.34-0.314-3.314,0,0,0,68,false,stim,true,2,778.4000000059605,0,0,1,79260,task1,1163610,false,false,1232,image-keyboard-response,2
true,9,0,1,1,false,z,false,false,0.0-2.0-0.35-0.315-3.315,0,0,0,81,false,stim,true,0,790.2999999821186,0,0,0,79260,task1,1165929,false,false,1235,image-keyboard-response,3
true,9,1,1,1,true,z,false,false,0.0-2.0-0.35-0.316-3.316,0,0,0,90,false,stim,false,0,1736.800000011921,0,0,0,79260,task1,1169181,false,true,1238,image-keyboard-response,4
true,9,2,1,1,false,z,true,false,0.0-2.0-0.35-0.317-3.317,0,0,0,68,false,stim,false,0,553.9000000059605,0,0,0,79260,task1,1171248,false,false,1241,image-keyboard-response,5
true,9,1,1,0,false,q,false,false,0.0-2.0-0.35-0.318-3.318,0,0,0,90,false,stim,true,1,986.5,0,0,2,79260,task1,1173750,false,false,1244,image-keyboard-response,6
true,9,2,1,0,false,q,false,false,0.0-2.0-0.35-0.319-3.319,0,0,0,68,false,stim,true,2,665.9000000059605,0,0,1,79260,task1,1175932,false,false,1247,image-keyboard-response,7
true,9,0,1,0,true,q,false,true,0.0-2.0-0.35-0.320-3.320,0,0,0,81,false,stim,false,2,766.2000000178814,0,0,1,79260,task1,1178219,false,false,1250,image-keyboard-response,8
true,9,0,1,0,true,q,false,false,0.0-2.0-0.35-0.321-3.321,0,0,0,81,false,stim,false,2,715.0,0,0,1,79260,task1,1180460,false,true,1253,image-keyboard-response,9
true,9,1,1,0,false,q,false,false,0.0-2.0-0.35-0.322-3.322,0,0,0,90,false,stim,true,1,1082.6000000238419,0,0,2,79260,task1,1183058,false,false,1256,image-keyboard-response,10
true,9,0,1,0,true,q,false,true,0.0-2.0-0.35-0.323-3.323,0,0,0,81,false,stim,false,1,732.0,0,0,2,79260,task1,1185317,false,false,1259,image-keyboard-response,11
true,9,0,1,1,false,z,false,false,0.0-2.0-0.36-0.324-3.324,0,0,0,81,false,stim,true,0,378.5,0,0,0,79260,task1,1187213,false,false,1262,image-keyboard-response,12
true,9,2,1,1,false,z,true,false,0.0-2.0-0.36-0.325-3.325,0,0,0,68,false,stim,false,0,1104.0999999940395,0,0,0,79260,task1,1189841,false,false,1265,image-keyboard-response,13
true,9,1,1,1,true,z,false,true,0.0-2.0-0.36-0.326-3.326,0,0,0,90,false,stim,false,0,533.0,0,0,0,79260,task1,1191903,false,false,1268,image-keyboard-response,14
true,9,0,1,0,true,q,false,true,0.0-2.0-0.36-0.327-3.327,0,0,0,81,false,stim,false,1,564.5,0,0,2,79260,task1,1194002,false,false,1271,image-keyboard-response,15
true,9,0,1,0,true,q,false,true,0.0-2.0-0.36-0.328-3.328,0,0,0,81,false,stim,false,1,582.9000000059605,0,0,2,79260,task1,1196118,false,false,1274,image-keyboard-response,16
true,9,0,1,0,true,q,false,false,0.0-2.0-0.36-0.329-3.329,0,0,0,81,false,stim,false,2,413.59999999403954,0,0,1,79260,task1,1198052,false,true,1277,image-keyboard-response,17
true,9,1,1,0,false,q,true,false,0.0-2.0-0.36-0.330-3.330,0,0,0,90,false,stim,false,2,935.2000000178814,0,0,1,79260,task1,1200524,false,false,1280,image-keyboard-response,18
true,9,0,1,0,true,q,false,true,0.0-2.0-0.36-0.331-3.331,0,0,0,81,false,stim,false,1,959.1999999880791,0,0,2,79260,task1,1203014,false,false,1283,image-keyboard-response,19
true,9,2,1,0,false,q,false,false,0.0-2.0-0.36-0.332-3.332,0,0,0,68,false,stim,true,2,482.0,0,0,1,79260,task1,1205022,false,false,1286,image-keyboard-response,20
true,9,0,1,0,true,q,false,true,0.0-2.0-0.37-0.333-3.333,0,0,0,81,false,stim,false,2,574.5,0,0,1,79260,task1,1207127,false,false,1289,image-keyboard-response,21
true,9,0,1,0,true,q,false,true,0.0-2.0-0.37-0.334-3.334,0,0,0,81,false,stim,false,2,480.5,0,0,1,79260,task1,1209138,false,false,1292,image-keyboard-response,22
true,9,0,1,0,true,q,false,true,0.0-2.0-0.37-0.335-3.335,0,0,0,81,false,stim,false,1,586.4000000059605,0,0,2,79260,task1,1211237,false,false,1295,image-keyboard-response,23
true,9,0,1,0,true,q,false,true,0.0-2.0-0.37-0.336-3.336,0,0,0,81,false,stim,false,1,476.90000000596046,0,0,2,79260,task1,1213238,false,false,1298,image-keyboard-response,24
true,9,2,1,1,false,z,true,true,0.0-2.0-0.37-0.337-3.337,0,0,0,68,false,stim,false,0,1133.9000000059605,0,0,0,79260,task1,1215908,false,true,1301,image-keyboard-response,25
true,9,0,1,0,true,q,false,true,0.0-2.0-0.37-0.338-3.338,0,0,0,81,false,stim,false,1,663.0999999940395,0,0,2,79260,task1,1218087,false,false,1304,image-keyboard-response,26
true,9,0,1,0,true,q,false,true,0.0-2.0-0.37-0.339-3.339,0,0,0,81,false,stim,false,2,682.5,0,0,1,79260,task1,1220285,false,false,1307,image-keyboard-response,27
true,9,2,1,1,false,z,true,false,0.0-2.0-0.37-0.340-3.340,0,0,0,68,false,stim,false,0,1054.2999999821186,0,0,0,79260,task1,1222876,false,false,1310,image-keyboard-response,28
true,9,2,1,1,false,z,true,false,0.0-2.0-0.37-0.341-3.341,0,0,0,68,false,stim,false,0,444.40000000596046,0,0,0,79260,task1,1224836,false,false,1313,image-keyboard-response,29
true,9,0,1,0,true,q,false,true,0.0-2.0-0.38-0.342-3.342,0,0,0,81,false,stim,false,1,604.0999999940395,0,0,2,79260,task1,1226960,false,false,1316,image-keyboard-response,30
true,9,1,1,1,true,z,false,true,0.0-2.0-0.38-0.343-3.343,0,0,0,90,false,stim,false,0,734.0999999940395,0,0,0,79260,task1,1229222,false,false,1319,image-keyboard-response,31
true,9,1,1,1,true,z,false,false,0.0-2.0-0.38-0.344-3.344,0,0,0,90,false,stim,false,0,710.2999999821186,0,0,0,79260,task1,1231453,false,true,1322,image-keyboard-response,32
true,9,0,1,1,false,z,false,false,0.0-2.0-0.38-0.345-3.345,0,0,0,81,false,stim,true,0,722.0,0,0,0,79260,task1,1233700,false,false,1325,image-keyboard-response,33
true,9,0,1,0,true,q,false,true,0.0-2.0-0.38-0.346-3.346,0,0,0,81,false,stim,false,2,710.0,0,0,1,79260,task1,1235936,false,false,1328,image-keyboard-response,34
true,9,0,1,0,true,q,false,true,0.0-2.0-0.38-0.347-3.347,0,0,0,81,false,stim,false,2,402.09999999403954,0,0,1,79260,task1,1237875,false,false,1331,image-keyboard-response,35
true,9,2,1,0,false,q,true,false,0.0-2.0-0.38-0.348-3.348,0,0,0,68,false,stim,false,1,678.5999999940395,0,0,2,79260,task1,1240085,false,false,1334,image-keyboard-response,36
true,9,0,1,0,true,q,false,true,0.0-2.0-0.38-0.349-3.349,0,0,0,81,false,stim,false,1,969.0999999940395,0,0,2,79260,task1,1242576,false,false,1337,image-keyboard-response,37
true,9,0,1,0,true,q,false,true,0.0-2.0-0.38-0.350-3.350,0,0,0,81,false,stim,false,2,458.7999999821186,0,0,1,79260,task1,1244559,false,false,1340,image-keyboard-response,38
true,9,0,1,0,true,q,false,true,0.0-2.0-0.39-0.351-3.351,0,0,0,81,false,stim,false,2,516.8000000119209,0,0,1,79260,task1,1246588,false,false,1343,image-keyboard-response,39
true,9,0,1,0,true,q,false,true,0.0-2.0-0.39-0.352-3.352,0,0,0,81,false,stim,false,2,388.2999999821186,0,0,1,79260,task1,1248513,false,false,1346,image-keyboard-response,40
true,9,0,1,0,true,q,false,true,0.0-2.0-0.39-0.353-3.353,0,0,0,81,false,stim,false,2,469.2000000178814,0,0,1,79260,task1,1250507,false,false,1349,image-keyboard-response,41
true,9,0,1,1,false,z,false,false,0.0-2.0-0.39-0.354-3.354,0,0,0,81,false,stim,true,0,615.5999999940395,0,0,0,79260,task1,1252655,false,false,1352,image-keyboard-response,42
true,9,0,1,0,true,q,false,true,0.0-2.0-0.39-0.355-3.355,0,0,0,81,false,stim,false,1,1353.800000011921,0,0,2,79260,task1,1255531,false,false,1355,image-keyboard-response,43
true,10,0,2,1,false,z,false,false,0.0-2.0-0.39-0.356-3.356,0,0,0,81,true,stim,true,0,667.2000000178814,0,0,2,79260,task1,1257709,false,false,1358,image-keyboard-response,1
true,10,1,2,0,false,q,false,false,0.0-2.0-0.39-0.357-3.357,0,0,0,90,false,stim,true,1,620.2999999821186,0,0,0,79260,task1,1259852,false,false,1361,image-keyboard-response,2
true,10,0,2,1,false,z,false,false,0.0-2.0-0.39-0.358-3.358,0,0,0,81,false,stim,true,0,1345.4000000059605,0,0,2,79260,task1,1262722,false,false,1364,image-keyboard-response,3
true,10,2,2,0,false,q,true,false,0.0-2.0-0.39-0.359-3.359,0,0,0,68,false,stim,false,1,2465.4000000059605,0,0,0,79260,task1,1266715,false,false,1367,image-keyboard-response,4
true,10,0,2,2,false,d,false,false,0.0-2.0-0.40-0.360-3.360,0,0,0,81,false,stim,true,0,1110.199999988079,0,0,1,79260,task1,1269351,false,false,1370,image-keyboard-response,5
true,10,1,2,2,false,d,true,false,0.0-2.0-0.40-0.361-3.361,0,0,0,90,false,stim,false,0,1409.199999988079,0,0,1,79260,task1,1272289,false,false,1373,image-keyboard-response,6
true,10,1,2,0,false,q,false,false,0.0-2.0-0.40-0.362-3.362,0,0,0,90,false,stim,true,1,945.2999999821186,0,0,0,79260,task1,1274747,false,false,1376,image-keyboard-response,7
true,10,2,2,1,false,z,true,false,0.0-2.0-0.40-0.363-3.363,0,0,0,68,false,stim,false,0,2028.9000000059605,0,0,2,79260,task1,1278301,false,false,1379,image-keyboard-response,8
true,10,1,2,1,true,z,false,true,0.0-2.0-0.40-0.364-3.364,0,0,0,90,false,stim,false,0,985.4000000059605,0,0,2,79260,task1,1280810,false,false,1382,image-keyboard-response,9
true,10,0,2,0,true,q,false,false,0.0-2.0-0.40-0.365-3.365,0,0,0,81,false,stim,false,1,1036.9000000059605,0,0,0,79260,task1,1283372,false,true,1385,image-keyboard-response,10
true,10,2,2,0,false,q,true,false,0.0-2.0-0.40-0.366-3.366,0,0,0,68,false,stim,false,1,592.3000000119209,0,0,0,79260,task1,1285495,false,false,1388,image-keyboard-response,11
true,10,1,2,1,true,z,false,true,0.0-2.0-0.40-0.367-3.367,0,0,0,90,false,stim,false,0,480.5,0,0,2,79260,task1,1287504,false,false,1391,image-keyboard-response,12
true,10,1,2,2,false,d,true,false,0.0-2.0-0.40-0.368-3.368,0,0,0,90,false,stim,false,0,919.0,0,0,1,79260,task1,1289945,false,false,1394,image-keyboard-response,13
true,10,1,2,1,true,z,false,true,0.0-2.0-0.41-0.369-3.369,0,0,0,90,false,stim,false,0,860.0,0,0,2,79260,task1,1292343,false,false,1397,image-keyboard-response,14
true,10,0,2,2,false,d,false,false,0.0-2.0-0.41-0.370-3.370,0,0,0,81,false,stim,true,0,864.3000000119209,0,0,1,79260,task1,1294733,false,false,1400,image-keyboard-response,15
true,10,1,2,0,false,q,false,false,0.0-2.0-0.41-0.371-3.371,0,0,0,90,false,stim,true,1,754.3999999761581,0,0,0,79260,task1,1297032,false,false,1403,image-keyboard-response,16
true,10,0,2,0,true,q,false,false,0.0-2.0-0.41-0.372-3.372,0,0,0,81,false,stim,false,1,718.7000000178814,0,0,0,79260,task1,1299261,false,true,1406,image-keyboard-response,17
true,10,1,2,2,false,d,true,false,0.0-2.0-0.41-0.373-3.373,0,0,0,90,false,stim,false,0,1337.1000000238419,0,0,1,79260,task1,1302134,false,false,1409,image-keyboard-response,18
true,10,2,2,2,true,d,false,true,0.0-2.0-0.41-0.374-3.374,0,0,0,68,false,stim,false,0,604.0,0,0,1,79260,task1,1304266,false,false,1412,image-keyboard-response,19
true,10,1,2,1,true,z,false,true,0.0-2.0-0.41-0.375-3.375,0,0,0,90,false,stim,false,0,473.69999998807907,0,0,2,79260,task1,1306260,false,false,1415,image-keyboard-response,20
true,10,2,2,1,false,z,true,false,0.0-2.0-0.41-0.376-3.376,0,0,0,68,false,stim,false,0,415.30000001192093,0,0,2,79260,task1,1308196,false,false,1418,image-keyboard-response,21
true,10,0,2,0,true,q,false,true,0.0-2.0-0.41-0.377-3.377,0,0,0,81,false,stim,false,1,955.0,0,0,0,79260,task1,1310672,false,false,1421,image-keyboard-response,22
true,10,0,2,0,true,q,false,false,0.0-2.0-0.42-0.378-3.378,0,0,0,81,false,stim,false,1,1036.5,0,0,0,79260,task1,1313243,false,true,1424,image-keyboard-response,23
true,10,1,2,1,true,z,false,false,0.0-2.0-0.42-0.379-3.379,0,0,0,90,false,stim,false,0,641.9000000059605,0,0,2,79260,task1,1315419,false,true,1427,image-keyboard-response,24
true,10,0,2,0,true,q,false,true,0.0-2.0-0.42-0.380-3.380,0,0,0,81,false,stim,false,1,622.0,0,0,0,79260,task1,1317556,false,false,1430,image-keyboard-response,25
true,10,1,2,2,false,d,true,false,0.0-2.0-0.42-0.381-3.381,0,0,0,90,false,stim,false,0,1885.800000011921,0,0,1,79260,task1,1320972,false,false,1433,image-keyboard-response,26
true,10,1,2,1,true,z,false,false,0.0-2.0-0.42-0.382-3.382,0,0,0,90,false,stim,false,0,769.6999999880791,0,0,2,79260,task1,1323270,false,true,1436,image-keyboard-response,27
true,10,0,2,0,true,q,false,false,0.0-2.0-0.42-0.383-3.383,0,0,0,81,false,stim,false,1,415.90000000596046,0,0,0,79260,task1,1325212,false,true,1439,image-keyboard-response,28
true,10,2,2,2,true,d,false,true,0.0-2.0-0.42-0.384-3.384,0,0,0,68,false,stim,false,0,809.7000000178814,0,0,1,79260,task1,1327559,false,false,1442,image-keyboard-response,29
true,10,2,2,2,true,d,false,true,0.0-2.0-0.42-0.385-3.385,0,0,0,68,false,stim,false,0,599.8000000119209,0,0,1,79260,task1,1329676,false,false,1445,image-keyboard-response,30
true,10,2,2,1,false,z,true,false,0.0-2.0-0.42-0.386-3.386,0,0,0,68,false,stim,false,0,562.1999999880791,0,0,2,79260,task1,1331763,false,false,1448,image-keyboard-response,31
true,10,2,2,2,true,d,false,true,0.0-2.0-0.43-0.387-3.387,0,0,0,68,false,stim,false,0,472.7999999821186,0,0,1,79260,task1,1333771,false,false,1451,image-keyboard-response,32
true,10,1,2,1,true,z,false,true,0.0-2.0-0.43-0.388-3.388,0,0,0,90,false,stim,false,0,404.69999998807907,0,0,2,79260,task1,1335705,false,false,1454,image-keyboard-response,33
true,10,2,2,0,false,q,true,true,0.0-2.0-0.43-0.389-3.389,0,0,0,68,false,stim,false,1,945.0,0,0,0,79260,task1,1338179,false,true,1457,image-keyboard-response,34
true,10,2,2,2,true,d,false,true,0.0-2.0-0.43-0.390-3.390,0,0,0,68,false,stim,false,0,486.59999999403954,0,0,1,79260,task1,1340186,false,false,1460,image-keyboard-response,35
true,10,2,2,0,false,q,true,false,0.0-2.0-0.43-0.391-3.391,0,0,0,68,false,stim,false,1,532.8999999761581,0,0,0,79260,task1,1342243,false,false,1463,image-keyboard-response,36
true,10,2,2,2,true,d,false,true,0.0-2.0-0.43-0.392-3.392,0,0,0,68,false,stim,false,0,641.5,0,0,1,79260,task1,1344419,false,false,1466,image-keyboard-response,37
true,10,2,2,0,false,q,true,false,0.0-2.0-0.43-0.393-3.393,0,0,0,68,false,stim,false,1,420.2999999821186,0,0,0,79260,task1,1346371,false,false,1469,image-keyboard-response,38
true,10,1,2,1,true,z,false,true,0.0-2.0-0.43-0.394-3.394,0,0,0,90,false,stim,false,0,1092.0999999940395,0,0,2,79260,task1,1348985,false,false,1472,image-keyboard-response,39
true,10,1,2,1,true,z,false,true,0.0-2.0-0.43-0.395-3.395,0,0,0,90,false,stim,false,0,1472.800000011921,0,0,2,79260,task1,1351974,false,false,1475,image-keyboard-response,40
true,10,2,2,2,true,d,false,true,0.0-2.0-0.44-0.396-3.396,0,0,0,68,false,stim,false,0,692.2000000178814,0,0,1,79260,task1,1354191,false,false,1478,image-keyboard-response,41
true,10,1,2,1,true,z,false,true,0.0-2.0-0.44-0.397-3.397,0,0,0,90,false,stim,false,0,840.7000000178814,0,0,2,79260,task1,1356552,false,false,1481,image-keyboard-response,42
true,10,1,2,1,true,z,false,true,0.0-2.0-0.44-0.398-3.398,0,0,0,90,false,stim,false,0,526.0999999940395,0,0,2,79260,task1,1358595,false,false,1484,image-keyboard-response,43
true,10,1,2,1,true,z,false,true,0.0-2.0-0.44-0.399-3.399,0,0,0,90,false,stim,false,0,458.2999999821186,0,0,2,79260,task1,1360572,false,false,1487,image-keyboard-response,44
true,10,1,2,2,false,d,true,false,0.0-2.0-0.44-0.400-3.400,0,0,0,90,false,stim,false,0,438.80000001192093,0,0,1,79260,task1,1362536,false,false,1490,image-keyboard-response,45
true,11,2,2,1,false,z,false,false,0.0-2.0-0.44-0.401-3.401,0,0,0,68,true,stim,true,2,662.6999999880791,0,0,1,79260,task1,1364726,false,false,1493,image-keyboard-response,1
true,11,0,2,2,false,d,false,false,0.0-2.0-0.44-0.402-3.402,0,0,0,81,false,stim,true,0,761.6000000238419,0,0,0,79260,task1,1367020,false,false,1496,image-keyboard-response,2
true,11,1,2,2,false,d,true,false,0.0-2.0-0.44-0.403-3.403,0,0,0,90,false,stim,false,0,465.80000001192093,0,0,0,79260,task1,1369009,false,false,1499,image-keyboard-response,3
true,11,2,2,2,true,d,false,true,0.0-2.0-0.44-0.404-3.404,0,0,0,68,false,stim,false,0,476.40000000596046,0,0,0,79260,task1,1371023,false,false,1502,image-keyboard-response,4
true,11,2,2,1,false,z,false,false,0.0-2.0-0.45-0.405-3.405,0,0,0,68,false,stim,true,2,760.5999999940395,0,0,1,79260,task1,1373308,false,false,1505,image-keyboard-response,5
true,11,0,2,1,false,z,true,false,0.0-2.0-0.45-0.406-3.406,0,0,0,81,false,stim,false,2,1030.199999988079,0,0,1,79260,task1,1375848,false,false,1508,image-keyboard-response,6
true,11,2,2,2,true,d,false,true,0.0-2.0-0.45-0.407-3.407,0,0,0,68,false,stim,false,0,658.1000000238419,0,0,0,79260,task1,1378035,false,false,1511,image-keyboard-response,7
true,11,2,2,2,true,d,false,true,0.0-2.0-0.45-0.408-3.408,0,0,0,68,false,stim,false,0,924.8000000119209,0,0,0,79260,task1,1380483,false,false,1514,image-keyboard-response,8
true,11,0,2,2,false,d,true,false,0.0-2.0-0.45-0.409-3.409,0,0,0,81,false,stim,false,1,1278.7000000178814,0,0,2,79260,task1,1383286,false,false,1517,image-keyboard-response,9
true,11,1,2,2,false,d,false,false,0.0-2.0-0.45-0.410-3.410,0,0,0,90,false,stim,true,1,633.0,0,0,2,79260,task1,1385453,false,false,1520,image-keyboard-response,10
true,11,2,2,2,true,d,false,true,0.0-2.0-0.45-0.411-3.411,0,0,0,68,false,stim,false,0,755.0999999940395,0,0,0,79260,task1,1387746,false,false,1523,image-keyboard-response,11
true,11,2,2,2,true,d,false,true,0.0-2.0-0.45-0.412-3.412,0,0,0,68,false,stim,false,1,540.3000000119209,0,0,2,79260,task1,1389810,false,false,1526,image-keyboard-response,12
true,11,1,2,1,true,z,false,true,0.0-2.0-0.45-0.413-3.413,0,0,0,90,false,stim,false,2,372.19999998807907,0,0,1,79260,task1,1391707,false,false,1529,image-keyboard-response,13
true,11,1,2,1,true,z,false,false,0.0-2.0-0.46-0.414-3.414,0,0,0,90,false,stim,false,2,491.40000000596046,0,0,1,79260,task1,1393715,false,true,1532,image-keyboard-response,14
true,11,2,2,2,true,d,false,true,0.0-2.0-0.46-0.415-3.415,0,0,0,68,false,stim,false,1,513.8000000119209,0,0,2,79260,task1,1395750,false,false,1535,image-keyboard-response,15
true,11,2,2,2,true,d,false,true,0.0-2.0-0.46-0.416-3.416,0,0,0,68,false,stim,false,0,428.09999999403954,0,0,0,79260,task1,1397690,false,false,1538,image-keyboard-response,16
true,11,2,2,2,true,d,false,true,0.0-2.0-0.46-0.417-3.417,0,0,0,68,false,stim,false,1,550.2000000178814,0,0,2,79260,task1,1399759,false,false,1541,image-keyboard-response,17
true,11,1,2,1,true,z,false,true,0.0-2.0-0.46-0.418-3.418,0,0,0,90,false,stim,false,2,1350.7999999821186,0,0,1,79260,task1,1402636,false,false,1544,image-keyboard-response,18
true,11,2,2,2,true,d,false,true,0.0-2.0-0.46-0.419-3.419,0,0,0,68,false,stim,false,0,1005.4000000059605,0,0,0,79260,task1,1405171,false,false,1547,image-keyboard-response,19
true,11,2,2,2,true,d,false,true,0.0-2.0-0.46-0.420-3.420,0,0,0,68,false,stim,false,0,676.4000000059605,0,0,0,79260,task1,1407377,false,false,1550,image-keyboard-response,20
true,11,2,2,2,true,d,false,true,0.0-2.0-0.46-0.421-3.421,0,0,0,68,false,stim,false,1,1694.5,0,0,2,79260,task1,1410587,false,false,1553,image-keyboard-response,21
true,11,1,2,1,true,z,false,true,0.0-2.0-0.46-0.422-3.422,0,0,0,90,false,stim,false,2,915.2999999821186,0,0,1,79260,task1,1413027,false,false,1556,image-keyboard-response,22
true,11,2,2,2,true,d,false,true,0.0-2.0-0.47-0.423-3.423,0,0,0,68,false,stim,false,1,767.9000000059605,0,0,2,79260,task1,1415313,false,false,1559,image-keyboard-response,23
true,11,2,2,2,true,d,false,true,0.0-2.0-0.47-0.424-3.424,0,0,0,68,false,stim,false,0,943.1999999880791,0,0,0,79260,task1,1417772,false,false,1562,image-keyboard-response,24
true,11,2,2,2,true,d,false,true,0.0-2.0-0.47-0.425-3.425,0,0,0,68,false,stim,false,0,548.4000000059605,0,0,0,79260,task1,1419852,false,false,1565,image-keyboard-response,25
true,11,1,2,1,true,z,false,true,0.0-2.0-0.47-0.426-3.426,0,0,0,90,false,stim,false,2,621.1000000238419,0,0,1,79260,task1,1422001,false,false,1568,image-keyboard-response,26
true,11,2,2,2,true,d,false,true,0.0-2.0-0.47-0.427-3.427,0,0,0,68,false,stim,false,1,449.0,0,0,2,79260,task1,1423975,false,false,1571,image-keyboard-response,27
true,11,1,2,1,true,z,false,true,0.0-2.0-0.47-0.428-3.428,0,0,0,90,false,stim,false,2,586.5999999940395,0,0,1,79260,task1,1426085,false,false,1574,image-keyboard-response,28
true,11,2,2,2,true,d,false,true,0.0-2.0-0.47-0.429-3.429,0,0,0,68,false,stim,false,0,666.0999999940395,0,0,0,79260,task1,1428279,false,false,1577,image-keyboard-response,29
true,11,2,2,2,true,d,false,false,0.0-2.0-0.47-0.430-3.430,0,0,0,68,false,stim,false,1,480.09999999403954,0,0,2,79260,task1,1430284,false,true,1580,image-keyboard-response,30
true,11,1,2,1,true,z,false,true,0.0-2.0-0.47-0.431-3.431,0,0,0,90,false,stim,false,2,865.6999999880791,0,0,1,79260,task1,1432675,false,false,1583,image-keyboard-response,31
true,11,2,2,2,true,d,false,true,0.0-2.0-0.48-0.432-3.432,0,0,0,68,false,stim,false,0,614.0,0,0,0,79260,task1,1434819,false,false,1586,image-keyboard-response,32
true,11,1,2,2,false,d,false,false,0.0-2.0-0.48-0.433-3.433,0,0,0,90,false,stim,true,1,552.2000000178814,0,0,2,79260,task1,1436883,false,false,1589,image-keyboard-response,33
true,11,2,2,2,true,d,false,true,0.0-2.0-0.48-0.434-3.434,0,0,0,68,false,stim,false,0,558.0,0,0,0,79260,task1,1438962,false,false,1592,image-keyboard-response,34
true,11,2,2,2,true,d,false,true,0.0-2.0-0.48-0.435-3.435,0,0,0,68,false,stim,false,0,544.0999999940395,0,0,0,79260,task1,1441027,false,false,1595,image-keyboard-response,35
true,11,1,2,1,true,z,false,false,0.0-2.0-0.48-0.436-3.436,0,0,0,90,false,stim,false,2,524.4000000059605,0,0,1,79260,task1,1443079,false,true,1598,image-keyboard-response,36
true,11,0,2,2,false,d,true,true,0.0-2.0-0.48-0.437-3.437,0,0,0,81,false,stim,false,1,524.6999999880791,0,0,2,79260,task1,1445142,false,true,1601,image-keyboard-response,37
true,11,1,2,1,true,z,false,true,0.0-2.0-0.48-0.438-3.438,0,0,0,90,false,stim,false,2,943.0,0,0,1,79260,task1,1447604,false,false,1604,image-keyboard-response,38
true,11,0,2,2,false,d,true,false,0.0-2.0-0.48-0.439-3.439,0,0,0,81,false,stim,false,1,785.1000000238419,0,0,2,79260,task1,1449917,false,false,1607,image-keyboard-response,39
true,11,1,2,1,true,z,false,true,0.0-2.0-0.48-0.440-3.440,0,0,0,90,false,stim,false,2,939.0999999940395,0,0,1,79260,task1,1452391,false,false,1610,image-keyboard-response,40
true,11,0,2,2,false,d,true,true,0.0-2.0-0.49-0.441-3.441,0,0,0,81,false,stim,false,1,770.7000000178814,0,0,2,79260,task1,1454694,false,true,1613,image-keyboard-response,41
true,11,1,2,1,true,z,false,true,0.0-2.0-0.49-0.442-3.442,0,0,0,90,false,stim,false,2,765.5999999940395,0,0,1,79260,task1,1456992,false,false,1616,image-keyboard-response,42
true,12,1,1,2,false,d,false,false,0.0-2.0-0.49-0.443-3.443,0,0,0,90,true,stim,true,1,734.8999999761581,0,0,1,79260,task1,1459247,false,false,1619,image-keyboard-response,1
true,12,2,1,2,true,d,false,true,0.0-2.0-0.49-0.444-3.444,0,0,0,68,false,stim,false,1,1054.5,0,0,1,79260,task1,1461818,false,false,1622,image-keyboard-response,2
true,12,0,1,1,false,z,true,false,0.0-2.0-0.49-0.445-3.445,0,0,0,81,false,stim,false,2,760.0,0,0,2,79260,task1,1464099,false,false,1625,image-keyboard-response,3
true,12,2,1,1,false,z,false,false,0.0-2.0-0.49-0.446-3.446,0,0,0,68,false,stim,true,2,788.5999999940395,0,0,2,79260,task1,1466406,false,false,1628,image-keyboard-response,4
true,12,2,1,1,false,z,false,false,0.0-2.0-0.49-0.447-3.447,0,0,0,68,false,stim,true,2,654.0999999940395,0,0,0,79260,task1,1468591,false,false,1631,image-keyboard-response,5
true,12,1,1,1,true,z,false,true,0.0-2.0-0.49-0.448-3.448,0,0,0,90,false,stim,false,2,1309.0999999940395,0,0,0,79260,task1,1471428,false,false,1634,image-keyboard-response,6
true,12,1,1,1,true,z,false,true,0.0-2.0-0.49-0.449-3.449,0,0,0,90,false,stim,false,2,457.40000000596046,0,0,0,79260,task1,1473402,false,false,1637,image-keyboard-response,7
true,12,0,1,1,false,z,true,false,0.0-2.0-0.50-0.450-3.450,0,0,0,81,false,stim,false,2,1367.0,0,0,2,79260,task1,1476298,false,false,1640,image-keyboard-response,8
true,12,2,1,2,true,d,false,true,0.0-2.0-0.50-0.451-3.451,0,0,0,68,false,stim,false,1,891.0,0,0,1,79260,task1,1478711,false,false,1643,image-keyboard-response,9
true,12,1,1,1,true,z,false,true,0.0-2.0-0.50-0.452-3.452,0,0,0,90,false,stim,false,2,1151.4000000059605,0,0,2,79260,task1,1481380,false,false,1646,image-keyboard-response,10
true,12,2,1,2,true,d,false,true,0.0-2.0-0.50-0.453-3.453,0,0,0,68,false,stim,false,1,773.0999999940395,0,0,1,79260,task1,1483671,false,false,1649,image-keyboard-response,11
true,12,1,1,1,true,z,false,true,0.0-2.0-0.50-0.454-3.454,0,0,0,90,false,stim,false,2,749.0,0,0,2,79260,task1,1485935,false,false,1652,image-keyboard-response,12
true,12,1,1,1,true,z,false,true,0.0-2.0-0.50-0.455-3.455,0,0,0,90,false,stim,false,2,499.09999999403954,0,0,0,79260,task1,1487968,false,false,1655,image-keyboard-response,13
true,12,1,1,1,true,z,false,true,0.0-2.0-0.50-0.456-3.456,0,0,0,90,false,stim,false,2,545.2000000178814,0,0,0,79260,task1,1490043,false,false,1658,image-keyboard-response,14
true,12,2,1,2,true,d,false,false,0.0-2.0-0.50-0.457-3.457,0,0,0,68,false,stim,false,1,672.0999999940395,0,0,1,79260,task1,1492244,false,true,1661,image-keyboard-response,15
true,12,1,1,1,true,z,false,true,0.0-2.0-0.50-0.458-3.458,0,0,0,90,false,stim,false,2,470.5,0,0,0,79260,task1,1494225,false,false,1664,image-keyboard-response,16
true,12,2,1,2,true,d,false,true,0.0-2.0-0.51-0.459-3.459,0,0,0,68,false,stim,false,1,558.5,0,0,1,79260,task1,1496306,false,false,1667,image-keyboard-response,17
true,12,2,1,2,true,d,false,true,0.0-2.0-0.51-0.460-3.460,0,0,0,68,false,stim,false,1,834.3000000119209,0,0,1,79260,task1,1498674,false,false,1670,image-keyboard-response,18
true,12,1,1,1,true,z,false,true,0.0-2.0-0.51-0.461-3.461,0,0,0,90,false,stim,false,2,556.7000000178814,0,0,2,79260,task1,1500745,false,false,1673,image-keyboard-response,19
true,12,1,1,1,true,z,false,true,0.0-2.0-0.51-0.462-3.462,0,0,0,90,false,stim,false,2,497.59999999403954,0,0,2,79260,task1,1502758,false,false,1676,image-keyboard-response,20
true,12,1,1,1,true,z,false,true,0.0-2.0-0.51-0.463-3.463,0,0,0,90,false,stim,false,2,681.0,0,0,0,79260,task1,1504965,false,false,1679,image-keyboard-response,21
true,12,2,1,2,true,d,false,true,0.0-2.0-0.51-0.464-3.464,0,0,0,68,false,stim,false,1,731.8000000119209,0,0,1,79260,task1,1507228,false,false,1682,image-keyboard-response,22
true,12,1,1,1,true,z,false,true,0.0-2.0-0.51-0.465-3.465,0,0,0,90,false,stim,false,2,541.4000000059605,0,0,0,79260,task1,1509284,false,false,1685,image-keyboard-response,23
true,12,2,1,1,false,z,false,false,0.0-2.0-0.51-0.466-3.466,0,0,0,68,false,stim,true,2,915.7999999821186,0,0,2,79260,task1,1511724,false,false,1688,image-keyboard-response,24
true,12,1,1,1,true,z,false,true,0.0-2.0-0.51-0.467-3.467,0,0,0,90,false,stim,false,2,564.2000000178814,0,0,0,79260,task1,1513812,false,false,1691,image-keyboard-response,25
true,12,1,1,1,true,z,false,true,0.0-2.0-0.52-0.468-3.468,0,0,0,90,false,stim,false,2,496.69999998807907,0,0,0,79260,task1,1515823,false,false,1694,image-keyboard-response,26
true,12,1,1,1,true,z,false,true,0.0-2.0-0.52-0.469-3.469,0,0,0,90,false,stim,false,2,490.5,0,0,2,79260,task1,1517847,false,false,1697,image-keyboard-response,27
true,12,1,1,1,true,z,false,true,0.0-2.0-0.52-0.470-3.470,0,0,0,90,false,stim,false,2,520.4000000059605,0,0,0,79260,task1,1519885,false,false,1700,image-keyboard-response,28
true,12,2,1,2,true,d,false,true,0.0-2.0-0.52-0.471-3.471,0,0,0,68,false,stim,false,1,397.69999998807907,0,0,1,79260,task1,1521833,false,false,1703,image-keyboard-response,29
true,12,1,1,1,true,z,false,true,0.0-2.0-0.52-0.472-3.472,0,0,0,90,false,stim,false,2,492.0,0,0,2,79260,task1,1523849,false,false,1706,image-keyboard-response,30
true,12,1,1,2,false,d,false,false,0.0-2.0-0.52-0.473-3.473,0,0,0,90,false,stim,true,1,362.90000000596046,0,0,1,79260,task1,1525735,false,false,1709,image-keyboard-response,31
true,12,1,1,1,true,z,false,false,0.0-2.0-0.52-0.474-3.474,0,0,0,90,false,stim,false,2,599.7000000178814,0,0,2,79260,task1,1527859,false,true,1712,image-keyboard-response,32
true,12,1,1,1,true,z,false,true,0.0-2.0-0.52-0.475-3.475,0,0,0,90,false,stim,false,2,1288.2999999821186,0,0,0,79260,task1,1530666,false,false,1715,image-keyboard-response,33
true,12,2,1,2,true,d,false,true,0.0-2.0-0.52-0.476-3.476,0,0,0,68,false,stim,false,1,454.69999998807907,0,0,1,79260,task1,1532642,false,false,1718,image-keyboard-response,34
true,12,1,1,1,true,z,false,true,0.0-2.0-0.53-0.477-3.477,0,0,0,90,false,stim,false,2,833.0,0,0,0,79260,task1,1534991,false,false,1721,image-keyboard-response,35
true,12,2,1,2,true,d,false,true,0.0-2.0-0.53-0.478-3.478,0,0,0,68,false,stim,false,1,688.4000000059605,0,0,1,79260,task1,1537206,false,false,1724,image-keyboard-response,36
true,12,0,1,1,false,z,true,false,0.0-2.0-0.53-0.479-3.479,0,0,0,81,false,stim,false,2,901.0999999940395,0,0,2,79260,task1,1539627,false,false,1727,image-keyboard-response,37
true,12,2,1,1,false,z,false,false,0.0-2.0-0.53-0.480-3.480,0,0,0,68,false,stim,true,2,489.80000001192093,0,0,2,79260,task1,1541654,false,false,1730,image-keyboard-response,38
true,12,2,1,2,true,d,false,true,0.0-2.0-0.53-0.481-3.481,0,0,0,68,false,stim,false,1,908.5,0,0,1,79260,task1,1544094,false,false,1733,image-keyboard-response,39
true,12,1,1,1,true,z,false,true,0.0-2.0-0.53-0.482-3.482,0,0,0,90,false,stim,false,2,583.2000000178814,0,0,0,79260,task1,1546200,false,false,1736,image-keyboard-response,40
true,12,2,1,2,true,d,false,true,0.0-2.0-0.53-0.483-3.483,0,0,0,68,false,stim,false,1,1018.3000000119209,0,0,1,79260,task1,1548758,false,false,1739,image-keyboard-response,41
true,12,1,1,1,true,z,false,true,0.0-2.0-0.53-0.484-3.484,0,0,0,90,false,stim,false,2,782.8999999761581,0,0,0,79260,task1,1551062,false,false,1742,image-keyboard-response,42
true,12,1,1,1,true,z,false,false,0.0-2.0-0.53-0.485-3.485,0,0,0,90,false,stim,false,2,375.19999998807907,0,0,2,79260,task1,1552952,false,true,1745,image-keyboard-response,43
true,12,1,1,1,true,z,false,true,0.0-2.0-0.54-0.486-3.486,0,0,0,90,false,stim,false,2,812.3000000119209,0,0,0,79260,task1,1555279,false,false,1748,image-keyboard-response,44
true,13,2,2,1,false,z,false,false,0.0-2.0-0.54-0.487-3.487,0,0,0,68,true,stim,true,2,376.7000000178814,0,0,1,79260,task1,1557182,false,false,1751,image-keyboard-response,1
true,13,0,2,2,false,d,true,false,0.0-2.0-0.54-0.488-3.488,0,0,0,81,false,stim,false,1,585.2000000178814,0,0,2,79260,task1,1559277,false,false,1754,image-keyboard-response,2
true,13,2,2,1,false,z,false,false,0.0-2.0-0.54-0.489-3.489,0,0,0,68,false,stim,true,2,857.5,0,0,1,79260,task1,1561660,false,false,1757,image-keyboard-response,3
true,13,1,2,1,true,z,false,true,0.0-2.0-0.54-0.490-3.490,0,0,0,90,false,stim,false,2,562.7000000178814,0,0,1,79260,task1,1563751,false,false,1760,image-keyboard-response,4
true,13,1,2,2,false,d,false,false,0.0-2.0-0.54-0.491-3.491,0,0,0,90,false,stim,true,1,382.69999998807907,0,0,0,79260,task1,1565651,false,false,1763,image-keyboard-response,5
true,13,2,2,2,true,d,false,true,0.0-2.0-0.54-0.492-3.492,0,0,0,68,false,stim,false,1,937.3000000119209,0,0,2,79260,task1,1568115,false,false,1766,image-keyboard-response,6
true,13,0,2,2,false,d,true,false,0.0-2.0-0.54-0.493-3.493,0,0,0,81,false,stim,false,1,734.2999999821186,0,0,0,79260,task1,1570361,false,false,1769,image-keyboard-response,7
true,13,2,2,2,true,d,false,true,0.0-2.0-0.54-0.494-3.494,0,0,0,68,false,stim,false,1,1315.5,0,0,2,79260,task1,1573192,false,false,1772,image-keyboard-response,8
true,13,1,2,1,true,z,false,false,0.0-2.0-0.55-0.495-3.495,0,0,0,90,false,stim,false,2,459.2999999821186,0,0,1,79260,task1,1575176,false,true,1775,image-keyboard-response,9
true,13,1,2,1,true,z,false,true,0.0-2.0-0.55-0.496-3.496,0,0,0,90,false,stim,false,2,472.80000001192093,0,0,1,79260,task1,1577163,false,false,1778,image-keyboard-response,10
true,13,2,2,2,true,d,false,true,0.0-2.0-0.55-0.497-3.497,0,0,0,68,false,stim,false,1,485.09999999403954,0,0,2,79260,task1,1579182,false,false,1781,image-keyboard-response,11
true,13,1,2,1,true,z,false,true,0.0-2.0-0.55-0.498-3.498,0,0,0,90,false,stim,false,2,489.89999997615814,0,0,1,79260,task1,1581196,false,false,1784,image-keyboard-response,12
true,13,0,2,2,false,d,true,true,0.0-2.0-0.55-0.499-3.499,0,0,0,81,false,stim,false,1,750.5,0,0,0,79260,task1,1583468,false,true,1787,image-keyboard-response,13
true,13,0,2,2,false,d,true,false,0.0-2.0-0.55-0.500-3.500,0,0,0,81,false,stim,false,1,575.3000000119209,0,0,0,79260,task1,1585568,false,false,1790,image-keyboard-response,14
true,13,2,2,2,true,d,false,true,0.0-2.0-0.55-0.501-3.501,0,0,0,68,false,stim,false,1,738.0,0,0,2,79260,task1,1587826,false,false,1793,image-keyboard-response,15
true,13,2,2,2,true,d,false,true,0.0-2.0-0.55-0.502-3.502,0,0,0,68,false,stim,false,1,493.0,0,0,2,79260,task1,1589853,false,false,1796,image-keyboard-response,16
true,13,0,2,2,false,d,true,false,0.0-2.0-0.55-0.503-3.503,0,0,0,81,false,stim,false,1,604.8000000119209,0,0,0,79260,task1,1591970,false,false,1799,image-keyboard-response,17
true,13,2,2,2,true,d,false,true,0.0-2.0-0.56-0.504-3.504,0,0,0,68,false,stim,false,1,961.5,0,0,2,79260,task1,1594475,false,false,1802,image-keyboard-response,18
true,13,2,2,2,true,d,false,false,0.0-2.0-0.56-0.505-3.505,0,0,0,68,false,stim,false,1,385.2000000178814,0,0,0,79260,task1,1596371,false,true,1805,image-keyboard-response,19
true,13,1,2,2,false,d,false,false,0.0-2.0-0.56-0.506-3.506,0,0,0,90,false,stim,true,1,500.59999999403954,0,0,0,79260,task1,1598400,false,false,1808,image-keyboard-response,20
true,13,1,2,1,true,z,false,true,0.0-2.0-0.56-0.507-3.507,0,0,0,90,false,stim,false,2,771.2999999821186,0,0,1,79260,task1,1600700,false,false,1811,image-keyboard-response,21
true,13,1,2,1,true,z,false,false,0.0-2.0-0.56-0.508-3.508,0,0,0,90,false,stim,false,2,589.0999999940395,0,0,1,79260,task1,1602816,false,true,1814,image-keyboard-response,22
true,13,0,2,2,false,d,true,false,0.0-2.0-0.56-0.509-3.509,0,0,0,81,false,stim,false,1,842.5999999940395,0,0,0,79260,task1,1605192,false,false,1817,image-keyboard-response,23
true,13,2,2,2,true,d,false,true,0.0-2.0-0.56-0.510-3.510,0,0,0,68,false,stim,false,1,752.5,0,0,2,79260,task1,1607456,false,false,1820,image-keyboard-response,24
true,13,1,2,1,true,z,false,true,0.0-2.0-0.56-0.511-3.511,0,0,0,90,false,stim,false,2,1346.1000000238419,0,0,1,79260,task1,1610338,false,false,1823,image-keyboard-response,25
true,13,2,2,2,true,d,false,true,0.0-2.0-0.56-0.512-3.512,0,0,0,68,false,stim,false,1,648.1999999880791,0,0,2,79260,task1,1612520,false,false,1826,image-keyboard-response,26
true,13,1,2,2,false,d,false,false,0.0-2.0-0.57-0.513-3.513,0,0,0,90,false,stim,true,1,353.2000000178814,0,0,0,79260,task1,1614401,false,false,1829,image-keyboard-response,27
true,13,2,2,2,true,d,false,true,0.0-2.0-0.57-0.514-3.514,0,0,0,68,false,stim,false,1,462.09999999403954,0,0,0,79260,task1,1616392,false,false,1832,image-keyboard-response,28
true,13,1,2,1,true,z,false,true,0.0-2.0-0.57-0.515-3.515,0,0,0,90,false,stim,false,2,509.90000000596046,0,0,1,79260,task1,1618425,false,false,1835,image-keyboard-response,29
true,13,2,2,2,true,d,false,true,0.0-2.0-0.57-0.516-3.516,0,0,0,68,false,stim,false,1,374.80000001192093,0,0,2,79260,task1,1620314,false,false,1838,image-keyboard-response,30
true,13,1,2,1,true,z,false,true,0.0-2.0-0.57-0.517-3.517,0,0,0,90,false,stim,false,2,1255.9000000059605,0,0,1,79260,task1,1623082,false,false,1841,image-keyboard-response,31
true,13,1,2,2,false,d,false,false,0.0-2.0-0.57-0.518-3.518,0,0,0,90,false,stim,true,1,490.2000000178814,0,0,0,79260,task1,1625089,false,false,1844,image-keyboard-response,32
true,13,1,2,1,true,z,false,false,0.0-2.0-0.57-0.519-3.519,0,0,0,90,false,stim,false,2,778.6000000238419,0,0,1,79260,task1,1627395,false,true,1847,image-keyboard-response,33
true,13,2,2,2,true,d,false,false,0.0-2.0-0.57-0.520-3.520,0,0,0,68,false,stim,false,1,687.0,0,0,2,79260,task1,1629597,false,true,1850,image-keyboard-response,34
true,13,0,2,2,false,d,true,false,0.0-2.0-0.57-0.521-3.521,0,0,0,81,false,stim,false,1,1198.0,0,0,2,79260,task1,1632325,false,false,1853,image-keyboard-response,35
true,13,1,2,2,false,d,false,false,0.0-2.0-0.58-0.522-3.522,0,0,0,90,false,stim,true,1,529.3000000119209,0,0,2,79260,task1,1634381,false,false,1856,image-keyboard-response,36
true,13,2,2,1,false,z,false,false,0.0-2.0-0.58-0.523-3.523,0,0,0,68,false,stim,true,2,975.9000000059605,0,0,1,79260,task1,1636890,false,false,1859,image-keyboard-response,37
true,13,2,2,2,true,d,false,true,0.0-2.0-0.58-0.524-3.524,0,0,0,68,false,stim,false,1,322.0,0,1,0,79260,task1,1638740,false,false,1862,image-keyboard-response,38
true,13,0,2,1,false,z,true,false,0.0-2.0-0.58-0.525-3.525,0,0,0,81,false,stim,false,2,1730.0999999940395,0,1,1,79260,task1,1641996,false,false,1865,image-keyboard-response,39
true,13,2,2,2,true,d,false,true,0.0-2.0-0.58-0.526-3.526,0,0,0,68,false,stim,false,1,723.3000000119209,0,1,0,79260,task1,1644246,false,false,1868,image-keyboard-response,40
true,13,2,2,1,false,z,false,false,0.0-2.0-0.58-0.527-3.527,0,0,0,68,false,stim,true,2,816.0,0,1,1,79260,task1,1646576,false,false,1871,image-keyboard-response,41
true,13,2,2,2,true,d,false,true,0.0-2.0-0.58-0.528-3.528,0,0,0,68,false,stim,false,1,1342.8999999761581,0,1,2,79260,task1,1649434,false,false,1874,image-keyboard-response,42
true,14,0,0,2,false,d,true,false,0.0-2.0-0.58-0.529-3.529,1,1,1,81,true,stim,false,2,799.0999999940395,0,1,2,79260,task1,1772916,false,false,1997,image-keyboard-response,1
true,14,0,0,2,false,d,true,false,0.0-2.0-0.58-0.530-3.530,1,1,1,81,false,stim,false,2,408.7999999821186,0,1,0,79260,task1,1774855,false,false,2000,image-keyboard-response,2
true,14,1,0,2,false,d,true,false,0.0-2.0-0.59-0.531-3.531,1,1,1,90,false,stim,false,2,998.8000000119209,0,1,2,79260,task1,1777407,false,false,2003,image-keyboard-response,3
true,14,0,0,1,false,z,true,false,0.0-2.0-0.59-0.532-3.532,1,1,1,81,false,stim,false,1,890.2000000178814,0,1,1,79260,task1,1779826,false,false,2006,image-keyboard-response,4
true,14,2,0,2,true,d,false,true,0.0-2.0-0.59-0.533-3.533,1,1,1,68,false,stim,false,2,815.3000000119209,0,1,0,79260,task1,1782160,false,false,2009,image-keyboard-response,5
true,14,2,0,2,true,d,false,true,0.0-2.0-0.59-0.534-3.534,1,1,1,68,false,stim,false,2,529.0,0,1,0,79260,task1,1784203,false,false,2012,image-keyboard-response,6
true,14,2,0,2,true,d,false,true,0.0-2.0-0.59-0.535-3.535,1,1,1,68,false,stim,false,2,349.80000001192093,0,1,2,79260,task1,1786076,false,false,2015,image-keyboard-response,7
true,14,2,0,2,true,d,false,true,0.0-2.0-0.59-0.536-3.536,1,1,1,68,false,stim,false,2,535.8999999761581,0,1,0,79260,task1,1788141,false,false,2018,image-keyboard-response,8
true,14,1,0,1,true,z,false,true,0.0-2.0-0.59-0.537-3.537,1,1,1,90,false,stim,false,1,340.30000001192093,0,0,1,79260,task1,1790000,false,false,2021,image-keyboard-response,9
true,14,1,0,1,true,z,false,true,0.0-2.0-0.59-0.538-3.538,1,1,1,90,false,stim,false,1,398.69999998807907,0,0,1,79260,task1,1791916,false,false,2024,image-keyboard-response,10
true,14,2,0,2,true,d,false,true,0.0-2.0-0.59-0.539-3.539,1,1,1,68,false,stim,false,2,324.0,0,0,2,79260,task1,1793763,false,false,2027,image-keyboard-response,11
true,14,2,0,2,true,d,false,false,0.0-2.0-0.60-0.540-3.540,1,1,1,68,false,stim,false,2,432.2000000178814,0,0,2,79260,task1,1795714,false,true,2030,image-keyboard-response,12
true,14,1,0,1,true,z,false,false,0.0-2.0-0.60-0.541-3.541,1,1,1,90,false,stim,false,1,644.5999999940395,0,0,1,79260,task1,1797896,false,true,2033,image-keyboard-response,13
true,15,2,1,0,false,q,false,false,0.0-2.0-0.60-0.542-3.542,0,0,0,68,true,stim,true,2,628.5999999940395,0,0,0,79260,task1,1800042,false,false,2036,image-keyboard-response,1
true,15,2,1,0,false,q,false,false,0.0-2.0-0.60-0.543-3.543,0,0,0,68,false,stim,true,2,899.1999999880791,0,0,0,79260,task1,1802467,false,false,2039,image-keyboard-response,2
true,15,2,1,1,false,z,false,false,0.0-2.0-0.60-0.544-3.544,0,0,0,68,false,stim,true,2,740.2000000178814,0,0,2,79260,task1,1804746,false,false,2042,image-keyboard-response,3
true,15,1,1,0,false,q,false,false,0.0-2.0-0.60-0.545-3.545,0,0,0,90,false,stim,true,1,352.90000000596046,0,0,1,79260,task1,1806626,false,false,2045,image-keyboard-response,4
true,15,0,1,1,false,z,true,false,0.0-2.0-0.60-0.546-3.546,0,0,0,81,false,stim,false,2,608.4000000059605,0,0,2,79260,task1,1808751,false,false,2048,image-keyboard-response,5
true,15,0,1,0,true,q,false,true,0.0-2.0-0.60-0.547-3.547,0,0,0,81,false,stim,false,1,730.4000000059605,0,0,1,79260,task1,1811001,false,false,2051,image-keyboard-response,6
true,15,0,1,0,true,q,false,true,0.0-2.0-0.60-0.548-3.548,0,0,0,81,false,stim,false,2,1037.5,0,0,0,79260,task1,1813566,false,false,2054,image-keyboard-response,7
true,15,0,1,0,true,q,false,true,0.0-2.0-0.61-0.549-3.549,0,0,0,81,false,stim,false,2,648.0,0,0,0,79260,task1,1815736,false,false,2057,image-keyboard-response,8
true,15,1,1,1,true,z,false,true,0.0-2.0-0.61-0.550-3.550,0,0,0,90,false,stim,false,2,604.0,0,0,2,79260,task1,1817870,false,false,2060,image-keyboard-response,9
true,15,0,1,0,true,q,false,true,0.0-2.0-0.61-0.551-3.551,0,0,0,81,false,stim,false,1,380.2999999821186,0,0,1,79260,task1,1819786,false,false,2063,image-keyboard-response,10
true,15,0,1,0,true,q,false,true,0.0-2.0-0.61-0.552-3.552,0,0,0,81,false,stim,false,2,498.40000000596046,0,0,0,79260,task1,1821820,false,false,2066,image-keyboard-response,11
true,15,0,1,0,true,q,false,true,0.0-2.0-0.61-0.553-3.553,0,0,0,81,false,stim,false,1,948.7999999821186,0,0,1,79260,task1,1824281,false,false,2069,image-keyboard-response,12
true,15,0,1,0,true,q,false,true,0.0-2.0-0.61-0.554-3.554,0,0,0,81,false,stim,false,2,434.89999997615814,0,0,0,79260,task1,1826257,false,false,2072,image-keyboard-response,13
true,15,0,1,0,true,q,false,true,0.0-2.0-0.61-0.555-3.555,0,0,0,81,false,stim,false,1,667.0,0,0,1,79260,task1,1828461,false,false,2075,image-keyboard-response,14
true,15,1,1,1,true,z,false,true,0.0-2.0-0.61-0.556-3.556,0,0,0,90,false,stim,false,2,583.6999999880791,0,0,2,79260,task1,1830566,false,false,2078,image-keyboard-response,15
true,15,1,1,1,true,z,false,true,0.0-2.0-0.61-0.557-3.557,0,0,0,90,false,stim,false,2,754.0999999940395,0,0,2,79260,task1,1832851,false,false,2081,image-keyboard-response,16
true,15,0,1,0,true,q,false,true,0.0-2.0-0.62-0.558-3.558,0,0,0,81,false,stim,false,1,355.5,0,0,1,79260,task1,1834730,false,false,2084,image-keyboard-response,17
true,15,0,1,0,true,q,false,true,0.0-2.0-0.62-0.559-3.559,0,0,0,81,false,stim,false,1,401.80000001192093,0,0,1,79260,task1,1836668,false,false,2087,image-keyboard-response,18
true,15,0,1,0,true,q,false,true,0.0-2.0-0.62-0.560-3.560,0,0,0,81,false,stim,false,2,610.3999999761581,0,0,0,79260,task1,1838804,false,false,2090,image-keyboard-response,19
true,15,0,1,0,true,q,false,true,0.0-2.0-0.62-0.561-3.561,0,0,0,81,false,stim,false,2,466.7000000178814,0,0,0,79260,task1,1840803,false,false,2093,image-keyboard-response,20
true,15,0,1,0,true,q,false,true,0.0-2.0-0.62-0.562-3.562,0,0,0,81,false,stim,false,1,904.0999999940395,0,0,1,79260,task1,1843233,false,false,2096,image-keyboard-response,21
true,15,1,1,1,true,z,false,true,0.0-2.0-0.62-0.563-3.563,0,0,0,90,false,stim,false,2,380.90000000596046,0,0,2,79260,task1,1845149,false,false,2099,image-keyboard-response,22
true,15,0,1,0,true,q,false,true,0.0-2.0-0.62-0.564-3.564,0,0,0,81,false,stim,false,2,410.0,0,0,0,79260,task1,1847100,false,false,2102,image-keyboard-response,23
true,15,1,1,1,true,z,false,true,0.0-2.0-0.62-0.565-3.565,0,0,0,90,false,stim,false,2,761.1000000238419,0,0,2,79260,task1,1849374,false,false,2105,image-keyboard-response,24
true,15,1,1,1,true,z,false,true,0.0-2.0-0.62-0.566-3.566,0,0,0,90,false,stim,false,2,567.5999999940395,0,0,2,79260,task1,1851468,false,false,2108,image-keyboard-response,25
true,15,1,1,1,true,z,false,true,0.0-2.0-0.63-0.567-3.567,0,0,0,90,false,stim,false,2,420.59999999403954,0,0,2,79260,task1,1853410,false,false,2111,image-keyboard-response,26
true,15,0,1,0,true,q,false,true,0.0-2.0-0.63-0.568-3.568,0,0,0,81,false,stim,false,2,591.3999999761581,0,0,0,79260,task1,1855522,false,false,2114,image-keyboard-response,27
true,15,0,1,0,true,q,false,true,0.0-2.0-0.63-0.569-3.569,0,0,0,81,false,stim,false,1,416.30000001192093,0,0,1,79260,task1,1857463,false,false,2117,image-keyboard-response,28
true,15,0,1,0,true,q,false,true,0.0-2.0-0.63-0.570-3.570,0,0,0,81,false,stim,false,1,511.2000000178814,0,0,1,79260,task1,1859503,false,false,2120,image-keyboard-response,29
true,15,0,1,0,true,q,false,true,0.0-2.0-0.63-0.571-3.571,0,0,0,81,false,stim,false,1,364.09999999403954,0,0,1,79260,task1,1861393,false,false,2123,image-keyboard-response,30
true,15,1,1,1,true,z,false,true,0.0-2.0-0.63-0.572-3.572,0,0,0,90,false,stim,false,2,824.6999999880791,0,0,2,79260,task1,1863745,false,false,2126,image-keyboard-response,31
true,15,1,1,1,true,z,false,true,0.0-2.0-0.63-0.573-3.573,0,0,0,90,false,stim,false,2,540.7000000178814,0,0,2,79260,task1,1865817,false,false,2129,image-keyboard-response,32
true,15,0,1,0,true,q,false,true,0.0-2.0-0.63-0.574-3.574,0,0,0,81,false,stim,false,2,481.10000002384186,0,0,0,79260,task1,1867819,false,false,2132,image-keyboard-response,33
true,15,1,1,0,false,q,true,false,0.0-2.0-0.63-0.575-3.575,0,0,0,90,false,stim,false,2,350.2000000178814,0,0,0,79260,task1,1869686,false,false,2135,image-keyboard-response,34
true,15,0,1,0,true,q,false,true,0.0-2.0-0.64-0.576-3.576,0,0,0,81,false,stim,false,1,774.0999999940395,0,0,1,79260,task1,1872013,false,false,2138,image-keyboard-response,35
true,15,0,1,0,true,q,false,true,0.0-2.0-0.64-0.577-3.577,0,0,0,81,false,stim,false,1,548.8000000119209,0,0,1,79260,task1,1874088,false,false,2141,image-keyboard-response,36
true,15,0,1,0,true,q,false,true,0.0-2.0-0.64-0.578-3.578,0,0,0,81,false,stim,false,2,718.3000000119209,0,0,0,79260,task1,1876319,false,false,2144,image-keyboard-response,37
true,15,1,1,1,true,z,false,true,0.0-2.0-0.64-0.579-3.579,0,0,0,90,false,stim,false,2,504.0,0,0,2,79260,task1,1878364,false,false,2147,image-keyboard-response,38
true,15,1,1,1,true,z,false,true,0.0-2.0-0.64-0.580-3.580,0,0,0,90,false,stim,false,2,700.5,0,0,2,79260,task1,1880597,false,false,2150,image-keyboard-response,39
true,15,0,1,0,true,q,false,true,0.0-2.0-0.64-0.581-3.581,0,0,0,81,false,stim,false,1,714.9000000059605,0,0,1,79260,task1,1882839,false,false,2153,image-keyboard-response,40
true,15,1,1,1,true,z,false,true,0.0-2.0-0.64-0.582-3.582,0,0,0,90,false,stim,false,2,801.8000000119209,0,0,2,79260,task1,1885175,false,false,2156,image-keyboard-response,41
true,15,0,1,0,true,q,false,true,0.0-2.0-0.64-0.583-3.583,0,0,0,81,false,stim,false,2,508.0,0,0,0,79260,task1,1887224,false,false,2159,image-keyboard-response,42
true,15,0,1,0,true,q,false,true,0.0-2.0-0.64-0.584-3.584,0,0,0,81,false,stim,false,2,739.2999999821186,0,0,0,79260,task1,1889501,false,false,2162,image-keyboard-response,43
true,16,1,2,2,false,d,false,false,0.0-2.0-0.65-0.585-3.585,0,0,0,90,true,stim,true,1,870.7000000178814,0,0,2,79260,task1,1891903,false,false,2165,image-keyboard-response,1
true,16,0,2,1,false,z,false,false,0.0-2.0-0.65-0.586-3.586,0,0,0,81,false,stim,true,0,442.59999999403954,0,0,1,79260,task1,1893874,false,false,2168,image-keyboard-response,2
true,16,1,2,1,true,z,false,true,0.0-2.0-0.65-0.587-3.587,0,0,0,90,false,stim,false,0,2141.5,0,0,1,79260,task1,1897549,false,false,2171,image-keyboard-response,3
true,16,2,2,2,true,d,false,true,0.0-2.0-0.65-0.588-3.588,0,0,0,68,false,stim,false,1,814.3000000119209,0,0,2,79260,task1,1899900,false,false,2174,image-keyboard-response,4
true,16,0,2,2,false,d,false,false,0.0-2.0-0.65-0.589-3.589,0,0,0,81,false,stim,true,0,931.3000000119209,0,0,0,79260,task1,1902361,false,false,2177,image-keyboard-response,5
