answered,blockNum,choice,condition,corResp,correct,correct_response,explo,fb,internal_node_id,isStable_1,isStable_2,isStable_3,key_press,newBlock,part,persev,persevResp,rt,sessNum,stableAS,stimulus,subject,task,time_elapsed,training,trap,trial_index,trial_type,trialsInBlock
true,1,0,0,2,false,d,true,false,0.0-2.0-0.0-0.0-3.0,0,0,0,81,true,stim,false,-1,990.5,2,0,1,79260,task3,221903,false,false,100,image-keyboard-response,1
true,1,1,0,2,false,d,true,false,0.0-2.0-0.0-0.1-3.1,0,0,0,90,false,stim,false,-1,892.3000000119209,2,0,1,79260,task3,224305,false,false,103,image-keyboard-response,2
true,1,0,0,0,true,q,false,true,0.0-2.0-0.0-0.2-3.2,0,0,0,81,false,stim,false,-1,822.5,2,0,2,79260,task3,226657,false,false,106,image-keyboard-response,3
true,1,1,0,2,false,d,true,false,0.0-2.0-0.0-0.3-3.3,0,0,0,90,false,stim,false,-1,667.3999999761581,2,0,0,79260,task3,228845,false,false,109,image-keyboard-response,4
true,1,0,0,0,true,q,false,true,0.0-2.0-0.0-0.4-3.4,0,0,0,81,false,stim,false,-1,836.0,2,0,2,79260,task3,231203,false,false,112,image-keyboard-response,5
true,1,2,0,2,true,d,false,true,0.0-2.0-0.0-0.5-3.5,0,0,0,68,false,stim,false,-1,458.5,2,0,1,79260,task3,233180,false,false,115,image-keyboard-response,6
true,1,0,0,0,true,q,false,true,0.0-2.0-0.0-0.6-3.6,0,0,0,81,false,stim,false,-1,704.8000000119209,2,0,2,79260,task3,235411,false,false,118,image-keyboard-response,7
true,1,0,0,2,false,d,true,false,0.0-2.0-0.0-0.7-3.7,0,0,0,81,false,stim,false,-1,524.8999999761581,2,0,0,79260,task3,237458,false,false,121,image-keyboard-response,8
true,1,2,0,2,true,d,false,true,0.0-2.0-0.0-0.8-3.8,0,0,0,68,false,stim,false,-1,423.9000000357628,2,0,0,79260,task3,239415,false,false,124,image-keyboard-response,9
true,1,2,0,2,true,d,false,true,0.0-2.0-0.1-0.9-3.9,0,0,0,68,false,stim,false,-1,549.1999999880791,2,0,1,79260,task3,241482,false,false,127,image-keyboard-response,10
true,1,2,0,2,true,d,false,true,0.0-2.0-0.1-0.10-3.10,0,0,0,68,false,stim,false,-1,690.3999999761581,2,0,1,79260,task3,243694,false,false,130,image-keyboard-response,11
true,1,2,0,2,true,d,false,false,0.0-2.0-0.1-0.11-3.11,0,0,0,68,false,stim,false,-1,506.0,2,0,1,79260,task3,245735,false,true,133,image-keyboard-response,12
true,1,0,0,0,true,q,false,true,0.0-2.0-0.1-0.12-3.12,0,0,0,81,false,stim,false,-1,481.19999998807907,2,0,2,79260,task3,247740,false,false,136,image-keyboard-response,13
true,1,2,0,2,true,d,false,true,0.0-2.0-0.1-0.13-3.13,0,0,0,68,false,stim,false,-1,592.6000000238419,2,0,0,79260,task3,249849,false,false,139,image-keyboard-response,14
true,1,2,0,2,true,d,false,true,0.0-2.0-0.1-0.14-3.14,0,0,0,68,false,stim,false,-1,485.0,2,0,0,79260,task3,251858,false,false,142,image-keyboard-response,15
true,1,0,0,0,true,q,false,true,0.0-2.0-0.1-0.15-3.15,0,0,0,81,false,stim,false,-1,538.9000000357628,2,0,2,79260,task3,253910,false,false,145,image-keyboard-response,16
true,1,2,0,2,true,d,false,true,0.0-2.0-0.1-0.16-3.16,0,0,0,68,false,stim,false,-1,600.5999999642372,2,0,0,79260,task3,256038,false,false,148,image-keyboard-response,17
true,1,0,0,0,true,q,false,true,0.0-2.0-0.1-0.17-3.17,0,0,0,81,false,stim,false,-1,549.5999999642372,2,0,2,79260,task3,258109,false,false,151,image-keyboard-response,18
true,1,2,0,2,true,d,false,true,0.0-2.0-0.2-0.18-3.18,0,0,0,68,false,stim,false,-1,995.3000000119209,2,0,0,79260,task3,260624,false,false,154,image-keyboard-response,19
true,1,2,0,2,true,d,false,true,0.0-2.0-0.2-0.19-3.19,0,0,0,68,false,stim,false,-1,373.69999998807907,2,1,1,79260,task3,262525,false,false,157,image-keyboard-response,20
true,1,0,0,0,true,q,false,false,0.0-2.0-0.2-0.20-3.20,0,0,0,81,false,stim,false,-1,495.5,2,1,2,79260,task3,264541,false,true,160,image-keyboard-response,21
true,1,2,0,2,true,d,false,true,0.0-2.0-0.2-0.21-3.21,0,0,0,68,false,stim,false,-1,495.2999999523163,2,0,0,79260,task3,266562,false,false,163,image-keyboard-response,22
true,1,2,0,2,true,d,false,true,0.0-2.0-0.2-0.22-3.22,0,0,0,68,false,stim,false,-1,399.80000001192093,2,0,0,79260,task3,268486,false,false,166,image-keyboard-response,23
true,2,2,2,2,true,d,false,true,0.0-2.0-0.2-0.23-3.23,0,1,1,68,true,stim,false,2,513.3999999761581,2,1,1,79260,task3,270526,false,false,169,image-keyboard-response,1
true,2,2,2,2,true,d,false,true,0.0-2.0-0.2-0.24-3.24,0,1,1,68,false,stim,false,2,409.5999999642372,2,1,1,79260,task3,272459,false,false,172,image-keyboard-response,2
true,2,0,2,0,true,q,false,false,0.0-2.0-0.2-0.25-3.25,0,1,1,81,false,stim,false,0,725.5,2,1,2,79260,task3,274711,false,true,175,image-keyboard-response,3
true,2,0,2,0,true,q,false,true,0.0-2.0-0.2-0.26-3.26,0,1,1,81,false,stim,false,0,734.3000000119209,2,1,2,79260,task3,276965,false,false,178,image-keyboard-response,4
true,2,2,2,1,false,z,false,false,0.0-2.0-0.3-0.27-3.27,0,1,1,68,false,stim,true,2,606.6000000238419,2,0,0,79260,task3,279091,false,false,181,image-keyboard-response,5
true,2,2,2,2,true,d,false,true,0.0-2.0-0.3-0.28-3.28,0,1,1,68,false,stim,false,2,938.6999999880791,2,1,1,79260,task3,281565,false,false,184,image-keyboard-response,6
true,2,2,2,2,true,d,false,true,0.0-2.0-0.3-0.29-3.29,0,1,1,68,false,stim,false,2,608.5,2,0,1,79260,task3,283696,false,false,187,image-keyboard-response,7
true,2,0,2,0,true,q,false,true,0.0-2.0-0.3-0.30-3.30,0,1,1,81,false,stim,false,0,688.9000000357628,2,1,2,79260,task3,285914,false,false,190,image-keyboard-response,8
true,2,2,2,1,false,z,false,false,0.0-2.0-0.3-0.31-3.31,0,1,1,68,false,stim,true,2,384.0,2,1,0,79260,task3,287832,false,false,193,image-keyboard-response,9
true,2,0,2,0,true,q,false,true,0.0-2.0-0.3-0.32-3.32,0,1,1,81,false,stim,false,0,562.9000000357628,2,1,2,79260,task3,289915,false,false,196,image-keyboard-response,10
true,2,0,2,0,true,q,false,true,0.0-2.0-0.3-0.33-3.33,0,1,1,81,false,stim,false,0,667.3999999761581,2,1,2,79260,task3,292101,false,false,199,image-keyboard-response,11
true,3,2,2,1,false,z,true,false,0.0-2.0-0.3-0.34-3.34,1,0,1,68,true,stim,false,1,370.5999999642372,2,1,0,79260,task3,293987,false,false,202,image-keyboard-response,1
true,3,2,2,0,false,q,false,false,0.0-2.0-0.3-0.35-3.35,1,0,1,68,false,stim,true,2,352.89999997615814,2,0,1,79260,task3,295864,false,false,205,image-keyboard-response,2
true,3,1,2,1,true,z,false,true,0.0-2.0-0.4-0.36-3.36,1,0,1,90,false,stim,false,1,685.1999999880791,2,1,0,79260,task3,298071,false,false,208,image-keyboard-response,3
true,3,1,2,1,true,z,false,false,0.0-2.0-0.4-0.37-3.37,1,0,1,90,false,stim,false,1,579.0,2,1,0,79260,task3,300162,false,true,211,image-keyboard-response,4
true,3,1,2,0,false,q,true,false,0.0-2.0-0.4-0.38-3.38,1,0,1,90,false,stim,false,2,766.3999999761581,2,0,1,79260,task3,302455,false,false,214,image-keyboard-response,5
true,3,0,2,0,true,q,false,true,0.0-2.0-0.4-0.39-3.39,1,0,1,81,false,stim,false,2,756.1999999880791,2,0,1,79260,task3,304738,false,false,217,image-keyboard-response,6
true,3,0,2,0,true,q,false,true,0.0-2.0-0.4-0.40-3.40,1,0,1,81,false,stim,false,0,458.10000002384186,2,1,2,79260,task3,306721,false,false,220,image-keyboard-response,7
true,3,0,2,0,true,q,false,true,0.0-2.0-0.4-0.41-3.41,1,0,1,81,false,stim,false,2,613.3000000119209,2,1,1,79260,task3,308863,false,false,223,image-keyboard-response,8
true,3,1,2,1,true,z,false,true,0.0-2.0-0.4-0.42-3.42,1,0,1,90,false,stim,false,1,506.80000001192093,2,1,0,79260,task3,310896,false,false,226,image-keyboard-response,9
true,3,0,2,0,true,q,false,true,0.0-2.0-0.4-0.43-3.43,1,0,1,81,false,stim,false,0,419.5,2,0,2,79260,task3,312849,false,false,229,image-keyboard-response,10
true,3,0,2,0,true,q,false,false,0.0-2.0-0.4-0.44-3.44,1,0,1,81,false,stim,false,0,426.39999997615814,2,0,2,79260,task3,314796,false,true,232,image-keyboard-response,11
true,3,0,2,0,true,q,false,true,0.0-2.0-0.5-0.45-3.45,1,0,1,81,false,stim,false,0,541.5,2,0,2,79260,task3,316870,false,false,235,image-keyboard-response,12
true,4,1,2,1,true,z,false,true,0.0-2.0-0.5-0.46-3.46,1,1,0,90,true,stim,false,1,410.39999997615814,2,1,0,79260,task3,318810,false,false,238,image-keyboard-response,1
true,4,0,2,0,true,q,false,true,0.0-2.0-0.5-0.47-3.47,1,1,0,81,false,stim,false,0,783.9000000357628,2,1,1,79260,task3,321110,false,false,241,image-keyboard-response,2
true,4,0,2,2,false,d,false,false,0.0-2.0-0.5-0.48-3.48,1,1,0,81,false,stim,true,0,565.5,2,0,2,79260,task3,323199,false,false,244,image-keyboard-response,3
true,4,1,2,1,true,z,false,true,0.0-2.0-0.5-0.49-3.49,1,1,0,90,false,stim,false,1,577.3000000119209,2,1,0,79260,task3,325296,false,false,247,image-keyboard-response,4
true,4,0,2,2,false,d,false,false,0.0-2.0-0.5-0.50-3.50,1,1,0,81,false,stim,true,0,396.5,2,0,2,79260,task3,327219,false,false,250,image-keyboard-response,5
true,4,1,2,0,false,q,true,false,0.0-2.0-0.5-0.51-3.51,1,1,0,90,false,stim,false,0,730.5,2,1,1,79260,task3,329471,false,false,253,image-keyboard-response,6
true,4,1,2,1,true,z,false,true,0.0-2.0-0.5-0.52-3.52,1,1,0,90,false,stim,false,1,577.0,2,1,0,79260,task3,331562,false,false,256,image-keyboard-response,7
true,4,0,2,0,true,q,false,true,0.0-2.0-0.5-0.53-3.53,1,1,0,81,false,stim,false,0,505.10000002384186,2,0,1,79260,task3,333583,false,false,259,image-keyboard-response,8
true,4,1,2,1,true,z,false,false,0.0-2.0-0.6-0.54-3.54,1,1,0,90,false,stim,false,1,780.8000000119209,2,0,0,79260,task3,335886,false,true,262,image-keyboard-response,9
true,4,2,2,2,true,d,false,false,0.0-2.0-0.6-0.55-3.55,1,1,0,68,false,stim,false,0,654.5,2,1,2,79260,task3,338060,false,true,265,image-keyboard-response,10
true,4,1,2,0,false,q,true,false,0.0-2.0-0.6-0.56-3.56,1,1,0,90,false,stim,false,0,1056.8999999761581,2,0,1,79260,task3,340632,false,false,268,image-keyboard-response,11
true,4,0,2,0,true,q,false,true,0.0-2.0-0.6-0.57-3.57,1,1,0,81,false,stim,false,0,608.3000000119209,2,0,1,79260,task3,342751,false,false,271,image-keyboard-response,12
true,5,0,1,2,false,d,true,false,0.0-2.0-0.6-0.58-3.58,0,0,1,81,true,stim,false,2,738.5,2,1,2,79260,task3,345028,false,false,274,image-keyboard-response,1
true,5,0,1,1,false,z,false,false,0.0-2.0-0.6-0.59-3.59,0,0,1,81,false,stim,true,0,849.6999999880791,2,0,1,79260,task3,347398,false,false,277,image-keyboard-response,2
true,5,1,1,0,false,q,false,false,0.0-2.0-0.6-0.60-3.60,0,0,1,90,false,stim,true,1,950.3000000119209,2,0,0,79260,task3,349867,false,false,280,image-keyboard-response,3
true,5,2,1,0,false,q,true,false,0.0-2.0-0.6-0.61-3.61,0,0,1,68,false,stim,false,1,484.80000001192093,2,0,0,79260,task3,351860,false,false,283,image-keyboard-response,4
true,5,2,1,2,true,d,false,true,0.0-2.0-0.6-0.62-3.62,0,0,1,68,false,stim,false,2,504.80000001192093,2,1,2,79260,task3,353893,false,false,286,image-keyboard-response,5
true,5,0,1,1,false,z,false,false,0.0-2.0-0.7-0.63-3.63,0,0,1,81,false,stim,true,0,397.89999997615814,2,0,1,79260,task3,355811,false,false,289,image-keyboard-response,6
true,5,1,1,1,true,z,false,true,0.0-2.0-0.7-0.64-3.64,0,0,1,90,false,stim,false,0,759.6999999880791,2,0,1,79260,task3,358094,false,false,292,image-keyboard-response,7
true,5,0,1,0,true,q,false,true,0.0-2.0-0.7-0.65-3.65,0,0,1,81,false,stim,false,1,601.2000000476837,2,0,0,79260,task3,360214,false,false,295,image-keyboard-response,8
true,5,0,1,0,true,q,false,true,0.0-2.0-0.7-0.66-3.66,0,0,1,81,false,stim,false,1,476.2000000476837,2,0,0,79260,task3,362210,false,false,298,image-keyboard-response,9
true,5,2,1,2,true,d,false,true,0.0-2.0-0.7-0.67-3.67,0,0,1,68,false,stim,false,2,667.8000000119209,2,1,2,79260,task3,364411,false,false,301,image-keyboard-response,10
true,5,2,1,2,true,d,false,true,0.0-2.0-0.7-0.68-3.68,0,0,1,68,false,stim,false,2,495.80000001192093,2,1,2,79260,task3,366425,false,false,304,image-keyboard-response,11
true,5,0,1,0,true,q,false,false,0.0-2.0-0.7-0.69-3.69,0,0,1,81,false,stim,false,1,733.8000000119209,2,0,0,79260,task3,368680,false,true,307,image-keyboard-response,12
true,5,2,1,2,true,d,false,true,0.0-2.0-0.7-0.70-3.70,0,0,1,68,false,stim,false,2,638.1999999880791,2,1,2,79260,task3,370846,false,false,310,image-keyboard-response,13
true,5,1,1,1,true,z,false,true,0.0-2.0-0.7-0.71-3.71,0,0,1,90,false,stim,false,0,516.5999999642372,2,0,1,79260,task3,372882,false,false,313,image-keyboard-response,14
true,5,1,1,1,true,z,false,false,0.0-2.0-0.8-0.72-3.72,0,0,1,90,false,stim,false,0,475.80000001192093,2,0,1,79260,task3,374889,false,true,316,image-keyboard-response,15
true,5,0,1,0,true,q,false,true,0.0-2.0-0.8-0.73-3.73,0,0,1,81,false,stim,false,1,427.7999999523163,2,0,0,79260,task3,376851,false,false,319,image-keyboard-response,16
true,5,2,1,2,true,d,false,true,0.0-2.0-0.8-0.74-3.74,0,0,1,68,false,stim,false,2,504.5,2,1,2,79260,task3,378876,false,false,322,image-keyboard-response,17
true,5,0,1,0,true,q,false,true,0.0-2.0-0.8-0.75-3.75,0,0,1,81,false,stim,false,1,564.8000000119209,2,0,0,79260,task3,380958,false,false,325,image-keyboard-response,18
true,5,2,1,2,true,d,false,true,0.0-2.0-0.8-0.76-3.76,0,0,1,68,false,stim,false,2,732.5999999642372,2,1,2,79260,task3,383218,false,false,328,image-keyboard-response,19
true,5,1,1,1,true,z,false,true,0.0-2.0-0.8-0.77-3.77,0,0,1,90,false,stim,false,0,480.10000002384186,2,1,1,79260,task3,385218,false,false,331,image-keyboard-response,20
true,5,2,1,2,true,d,false,true,0.0-2.0-0.8-0.78-3.78,0,0,1,68,false,stim,false,2,692.9000000357628,2,1,2,79260,task3,387425,false,false,334,image-keyboard-response,21
true,5,0,1,0,true,q,false,true,0.0-2.0-0.8-0.79-3.79,0,0,1,81,false,stim,false,1,398.5,2,0,0,79260,task3,389351,false,false,337,image-keyboard-response,22
true,5,1,1,1,true,z,false,true,0.0-2.0-0.8-0.80-3.80,0,0,1,90,false,stim,false,0,520.0,2,1,1,79260,task3,391396,false,false,340,image-keyboard-response,23
true,5,0,1,0,true,q,false,true,0.0-2.0-0.9-0.81-3.81,0,0,1,81,false,stim,false,1,472.10000002384186,2,0,0,79260,task3,393394,false,false,343,image-keyboard-response,24
true,6,1,2,1,true,z,false,true,0.0-2.0-0.9-0.82-3.82,0,1,1,90,true,stim,false,1,470.69999998807907,2,1,1,79260,task3,395383,false,false,346,image-keyboard-response,1
true,6,2,2,2,true,d,false,true,0.0-2.0-0.9-0.83-3.83,0,1,1,68,false,stim,false,2,478.30000001192093,2,1,2,79260,task3,397391,false,false,349,image-keyboard-response,2
true,6,1,2,1,true,z,false,true,0.0-2.0-0.9-0.84-3.84,0,1,1,90,false,stim,false,1,1214.7000000476837,2,1,1,79260,task3,400126,false,false,352,image-keyboard-response,3
true,6,0,2,1,false,z,false,false,0.0-2.0-0.9-0.85-3.85,0,1,1,81,false,stim,true,0,550.1999999880791,2,0,0,79260,task3,402218,false,false,355,image-keyboard-response,4
true,6,1,2,1,true,z,false,true,0.0-2.0-0.9-0.86-3.86,0,1,1,90,false,stim,false,1,461.7000000476837,2,1,1,79260,task3,404198,false,false,358,image-keyboard-response,5
true,6,0,2,1,false,z,false,false,0.0-2.0-0.9-0.87-3.87,0,1,1,81,false,stim,true,0,544.9000000357628,2,0,0,79260,task3,406271,false,false,361,image-keyboard-response,6
true,6,2,2,2,true,d,false,false,0.0-2.0-0.9-0.88-3.88,0,1,1,68,false,stim,false,2,740.6999999880791,2,1,2,79260,task3,408527,false,true,364,image-keyboard-response,7
true,6,1,2,2,false,d,true,false,0.0-2.0-0.9-0.89-3.89,0,1,1,90,false,stim,false,2,737.8999999761581,2,1,2,79260,task3,410798,false,false,367,image-keyboard-response,8
true,6,1,2,1,true,z,false,true,0.0-2.0-0.10-0.90-3.90,0,1,1,90,false,stim,false,0,473.0,2,0,0,79260,task3,412786,false,false,370,image-keyboard-response,9
true,6,1,2,1,true,z,false,true,0.0-2.0-0.10-0.91-3.91,0,1,1,90,false,stim,false,1,588.6000000238419,2,1,1,79260,task3,414900,false,false,373,image-keyboard-response,10
true,6,0,2,2,false,d,true,false,0.0-2.0-0.10-0.92-3.92,0,1,1,81,false,stim,false,2,376.0,2,1,2,79260,task3,416808,false,false,376,image-keyboard-response,11
true,6,2,2,2,true,d,false,true,0.0-2.0-0.10-0.93-3.93,0,1,1,68,false,stim,false,2,686.3999999761581,2,1,2,79260,task3,419017,false,false,379,image-keyboard-response,12
true,6,2,2,2,true,d,false,true,0.0-2.0-0.10-0.94-3.94,0,1,1,68,false,stim,false,2,374.7999999523163,2,1,2,79260,task3,420909,false,false,382,image-keyboard-response,13
true,6,1,2,1,true,z,false,true,0.0-2.0-0.10-0.95-3.95,0,1,1,90,false,stim,false,0,418.69999998807907,2,0,0,79260,task3,422852,false,false,385,image-keyboard-response,14
true,6,1,2,1,true,z,false,false,0.0-2.0-0.10-0.96-3.96,0,1,1,90,false,stim,false,1,352.30000001192093,2,1,1,79260,task3,424720,false,true,388,image-keyboard-response,15
true,6,1,2,1,true,z,false,true,0.0-2.0-0.10-0.97-3.97,0,1,1,90,false,stim,false,0,477.30000001192093,2,0,0,79260,task3,426721,false,false,391,image-keyboard-response,16
true,6,1,2,1,true,z,false,true,0.0-2.0-0.10-0.98-3.98,0,1,1,90,false,stim,false,1,521.5999999642372,2,1,1,79260,task3,428764,false,false,394,image-keyboard-response,17
true,6,1,2,1,true,z,false,true,0.0-2.0-0.11-0.99-3.99,0,1,1,90,false,stim,false,1,468.4000000357628,2,1,1,79260,task3,430757,false,false,397,image-keyboard-response,18
true,6,1,2,1,true,z,false,true,0.0-2.0-0.11-0.100-3.100,0,1,1,90,false,stim,false,0,519.7999999523163,2,0,0,79260,task3,432807,false,false,400,image-keyboard-response,19
true,6,1,2,1,true,z,false,true,0.0-2.0-0.11-0.101-3.101,0,1,1,90,false,stim,false,0,329.60000002384186,2,0,0,79260,task3,434651,false,false,403,image-keyboard-response,20
true,6,2,2,2,true,d,false,true,0.0-2.0-0.11-0.102-3.102,0,1,1,68,false,stim,false,2,516.8999999761581,2,1,2,79260,task3,436686,false,false,406,image-keyboard-response,21
true,6,1,2,1,true,z,false,true,0.0-2.0-0.11-0.103-3.103,0,1,1,90,false,stim,false,0,850.6999999880791,2,0,0,79260,task3,439077,false,false,409,image-keyboard-response,22
true,6,1,2,1,true,z,false,true,0.0-2.0-0.11-0.104-3.104,0,1,1,90,false,stim,false,1,451.69999998807907,2,1,1,79260,task3,441062,false,false,412,image-keyboard-response,23
true,6,2,2,2,true,d,false,true,0.0-2.0-0.11-0.105-3.105,0,1,1,68,false,stim,false,2,706.3000000119209,2,0,2,79260,task3,443291,false,false,415,image-keyboard-response,24
true,6,1,2,1,true,z,false,true,0.0-2.0-0.11-0.106-3.106,0,1,1,90,false,stim,false,1,496.5,2,1,1,79260,task3,445310,false,false,418,image-keyboard-response,25
true,6,2,2,2,true,d,false,true,0.0-2.0-0.11-0.107-3.107,0,1,1,68,false,stim,false,2,738.0,2,0,2,79260,task3,447579,false,false,421,image-keyboard-response,26
true,6,1,2,1,true,z,false,true,0.0-2.0-0.12-0.108-3.108,0,1,1,90,false,stim,false,0,541.1999999880791,2,0,0,79260,task3,449633,false,false,424,image-keyboard-response,27
true,6,1,2,1,true,z,false,true,0.0-2.0-0.12-0.109-3.109,0,1,1,90,false,stim,false,1,532.2000000476837,2,1,1,79260,task3,451682,false,false,427,image-keyboard-response,28
true,7,2,1,1,false,z,false,true,0.0-2.0-0.12-0.110-3.110,0,1,0,68,true,stim,true,2,604.8000000119209,2,0,2,79260,task3,453817,false,true,430,image-keyboard-response,1
true,7,1,1,0,false,q,false,true,0.0-2.0-0.12-0.111-3.111,0,1,0,90,false,stim,true,1,531.3000000119209,2,0,0,79260,task3,455879,false,true,433,image-keyboard-response,2
true,7,2,1,1,false,z,false,false,0.0-2.0-0.12-0.112-3.112,0,1,0,68,false,stim,true,2,597.3999999761581,2,0,2,79260,task3,457994,false,false,436,image-keyboard-response,3
true,7,1,1,0,false,q,false,false,0.0-2.0-0.12-0.113-3.113,0,1,0,90,false,stim,true,1,410.30000001192093,2,0,0,79260,task3,459923,false,false,439,image-keyboard-response,4
true,7,1,1,1,true,z,false,false,0.0-2.0-0.12-0.114-3.114,0,1,0,90,false,stim,false,1,351.89999997615814,2,1,1,79260,task3,461799,false,true,442,image-keyboard-response,5
true,7,0,1,1,false,z,true,false,0.0-2.0-0.12-0.115-3.115,0,1,0,81,false,stim,false,2,449.80000001192093,2,0,2,79260,task3,463779,false,false,445,image-keyboard-response,6
true,7,0,1,1,false,z,true,true,0.0-2.0-0.12-0.116-3.116,0,1,0,81,false,stim,false,1,469.19999998807907,2,1,1,79260,task3,465767,false,true,448,image-keyboard-response,7
true,7,2,1,1,false,z,false,false,0.0-2.0-0.13-0.117-3.117,0,1,0,68,false,stim,true,2,622.6000000238419,2,0,2,79260,task3,467921,false,false,451,image-keyboard-response,8
true,7,0,1,1,false,z,true,false,0.0-2.0-0.13-0.118-3.118,0,1,0,81,false,stim,false,1,811.2000000476837,2,1,1,79260,task3,470252,false,false,454,image-keyboard-response,9
true,7,0,1,0,true,q,false,false,0.0-2.0-0.13-0.119-3.119,0,1,0,81,false,stim,false,1,518.2999999523163,2,0,0,79260,task3,472297,false,true,457,image-keyboard-response,10
true,7,0,1,1,false,z,true,false,0.0-2.0-0.13-0.120-3.120,0,1,0,81,false,stim,false,1,575.0,2,1,1,79260,task3,474389,false,false,460,image-keyboard-response,11
true,7,1,1,0,false,q,false,false,0.0-2.0-0.13-0.121-3.121,0,1,0,90,false,stim,true,1,458.0999999642372,2,0,0,79260,task3,476362,false,false,463,image-keyboard-response,12
true,7,1,1,1,true,z,false,true,0.0-2.0-0.13-0.122-3.122,0,1,0,90,false,stim,false,2,916.8999999761581,2,0,2,79260,task3,478795,false,false,466,image-keyboard-response,13
true,7,2,1,1,false,z,true,false,0.0-2.0-0.13-0.123-3.123,0,1,0,68,false,stim,false,1,383.10000002384186,2,1,1,79260,task3,480717,false,false,469,image-keyboard-response,14
true,7,1,1,0,false,q,false,false,0.0-2.0-0.13-0.124-3.124,0,1,0,90,false,stim,true,1,592.0,2,0,0,79260,task3,482830,false,false,472,image-keyboard-response,15
true,7,1,1,1,true,z,false,true,0.0-2.0-0.13-0.125-3.125,0,1,0,90,false,stim,false,2,669.8000000119209,2,0,2,79260,task3,485015,false,false,475,image-keyboard-response,16
true,7,2,1,0,false,q,true,false,0.0-2.0-0.14-0.126-3.126,0,1,0,68,false,stim,false,1,599.8000000119209,2,0,0,79260,task3,487135,false,false,478,image-keyboard-response,17
true,7,1,1,1,true,z,false,true,0.0-2.0-0.14-0.127-3.127,0,1,0,90,false,stim,false,2,739.6000000238419,2,0,2,79260,task3,489413,false,false,481,image-keyboard-response,18
true,7,1,1,1,true,z,false,true,0.0-2.0-0.14-0.128-3.128,0,1,0,90,false,stim,false,1,903.9000000357628,2,1,1,79260,task3,491838,false,false,484,image-keyboard-response,19
true,7,1,1,1,true,z,false,true,0.0-2.0-0.14-0.129-3.129,0,1,0,90,false,stim,false,2,549.8999999761581,2,0,2,79260,task3,493903,false,false,487,image-keyboard-response,20
true,7,0,1,0,true,q,false,false,0.0-2.0-0.14-0.130-3.130,0,1,0,81,false,stim,false,1,345.69999998807907,2,0,0,79260,task3,495779,false,true,490,image-keyboard-response,21
true,7,1,1,0,false,q,false,false,0.0-2.0-0.14-0.131-3.131,0,1,0,90,false,stim,true,1,456.89999997615814,2,0,0,79260,task3,497763,false,false,493,image-keyboard-response,22
true,7,1,1,1,true,z,false,true,0.0-2.0-0.14-0.132-3.132,0,1,0,90,false,stim,false,2,668.6999999880791,2,0,2,79260,task3,499952,false,false,496,image-keyboard-response,23
true,7,1,1,1,true,z,false,true,0.0-2.0-0.14-0.133-3.133,0,1,0,90,false,stim,false,1,395.5999999642372,2,1,1,79260,task3,501868,false,false,499,image-keyboard-response,24
true,7,1,1,1,true,z,false,true,0.0-2.0-0.14-0.134-3.134,0,1,0,90,false,stim,false,1,452.69999998807907,2,1,1,79260,task3,503859,false,false,502,image-keyboard-response,25
true,8,1,1,0,false,q,false,false,0.0-2.0-0.15-0.135-3.135,0,1,0,90,true,stim,true,1,659.8000000119209,2,0,2,79260,task3,506044,false,false,505,image-keyboard-response,1
true,8,2,1,2,true,d,false,true,0.0-2.0-0.15-0.136-3.136,0,1,0,68,false,stim,false,0,404.60000002384186,2,0,0,79260,task3,507960,false,false,508,image-keyboard-response,2
true,8,1,1,0,false,q,false,false,0.0-2.0-0.15-0.137-3.137,0,1,0,90,false,stim,true,1,429.60000002384186,2,0,2,79260,task3,509911,false,false,511,image-keyboard-response,3
true,8,1,1,1,true,z,false,true,0.0-2.0-0.15-0.138-3.138,0,1,0,90,false,stim,false,1,372.0999999642372,2,1,1,79260,task3,511810,false,false,514,image-keyboard-response,4
true,8,1,1,1,true,z,false,true,0.0-2.0-0.15-0.139-3.139,0,1,0,90,false,stim,false,1,545.1000000238419,2,1,1,79260,task3,513884,false,false,517,image-keyboard-response,5
true,8,2,1,2,true,d,false,true,0.0-2.0-0.15-0.140-3.140,0,1,0,68,false,stim,false,0,441.39999997615814,2,0,0,79260,task3,515843,false,false,520,image-keyboard-response,6
true,8,2,1,2,true,d,false,true,0.0-2.0-0.15-0.141-3.141,0,1,0,68,false,stim,false,0,619.3999999761581,2,0,0,79260,task3,517981,false,false,523,image-keyboard-response,7
true,8,1,1,1,true,z,false,true,0.0-2.0-0.15-0.142-3.142,0,1,0,90,false,stim,false,1,643.8999999761581,2,1,1,79260,task3,520144,false,false,526,image-keyboard-response,8
true,8,1,1,0,false,q,false,false,0.0-2.0-0.15-0.143-3.143,0,1,0,90,false,stim,true,1,330.0,2,0,2,79260,task3,522004,false,false,529,image-keyboard-response,9
true,8,0,1,0,true,q,false,true,0.0-2.0-0.16-0.144-3.144,0,1,0,81,false,stim,false,1,434.0999999642372,2,0,2,79260,task3,523957,false,false,532,image-keyboard-response,10
true,8,1,1,1,true,z,false,true,0.0-2.0-0.16-0.145-3.145,0,1,0,90,false,stim,false,1,556.5,2,1,1,79260,task3,526048,false,false,535,image-keyboard-response,11
true,8,1,1,1,true,z,false,true,0.0-2.0-0.16-0.146-3.146,0,1,0,90,false,stim,false,1,521.6000000238419,2,1,1,79260,task3,528093,false,false,538,image-keyboard-response,12
true,8,0,1,0,true,q,false,true,0.0-2.0-0.16-0.147-3.147,0,1,0,81,false,stim,false,1,506.30000001192093,2,0,2,79260,task3,530139,false,false,541,image-keyboard-response,13
true,8,2,1,2,true,d,false,true,0.0-2.0-0.16-0.148-3.148,0,1,0,68,false,stim,false,0,396.80000001192093,2,0,0,79260,task3,532059,false,false,544,image-keyboard-response,14
true,8,1,1,1,true,z,false,true,0.0-2.0-0.16-0.149-3.149,0,1,0,90,false,stim,false,1,660.6999999880791,2,1,1,79260,task3,534235,false,false,547,image-keyboard-response,15
true,8,2,1,2,true,d,false,true,0.0-2.0-0.16-0.150-3.150,0,1,0,68,false,stim,false,0,593.0999999642372,2,0,0,79260,task3,536365,false,false,550,image-keyboard-response,16
true,8,0,1,0,true,q,false,true,0.0-2.0-0.16-0.151-3.151,0,1,0,81,false,stim,false,1,504.30000001192093,2,0,2,79260,task3,538391,false,false,553,image-keyboard-response,17
true,8,2,1,2,true,d,false,false,0.0-2.0-0.16-0.152-3.152,0,1,0,68,false,stim,false,0,694.9000000357628,2,0,0,79260,task3,540607,false,true,556,image-keyboard-response,18
true,8,1,1,1,true,z,false,true,0.0-2.0-0.17-0.153-3.153,0,1,0,90,false,stim,false,1,488.89999997615814,2,1,1,79260,task3,542608,false,false,559,image-keyboard-response,19
true,8,2,1,2,true,d,false,true,0.0-2.0-0.17-0.154-3.154,0,1,0,68,false,stim,false,0,566.5999999642372,2,0,0,79260,task3,544706,false,false,562,image-keyboard-response,20
true,8,1,1,1,true,z,false,true,0.0-2.0-0.17-0.155-3.155,0,1,0,90,false,stim,false,1,636.6999999880791,2,1,1,79260,task3,546863,false,false,565,image-keyboard-response,21
true,8,2,1,2,true,d,false,true,0.0-2.0-0.17-0.156-3.156,0,1,0,68,false,stim,false,0,481.80000001192093,2,0,0,79260,task3,548874,false,false,568,image-keyboard-response,22
true,8,0,1,0,true,q,false,false,0.0-2.0-0.17-0.157-3.157,0,1,0,81,false,stim,false,1,433.89999997615814,2,1,2,79260,task3,550827,false,true,571,image-keyboard-response,23
true,9,0,2,0,true,q,false,true,0.0-2.0-0.17-0.158-3.158,0,1,1,81,true,stim,false,0,647.5,2,1,2,79260,task3,552999,false,false,574,image-keyboard-response,1
true,9,0,2,0,true,q,false,false,0.0-2.0-0.17-0.159-3.159,0,1,1,81,false,stim,false,0,501.39999997615814,2,1,2,79260,task3,555026,false,true,577,image-keyboard-response,2
true,9,2,2,0,false,q,false,false,0.0-2.0-0.17-0.160-3.160,0,1,1,68,false,stim,true,2,734.4000000357628,2,0,0,79260,task3,557278,false,false,580,image-keyboard-response,3
true,9,0,2,1,false,z,true,false,0.0-2.0-0.17-0.161-3.161,0,1,1,81,false,stim,false,1,601.8999999761581,2,1,1,79260,task3,559391,false,false,583,image-keyboard-response,4
true,9,0,2,0,true,q,false,false,0.0-2.0-0.18-0.162-3.162,0,1,1,81,false,stim,false,0,490.4000000357628,2,1,2,79260,task3,561408,false,true,586,image-keyboard-response,5
true,9,2,2,0,false,q,true,false,0.0-2.0-0.18-0.163-3.163,0,1,1,68,false,stim,false,0,569.6000000238419,2,1,2,79260,task3,563494,false,false,589,image-keyboard-response,6
true,9,1,2,0,false,q,true,false,0.0-2.0-0.18-0.164-3.164,0,1,1,90,false,stim,false,2,1087.9000000357628,2,0,0,79260,task3,566117,false,false,592,image-keyboard-response,7
true,9,2,2,1,false,z,true,false,0.0-2.0-0.18-0.165-3.165,0,1,1,68,false,stim,false,1,1326.800000011921,2,1,1,79260,task3,568970,false,false,595,image-keyboard-response,8
true,9,0,2,0,true,q,false,true,0.0-2.0-0.18-0.166-3.166,0,1,1,81,false,stim,false,2,809.3000000119209,2,0,0,79260,task3,571292,false,false,598,image-keyboard-response,9
true,9,0,2,1,false,z,true,false,0.0-2.0-0.18-0.167-3.167,0,1,1,81,false,stim,false,1,974.1000000238419,2,1,1,79260,task3,573796,false,false,601,image-keyboard-response,10
true,9,2,2,0,false,q,true,false,0.0-2.0-0.18-0.168-3.168,0,1,1,68,false,stim,false,0,401.5,2,1,2,79260,task3,575724,false,false,604,image-keyboard-response,11
true,9,2,2,1,false,z,true,false,0.0-2.0-0.18-0.169-3.169,0,1,1,68,false,stim,false,1,595.8000000119209,2,1,1,79260,task3,577846,false,false,607,image-keyboard-response,12
true,9,0,2,0,true,q,false,true,0.0-2.0-0.18-0.170-3.170,0,1,1,81,false,stim,false,2,589.0,2,0,0,79260,task3,579957,false,false,610,image-keyboard-response,13
true,9,1,2,0,false,q,true,false,0.0-2.0-0.19-0.171-3.171,0,1,1,90,false,stim,false,0,416.89999997615814,2,1,2,79260,task3,581879,false,false,613,image-keyboard-response,14
true,9,0,2,0,true,q,false,true,0.0-2.0-0.19-0.172-3.172,0,1,1,81,false,stim,false,2,587.1000000238419,2,0,0,79260,task3,584000,false,false,616,image-keyboard-response,15
true,9,1,2,1,true,z,false,true,0.0-2.0-0.19-0.173-3.173,0,1,1,90,false,stim,false,1,952.6999999880791,2,1,1,79260,task3,586476,false,false,619,image-keyboard-response,16
true,9,1,2,1,true,z,false,true,0.0-2.0-0.19-0.174-3.174,0,1,1,90,false,stim,false,1,601.1000000238419,2,1,1,79260,task3,588598,false,false,622,image-keyboard-response,17
true,9,0,2,0,true,q,false,true,0.0-2.0-0.19-0.175-3.175,0,1,1,81,false,stim,false,2,471.5,2,0,0,79260,task3,590603,false,false,625,image-keyboard-response,18
true,9,0,2,0,true,q,false,true,0.0-2.0-0.19-0.176-3.176,0,1,1,81,false,stim,false,0,350.60000002384186,2,1,2,79260,task3,592482,false,false,628,image-keyboard-response,19
true,9,0,2,0,true,q,false,true,0.0-2.0-0.19-0.177-3.177,0,1,1,81,false,stim,false,2,558.8000000119209,2,0,0,79260,task3,594555,false,false,631,image-keyboard-response,20
true,9,1,2,1,true,z,false,true,0.0-2.0-0.19-0.178-3.178,0,1,1,90,false,stim,false,1,433.10000002384186,2,1,1,79260,task3,596513,false,false,634,image-keyboard-response,21
true,9,0,2,0,true,q,false,true,0.0-2.0-0.19-0.179-3.179,0,1,1,81,false,stim,false,0,577.5999999642372,2,1,2,79260,task3,598613,false,false,637,image-keyboard-response,22
true,9,0,2,0,true,q,false,true,0.0-2.0-0.20-0.180-3.180,0,1,1,81,false,stim,false,0,421.0,2,1,2,79260,task3,600557,false,false,640,image-keyboard-response,23
true,9,1,2,0,false,q,true,false,0.0-2.0-0.20-0.181-3.181,0,1,1,90,false,stim,false,2,988.3000000119209,2,0,0,79260,task3,603060,false,false,643,image-keyboard-response,24
true,9,1,2,1,true,z,false,true,0.0-2.0-0.20-0.182-3.182,0,1,1,90,false,stim,false,1,328.60000002384186,2,1,1,79260,task3,604911,false,false,646,image-keyboard-response,25
true,9,1,2,1,true,z,false,true,0.0-2.0-0.20-0.183-3.183,0,1,1,90,false,stim,false,1,647.1999999880791,2,1,1,79260,task3,607081,false,false,649,image-keyboard-response,26
true,9,0,2,0,true,q,false,true,0.0-2.0-0.20-0.184-3.184,0,1,1,81,false,stim,false,2,368.0,2,0,0,79260,task3,608975,false,false,652,image-keyboard-response,27
true,9,0,2,0,true,q,false,true,0.0-2.0-0.20-0.185-3.185,0,1,1,81,false,stim,false,0,531.1999999880791,2,0,2,79260,task3,611017,false,false,655,image-keyboard-response,28
true,9,0,2,0,true,q,false,true,0.0-2.0-0.20-0.186-3.186,0,1,1,81,false,stim,false,2,508.69999998807907,2,0,0,79260,task3,613049,false,false,658,image-keyboard-response,29
true,10,0,1,1,false,z,false,false,0.0-2.0-0.20-0.187-3.187,0,1,0,81,true,stim,true,0,453.30000001192093,2,0,2,79260,task3,615026,false,false,661,image-keyboard-response,1
true,10,1,1,1,true,z,false,true,0.0-2.0-0.20-0.188-3.188,0,1,0,90,false,stim,false,1,368.80000001192093,2,1,1,79260,task3,616916,false,false,664,image-keyboard-response,2
true,10,0,1,1,false,z,false,false,0.0-2.0-0.21-0.189-3.189,0,1,0,81,false,stim,true,0,452.0,2,0,2,79260,task3,618886,false,false,667,image-keyboard-response,3
true,10,2,1,1,false,z,true,false,0.0-2.0-0.21-0.190-3.190,0,1,0,68,false,stim,false,0,799.8999999761581,2,0,2,79260,task3,621206,false,false,670,image-keyboard-response,4
true,10,1,1,1,true,z,false,true,0.0-2.0-0.21-0.191-3.191,0,1,0,90,false,stim,false,1,550.3000000119209,2,1,1,79260,task3,623288,false,false,673,image-keyboard-response,5
true,10,0,1,2,false,d,false,false,0.0-2.0-0.21-0.192-3.192,0,1,0,81,false,stim,true,0,539.1999999880791,2,0,0,79260,task3,625359,false,false,676,image-keyboard-response,6
true,10,1,1,1,true,z,false,true,0.0-2.0-0.21-0.193-3.193,0,1,0,90,false,stim,false,1,666.3000000119209,2,1,1,79260,task3,627537,false,false,679,image-keyboard-response,7
true,10,1,1,1,true,z,false,true,0.0-2.0-0.21-0.194-3.194,0,1,0,90,false,stim,false,1,494.0999999642372,2,1,1,79260,task3,629559,false,false,682,image-keyboard-response,8
true,10,1,1,1,true,z,false,true,0.0-2.0-0.21-0.195-3.195,0,1,0,90,false,stim,false,0,379.5999999642372,2,0,2,79260,task3,631467,false,false,685,image-keyboard-response,9
true,10,2,1,2,true,d,false,true,0.0-2.0-0.21-0.196-3.196,0,1,0,68,false,stim,false,0,364.19999998807907,2,1,0,79260,task3,633355,false,false,688,image-keyboard-response,10
true,10,2,1,2,true,d,false,true,0.0-2.0-0.21-0.197-3.197,0,1,0,68,false,stim,false,0,405.19999998807907,2,1,0,79260,task3,635277,false,false,691,image-keyboard-response,11
true,10,2,1,2,true,d,false,true,0.0-2.0-0.22-0.198-3.198,0,1,0,68,false,stim,false,0,423.9000000357628,2,1,0,79260,task3,637233,false,false,694,image-keyboard-response,12
true,10,1,1,1,true,z,false,false,0.0-2.0-0.22-0.199-3.199,0,1,0,90,false,stim,false,1,607.1000000238419,2,0,1,79260,task3,639360,false,true,697,image-keyboard-response,13
true,10,1,1,1,true,z,false,true,0.0-2.0-0.22-0.200-3.200,0,1,0,90,false,stim,false,1,462.80000001192093,2,0,1,79260,task3,641354,false,false,700,image-keyboard-response,14
true,11,1,2,1,true,z,false,true,0.0-2.0-0.22-0.201-3.201,1,0,1,90,true,stim,false,1,376.89999997615814,2,1,2,79260,task3,643273,false,false,703,image-keyboard-response,1
true,11,1,2,1,true,z,false,true,0.0-2.0-0.22-0.202-3.202,1,0,1,90,false,stim,false,1,482.60000002384186,2,1,2,79260,task3,645283,false,false,706,image-keyboard-response,2
true,11,2,2,2,true,d,false,true,0.0-2.0-0.22-0.203-3.203,1,0,1,68,false,stim,false,2,504.7000000476837,2,1,0,79260,task3,647308,false,false,709,image-keyboard-response,3
true,11,2,2,2,true,d,false,true,0.0-2.0-0.22-0.204-3.204,1,0,1,68,false,stim,false,2,427.60000002384186,2,1,0,79260,task3,649263,false,false,712,image-keyboard-response,4
true,11,1,2,1,true,z,false,false,0.0-2.0-0.22-0.205-3.205,1,0,1,90,false,stim,false,1,691.2000000476837,2,1,2,79260,task3,651474,false,true,715,image-keyboard-response,5
true,11,1,2,0,false,q,false,false,0.0-2.0-0.22-0.206-3.206,1,0,1,90,false,stim,true,1,386.69999998807907,2,0,1,79260,task3,653391,false,false,718,image-keyboard-response,6
true,11,0,2,0,true,q,false,true,0.0-2.0-0.23-0.207-3.207,1,0,1,81,false,stim,false,1,919.0,2,0,1,79260,task3,655820,false,false,721,image-keyboard-response,7
true,11,2,2,2,true,d,false,false,0.0-2.0-0.23-0.208-3.208,1,0,1,68,false,stim,false,2,580.0,2,1,0,79260,task3,657933,false,true,724,image-keyboard-response,8
true,11,2,2,1,false,z,true,true,0.0-2.0-0.23-0.209-3.209,1,0,1,68,false,stim,false,1,415.5,2,1,2,79260,task3,659874,false,true,727,image-keyboard-response,9
true,11,1,2,2,false,d,true,false,0.0-2.0-0.23-0.210-3.210,1,0,1,90,false,stim,false,2,347.19999998807907,2,1,0,79260,task3,661746,false,false,730,image-keyboard-response,10
true,11,0,2,0,true,q,false,true,0.0-2.0-0.23-0.211-3.211,1,0,1,81,false,stim,false,1,620.8999999761581,2,0,1,79260,task3,663893,false,false,733,image-keyboard-response,11
true,11,2,2,1,false,z,true,false,0.0-2.0-0.23-0.212-3.212,1,0,1,68,false,stim,false,1,593.0,2,1,2,79260,task3,666023,false,false,736,image-keyboard-response,12
true,11,2,2,1,false,z,true,false,0.0-2.0-0.23-0.213-3.213,1,0,1,68,false,stim,false,1,647.4000000357628,2,1,2,79260,task3,668195,false,false,739,image-keyboard-response,13
true,11,0,2,0,true,q,false,true,0.0-2.0-0.23-0.214-3.214,1,0,1,81,false,stim,false,1,640.4000000357628,2,0,1,79260,task3,670370,false,false,742,image-keyboard-response,14
true,11,0,2,2,false,d,true,false,0.0-2.0-0.23-0.215-3.215,1,0,1,81,false,stim,false,2,348.5,2,1,0,79260,task3,672246,false,false,745,image-keyboard-response,15
true,11,2,2,2,true,d,false,true,0.0-2.0-0.24-0.216-3.216,1,0,1,68,false,stim,false,2,1196.699999988079,2,1,0,79260,task3,674974,false,false,748,image-keyboard-response,16
true,11,1,2,1,true,z,false,true,0.0-2.0-0.24-0.217-3.217,1,0,1,90,false,stim,false,1,445.69999998807907,2,1,2,79260,task3,676942,false,false,751,image-keyboard-response,17
true,11,0,2,0,true,q,false,true,0.0-2.0-0.24-0.218-3.218,1,0,1,81,false,stim,false,1,495.4000000357628,2,0,1,79260,task3,678968,false,false,754,image-keyboard-response,18
true,11,1,2,1,true,z,false,true,0.0-2.0-0.24-0.219-3.219,1,0,1,90,false,stim,false,1,955.7000000476837,2,1,2,79260,task3,681450,false,false,757,image-keyboard-response,19
true,11,0,2,0,true,q,false,true,0.0-2.0-0.24-0.220-3.220,1,0,1,81,false,stim,false,1,480.30000001192093,2,0,1,79260,task3,683468,false,false,760,image-keyboard-response,20
true,11,0,2,0,true,q,false,true,0.0-2.0-0.24-0.221-3.221,1,0,1,81,false,stim,false,1,483.4000000357628,2,0,1,79260,task3,685472,false,false,763,image-keyboard-response,21
true,11,2,2,2,true,d,false,true,0.0-2.0-0.24-0.222-3.222,1,0,1,68,false,stim,false,2,718.8000000119209,2,1,0,79260,task3,687716,false,false,766,image-keyboard-response,22
true,11,2,2,2,true,d,false,true,0.0-2.0-0.24-0.223-3.223,1,0,1,68,false,stim,false,2,575.0,2,1,0,79260,task3,689808,false,false,769,image-keyboard-response,23
true,11,1,2,1,true,z,false,true,0.0-2.0-0.24-0.224-3.224,1,0,1,90,false,stim,false,1,1035.699999988079,2,1,2,79260,task3,692363,false,false,772,image-keyboard-response,24
true,11,1,2,1,true,z,false,true,0.0-2.0-0.25-0.225-3.225,1,0,1,90,false,stim,false,1,840.5,2,1,2,79260,task3,694738,false,false,775,image-keyboard-response,25
true,11,0,2,2,false,d,true,false,0.0-2.0-0.25-0.226-3.226,1,0,1,81,false,stim,false,2,523.8999999761581,2,1,0,79260,task3,696780,false,false,778,image-keyboard-response,26
true,11,0,2,0,true,q,false,true,0.0-2.0-0.25-0.227-3.227,1,0,1,81,false,stim,false,1,539.6999999880791,2,0,1,79260,task3,698849,false,false,781,image-keyboard-response,27
true,11,1,2,1,true,z,false,true,0.0-2.0-0.25-0.228-3.228,1,0,1,90,false,stim,false,1,821.1999999880791,2,1,2,79260,task3,701192,false,false,784,image-keyboard-response,28
true,12,1,2,1,true,z,false,true,0.0-2.0-0.25-0.229-3.229,1,0,1,90,true,stim,false,1,772.1999999880791,2,1,2,79260,task3,703482,false,false,787,image-keyboard-response,1
true,12,0,2,2,false,d,false,true,0.0-2.0-0.25-0.230-3.230,1,0,1,81,false,stim,true,0,583.0,2,0,1,79260,task3,705591,false,true,790,image-keyboard-response,2
true,12,2,2,2,true,d,false,false,0.0-2.0-0.25-0.231-3.231,1,0,1,68,false,stim,false,2,496.9000000357628,2,1,0,79260,task3,707606,false,true,793,image-keyboard-response,3
true,12,2,2,2,true,d,false,true,0.0-2.0-0.25-0.232-3.232,1,0,1,68,false,stim,false,2,479.80000001192093,2,1,0,79260,task3,709613,false,false,796,image-keyboard-response,4
true,12,0,2,2,false,d,false,false,0.0-2.0-0.25-0.233-3.233,1,0,1,81,false,stim,true,0,534.5,2,0,1,79260,task3,711681,false,false,799,image-keyboard-response,5
true,12,2,2,2,true,d,false,true,0.0-2.0-0.26-0.234-3.234,1,0,1,68,false,stim,false,2,599.6000000238419,2,1,0,79260,task3,713822,false,false,802,image-keyboard-response,6
true,12,0,2,2,false,d,false,false,0.0-2.0-0.26-0.235-3.235,1,0,1,81,false,stim,true,0,431.7000000476837,2,1,1,79260,task3,715776,false,false,805,image-keyboard-response,7
true,12,2,2,2,true,d,false,true,0.0-2.0-0.26-0.236-3.236,1,0,1,68,false,stim,false,2,714.0,2,0,0,79260,task3,718007,false,false,808,image-keyboard-response,8
true,12,1,2,2,false,d,true,true,0.0-2.0-0.26-0.237-3.237,1,0,1,90,false,stim,false,0,806.6000000238419,2,1,1,79260,task3,720326,false,true,811,image-keyboard-response,9
true,12,1,2,1,true,z,false,true,0.0-2.0-0.26-0.238-3.238,1,0,1,90,false,stim,false,1,409.5,2,0,2,79260,task3,722265,false,false,814,image-keyboard-response,10
true,12,1,2,2,false,d,true,false,0.0-2.0-0.26-0.239-3.239,1,0,1,90,false,stim,false,0,557.5999999642372,2,1,1,79260,task3,724360,false,false,817,image-keyboard-response,11
true,13,1,1,2,false,d,false,false,0.0-2.0-0.26-0.240-3.240,0,1,0,90,true,stim,true,1,711.0,2,0,2,79260,task3,726601,false,false,820,image-keyboard-response,1
true,13,0,1,2,false,d,true,false,0.0-2.0-0.26-0.241-3.241,0,1,0,81,false,stim,false,1,733.6999999880791,2,0,2,79260,task3,728869,false,false,823,image-keyboard-response,2
true,13,2,1,1,false,z,false,false,0.0-2.0-0.26-0.242-3.242,0,1,0,68,false,stim,true,2,600.2000000476837,2,0,0,79260,task3,731000,false,false,826,image-keyboard-response,3
true,13,1,1,2,false,d,true,false,0.0-2.0-0.27-0.243-3.243,0,1,0,90,false,stim,false,2,866.5,2,1,1,79260,task3,733391,false,false,829,image-keyboard-response,4
true,13,2,1,2,true,d,false,true,0.0-2.0-0.27-0.244-3.244,0,1,0,68,false,stim,false,1,1033.0,2,0,2,79260,task3,735947,false,false,832,image-keyboard-response,5
true,13,0,1,1,false,z,true,false,0.0-2.0-0.27-0.245-3.245,0,1,0,81,false,stim,false,2,841.6999999880791,2,0,0,79260,task3,738320,false,false,835,image-keyboard-response,6
true,13,2,1,2,true,d,false,true,0.0-2.0-0.27-0.246-3.246,0,1,0,68,false,stim,false,1,739.0,2,0,2,79260,task3,740584,false,false,838,image-keyboard-response,7
true,13,2,1,2,true,d,false,true,0.0-2.0-0.27-0.247-3.247,0,1,0,68,false,stim,false,2,401.10000002384186,2,1,1,79260,task3,742498,false,false,841,image-keyboard-response,8
true,13,2,1,2,true,d,false,true,0.0-2.0-0.27-0.248-3.248,0,1,0,68,false,stim,false,2,530.6000000238419,2,1,1,79260,task3,744544,false,false,844,image-keyboard-response,9
true,13,2,1,2,true,d,false,true,0.0-2.0-0.27-0.249-3.249,0,1,0,68,false,stim,false,1,481.4000000357628,2,0,2,79260,task3,746561,false,false,847,image-keyboard-response,10
true,13,1,1,1,true,z,false,true,0.0-2.0-0.27-0.250-3.250,0,1,0,90,false,stim,false,2,393.69999998807907,2,0,0,79260,task3,748476,false,false,850,image-keyboard-response,11
true,13,1,1,1,true,z,false,true,0.0-2.0-0.27-0.251-3.251,0,1,0,90,false,stim,false,2,740.1000000238419,2,0,0,79260,task3,750738,false,false,853,image-keyboard-response,12
true,13,1,1,1,true,z,false,true,0.0-2.0-0.28-0.252-3.252,0,1,0,90,false,stim,false,2,376.69999998807907,2,0,0,79260,task3,752641,false,false,856,image-keyboard-response,13
true,13,1,1,1,true,z,false,true,0.0-2.0-0.28-0.253-3.253,0,1,0,90,false,stim,false,2,696.9000000357628,2,0,0,79260,task3,754873,false,false,859,image-keyboard-response,14
true,13,2,1,2,true,d,false,true,0.0-2.0-0.28-0.254-3.254,0,1,0,68,false,stim,false,2,715.5999999642372,2,1,1,79260,task3,757115,false,false,862,image-keyboard-response,15
true,13,2,1,2,true,d,false,true,0.0-2.0-0.28-0.255-3.255,0,1,0,68,false,stim,false,1,596.1999999880791,2,0,2,79260,task3,759229,false,false,865,image-keyboard-response,16
true,13,2,1,2,true,d,false,true,0.0-2.0-0.28-0.256-3.256,0,1,0,68,false,stim,false,2,902.9000000357628,2,1,1,79260,task3,761652,false,false,868,image-keyboard-response,17
true,13,2,1,2,true,d,false,true,0.0-2.0-0.28-0.257-3.257,0,1,0,68,false,stim,false,1,372.19999998807907,2,0,2,79260,task3,763555,false,false,871,image-keyboard-response,18
true,13,2,1,2,true,d,false,true,0.0-2.0-0.28-0.258-3.258,0,1,0,68,false,stim,false,2,740.7999999523163,2,1,1,79260,task3,765823,false,false,874,image-keyboard-response,19
true,13,2,1,2,true,d,false,true,0.0-2.0-0.28-0.259-3.259,0,1,0,68,false,stim,false,1,742.0,2,0,2,79260,task3,768083,false,false,877,image-keyboard-response,20
true,13,1,1,1,true,z,false,true,0.0-2.0-0.28-0.260-3.260,0,1,0,90,false,stim,false,2,745.2000000476837,2,0,0,79260,task3,770348,false,false,880,image-keyboard-response,21
true,13,2,1,2,true,d,false,true,0.0-2.0-0.29-0.261-3.261,0,1,0,68,false,stim,false,2,794.6999999880791,2,1,1,79260,task3,772667,false,false,883,image-keyboard-response,22
true,13,1,1,1,true,z,false,true,0.0-2.0-0.29-0.262-3.262,0,1,0,90,false,stim,false,2,760.8000000119209,2,0,0,79260,task3,774952,false,false,886,image-keyboard-response,23
true,13,2,1,2,true,d,false,true,0.0-2.0-0.29-0.263-3.263,0,1,0,68,false,stim,false,1,828.4000000357628,2,0,2,79260,task3,777300,false,false,889,image-keyboard-response,24
true,13,2,1,2,true,d,false,true,0.0-2.0-0.29-0.264-3.264,0,1,0,68,false,stim,false,2,867.6999999880791,2,1,1,79260,task3,779692,false,false,892,image-keyboard-response,25
true,13,1,1,1,true,z,false,true,0.0-2.0-0.29-0.265-3.265,0,1,0,90,false,stim,false,2,747.5,2,1,0,79260,task3,781967,false,false,895,image-keyboard-response,26
true,13,2,1,2,true,d,false,true,0.0-2.0-0.29-0.266-3.266,0,1,0,68,false,stim,false,1,914.0,2,0,2,79260,task3,784411,false,false,898,image-keyboard-response,27
true,13,1,1,1,true,z,false,true,0.0-2.0-0.29-0.267-3.267,0,1,0,90,false,stim,false,2,798.6999999880791,2,1,0,79260,task3,786741,false,false,901,image-keyboard-response,28
true,14,2,2,2,true,d,false,true,0.0-2.0-0.29-0.268-3.268,1,1,0,68,true,stim,false,2,775.7000000476837,2,1,1,79260,task3,789039,false,false,904,image-keyboard-response,1
true,14,2,2,1,false,z,false,false,0.0-2.0-0.29-0.269-3.269,1,1,0,68,false,stim,true,2,765.0,2,0,2,79260,task3,791339,false,false,907,image-keyboard-response,2
true,14,0,2,1,false,z,true,false,0.0-2.0-0.30-0.270-3.270,1,1,0,81,false,stim,false,2,1270.0999999642372,2,0,2,79260,task3,794143,false,false,910,image-keyboard-response,3
true,14,1,2,1,true,z,false,true,0.0-2.0-0.30-0.271-3.271,1,1,0,90,false,stim,false,1,572.3000000119209,2,1,0,79260,task3,796244,false,false,913,image-keyboard-response,4
true,14,2,2,2,true,d,false,false,0.0-2.0-0.30-0.272-3.272,1,1,0,68,false,stim,false,2,572.5,2,1,1,79260,task3,798349,false,true,916,image-keyboard-response,5
true,14,1,2,1,true,z,false,true,0.0-2.0-0.30-0.273-3.273,1,1,0,90,false,stim,false,2,387.19999998807907,2,0,2,79260,task3,800255,false,false,919,image-keyboard-response,6
true,14,1,2,1,true,z,false,true,0.0-2.0-0.30-0.274-3.274,1,1,0,90,false,stim,false,2,529.5,2,0,2,79260,task3,802296,false,false,922,image-keyboard-response,7
true,14,0,2,2,false,d,true,false,0.0-2.0-0.30-0.275-3.275,1,1,0,81,false,stim,false,2,379.0999999642372,2,1,1,79260,task3,804196,false,false,925,image-keyboard-response,8
true,14,1,2,1,true,z,false,false,0.0-2.0-0.30-0.276-3.276,1,1,0,90,false,stim,false,1,354.39999997615814,2,1,0,79260,task3,806067,false,true,928,image-keyboard-response,9
true,14,1,2,2,false,d,true,false,0.0-2.0-0.30-0.277-3.277,1,1,0,90,false,stim,false,2,419.5,2,0,1,79260,task3,808014,false,false,931,image-keyboard-response,10
true,14,2,2,1,false,z,true,false,0.0-2.0-0.30-0.278-3.278,1,1,0,68,false,stim,false,1,429.0999999642372,2,1,0,79260,task3,809977,false,false,934,image-keyboard-response,11
true,14,0,2,1,false,z,true,false,0.0-2.0-0.31-0.279-3.279,1,1,0,81,false,stim,false,1,488.0999999642372,2,1,0,79260,task3,811997,false,false,937,image-keyboard-response,12
true,14,2,2,2,true,d,false,true,0.0-2.0-0.31-0.280-3.280,1,1,0,68,false,stim,false,2,465.80000001192093,2,0,1,79260,task3,813996,false,false,940,image-keyboard-response,13
true,14,2,2,2,true,d,false,true,0.0-2.0-0.31-0.281-3.281,1,1,0,68,false,stim,false,2,562.4000000357628,2,0,1,79260,task3,816076,false,false,943,image-keyboard-response,14
true,15,2,2,0,false,q,false,false,0.0-2.0-0.31-0.282-3.282,1,0,1,68,true,stim,true,2,429.39999997615814,2,0,1,79260,task3,818027,false,false,946,image-keyboard-response,1
true,15,1,2,1,true,z,false,true,0.0-2.0-0.31-0.283-3.283,1,0,1,90,false,stim,false,1,474.0,2,1,2,79260,task3,820034,false,false,949,image-keyboard-response,2
true,15,1,2,1,true,z,false,true,0.0-2.0-0.31-0.284-3.284,1,0,1,90,false,stim,false,1,463.4000000357628,2,1,2,79260,task3,822013,false,false,952,image-keyboard-response,3
true,15,1,2,1,true,z,false,true,0.0-2.0-0.31-0.285-3.285,1,0,1,90,false,stim,false,1,374.39999997615814,2,1,2,79260,task3,823904,false,false,955,image-keyboard-response,4
true,15,1,2,1,true,z,false,true,0.0-2.0-0.31-0.286-3.286,1,0,1,90,false,stim,false,1,405.7999999523163,2,1,0,79260,task3,825835,false,false,958,image-keyboard-response,5
true,15,1,2,1,true,z,false,true,0.0-2.0-0.31-0.287-3.287,1,0,1,90,false,stim,false,1,461.19999998807907,2,1,0,79260,task3,827810,false,false,961,image-keyboard-response,6
true,15,2,2,0,false,q,false,false,0.0-2.0-0.32-0.288-3.288,1,0,1,68,false,stim,true,2,859.4000000357628,2,0,1,79260,task3,830192,false,false,964,image-keyboard-response,7
true,15,2,2,0,false,q,false,false,0.0-2.0-0.32-0.289-3.289,1,0,1,68,false,stim,true,2,767.0,2,0,1,79260,task3,832495,false,false,967,image-keyboard-response,8
true,15,1,2,1,true,z,false,true,0.0-2.0-0.32-0.290-3.290,1,0,1,90,false,stim,false,1,701.6999999880791,2,1,0,79260,task3,834717,false,false,970,image-keyboard-response,9
true,15,2,2,1,false,z,true,false,0.0-2.0-0.32-0.291-3.291,1,0,1,68,false,stim,false,1,990.8999999761581,2,1,2,79260,task3,837227,false,false,973,image-keyboard-response,10
true,15,1,2,1,true,z,false,true,0.0-2.0-0.32-0.292-3.292,1,0,1,90,false,stim,false,1,538.5,2,1,2,79260,task3,839285,false,false,976,image-keyboard-response,11
true,15,1,2,1,true,z,false,true,0.0-2.0-0.32-0.293-3.293,1,0,1,90,false,stim,false,1,505.5999999642372,2,1,2,79260,task3,841318,false,false,979,image-keyboard-response,12
true,15,1,2,1,true,z,false,true,0.0-2.0-0.32-0.294-3.294,1,0,1,90,false,stim,false,1,673.4000000357628,2,1,0,79260,task3,843516,false,false,982,image-keyboard-response,13
true,15,1,2,1,true,z,false,true,0.0-2.0-0.32-0.295-3.295,1,0,1,90,false,stim,false,1,432.30000001192093,2,1,0,79260,task3,845467,false,false,985,image-keyboard-response,14
true,15,0,2,0,true,q,false,true,0.0-2.0-0.32-0.296-3.296,1,0,1,81,false,stim,false,2,526.3000000119209,2,0,1,79260,task3,847522,false,false,988,image-keyboard-response,15
true,15,1,2,1,true,z,false,true,0.0-2.0-0.33-0.297-3.297,1,0,1,90,false,stim,false,1,603.5999999642372,2,1,0,79260,task3,849655,false,false,991,image-keyboard-response,16
true,15,0,2,0,true,q,false,true,0.0-2.0-0.33-0.298-3.298,1,0,1,81,false,stim,false,2,866.6000000238419,2,0,1,79260,task3,852046,false,false,994,image-keyboard-response,17
true,15,1,2,1,true,z,false,true,0.0-2.0-0.33-0.299-3.299,1,0,1,90,false,stim,false,1,967.2000000476837,2,1,0,79260,task3,854548,false,false,997,image-keyboard-response,18
true,15,1,2,1,true,z,false,false,0.0-2.0-0.33-0.300-3.300,1,0,1,90,false,stim,false,1,480.19999998807907,2,1,2,79260,task3,856552,false,true,1000,image-keyboard-response,19
true,15,0,2,0,true,q,false,true,0.0-2.0-0.33-0.301-3.301,1,0,1,81,false,stim,false,2,661.5999999642372,2,0,1,79260,task3,858755,false,false,1003,image-keyboard-response,20
true,15,1,2,1,true,z,false,true,0.0-2.0-0.33-0.302-3.302,1,0,1,90,false,stim,false,1,450.7999999523163,2,0,0,79260,task3,860729,false,false,1006,image-keyboard-response,21
true,15,1,2,1,true,z,false,true,0.0-2.0-0.33-0.303-3.303,1,0,1,90,false,stim,false,1,339.30000001192093,2,1,2,79260,task3,862588,false,false,1009,image-keyboard-response,22
true,15,1,2,1,true,z,false,true,0.0-2.0-0.33-0.304-3.304,1,0,1,90,false,stim,false,1,592.6999999880791,2,1,2,79260,task3,864709,false,false,1012,image-keyboard-response,23
true,15,0,2,0,true,q,false,true,0.0-2.0-0.33-0.305-3.305,1,0,1,81,false,stim,false,2,919.1999999880791,2,0,1,79260,task3,867149,false,false,1015,image-keyboard-response,24
true,16,0,1,2,false,d,false,false,0.0-2.0-0.34-0.306-3.306,0,0,1,81,true,stim,true,0,558.2000000476837,2,0,1,79260,task3,869224,false,false,1018,image-keyboard-response,1
true,16,1,1,0,false,q,false,false,0.0-2.0-0.34-0.307-3.307,0,0,1,90,false,stim,true,1,482.60000002384186,2,0,0,79260,task3,871239,false,false,1021,image-keyboard-response,2
true,16,1,1,1,true,z,false,true,0.0-2.0-0.34-0.308-3.308,0,0,1,90,false,stim,false,1,541.1999999880791,2,1,2,79260,task3,873309,false,false,1024,image-keyboard-response,3
true,16,1,1,1,true,z,false,true,0.0-2.0-0.34-0.309-3.309,0,0,1,90,false,stim,false,1,473.19999998807907,2,1,2,79260,task3,875313,false,false,1027,image-keyboard-response,4
true,16,2,1,0,false,q,true,false,0.0-2.0-0.34-0.310-3.310,0,0,1,68,false,stim,false,1,675.1999999880791,2,0,0,79260,task3,877502,false,false,1030,image-keyboard-response,5
true,16,0,1,2,false,d,false,false,0.0-2.0-0.34-0.311-3.311,0,0,1,81,false,stim,true,0,639.1000000238419,2,0,1,79260,task3,879669,false,false,1033,image-keyboard-response,6
true,16,1,1,1,true,z,false,true,0.0-2.0-0.34-0.312-3.312,0,0,1,90,false,stim,false,1,640.5,2,1,2,79260,task3,881838,false,false,1036,image-keyboard-response,7
true,16,0,1,0,true,q,false,true,0.0-2.0-0.34-0.313-3.313,0,0,1,81,false,stim,false,1,780.6000000238419,2,0,0,79260,task3,884127,false,false,1039,image-keyboard-response,8
true,16,1,1,2,false,d,true,false,0.0-2.0-0.34-0.314-3.314,0,0,1,90,false,stim,false,0,419.9000000357628,2,0,1,79260,task3,886065,false,false,1042,image-keyboard-response,9
true,16,1,1,1,true,z,false,true,0.0-2.0-0.35-0.315-3.315,0,0,1,90,false,stim,false,1,915.1000000238419,2,1,2,79260,task3,888505,false,false,1045,image-keyboard-response,10
true,16,0,1,0,true,q,false,true,0.0-2.0-0.35-0.316-3.316,0,0,1,81,false,stim,false,1,843.3000000119209,2,0,0,79260,task3,890869,false,false,1048,image-keyboard-response,11
true,16,0,1,0,true,q,false,true,0.0-2.0-0.35-0.317-3.317,0,0,1,81,false,stim,false,1,595.5999999642372,2,0,0,79260,task3,892986,false,false,1051,image-keyboard-response,12
true,16,2,1,2,true,d,false,false,0.0-2.0-0.35-0.318-3.318,0,0,1,68,false,stim,false,0,491.5,2,0,1,79260,task3,895013,false,true,1054,image-keyboard-response,13
true,16,0,1,2,false,d,false,false,0.0-2.0-0.35-0.319-3.319,0,0,1,81,false,stim,true,0,425.2999999523163,2,0,1,79260,task3,896966,false,false,1057,image-keyboard-response,14
true,16,1,1,1,true,z,false,false,0.0-2.0-0.35-0.320-3.320,0,0,1,90,false,stim,false,1,693.6000000238419,2,1,2,79260,task3,899195,false,true,1060,image-keyboard-response,15
true,16,1,1,1,true,z,false,true,0.0-2.0-0.35-0.321-3.321,0,0,1,90,false,stim,false,1,586.3999999761581,2,1,2,79260,task3,901306,false,false,1063,image-keyboard-response,16
true,16,2,1,2,true,d,false,true,0.0-2.0-0.35-0.322-3.322,0,0,1,68,false,stim,false,0,1058.9000000357628,2,0,1,79260,task3,903886,false,false,1066,image-keyboard-response,17
true,16,0,1,0,true,q,false,true,0.0-2.0-0.35-0.323-3.323,0,0,1,81,false,stim,false,1,781.3000000119209,2,0,0,79260,task3,906190,false,false,1069,image-keyboard-response,18
true,16,0,1,0,true,q,false,true,0.0-2.0-0.36-0.324-3.324,0,0,1,81,false,stim,false,1,548.5,2,0,0,79260,task3,908252,false,false,1072,image-keyboard-response,19
true,16,0,1,0,true,q,false,true,0.0-2.0-0.36-0.325-3.325,0,0,1,81,false,stim,false,1,486.69999998807907,2,0,0,79260,task3,910267,false,false,1075,image-keyboard-response,20
true,16,1,1,1,true,z,false,true,0.0-2.0-0.36-0.326-3.326,0,0,1,90,false,stim,false,1,1012.5,2,0,2,79260,task3,912800,false,false,1078,image-keyboard-response,21
true,16,0,1,0,true,q,false,true,0.0-2.0-0.36-0.327-3.327,0,0,1,81,false,stim,false,1,557.4000000357628,2,1,0,79260,task3,914879,false,false,1081,image-keyboard-response,22
true,16,2,1,2,true,d,false,true,0.0-2.0-0.36-0.328-3.328,0,0,1,68,false,stim,false,0,559.0,2,0,1,79260,task3,916961,false,false,1084,image-keyboard-response,23
true,16,2,1,2,true,d,false,true,0.0-2.0-0.36-0.329-3.329,0,0,1,68,false,stim,false,0,511.39999997615814,2,0,1,79260,task3,919010,false,false,1087,image-keyboard-response,24
true,16,1,1,1,true,z,false,true,0.0-2.0-0.36-0.330-3.330,0,0,1,90,false,stim,false,1,636.9000000357628,2,0,2,79260,task3,921180,false,false,1090,image-keyboard-response,25
true,17,2,1,0,false,q,false,false,0.0-2.0-0.36-0.331-3.331,1,0,0,68,true,stim,true,2,749.5999999642372,2,0,1,79260,task3,923455,false,false,1093,image-keyboard-response,1
true,17,1,1,2,false,d,false,false,0.0-2.0-0.36-0.332-3.332,1,0,0,90,false,stim,true,1,590.1000000238419,2,0,2,79260,task3,925576,false,false,1096,image-keyboard-response,2
true,17,0,1,0,true,q,false,true,0.0-2.0-0.37-0.333-3.333,1,0,0,81,false,stim,false,0,446.10000002384186,2,1,0,79260,task3,927546,false,false,1099,image-keyboard-response,3
true,17,2,1,2,true,d,false,true,0.0-2.0-0.37-0.334-3.334,1,0,0,68,false,stim,false,1,1214.3999999761581,2,0,2,79260,task3,930296,false,false,1102,image-keyboard-response,4
true,17,0,1,0,true,q,false,true,0.0-2.0-0.37-0.335-3.335,1,0,0,81,false,stim,false,2,351.5,2,0,1,79260,task3,932174,false,false,1105,image-keyboard-response,5
true,17,2,1,2,true,d,false,true,0.0-2.0-0.37-0.336-3.336,1,0,0,68,false,stim,false,1,644.8000000119209,2,0,2,79260,task3,934340,false,false,1108,image-keyboard-response,6
true,17,0,1,0,true,q,false,true,0.0-2.0-0.37-0.337-3.337,1,0,0,81,false,stim,false,2,743.5999999642372,2,0,1,79260,task3,936604,false,false,1111,image-keyboard-response,7
true,17,2,1,2,true,d,false,true,0.0-2.0-0.37-0.338-3.338,1,0,0,68,false,stim,false,1,663.4000000357628,2,0,2,79260,task3,938794,false,false,1114,image-keyboard-response,8
true,17,0,1,0,true,q,false,true,0.0-2.0-0.37-0.339-3.339,1,0,0,81,false,stim,false,0,527.1999999880791,2,1,0,79260,task3,940855,false,false,1117,image-keyboard-response,9
true,17,0,1,0,true,q,false,true,0.0-2.0-0.37-0.340-3.340,1,0,0,81,false,stim,false,2,1007.8000000119209,2,0,1,79260,task3,943385,false,false,1120,image-keyboard-response,10
true,17,0,1,0,true,q,false,true,0.0-2.0-0.37-0.341-3.341,1,0,0,81,false,stim,false,0,983.1000000238419,2,1,0,79260,task3,945901,false,false,1123,image-keyboard-response,11
true,17,0,1,0,true,q,false,true,0.0-2.0-0.38-0.342-3.342,1,0,0,81,false,stim,false,2,729.3999999761581,2,0,1,79260,task3,948146,false,false,1126,image-keyboard-response,12
true,17,0,1,0,true,q,false,true,0.0-2.0-0.38-0.343-3.343,1,0,0,81,false,stim,false,0,542.1000000238419,2,1,0,79260,task3,950212,false,false,1129,image-keyboard-response,13
true,17,2,1,2,true,d,false,true,0.0-2.0-0.38-0.344-3.344,1,0,0,68,false,stim,false,1,422.0,2,0,2,79260,task3,952152,false,false,1132,image-keyboard-response,14
true,17,0,1,0,true,q,false,true,0.0-2.0-0.38-0.345-3.345,1,0,0,81,false,stim,false,2,545.8000000119209,2,0,1,79260,task3,954221,false,false,1135,image-keyboard-response,15
true,17,2,1,2,true,d,false,true,0.0-2.0-0.38-0.346-3.346,1,0,0,68,false,stim,false,1,811.2999999523163,2,0,2,79260,task3,956567,false,false,1138,image-keyboard-response,16
true,17,0,1,0,true,q,false,true,0.0-2.0-0.38-0.347-3.347,1,0,0,81,false,stim,false,0,695.0999999642372,2,1,0,79260,task3,958800,false,false,1141,image-keyboard-response,17
true,17,0,1,0,true,q,false,true,0.0-2.0-0.38-0.348-3.348,1,0,0,81,false,stim,false,0,598.1000000238419,2,1,0,79260,task3,960913,false,false,1144,image-keyboard-response,18
true,17,2,1,2,true,d,false,true,0.0-2.0-0.38-0.349-3.349,1,0,0,68,false,stim,false,1,692.6999999880791,2,0,2,79260,task3,963142,false,false,1147,image-keyboard-response,19
true,17,0,1,0,true,q,false,true,0.0-2.0-0.38-0.350-3.350,1,0,0,81,false,stim,false,2,449.5,2,0,1,79260,task3,965122,false,false,1150,image-keyboard-response,20
true,17,0,1,0,true,q,false,true,0.0-2.0-0.39-0.351-3.351,1,0,0,81,false,stim,false,2,517.0,2,0,1,79260,task3,967168,false,false,1153,image-keyboard-response,21
true,17,2,1,2,true,d,false,true,0.0-2.0-0.39-0.352-3.352,1,0,0,68,false,stim,false,1,640.3000000119209,2,0,2,79260,task3,969342,false,false,1156,image-keyboard-response,22
true,17,0,1,0,true,q,false,true,0.0-2.0-0.39-0.353-3.353,1,0,0,81,false,stim,false,2,730.5,2,0,1,79260,task3,971596,false,false,1159,image-keyboard-response,23
true,17,2,1,2,true,d,false,true,0.0-2.0-0.39-0.354-3.354,1,0,0,68,false,stim,false,1,596.1999999880791,2,1,2,79260,task3,973723,false,false,1162,image-keyboard-response,24
true,17,0,1,0,true,q,false,true,0.0-2.0-0.39-0.355-3.355,1,0,0,81,false,stim,false,2,641.6000000238419,2,0,1,79260,task3,975883,false,false,1165,image-keyboard-response,25
true,17,0,1,0,true,q,false,true,0.0-2.0-0.39-0.356-3.356,1,0,0,81,false,stim,false,0,522.3000000119209,2,1,0,79260,task3,977934,false,false,1168,image-keyboard-response,26
true,17,0,1,0,true,q,false,false,0.0-2.0-0.39-0.357-3.357,1,0,0,81,false,stim,false,0,500.89999997615814,2,1,0,79260,task3,979962,false,true,1171,image-keyboard-response,27
true,18,2,2,2,true,d,false,false,0.0-2.0-0.39-0.358-3.358,1,0,1,68,true,stim,false,2,556.5,2,1,2,79260,task3,982043,false,true,1174,image-keyboard-response,1
true,18,1,2,0,false,q,true,false,0.0-2.0-0.39-0.359-3.359,1,0,1,90,false,stim,false,0,1133.800000011921,2,1,0,79260,task3,984697,false,false,1177,image-keyboard-response,2
true,18,1,2,0,false,q,true,true,0.0-2.0-0.40-0.360-3.360,1,0,1,90,false,stim,false,0,595.3999999761581,2,1,0,79260,task3,986827,false,true,1180,image-keyboard-response,3
true,18,1,2,2,false,d,true,false,0.0-2.0-0.40-0.361-3.361,1,0,1,90,false,stim,false,2,1032.0999999642372,2,1,2,79260,task3,989386,false,false,1183,image-keyboard-response,4
true,18,0,2,2,false,d,true,false,0.0-2.0-0.40-0.362-3.362,1,0,1,81,false,stim,false,2,761.0999999642372,2,1,2,79260,task3,991673,false,false,1186,image-keyboard-response,5
true,18,1,2,0,false,q,true,false,0.0-2.0-0.40-0.363-3.363,1,0,1,90,false,stim,false,0,704.3999999761581,2,1,0,79260,task3,993908,false,false,1189,image-keyboard-response,6
true,18,0,2,2,false,d,false,false,0.0-2.0-0.40-0.364-3.364,1,0,1,81,false,stim,true,0,943.3999999761581,2,0,1,79260,task3,996373,false,false,1192,image-keyboard-response,7
true,18,2,2,2,true,d,false,true,0.0-2.0-0.40-0.365-3.365,1,0,1,68,false,stim,false,0,545.0999999642372,2,0,1,79260,task3,998447,false,false,1195,image-keyboard-response,8
true,18,2,2,0,false,q,true,false,0.0-2.0-0.40-0.366-3.366,1,0,1,68,false,stim,false,0,994.3999999761581,2,1,0,79260,task3,1000971,false,false,1198,image-keyboard-response,9
true,18,0,2,2,false,d,true,false,0.0-2.0-0.40-0.367-3.367,1,0,1,81,false,stim,false,2,810.6999999880791,2,1,2,79260,task3,1003313,false,false,1201,image-keyboard-response,10
true,18,2,2,2,true,d,false,true,0.0-2.0-0.40-0.368-3.368,1,0,1,68,false,stim,false,0,757.1999999880791,2,0,1,79260,task3,1005598,false,false,1204,image-keyboard-response,11
true,18,1,2,2,false,d,true,false,0.0-2.0-0.41-0.369-3.369,1,0,1,90,false,stim,false,2,535.6999999880791,2,1,2,79260,task3,1007652,false,false,1207,image-keyboard-response,12
true,18,2,2,2,true,d,false,true,0.0-2.0-0.41-0.370-3.370,1,0,1,68,false,stim,false,2,681.2000000476837,2,1,2,79260,task3,1009860,false,false,1210,image-keyboard-response,13
true,18,1,2,0,false,q,true,true,0.0-2.0-0.41-0.371-3.371,1,0,1,90,false,stim,false,0,344.4000000357628,2,1,0,79260,task3,1011725,false,true,1213,image-keyboard-response,14
true,18,2,2,2,true,d,false,true,0.0-2.0-0.41-0.372-3.372,1,0,1,68,false,stim,false,0,582.1000000238419,2,0,1,79260,task3,1013839,false,false,1216,image-keyboard-response,15
true,18,1,2,0,false,q,true,false,0.0-2.0-0.41-0.373-3.373,1,0,1,90,false,stim,false,0,878.5,2,1,0,79260,task3,1016243,false,false,1219,image-keyboard-response,16
true,18,2,2,2,true,d,false,false,0.0-2.0-0.41-0.374-3.374,1,0,1,68,false,stim,false,2,437.9000000357628,2,1,2,79260,task3,1018206,false,true,1222,image-keyboard-response,17
true,18,2,2,2,true,d,false,true,0.0-2.0-0.41-0.375-3.375,1,0,1,68,false,stim,false,0,451.10000002384186,2,0,1,79260,task3,1020181,false,false,1225,image-keyboard-response,18
true,18,1,2,0,false,q,true,false,0.0-2.0-0.41-0.376-3.376,1,0,1,90,false,stim,false,0,725.0,2,1,0,79260,task3,1022427,false,false,1228,image-keyboard-response,19
true,18,2,2,2,true,d,false,true,0.0-2.0-0.41-0.377-3.377,1,0,1,68,false,stim,false,0,523.3000000119209,2,0,1,79260,task3,1024463,false,false,1231,image-keyboard-response,20
true,18,0,2,0,true,q,false,true,0.0-2.0-0.42-0.378-3.378,1,0,1,81,false,stim,false,0,715.5,2,1,0,79260,task3,1026710,false,false,1234,image-keyboard-response,21
true,18,2,2,2,true,d,false,true,0.0-2.0-0.42-0.379-3.379,1,0,1,68,false,stim,false,0,1243.199999988079,2,0,1,79260,task3,1029478,false,false,1237,image-keyboard-response,22
true,18,2,2,2,true,d,false,true,0.0-2.0-0.42-0.380-3.380,1,0,1,68,false,stim,false,0,464.5,2,0,1,79260,task3,1031479,false,false,1240,image-keyboard-response,23
true,18,2,2,2,true,d,false,true,0.0-2.0-0.42-0.381-3.381,1,0,1,68,false,stim,false,0,521.8999999761581,2,0,1,79260,task3,1033536,false,false,1243,image-keyboard-response,24
true,18,1,2,2,false,d,true,false,0.0-2.0-0.42-0.382-3.382,1,0,1,90,false,stim,false,2,863.3000000119209,2,0,2,79260,task3,1035924,false,false,1246,image-keyboard-response,25
true,18,0,2,2,false,d,true,false,0.0-2.0-0.42-0.383-3.383,1,0,1,81,false,stim,false,2,610.3999999761581,2,0,2,79260,task3,1038048,false,false,1249,image-keyboard-response,26
true,18,2,2,2,true,d,false,true,0.0-2.0-0.42-0.384-3.384,1,0,1,68,false,stim,false,2,387.69999998807907,2,0,2,79260,task3,1039959,false,false,1252,image-keyboard-response,27
true,19,0,1,0,true,q,false,true,0.0-2.0-0.42-0.385-3.385,1,0,0,81,true,stim,false,0,657.9000000357628,2,1,0,79260,task3,1042153,false,false,1255,image-keyboard-response,1
true,19,0,1,0,true,q,false,true,0.0-2.0-0.42-0.386-3.386,1,0,0,81,false,stim,false,0,478.10000002384186,2,1,0,79260,task3,1044164,false,false,1258,image-keyboard-response,2
true,19,2,1,1,false,z,false,false,0.0-2.0-0.43-0.387-3.387,1,0,0,68,false,stim,true,2,515.0999999642372,2,0,2,79260,task3,1046215,false,false,1261,image-keyboard-response,3
true,19,2,1,0,false,q,false,false,0.0-2.0-0.43-0.388-3.388,1,0,0,68,false,stim,true,2,364.89999997615814,2,0,1,79260,task3,1048116,false,false,1264,image-keyboard-response,4
true,19,1,1,1,true,z,false,true,0.0-2.0-0.43-0.389-3.389,1,0,0,90,false,stim,false,2,1047.300000011921,2,0,2,79260,task3,1050686,false,false,1267,image-keyboard-response,5
true,19,0,1,0,true,q,false,true,0.0-2.0-0.43-0.390-3.390,1,0,0,81,false,stim,false,0,694.7000000476837,2,1,0,79260,task3,1052909,false,false,1270,image-keyboard-response,6
true,19,1,1,0,false,q,true,false,0.0-2.0-0.43-0.391-3.391,1,0,0,90,false,stim,false,2,329.5999999642372,2,0,1,79260,task3,1054762,false,false,1273,image-keyboard-response,7
true,19,1,1,1,true,z,false,true,0.0-2.0-0.43-0.392-3.392,1,0,0,90,false,stim,false,2,901.7000000476837,2,0,2,79260,task3,1057180,false,false,1276,image-keyboard-response,8
true,19,0,1,0,true,q,false,true,0.0-2.0-0.43-0.393-3.393,1,0,0,81,false,stim,false,0,447.7999999523163,2,1,0,79260,task3,1059157,false,false,1279,image-keyboard-response,9
true,19,0,1,0,true,q,false,true,0.0-2.0-0.43-0.394-3.394,1,0,0,81,false,stim,false,0,528.5,2,1,0,79260,task3,1061201,false,false,1282,image-keyboard-response,10
true,19,0,1,0,true,q,false,false,0.0-2.0-0.43-0.395-3.395,1,0,0,81,false,stim,false,2,596.0,2,0,1,79260,task3,1063316,false,true,1285,image-keyboard-response,11
true,19,1,1,1,true,z,false,true,0.0-2.0-0.44-0.396-3.396,1,0,0,90,false,stim,false,2,494.89999997615814,2,0,2,79260,task3,1065330,false,false,1288,image-keyboard-response,12
true,19,0,1,0,true,q,false,true,0.0-2.0-0.44-0.397-3.397,1,0,0,81,false,stim,false,0,385.9000000357628,2,1,0,79260,task3,1067238,false,false,1291,image-keyboard-response,13
true,19,1,1,1,true,z,false,true,0.0-2.0-0.44-0.398-3.398,1,0,0,90,false,stim,false,2,864.1999999880791,2,0,2,79260,task3,1069627,false,false,1294,image-keyboard-response,14
true,19,2,1,0,false,q,false,false,0.0-2.0-0.44-0.399-3.399,1,0,0,68,false,stim,true,2,516.6000000238419,2,0,1,79260,task3,1071674,false,false,1297,image-keyboard-response,15
true,19,0,1,0,true,q,false,true,0.0-2.0-0.44-0.400-3.400,1,0,0,81,false,stim,false,0,1019.3000000119209,2,1,0,79260,task3,1074211,false,false,1300,image-keyboard-response,16
true,19,1,1,1,true,z,false,true,0.0-2.0-0.44-0.401-3.401,1,0,0,90,false,stim,false,2,653.3999999761581,2,0,2,79260,task3,1076408,false,false,1303,image-keyboard-response,17
true,19,0,1,0,true,q,false,true,0.0-2.0-0.44-0.402-3.402,1,0,0,81,false,stim,false,2,384.89999997615814,2,0,1,79260,task3,1078310,false,false,1306,image-keyboard-response,18
true,19,0,1,0,true,q,false,true,0.0-2.0-0.44-0.403-3.403,1,0,0,81,false,stim,false,0,797.6000000238419,2,0,0,79260,task3,1080625,false,false,1309,image-keyboard-response,19
true,19,0,1,0,true,q,false,true,0.0-2.0-0.44-0.404-3.404,1,0,0,81,false,stim,false,2,894.4000000357628,2,1,1,79260,task3,1083056,false,false,1312,image-keyboard-response,20
true,19,0,1,0,true,q,false,true,0.0-2.0-0.45-0.405-3.405,1,0,0,81,false,stim,false,2,428.5,2,1,1,79260,task3,1085013,false,false,1315,image-keyboard-response,21
true,19,1,1,1,true,z,false,true,0.0-2.0-0.45-0.406-3.406,1,0,0,90,false,stim,false,2,515.9000000357628,2,0,2,79260,task3,1087046,false,false,1318,image-keyboard-response,22
true,19,1,1,1,true,z,false,true,0.0-2.0-0.45-0.407-3.407,1,0,0,90,false,stim,false,2,513.0,2,0,2,79260,task3,1089083,false,false,1321,image-keyboard-response,23
true,20,0,1,0,true,q,false,true,0.0-2.0-0.45-0.408-3.408,0,1,0,81,true,stim,false,0,575.8999999761581,2,1,1,79260,task3,1091181,false,false,1324,image-keyboard-response,1
true,20,0,1,2,false,d,false,false,0.0-2.0-0.45-0.409-3.409,0,1,0,81,false,stim,true,0,548.1000000238419,2,0,0,79260,task3,1093262,false,false,1327,image-keyboard-response,2
true,20,0,1,2,false,d,false,false,0.0-2.0-0.45-0.410-3.410,0,1,0,81,false,stim,true,0,465.39999997615814,2,0,0,79260,task3,1095255,false,false,1330,image-keyboard-response,3
true,20,0,1,0,true,q,false,true,0.0-2.0-0.45-0.411-3.411,0,1,0,81,false,stim,false,0,786.3999999761581,2,1,1,79260,task3,1097565,false,false,1333,image-keyboard-response,4
true,20,2,1,2,true,d,false,true,0.0-2.0-0.45-0.412-3.412,0,1,0,68,false,stim,false,0,773.8999999761581,2,0,0,79260,task3,1099863,false,false,1336,image-keyboard-response,5
true,20,1,1,0,false,q,false,false,0.0-2.0-0.45-0.413-3.413,0,1,0,90,false,stim,true,1,386.5999999642372,2,0,2,79260,task3,1101770,false,false,1339,image-keyboard-response,6
true,20,0,1,0,true,q,false,false,0.0-2.0-0.46-0.414-3.414,0,1,0,81,false,stim,false,1,454.89999997615814,2,0,2,79260,task3,1103755,false,true,1342,image-keyboard-response,7
true,20,2,1,2,true,d,false,true,0.0-2.0-0.46-0.415-3.415,0,1,0,68,false,stim,false,0,493.0999999642372,2,0,0,79260,task3,1105772,false,false,1345,image-keyboard-response,8
true,20,2,1,2,true,d,false,true,0.0-2.0-0.46-0.416-3.416,0,1,0,68,false,stim,false,0,487.4000000357628,2,0,0,79260,task3,1107790,false,false,1348,image-keyboard-response,9
true,20,2,1,2,true,d,false,true,0.0-2.0-0.46-0.417-3.417,0,1,0,68,false,stim,false,0,500.80000001192093,2,0,0,79260,task3,1109817,false,false,1351,image-keyboard-response,10
true,20,2,1,0,false,q,true,false,0.0-2.0-0.46-0.418-3.418,0,1,0,68,false,stim,false,1,682.4000000357628,2,0,2,79260,task3,1112021,false,false,1354,image-keyboard-response,11
true,20,1,1,0,false,q,true,false,0.0-2.0-0.46-0.419-3.419,0,1,0,90,false,stim,false,0,444.69999998807907,2,1,1,79260,task3,1113996,false,false,1357,image-keyboard-response,12
true,20,1,1,0,false,q,false,false,0.0-2.0-0.46-0.420-3.420,0,1,0,90,false,stim,true,1,529.0,2,0,2,79260,task3,1116053,false,false,1360,image-keyboard-response,13
true,20,0,1,0,true,q,false,true,0.0-2.0-0.46-0.421-3.421,0,1,0,81,false,stim,false,0,450.4000000357628,2,1,1,79260,task3,1118035,false,false,1363,image-keyboard-response,14
true,20,0,1,0,true,q,false,true,0.0-2.0-0.46-0.422-3.422,0,1,0,81,false,stim,false,0,462.10000002384186,2,1,1,79260,task3,1120028,false,false,1366,image-keyboard-response,15
true,20,0,1,0,true,q,false,true,0.0-2.0-0.47-0.423-3.423,0,1,0,81,false,stim,false,1,827.6999999880791,2,0,2,79260,task3,1122387,false,false,1369,image-keyboard-response,16
true,20,2,1,2,true,d,false,true,0.0-2.0-0.47-0.424-3.424,0,1,0,68,false,stim,false,0,531.5999999642372,2,0,0,79260,task3,1124450,false,false,1372,image-keyboard-response,17
true,20,0,1,0,true,q,false,true,0.0-2.0-0.47-0.425-3.425,0,1,0,81,false,stim,false,1,391.69999998807907,2,0,2,79260,task3,1126381,false,false,1375,image-keyboard-response,18
true,20,0,1,0,true,q,false,true,0.0-2.0-0.47-0.426-3.426,0,1,0,81,false,stim,false,0,680.6000000238419,2,1,1,79260,task3,1128593,false,false,1378,image-keyboard-response,19
true,20,0,1,0,true,q,false,false,0.0-2.0-0.47-0.427-3.427,0,1,0,81,false,stim,false,0,484.5999999642372,2,1,1,79260,task3,1130600,false,true,1381,image-keyboard-response,20
true,20,2,1,2,true,d,false,true,0.0-2.0-0.47-0.428-3.428,0,1,0,68,false,stim,false,0,528.8000000119209,2,0,0,79260,task3,1132650,false,false,1384,image-keyboard-response,21
true,20,0,1,0,true,q,false,false,0.0-2.0-0.47-0.429-3.429,0,1,0,81,false,stim,false,1,641.3999999761581,2,1,2,79260,task3,1134819,false,true,1387,image-keyboard-response,22
true,20,2,1,2,true,d,false,true,0.0-2.0-0.47-0.430-3.430,0,1,0,68,false,stim,false,0,581.8999999761581,2,0,0,79260,task3,1136927,false,false,1390,image-keyboard-response,23
true,20,2,1,0,false,q,true,false,0.0-2.0-0.47-0.431-3.431,0,1,0,68,false,stim,false,0,560.5999999642372,2,0,1,79260,task3,1139009,false,false,1393,image-keyboard-response,24
true,20,2,1,2,true,d,false,true,0.0-2.0-0.48-0.432-3.432,0,1,0,68,false,stim,false,0,664.8000000119209,2,0,0,79260,task3,1141198,false,false,1396,image-keyboard-response,25
true,20,1,1,0,false,q,true,false,0.0-2.0-0.48-0.433-3.433,0,1,0,90,false,stim,false,0,543.7000000476837,2,0,1,79260,task3,1143269,false,false,1399,image-keyboard-response,26
true,21,2,1,0,false,q,true,false,0.0-2.0-0.48-0.434-3.434,0,0,1,68,true,stim,false,0,467.5,2,1,2,79260,task3,1145290,false,false,1402,image-keyboard-response,1
true,21,0,1,0,true,q,false,false,0.0-2.0-0.48-0.435-3.435,0,0,1,81,false,stim,false,0,419.80000001192093,2,1,2,79260,task3,1147227,false,true,1405,image-keyboard-response,2
true,21,2,1,1,false,z,false,false,0.0-2.0-0.48-0.436-3.436,0,0,1,68,false,stim,true,2,746.1000000238419,2,0,0,79260,task3,1149503,false,false,1408,image-keyboard-response,3
true,21,1,1,1,true,z,false,true,0.0-2.0-0.48-0.437-3.437,0,0,1,90,false,stim,false,2,898.6000000238419,2,0,0,79260,task3,1151935,false,false,1411,image-keyboard-response,4
true,21,1,1,1,true,z,false,true,0.0-2.0-0.48-0.438-3.438,0,0,1,90,false,stim,false,0,493.5,2,0,1,79260,task3,1153947,false,false,1414,image-keyboard-response,5
true,21,1,1,0,false,q,true,false,0.0-2.0-0.48-0.439-3.439,0,0,1,90,false,stim,false,0,438.89999997615814,2,1,2,79260,task3,1155915,false,false,1417,image-keyboard-response,6
true,21,1,1,1,true,z,false,false,0.0-2.0-0.48-0.440-3.440,0,0,1,90,false,stim,false,0,452.19999998807907,2,0,1,79260,task3,1157901,false,true,1420,image-keyboard-response,7
true,21,0,1,0,true,q,false,true,0.0-2.0-0.49-0.441-3.441,0,0,1,81,false,stim,false,0,800.5,2,1,2,79260,task3,1160216,false,false,1423,image-keyboard-response,8
true,21,1,1,1,true,z,false,false,0.0-2.0-0.49-0.442-3.442,0,0,1,90,false,stim,false,0,518.5,2,0,1,79260,task3,1162278,false,true,1426,image-keyboard-response,9
true,21,0,1,0,true,q,false,true,0.0-2.0-0.49-0.443-3.443,0,0,1,81,false,stim,false,0,679.5,2,1,2,79260,task3,1164492,false,false,1429,image-keyboard-response,10
true,21,0,1,0,true,q,false,true,0.0-2.0-0.49-0.444-3.444,0,0,1,81,false,stim,false,0,620.0999999642372,2,1,2,79260,task3,1166635,false,false,1432,image-keyboard-response,11
true,21,2,1,1,false,z,true,false,0.0-2.0-0.49-0.445-3.445,0,0,1,68,false,stim,false,0,644.6999999880791,2,0,1,79260,task3,1168817,false,false,1435,image-keyboard-response,12
true,21,1,1,1,true,z,false,true,0.0-2.0-0.49-0.446-3.446,0,0,1,90,false,stim,false,2,338.89999997615814,2,0,0,79260,task3,1170693,false,false,1438,image-keyboard-response,13
true,21,1,1,1,true,z,false,true,0.0-2.0-0.49-0.447-3.447,0,0,1,90,false,stim,false,2,583.4000000357628,2,0,0,79260,task3,1172797,false,false,1441,image-keyboard-response,14
true,21,1,1,1,true,z,false,true,0.0-2.0-0.49-0.448-3.448,0,0,1,90,false,stim,false,2,391.39999997615814,2,0,0,79260,task3,1174712,false,false,1444,image-keyboard-response,15
true,21,0,1,1,false,z,false,false,0.0-2.0-0.49-0.449-3.449,0,0,1,81,false,stim,true,0,464.19999998807907,2,0,1,79260,task3,1176695,false,false,1447,image-keyboard-response,16
true,21,0,1,0,true,q,false,true,0.0-2.0-0.50-0.450-3.450,0,0,1,81,false,stim,false,0,716.4000000357628,2,1,2,79260,task3,1178927,false,false,1450,image-keyboard-response,17
true,21,1,1,1,true,z,false,true,0.0-2.0-0.50-0.451-3.451,0,0,1,90,false,stim,false,2,701.1000000238419,2,0,0,79260,task3,1181152,false,false,1453,image-keyboard-response,18
true,21,1,1,1,true,z,false,true,0.0-2.0-0.50-0.452-3.452,0,0,1,90,false,stim,false,0,371.89999997615814,2,0,1,79260,task3,1183046,false,false,1456,image-keyboard-response,19
true,21,1,1,1,true,z,false,false,0.0-2.0-0.50-0.453-3.453,0,0,1,90,false,stim,false,2,680.3000000119209,2,0,0,79260,task3,1185252,false,true,1459,image-keyboard-response,20
true,21,0,1,0,true,q,false,true,0.0-2.0-0.50-0.454-3.454,0,0,1,81,false,stim,false,0,684.5,2,1,2,79260,task3,1187454,false,false,1462,image-keyboard-response,21
true,21,1,1,1,true,z,false,false,0.0-2.0-0.50-0.455-3.455,0,0,1,90,false,stim,false,2,1050.1000000238419,2,0,0,79260,task3,1190031,false,true,1465,image-keyboard-response,22
true,21,1,1,1,true,z,false,false,0.0-2.0-0.50-0.456-3.456,0,0,1,90,false,stim,false,0,637.3000000119209,2,0,1,79260,task3,1192200,false,true,1468,image-keyboard-response,23
true,21,2,1,1,false,z,true,false,0.0-2.0-0.50-0.457-3.457,0,0,1,68,false,stim,false,0,739.0999999642372,2,0,1,79260,task3,1194459,false,false,1471,image-keyboard-response,24
true,21,0,1,0,true,q,false,true,0.0-2.0-0.50-0.458-3.458,0,0,1,81,false,stim,false,0,788.0,2,1,2,79260,task3,1196768,false,false,1474,image-keyboard-response,25
true,22,0,1,0,true,q,false,true,0.0-2.0-0.51-0.459-3.459,0,0,1,81,true,stim,false,0,749.3000000119209,2,1,2,79260,task3,1199038,false,false,1477,image-keyboard-response,1
true,22,2,1,2,true,d,false,true,0.0-2.0-0.51-0.460-3.460,0,0,1,68,false,stim,false,1,582.6999999880791,2,0,0,79260,task3,1201152,false,false,1480,image-keyboard-response,2
true,22,2,1,2,true,d,false,true,0.0-2.0-0.51-0.461-3.461,0,0,1,68,false,stim,false,1,500.19999998807907,2,0,0,79260,task3,1203167,false,false,1483,image-keyboard-response,3
true,22,2,1,2,true,d,false,true,0.0-2.0-0.51-0.462-3.462,0,0,1,68,false,stim,false,1,393.80000001192093,2,0,0,79260,task3,1205083,false,false,1486,image-keyboard-response,4
true,22,0,1,2,false,d,true,false,0.0-2.0-0.51-0.463-3.463,0,0,1,81,false,stim,false,1,539.1999999880791,2,0,1,79260,task3,1207149,false,false,1489,image-keyboard-response,5
true,22,1,1,2,false,d,false,false,0.0-2.0-0.51-0.464-3.464,0,0,1,90,false,stim,true,1,1316.5,2,0,1,79260,task3,1210005,false,false,1492,image-keyboard-response,6
true,22,0,1,0,true,q,false,true,0.0-2.0-0.51-0.465-3.465,0,0,1,81,false,stim,false,0,929.0,2,1,2,79260,task3,1212458,false,false,1495,image-keyboard-response,7
true,22,0,1,0,true,q,false,true,0.0-2.0-0.51-0.466-3.466,0,0,1,81,false,stim,false,0,510.30000001192093,2,1,2,79260,task3,1214500,false,false,1498,image-keyboard-response,8
true,22,2,1,2,true,d,false,false,0.0-2.0-0.51-0.467-3.467,0,0,1,68,false,stim,false,1,445.30000001192093,2,0,1,79260,task3,1216490,false,true,1501,image-keyboard-response,9
true,22,2,1,2,true,d,false,true,0.0-2.0-0.52-0.468-3.468,0,0,1,68,false,stim,false,1,445.5,2,0,0,79260,task3,1218472,false,false,1504,image-keyboard-response,10
true,22,0,1,2,false,d,true,false,0.0-2.0-0.52-0.469-3.469,0,0,1,81,false,stim,false,1,426.60000002384186,2,0,0,79260,task3,1220425,false,false,1507,image-keyboard-response,11
true,22,0,1,2,false,d,true,true,0.0-2.0-0.52-0.470-3.470,0,0,1,81,false,stim,false,1,1085.5999999642372,2,0,1,79260,task3,1223038,false,true,1510,image-keyboard-response,12
true,22,0,1,2,false,d,true,false,0.0-2.0-0.52-0.471-3.471,0,0,1,81,false,stim,false,1,920.0,2,0,1,79260,task3,1225485,false,false,1513,image-keyboard-response,13
true,22,0,1,2,false,d,true,false,0.0-2.0-0.52-0.472-3.472,0,0,1,81,false,stim,false,1,393.69999998807907,2,0,1,79260,task3,1227399,false,false,1516,image-keyboard-response,14
true,22,2,1,2,true,d,false,true,0.0-2.0-0.52-0.473-3.473,0,0,1,68,false,stim,false,1,719.3999999761581,2,0,0,79260,task3,1229644,false,false,1519,image-keyboard-response,15
true,22,0,1,0,true,q,false,true,0.0-2.0-0.52-0.474-3.474,0,0,1,81,false,stim,false,0,471.30000001192093,2,1,2,79260,task3,1231648,false,false,1522,image-keyboard-response,16
true,22,0,1,0,true,q,false,false,0.0-2.0-0.52-0.475-3.475,0,0,1,81,false,stim,false,0,986.5,2,1,2,79260,task3,1234153,false,true,1525,image-keyboard-response,17
true,22,1,1,0,false,q,true,false,0.0-2.0-0.52-0.476-3.476,0,0,1,90,false,stim,false,0,813.8000000119209,2,1,2,79260,task3,1236494,false,false,1528,image-keyboard-response,18
true,22,2,1,0,false,q,true,false,0.0-2.0-0.53-0.477-3.477,0,0,1,68,false,stim,false,0,655.5,2,1,2,79260,task3,1238677,false,false,1531,image-keyboard-response,19
true,22,2,1,2,true,d,false,true,0.0-2.0-0.53-0.478-3.478,0,0,1,68,false,stim,false,1,1170.5999999642372,2,0,0,79260,task3,1241381,false,false,1534,image-keyboard-response,20
true,22,1,1,2,false,d,false,false,0.0-2.0-0.53-0.479-3.479,0,0,1,90,false,stim,true,1,438.19999998807907,2,0,1,79260,task3,1243348,false,false,1537,image-keyboard-response,21
true,22,2,1,2,true,d,false,true,0.0-2.0-0.53-0.480-3.480,0,0,1,68,false,stim,false,1,394.10000002384186,2,0,1,79260,task3,1245262,false,false,1540,image-keyboard-response,22
true,22,0,1,0,true,q,false,true,0.0-2.0-0.53-0.481-3.481,0,0,1,81,false,stim,false,0,560.3999999761581,2,1,2,79260,task3,1247351,false,false,1543,image-keyboard-response,23
true,22,2,1,2,true,d,false,true,0.0-2.0-0.53-0.482-3.482,0,0,1,68,false,stim,false,1,820.8000000119209,2,0,1,79260,task3,1249691,false,false,1546,image-keyboard-response,24
true,22,0,1,0,true,q,false,true,0.0-2.0-0.53-0.483-3.483,0,0,1,81,false,stim,false,0,759.9000000357628,2,1,2,79260,task3,1251984,false,false,1549,image-keyboard-response,25
true,22,2,1,2,true,d,false,true,0.0-2.0-0.53-0.484-3.484,0,0,1,68,false,stim,false,1,839.1999999880791,2,0,0,79260,task3,1254360,false,false,1552,image-keyboard-response,26
true,22,2,1,2,true,d,false,false,0.0-2.0-0.53-0.485-3.485,0,0,1,68,false,stim,false,1,861.8999999761581,2,0,0,79260,task3,1256763,false,true,1555,image-keyboard-response,27
true,22,2,1,2,true,d,false,true,0.0-2.0-0.54-0.486-3.486,0,0,1,68,false,stim,false,1,735.3000000119209,2,0,0,79260,task3,1259031,false,false,1558,image-keyboard-response,28
true,22,0,1,0,true,q,false,true,0.0-2.0-0.54-0.487-3.487,0,0,1,81,false,stim,false,0,748.5,2,1,2,79260,task3,1261316,false,false,1561,image-keyboard-response,29
true,23,0,2,0,true,q,false,true,0.0-2.0-0.54-0.488-3.488,0,1,1,81,true,stim,false,0,772.6000000238419,2,1,2,79260,task3,1263614,false,false,1564,image-keyboard-response,1
true,23,2,2,1,false,z,false,false,0.0-2.0-0.54-0.489-3.489,0,1,1,68,false,stim,true,2,756.6999999880791,2,0,0,79260,task3,1265897,false,false,1567,image-keyboard-response,2
true,23,2,2,2,true,d,false,true,0.0-2.0-0.54-0.490-3.490,0,1,1,68,false,stim,false,2,1068.6000000238419,2,1,1,79260,task3,1268490,false,false,1570,image-keyboard-response,3
true,23,0,2,0,true,q,false,true,0.0-2.0-0.54-0.491-3.491,0,1,1,81,false,stim,false,0,771.0,2,1,2,79260,task3,1270796,false,false,1573,image-keyboard-response,4
true,23,2,2,1,false,z,false,false,0.0-2.0-0.54-0.492-3.492,0,1,1,68,false,stim,true,2,796.8000000119209,2,0,0,79260,task3,1273116,false,false,1576,image-keyboard-response,5
true,23,2,2,2,true,d,false,true,0.0-2.0-0.54-0.493-3.493,0,1,1,68,false,stim,false,2,1288.4000000357628,2,1,1,79260,task3,1275925,false,false,1579,image-keyboard-response,6
true,23,2,2,2,true,d,false,true,0.0-2.0-0.54-0.494-3.494,0,1,1,68,false,stim,false,2,874.6999999880791,2,0,1,79260,task3,1278328,false,false,1582,image-keyboard-response,7
true,23,0,2,0,true,q,false,true,0.0-2.0-0.55-0.495-3.495,0,1,1,81,false,stim,false,0,701.1999999880791,2,1,2,79260,task3,1280557,false,false,1585,image-keyboard-response,8
true,23,0,2,0,true,q,false,true,0.0-2.0-0.55-0.496-3.496,0,1,1,81,false,stim,false,0,873.0,2,1,2,79260,task3,1282958,false,false,1588,image-keyboard-response,9
true,23,1,2,1,true,z,false,true,0.0-2.0-0.55-0.497-3.497,0,1,1,90,false,stim,false,2,1163.699999988079,2,1,0,79260,task3,1285646,false,false,1591,image-keyboard-response,10
true,23,2,2,2,true,d,false,true,0.0-2.0-0.55-0.498-3.498,0,1,1,68,false,stim,false,2,896.2999999523163,2,0,1,79260,task3,1288070,false,false,1594,image-keyboard-response,11
true,24,2,2,0,false,q,false,true,0.0-2.0-0.55-0.499-3.499,1,0,1,68,true,stim,true,2,787.1999999880791,2,0,1,79260,task3,1290378,false,true,1597,image-keyboard-response,1
true,24,2,2,1,false,z,true,false,0.0-2.0-0.55-0.500-3.500,1,0,1,68,false,stim,false,1,2215.800000011921,2,1,0,79260,task3,1294116,false,false,1600,image-keyboard-response,2
true,24,0,2,0,true,q,false,true,0.0-2.0-0.55-0.501-3.501,1,0,1,81,false,stim,false,0,512.6999999880791,2,1,2,79260,task3,1296175,false,false,1603,image-keyboard-response,3
true,24,2,2,0,false,q,false,false,0.0-2.0-0.55-0.502-3.502,1,0,1,68,false,stim,true,2,604.8999999761581,2,0,1,79260,task3,1298306,false,false,1606,image-keyboard-response,4
true,24,1,2,1,true,z,false,true,0.0-2.0-0.55-0.503-3.503,1,0,1,90,false,stim,false,1,750.6000000238419,2,1,0,79260,task3,1300593,false,false,1609,image-keyboard-response,5
true,24,0,2,0,true,q,false,true,0.0-2.0-0.56-0.504-3.504,1,0,1,81,false,stim,false,0,882.8000000119209,2,1,2,79260,task3,1303006,false,false,1612,image-keyboard-response,6
true,24,2,2,0,false,q,false,false,0.0-2.0-0.56-0.505-3.505,1,0,1,68,false,stim,true,2,639.5,2,0,1,79260,task3,1305172,false,false,1615,image-keyboard-response,7
true,24,1,2,1,true,z,false,true,0.0-2.0-0.56-0.506-3.506,1,0,1,90,false,stim,false,1,965.0,2,1,0,79260,task3,1307667,false,false,1618,image-keyboard-response,8
true,24,0,2,1,false,z,true,false,0.0-2.0-0.56-0.507-3.507,1,0,1,81,false,stim,false,1,759.1000000238419,2,1,0,79260,task3,1309953,false,false,1621,image-keyboard-response,9
true,24,0,2,0,true,q,false,true,0.0-2.0-0.56-0.508-3.508,1,0,1,81,false,stim,false,0,507.5,2,1,2,79260,task3,1311985,false,false,1624,image-keyboard-response,10
true,24,0,2,0,true,q,false,true,0.0-2.0-0.56-0.509-3.509,1,0,1,81,false,stim,false,0,702.5,2,0,2,79260,task3,1314217,false,false,1627,image-keyboard-response,11
true,24,1,2,1,true,z,false,true,0.0-2.0-0.56-0.510-3.510,1,0,1,90,false,stim,false,1,833.1999999880791,2,0,0,79260,task3,1316585,false,false,1630,image-keyboard-response,12
true,24,0,2,0,true,q,false,true,0.0-2.0-0.56-0.511-3.511,1,0,1,81,false,stim,false,2,794.1000000238419,2,1,1,79260,task3,1318894,false,false,1633,image-keyboard-response,13
true,24,0,2,0,true,q,false,true,0.0-2.0-0.56-0.512-3.512,1,0,1,81,false,stim,false,2,743.1000000238419,2,1,1,79260,task3,1321177,false,false,1636,image-keyboard-response,14
true,24,1,2,1,true,z,false,true,0.0-2.0-0.57-0.513-3.513,1,0,1,90,false,stim,false,1,906.8999999761581,2,0,0,79260,task3,1323616,false,false,1639,image-keyboard-response,15
true,25,0,1,0,true,q,false,true,0.0-2.0-0.57-0.514-3.514,0,1,0,81,true,stim,false,0,712.3999999761581,2,1,1,79260,task3,1325849,false,false,1642,image-keyboard-response,1
true,25,0,1,2,false,d,false,false,0.0-2.0-0.57-0.515-3.515,0,1,0,81,false,stim,true,0,767.8000000119209,2,0,2,79260,task3,1328136,false,false,1645,image-keyboard-response,2
true,25,0,1,0,true,q,false,true,0.0-2.0-0.57-0.516-3.516,0,1,0,81,false,stim,false,0,890.8999999761581,2,1,1,79260,task3,1330559,false,false,1648,image-keyboard-response,3
true,25,0,1,2,false,d,false,false,0.0-2.0-0.57-0.517-3.517,0,1,0,81,false,stim,true,0,1247.800000011921,2,0,2,79260,task3,1333325,false,false,1651,image-keyboard-response,4
true,25,1,1,2,false,d,false,false,0.0-2.0-0.57-0.518-3.518,0,1,0,90,false,stim,true,1,901.5,2,0,0,79260,task3,1335759,false,false,1654,image-keyboard-response,5
true,25,2,1,2,true,d,false,true,0.0-2.0-0.57-0.519-3.519,0,1,0,68,false,stim,false,1,921.0,2,0,0,79260,task3,1338211,false,false,1657,image-keyboard-response,6
true,25,1,1,2,false,d,true,false,0.0-2.0-0.57-0.520-3.520,0,1,0,90,false,stim,false,0,673.3000000119209,2,0,2,79260,task3,1340420,false,false,1660,image-keyboard-response,7
true,25,1,1,0,false,q,true,false,0.0-2.0-0.57-0.521-3.521,0,1,0,90,false,stim,false,0,1084.300000011921,2,1,1,79260,task3,1343030,false,false,1663,image-keyboard-response,8
true,25,2,1,2,true,d,false,false,0.0-2.0-0.58-0.522-3.522,0,1,0,68,false,stim,false,0,959.8000000119209,2,1,2,79260,task3,1345505,false,true,1666,image-keyboard-response,9
true,25,0,1,0,true,q,false,true,0.0-2.0-0.58-0.523-3.523,0,1,0,81,false,stim,false,0,1005.5,2,1,1,79260,task3,1348030,false,false,1669,image-keyboard-response,10
true,25,2,1,2,true,d,false,true,0.0-2.0-0.58-0.524-3.524,0,1,0,68,false,stim,false,1,904.9000000357628,2,1,0,79260,task3,1350471,false,false,1672,image-keyboard-response,11
true,25,2,1,2,true,d,false,true,0.0-2.0-0.58-0.525-3.525,0,1,0,68,false,stim,false,1,909.0999999642372,2,1,0,79260,task3,1352917,false,false,1675,image-keyboard-response,12
true,26,0,0,2,false,d,true,false,0.0-2.0-0.58-0.526-3.526,1,1,1,81,true,stim,false,2,1110.2999999523163,2,1,2,79260,task3,1476843,false,false,1798,image-keyboard-response,1
true,26,1,0,2,false,d,true,false,0.0-2.0-0.58-0.527-3.527,1,1,1,90,false,stim,false,2,903.6999999880791,2,1,2,79260,task3,1479304,false,false,1801,image-keyboard-response,2
true,26,0,0,2,false,d,true,false,0.0-2.0-0.58-0.528-3.528,1,1,1,81,false,stim,false,2,1138.8999999761581,2,1,0,79260,task3,1481977,false,false,1804,image-keyboard-response,3
true,26,0,0,0,true,q,false,true,0.0-2.0-0.58-0.529-3.529,1,1,1,81,false,stim,false,0,921.3000000119209,2,1,1,79260,task3,1484417,false,false,1807,image-keyboard-response,4
true,26,0,0,0,true,q,false,true,0.0-2.0-0.58-0.530-3.530,1,1,1,81,false,stim,false,0,862.2000000476837,2,1,1,79260,task3,1486811,false,false,1810,image-keyboard-response,5
true,26,0,0,0,true,q,false,true,0.0-2.0-0.59-0.531-3.531,1,1,1,81,false,stim,false,0,1015.3999999761581,2,1,1,79260,task3,1489366,false,false,1813,image-keyboard-response,6
true,26,1,0,2,false,d,true,false,0.0-2.0-0.59-0.532-3.532,1,1,1,90,false,stim,false,2,872.3999999761581,2,1,0,79260,task3,1491779,false,false,1816,image-keyboard-response,7
true,26,2,0,2,true,d,false,true,0.0-2.0-0.59-0.533-3.533,1,1,1,68,false,stim,false,2,807.6000000238419,2,1,2,79260,task3,1494103,false,false,1819,image-keyboard-response,8
true,26,2,0,2,true,d,false,true,0.0-2.0-0.59-0.534-3.534,1,1,1,68,false,stim,false,2,772.5,2,1,2,79260,task3,1496397,false,false,1822,image-keyboard-response,9
true,26,2,0,2,true,d,false,true,0.0-2.0-0.59-0.535-3.535,1,1,1,68,false,stim,false,2,689.6999999880791,2,0,0,79260,task3,1498613,false,false,1825,image-keyboard-response,10
true,26,2,0,2,true,d,false,true,0.0-2.0-0.59-0.536-3.536,1,1,1,68,false,stim,false,2,775.9000000357628,2,0,0,79260,task3,1500905,false,false,1828,image-keyboard-response,11
true,26,0,0,0,true,q,false,true,0.0-2.0-0.59-0.537-3.537,1,1,1,81,false,stim,false,0,881.5,2,1,1,79260,task3,1503316,false,false,1831,image-keyboard-response,12
true,26,2,0,2,true,d,false,true,0.0-2.0-0.59-0.538-3.538,1,1,1,68,false,stim,false,2,816.3999999761581,2,1,2,79260,task3,1505658,false,false,1834,image-keyboard-response,13
true,26,0,0,0,true,q,false,true,0.0-2.0-0.59-0.539-3.539,1,1,1,81,false,stim,false,0,887.4000000357628,2,1,1,79260,task3,1508078,false,false,1837,image-keyboard-response,14
true,27,2,2,2,true,d,false,true,0.0-2.0-0.60-0.540-3.540,0,1,1,68,true,stim,false,2,852.7000000476837,2,1,2,79260,task3,1510454,false,false,1840,image-keyboard-response,1
true,27,2,2,2,true,d,false,true,0.0-2.0-0.60-0.541-3.541,0,1,1,68,false,stim,false,2,959.1999999880791,2,1,2,79260,task3,1512931,false,false,1843,image-keyboard-response,2
true,27,0,2,0,true,q,false,true,0.0-2.0-0.60-0.542-3.542,0,1,1,81,false,stim,false,0,1061.0,2,1,1,79260,task3,1515510,false,false,1846,image-keyboard-response,3
true,27,0,2,0,true,q,false,true,0.0-2.0-0.60-0.543-3.543,0,1,1,81,false,stim,false,0,833.7000000476837,2,1,1,79260,task3,1517859,false,false,1849,image-keyboard-response,4
true,27,2,2,1,false,z,false,false,0.0-2.0-0.60-0.544-3.544,0,1,1,68,false,stim,true,2,1017.0999999642372,2,0,0,79260,task3,1520406,false,false,1852,image-keyboard-response,5
true,27,0,2,0,true,q,false,true,0.0-2.0-0.60-0.545-3.545,0,1,1,81,false,stim,false,0,868.3999999761581,2,1,1,79260,task3,1522805,false,false,1855,image-keyboard-response,6
true,27,2,2,1,false,z,false,false,0.0-2.0-0.60-0.546-3.546,0,1,1,68,false,stim,true,2,768.1999999880791,2,0,0,79260,task3,1525098,false,false,1858,image-keyboard-response,7
true,27,2,2,2,true,d,false,true,0.0-2.0-0.60-0.547-3.547,0,1,1,68,false,stim,false,2,677.2000000476837,2,1,2,79260,task3,1527319,false,false,1861,image-keyboard-response,8
true,27,1,2,1,true,z,false,true,0.0-2.0-0.60-0.548-3.548,0,1,1,90,false,stim,false,2,709.3999999761581,2,0,0,79260,task3,1529552,false,false,1864,image-keyboard-response,9
true,27,2,2,2,true,d,false,true,0.0-2.0-0.61-0.549-3.549,0,1,1,68,false,stim,false,2,845.0,2,1,2,79260,task3,1531923,false,false,1867,image-keyboard-response,10
true,27,0,2,0,true,q,false,true,0.0-2.0-0.61-0.550-3.550,0,1,1,81,false,stim,false,0,870.0,2,0,1,79260,task3,1534317,false,false,1870,image-keyboard-response,11
true,27,1,2,1,true,z,false,true,0.0-2.0-0.61-0.551-3.551,0,1,1,90,false,stim,false,2,826.9000000357628,2,1,0,79260,task3,1536671,false,false,1873,image-keyboard-response,12
true,27,1,2,1,true,z,false,true,0.0-2.0-0.61-0.552-3.552,0,1,1,90,false,stim,false,2,697.3999999761581,2,1,0,79260,task3,1538901,false,false,1876,image-keyboard-response,13
true,27,2,2,2,true,d,false,true,0.0-2.0-0.61-0.553-3.553,0,1,1,68,false,stim,false,2,841.1000000238419,2,1,2,79260,task3,1541281,false,false,1879,image-keyboard-response,14
true,27,1,2,1,true,z,false,true,0.0-2.0-0.61-0.554-3.554,0,1,1,90,false,stim,false,2,1067.5,2,1,0,79260,task3,1543883,false,false,1882,image-keyboard-response,15
true,28,0,2,1,false,z,false,false,0.0-2.0-0.61-0.555-3.555,1,0,1,81,true,stim,true,0,898.4000000357628,2,0,1,79260,task3,1546308,false,false,1885,image-keyboard-response,1
true,28,0,2,1,false,z,false,true,0.0-2.0-0.61-0.556-3.556,1,0,1,81,false,stim,true,0,972.0,2,0,1,79260,task3,1548791,false,true,1888,image-keyboard-response,2
true,28,2,2,2,true,d,false,true,0.0-2.0-0.61-0.557-3.557,1,0,1,68,false,stim,false,2,854.1000000238419,2,1,2,79260,task3,1551173,false,false,1891,image-keyboard-response,3
true,28,0,2,1,false,z,false,false,0.0-2.0-0.62-0.558-3.558,1,0,1,81,false,stim,true,0,901.3000000119209,2,0,1,79260,task3,1553594,false,false,1894,image-keyboard-response,4
true,28,0,2,1,false,z,false,false,0.0-2.0-0.62-0.559-3.559,1,0,1,81,false,stim,true,0,705.0,2,0,1,79260,task3,1555823,false,false,1897,image-keyboard-response,5
true,28,2,2,2,true,d,false,true,0.0-2.0-0.62-0.560-3.560,1,0,1,68,false,stim,false,2,942.4000000357628,2,1,2,79260,task3,1558295,false,false,1900,image-keyboard-response,6
true,28,1,2,1,true,z,false,true,0.0-2.0-0.62-0.561-3.561,1,0,1,90,false,stim,false,1,829.5,2,1,0,79260,task3,1560679,false,false,1903,image-keyboard-response,7
true,28,2,2,2,true,d,false,true,0.0-2.0-0.62-0.562-3.562,1,0,1,68,false,stim,false,2,910.0,2,1,2,79260,task3,1563108,false,false,1906,image-keyboard-response,8
true,28,2,2,1,false,z,true,false,0.0-2.0-0.62-0.563-3.563,1,0,1,68,false,stim,false,0,772.7000000476837,2,1,1,79260,task3,1565408,false,false,1909,image-keyboard-response,9
true,28,2,2,2,true,d,false,true,0.0-2.0-0.62-0.564-3.564,1,0,1,68,false,stim,false,2,815.3000000119209,2,1,2,79260,task3,1567763,false,false,1912,image-keyboard-response,10
true,28,1,2,1,true,z,false,true,0.0-2.0-0.62-0.565-3.565,1,0,1,90,false,stim,false,1,878.9000000357628,2,0,0,79260,task3,1570175,false,false,1915,image-keyboard-response,11
true,28,1,2,1,true,z,false,true,0.0-2.0-0.62-0.566-3.566,1,0,1,90,false,stim,false,1,838.7999999523163,2,0,0,79260,task3,1572548,false,false,1918,image-keyboard-response,12
true,28,1,2,1,true,z,false,true,0.0-2.0-0.63-0.567-3.567,1,0,1,90,false,stim,false,0,878.4000000357628,2,1,1,79260,task3,1574959,false,false,1921,image-keyboard-response,13
true,29,2,2,2,true,d,false,true,0.0-2.0-0.63-0.568-3.568,0,1,1,68,true,stim,false,2,875.5999999642372,2,1,2,79260,task3,1577374,false,false,1924,image-keyboard-response,1
true,29,2,2,2,true,d,false,true,0.0-2.0-0.63-0.569-3.569,0,1,1,68,false,stim,false,2,742.5,2,1,2,79260,task3,1579653,false,false,1927,image-keyboard-response,2
true,29,1,2,0,false,q,false,false,0.0-2.0-0.63-0.570-3.570,0,1,1,90,false,stim,true,1,945.0,2,0,0,79260,task3,1582130,false,false,1930,image-keyboard-response,3
true,29,1,2,1,true,z,false,true,0.0-2.0-0.63-0.571-3.571,0,1,1,90,false,stim,false,1,877.3000000119209,2,1,1,79260,task3,1584532,false,false,1933,image-keyboard-response,4
true,29,1,2,1,true,z,false,true,0.0-2.0-0.63-0.572-3.572,0,1,1,90,false,stim,false,1,1024.0999999642372,2,1,1,79260,task3,1587085,false,false,1936,image-keyboard-response,5
true,29,2,2,2,true,d,false,true,0.0-2.0-0.63-0.573-3.573,0,1,1,68,false,stim,false,2,766.0,2,1,2,79260,task3,1589387,false,false,1939,image-keyboard-response,6
true,29,1,2,0,false,q,false,false,0.0-2.0-0.63-0.574-3.574,0,1,1,90,false,stim,true,1,875.6000000238419,2,0,0,79260,task3,1591793,false,false,1942,image-keyboard-response,7
true,29,0,2,0,true,q,false,true,0.0-2.0-0.63-0.575-3.575,0,1,1,81,false,stim,false,1,756.3000000119209,2,0,0,79260,task3,1594067,false,false,1945,image-keyboard-response,8
true,29,1,2,1,true,z,false,true,0.0-2.0-0.64-0.576-3.576,0,1,1,90,false,stim,false,1,1168.800000011921,2,1,1,79260,task3,1596757,false,false,1948,image-keyboard-response,9
true,29,2,2,2,true,d,false,true,0.0-2.0-0.64-0.577-3.577,0,1,1,68,false,stim,false,2,828.2999999523163,2,1,2,79260,task3,1599104,false,false,1951,image-keyboard-response,10
true,29,0,2,0,true,q,false,true,0.0-2.0-0.64-0.578-3.578,0,1,1,81,false,stim,false,1,1136.3999999761581,2,1,0,79260,task3,1601779,false,false,1954,image-keyboard-response,11
true,29,2,2,2,true,d,false,true,0.0-2.0-0.64-0.579-3.579,0,1,1,68,false,stim,false,2,894.3000000119209,2,0,2,79260,task3,1604207,false,false,1957,image-keyboard-response,12
true,29,1,2,1,true,z,false,true,0.0-2.0-0.64-0.580-3.580,0,1,1,90,false,stim,false,1,1185.8999999761581,2,1,1,79260,task3,1606918,false,false,1960,image-keyboard-response,13
true,29,0,2,0,true,q,false,true,0.0-2.0-0.64-0.581-3.581,0,1,1,81,false,stim,false,1,1125.0,2,1,0,79260,task3,1609583,false,false,1963,image-keyboard-response,14
true,29,2,2,2,true,d,false,true,0.0-2.0-0.64-0.582-3.582,0,1,1,68,false,stim,false,2,1130.3999999761581,2,0,2,79260,task3,1612243,false,false,1966,image-keyboard-response,15
true,30,1,2,1,true,z,false,false,0.0-2.0-0.64-0.583-3.583,1,1,0,90,true,stim,false,1,831.6999999880791,2,1,1,79260,task3,1614601,false,true,1969,image-keyboard-response,1
true,30,0,2,0,true,q,false,true,0.0-2.0-0.64-0.584-3.584,1,1,0,81,false,stim,false,0,973.5,2,1,0,79260,task3,1617106,false,false,1972,image-keyboard-response,2
true,30,1,2,1,true,z,false,true,0.0-2.0-0.65-0.585-3.585,1,1,0,90,false,stim,false,1,753.5,2,1,1,79260,task3,1619380,false,false,1975,image-keyboard-response,3
true,30,1,2,1,true,z,false,true,0.0-2.0-0.65-0.586-3.586,1,1,0,90,false,stim,false,1,816.6000000238419,2,1,1,79260,task3,1621726,false,false,1978,image-keyboard-response,4
true,30,1,2,1,true,z,false,false,0.0-2.0-0.65-0.587-3.587,1,1,0,90,false,stim,false,1,842.6999999880791,2,1,1,79260,task3,1624086,false,true,1981,image-keyboard-response,5
true,30,2,2,0,false,q,false,false,0.0-2.0-0.65-0.588-3.588,1,1,0,68,false,stim,true,2,697.1999999880791,2,0,2,79260,task3,1626321,false,false,1984,image-keyboard-response,6
true,30,0,2,0,true,q,false,true,0.0-2.0-0.65-0.589-3.589,1,1,0,81,false,stim,false,0,771.5,2,1,0,79260,task3,1628619,false,false,1987,image-keyboard-response,7
true,30,0,2,0,true,q,false,true,0.0-2.0-0.65-0.590-3.590,1,1,0,81,false,stim,false,0,884.6000000238419,2,1,0,79260,task3,1631039,false,false,1990,image-keyboard-response,8
