answered,blockNum,choice,condition,corResp,correct,correct_response,explo,fb,internal_node_id,isStable_1,isStable_2,isStable_3,key_press,newBlock,part,persev,persevResp,rt,sessNum,stableAS,stimulus,subject,task,time_elapsed,training,trap,trial_index,trial_type,trialsInBlock
true,1,0,0,2,false,d,true,false,0.0-2.0-0.0-0.0-3.0,0,0,0,81,true,stim,false,-1,803.0,1,0,0,79260,task2,180606,false,false,85,image-keyboard-response,1
true,1,0,0,0,true,q,false,true,0.0-2.0-0.0-0.1-3.1,0,0,0,81,false,stim,false,-1,702.6999999880791,1,0,1,79260,task2,182824,false,false,88,image-keyboard-response,2
true,1,0,0,0,true,q,false,true,0.0-2.0-0.0-0.2-3.2,0,0,0,81,false,stim,false,-1,592.1999999880791,1,0,1,79260,task2,184943,false,false,91,image-keyboard-response,3
true,1,1,0,0,false,q,true,false,0.0-2.0-0.0-0.3-3.3,0,0,0,90,false,stim,false,-1,945.5,1,0,2,79260,task2,187408,false,false,94,image-keyboard-response,4
true,1,0,0,0,true,q,false,true,0.0-2.0-0.0-0.4-3.4,0,0,0,81,false,stim,false,-1,505.0,1,0,1,79260,task2,189426,false,false,97,image-keyboard-response,5
true,1,1,0,2,false,d,true,false,0.0-2.0-0.0-0.5-3.5,0,0,0,90,false,stim,false,-1,858.3999999761581,1,0,0,79260,task2,191817,false,false,100,image-keyboard-response,6
true,1,2,0,2,true,d,false,true,0.0-2.0-0.0-0.6-3.6,0,0,0,68,false,stim,false,-1,593.3000000119209,1,0,0,79260,task2,193925,false,false,103,image-keyboard-response,7
true,1,0,0,0,true,q,false,true,0.0-2.0-0.0-0.7-3.7,0,0,0,81,false,stim,false,-1,551.0,1,0,2,79260,task2,196004,false,false,106,image-keyboard-response,8
true,1,0,0,0,true,q,false,true,0.0-2.0-0.0-0.8-3.8,0,0,0,81,false,stim,false,-1,600.3999999761581,1,0,2,79260,task2,198119,false,false,109,image-keyboard-response,9
true,1,2,0,2,true,d,false,false,0.0-2.0-0.1-0.9-3.9,0,0,0,68,false,stim,false,-1,819.6999999880791,1,0,0,79260,task2,200452,false,true,112,image-keyboard-response,10
true,1,0,0,0,true,q,false,true,0.0-2.0-0.1-0.10-3.10,0,0,0,81,false,stim,false,-1,703.3999999761581,1,0,2,79260,task2,202685,false,false,115,image-keyboard-response,11
true,1,2,0,2,true,d,false,true,0.0-2.0-0.1-0.11-3.11,0,0,0,68,false,stim,false,-1,593.0999999940395,1,0,0,79260,task2,204806,false,false,118,image-keyboard-response,12
true,1,2,0,0,false,q,true,false,0.0-2.0-0.1-0.12-3.12,0,0,0,68,false,stim,false,-1,515.5,1,0,1,79260,task2,206843,false,false,121,image-keyboard-response,13
true,1,2,0,2,true,d,false,true,0.0-2.0-0.1-0.13-3.13,0,0,0,68,false,stim,false,-1,740.6000000238419,1,0,0,79260,task2,209111,false,false,124,image-keyboard-response,14
true,1,0,0,0,true,q,false,true,0.0-2.0-0.1-0.14-3.14,0,0,0,81,false,stim,false,-1,632.0,1,0,2,79260,task2,211265,false,false,127,image-keyboard-response,15
true,1,0,0,0,true,q,false,true,0.0-2.0-0.1-0.15-3.15,0,0,0,81,false,stim,false,-1,496.89999997615814,1,0,2,79260,task2,213283,false,false,130,image-keyboard-response,16
true,1,0,0,0,true,q,false,true,0.0-2.0-0.1-0.16-3.16,0,0,0,81,false,stim,false,-1,369.0,1,0,1,79260,task2,215179,false,false,133,image-keyboard-response,17
true,1,0,0,0,true,q,false,true,0.0-2.0-0.1-0.17-3.17,0,0,0,81,false,stim,false,-1,718.0,1,0,1,79260,task2,217409,false,false,136,image-keyboard-response,18
true,1,0,0,0,true,q,false,true,0.0-2.0-0.2-0.18-3.18,0,0,0,81,false,stim,false,-1,394.2999999821186,1,0,1,79260,task2,219335,false,false,139,image-keyboard-response,19
true,1,2,0,2,true,d,false,true,0.0-2.0-0.2-0.19-3.19,0,0,0,68,false,stim,false,-1,1043.199999988079,1,0,0,79260,task2,221908,false,false,142,image-keyboard-response,20
true,1,0,0,0,true,q,false,true,0.0-2.0-0.2-0.20-3.20,0,0,0,81,false,stim,false,-1,768.5,1,0,2,79260,task2,224190,false,false,145,image-keyboard-response,21
true,1,0,0,0,true,q,false,true,0.0-2.0-0.2-0.21-3.21,0,0,0,81,false,stim,false,-1,820.1999999880791,1,0,1,79260,task2,226534,false,false,148,image-keyboard-response,22
true,1,0,0,0,true,q,false,true,0.0-2.0-0.2-0.22-3.22,0,0,0,81,false,stim,false,-1,526.5,1,0,2,79260,task2,228592,false,false,151,image-keyboard-response,23
true,1,0,0,0,true,q,false,true,0.0-2.0-0.2-0.23-3.23,0,0,0,81,false,stim,false,-1,751.5,1,0,1,79260,task2,230859,false,false,154,image-keyboard-response,24
true,1,0,0,0,true,q,false,true,0.0-2.0-0.2-0.24-3.24,0,0,0,81,false,stim,false,-1,454.7999999821186,1,0,2,79260,task2,232839,false,false,157,image-keyboard-response,25
true,1,2,0,2,true,d,false,true,0.0-2.0-0.2-0.25-3.25,0,0,0,68,false,stim,false,-1,511.40000000596046,1,0,0,79260,task2,234863,false,false,160,image-keyboard-response,26
true,2,2,1,1,false,z,false,false,0.0-2.0-0.2-0.26-3.26,0,0,0,68,true,stim,true,2,459.60000002384186,1,0,0,79260,task2,236846,false,false,163,image-keyboard-response,1
true,2,0,1,1,false,z,false,false,0.0-2.0-0.3-0.27-3.27,0,0,0,81,false,stim,true,0,538.9000000059605,1,0,2,79260,task2,238912,false,false,166,image-keyboard-response,2
true,2,2,1,1,false,z,false,false,0.0-2.0-0.3-0.28-3.28,0,0,0,68,false,stim,true,2,537.3000000119209,1,0,0,79260,task2,240976,false,false,169,image-keyboard-response,3
true,2,1,1,1,true,z,false,true,0.0-2.0-0.3-0.29-3.29,0,0,0,90,false,stim,false,2,500.40000000596046,1,0,0,79260,task2,242991,false,false,172,image-keyboard-response,4
true,2,1,1,1,true,z,false,true,0.0-2.0-0.3-0.30-3.30,0,0,0,90,false,stim,false,0,673.1999999880791,1,0,2,79260,task2,245185,false,false,175,image-keyboard-response,5
true,2,0,1,2,false,d,false,false,0.0-2.0-0.3-0.31-3.31,0,0,0,81,false,stim,true,0,404.0,1,0,1,79260,task2,247117,false,false,178,image-keyboard-response,6
true,2,0,1,2,false,d,false,false,0.0-2.0-0.3-0.32-3.32,0,0,0,81,false,stim,true,0,593.5999999940395,1,0,1,79260,task2,249237,false,false,181,image-keyboard-response,7
true,2,1,1,1,true,z,false,true,0.0-2.0-0.3-0.33-3.33,0,0,0,90,false,stim,false,2,611.3000000119209,1,0,0,79260,task2,251368,false,false,184,image-keyboard-response,8
true,2,2,1,2,true,d,false,true,0.0-2.0-0.3-0.34-3.34,0,0,0,68,false,stim,false,0,802.9000000059605,1,0,1,79260,task2,253697,false,false,187,image-keyboard-response,9
true,2,1,1,1,true,z,false,true,0.0-2.0-0.3-0.35-3.35,0,0,0,90,false,stim,false,0,431.0,1,0,2,79260,task2,255639,false,false,190,image-keyboard-response,10
true,2,1,1,1,true,z,false,true,0.0-2.0-0.4-0.36-3.36,0,0,0,90,false,stim,false,2,570.5999999940395,1,0,0,79260,task2,257733,false,false,193,image-keyboard-response,11
true,2,1,1,1,true,z,false,true,0.0-2.0-0.4-0.37-3.37,0,0,0,90,false,stim,false,2,407.80000001192093,1,0,0,79260,task2,259669,false,false,196,image-keyboard-response,12
true,2,1,1,1,true,z,false,true,0.0-2.0-0.4-0.38-3.38,0,0,0,90,false,stim,false,0,679.0,1,0,2,79260,task2,261880,false,false,199,image-keyboard-response,13
true,2,1,1,1,true,z,false,true,0.0-2.0-0.4-0.39-3.39,0,0,0,90,false,stim,false,0,518.4000000059605,1,0,2,79260,task2,263917,false,false,202,image-keyboard-response,14
true,2,2,1,2,true,d,false,true,0.0-2.0-0.4-0.40-3.40,0,0,0,68,false,stim,false,0,514.7000000178814,1,0,1,79260,task2,265944,false,false,205,image-keyboard-response,15
true,2,2,1,2,true,d,false,true,0.0-2.0-0.4-0.41-3.41,0,0,0,68,false,stim,false,0,748.5,1,0,1,79260,task2,268214,false,false,208,image-keyboard-response,16
true,2,1,1,1,true,z,false,true,0.0-2.0-0.4-0.42-3.42,0,0,0,90,false,stim,false,0,496.80000001192093,1,0,2,79260,task2,270221,false,false,211,image-keyboard-response,17
true,2,1,1,2,false,d,true,false,0.0-2.0-0.4-0.43-3.43,0,0,0,90,false,stim,false,0,428.39999997615814,1,0,1,79260,task2,272179,false,false,214,image-keyboard-response,18
true,2,1,1,1,true,z,false,true,0.0-2.0-0.4-0.44-3.44,0,0,0,90,false,stim,false,2,405.80000001192093,1,0,0,79260,task2,274116,false,false,217,image-keyboard-response,19
true,2,2,1,2,true,d,false,true,0.0-2.0-0.5-0.45-3.45,0,0,0,68,false,stim,false,0,508.40000000596046,1,0,1,79260,task2,276166,false,false,220,image-keyboard-response,20
true,2,1,1,1,true,z,false,true,0.0-2.0-0.5-0.46-3.46,0,0,0,90,false,stim,false,2,638.9000000059605,1,0,0,79260,task2,278318,false,false,223,image-keyboard-response,21
true,2,1,1,1,true,z,false,true,0.0-2.0-0.5-0.47-3.47,0,0,0,90,false,stim,false,2,471.90000000596046,1,0,0,79260,task2,280303,false,false,226,image-keyboard-response,22
true,2,1,1,1,true,z,false,true,0.0-2.0-0.5-0.48-3.48,0,0,0,90,false,stim,false,0,682.5,1,0,2,79260,task2,282513,false,false,229,image-keyboard-response,23
true,2,1,1,1,true,z,false,true,0.0-2.0-0.5-0.49-3.49,0,0,0,90,false,stim,false,2,576.5,1,0,0,79260,task2,284602,false,false,232,image-keyboard-response,24
true,2,1,1,1,true,z,false,true,0.0-2.0-0.5-0.50-3.50,0,0,0,90,false,stim,false,0,764.2000000178814,1,0,2,79260,task2,286874,false,false,235,image-keyboard-response,25
true,2,2,1,2,true,d,false,true,0.0-2.0-0.5-0.51-3.51,0,0,0,68,false,stim,false,0,459.40000000596046,1,0,1,79260,task2,288854,false,false,238,image-keyboard-response,26
true,2,1,1,1,true,z,false,true,0.0-2.0-0.5-0.52-3.52,0,0,0,90,false,stim,false,0,830.9000000059605,1,0,2,79260,task2,291204,false,false,241,image-keyboard-response,27
true,2,1,1,2,false,d,true,false,0.0-2.0-0.5-0.53-3.53,0,0,0,90,false,stim,false,0,836.2000000178814,1,0,1,79260,task2,293566,false,false,244,image-keyboard-response,28
true,2,2,1,2,true,d,false,true,0.0-2.0-0.6-0.54-3.54,0,0,0,68,false,stim,false,0,463.0,1,0,1,79260,task2,295546,false,false,247,image-keyboard-response,29
true,2,2,1,2,true,d,false,true,0.0-2.0-0.6-0.55-3.55,0,0,0,68,false,stim,false,0,541.3000000119209,1,0,1,79260,task2,297606,false,false,250,image-keyboard-response,30
true,2,1,1,1,true,z,false,true,0.0-2.0-0.6-0.56-3.56,0,0,0,90,false,stim,false,0,609.8000000119209,1,0,2,79260,task2,299746,false,false,253,image-keyboard-response,31
true,2,1,1,1,true,z,false,true,0.0-2.0-0.6-0.57-3.57,0,0,0,90,false,stim,false,0,464.0,1,0,2,79260,task2,301742,false,false,256,image-keyboard-response,32
true,2,1,1,1,true,z,false,true,0.0-2.0-0.6-0.58-3.58,0,0,0,90,false,stim,false,2,684.0,1,0,0,79260,task2,303944,false,false,259,image-keyboard-response,33
true,2,2,1,2,true,d,false,true,0.0-2.0-0.6-0.59-3.59,0,0,0,68,false,stim,false,0,920.0,1,0,1,79260,task2,306385,false,false,262,image-keyboard-response,34
true,2,1,1,1,true,z,false,true,0.0-2.0-0.6-0.60-3.60,0,0,0,90,false,stim,false,0,650.5,1,0,2,79260,task2,308552,false,false,265,image-keyboard-response,35
true,2,1,1,1,true,z,false,true,0.0-2.0-0.6-0.61-3.61,0,0,0,90,false,stim,false,2,676.0999999940395,1,0,0,79260,task2,310747,false,false,268,image-keyboard-response,36
true,2,1,1,1,true,z,false,true,0.0-2.0-0.6-0.62-3.62,0,0,0,90,false,stim,false,2,520.3000000119209,1,0,0,79260,task2,312785,false,false,271,image-keyboard-response,37
true,2,1,1,1,true,z,false,true,0.0-2.0-0.7-0.63-3.63,0,0,0,90,false,stim,false,2,392.40000000596046,1,0,0,79260,task2,314697,false,false,274,image-keyboard-response,38
true,3,2,1,0,false,q,false,false,0.0-2.0-0.7-0.64-3.64,0,0,0,68,true,stim,true,2,668.3000000119209,1,0,1,79260,task2,316894,false,false,277,image-keyboard-response,1
true,3,1,1,2,false,d,false,false,0.0-2.0-0.7-0.65-3.65,0,0,0,90,false,stim,true,1,554.0,1,0,2,79260,task2,318970,false,false,280,image-keyboard-response,2
true,3,1,1,0,false,q,false,false,0.0-2.0-0.7-0.66-3.66,0,0,0,90,false,stim,true,1,918.5999999940395,1,0,0,79260,task2,321424,false,false,283,image-keyboard-response,3
true,3,1,1,0,false,q,false,false,0.0-2.0-0.7-0.67-3.67,0,0,0,90,false,stim,true,1,594.5,1,0,0,79260,task2,323545,false,false,286,image-keyboard-response,4
true,3,0,1,2,false,d,true,true,0.0-2.0-0.7-0.68-3.68,0,0,0,81,false,stim,false,1,1040.2999999821186,1,0,2,79260,task2,326102,false,true,289,image-keyboard-response,5
true,3,0,1,0,true,q,false,false,0.0-2.0-0.7-0.69-3.69,0,0,0,81,false,stim,false,2,860.7000000178814,1,0,1,79260,task2,328484,false,true,292,image-keyboard-response,6
true,3,2,1,0,false,q,false,false,0.0-2.0-0.7-0.70-3.70,0,0,0,68,false,stim,true,2,591.6999999880791,1,0,1,79260,task2,330604,false,false,295,image-keyboard-response,7
true,3,0,1,2,false,d,true,false,0.0-2.0-0.7-0.71-3.71,0,0,0,81,false,stim,false,1,638.0,1,0,2,79260,task2,332776,false,false,298,image-keyboard-response,8
true,3,1,1,0,false,q,true,false,0.0-2.0-0.8-0.72-3.72,0,0,0,90,false,stim,false,2,990.5999999940395,1,0,1,79260,task2,335296,false,false,301,image-keyboard-response,9
true,3,0,1,2,false,d,true,true,0.0-2.0-0.8-0.73-3.73,0,0,0,81,false,stim,false,1,535.9000000059605,1,0,2,79260,task2,337346,false,true,304,image-keyboard-response,10
true,3,2,1,0,false,q,true,false,0.0-2.0-0.8-0.74-3.74,0,0,0,68,false,stim,false,1,972.0,1,0,0,79260,task2,339838,false,false,307,image-keyboard-response,11
true,3,0,1,2,false,d,true,false,0.0-2.0-0.8-0.75-3.75,0,0,0,81,false,stim,false,1,870.0999999940395,1,0,2,79260,task2,342230,false,false,310,image-keyboard-response,12
true,3,1,1,0,false,q,true,false,0.0-2.0-0.8-0.76-3.76,0,0,0,90,false,stim,false,2,912.0999999940395,1,0,1,79260,task2,344671,false,false,313,image-keyboard-response,13
true,3,0,1,2,false,d,true,false,0.0-2.0-0.8-0.77-3.77,0,0,0,81,false,stim,false,1,610.2999999821186,1,0,2,79260,task2,346808,false,false,316,image-keyboard-response,14
true,3,0,1,0,true,q,false,true,0.0-2.0-0.8-0.78-3.78,0,0,0,81,false,stim,false,1,993.3999999761581,1,0,0,79260,task2,349322,false,false,319,image-keyboard-response,15
true,3,2,1,0,false,q,false,false,0.0-2.0-0.8-0.79-3.79,0,0,0,68,false,stim,true,2,1249.5,1,0,1,79260,task2,352098,false,false,322,image-keyboard-response,16
true,3,0,1,0,true,q,false,true,0.0-2.0-0.8-0.80-3.80,0,0,0,81,false,stim,false,1,767.9000000059605,1,0,0,79260,task2,354393,false,false,325,image-keyboard-response,17
true,3,0,1,0,true,q,false,true,0.0-2.0-0.9-0.81-3.81,0,0,0,81,false,stim,false,1,654.0,1,0,0,79260,task2,356578,false,false,328,image-keyboard-response,18
true,3,0,1,2,false,d,true,false,0.0-2.0-0.9-0.82-3.82,0,0,0,81,false,stim,false,1,1679.7000000178814,1,0,2,79260,task2,359769,false,false,331,image-keyboard-response,19
true,3,2,1,2,true,d,false,true,0.0-2.0-0.9-0.83-3.83,0,0,0,68,false,stim,false,1,556.0,1,0,2,79260,task2,361862,false,false,334,image-keyboard-response,20
true,3,2,1,2,true,d,false,false,0.0-2.0-0.9-0.84-3.84,0,0,0,68,false,stim,false,1,536.5,1,0,2,79260,task2,363912,false,true,337,image-keyboard-response,21
true,3,0,1,0,true,q,false,true,0.0-2.0-0.9-0.85-3.85,0,0,0,81,false,stim,false,1,1131.199999988079,1,0,0,79260,task2,366562,false,false,340,image-keyboard-response,22
true,3,0,1,0,true,q,false,true,0.0-2.0-0.9-0.86-3.86,0,0,0,81,false,stim,false,1,464.30000001192093,1,0,0,79260,task2,368545,false,false,343,image-keyboard-response,23
true,3,1,1,0,false,q,true,false,0.0-2.0-0.9-0.87-3.87,0,0,0,90,false,stim,false,2,1324.9000000059605,1,0,1,79260,task2,371404,false,false,346,image-keyboard-response,24
true,3,0,1,0,true,q,false,true,0.0-2.0-0.9-0.88-3.88,0,0,0,81,false,stim,false,2,558.8000000119209,1,0,1,79260,task2,373483,false,false,349,image-keyboard-response,25
true,3,0,1,0,true,q,false,false,0.0-2.0-0.9-0.89-3.89,0,0,0,81,false,stim,false,2,391.2000000178814,1,0,1,79260,task2,375396,false,true,352,image-keyboard-response,26
true,3,0,1,0,true,q,false,true,0.0-2.0-0.10-0.90-3.90,0,0,0,81,false,stim,false,1,437.0,1,0,0,79260,task2,377360,false,false,355,image-keyboard-response,27
true,3,0,1,0,true,q,false,true,0.0-2.0-0.10-0.91-3.91,0,0,0,81,false,stim,false,1,540.2000000178814,1,0,0,79260,task2,379424,false,false,358,image-keyboard-response,28
true,3,0,1,0,true,q,false,true,0.0-2.0-0.10-0.92-3.92,0,0,0,81,false,stim,false,1,407.5,1,0,0,79260,task2,381359,false,false,361,image-keyboard-response,29
true,3,0,1,0,true,q,false,true,0.0-2.0-0.10-0.93-3.93,0,0,0,81,false,stim,false,2,492.5,1,0,1,79260,task2,383372,false,false,364,image-keyboard-response,30
true,3,2,1,2,true,d,false,true,0.0-2.0-0.10-0.94-3.94,0,0,0,68,false,stim,false,1,472.0,1,0,2,79260,task2,385366,false,false,367,image-keyboard-response,31
true,3,0,1,0,true,q,false,true,0.0-2.0-0.10-0.95-3.95,0,0,0,81,false,stim,false,2,627.8999999761581,1,0,1,79260,task2,387510,false,false,370,image-keyboard-response,32
true,3,2,1,2,true,d,false,false,0.0-2.0-0.10-0.96-3.96,0,0,0,68,false,stim,false,1,1209.199999988079,1,0,2,79260,task2,390248,false,true,373,image-keyboard-response,33
true,3,0,1,2,false,d,true,false,0.0-2.0-0.10-0.97-3.97,0,0,0,81,false,stim,false,1,921.7999999821186,1,0,2,79260,task2,392694,false,false,376,image-keyboard-response,34
true,3,0,1,0,true,q,false,true,0.0-2.0-0.10-0.98-3.98,0,0,0,81,false,stim,false,2,905.0,1,0,1,79260,task2,395106,false,false,379,image-keyboard-response,35
true,4,0,1,2,false,d,false,false,0.0-2.0-0.11-0.99-3.99,0,0,0,81,true,stim,true,0,441.80000001192093,1,0,0,79260,task2,397066,false,false,382,image-keyboard-response,1
true,4,0,1,2,false,d,false,false,0.0-2.0-0.11-0.100-3.100,0,0,0,81,false,stim,true,0,763.3000000119209,1,0,1,79260,task2,399356,false,false,385,image-keyboard-response,2
true,4,2,1,1,false,z,false,false,0.0-2.0-0.11-0.101-3.101,0,0,0,68,false,stim,true,2,492.19999998807907,1,0,2,79260,task2,401364,false,false,388,image-keyboard-response,3
true,4,1,1,1,true,z,false,true,0.0-2.0-0.11-0.102-3.102,0,0,0,90,false,stim,false,2,574.1999999880791,1,0,2,79260,task2,403449,false,false,391,image-keyboard-response,4
true,4,1,1,2,false,d,true,false,0.0-2.0-0.11-0.103-3.103,0,0,0,90,false,stim,false,0,422.39999997615814,1,0,1,79260,task2,405395,false,false,394,image-keyboard-response,5
true,4,1,1,1,true,z,false,true,0.0-2.0-0.11-0.104-3.104,0,0,0,90,false,stim,false,2,546.4000000059605,1,0,2,79260,task2,407466,false,false,397,image-keyboard-response,6
true,4,2,1,2,true,d,false,true,0.0-2.0-0.11-0.105-3.105,0,0,0,68,false,stim,false,0,1085.5999999940395,1,0,0,79260,task2,410062,false,false,400,image-keyboard-response,7
true,4,2,1,2,true,d,false,true,0.0-2.0-0.11-0.106-3.106,0,0,0,68,false,stim,false,0,723.3000000119209,1,0,0,79260,task2,412318,false,false,403,image-keyboard-response,8
true,4,0,1,2,false,d,false,false,0.0-2.0-0.11-0.107-3.107,0,0,0,81,false,stim,true,0,729.4000000059605,1,0,1,79260,task2,414573,false,false,406,image-keyboard-response,9
true,4,1,1,2,false,d,true,false,0.0-2.0-0.12-0.108-3.108,0,0,0,90,false,stim,false,0,838.8999999761581,1,0,1,79260,task2,416928,false,false,409,image-keyboard-response,10
true,4,2,1,2,true,d,false,true,0.0-2.0-0.12-0.109-3.109,0,0,0,68,false,stim,false,0,557.0999999940395,1,0,1,79260,task2,419002,false,false,412,image-keyboard-response,11
true,4,2,1,2,true,d,false,true,0.0-2.0-0.12-0.110-3.110,0,0,0,68,false,stim,false,0,407.0,1,0,0,79260,task2,420914,false,false,415,image-keyboard-response,12
true,4,0,1,1,false,z,true,false,0.0-2.0-0.12-0.111-3.111,0,0,0,81,false,stim,false,2,1246.4000000059605,1,0,2,79260,task2,423679,false,false,418,image-keyboard-response,13
true,4,2,1,1,false,z,false,false,0.0-2.0-0.12-0.112-3.112,0,0,0,68,false,stim,true,2,617.1999999880791,1,0,2,79260,task2,425820,false,false,421,image-keyboard-response,14
true,4,1,1,1,true,z,false,true,0.0-2.0-0.12-0.113-3.113,0,0,0,90,false,stim,false,2,763.6999999880791,1,0,2,79260,task2,428106,false,false,424,image-keyboard-response,15
true,4,2,1,2,true,d,false,true,0.0-2.0-0.12-0.114-3.114,0,0,0,68,false,stim,false,0,790.5,1,0,0,79260,task2,430406,false,false,427,image-keyboard-response,16
true,4,2,1,2,true,d,false,true,0.0-2.0-0.12-0.115-3.115,0,0,0,68,false,stim,false,0,790.5,1,0,0,79260,task2,432731,false,false,430,image-keyboard-response,17
true,4,1,1,2,false,d,true,false,0.0-2.0-0.12-0.116-3.116,0,0,0,90,false,stim,false,0,486.7000000178814,1,0,1,79260,task2,434752,false,false,433,image-keyboard-response,18
true,4,2,1,2,true,d,false,false,0.0-2.0-0.13-0.117-3.117,0,0,0,68,false,stim,false,0,827.7000000178814,1,0,0,79260,task2,437094,false,true,436,image-keyboard-response,19
true,4,2,1,2,true,d,false,true,0.0-2.0-0.13-0.118-3.118,0,0,0,68,false,stim,false,0,452.0,1,0,0,79260,task2,439070,false,false,439,image-keyboard-response,20
true,4,2,1,2,true,d,false,true,0.0-2.0-0.13-0.119-3.119,0,0,0,68,false,stim,false,0,698.0999999940395,1,0,1,79260,task2,441293,false,false,442,image-keyboard-response,21
true,4,2,1,2,true,d,false,true,0.0-2.0-0.13-0.120-3.120,0,0,0,68,false,stim,false,0,395.2000000178814,1,0,1,79260,task2,443213,false,false,445,image-keyboard-response,22
true,4,2,1,2,true,d,false,true,0.0-2.0-0.13-0.121-3.121,0,0,0,68,false,stim,false,0,464.40000000596046,1,0,1,79260,task2,445195,false,false,448,image-keyboard-response,23
true,4,1,1,1,true,z,false,true,0.0-2.0-0.13-0.122-3.122,0,0,0,90,false,stim,false,2,681.9000000059605,1,0,2,79260,task2,447403,false,false,451,image-keyboard-response,24
true,4,2,1,2,true,d,false,true,0.0-2.0-0.13-0.123-3.123,0,0,0,68,false,stim,false,0,570.5999999940395,1,0,0,79260,task2,449496,false,false,454,image-keyboard-response,25
true,4,1,1,1,true,z,false,true,0.0-2.0-0.13-0.124-3.124,0,0,0,90,false,stim,false,2,1204.199999988079,1,0,2,79260,task2,452226,false,false,457,image-keyboard-response,26
true,4,1,1,1,true,z,false,true,0.0-2.0-0.13-0.125-3.125,0,0,0,90,false,stim,false,2,458.80000001192093,1,0,2,79260,task2,454212,false,false,460,image-keyboard-response,27
true,4,2,1,2,true,d,false,true,0.0-2.0-0.14-0.126-3.126,0,0,0,68,false,stim,false,0,544.3000000119209,1,0,1,79260,task2,456275,false,false,463,image-keyboard-response,28
true,4,1,1,1,true,z,false,true,0.0-2.0-0.14-0.127-3.127,0,0,0,90,false,stim,false,2,748.7999999821186,1,0,2,79260,task2,458545,false,false,466,image-keyboard-response,29
true,4,2,1,2,true,d,false,true,0.0-2.0-0.14-0.128-3.128,0,0,0,68,false,stim,false,0,635.3000000119209,1,0,0,79260,task2,460707,false,false,469,image-keyboard-response,30
true,4,1,1,1,true,z,false,false,0.0-2.0-0.14-0.129-3.129,0,0,0,90,false,stim,false,2,651.1999999880791,1,0,2,79260,task2,462890,false,true,472,image-keyboard-response,31
true,4,2,1,2,true,d,false,true,0.0-2.0-0.14-0.130-3.130,0,0,0,68,false,stim,false,0,681.6000000238419,1,0,0,79260,task2,465096,false,false,475,image-keyboard-response,32
true,4,2,1,2,true,d,false,true,0.0-2.0-0.14-0.131-3.131,0,0,0,68,false,stim,false,0,596.5,1,0,0,79260,task2,467211,false,false,478,image-keyboard-response,33
true,4,2,1,2,true,d,false,true,0.0-2.0-0.14-0.132-3.132,0,0,0,68,false,stim,false,0,1384.7000000178814,1,0,1,79260,task2,470119,false,false,481,image-keyboard-response,34
true,4,1,1,1,true,z,false,true,0.0-2.0-0.14-0.133-3.133,0,0,0,90,false,stim,false,2,364.59999999403954,1,0,2,79260,task2,471998,false,false,484,image-keyboard-response,35
true,4,2,1,2,true,d,false,true,0.0-2.0-0.14-0.134-3.134,0,0,0,68,false,stim,false,0,987.8999999761581,1,0,1,79260,task2,474505,false,false,487,image-keyboard-response,36
true,5,1,1,2,false,d,false,false,0.0-2.0-0.15-0.135-3.135,0,0,0,90,true,stim,true,1,603.5,1,0,2,79260,task2,476634,false,false,490,image-keyboard-response,1
true,5,2,1,1,false,z,false,false,0.0-2.0-0.15-0.136-3.136,0,0,0,68,false,stim,true,2,457.5,1,0,1,79260,task2,478608,false,false,493,image-keyboard-response,2
true,5,2,1,1,false,z,false,false,0.0-2.0-0.15-0.137-3.137,0,0,0,68,false,stim,true,2,510.59999999403954,1,0,1,79260,task2,480647,false,false,496,image-keyboard-response,3
true,5,1,1,2,false,d,false,false,0.0-2.0-0.15-0.138-3.138,0,0,0,90,false,stim,true,1,809.1000000238419,1,0,2,79260,task2,482995,false,false,499,image-keyboard-response,4
true,5,2,1,1,false,z,false,false,0.0-2.0-0.15-0.139-3.139,0,0,0,68,false,stim,true,2,977.8000000119209,1,0,0,79260,task2,485506,false,false,502,image-keyboard-response,5
true,5,0,1,1,false,z,true,true,0.0-2.0-0.15-0.140-3.140,0,0,0,81,false,stim,false,2,632.5,1,0,0,79260,task2,487657,false,true,505,image-keyboard-response,6
true,5,0,1,1,false,z,true,false,0.0-2.0-0.15-0.141-3.141,0,0,0,81,false,stim,false,2,629.6999999880791,1,0,0,79260,task2,489818,false,false,508,image-keyboard-response,7
true,5,0,1,2,false,d,true,false,0.0-2.0-0.15-0.142-3.142,0,0,0,81,false,stim,false,1,605.1999999880791,1,0,2,79260,task2,491945,false,false,511,image-keyboard-response,8
true,5,0,1,1,false,z,true,false,0.0-2.0-0.15-0.143-3.143,0,0,0,81,false,stim,false,2,956.0,1,0,1,79260,task2,494425,false,false,514,image-keyboard-response,9
true,5,1,1,2,false,d,false,false,0.0-2.0-0.16-0.144-3.144,0,0,0,90,false,stim,true,1,1008.0999999940395,1,0,2,79260,task2,496963,false,false,517,image-keyboard-response,10
true,5,0,1,1,false,z,true,false,0.0-2.0-0.16-0.145-3.145,0,0,0,81,false,stim,false,2,603.4000000059605,1,0,0,79260,task2,499082,false,false,520,image-keyboard-response,11
true,5,2,1,2,true,d,false,true,0.0-2.0-0.16-0.146-3.146,0,0,0,68,false,stim,false,1,814.9000000059605,1,0,2,79260,task2,501415,false,false,523,image-keyboard-response,12
true,5,2,1,1,false,z,false,false,0.0-2.0-0.16-0.147-3.147,0,0,0,68,false,stim,true,2,468.2999999821186,1,0,1,79260,task2,503412,false,false,526,image-keyboard-response,13
true,5,2,1,1,false,z,false,false,0.0-2.0-0.16-0.148-3.148,0,0,0,68,false,stim,true,2,1047.5,1,0,0,79260,task2,505988,false,false,529,image-keyboard-response,14
true,5,0,1,1,false,z,true,false,0.0-2.0-0.16-0.149-3.149,0,0,0,81,false,stim,false,2,804.5,1,0,1,79260,task2,508311,false,false,532,image-keyboard-response,15
true,5,0,1,1,false,z,true,false,0.0-2.0-0.16-0.150-3.150,0,0,0,81,false,stim,false,2,607.5,1,0,0,79260,task2,510434,false,false,535,image-keyboard-response,16
true,5,1,1,1,true,z,false,true,0.0-2.0-0.16-0.151-3.151,0,0,0,90,false,stim,false,2,557.5999999940395,1,0,1,79260,task2,512514,false,false,538,image-keyboard-response,17
true,5,2,1,2,true,d,false,false,0.0-2.0-0.16-0.152-3.152,0,0,0,68,false,stim,false,1,814.2000000178814,1,0,2,79260,task2,514861,false,true,541,image-keyboard-response,18
true,5,1,1,1,true,z,false,true,0.0-2.0-0.17-0.153-3.153,0,0,0,90,false,stim,false,2,613.4000000059605,1,0,0,79260,task2,516988,false,false,544,image-keyboard-response,19
true,5,1,1,1,true,z,false,true,0.0-2.0-0.17-0.154-3.154,0,0,0,90,false,stim,false,2,499.09999999403954,1,0,1,79260,task2,519000,false,false,547,image-keyboard-response,20
true,5,1,1,1,true,z,false,true,0.0-2.0-0.17-0.155-3.155,0,0,0,90,false,stim,false,2,609.8000000119209,1,0,0,79260,task2,521141,false,false,550,image-keyboard-response,21
true,5,2,1,2,true,d,false,true,0.0-2.0-0.17-0.156-3.156,0,0,0,68,false,stim,false,1,774.7999999821186,1,0,2,79260,task2,523441,false,false,553,image-keyboard-response,22
true,5,2,1,2,true,d,false,true,0.0-2.0-0.17-0.157-3.157,0,0,0,68,false,stim,false,1,571.4000000059605,1,0,2,79260,task2,525531,false,false,556,image-keyboard-response,23
true,5,2,1,2,true,d,false,true,0.0-2.0-0.17-0.158-3.158,0,0,0,68,false,stim,false,1,413.60000002384186,1,0,2,79260,task2,527463,false,false,559,image-keyboard-response,24
true,5,1,1,1,true,z,false,true,0.0-2.0-0.17-0.159-3.159,0,0,0,90,false,stim,false,2,636.5999999940395,1,0,1,79260,task2,529635,false,false,562,image-keyboard-response,25
true,5,1,1,1,true,z,false,true,0.0-2.0-0.17-0.160-3.160,0,0,0,90,false,stim,false,2,1397.199999988079,1,0,0,79260,task2,532559,false,false,565,image-keyboard-response,26
true,5,2,1,1,false,z,false,false,0.0-2.0-0.17-0.161-3.161,0,0,0,68,false,stim,true,2,636.8000000119209,1,0,1,79260,task2,534717,false,false,568,image-keyboard-response,27
true,5,1,1,1,true,z,false,false,0.0-2.0-0.18-0.162-3.162,0,0,0,90,false,stim,false,2,768.6999999880791,1,0,1,79260,task2,537011,false,true,571,image-keyboard-response,28
true,5,1,1,1,true,z,false,true,0.0-2.0-0.18-0.163-3.163,0,0,0,90,false,stim,false,2,636.0,1,0,0,79260,task2,539164,false,false,574,image-keyboard-response,29
true,5,2,1,2,true,d,false,true,0.0-2.0-0.18-0.164-3.164,0,0,0,68,false,stim,false,1,1252.7000000178814,1,0,2,79260,task2,541950,false,false,577,image-keyboard-response,30
true,5,1,1,1,true,z,false,true,0.0-2.0-0.18-0.165-3.165,0,0,0,90,false,stim,false,2,440.80000001192093,1,0,1,79260,task2,543916,false,false,580,image-keyboard-response,31
true,5,2,1,2,true,d,false,true,0.0-2.0-0.18-0.166-3.166,0,0,0,68,false,stim,false,1,724.8000000119209,1,0,2,79260,task2,546161,false,false,583,image-keyboard-response,32
true,5,1,1,1,true,z,false,true,0.0-2.0-0.18-0.167-3.167,0,0,0,90,false,stim,false,2,992.5999999940395,1,0,1,79260,task2,548674,false,false,586,image-keyboard-response,33
true,5,1,1,1,true,z,false,true,0.0-2.0-0.18-0.168-3.168,0,0,0,90,false,stim,false,2,423.19999998807907,1,0,0,79260,task2,550631,false,false,589,image-keyboard-response,34
true,5,1,1,1,true,z,false,true,0.0-2.0-0.18-0.169-3.169,0,0,0,90,false,stim,false,2,464.7000000178814,1,0,0,79260,task2,552614,false,false,592,image-keyboard-response,35
true,5,2,1,2,true,d,false,true,0.0-2.0-0.18-0.170-3.170,0,0,0,68,false,stim,false,1,1067.0,1,0,2,79260,task2,555193,false,false,595,image-keyboard-response,36
true,5,1,1,1,true,z,false,true,0.0-2.0-0.19-0.171-3.171,0,0,0,90,false,stim,false,2,631.4000000059605,1,0,1,79260,task2,557353,false,false,598,image-keyboard-response,37
true,6,1,1,2,false,d,false,false,0.0-2.0-0.19-0.172-3.172,0,0,0,90,true,stim,true,1,636.2000000178814,1,0,0,79260,task2,559504,false,false,601,image-keyboard-response,1
true,6,2,1,1,false,z,false,false,0.0-2.0-0.19-0.173-3.173,0,0,0,68,false,stim,true,2,753.2999999821186,1,0,2,79260,task2,561786,false,false,604,image-keyboard-response,2
true,6,1,1,1,true,z,false,true,0.0-2.0-0.19-0.174-3.174,0,0,0,90,false,stim,false,2,1189.4000000059605,1,0,2,79260,task2,564490,false,false,607,image-keyboard-response,3
true,6,1,1,2,false,d,false,false,0.0-2.0-0.19-0.175-3.175,0,0,0,90,false,stim,true,1,1481.6000000238419,1,0,0,79260,task2,567500,false,false,610,image-keyboard-response,4
true,6,1,1,1,true,z,false,true,0.0-2.0-0.19-0.176-3.176,0,0,0,90,false,stim,false,2,673.3000000119209,1,0,2,79260,task2,569699,false,false,613,image-keyboard-response,5
true,6,0,1,2,false,d,true,false,0.0-2.0-0.19-0.177-3.177,0,0,0,81,false,stim,false,1,523.3000000119209,1,0,0,79260,task2,571737,false,false,616,image-keyboard-response,6
true,6,0,1,0,true,q,false,true,0.0-2.0-0.19-0.178-3.178,0,0,0,81,false,stim,false,1,1001.9000000059605,1,0,1,79260,task2,574256,false,false,619,image-keyboard-response,7
true,6,0,1,0,true,q,false,true,0.0-2.0-0.19-0.179-3.179,0,0,0,81,false,stim,false,1,906.3999999761581,1,0,1,79260,task2,576689,false,false,622,image-keyboard-response,8
true,6,0,1,0,true,q,false,true,0.0-2.0-0.20-0.180-3.180,0,0,0,81,false,stim,false,1,804.7000000178814,1,0,1,79260,task2,579024,false,false,625,image-keyboard-response,9
true,6,1,1,1,true,z,false,true,0.0-2.0-0.20-0.181-3.181,0,0,0,90,false,stim,false,2,799.6000000238419,1,0,2,79260,task2,581345,false,false,628,image-keyboard-response,10
true,6,2,1,2,true,d,false,true,0.0-2.0-0.20-0.182-3.182,0,0,0,68,false,stim,false,1,475.2999999821186,1,0,0,79260,task2,583341,false,false,631,image-keyboard-response,11
true,6,2,1,2,true,d,false,true,0.0-2.0-0.20-0.183-3.183,0,0,0,68,false,stim,false,1,633.5,1,0,0,79260,task2,585491,false,false,634,image-keyboard-response,12
true,6,1,1,1,true,z,false,true,0.0-2.0-0.20-0.184-3.184,0,0,0,90,false,stim,false,2,1073.5999999940395,1,0,2,79260,task2,588092,false,false,637,image-keyboard-response,13
true,6,1,1,1,true,z,false,true,0.0-2.0-0.20-0.185-3.185,0,0,0,90,false,stim,false,2,476.30000001192093,1,0,2,79260,task2,590082,false,false,640,image-keyboard-response,14
true,6,0,1,0,true,q,false,true,0.0-2.0-0.20-0.186-3.186,0,0,0,81,false,stim,false,1,683.6999999880791,1,0,1,79260,task2,592286,false,false,643,image-keyboard-response,15
true,6,2,1,2,true,d,false,true,0.0-2.0-0.20-0.187-3.187,0,0,0,68,false,stim,false,1,525.0,1,0,0,79260,task2,594341,false,false,646,image-keyboard-response,16
true,6,0,1,0,true,q,false,true,0.0-2.0-0.20-0.188-3.188,0,0,0,81,false,stim,false,1,752.6999999880791,1,0,1,79260,task2,596614,false,false,649,image-keyboard-response,17
true,6,0,1,0,true,q,false,true,0.0-2.0-0.21-0.189-3.189,0,0,0,81,false,stim,false,1,842.6000000238419,1,0,1,79260,task2,598976,false,false,652,image-keyboard-response,18
true,6,2,1,2,true,d,false,true,0.0-2.0-0.21-0.190-3.190,0,0,0,68,false,stim,false,1,819.0,1,0,0,79260,task2,601322,false,false,655,image-keyboard-response,19
true,6,1,1,1,true,z,false,true,0.0-2.0-0.21-0.191-3.191,0,0,0,90,false,stim,false,2,852.6999999880791,1,0,2,79260,task2,603704,false,false,658,image-keyboard-response,20
true,6,2,1,2,true,d,false,true,0.0-2.0-0.21-0.192-3.192,0,0,0,68,false,stim,false,1,898.6999999880791,1,0,0,79260,task2,606120,false,false,661,image-keyboard-response,21
true,6,1,1,1,true,z,false,true,0.0-2.0-0.21-0.193-3.193,0,0,0,90,false,stim,false,2,955.3000000119209,1,0,2,79260,task2,608600,false,false,664,image-keyboard-response,22
true,6,1,1,1,true,z,false,true,0.0-2.0-0.21-0.194-3.194,0,0,0,90,false,stim,false,2,530.2000000178814,1,0,2,79260,task2,610657,false,false,667,image-keyboard-response,23
true,6,2,1,2,true,d,false,true,0.0-2.0-0.21-0.195-3.195,0,0,0,68,false,stim,false,1,1093.300000011921,1,0,0,79260,task2,613264,false,false,670,image-keyboard-response,24
true,6,0,1,0,true,q,false,true,0.0-2.0-0.21-0.196-3.196,0,0,0,81,false,stim,false,1,1109.800000011921,1,0,1,79260,task2,615896,false,false,673,image-keyboard-response,25
true,6,0,1,0,true,q,false,true,0.0-2.0-0.21-0.197-3.197,0,0,0,81,false,stim,false,1,651.3000000119209,1,0,1,79260,task2,618078,false,false,676,image-keyboard-response,26
true,6,1,1,1,true,z,false,true,0.0-2.0-0.22-0.198-3.198,0,0,0,90,false,stim,false,2,953.0999999940395,1,0,2,79260,task2,620557,false,false,679,image-keyboard-response,27
true,6,0,1,0,true,q,false,true,0.0-2.0-0.22-0.199-3.199,0,0,0,81,false,stim,false,1,1061.4000000059605,1,0,1,79260,task2,623149,false,false,682,image-keyboard-response,28
true,6,2,1,2,true,d,false,true,0.0-2.0-0.22-0.200-3.200,0,0,0,68,false,stim,false,1,763.5999999940395,1,0,0,79260,task2,625437,false,false,685,image-keyboard-response,29
true,6,2,1,2,true,d,false,true,0.0-2.0-0.22-0.201-3.201,0,0,0,68,false,stim,false,1,590.8000000119209,1,1,0,79260,task2,627555,false,false,688,image-keyboard-response,30
true,6,2,1,2,true,d,false,true,0.0-2.0-0.22-0.202-3.202,0,0,0,68,false,stim,false,1,510.40000000596046,1,1,0,79260,task2,629581,false,false,691,image-keyboard-response,31
true,6,1,1,1,true,z,false,true,0.0-2.0-0.22-0.203-3.203,0,0,0,90,false,stim,false,2,526.0,1,0,2,79260,task2,631623,false,false,694,image-keyboard-response,32
true,6,0,1,0,true,q,false,true,0.0-2.0-0.22-0.204-3.204,0,0,0,81,false,stim,false,1,357.69999998807907,1,0,1,79260,task2,633505,false,false,697,image-keyboard-response,33
true,6,1,1,1,true,z,false,true,0.0-2.0-0.22-0.205-3.205,0,0,0,90,false,stim,false,2,840.5999999940395,1,0,2,79260,task2,635873,false,false,700,image-keyboard-response,34
true,7,0,2,1,false,z,false,false,0.0-2.0-0.22-0.206-3.206,1,0,0,81,true,stim,true,0,734.5,1,0,1,79260,task2,638149,false,false,703,image-keyboard-response,1
true,7,0,2,1,false,z,false,true,0.0-2.0-0.23-0.207-3.207,1,0,0,81,false,stim,true,0,578.0,1,0,1,79260,task2,640252,false,true,706,image-keyboard-response,2
true,7,2,2,2,true,d,false,true,0.0-2.0-0.23-0.208-3.208,1,0,0,68,false,stim,false,2,635.0,1,1,0,79260,task2,642414,false,false,709,image-keyboard-response,3
true,7,0,2,1,false,z,false,false,0.0-2.0-0.23-0.209-3.209,1,0,0,81,false,stim,true,0,862.8000000119209,1,0,1,79260,task2,644797,false,false,712,image-keyboard-response,4
true,7,1,2,0,false,q,false,false,0.0-2.0-0.23-0.210-3.210,1,0,0,90,false,stim,true,1,644.2999999821186,1,0,2,79260,task2,646961,false,false,715,image-keyboard-response,5
true,7,2,2,2,true,d,false,true,0.0-2.0-0.23-0.211-3.211,1,0,0,68,false,stim,false,2,819.7999999821186,1,1,0,79260,task2,649311,false,false,718,image-keyboard-response,6
true,7,1,2,0,false,q,false,false,0.0-2.0-0.23-0.212-3.212,1,0,0,90,false,stim,true,1,1280.6000000238419,1,0,2,79260,task2,652115,false,false,721,image-keyboard-response,7
true,7,0,2,1,false,z,false,false,0.0-2.0-0.23-0.213-3.213,1,0,0,81,false,stim,true,0,781.4000000059605,1,0,1,79260,task2,654413,false,false,724,image-keyboard-response,8
true,7,1,2,0,false,q,false,false,0.0-2.0-0.23-0.214-3.214,1,0,0,90,false,stim,true,1,1146.3999999761581,1,0,2,79260,task2,657072,false,false,727,image-keyboard-response,9
true,7,2,2,2,true,d,false,false,0.0-2.0-0.23-0.215-3.215,1,0,0,68,false,stim,false,2,559.0999999940395,1,1,0,79260,task2,659145,false,true,730,image-keyboard-response,10
true,7,0,2,0,true,q,false,true,0.0-2.0-0.24-0.216-3.216,1,0,0,81,false,stim,false,1,877.4000000059605,1,0,2,79260,task2,661551,false,false,733,image-keyboard-response,11
true,7,0,2,0,true,q,false,true,0.0-2.0-0.24-0.217-3.217,1,0,0,81,false,stim,false,1,591.6999999880791,1,0,2,79260,task2,663677,false,false,736,image-keyboard-response,12
true,7,2,2,1,false,z,true,false,0.0-2.0-0.24-0.218-3.218,1,0,0,68,false,stim,false,0,464.69999998807907,1,0,1,79260,task2,665666,false,false,739,image-keyboard-response,13
true,7,0,2,1,false,z,false,false,0.0-2.0-0.24-0.219-3.219,1,0,0,81,false,stim,true,0,1622.800000011921,1,0,1,79260,task2,668822,false,false,742,image-keyboard-response,14
true,7,1,2,1,true,z,false,true,0.0-2.0-0.24-0.220-3.220,1,0,0,90,false,stim,false,0,580.0,1,0,1,79260,task2,670921,false,false,745,image-keyboard-response,15
true,7,0,2,0,true,q,false,true,0.0-2.0-0.24-0.221-3.221,1,0,0,81,false,stim,false,1,411.7000000178814,1,0,2,79260,task2,672851,false,false,748,image-keyboard-response,16
true,7,2,2,2,true,d,false,false,0.0-2.0-0.24-0.222-3.222,1,0,0,68,false,stim,false,2,1082.7000000178814,1,1,0,79260,task2,675457,false,true,751,image-keyboard-response,17
true,7,1,2,2,false,d,true,false,0.0-2.0-0.24-0.223-3.223,1,0,0,90,false,stim,false,2,928.5999999940395,1,1,0,79260,task2,677908,false,false,754,image-keyboard-response,18
true,7,0,2,2,false,d,true,false,0.0-2.0-0.24-0.224-3.224,1,0,0,81,false,stim,false,2,665.3000000119209,1,1,0,79260,task2,680106,false,false,757,image-keyboard-response,19
true,7,0,2,0,true,q,false,true,0.0-2.0-0.25-0.225-3.225,1,0,0,81,false,stim,false,1,2453.5,1,0,2,79260,task2,684087,false,false,760,image-keyboard-response,20
false,7,-1,2,2,false,d,true,true,0.0-2.0-0.25-0.226-3.226,1,0,0,,false,stim,false,2,,1,1,0,79260,task2,688632,false,true,763,image-keyboard-response,21
true,7,0,2,2,false,d,true,false,0.0-2.0-0.25-0.227-3.227,1,0,0,81,false,stim,false,2,637.6999999880791,1,1,0,79260,task2,690801,false,false,766,image-keyboard-response,22
true,7,1,2,2,false,d,true,true,0.0-2.0-0.25-0.228-3.228,1,0,0,90,false,stim,false,2,536.5,1,1,0,79260,task2,692857,false,true,769,image-keyboard-response,23
true,7,1,2,1,true,z,false,true,0.0-2.0-0.25-0.229-3.229,1,0,0,90,false,stim,false,0,660.9000000059605,1,0,1,79260,task2,695045,false,false,772,image-keyboard-response,24
true,7,1,2,1,true,z,false,true,0.0-2.0-0.25-0.230-3.230,1,0,0,90,false,stim,false,0,482.80000001192093,1,0,1,79260,task2,697049,false,false,775,image-keyboard-response,25
true,7,0,2,0,true,q,false,true,0.0-2.0-0.25-0.231-3.231,1,0,0,81,false,stim,false,1,494.5,1,0,2,79260,task2,699063,false,false,778,image-keyboard-response,26
true,7,0,2,0,true,q,false,true,0.0-2.0-0.25-0.232-3.232,1,0,0,81,false,stim,false,1,426.40000000596046,1,0,2,79260,task2,701019,false,false,781,image-keyboard-response,27
true,7,1,2,1,true,z,false,true,0.0-2.0-0.25-0.233-3.233,1,0,0,90,false,stim,false,0,665.0999999940395,1,0,1,79260,task2,703210,false,false,784,image-keyboard-response,28
true,7,1,2,1,true,z,false,true,0.0-2.0-0.26-0.234-3.234,1,0,0,90,false,stim,false,0,589.5999999940395,1,0,1,79260,task2,705332,false,false,787,image-keyboard-response,29
true,7,1,2,1,true,z,false,false,0.0-2.0-0.26-0.235-3.235,1,0,0,90,false,stim,false,0,436.19999998807907,1,0,1,79260,task2,707288,false,true,790,image-keyboard-response,30
true,7,0,2,0,true,q,false,true,0.0-2.0-0.26-0.236-3.236,1,0,0,81,false,stim,false,1,423.60000002384186,1,0,2,79260,task2,709232,false,false,793,image-keyboard-response,31
true,7,1,2,2,false,d,true,false,0.0-2.0-0.26-0.237-3.237,1,0,0,90,false,stim,false,2,892.0,1,0,0,79260,task2,711650,false,false,796,image-keyboard-response,32
true,7,1,2,2,false,d,true,false,0.0-2.0-0.26-0.238-3.238,1,0,0,90,false,stim,false,2,718.2999999821186,1,0,0,79260,task2,713901,false,false,799,image-keyboard-response,33
true,8,0,1,1,false,z,true,false,0.0-2.0-0.26-0.239-3.239,0,0,0,81,true,stim,false,2,552.5,1,0,0,79260,task2,715986,false,false,802,image-keyboard-response,1
true,8,2,1,0,false,q,true,false,0.0-2.0-0.26-0.240-3.240,0,0,0,68,false,stim,false,1,842.0,1,0,1,79260,task2,718345,false,false,805,image-keyboard-response,2
true,8,0,1,1,false,z,false,false,0.0-2.0-0.26-0.241-3.241,0,0,0,81,false,stim,true,0,738.7000000178814,1,0,2,79260,task2,720608,false,false,808,image-keyboard-response,3
true,8,2,1,1,false,z,true,false,0.0-2.0-0.26-0.242-3.242,0,0,0,68,false,stim,false,0,964.7999999821186,1,0,2,79260,task2,723097,false,false,811,image-keyboard-response,4
true,8,1,1,1,true,z,false,true,0.0-2.0-0.27-0.243-3.243,0,0,0,90,false,stim,false,0,74.5,1,0,2,79260,task2,724687,false,false,814,image-keyboard-response,5
true,8,1,1,1,true,z,false,true,0.0-2.0-0.27-0.244-3.244,0,0,0,90,false,stim,false,0,815.0999999940395,1,0,2,79260,task2,727025,false,false,817,image-keyboard-response,6
true,8,0,1,1,false,z,true,true,0.0-2.0-0.27-0.245-3.245,0,0,0,81,false,stim,false,2,1356.5999999940395,1,0,0,79260,task2,729898,false,true,820,image-keyboard-response,7
true,8,0,1,1,false,z,true,false,0.0-2.0-0.27-0.246-3.246,0,0,0,81,false,stim,false,2,542.0999999940395,1,0,0,79260,task2,731961,false,false,823,image-keyboard-response,8
true,8,1,1,1,true,z,false,true,0.0-2.0-0.27-0.247-3.247,0,0,0,90,false,stim,false,0,424.30000001192093,1,0,2,79260,task2,733908,false,false,826,image-keyboard-response,9
true,8,2,1,0,false,q,true,false,0.0-2.0-0.27-0.248-3.248,0,0,0,68,false,stim,false,1,470.19999998807907,1,0,1,79260,task2,735890,false,false,829,image-keyboard-response,10
true,8,1,1,0,false,q,false,true,0.0-2.0-0.27-0.249-3.249,0,0,0,90,false,stim,true,1,505.7000000178814,1,0,1,79260,task2,737925,false,true,832,image-keyboard-response,11
true,8,1,1,0,false,q,false,false,0.0-2.0-0.27-0.250-3.250,0,0,0,90,false,stim,true,1,528.2999999821186,1,0,1,79260,task2,739986,false,false,835,image-keyboard-response,12
true,8,1,1,1,true,z,false,true,0.0-2.0-0.27-0.251-3.251,0,0,0,90,false,stim,false,2,351.09999999403954,1,0,0,79260,task2,741864,false,false,838,image-keyboard-response,13
true,8,1,1,0,false,q,false,false,0.0-2.0-0.28-0.252-3.252,0,0,0,90,false,stim,true,1,559.7000000178814,1,0,1,79260,task2,743945,false,false,841,image-keyboard-response,14
true,8,1,1,1,true,z,false,true,0.0-2.0-0.28-0.253-3.253,0,0,0,90,false,stim,false,2,550.4000000059605,1,0,0,79260,task2,746020,false,false,844,image-keyboard-response,15
true,8,1,1,1,true,z,false,true,0.0-2.0-0.28-0.254-3.254,0,0,0,90,false,stim,false,0,1446.800000011921,1,0,2,79260,task2,748984,false,false,847,image-keyboard-response,16
true,8,1,1,1,true,z,false,true,0.0-2.0-0.28-0.255-3.255,0,0,0,90,false,stim,false,0,659.4000000059605,1,0,2,79260,task2,751166,false,false,850,image-keyboard-response,17
true,8,1,1,1,true,z,false,true,0.0-2.0-0.28-0.256-3.256,0,0,0,90,false,stim,false,2,417.09999999403954,1,0,0,79260,task2,753108,false,false,853,image-keyboard-response,18
true,8,0,1,0,true,q,false,true,0.0-2.0-0.28-0.257-3.257,0,0,0,81,false,stim,false,1,359.60000002384186,1,0,1,79260,task2,754994,false,false,856,image-keyboard-response,19
true,8,1,1,1,true,z,false,true,0.0-2.0-0.28-0.258-3.258,0,0,0,90,false,stim,false,0,372.90000000596046,1,0,2,79260,task2,756901,false,false,859,image-keyboard-response,20
true,8,1,1,1,true,z,false,true,0.0-2.0-0.28-0.259-3.259,0,0,0,90,false,stim,false,2,326.19999998807907,1,0,0,79260,task2,758751,false,false,862,image-keyboard-response,21
true,8,0,1,0,true,q,false,true,0.0-2.0-0.28-0.260-3.260,0,0,0,81,false,stim,false,1,327.5,1,0,1,79260,task2,760603,false,false,865,image-keyboard-response,22
true,8,1,1,1,true,z,false,false,0.0-2.0-0.29-0.261-3.261,0,0,0,90,false,stim,false,2,846.0,1,0,0,79260,task2,762973,false,true,868,image-keyboard-response,23
true,8,1,1,1,true,z,false,true,0.0-2.0-0.29-0.262-3.262,0,0,0,90,false,stim,false,0,782.8000000119209,1,0,2,79260,task2,765295,false,false,871,image-keyboard-response,24
true,8,0,1,0,true,q,false,true,0.0-2.0-0.29-0.263-3.263,0,0,0,81,false,stim,false,1,373.5,1,0,1,79260,task2,767198,false,false,874,image-keyboard-response,25
true,8,1,1,1,true,z,false,true,0.0-2.0-0.29-0.264-3.264,0,0,0,90,false,stim,false,2,336.40000000596046,1,0,0,79260,task2,769058,false,false,877,image-keyboard-response,26
true,8,0,1,0,true,q,false,true,0.0-2.0-0.29-0.265-3.265,0,0,0,81,false,stim,false,1,789.3000000119209,1,0,1,79260,task2,771357,false,false,880,image-keyboard-response,27
true,8,0,1,1,false,z,true,false,0.0-2.0-0.29-0.266-3.266,0,0,0,81,false,stim,false,2,763.9000000059605,1,0,0,79260,task2,773643,false,false,883,image-keyboard-response,28
true,8,1,1,0,false,q,false,false,0.0-2.0-0.29-0.267-3.267,0,0,0,90,false,stim,true,1,578.2999999821186,1,0,1,79260,task2,775743,false,false,886,image-keyboard-response,29
true,8,1,1,1,true,z,false,true,0.0-2.0-0.29-0.268-3.268,0,0,0,90,false,stim,false,0,865.2000000178814,1,0,2,79260,task2,778123,false,false,889,image-keyboard-response,30
true,8,1,1,1,true,z,false,false,0.0-2.0-0.29-0.269-3.269,0,0,0,90,false,stim,false,0,681.3000000119209,1,0,2,79260,task2,780329,false,true,892,image-keyboard-response,31
true,8,1,1,1,true,z,false,true,0.0-2.0-0.30-0.270-3.270,0,0,0,90,false,stim,false,2,532.0,1,0,0,79260,task2,782375,false,false,895,image-keyboard-response,32
true,8,1,1,1,true,z,false,true,0.0-2.0-0.30-0.271-3.271,0,0,0,90,false,stim,false,0,686.3000000119209,1,0,2,79260,task2,784585,false,false,898,image-keyboard-response,33
true,8,1,1,1,true,z,false,true,0.0-2.0-0.30-0.272-3.272,0,0,0,90,false,stim,false,0,490.40000000596046,1,0,2,79260,task2,786595,false,false,901,image-keyboard-response,34
true,8,0,1,0,true,q,false,true,0.0-2.0-0.30-0.273-3.273,0,0,0,81,false,stim,false,1,675.5,1,0,1,79260,task2,788787,false,false,904,image-keyboard-response,35
true,8,0,1,0,true,q,false,true,0.0-2.0-0.30-0.274-3.274,0,0,0,81,false,stim,false,1,706.6999999880791,1,0,1,79260,task2,791002,false,false,907,image-keyboard-response,36
true,8,0,1,0,true,q,false,false,0.0-2.0-0.30-0.275-3.275,0,0,0,81,false,stim,false,1,427.09999999403954,1,0,1,79260,task2,792948,false,true,910,image-keyboard-response,37
true,9,1,1,0,false,q,false,false,0.0-2.0-0.30-0.276-3.276,0,0,0,90,true,stim,true,1,389.69999998807907,1,0,2,79260,task2,794848,false,false,913,image-keyboard-response,1
true,9,0,1,0,true,q,false,true,0.0-2.0-0.30-0.277-3.277,0,0,0,81,false,stim,false,1,688.4000000059605,1,0,0,79260,task2,797065,false,false,916,image-keyboard-response,2
true,9,0,1,0,true,q,false,true,0.0-2.0-0.30-0.278-3.278,0,0,0,81,false,stim,false,1,673.0,1,0,0,79260,task2,799259,false,false,919,image-keyboard-response,3
true,9,0,1,0,true,q,false,true,0.0-2.0-0.31-0.279-3.279,0,0,0,81,false,stim,false,1,454.40000000596046,1,0,0,79260,task2,801233,false,false,922,image-keyboard-response,4
true,9,2,1,0,false,q,true,false,0.0-2.0-0.31-0.280-3.280,0,0,0,68,false,stim,false,1,966.4000000059605,1,0,2,79260,task2,803724,false,false,925,image-keyboard-response,5
true,9,0,1,0,true,q,false,true,0.0-2.0-0.31-0.281-3.281,0,0,0,81,false,stim,false,1,531.6000000238419,1,0,2,79260,task2,805787,false,false,928,image-keyboard-response,6
true,9,0,1,0,true,q,false,true,0.0-2.0-0.31-0.282-3.282,0,0,0,81,false,stim,false,1,696.0999999940395,1,0,0,79260,task2,808018,false,false,931,image-keyboard-response,7
true,9,2,1,1,false,z,true,false,0.0-2.0-0.31-0.283-3.283,0,0,0,68,false,stim,false,0,481.80000001192093,1,0,1,79260,task2,810025,false,false,934,image-keyboard-response,8
true,9,1,1,1,true,z,false,true,0.0-2.0-0.31-0.284-3.284,0,0,0,90,false,stim,false,0,556.1999999880791,1,0,1,79260,task2,812106,false,false,937,image-keyboard-response,9
true,9,0,1,0,true,q,false,true,0.0-2.0-0.31-0.285-3.285,0,0,0,81,false,stim,false,1,459.09999999403954,1,0,2,79260,task2,814092,false,false,940,image-keyboard-response,10
true,9,0,1,0,true,q,false,true,0.0-2.0-0.31-0.286-3.286,0,0,0,81,false,stim,false,1,717.0999999940395,1,0,0,79260,task2,816334,false,false,943,image-keyboard-response,11
true,9,1,1,1,true,z,false,false,0.0-2.0-0.31-0.287-3.287,0,0,0,90,false,stim,false,0,821.2999999821186,1,0,1,79260,task2,818684,false,true,946,image-keyboard-response,12
true,9,0,1,0,true,q,false,true,0.0-2.0-0.32-0.288-3.288,0,0,0,81,false,stim,false,1,468.69999998807907,1,0,0,79260,task2,820673,false,false,949,image-keyboard-response,13
true,9,1,1,1,true,z,false,true,0.0-2.0-0.32-0.289-3.289,0,0,0,90,false,stim,false,0,561.3000000119209,1,0,1,79260,task2,822753,false,false,952,image-keyboard-response,14
true,9,0,1,0,true,q,false,true,0.0-2.0-0.32-0.290-3.290,0,0,0,81,false,stim,false,1,755.9000000059605,1,0,2,79260,task2,825040,false,false,955,image-keyboard-response,15
true,9,0,1,0,true,q,false,true,0.0-2.0-0.32-0.291-3.291,0,0,0,81,false,stim,false,1,410.2000000178814,1,0,2,79260,task2,826981,false,false,958,image-keyboard-response,16
true,9,0,1,0,true,q,false,true,0.0-2.0-0.32-0.292-3.292,0,0,0,81,false,stim,false,1,1071.5999999940395,1,0,0,79260,task2,829572,false,false,961,image-keyboard-response,17
true,9,0,1,0,true,q,false,true,0.0-2.0-0.32-0.293-3.293,0,0,0,81,false,stim,false,1,417.69999998807907,1,0,2,79260,task2,831502,false,false,964,image-keyboard-response,18
true,9,0,1,0,true,q,false,true,0.0-2.0-0.32-0.294-3.294,0,0,0,81,false,stim,false,1,1400.800000011921,1,0,0,79260,task2,834422,false,false,967,image-keyboard-response,19
true,9,1,1,1,true,z,false,true,0.0-2.0-0.32-0.295-3.295,0,0,0,90,false,stim,false,0,344.40000000596046,1,0,1,79260,task2,836298,false,false,970,image-keyboard-response,20
true,9,1,1,1,true,z,false,true,0.0-2.0-0.32-0.296-3.296,0,0,0,90,false,stim,false,0,435.69999998807907,1,0,1,79260,task2,838258,false,false,973,image-keyboard-response,21
true,9,0,1,0,true,q,false,true,0.0-2.0-0.33-0.297-3.297,0,0,0,81,false,stim,false,1,551.8000000119209,1,0,0,79260,task2,840334,false,false,976,image-keyboard-response,22
true,9,1,1,1,true,z,false,true,0.0-2.0-0.33-0.298-3.298,0,0,0,90,false,stim,false,0,710.3000000119209,1,0,1,79260,task2,842579,false,false,979,image-keyboard-response,23
true,9,0,1,0,true,q,false,true,0.0-2.0-0.33-0.299-3.299,0,0,0,81,false,stim,false,1,488.0,1,0,0,79260,task2,844588,false,false,982,image-keyboard-response,24
true,9,1,1,1,true,z,false,true,0.0-2.0-0.33-0.300-3.300,0,0,0,90,false,stim,false,0,615.5,1,0,1,79260,task2,846729,false,false,985,image-keyboard-response,25
true,9,0,1,0,true,q,false,true,0.0-2.0-0.33-0.301-3.301,0,0,0,81,false,stim,false,1,661.7000000178814,1,0,2,79260,task2,848908,false,false,988,image-keyboard-response,26
true,9,1,1,1,true,z,false,true,0.0-2.0-0.33-0.302-3.302,0,0,0,90,false,stim,false,0,594.7000000178814,1,0,1,79260,task2,851017,false,false,991,image-keyboard-response,27
true,9,0,1,0,true,q,false,true,0.0-2.0-0.33-0.303-3.303,0,0,0,81,false,stim,false,1,564.3000000119209,1,0,2,79260,task2,853106,false,false,994,image-keyboard-response,28
true,9,0,1,0,true,q,false,true,0.0-2.0-0.33-0.304-3.304,0,0,0,81,false,stim,false,1,978.8000000119209,1,0,0,79260,task2,855614,false,false,997,image-keyboard-response,29
true,9,0,1,0,true,q,false,true,0.0-2.0-0.33-0.305-3.305,0,0,0,81,false,stim,false,1,476.30000001192093,1,0,2,79260,task2,857623,false,false,1000,image-keyboard-response,30
true,9,0,1,0,true,q,false,true,0.0-2.0-0.34-0.306-3.306,0,0,0,81,false,stim,false,1,544.6999999880791,1,0,0,79260,task2,859711,false,false,1003,image-keyboard-response,31
true,9,0,1,0,true,q,false,true,0.0-2.0-0.34-0.307-3.307,0,0,0,81,false,stim,false,1,492.10000002384186,1,0,2,79260,task2,861733,false,false,1006,image-keyboard-response,32
true,9,0,1,0,true,q,false,true,0.0-2.0-0.34-0.308-3.308,0,0,0,81,false,stim,false,1,474.80000001192093,1,0,2,79260,task2,863736,false,false,1009,image-keyboard-response,33
true,9,0,1,0,true,q,false,true,0.0-2.0-0.34-0.309-3.309,0,0,0,81,false,stim,false,1,533.8000000119209,1,0,2,79260,task2,865790,false,false,1012,image-keyboard-response,34
true,9,0,1,0,true,q,false,true,0.0-2.0-0.34-0.310-3.310,0,0,0,81,false,stim,false,1,729.3000000119209,1,0,0,79260,task2,868041,false,false,1015,image-keyboard-response,35
true,9,1,1,1,true,z,false,true,0.0-2.0-0.34-0.311-3.311,0,0,0,90,false,stim,false,0,697.3999999761581,1,1,1,79260,task2,870265,false,false,1018,image-keyboard-response,36
true,9,1,1,1,true,z,false,true,0.0-2.0-0.34-0.312-3.312,0,0,0,90,false,stim,false,0,745.8000000119209,1,1,1,79260,task2,872540,false,false,1021,image-keyboard-response,37
true,9,1,1,1,true,z,false,true,0.0-2.0-0.34-0.313-3.313,0,0,0,90,false,stim,false,0,466.09999999403954,1,1,1,79260,task2,874518,false,false,1024,image-keyboard-response,38
true,10,0,2,2,false,d,false,false,0.0-2.0-0.34-0.314-3.314,0,1,0,81,true,stim,true,0,575.0,1,0,0,79260,task2,876616,false,false,1027,image-keyboard-response,1
true,10,0,2,1,false,z,false,false,0.0-2.0-0.35-0.315-3.315,0,1,0,81,false,stim,true,0,435.90000000596046,1,0,2,79260,task2,878572,false,false,1030,image-keyboard-response,2
true,10,2,2,1,false,z,true,false,0.0-2.0-0.35-0.316-3.316,0,1,0,68,false,stim,false,1,1456.3999999761581,1,1,1,79260,task2,881550,false,false,1033,image-keyboard-response,3
true,10,1,2,1,true,z,false,true,0.0-2.0-0.35-0.317-3.317,0,1,0,90,false,stim,false,0,468.10000002384186,1,0,2,79260,task2,883553,false,false,1036,image-keyboard-response,4
true,10,0,2,1,false,z,true,true,0.0-2.0-0.35-0.318-3.318,0,1,0,81,false,stim,false,1,710.3000000119209,1,1,1,79260,task2,885778,false,true,1039,image-keyboard-response,5
true,10,2,2,2,true,d,false,true,0.0-2.0-0.35-0.319-3.319,0,1,0,68,false,stim,false,0,568.6999999880791,1,0,0,79260,task2,887883,false,false,1042,image-keyboard-response,6
true,10,2,2,2,true,d,false,true,0.0-2.0-0.35-0.320-3.320,0,1,0,68,false,stim,false,0,885.4000000059605,1,0,0,79260,task2,890291,false,false,1045,image-keyboard-response,7
true,10,2,2,2,true,d,false,true,0.0-2.0-0.35-0.321-3.321,0,1,0,68,false,stim,false,0,506.09999999403954,1,0,0,79260,task2,892328,false,false,1048,image-keyboard-response,8
true,10,0,2,1,false,z,true,false,0.0-2.0-0.35-0.322-3.322,0,1,0,81,false,stim,false,1,530.9000000059605,1,1,1,79260,task2,894378,false,false,1051,image-keyboard-response,9
true,10,0,2,1,false,z,false,false,0.0-2.0-0.35-0.323-3.323,0,1,0,81,false,stim,true,0,610.2000000178814,1,0,2,79260,task2,896509,false,false,1054,image-keyboard-response,10
true,10,2,2,2,true,d,false,true,0.0-2.0-0.36-0.324-3.324,0,1,0,68,false,stim,false,0,663.1999999880791,1,0,0,79260,task2,898704,false,false,1057,image-keyboard-response,11
true,10,2,2,2,true,d,false,false,0.0-2.0-0.36-0.325-3.325,0,1,0,68,false,stim,false,0,737.0999999940395,1,0,0,79260,task2,900968,false,true,1060,image-keyboard-response,12
true,10,0,2,1,false,z,true,false,0.0-2.0-0.36-0.326-3.326,0,1,0,81,false,stim,false,1,627.0999999940395,1,1,1,79260,task2,903126,false,false,1063,image-keyboard-response,13
true,10,2,2,2,true,d,false,true,0.0-2.0-0.36-0.327-3.327,0,1,0,68,false,stim,false,0,694.6999999880791,1,0,0,79260,task2,905352,false,false,1066,image-keyboard-response,14
true,10,1,2,1,true,z,false,true,0.0-2.0-0.36-0.328-3.328,0,1,0,90,false,stim,false,0,763.6999999880791,1,0,2,79260,task2,907628,false,false,1069,image-keyboard-response,15
true,10,1,2,1,true,z,false,true,0.0-2.0-0.36-0.329-3.329,0,1,0,90,false,stim,false,0,459.90000000596046,1,0,2,79260,task2,909613,false,false,1072,image-keyboard-response,16
true,10,2,2,1,false,z,true,true,0.0-2.0-0.36-0.330-3.330,0,1,0,68,false,stim,false,1,676.0999999940395,1,1,1,79260,task2,911828,false,true,1075,image-keyboard-response,17
true,10,2,2,1,false,z,true,false,0.0-2.0-0.36-0.331-3.331,0,1,0,68,false,stim,false,1,514.5,1,1,1,79260,task2,913852,false,false,1078,image-keyboard-response,18
true,10,1,2,1,true,z,false,true,0.0-2.0-0.36-0.332-3.332,0,1,0,90,false,stim,false,0,669.0999999940395,1,0,2,79260,task2,916056,false,false,1081,image-keyboard-response,19
true,10,2,2,1,false,z,true,false,0.0-2.0-0.37-0.333-3.333,0,1,0,68,false,stim,false,1,580.5999999940395,1,1,1,79260,task2,918156,false,false,1084,image-keyboard-response,20
true,10,2,2,2,true,d,false,true,0.0-2.0-0.37-0.334-3.334,0,1,0,68,false,stim,false,0,636.9000000059605,1,0,0,79260,task2,920308,false,false,1087,image-keyboard-response,21
true,10,2,2,2,true,d,false,true,0.0-2.0-0.37-0.335-3.335,0,1,0,68,false,stim,false,0,796.5999999940395,1,0,0,79260,task2,922628,false,false,1090,image-keyboard-response,22
true,10,1,2,1,true,z,false,true,0.0-2.0-0.37-0.336-3.336,0,1,0,90,false,stim,false,0,542.5,1,0,2,79260,task2,924699,false,false,1093,image-keyboard-response,23
true,10,1,2,1,true,z,false,true,0.0-2.0-0.37-0.337-3.337,0,1,0,90,false,stim,false,0,574.1999999880791,1,0,2,79260,task2,926804,false,false,1096,image-keyboard-response,24
true,10,1,2,1,true,z,false,true,0.0-2.0-0.37-0.338-3.338,0,1,0,90,false,stim,false,0,423.5,1,0,2,79260,task2,928742,false,false,1099,image-keyboard-response,25
true,10,2,2,2,true,d,false,true,0.0-2.0-0.37-0.339-3.339,0,1,0,68,false,stim,false,0,728.9000000059605,1,0,0,79260,task2,931005,false,false,1102,image-keyboard-response,26
true,10,0,2,1,false,z,true,false,0.0-2.0-0.37-0.340-3.340,0,1,0,81,false,stim,false,1,419.69999998807907,1,1,1,79260,task2,932950,false,false,1105,image-keyboard-response,27
true,10,2,2,1,false,z,true,false,0.0-2.0-0.37-0.341-3.341,0,1,0,68,false,stim,false,1,545.6000000238419,1,1,1,79260,task2,935014,false,false,1108,image-keyboard-response,28
true,10,2,2,2,true,d,false,true,0.0-2.0-0.38-0.342-3.342,0,1,0,68,false,stim,false,0,1005.7000000178814,1,0,0,79260,task2,937546,false,false,1111,image-keyboard-response,29
true,10,1,2,1,true,z,false,true,0.0-2.0-0.38-0.343-3.343,0,1,0,90,false,stim,false,1,412.5,1,1,1,79260,task2,939497,false,false,1114,image-keyboard-response,30
true,10,2,2,2,true,d,false,false,0.0-2.0-0.38-0.344-3.344,0,1,0,68,false,stim,false,0,663.7000000178814,1,0,0,79260,task2,941679,false,true,1117,image-keyboard-response,31
true,10,1,2,1,true,z,false,true,0.0-2.0-0.38-0.345-3.345,0,1,0,90,false,stim,false,1,599.1000000238419,1,1,1,79260,task2,943806,false,false,1120,image-keyboard-response,32
true,11,1,2,1,true,z,false,true,0.0-2.0-0.38-0.346-3.346,0,1,0,90,true,stim,false,1,411.59999999403954,1,1,1,79260,task2,945733,false,false,1123,image-keyboard-response,1
true,11,2,2,1,false,z,false,true,0.0-2.0-0.38-0.347-3.347,0,1,0,68,false,stim,true,2,547.5,1,0,0,79260,task2,947809,false,true,1126,image-keyboard-response,2
true,11,1,2,0,false,q,false,false,0.0-2.0-0.38-0.348-3.348,0,1,0,90,false,stim,true,1,364.40000000596046,1,0,2,79260,task2,949696,false,false,1129,image-keyboard-response,3
true,11,0,2,0,true,q,false,true,0.0-2.0-0.38-0.349-3.349,0,1,0,81,false,stim,false,1,631.7999999821186,1,0,2,79260,task2,951843,false,false,1132,image-keyboard-response,4
true,11,0,2,0,true,q,false,true,0.0-2.0-0.38-0.350-3.350,0,1,0,81,false,stim,false,1,599.0999999940395,1,0,2,79260,task2,953977,false,false,1135,image-keyboard-response,5
true,11,2,2,1,false,z,false,false,0.0-2.0-0.39-0.351-3.351,0,1,0,68,false,stim,true,2,675.6000000238419,1,0,0,79260,task2,956183,false,false,1138,image-keyboard-response,6
true,11,1,2,1,true,z,false,true,0.0-2.0-0.39-0.352-3.352,0,1,0,90,false,stim,false,1,847.6999999880791,1,1,1,79260,task2,958555,false,false,1141,image-keyboard-response,7
true,11,1,2,1,true,z,false,true,0.0-2.0-0.39-0.353-3.353,0,1,0,90,false,stim,false,1,569.5,1,1,1,79260,task2,960661,false,false,1144,image-keyboard-response,8
true,11,1,2,1,true,z,false,true,0.0-2.0-0.39-0.354-3.354,0,1,0,90,false,stim,false,1,445.5,1,1,1,79260,task2,962630,false,false,1147,image-keyboard-response,9
true,11,0,2,0,true,q,false,true,0.0-2.0-0.39-0.355-3.355,0,1,0,81,false,stim,false,1,733.0,1,0,2,79260,task2,964894,false,false,1150,image-keyboard-response,10
true,11,0,2,0,true,q,false,true,0.0-2.0-0.39-0.356-3.356,0,1,0,81,false,stim,false,1,474.0,1,0,2,79260,task2,966898,false,false,1153,image-keyboard-response,11
true,11,0,2,0,true,q,false,false,0.0-2.0-0.39-0.357-3.357,0,1,0,81,false,stim,false,1,468.60000002384186,1,0,2,79260,task2,968892,false,true,1156,image-keyboard-response,12
true,11,2,2,1,false,z,false,false,0.0-2.0-0.39-0.358-3.358,0,1,0,68,false,stim,true,2,856.1000000238419,1,0,0,79260,task2,971271,false,false,1159,image-keyboard-response,13
true,11,0,2,1,false,z,true,false,0.0-2.0-0.39-0.359-3.359,0,1,0,81,false,stim,false,2,422.19999998807907,1,0,0,79260,task2,973212,false,false,1162,image-keyboard-response,14
true,11,0,2,0,true,q,false,true,0.0-2.0-0.40-0.360-3.360,0,1,0,81,false,stim,false,1,767.7000000178814,1,0,2,79260,task2,975506,false,false,1165,image-keyboard-response,15
true,11,1,2,1,true,z,false,true,0.0-2.0-0.40-0.361-3.361,0,1,0,90,false,stim,false,2,431.0,1,0,0,79260,task2,977469,false,false,1168,image-keyboard-response,16
true,11,1,2,1,true,z,false,true,0.0-2.0-0.40-0.362-3.362,0,1,0,90,false,stim,false,2,504.2000000178814,1,0,0,79260,task2,979498,false,false,1171,image-keyboard-response,17
true,11,0,2,0,true,q,false,true,0.0-2.0-0.40-0.363-3.363,0,1,0,81,false,stim,false,1,600.8000000119209,1,0,2,79260,task2,981620,false,false,1174,image-keyboard-response,18
true,11,1,2,1,true,z,false,true,0.0-2.0-0.40-0.364-3.364,0,1,0,90,false,stim,false,2,526.0,1,0,0,79260,task2,983675,false,false,1177,image-keyboard-response,19
true,11,1,2,1,true,z,false,true,0.0-2.0-0.40-0.365-3.365,0,1,0,90,false,stim,false,1,491.90000000596046,1,1,1,79260,task2,985703,false,false,1180,image-keyboard-response,20
true,11,1,2,1,true,z,false,true,0.0-2.0-0.40-0.366-3.366,0,1,0,90,false,stim,false,1,638.7000000178814,1,1,1,79260,task2,987876,false,false,1183,image-keyboard-response,21
true,11,1,2,1,true,z,false,true,0.0-2.0-0.40-0.367-3.367,0,1,0,90,false,stim,false,1,535.5,1,1,1,79260,task2,989942,false,false,1186,image-keyboard-response,22
true,11,0,2,0,true,q,false,true,0.0-2.0-0.40-0.368-3.368,0,1,0,81,false,stim,false,1,381.5,1,0,2,79260,task2,991862,false,false,1189,image-keyboard-response,23
true,11,1,2,1,true,z,false,true,0.0-2.0-0.41-0.369-3.369,0,1,0,90,false,stim,false,1,900.0,1,1,1,79260,task2,994286,false,false,1192,image-keyboard-response,24
true,11,1,2,1,true,z,false,true,0.0-2.0-0.41-0.370-3.370,0,1,0,90,false,stim,false,1,566.5999999940395,1,1,1,79260,task2,996371,false,false,1195,image-keyboard-response,25
true,11,1,2,1,true,z,false,true,0.0-2.0-0.41-0.371-3.371,0,1,0,90,false,stim,false,1,472.69999998807907,1,1,1,79260,task2,998359,false,false,1198,image-keyboard-response,26
true,11,0,2,1,false,z,true,false,0.0-2.0-0.41-0.372-3.372,0,1,0,81,false,stim,false,2,1012.2999999821186,1,0,0,79260,task2,1000913,false,false,1201,image-keyboard-response,27
true,11,1,2,1,true,z,false,true,0.0-2.0-0.41-0.373-3.373,0,1,0,90,false,stim,false,2,459.2000000178814,1,0,0,79260,task2,1002903,false,false,1204,image-keyboard-response,28
true,11,0,2,0,true,q,false,true,0.0-2.0-0.41-0.374-3.374,0,1,0,81,false,stim,false,1,696.6999999880791,1,0,2,79260,task2,1005137,false,false,1207,image-keyboard-response,29
true,11,0,2,0,true,q,false,true,0.0-2.0-0.41-0.375-3.375,0,1,0,81,false,stim,false,1,574.0999999940395,1,0,2,79260,task2,1007223,false,false,1210,image-keyboard-response,30
true,11,1,2,1,true,z,false,true,0.0-2.0-0.41-0.376-3.376,0,1,0,90,false,stim,false,2,482.09999999403954,1,1,0,79260,task2,1009228,false,false,1213,image-keyboard-response,31
true,11,0,2,0,true,q,false,true,0.0-2.0-0.41-0.377-3.377,0,1,0,81,false,stim,false,1,663.6000000238419,1,0,2,79260,task2,1011419,false,false,1216,image-keyboard-response,32
true,11,0,2,0,true,q,false,true,0.0-2.0-0.42-0.378-3.378,0,1,0,81,false,stim,false,1,518.4000000059605,1,0,2,79260,task2,1013471,false,false,1219,image-keyboard-response,33
true,11,1,2,1,true,z,false,true,0.0-2.0-0.42-0.379-3.379,0,1,0,90,false,stim,false,1,555.3999999761581,1,0,1,79260,task2,1015557,false,false,1222,image-keyboard-response,34
true,12,1,2,2,false,d,false,false,0.0-2.0-0.42-0.380-3.380,1,0,0,90,true,stim,true,1,385.2000000178814,1,0,1,79260,task2,1017478,false,false,1225,image-keyboard-response,1
true,12,1,2,1,true,z,false,true,0.0-2.0-0.42-0.381-3.381,1,0,0,90,false,stim,false,1,531.5,1,1,0,79260,task2,1019522,false,false,1228,image-keyboard-response,2
true,12,0,2,2,false,d,false,false,0.0-2.0-0.42-0.382-3.382,1,0,0,81,false,stim,true,0,499.09999999403954,1,0,2,79260,task2,1021549,false,false,1231,image-keyboard-response,3
true,12,1,2,1,true,z,false,true,0.0-2.0-0.42-0.383-3.383,1,0,0,90,false,stim,false,1,633.2000000178814,1,1,0,79260,task2,1023705,false,false,1234,image-keyboard-response,4
true,12,1,2,2,false,d,true,false,0.0-2.0-0.42-0.384-3.384,1,0,0,90,false,stim,false,0,830.8000000119209,1,0,2,79260,task2,1026048,false,false,1237,image-keyboard-response,5
true,12,1,2,1,true,z,false,true,0.0-2.0-0.42-0.385-3.385,1,0,0,90,false,stim,false,1,686.6999999880791,1,1,0,79260,task2,1028260,false,false,1240,image-keyboard-response,6
true,12,2,2,2,true,d,false,true,0.0-2.0-0.42-0.386-3.386,1,0,0,68,false,stim,false,1,381.0,1,0,1,79260,task2,1030164,false,false,1243,image-keyboard-response,7
true,12,1,2,2,false,d,true,false,0.0-2.0-0.43-0.387-3.387,1,0,0,90,false,stim,false,0,571.7000000178814,1,0,2,79260,task2,1032249,false,false,1246,image-keyboard-response,8
true,12,0,2,2,false,d,false,false,0.0-2.0-0.43-0.388-3.388,1,0,0,81,false,stim,true,0,614.6000000238419,1,0,2,79260,task2,1034376,false,false,1249,image-keyboard-response,9
true,12,1,2,1,true,z,false,true,0.0-2.0-0.43-0.389-3.389,1,0,0,90,false,stim,false,1,405.0,1,1,0,79260,task2,1036305,false,false,1252,image-keyboard-response,10
true,12,1,2,1,true,z,false,true,0.0-2.0-0.43-0.390-3.390,1,0,0,90,false,stim,false,1,603.2000000178814,1,1,0,79260,task2,1038421,false,false,1255,image-keyboard-response,11
true,12,2,2,2,true,d,false,true,0.0-2.0-0.43-0.391-3.391,1,0,0,68,false,stim,false,1,615.5999999940395,1,0,1,79260,task2,1040571,false,false,1258,image-keyboard-response,12
true,12,2,2,2,true,d,false,true,0.0-2.0-0.43-0.392-3.392,1,0,0,68,false,stim,false,1,589.8000000119209,1,0,1,79260,task2,1042688,false,false,1261,image-keyboard-response,13
true,12,1,2,1,true,z,false,false,0.0-2.0-0.43-0.393-3.393,1,0,0,90,false,stim,false,1,553.4000000059605,1,1,0,79260,task2,1044771,false,true,1264,image-keyboard-response,14
true,12,2,2,2,true,d,false,true,0.0-2.0-0.43-0.394-3.394,1,0,0,68,false,stim,false,0,389.69999998807907,1,0,2,79260,task2,1046686,false,false,1267,image-keyboard-response,15
true,12,2,2,2,true,d,false,true,0.0-2.0-0.43-0.395-3.395,1,0,0,68,false,stim,false,1,714.0999999940395,1,0,1,79260,task2,1048925,false,false,1270,image-keyboard-response,16
true,12,2,2,2,true,d,false,true,0.0-2.0-0.44-0.396-3.396,1,0,0,68,false,stim,false,0,828.7999999821186,1,0,2,79260,task2,1051284,false,false,1273,image-keyboard-response,17
true,12,2,2,2,true,d,false,true,0.0-2.0-0.44-0.397-3.397,1,0,0,68,false,stim,false,1,577.8999999761581,1,0,1,79260,task2,1053382,false,false,1276,image-keyboard-response,18
true,12,1,2,1,true,z,false,true,0.0-2.0-0.44-0.398-3.398,1,0,0,90,false,stim,false,1,404.80000001192093,1,1,0,79260,task2,1055306,false,false,1279,image-keyboard-response,19
true,12,2,2,2,true,d,false,true,0.0-2.0-0.44-0.399-3.399,1,0,0,68,false,stim,false,0,578.9000000059605,1,0,2,79260,task2,1057408,false,false,1282,image-keyboard-response,20
true,12,2,2,2,true,d,false,true,0.0-2.0-0.44-0.400-3.400,1,0,0,68,false,stim,false,1,369.90000000596046,1,0,1,79260,task2,1059296,false,false,1285,image-keyboard-response,21
true,12,2,2,2,true,d,false,true,0.0-2.0-0.44-0.401-3.401,1,0,0,68,false,stim,false,0,509.2999999821186,1,0,2,79260,task2,1061328,false,false,1288,image-keyboard-response,22
true,12,1,2,1,true,z,false,true,0.0-2.0-0.44-0.402-3.402,1,0,0,90,false,stim,false,1,489.0,1,1,0,79260,task2,1063329,false,false,1291,image-keyboard-response,23
true,12,1,2,1,true,z,false,true,0.0-2.0-0.44-0.403-3.403,1,0,0,90,false,stim,false,1,523.7999999821186,1,1,0,79260,task2,1065376,false,false,1294,image-keyboard-response,24
true,12,2,2,2,true,d,false,false,0.0-2.0-0.44-0.404-3.404,1,0,0,68,false,stim,false,1,549.5,1,0,1,79260,task2,1067448,false,true,1297,image-keyboard-response,25
true,12,1,2,1,true,z,false,true,0.0-2.0-0.45-0.405-3.405,1,0,0,90,false,stim,false,1,631.4000000059605,1,1,0,79260,task2,1069615,false,false,1300,image-keyboard-response,26
true,12,2,2,2,true,d,false,true,0.0-2.0-0.45-0.406-3.406,1,0,0,68,false,stim,false,0,759.3000000119209,1,0,2,79260,task2,1071918,false,false,1303,image-keyboard-response,27
true,12,2,2,2,true,d,false,true,0.0-2.0-0.45-0.407-3.407,1,0,0,68,false,stim,false,0,538.0,1,0,2,79260,task2,1073986,false,false,1306,image-keyboard-response,28
true,12,1,2,1,true,z,false,true,0.0-2.0-0.45-0.408-3.408,1,0,0,90,false,stim,false,1,526.4000000059605,1,0,0,79260,task2,1076034,false,false,1309,image-keyboard-response,29
true,12,2,2,2,true,d,false,true,0.0-2.0-0.45-0.409-3.409,1,0,0,68,false,stim,false,1,445.90000000596046,1,1,1,79260,task2,1078004,false,false,1312,image-keyboard-response,30
true,12,2,2,2,true,d,false,true,0.0-2.0-0.45-0.410-3.410,1,0,0,68,false,stim,false,1,485.30000001192093,1,1,1,79260,task2,1080012,false,false,1315,image-keyboard-response,31
true,13,2,2,2,true,d,false,true,0.0-2.0-0.45-0.411-3.411,0,1,0,68,true,stim,false,2,496.19999998807907,1,1,1,79260,task2,1082032,false,false,1318,image-keyboard-response,1
true,13,2,2,0,false,q,true,false,0.0-2.0-0.45-0.412-3.412,0,1,0,68,false,stim,false,1,1046.300000011921,1,0,0,79260,task2,1084611,false,false,1321,image-keyboard-response,2
true,13,2,2,1,false,z,false,false,0.0-2.0-0.45-0.413-3.413,0,1,0,68,false,stim,true,2,625.1999999880791,1,0,2,79260,task2,1086762,false,false,1324,image-keyboard-response,3
true,13,2,2,1,false,z,false,false,0.0-2.0-0.46-0.414-3.414,0,1,0,68,false,stim,true,2,1681.0,1,0,2,79260,task2,1089972,false,false,1327,image-keyboard-response,4
true,13,2,2,2,true,d,false,false,0.0-2.0-0.46-0.415-3.415,0,1,0,68,false,stim,false,2,591.1999999880791,1,1,1,79260,task2,1092084,false,true,1330,image-keyboard-response,5
true,13,1,2,0,false,q,false,false,0.0-2.0-0.46-0.416-3.416,0,1,0,90,false,stim,true,1,602.3000000119209,1,0,0,79260,task2,1094212,false,false,1333,image-keyboard-response,6
true,13,0,2,1,false,z,true,false,0.0-2.0-0.46-0.417-3.417,0,1,0,81,false,stim,false,2,474.69999998807907,1,0,2,79260,task2,1096206,false,false,1336,image-keyboard-response,7
true,13,0,2,2,false,d,true,false,0.0-2.0-0.46-0.418-3.418,0,1,0,81,false,stim,false,2,462.09999999403954,1,1,1,79260,task2,1098192,false,false,1339,image-keyboard-response,8
true,13,0,2,0,true,q,false,true,0.0-2.0-0.46-0.419-3.419,0,1,0,81,false,stim,false,1,370.40000000596046,1,0,0,79260,task2,1100096,false,false,1342,image-keyboard-response,9
true,13,1,2,2,false,d,true,false,0.0-2.0-0.46-0.420-3.420,0,1,0,90,false,stim,false,2,446.7999999821186,1,1,1,79260,task2,1102067,false,false,1345,image-keyboard-response,10
true,13,0,2,0,true,q,false,true,0.0-2.0-0.46-0.421-3.421,0,1,0,81,false,stim,false,1,869.6999999880791,1,0,0,79260,task2,1104465,false,false,1348,image-keyboard-response,11
true,13,1,2,1,true,z,false,true,0.0-2.0-0.46-0.422-3.422,0,1,0,90,false,stim,false,2,378.59999999403954,1,0,2,79260,task2,1106370,false,false,1351,image-keyboard-response,12
true,13,1,2,1,true,z,false,true,0.0-2.0-0.47-0.423-3.423,0,1,0,90,false,stim,false,2,589.5999999940395,1,0,2,79260,task2,1108482,false,false,1354,image-keyboard-response,13
true,13,1,2,1,true,z,false,true,0.0-2.0-0.47-0.424-3.424,0,1,0,90,false,stim,false,2,776.0,1,0,2,79260,task2,1110780,false,false,1357,image-keyboard-response,14
true,13,0,2,0,true,q,false,true,0.0-2.0-0.47-0.425-3.425,0,1,0,81,false,stim,false,1,569.2000000178814,1,0,0,79260,task2,1112868,false,false,1360,image-keyboard-response,15
true,13,2,2,2,true,d,false,true,0.0-2.0-0.47-0.426-3.426,0,1,0,68,false,stim,false,2,512.7000000178814,1,1,1,79260,task2,1114900,false,false,1363,image-keyboard-response,16
true,13,1,2,1,true,z,false,true,0.0-2.0-0.47-0.427-3.427,0,1,0,90,false,stim,false,2,482.69999998807907,1,0,2,79260,task2,1116901,false,false,1366,image-keyboard-response,17
true,13,0,2,0,true,q,false,true,0.0-2.0-0.47-0.428-3.428,0,1,0,81,false,stim,false,1,600.8999999761581,1,0,0,79260,task2,1119023,false,false,1369,image-keyboard-response,18
true,13,2,2,2,true,d,false,true,0.0-2.0-0.47-0.429-3.429,0,1,0,68,false,stim,false,2,846.5999999940395,1,1,1,79260,task2,1121391,false,false,1372,image-keyboard-response,19
true,13,0,2,0,true,q,false,true,0.0-2.0-0.47-0.430-3.430,0,1,0,81,false,stim,false,1,530.5999999940395,1,0,0,79260,task2,1123451,false,false,1375,image-keyboard-response,20
true,13,2,2,2,true,d,false,true,0.0-2.0-0.47-0.431-3.431,0,1,0,68,false,stim,false,2,845.0999999940395,1,1,1,79260,task2,1125815,false,false,1378,image-keyboard-response,21
true,13,1,2,1,true,z,false,true,0.0-2.0-0.48-0.432-3.432,0,1,0,90,false,stim,false,2,733.0,1,0,2,79260,task2,1128076,false,false,1381,image-keyboard-response,22
true,13,2,2,2,true,d,false,false,0.0-2.0-0.48-0.433-3.433,0,1,0,68,false,stim,false,2,697.5999999940395,1,1,1,79260,task2,1130302,false,true,1384,image-keyboard-response,23
true,13,1,2,1,true,z,false,true,0.0-2.0-0.48-0.434-3.434,0,1,0,90,false,stim,false,2,567.5999999940395,1,0,2,79260,task2,1132398,false,false,1387,image-keyboard-response,24
true,13,0,2,0,true,q,false,true,0.0-2.0-0.48-0.435-3.435,0,1,0,81,false,stim,false,1,484.40000000596046,1,0,0,79260,task2,1134420,false,false,1390,image-keyboard-response,25
true,13,1,2,1,true,z,false,true,0.0-2.0-0.48-0.436-3.436,0,1,0,90,false,stim,false,2,539.0,1,0,2,79260,task2,1136480,false,false,1393,image-keyboard-response,26
true,13,2,2,2,true,d,false,true,0.0-2.0-0.48-0.437-3.437,0,1,0,68,false,stim,false,2,465.40000000596046,1,1,1,79260,task2,1138469,false,false,1396,image-keyboard-response,27
true,13,0,2,0,true,q,false,true,0.0-2.0-0.48-0.438-3.438,0,1,0,81,false,stim,false,1,684.7000000178814,1,0,0,79260,task2,1140677,false,false,1399,image-keyboard-response,28
true,13,2,2,2,true,d,false,true,0.0-2.0-0.48-0.439-3.439,0,1,0,68,false,stim,false,2,698.4000000059605,1,0,1,79260,task2,1142922,false,false,1402,image-keyboard-response,29
true,13,0,2,0,true,q,false,true,0.0-2.0-0.48-0.440-3.440,0,1,0,81,false,stim,false,1,565.4000000059605,1,1,0,79260,task2,1145004,false,false,1405,image-keyboard-response,30
true,13,2,2,2,true,d,false,true,0.0-2.0-0.49-0.441-3.441,0,1,0,68,false,stim,false,2,1000.1999999880791,1,0,1,79260,task2,1147518,false,false,1408,image-keyboard-response,31
true,13,0,2,0,true,q,false,true,0.0-2.0-0.49-0.442-3.442,0,1,0,81,false,stim,false,1,469.0,1,1,0,79260,task2,1149511,false,false,1411,image-keyboard-response,32
true,13,0,2,0,true,q,false,true,0.0-2.0-0.49-0.443-3.443,0,1,0,81,false,stim,false,1,445.59999999403954,1,1,0,79260,task2,1151485,false,false,1414,image-keyboard-response,33
true,14,1,2,2,false,d,false,false,0.0-2.0-0.49-0.444-3.444,1,0,0,90,true,stim,true,1,535.9000000059605,1,0,2,79260,task2,1153560,false,false,1417,image-keyboard-response,1
true,14,2,2,1,false,z,false,false,0.0-2.0-0.49-0.445-3.445,1,0,0,68,false,stim,true,2,475.0,1,0,1,79260,task2,1155560,false,false,1420,image-keyboard-response,2
true,14,2,2,2,true,d,false,true,0.0-2.0-0.49-0.446-3.446,1,0,0,68,false,stim,false,1,470.0,1,0,2,79260,task2,1157549,false,false,1423,image-keyboard-response,3
true,14,1,2,1,true,z,false,true,0.0-2.0-0.49-0.447-3.447,1,0,0,90,false,stim,false,2,441.2999999821186,1,0,1,79260,task2,1159520,false,false,1426,image-keyboard-response,4
true,14,2,2,0,false,q,true,false,0.0-2.0-0.49-0.448-3.448,1,0,0,68,false,stim,false,0,635.8000000119209,1,1,0,79260,task2,1161678,false,false,1429,image-keyboard-response,5
true,14,2,2,2,true,d,false,false,0.0-2.0-0.49-0.449-3.449,1,0,0,68,false,stim,false,1,812.0,1,0,2,79260,task2,1164023,false,true,1432,image-keyboard-response,6
true,14,1,2,1,true,z,false,true,0.0-2.0-0.50-0.450-3.450,1,0,0,90,false,stim,false,2,619.5999999940395,1,0,1,79260,task2,1166171,false,false,1435,image-keyboard-response,7
true,14,0,2,0,true,q,false,true,0.0-2.0-0.50-0.451-3.451,1,0,0,81,false,stim,false,0,429.89999997615814,1,1,0,79260,task2,1168133,false,false,1438,image-keyboard-response,8
true,14,0,2,0,true,q,false,true,0.0-2.0-0.50-0.452-3.452,1,0,0,81,false,stim,false,0,548.2000000178814,1,1,0,79260,task2,1170202,false,false,1441,image-keyboard-response,9
true,14,2,2,2,true,d,false,true,0.0-2.0-0.50-0.453-3.453,1,0,0,68,false,stim,false,1,1694.2999999821186,1,0,2,79260,task2,1173422,false,false,1444,image-keyboard-response,10
true,14,1,2,1,true,z,false,true,0.0-2.0-0.50-0.454-3.454,1,0,0,90,false,stim,false,2,439.19999998807907,1,0,1,79260,task2,1175390,false,false,1447,image-keyboard-response,11
true,14,0,2,0,true,q,false,true,0.0-2.0-0.50-0.455-3.455,1,0,0,81,false,stim,false,0,653.5,1,1,0,79260,task2,1177574,false,false,1450,image-keyboard-response,12
true,14,2,2,2,true,d,false,true,0.0-2.0-0.50-0.456-3.456,1,0,0,68,false,stim,false,1,1178.9000000059605,1,0,2,79260,task2,1180279,false,false,1453,image-keyboard-response,13
true,14,2,2,2,true,d,false,false,0.0-2.0-0.50-0.457-3.457,1,0,0,68,false,stim,false,1,625.2999999821186,1,0,2,79260,task2,1182416,false,true,1456,image-keyboard-response,14
true,14,1,2,1,true,z,false,true,0.0-2.0-0.50-0.458-3.458,1,0,0,90,false,stim,false,2,542.7000000178814,1,0,1,79260,task2,1184489,false,false,1459,image-keyboard-response,15
true,14,2,2,2,true,d,false,true,0.0-2.0-0.51-0.459-3.459,1,0,0,68,false,stim,false,1,534.5,1,0,2,79260,task2,1186544,false,false,1462,image-keyboard-response,16
true,14,1,2,1,true,z,false,true,0.0-2.0-0.51-0.460-3.460,1,0,0,90,false,stim,false,2,793.5,1,0,1,79260,task2,1188860,false,false,1465,image-keyboard-response,17
true,14,2,2,2,true,d,false,true,0.0-2.0-0.51-0.461-3.461,1,0,0,68,false,stim,false,1,827.5,1,0,2,79260,task2,1191204,false,false,1468,image-keyboard-response,18
true,14,0,2,0,true,q,false,true,0.0-2.0-0.51-0.462-3.462,1,0,0,81,false,stim,false,0,536.0,1,1,0,79260,task2,1193271,false,false,1471,image-keyboard-response,19
true,14,1,2,1,true,z,false,true,0.0-2.0-0.51-0.463-3.463,1,0,0,90,false,stim,false,2,785.1999999880791,1,0,1,79260,task2,1195577,false,false,1474,image-keyboard-response,20
true,14,0,2,0,true,q,false,true,0.0-2.0-0.51-0.464-3.464,1,0,0,81,false,stim,false,0,586.9000000059605,1,1,0,79260,task2,1197674,false,false,1477,image-keyboard-response,21
true,14,2,2,2,true,d,false,true,0.0-2.0-0.51-0.465-3.465,1,0,0,68,false,stim,false,1,410.59999999403954,1,0,2,79260,task2,1199611,false,false,1480,image-keyboard-response,22
true,14,0,2,0,true,q,false,true,0.0-2.0-0.51-0.466-3.466,1,0,0,81,false,stim,false,0,545.0,1,1,0,79260,task2,1201683,false,false,1483,image-keyboard-response,23
true,14,1,2,1,true,z,false,true,0.0-2.0-0.51-0.467-3.467,1,0,0,90,false,stim,false,2,712.0999999940395,1,0,1,79260,task2,1203930,false,false,1486,image-keyboard-response,24
true,14,0,2,0,true,q,false,true,0.0-2.0-0.52-0.468-3.468,1,0,0,81,false,stim,false,0,591.0,1,1,0,79260,task2,1206027,false,false,1489,image-keyboard-response,25
true,14,1,2,1,true,z,false,true,0.0-2.0-0.52-0.469-3.469,1,0,0,90,false,stim,false,2,498.5,1,0,1,79260,task2,1208056,false,false,1492,image-keyboard-response,26
true,14,1,2,1,true,z,false,true,0.0-2.0-0.52-0.470-3.470,1,0,0,90,false,stim,false,2,520.0999999940395,1,0,1,79260,task2,1210109,false,false,1495,image-keyboard-response,27
true,14,0,2,0,true,q,false,true,0.0-2.0-0.52-0.471-3.471,1,0,0,81,false,stim,false,0,546.0,1,1,0,79260,task2,1212191,false,false,1498,image-keyboard-response,28
true,14,2,2,2,true,d,false,true,0.0-2.0-0.52-0.472-3.472,1,0,0,68,false,stim,false,1,407.69999998807907,1,0,2,79260,task2,1214140,false,false,1501,image-keyboard-response,29
true,14,1,2,1,true,z,false,true,0.0-2.0-0.52-0.473-3.473,1,0,0,90,false,stim,false,2,383.69999998807907,1,0,1,79260,task2,1216056,false,false,1504,image-keyboard-response,30
true,14,0,2,0,true,q,false,true,0.0-2.0-0.52-0.474-3.474,1,0,0,81,false,stim,false,0,403.0,1,1,0,79260,task2,1217977,false,false,1507,image-keyboard-response,31
true,14,2,2,2,true,d,false,true,0.0-2.0-0.52-0.475-3.475,1,0,0,68,false,stim,false,1,795.2000000178814,1,0,2,79260,task2,1220306,false,false,1510,image-keyboard-response,32
true,15,2,2,0,false,q,false,false,0.0-2.0-0.52-0.476-3.476,1,0,0,68,true,stim,true,2,789.4000000059605,1,0,2,79260,task2,1222615,false,false,1513,image-keyboard-response,1
true,15,1,2,2,false,d,false,true,0.0-2.0-0.53-0.477-3.477,1,0,0,90,false,stim,true,1,542.2999999821186,1,0,1,79260,task2,1224699,false,true,1516,image-keyboard-response,2
true,15,1,2,2,false,d,false,false,0.0-2.0-0.53-0.478-3.478,1,0,0,90,false,stim,true,1,537.0999999940395,1,0,1,79260,task2,1226767,false,false,1519,image-keyboard-response,3
true,15,0,2,0,true,q,false,false,0.0-2.0-0.53-0.479-3.479,1,0,0,81,false,stim,false,0,729.7999999821186,1,1,0,79260,task2,1229007,false,true,1522,image-keyboard-response,4
true,15,1,2,0,false,q,true,false,0.0-2.0-0.53-0.480-3.480,1,0,0,90,false,stim,false,0,1276.4000000059605,1,1,0,79260,task2,1231810,false,false,1525,image-keyboard-response,5
true,15,1,2,2,false,d,false,false,0.0-2.0-0.53-0.481-3.481,1,0,0,90,false,stim,true,1,1445.0999999940395,1,0,1,79260,task2,1234781,false,false,1528,image-keyboard-response,6
true,15,0,2,0,true,q,false,false,0.0-2.0-0.53-0.482-3.482,1,0,0,81,false,stim,false,2,731.2999999821186,1,0,2,79260,task2,1237043,false,true,1531,image-keyboard-response,7
true,15,2,2,0,false,q,false,false,0.0-2.0-0.53-0.483-3.483,1,0,0,68,false,stim,true,2,617.2000000178814,1,0,2,79260,task2,1239191,false,false,1534,image-keyboard-response,8
true,15,1,2,0,false,q,true,false,0.0-2.0-0.53-0.484-3.484,1,0,0,90,false,stim,false,2,437.7999999821186,1,0,2,79260,task2,1241165,false,false,1537,image-keyboard-response,9
true,15,2,2,0,false,q,true,false,0.0-2.0-0.53-0.485-3.485,1,0,0,68,false,stim,false,0,896.6000000238419,1,1,0,79260,task2,1243594,false,false,1540,image-keyboard-response,10
true,15,1,2,0,false,q,true,false,0.0-2.0-0.54-0.486-3.486,1,0,0,90,false,stim,false,0,489.80000001192093,1,1,0,79260,task2,1245612,false,false,1543,image-keyboard-response,11
true,15,1,2,2,false,d,false,false,0.0-2.0-0.54-0.487-3.487,1,0,0,90,false,stim,true,1,695.4000000059605,1,0,1,79260,task2,1247845,false,false,1546,image-keyboard-response,12
true,15,0,2,0,true,q,false,true,0.0-2.0-0.54-0.488-3.488,1,0,0,81,false,stim,false,0,846.8999999761581,1,1,0,79260,task2,1250215,false,false,1549,image-keyboard-response,13
true,15,2,2,2,true,d,false,true,0.0-2.0-0.54-0.489-3.489,1,0,0,68,false,stim,false,1,861.2000000178814,1,0,1,79260,task2,1252599,false,false,1552,image-keyboard-response,14
true,15,0,2,0,true,q,false,true,0.0-2.0-0.54-0.490-3.490,1,0,0,81,false,stim,false,0,535.6999999880791,1,1,0,79260,task2,1254668,false,false,1555,image-keyboard-response,15
true,15,0,2,0,true,q,false,true,0.0-2.0-0.54-0.491-3.491,1,0,0,81,false,stim,false,2,515.5999999940395,1,0,2,79260,task2,1256716,false,false,1558,image-keyboard-response,16
true,15,0,2,0,true,q,false,true,0.0-2.0-0.54-0.492-3.492,1,0,0,81,false,stim,false,2,624.0,1,0,2,79260,task2,1258868,false,false,1561,image-keyboard-response,17
true,15,2,2,2,true,d,false,true,0.0-2.0-0.54-0.493-3.493,1,0,0,68,false,stim,false,1,585.0,1,0,1,79260,task2,1260975,false,false,1564,image-keyboard-response,18
true,15,0,2,0,true,q,false,true,0.0-2.0-0.54-0.494-3.494,1,0,0,81,false,stim,false,2,586.3000000119209,1,0,2,79260,task2,1263076,false,false,1567,image-keyboard-response,19
true,15,2,2,2,true,d,false,true,0.0-2.0-0.55-0.495-3.495,1,0,0,68,false,stim,false,1,573.7999999821186,1,0,1,79260,task2,1265176,false,false,1570,image-keyboard-response,20
true,15,0,2,0,true,q,false,true,0.0-2.0-0.55-0.496-3.496,1,0,0,81,false,stim,false,2,638.1000000238419,1,0,2,79260,task2,1267338,false,false,1573,image-keyboard-response,21
true,15,0,2,0,true,q,false,true,0.0-2.0-0.55-0.497-3.497,1,0,0,81,false,stim,false,2,1193.5999999940395,1,0,2,79260,task2,1270045,false,false,1576,image-keyboard-response,22
true,15,2,2,2,true,d,false,true,0.0-2.0-0.55-0.498-3.498,1,0,0,68,false,stim,false,1,389.2999999821186,1,0,1,79260,task2,1271968,false,false,1579,image-keyboard-response,23
true,15,0,2,0,true,q,false,true,0.0-2.0-0.55-0.499-3.499,1,0,0,81,false,stim,false,2,658.3000000119209,1,0,2,79260,task2,1274169,false,false,1582,image-keyboard-response,24
true,15,0,2,0,true,q,false,true,0.0-2.0-0.55-0.500-3.500,1,0,0,81,false,stim,false,0,572.4000000059605,1,1,0,79260,task2,1276260,false,false,1585,image-keyboard-response,25
true,15,2,2,2,true,d,false,true,0.0-2.0-0.55-0.501-3.501,1,0,0,68,false,stim,false,1,853.7999999821186,1,0,1,79260,task2,1278648,false,false,1588,image-keyboard-response,26
true,15,0,2,0,true,q,false,true,0.0-2.0-0.55-0.502-3.502,1,0,0,81,false,stim,false,0,351.0,1,1,0,79260,task2,1280524,false,false,1591,image-keyboard-response,27
true,15,0,2,0,true,q,false,true,0.0-2.0-0.55-0.503-3.503,1,0,0,81,false,stim,false,0,489.90000000596046,1,1,0,79260,task2,1282546,false,false,1594,image-keyboard-response,28
true,15,0,2,0,true,q,false,false,0.0-2.0-0.56-0.504-3.504,1,0,0,81,false,stim,false,2,615.1000000238419,1,0,2,79260,task2,1284694,false,true,1597,image-keyboard-response,29
true,15,0,2,0,true,q,false,true,0.0-2.0-0.56-0.505-3.505,1,0,0,81,false,stim,false,2,400.40000000596046,1,0,2,79260,task2,1286615,false,false,1600,image-keyboard-response,30
true,15,2,2,2,true,d,false,true,0.0-2.0-0.56-0.506-3.506,1,0,0,68,false,stim,false,1,382.09999999403954,1,0,1,79260,task2,1288554,false,false,1603,image-keyboard-response,31
true,16,0,2,0,true,q,false,true,0.0-2.0-0.56-0.507-3.507,1,0,0,81,true,stim,false,0,690.1999999880791,1,1,0,79260,task2,1290766,false,false,1606,image-keyboard-response,1
true,16,0,2,1,false,z,false,false,0.0-2.0-0.56-0.508-3.508,1,0,0,81,false,stim,true,0,501.19999998807907,1,0,2,79260,task2,1292800,false,false,1609,image-keyboard-response,2
true,16,0,2,0,true,q,false,false,0.0-2.0-0.56-0.509-3.509,1,0,0,81,false,stim,false,0,501.69999998807907,1,1,0,79260,task2,1294827,false,true,1612,image-keyboard-response,3
true,16,2,2,1,false,z,false,false,0.0-2.0-0.56-0.510-3.510,1,0,0,68,false,stim,true,2,697.9000000059605,1,0,1,79260,task2,1297055,false,false,1615,image-keyboard-response,4
true,16,2,2,0,false,q,true,false,0.0-2.0-0.56-0.511-3.511,1,0,0,68,false,stim,false,0,537.3000000119209,1,1,0,79260,task2,1299117,false,false,1618,image-keyboard-response,5
true,16,1,2,1,true,z,false,true,0.0-2.0-0.56-0.512-3.512,1,0,0,90,false,stim,false,2,787.3000000119209,1,0,1,79260,task2,1301438,false,false,1621,image-keyboard-response,6
true,16,1,2,1,true,z,false,true,0.0-2.0-0.57-0.513-3.513,1,0,0,90,false,stim,false,2,672.7000000178814,1,0,1,79260,task2,1303634,false,false,1624,image-keyboard-response,7
true,16,1,2,0,false,q,true,false,0.0-2.0-0.57-0.514-3.514,1,0,0,90,false,stim,false,0,419.69999998807907,1,1,0,79260,task2,1305584,false,false,1627,image-keyboard-response,8
true,16,2,2,1,false,z,true,false,0.0-2.0-0.57-0.515-3.515,1,0,0,68,false,stim,false,0,396.19999998807907,1,0,2,79260,task2,1307514,false,false,1630,image-keyboard-response,9
true,16,1,2,1,true,z,false,true,0.0-2.0-0.57-0.516-3.516,1,0,0,90,false,stim,false,0,393.30000001192093,1,0,2,79260,task2,1309428,false,false,1633,image-keyboard-response,10
true,16,1,2,1,true,z,false,true,0.0-2.0-0.57-0.517-3.517,1,0,0,90,false,stim,false,0,434.90000000596046,1,0,2,79260,task2,1311381,false,false,1636,image-keyboard-response,11
true,16,0,2,0,true,q,false,false,0.0-2.0-0.57-0.518-3.518,1,0,0,81,false,stim,false,0,453.59999999403954,1,1,0,79260,task2,1313358,false,true,1639,image-keyboard-response,12
true,16,1,2,1,true,z,false,true,0.0-2.0-0.57-0.519-3.519,1,0,0,90,false,stim,false,2,463.2000000178814,1,0,1,79260,task2,1315346,false,false,1642,image-keyboard-response,13
true,16,1,2,1,true,z,false,true,0.0-2.0-0.57-0.520-3.520,1,0,0,90,false,stim,false,2,315.40000000596046,1,0,1,79260,task2,1317191,false,false,1645,image-keyboard-response,14
true,16,2,2,0,false,q,true,false,0.0-2.0-0.57-0.521-3.521,1,0,0,68,false,stim,false,0,541.7000000178814,1,1,0,79260,task2,1319262,false,false,1648,image-keyboard-response,15
true,16,1,2,0,false,q,true,false,0.0-2.0-0.58-0.522-3.522,1,0,0,90,false,stim,false,0,406.2999999821186,1,1,0,79260,task2,1321182,false,false,1651,image-keyboard-response,16
true,16,1,2,1,true,z,false,true,0.0-2.0-0.58-0.523-3.523,1,0,0,90,false,stim,false,0,564.5,1,0,2,79260,task2,1323283,false,false,1654,image-keyboard-response,17
true,16,1,2,1,true,z,false,true,0.0-2.0-0.58-0.524-3.524,1,0,0,90,false,stim,false,0,343.2000000178814,1,0,2,79260,task2,1325164,false,false,1657,image-keyboard-response,18
true,16,0,2,0,true,q,false,true,0.0-2.0-0.58-0.525-3.525,1,0,0,81,false,stim,false,0,501.5,1,1,0,79260,task2,1327191,false,false,1660,image-keyboard-response,19
true,16,1,2,1,true,z,false,true,0.0-2.0-0.58-0.526-3.526,1,0,0,90,false,stim,false,2,558.4000000059605,1,0,1,79260,task2,1329274,false,false,1663,image-keyboard-response,20
true,16,1,2,1,true,z,false,true,0.0-2.0-0.58-0.527-3.527,1,0,0,90,false,stim,false,2,340.80000001192093,1,0,1,79260,task2,1331142,false,false,1666,image-keyboard-response,21
true,16,1,2,1,true,z,false,true,0.0-2.0-0.58-0.528-3.528,1,0,0,90,false,stim,false,2,584.5,1,0,1,79260,task2,1333249,false,false,1669,image-keyboard-response,22
true,16,1,2,1,true,z,false,false,0.0-2.0-0.58-0.529-3.529,1,0,0,90,false,stim,false,0,677.1999999880791,1,0,2,79260,task2,1335457,false,true,1672,image-keyboard-response,23
true,16,0,2,0,true,q,false,true,0.0-2.0-0.58-0.530-3.530,1,0,0,81,false,stim,false,0,432.5,1,1,0,79260,task2,1337403,false,false,1675,image-keyboard-response,24
true,16,1,2,0,false,q,true,false,0.0-2.0-0.59-0.531-3.531,1,0,0,90,false,stim,false,0,437.09999999403954,1,1,0,79260,task2,1339363,false,false,1678,image-keyboard-response,25
true,16,1,2,1,true,z,false,true,0.0-2.0-0.59-0.532-3.532,1,0,0,90,false,stim,false,2,566.3000000119209,1,0,1,79260,task2,1341455,false,false,1681,image-keyboard-response,26
true,16,1,2,1,true,z,false,true,0.0-2.0-0.59-0.533-3.533,1,0,0,90,false,stim,false,2,511.59999999403954,1,1,1,79260,task2,1343479,false,false,1684,image-keyboard-response,27
true,16,1,2,1,true,z,false,true,0.0-2.0-0.59-0.534-3.534,1,0,0,90,false,stim,false,0,811.7999999821186,1,1,2,79260,task2,1345830,false,false,1687,image-keyboard-response,28
true,16,0,2,0,true,q,false,false,0.0-2.0-0.59-0.535-3.535,1,0,0,81,false,stim,false,0,413.30000001192093,1,1,0,79260,task2,1347784,false,true,1690,image-keyboard-response,29
true,16,1,2,1,true,z,false,true,0.0-2.0-0.59-0.536-3.536,1,0,0,90,false,stim,false,2,375.40000000596046,1,1,1,79260,task2,1349697,false,false,1693,image-keyboard-response,30
true,16,1,2,1,true,z,false,true,0.0-2.0-0.59-0.537-3.537,1,0,0,90,false,stim,false,0,383.19999998807907,1,1,2,79260,task2,1351604,false,false,1696,image-keyboard-response,31
true,17,0,0,0,true,q,false,true,0.0-2.0-0.59-0.538-3.538,1,1,1,81,true,stim,false,0,1045.4000000059605,1,1,0,79260,task2,1461327,false,false,1806,image-keyboard-response,1
true,17,1,0,1,true,z,false,true,0.0-2.0-0.59-0.539-3.539,1,1,1,90,false,stim,false,1,365.40000000596046,1,1,2,79260,task2,1463222,false,false,1809,image-keyboard-response,2
true,17,1,0,1,true,z,false,true,0.0-2.0-0.60-0.540-3.540,1,1,1,90,false,stim,false,1,534.5999999940395,1,1,2,79260,task2,1465273,false,false,1812,image-keyboard-response,3
true,17,0,0,0,true,q,false,true,0.0-2.0-0.60-0.541-3.541,1,1,1,81,false,stim,false,0,645.6999999880791,1,1,0,79260,task2,1467436,false,false,1815,image-keyboard-response,4
true,17,1,0,1,true,z,false,true,0.0-2.0-0.60-0.542-3.542,1,1,1,90,false,stim,false,1,582.4000000059605,1,1,2,79260,task2,1469545,false,false,1818,image-keyboard-response,5
true,17,0,0,1,false,z,true,false,0.0-2.0-0.60-0.543-3.543,1,1,1,81,false,stim,false,1,377.5,1,1,1,79260,task2,1471452,false,false,1821,image-keyboard-response,6
true,17,1,0,1,true,z,false,true,0.0-2.0-0.60-0.544-3.544,1,1,1,90,false,stim,false,1,532.4000000059605,1,1,2,79260,task2,1473509,false,false,1824,image-keyboard-response,7
true,17,0,0,0,true,q,false,true,0.0-2.0-0.60-0.545-3.545,1,1,1,81,false,stim,false,0,528.6999999880791,1,1,0,79260,task2,1475555,false,false,1827,image-keyboard-response,8
true,17,0,0,0,true,q,false,true,0.0-2.0-0.60-0.546-3.546,1,1,1,81,false,stim,false,0,559.3999999761581,1,0,0,79260,task2,1477651,false,false,1830,image-keyboard-response,9
true,17,1,0,1,true,z,false,true,0.0-2.0-0.60-0.547-3.547,1,1,1,90,false,stim,false,1,479.09999999403954,1,0,1,79260,task2,1479650,false,false,1833,image-keyboard-response,10
true,17,1,0,1,true,z,false,true,0.0-2.0-0.60-0.548-3.548,1,1,1,90,false,stim,false,1,518.5999999940395,1,0,1,79260,task2,1481705,false,false,1836,image-keyboard-response,11
true,17,1,0,1,true,z,false,true,0.0-2.0-0.61-0.549-3.549,1,1,1,90,false,stim,false,1,530.1999999880791,1,0,2,79260,task2,1483765,false,false,1839,image-keyboard-response,12
true,17,1,0,1,true,z,false,true,0.0-2.0-0.61-0.550-3.550,1,1,1,90,false,stim,false,1,451.40000000596046,1,0,1,79260,task2,1485740,false,false,1842,image-keyboard-response,13
true,18,0,1,1,false,z,false,true,0.0-2.0-0.61-0.551-3.551,0,0,0,81,true,stim,true,0,522.8000000119209,1,0,0,79260,task2,1487799,false,true,1845,image-keyboard-response,1
true,18,1,1,0,false,q,false,false,0.0-2.0-0.61-0.552-3.552,0,0,0,90,false,stim,true,1,653.5999999940395,1,0,2,79260,task2,1489978,false,false,1848,image-keyboard-response,2
true,18,1,1,2,false,d,false,false,0.0-2.0-0.61-0.553-3.553,0,0,0,90,false,stim,true,1,389.90000000596046,1,0,1,79260,task2,1491887,false,false,1851,image-keyboard-response,3
true,18,0,1,1,false,z,false,false,0.0-2.0-0.61-0.554-3.554,0,0,0,81,false,stim,true,0,749.9000000059605,1,0,0,79260,task2,1494172,false,false,1854,image-keyboard-response,4
true,18,2,1,0,false,q,true,false,0.0-2.0-0.61-0.555-3.555,0,0,0,68,false,stim,false,1,953.0,1,0,2,79260,task2,1496658,false,false,1857,image-keyboard-response,5
true,18,2,1,2,true,d,false,true,0.0-2.0-0.61-0.556-3.556,0,0,0,68,false,stim,false,1,418.0,1,0,1,79260,task2,1498610,false,false,1860,image-keyboard-response,6
true,18,2,1,1,false,z,true,false,0.0-2.0-0.61-0.557-3.557,0,0,0,68,false,stim,false,0,501.0,1,0,0,79260,task2,1500620,false,false,1863,image-keyboard-response,7
true,18,2,1,2,true,d,false,true,0.0-2.0-0.62-0.558-3.558,0,0,0,68,false,stim,false,1,529.5,1,0,1,79260,task2,1502682,false,false,1866,image-keyboard-response,8
true,18,2,1,2,true,d,false,true,0.0-2.0-0.62-0.559-3.559,0,0,0,68,false,stim,false,1,1072.4000000059605,1,0,1,79260,task2,1505285,false,false,1869,image-keyboard-response,9
true,18,1,1,1,true,z,false,true,0.0-2.0-0.62-0.560-3.560,0,0,0,90,false,stim,false,0,900.6000000238419,1,0,0,79260,task2,1507693,false,false,1872,image-keyboard-response,10
true,18,0,1,0,true,q,false,true,0.0-2.0-0.62-0.561-3.561,0,0,0,81,false,stim,false,1,340.90000000596046,1,0,2,79260,task2,1509557,false,false,1875,image-keyboard-response,11
true,18,0,1,0,true,q,false,true,0.0-2.0-0.62-0.562-3.562,0,0,0,81,false,stim,false,1,992.2000000178814,1,0,2,79260,task2,1512066,false,false,1878,image-keyboard-response,12
true,18,1,1,1,true,z,false,true,0.0-2.0-0.62-0.563-3.563,0,0,0,90,false,stim,false,0,711.5999999940395,1,0,0,79260,task2,1514295,false,false,1881,image-keyboard-response,13
true,18,1,1,1,true,z,false,true,0.0-2.0-0.62-0.564-3.564,0,0,0,90,false,stim,false,0,590.5,1,0,0,79260,task2,1516399,false,false,1884,image-keyboard-response,14
true,18,0,1,2,false,d,true,false,0.0-2.0-0.62-0.565-3.565,0,0,0,81,false,stim,false,1,569.0999999940395,1,0,1,79260,task2,1518495,false,false,1887,image-keyboard-response,15
true,18,0,1,0,true,q,false,true,0.0-2.0-0.62-0.566-3.566,0,0,0,81,false,stim,false,1,1168.699999988079,1,0,2,79260,task2,1521182,false,false,1890,image-keyboard-response,16
true,18,1,1,1,true,z,false,true,0.0-2.0-0.63-0.567-3.567,0,0,0,90,false,stim,false,0,641.9000000059605,1,0,0,79260,task2,1523346,false,false,1893,image-keyboard-response,17
true,18,2,1,2,true,d,false,true,0.0-2.0-0.63-0.568-3.568,0,0,0,68,false,stim,false,1,514.5999999940395,1,0,1,79260,task2,1525377,false,false,1896,image-keyboard-response,18
true,18,1,1,1,true,z,false,false,0.0-2.0-0.63-0.569-3.569,0,0,0,90,false,stim,false,0,645.5,1,0,0,79260,task2,1527544,false,true,1899,image-keyboard-response,19
true,18,0,1,0,true,q,false,true,0.0-2.0-0.63-0.570-3.570,0,0,0,81,false,stim,false,1,601.4000000059605,1,0,2,79260,task2,1529687,false,false,1902,image-keyboard-response,20
true,18,2,1,2,true,d,false,true,0.0-2.0-0.63-0.571-3.571,0,0,0,68,false,stim,false,1,402.69999998807907,1,0,1,79260,task2,1531627,false,false,1905,image-keyboard-response,21
true,18,1,1,1,true,z,false,true,0.0-2.0-0.63-0.572-3.572,0,0,0,90,false,stim,false,0,496.0,1,0,0,79260,task2,1533648,false,false,1908,image-keyboard-response,22
true,18,2,1,2,true,d,false,true,0.0-2.0-0.63-0.573-3.573,0,0,0,68,false,stim,false,1,388.09999999403954,1,0,1,79260,task2,1535567,false,false,1911,image-keyboard-response,23
true,18,0,1,0,true,q,false,true,0.0-2.0-0.63-0.574-3.574,0,0,0,81,false,stim,false,1,850.1000000238419,1,0,2,79260,task2,1537954,false,false,1914,image-keyboard-response,24
true,18,0,1,0,true,q,false,true,0.0-2.0-0.63-0.575-3.575,0,0,0,81,false,stim,false,1,1016.7999999821186,1,0,2,79260,task2,1540497,false,false,1917,image-keyboard-response,25
true,18,1,1,1,true,z,false,true,0.0-2.0-0.64-0.576-3.576,0,0,0,90,false,stim,false,0,699.7999999821186,1,0,0,79260,task2,1542724,false,false,1920,image-keyboard-response,26
true,18,1,1,1,true,z,false,false,0.0-2.0-0.64-0.577-3.577,0,0,0,90,false,stim,false,0,645.0999999940395,1,0,0,79260,task2,1544896,false,true,1923,image-keyboard-response,27
true,18,0,1,0,true,q,false,true,0.0-2.0-0.64-0.578-3.578,0,0,0,81,false,stim,false,1,1048.4000000059605,1,0,2,79260,task2,1547472,false,false,1926,image-keyboard-response,28
true,18,0,1,0,true,q,false,true,0.0-2.0-0.64-0.579-3.579,0,0,0,81,false,stim,false,1,822.5,1,0,2,79260,task2,1549815,false,false,1929,image-keyboard-response,29
true,18,1,1,1,true,z,false,true,0.0-2.0-0.64-0.580-3.580,0,0,0,90,false,stim,false,0,569.5999999940395,1,0,0,79260,task2,1551914,false,false,1932,image-keyboard-response,30
true,18,0,1,0,true,q,false,true,0.0-2.0-0.64-0.581-3.581,0,0,0,81,false,stim,false,1,601.5999999940395,1,0,2,79260,task2,1554049,false,false,1935,image-keyboard-response,31
true,18,2,1,2,true,d,false,true,0.0-2.0-0.64-0.582-3.582,0,0,0,68,false,stim,false,1,774.7000000178814,1,0,1,79260,task2,1556363,false,false,1938,image-keyboard-response,32
true,18,2,1,2,true,d,false,true,0.0-2.0-0.64-0.583-3.583,0,0,0,68,false,stim,false,1,472.2999999821186,1,0,1,79260,task2,1558356,false,false,1941,image-keyboard-response,33
true,18,2,1,2,true,d,false,true,0.0-2.0-0.64-0.584-3.584,0,0,0,68,false,stim,false,1,427.69999998807907,1,0,1,79260,task2,1560304,false,false,1944,image-keyboard-response,34
true,18,2,1,2,true,d,false,true,0.0-2.0-0.65-0.585-3.585,0,0,0,68,false,stim,false,1,427.40000000596046,1,0,1,79260,task2,1562258,false,false,1947,image-keyboard-response,35
true,19,2,1,0,false,q,false,false,0.0-2.0-0.65-0.586-3.586,0,0,0,68,true,stim,true,2,535.4000000059605,1,0,1,79260,task2,1564317,false,false,1950,image-keyboard-response,1
true,19,1,1,2,false,d,false,false,0.0-2.0-0.65-0.587-3.587,0,0,0,90,false,stim,true,1,639.9000000059605,1,0,0,79260,task2,1566474,false,false,1953,image-keyboard-response,2
true,19,1,1,2,false,d,false,false,0.0-2.0-0.65-0.588-3.588,0,0,0,90,false,stim,true,1,772.5999999940395,1,0,0,79260,task2,1568788,false,false,1956,image-keyboard-response,3
true,19,2,1,2,true,d,false,true,0.0-2.0-0.65-0.589-3.589,0,0,0,68,false,stim,false,0,754.8000000119209,1,0,2,79260,task2,1571056,false,false,1959,image-keyboard-response,4
true,19,2,1,2,true,d,false,true,0.0-2.0-0.65-0.590-3.590,0,0,0,68,false,stim,false,0,507.5,1,0,2,79260,task2,1573095,false,false,1962,image-keyboard-response,5
true,19,0,1,0,true,q,false,true,0.0-2.0-0.65-0.591-3.591,0,0,0,81,false,stim,false,2,633.5,1,0,1,79260,task2,1575261,false,false,1965,image-keyboard-response,6
