answered,blockNum,choice,condition,corResp,correct,correct_response,explo,fb,internal_node_id,isStable_1,isStable_2,isStable_3,key_press,newBlock,part,persev,persevResp,rt,sessNum,stableAS,stimulus,subject,task,time_elapsed,training,trap,trial_index,trial_type,trialsInBlock
true,1,0,0,0,true,q,false,true,0.0-2.0-0.0-0.0-3.0,0,0,0,81,true,stim,false,-1,1480.5,2,0,2,80221,task2,201280,false,false,184,image-keyboard-response,1
true,1,0,0,1,false,z,true,false,0.0-2.0-0.0-0.1-3.1,0,0,0,81,false,stim,false,-1,1340.8000011444092,2,0,0,80221,task2,204147,false,false,187,image-keyboard-response,2
true,1,0,0,1,false,z,true,false,0.0-2.0-0.0-0.2-3.2,0,0,0,81,false,stim,false,-1,1551.8999996185303,2,0,1,80221,task2,207233,false,false,190,image-keyboard-response,3
true,1,0,0,0,true,q,false,false,0.0-2.0-0.0-0.3-3.3,0,0,0,81,false,stim,false,-1,1470.5,2,0,2,80221,task2,210240,false,true,193,image-keyboard-response,4
true,1,1,0,1,true,z,false,true,0.0-2.0-0.0-0.4-3.4,0,0,0,90,false,stim,false,-1,2060.599998474121,2,0,0,80221,task2,213836,false,false,196,image-keyboard-response,5
true,1,1,0,1,true,z,false,true,0.0-2.0-0.0-0.5-3.5,0,0,0,90,false,stim,false,-1,1340.6000003814697,2,0,1,80221,task2,216709,false,false,199,image-keyboard-response,6
true,1,1,0,1,true,z,false,true,0.0-2.0-0.0-0.6-3.6,0,0,0,90,false,stim,false,-1,1213.400001525879,2,0,0,80221,task2,219445,false,false,202,image-keyboard-response,7
true,1,1,0,1,true,z,false,true,0.0-2.0-0.0-0.7-3.7,0,0,0,90,false,stim,false,-1,733.3999996185303,2,0,1,80221,task2,221702,false,false,205,image-keyboard-response,8
true,1,0,0,0,true,q,false,true,0.0-2.0-0.0-0.8-3.8,0,0,0,81,false,stim,false,-1,1246.099998474121,2,0,2,80221,task2,224477,false,false,208,image-keyboard-response,9
true,1,0,0,0,true,q,false,false,0.0-2.0-0.1-0.9-3.9,0,0,0,81,false,stim,false,-1,1444.5,2,0,2,80221,task2,227446,false,true,211,image-keyboard-response,10
true,1,1,0,1,true,z,false,true,0.0-2.0-0.1-0.10-3.10,0,0,0,90,false,stim,false,-1,2554.7999992370605,2,0,1,80221,task2,231518,false,false,214,image-keyboard-response,11
true,1,1,0,1,true,z,false,true,0.0-2.0-0.1-0.11-3.11,0,0,0,90,false,stim,false,-1,657.6000003814697,2,0,0,80221,task2,233720,false,false,217,image-keyboard-response,12
true,1,1,0,1,true,z,false,false,0.0-2.0-0.1-0.12-3.12,0,0,0,90,false,stim,false,-1,1440.400001525879,2,0,1,80221,task2,236691,false,true,220,image-keyboard-response,13
true,1,1,0,1,true,z,false,true,0.0-2.0-0.1-0.13-3.13,0,0,0,90,false,stim,false,-1,2453.7000007629395,2,0,1,80221,task2,240674,false,false,223,image-keyboard-response,14
true,1,1,0,1,true,z,false,true,0.0-2.0-0.1-0.14-3.14,0,0,0,90,false,stim,false,-1,932.7000007629395,2,0,0,80221,task2,243137,false,false,226,image-keyboard-response,15
true,1,0,0,0,true,q,false,true,0.0-2.0-0.1-0.15-3.15,0,0,0,81,false,stim,false,-1,810.1999988555908,2,0,2,80221,task2,245475,false,false,229,image-keyboard-response,16
true,1,1,0,1,true,z,false,false,0.0-2.0-0.1-0.16-3.16,0,0,0,90,false,stim,false,-1,1086.7000007629395,2,0,0,80221,task2,248089,false,true,232,image-keyboard-response,17
true,1,0,0,0,true,q,false,true,0.0-2.0-0.1-0.17-3.17,0,0,0,81,false,stim,false,-1,1261.8000011444092,2,0,2,80221,task2,250875,false,false,235,image-keyboard-response,18
true,1,1,0,1,true,z,false,true,0.0-2.0-0.2-0.18-3.18,0,0,0,90,false,stim,false,-1,1178.1000003814697,2,0,1,80221,task2,253594,false,false,238,image-keyboard-response,19
true,1,0,0,0,true,q,false,true,0.0-2.0-0.2-0.19-3.19,0,0,0,81,false,stim,false,-1,2535.300001144409,2,0,2,80221,task2,257650,false,false,241,image-keyboard-response,20
true,1,0,0,0,true,q,false,true,0.0-2.0-0.2-0.20-3.20,0,0,0,81,false,stim,false,-1,1356.5,2,0,2,80221,task2,260516,false,false,244,image-keyboard-response,21
true,1,1,0,1,true,z,false,true,0.0-2.0-0.2-0.21-3.21,0,0,0,90,false,stim,false,-1,1903.6000003814697,2,0,1,80221,task2,263958,false,false,247,image-keyboard-response,22
false,1,-1,0,1,false,z,false,false,0.0-2.0-0.2-0.22-3.22,0,0,0,,false,stim,true,-1,,2,0,0,80221,task2,268494,false,false,250,image-keyboard-response,23
true,1,1,0,1,true,z,false,true,0.0-2.0-0.2-0.23-3.23,0,0,0,90,false,stim,false,-1,1645.5,2,0,0,80221,task2,271662,false,false,253,image-keyboard-response,24
true,1,0,0,0,true,q,false,true,0.0-2.0-0.2-0.24-3.24,0,0,0,81,false,stim,false,-1,1916.3000011444092,2,0,2,80221,task2,275100,false,false,256,image-keyboard-response,25
true,1,1,0,1,true,z,false,true,0.0-2.0-0.2-0.25-3.25,0,0,0,90,false,stim,false,-1,2108.1000003814697,2,0,0,80221,task2,278731,false,false,259,image-keyboard-response,26
true,2,1,1,0,false,q,false,false,0.0-2.0-0.2-0.26-3.26,0,0,0,90,true,stim,true,1,1094.5,2,0,1,80221,task2,281365,false,false,262,image-keyboard-response,1
true,2,1,1,0,false,q,false,false,0.0-2.0-0.3-0.27-3.27,0,0,0,90,false,stim,true,1,827.1000003814697,2,0,0,80221,task2,283727,false,false,265,image-keyboard-response,2
true,2,0,1,2,false,d,false,false,0.0-2.0-0.3-0.28-3.28,0,0,0,81,false,stim,true,0,1322.2000007629395,2,0,2,80221,task2,286589,false,false,268,image-keyboard-response,3
true,2,1,1,0,false,q,false,false,0.0-2.0-0.3-0.29-3.29,0,0,0,90,false,stim,true,1,1084.7000007629395,2,0,1,80221,task2,289215,false,false,271,image-keyboard-response,4
true,2,2,1,0,false,q,true,false,0.0-2.0-0.3-0.30-3.30,0,0,0,68,false,stim,false,1,789.3999996185303,2,0,1,80221,task2,291524,false,false,274,image-keyboard-response,5
true,2,2,1,0,false,q,true,false,0.0-2.0-0.3-0.31-3.31,0,0,0,68,false,stim,false,1,1086.2999992370605,2,0,0,80221,task2,294145,false,false,277,image-keyboard-response,6
true,2,1,1,2,false,d,true,false,0.0-2.0-0.3-0.32-3.32,0,0,0,90,false,stim,false,0,1720.3999996185303,2,0,2,80221,task2,297400,false,false,280,image-keyboard-response,7
true,2,1,1,0,false,q,false,false,0.0-2.0-0.3-0.33-3.33,0,0,0,90,false,stim,true,1,1505.6999988555908,2,0,0,80221,task2,300442,false,false,283,image-keyboard-response,8
true,2,1,1,2,false,d,true,true,0.0-2.0-0.3-0.34-3.34,0,0,0,90,false,stim,false,0,1319.8999996185303,2,0,2,80221,task2,303303,false,true,286,image-keyboard-response,9
true,2,0,1,0,true,q,false,true,0.0-2.0-0.3-0.35-3.35,0,0,0,81,false,stim,false,1,1282.3999996185303,2,0,1,80221,task2,306120,false,false,289,image-keyboard-response,10
true,2,0,1,0,true,q,false,true,0.0-2.0-0.4-0.36-3.36,0,0,0,81,false,stim,false,1,1216.3999996185303,2,0,1,80221,task2,308860,false,false,292,image-keyboard-response,11
true,2,0,1,0,true,q,false,true,0.0-2.0-0.4-0.37-3.37,0,0,0,81,false,stim,false,1,953.8999996185303,2,0,0,80221,task2,311343,false,false,295,image-keyboard-response,12
true,2,0,1,0,true,q,false,true,0.0-2.0-0.4-0.38-3.38,0,0,0,81,false,stim,false,1,1206.3999996185303,2,0,0,80221,task2,314065,false,false,298,image-keyboard-response,13
true,2,0,1,0,true,q,false,true,0.0-2.0-0.4-0.39-3.39,0,0,0,81,false,stim,false,1,1120.1000003814697,2,0,0,80221,task2,316726,false,false,301,image-keyboard-response,14
true,2,1,1,2,false,d,true,false,0.0-2.0-0.4-0.40-3.40,0,0,0,90,false,stim,false,0,1382.2999992370605,2,0,2,80221,task2,319638,false,false,304,image-keyboard-response,15
true,2,0,1,0,true,q,false,true,0.0-2.0-0.4-0.41-3.41,0,0,0,81,false,stim,false,1,1032.7000007629395,2,0,1,80221,task2,322196,false,false,307,image-keyboard-response,16
true,2,0,1,0,true,q,false,true,0.0-2.0-0.4-0.42-3.42,0,0,0,81,false,stim,false,1,890.6000003814697,2,0,1,80221,task2,324615,false,false,310,image-keyboard-response,17
true,2,1,1,2,false,d,true,false,0.0-2.0-0.4-0.43-3.43,0,0,0,90,false,stim,false,0,966.1999988555908,2,0,2,80221,task2,327114,false,false,313,image-keyboard-response,18
true,2,1,1,2,false,d,true,false,0.0-2.0-0.4-0.44-3.44,0,0,0,90,false,stim,false,0,942.7000007629395,2,0,2,80221,task2,329582,false,false,316,image-keyboard-response,19
true,2,0,1,0,true,q,false,true,0.0-2.0-0.5-0.45-3.45,0,0,0,81,false,stim,false,1,1111.5,2,0,1,80221,task2,332219,false,false,319,image-keyboard-response,20
true,2,0,1,0,true,q,false,false,0.0-2.0-0.5-0.46-3.46,0,0,0,81,false,stim,false,1,904.7000007629395,2,0,1,80221,task2,334657,false,true,322,image-keyboard-response,21
true,2,0,1,0,true,q,false,true,0.0-2.0-0.5-0.47-3.47,0,0,0,81,false,stim,false,1,1396.0,2,0,0,80221,task2,337589,false,false,325,image-keyboard-response,22
true,2,1,1,2,false,d,true,false,0.0-2.0-0.5-0.48-3.48,0,0,0,90,false,stim,false,0,1087.1000003814697,2,0,2,80221,task2,340201,false,false,328,image-keyboard-response,23
false,2,-1,1,0,false,q,true,false,0.0-2.0-0.5-0.49-3.49,0,0,0,,false,stim,false,1,,2,0,0,80221,task2,344745,false,false,331,image-keyboard-response,24
false,2,-1,1,2,false,d,true,false,0.0-2.0-0.5-0.50-3.50,0,0,0,,false,stim,false,0,,2,0,2,80221,task2,349282,false,false,334,image-keyboard-response,25
true,2,1,1,2,false,d,true,false,0.0-2.0-0.5-0.51-3.51,0,0,0,90,false,stim,false,0,464.20000076293945,2,0,2,80221,task2,351268,false,false,337,image-keyboard-response,26
true,2,2,1,0,false,q,true,false,0.0-2.0-0.5-0.52-3.52,0,0,0,68,false,stim,false,1,2095.300001144409,2,0,0,80221,task2,354891,false,false,340,image-keyboard-response,27
true,2,2,1,0,false,q,true,false,0.0-2.0-0.5-0.53-3.53,0,0,0,68,false,stim,false,1,1580.1000003814697,2,0,1,80221,task2,357999,false,false,343,image-keyboard-response,28
true,2,2,1,0,false,q,true,false,0.0-2.0-0.6-0.54-3.54,0,0,0,68,false,stim,false,1,1401.0,2,0,1,80221,task2,360927,false,false,346,image-keyboard-response,29
true,2,0,1,0,true,q,false,true,0.0-2.0-0.6-0.55-3.55,0,0,0,81,false,stim,false,1,2017.8999996185303,2,0,0,80221,task2,364468,false,false,349,image-keyboard-response,30
true,2,0,1,2,false,d,false,false,0.0-2.0-0.6-0.56-3.56,0,0,0,81,false,stim,true,0,1184.6000003814697,2,0,2,80221,task2,367203,false,false,352,image-keyboard-response,31
true,2,0,1,0,true,q,false,true,0.0-2.0-0.6-0.57-3.57,0,0,0,81,false,stim,false,1,1236.7000007629395,2,0,0,80221,task2,369967,false,false,355,image-keyboard-response,32
true,2,0,1,0,true,q,false,true,0.0-2.0-0.6-0.58-3.58,0,0,0,81,false,stim,false,1,1205.7999992370605,2,0,0,80221,task2,372708,false,false,358,image-keyboard-response,33
true,2,2,1,0,false,q,true,true,0.0-2.0-0.6-0.59-3.59,0,0,0,68,false,stim,false,1,1042.6999988555908,2,0,1,80221,task2,375284,false,true,361,image-keyboard-response,34
true,2,1,1,2,false,d,true,false,0.0-2.0-0.6-0.60-3.60,0,0,0,90,false,stim,false,0,1410.5,2,0,2,80221,task2,378228,false,false,364,image-keyboard-response,35
true,2,2,1,0,false,q,true,false,0.0-2.0-0.6-0.61-3.61,0,0,0,68,false,stim,false,1,2211.8999996185303,2,0,1,80221,task2,381967,false,false,367,image-keyboard-response,36
true,2,0,1,2,false,d,false,false,0.0-2.0-0.6-0.62-3.62,0,0,0,81,false,stim,true,0,2054.2999992370605,2,0,2,80221,task2,385558,false,false,370,image-keyboard-response,37
true,3,2,1,2,true,d,false,true,0.0-2.0-0.7-0.63-3.63,0,0,0,68,true,stim,false,0,1125.6000003814697,2,0,1,80221,task2,388217,false,false,373,image-keyboard-response,1
true,3,1,1,1,true,z,false,true,0.0-2.0-0.7-0.64-3.64,0,0,0,90,false,stim,false,2,1090.5,2,0,2,80221,task2,390841,false,false,376,image-keyboard-response,2
true,3,2,1,2,true,d,false,true,0.0-2.0-0.7-0.65-3.65,0,0,0,68,false,stim,false,0,959.3999996185303,2,0,0,80221,task2,393332,false,false,379,image-keyboard-response,3
true,3,2,1,2,true,d,false,true,0.0-2.0-0.7-0.66-3.66,0,0,0,68,false,stim,false,0,454.1000003814697,2,0,0,80221,task2,395303,false,false,382,image-keyboard-response,4
true,3,0,1,2,false,d,false,false,0.0-2.0-0.7-0.67-3.67,0,0,0,81,false,stim,true,0,797.2000007629395,2,0,1,80221,task2,397635,false,false,385,image-keyboard-response,5
true,3,0,1,1,false,z,true,false,0.0-2.0-0.7-0.68-3.68,0,0,0,81,false,stim,false,2,746.6999988555908,2,0,2,80221,task2,399907,false,false,388,image-keyboard-response,6
true,3,0,1,1,false,z,true,false,0.0-2.0-0.7-0.69-3.69,0,0,0,81,false,stim,false,2,368.8999996185303,2,0,2,80221,task2,401797,false,false,391,image-keyboard-response,7
true,3,2,1,2,true,d,false,true,0.0-2.0-0.7-0.70-3.70,0,0,0,68,false,stim,false,0,232.39999961853027,2,0,0,80221,task2,403565,false,false,394,image-keyboard-response,8
true,3,0,1,2,false,d,false,false,0.0-2.0-0.7-0.71-3.71,0,0,0,81,false,stim,true,0,346.6999988555908,2,0,1,80221,task2,405436,false,false,397,image-keyboard-response,9
true,3,2,1,2,true,d,false,true,0.0-2.0-0.8-0.72-3.72,0,0,0,68,false,stim,false,0,723.8999996185303,2,0,0,80221,task2,407703,false,false,400,image-keyboard-response,10
true,3,1,1,2,false,d,true,false,0.0-2.0-0.8-0.73-3.73,0,0,0,90,false,stim,false,0,769.5,2,0,1,80221,task2,410000,false,false,403,image-keyboard-response,11
true,3,2,1,2,true,d,false,true,0.0-2.0-0.8-0.74-3.74,0,0,0,68,false,stim,false,0,454.79999923706055,2,0,1,80221,task2,411991,false,false,406,image-keyboard-response,12
true,3,0,1,1,false,z,true,false,0.0-2.0-0.8-0.75-3.75,0,0,0,81,false,stim,false,2,355.70000076293945,2,0,2,80221,task2,413864,false,false,409,image-keyboard-response,13
true,3,2,1,2,true,d,false,true,0.0-2.0-0.8-0.76-3.76,0,0,0,68,false,stim,false,0,484.70000076293945,2,0,0,80221,task2,415884,false,false,412,image-keyboard-response,14
true,3,2,1,1,false,z,false,false,0.0-2.0-0.8-0.77-3.77,0,0,0,68,false,stim,true,2,251.0999984741211,2,0,2,80221,task2,417655,false,false,415,image-keyboard-response,15
true,3,2,1,1,false,z,false,false,0.0-2.0-0.8-0.78-3.78,0,0,0,68,false,stim,true,2,277.4000015258789,2,0,2,80221,task2,419470,false,false,418,image-keyboard-response,16
true,3,2,1,2,true,d,false,true,0.0-2.0-0.8-0.79-3.79,0,0,0,68,false,stim,false,0,357.0,2,0,0,80221,task2,421369,false,false,421,image-keyboard-response,17
true,3,2,1,2,true,d,false,true,0.0-2.0-0.8-0.80-3.80,0,0,0,68,false,stim,false,0,290.1000003814697,2,0,1,80221,task2,423191,false,false,424,image-keyboard-response,18
true,3,1,1,1,true,z,false,true,0.0-2.0-0.9-0.81-3.81,0,0,0,90,false,stim,false,2,341.1000003814697,2,0,2,80221,task2,425055,false,false,427,image-keyboard-response,19
true,3,2,1,2,true,d,false,true,0.0-2.0-0.9-0.82-3.82,0,0,0,68,false,stim,false,0,369.8999996185303,2,0,1,80221,task2,426954,false,false,430,image-keyboard-response,20
true,3,2,1,2,true,d,false,true,0.0-2.0-0.9-0.83-3.83,0,0,0,68,false,stim,false,0,345.3999996185303,2,0,0,80221,task2,428834,false,false,433,image-keyboard-response,21
true,3,1,1,1,true,z,false,true,0.0-2.0-0.9-0.84-3.84,0,0,0,90,false,stim,false,2,327.70000076293945,2,0,2,80221,task2,430690,false,false,436,image-keyboard-response,22
true,3,2,1,2,true,d,false,true,0.0-2.0-0.9-0.85-3.85,0,0,0,68,false,stim,false,0,344.70000076293945,2,0,0,80221,task2,432560,false,false,439,image-keyboard-response,23
true,3,2,1,2,true,d,false,true,0.0-2.0-0.9-0.86-3.86,0,0,0,68,false,stim,false,0,351.29999923706055,2,0,1,80221,task2,434431,false,false,442,image-keyboard-response,24
true,3,2,1,1,false,z,false,false,0.0-2.0-0.9-0.87-3.87,0,0,0,68,false,stim,true,2,300.5,2,0,2,80221,task2,436259,false,false,445,image-keyboard-response,25
true,3,2,1,2,true,d,false,true,0.0-2.0-0.9-0.88-3.88,0,0,0,68,false,stim,false,0,384.70000076293945,2,0,0,80221,task2,438180,false,false,448,image-keyboard-response,26
true,3,2,1,2,true,d,false,true,0.0-2.0-0.9-0.89-3.89,0,0,0,68,false,stim,false,0,315.79999923706055,2,0,1,80221,task2,440032,false,false,451,image-keyboard-response,27
true,3,2,1,2,true,d,false,true,0.0-2.0-0.10-0.90-3.90,0,0,0,68,false,stim,false,0,376.3000011444092,2,0,1,80221,task2,441950,false,false,454,image-keyboard-response,28
true,3,2,1,2,true,d,false,true,0.0-2.0-0.10-0.91-3.91,0,0,0,68,false,stim,false,0,505.79999923706055,2,0,0,80221,task2,443985,false,false,457,image-keyboard-response,29
true,3,1,1,1,true,z,false,true,0.0-2.0-0.10-0.92-3.92,0,0,0,90,false,stim,false,2,370.6999988555908,2,0,2,80221,task2,445872,false,false,460,image-keyboard-response,30
true,3,2,1,2,true,d,false,true,0.0-2.0-0.10-0.93-3.93,0,0,0,68,false,stim,false,0,327.4000015258789,2,0,1,80221,task2,447732,false,false,463,image-keyboard-response,31
true,3,2,1,1,false,z,false,false,0.0-2.0-0.10-0.94-3.94,0,0,0,68,false,stim,true,2,319.70000076293945,2,0,2,80221,task2,449578,false,false,466,image-keyboard-response,32
true,3,2,1,2,true,d,false,true,0.0-2.0-0.10-0.95-3.95,0,0,0,68,false,stim,false,0,321.1000003814697,2,0,0,80221,task2,451421,false,false,469,image-keyboard-response,33
true,3,2,1,2,true,d,false,true,0.0-2.0-0.10-0.96-3.96,0,0,0,68,false,stim,false,0,299.79999923706055,2,0,0,80221,task2,453252,false,false,472,image-keyboard-response,34
true,3,1,1,1,true,z,false,true,0.0-2.0-0.10-0.97-3.97,0,0,0,90,false,stim,false,2,608.0,2,0,2,80221,task2,455383,false,false,475,image-keyboard-response,35
true,4,2,1,0,false,q,false,false,0.0-2.0-0.10-0.98-3.98,0,0,0,68,true,stim,true,2,343.29999923706055,2,0,1,80221,task2,457260,false,false,478,image-keyboard-response,1
true,4,1,1,0,false,q,false,false,0.0-2.0-0.11-0.99-3.99,0,0,0,90,false,stim,true,1,357.1999988555908,2,0,2,80221,task2,459140,false,false,481,image-keyboard-response,2
true,4,2,1,0,false,q,false,false,0.0-2.0-0.11-0.100-3.100,0,0,0,68,false,stim,true,2,297.8999996185303,2,0,1,80221,task2,460947,false,false,484,image-keyboard-response,3
true,4,2,1,0,false,q,true,false,0.0-2.0-0.11-0.101-3.101,0,0,0,68,false,stim,false,1,444.0,2,0,2,80221,task2,462922,false,false,487,image-keyboard-response,4
true,4,1,1,0,false,q,true,false,0.0-2.0-0.11-0.102-3.102,0,0,0,90,false,stim,false,2,357.1999988555908,2,0,1,80221,task2,464809,false,false,490,image-keyboard-response,5
true,4,2,1,1,false,z,false,false,0.0-2.0-0.11-0.103-3.103,0,0,0,68,false,stim,true,2,634.3999996185303,2,0,0,80221,task2,466977,false,false,493,image-keyboard-response,6
true,4,1,1,0,false,q,false,false,0.0-2.0-0.11-0.104-3.104,0,0,0,90,false,stim,true,1,382.6000003814697,2,0,2,80221,task2,468894,false,false,496,image-keyboard-response,7
true,4,2,1,0,false,q,false,false,0.0-2.0-0.11-0.105-3.105,0,0,0,68,false,stim,true,2,338.29999923706055,2,0,1,80221,task2,470775,false,false,499,image-keyboard-response,8
true,4,2,1,1,false,z,false,false,0.0-2.0-0.11-0.106-3.106,0,0,0,68,false,stim,true,2,675.3000011444092,2,0,0,80221,task2,472981,false,false,502,image-keyboard-response,9
true,4,0,1,1,false,z,true,false,0.0-2.0-0.11-0.107-3.107,0,0,0,81,false,stim,false,2,287.70000076293945,2,0,0,80221,task2,474800,false,false,505,image-keyboard-response,10
true,4,0,1,1,false,z,true,false,0.0-2.0-0.12-0.108-3.108,0,0,0,81,false,stim,false,2,407.70000076293945,2,0,0,80221,task2,476733,false,false,508,image-keyboard-response,11
true,4,1,1,0,false,q,true,false,0.0-2.0-0.12-0.109-3.109,0,0,0,90,false,stim,false,2,569.7999992370605,2,0,1,80221,task2,478842,false,false,511,image-keyboard-response,12
true,4,0,1,0,true,q,false,true,0.0-2.0-0.12-0.110-3.110,0,0,0,81,false,stim,false,1,971.6000003814697,2,0,2,80221,task2,481349,false,false,514,image-keyboard-response,13
true,4,2,1,1,false,z,false,true,0.0-2.0-0.12-0.111-3.111,0,0,0,68,false,stim,true,2,834.7000007629395,2,0,0,80221,task2,483719,false,true,517,image-keyboard-response,14
true,4,0,1,0,true,q,false,true,0.0-2.0-0.12-0.112-3.112,0,0,0,81,false,stim,false,1,733.3000011444092,2,0,2,80221,task2,485986,false,false,520,image-keyboard-response,15
true,4,0,1,0,true,q,false,true,0.0-2.0-0.12-0.113-3.113,0,0,0,81,false,stim,false,1,391.0,2,0,2,80221,task2,487918,false,false,523,image-keyboard-response,16
true,4,0,1,1,false,z,true,false,0.0-2.0-0.12-0.114-3.114,0,0,0,81,false,stim,false,2,369.8999996185303,2,0,0,80221,task2,489829,false,false,526,image-keyboard-response,17
true,4,0,1,0,true,q,false,true,0.0-2.0-0.12-0.115-3.115,0,0,0,81,false,stim,false,2,308.1000003814697,2,0,1,80221,task2,491672,false,false,529,image-keyboard-response,18
true,4,0,1,0,true,q,false,true,0.0-2.0-0.12-0.116-3.116,0,0,0,81,false,stim,false,2,333.5,2,0,1,80221,task2,493550,false,false,532,image-keyboard-response,19
true,4,2,1,1,false,z,false,false,0.0-2.0-0.13-0.117-3.117,0,0,0,68,false,stim,true,2,390.6000003814697,2,0,0,80221,task2,495468,false,false,535,image-keyboard-response,20
true,4,0,1,0,true,q,false,true,0.0-2.0-0.13-0.118-3.118,0,0,0,81,false,stim,false,2,365.70000076293945,2,0,1,80221,task2,497362,false,false,538,image-keyboard-response,21
true,4,2,1,1,false,z,false,false,0.0-2.0-0.13-0.119-3.119,0,0,0,68,false,stim,true,2,551.2999992370605,2,0,0,80221,task2,499438,false,false,541,image-keyboard-response,22
true,4,2,1,1,false,z,false,false,0.0-2.0-0.13-0.120-3.120,0,0,0,68,false,stim,true,2,506.0,2,0,0,80221,task2,501472,false,false,544,image-keyboard-response,23
true,4,0,1,0,true,q,false,true,0.0-2.0-0.13-0.121-3.121,0,0,0,81,false,stim,false,2,324.8999996185303,2,0,1,80221,task2,503325,false,false,547,image-keyboard-response,24
true,4,0,1,0,true,q,false,true,0.0-2.0-0.13-0.122-3.122,0,0,0,81,false,stim,false,2,331.0,2,0,1,80221,task2,505178,false,false,550,image-keyboard-response,25
true,4,0,1,0,true,q,false,true,0.0-2.0-0.13-0.123-3.123,0,0,0,81,false,stim,false,1,777.2999992370605,2,0,2,80221,task2,507468,false,false,553,image-keyboard-response,26
true,4,0,1,0,true,q,false,true,0.0-2.0-0.13-0.124-3.124,0,0,0,81,false,stim,false,1,317.3999996185303,2,0,2,80221,task2,509315,false,false,556,image-keyboard-response,27
true,4,0,1,0,true,q,false,true,0.0-2.0-0.13-0.125-3.125,0,0,0,81,false,stim,false,1,345.3999996185303,2,0,2,80221,task2,511194,false,false,559,image-keyboard-response,28
true,4,2,1,1,false,z,false,false,0.0-2.0-0.14-0.126-3.126,0,0,0,68,false,stim,true,2,689.1999988555908,2,0,0,80221,task2,513400,false,false,562,image-keyboard-response,29
true,4,0,1,0,true,q,false,true,0.0-2.0-0.14-0.127-3.127,0,0,0,81,false,stim,false,1,372.1000003814697,2,0,2,80221,task2,515284,false,false,565,image-keyboard-response,30
true,4,1,1,1,true,z,false,true,0.0-2.0-0.14-0.128-3.128,0,0,0,90,false,stim,false,2,404.1000003814697,2,0,0,80221,task2,517220,false,false,568,image-keyboard-response,31
true,4,0,1,0,true,q,false,true,0.0-2.0-0.14-0.129-3.129,0,0,0,81,false,stim,false,2,283.3999996185303,2,0,1,80221,task2,519042,false,false,571,image-keyboard-response,32
true,4,0,1,0,true,q,false,true,0.0-2.0-0.14-0.130-3.130,0,0,0,81,false,stim,false,1,316.6999988555908,2,0,2,80221,task2,520896,false,false,574,image-keyboard-response,33
true,4,0,1,0,true,q,false,true,0.0-2.0-0.14-0.131-3.131,0,0,0,81,false,stim,false,1,207.89999961853027,2,0,2,80221,task2,522637,false,false,577,image-keyboard-response,34
true,4,0,1,0,true,q,false,true,0.0-2.0-0.14-0.132-3.132,0,0,0,81,false,stim,false,2,230.80000114440918,2,0,1,80221,task2,524400,false,false,580,image-keyboard-response,35
true,4,0,1,0,true,q,false,true,0.0-2.0-0.14-0.133-3.133,0,0,0,81,false,stim,false,2,272.29999923706055,2,0,1,80221,task2,526209,false,false,583,image-keyboard-response,36
true,4,0,1,1,false,z,true,false,0.0-2.0-0.14-0.134-3.134,0,0,0,81,false,stim,false,2,283.3999996185303,2,0,0,80221,task2,528026,false,false,586,image-keyboard-response,37
true,4,0,1,0,true,q,false,true,0.0-2.0-0.15-0.135-3.135,0,0,0,81,false,stim,false,1,325.5,2,0,2,80221,task2,529878,false,false,589,image-keyboard-response,38
true,5,0,1,2,false,d,false,false,0.0-2.0-0.15-0.136-3.136,0,0,0,81,true,stim,true,0,373.5,2,0,1,80221,task2,531778,false,false,592,image-keyboard-response,1
true,5,1,1,0,false,q,false,false,0.0-2.0-0.15-0.137-3.137,0,0,0,90,false,stim,true,1,659.3999996185303,2,0,0,80221,task2,533969,false,false,595,image-keyboard-response,2
true,5,1,1,0,false,q,false,false,0.0-2.0-0.15-0.138-3.138,0,0,0,90,false,stim,true,1,1125.7000007629395,2,0,0,80221,task2,536626,false,false,598,image-keyboard-response,3
true,5,0,1,2,false,d,false,false,0.0-2.0-0.15-0.139-3.139,0,0,0,81,false,stim,true,0,305.5,2,0,1,80221,task2,538467,false,false,601,image-keyboard-response,4
true,5,2,1,0,false,q,true,false,0.0-2.0-0.15-0.140-3.140,0,0,0,68,false,stim,false,1,391.29999923706055,2,0,0,80221,task2,540371,false,false,604,image-keyboard-response,5
true,5,2,1,2,true,d,false,true,0.0-2.0-0.15-0.141-3.141,0,0,0,68,false,stim,false,0,520.4000015258789,2,0,2,80221,task2,542416,false,false,607,image-keyboard-response,6
true,5,2,1,2,true,d,false,true,0.0-2.0-0.15-0.142-3.142,0,0,0,68,false,stim,false,0,335.0,2,0,2,80221,task2,544285,false,false,610,image-keyboard-response,7
true,5,2,1,2,true,d,false,true,0.0-2.0-0.15-0.143-3.143,0,0,0,68,false,stim,false,0,392.5,2,0,1,80221,task2,546230,false,false,613,image-keyboard-response,8
true,5,2,1,0,false,q,true,true,0.0-2.0-0.16-0.144-3.144,0,0,0,68,false,stim,false,1,98.0,2,0,0,80221,task2,547861,false,true,616,image-keyboard-response,9
true,5,2,1,2,true,d,false,true,0.0-2.0-0.16-0.145-3.145,0,0,0,68,false,stim,false,0,112.60000038146973,2,0,2,80221,task2,549503,false,false,619,image-keyboard-response,10
true,5,2,1,0,false,q,true,false,0.0-2.0-0.16-0.146-3.146,0,0,0,68,false,stim,false,1,109.60000038146973,2,0,0,80221,task2,551154,false,false,622,image-keyboard-response,11
true,5,2,1,2,true,d,false,false,0.0-2.0-0.16-0.147-3.147,0,0,0,68,false,stim,false,0,214.10000038146973,2,0,2,80221,task2,552891,false,true,625,image-keyboard-response,12
true,5,2,1,2,true,d,false,false,0.0-2.0-0.16-0.148-3.148,0,0,0,68,false,stim,false,0,221.60000038146973,2,0,1,80221,task2,554650,false,true,628,image-keyboard-response,13
true,5,0,1,2,false,d,false,false,0.0-2.0-0.16-0.149-3.149,0,0,0,81,false,stim,true,0,110.10000038146973,2,0,1,80221,task2,556293,false,false,631,image-keyboard-response,14
true,5,0,1,0,true,q,false,true,0.0-2.0-0.16-0.150-3.150,0,0,0,81,false,stim,false,1,70.0,2,0,0,80221,task2,557897,false,false,634,image-keyboard-response,15
true,5,1,1,2,false,d,true,false,0.0-2.0-0.16-0.151-3.151,0,0,0,90,false,stim,false,0,526.0,2,0,2,80221,task2,559972,false,false,637,image-keyboard-response,16
true,5,1,1,2,false,d,true,false,0.0-2.0-0.16-0.152-3.152,0,0,0,90,false,stim,false,0,114.39999961853027,2,0,1,80221,task2,561627,false,false,640,image-keyboard-response,17
true,5,2,1,0,false,q,true,false,0.0-2.0-0.17-0.153-3.153,0,0,0,68,false,stim,false,1,28.100000381469727,2,0,0,80221,task2,563188,false,false,643,image-keyboard-response,18
true,5,0,1,2,false,d,false,false,0.0-2.0-0.17-0.154-3.154,0,0,0,81,false,stim,true,0,8.5,2,0,2,80221,task2,564734,false,false,646,image-keyboard-response,19
true,5,1,1,2,false,d,true,false,0.0-2.0-0.17-0.155-3.155,0,0,0,90,false,stim,false,0,47.599998474121094,2,0,1,80221,task2,566309,false,false,649,image-keyboard-response,20
true,5,1,1,2,false,d,true,true,0.0-2.0-0.17-0.156-3.156,0,0,0,90,false,stim,false,0,40.69999885559082,2,0,2,80221,task2,567865,false,true,652,image-keyboard-response,21
true,5,2,1,0,false,q,true,false,0.0-2.0-0.17-0.157-3.157,0,0,0,68,false,stim,false,1,385.0,2,0,0,80221,task2,569796,false,false,655,image-keyboard-response,22
true,5,0,1,2,false,d,false,false,0.0-2.0-0.17-0.158-3.158,0,0,0,81,false,stim,true,0,348.6000003814697,2,0,1,80221,task2,571717,false,false,658,image-keyboard-response,23
true,5,0,1,0,true,q,false,true,0.0-2.0-0.17-0.159-3.159,0,0,0,81,false,stim,false,1,424.20000076293945,2,0,0,80221,task2,573689,false,false,661,image-keyboard-response,24
true,5,0,1,2,false,d,false,false,0.0-2.0-0.17-0.160-3.160,0,0,0,81,false,stim,true,0,390.3000011444092,2,0,1,80221,task2,575590,false,false,664,image-keyboard-response,25
true,5,1,1,2,false,d,true,false,0.0-2.0-0.17-0.161-3.161,0,0,0,90,false,stim,false,0,370.20000076293945,2,0,2,80221,task2,577494,false,false,667,image-keyboard-response,26
true,5,0,1,0,true,q,false,true,0.0-2.0-0.18-0.162-3.162,0,0,0,81,false,stim,false,1,363.3999996185303,2,0,0,80221,task2,579391,false,false,670,image-keyboard-response,27
true,5,1,1,0,false,q,false,false,0.0-2.0-0.18-0.163-3.163,0,0,0,90,false,stim,true,1,392.20000076293945,2,0,0,80221,task2,581325,false,false,673,image-keyboard-response,28
true,5,1,1,2,false,d,true,true,0.0-2.0-0.18-0.164-3.164,0,0,0,90,false,stim,false,0,401.79999923706055,2,0,2,80221,task2,583253,false,true,676,image-keyboard-response,29
true,5,0,1,0,true,q,false,false,0.0-2.0-0.18-0.165-3.165,0,0,0,81,false,stim,false,1,371.1999988555908,2,0,0,80221,task2,585159,false,true,679,image-keyboard-response,30
true,5,1,1,2,false,d,true,false,0.0-2.0-0.18-0.166-3.166,0,0,0,90,false,stim,false,0,490.0,2,0,2,80221,task2,587184,false,false,682,image-keyboard-response,31
true,5,1,1,2,false,d,true,false,0.0-2.0-0.18-0.167-3.167,0,0,0,90,false,stim,false,0,825.0,2,0,2,80221,task2,589540,false,false,685,image-keyboard-response,32
true,5,2,1,2,true,d,false,true,0.0-2.0-0.18-0.168-3.168,0,0,0,68,false,stim,false,0,429.8999996185303,2,0,1,80221,task2,591505,false,false,688,image-keyboard-response,33
true,5,2,1,2,true,d,false,true,0.0-2.0-0.18-0.169-3.169,0,0,0,68,false,stim,false,0,319.70000076293945,2,0,1,80221,task2,593346,false,false,691,image-keyboard-response,34
true,5,0,1,2,false,d,false,false,0.0-2.0-0.18-0.170-3.170,0,0,0,81,false,stim,true,0,485.8999996185303,2,0,1,80221,task2,595372,false,false,694,image-keyboard-response,35
true,5,0,1,0,true,q,false,true,0.0-2.0-0.19-0.171-3.171,0,0,0,81,false,stim,false,1,653.0999984741211,2,0,0,80221,task2,597562,false,false,697,image-keyboard-response,36
true,6,2,1,0,false,q,false,false,0.0-2.0-0.19-0.172-3.172,0,0,0,68,true,stim,true,2,391.9000015258789,2,0,1,80221,task2,599487,false,false,700,image-keyboard-response,1
true,6,1,1,0,false,q,true,false,0.0-2.0-0.19-0.173-3.173,0,0,0,90,false,stim,false,2,608.1000003814697,2,0,2,80221,task2,601617,false,false,703,image-keyboard-response,2
true,6,2,1,0,false,q,false,false,0.0-2.0-0.19-0.174-3.174,0,0,0,68,false,stim,true,2,609.5,2,0,1,80221,task2,603767,false,false,706,image-keyboard-response,3
true,6,1,1,0,false,q,true,false,0.0-2.0-0.19-0.175-3.175,0,0,0,90,false,stim,false,2,532.2000007629395,2,0,2,80221,task2,605832,false,false,709,image-keyboard-response,4
true,6,0,1,2,false,d,false,false,0.0-2.0-0.19-0.176-3.176,0,0,0,81,false,stim,true,0,383.3999996185303,2,0,0,80221,task2,607751,false,false,712,image-keyboard-response,5
true,6,0,1,2,false,d,false,false,0.0-2.0-0.19-0.177-3.177,0,0,0,81,false,stim,true,0,489.6000003814697,2,0,0,80221,task2,609783,false,false,715,image-keyboard-response,6
true,6,0,1,0,true,q,false,true,0.0-2.0-0.19-0.178-3.178,0,0,0,81,false,stim,false,2,859.2000007629395,2,0,1,80221,task2,612173,false,false,718,image-keyboard-response,7
true,6,2,1,0,false,q,false,true,0.0-2.0-0.19-0.179-3.179,0,0,0,68,false,stim,true,2,877.2999992370605,2,0,2,80221,task2,614584,false,true,721,image-keyboard-response,8
true,6,0,1,0,true,q,false,true,0.0-2.0-0.20-0.180-3.180,0,0,0,81,false,stim,false,2,402.0,2,0,1,80221,task2,616513,false,false,724,image-keyboard-response,9
true,6,0,1,0,true,q,false,true,0.0-2.0-0.20-0.181-3.181,0,0,0,81,false,stim,false,2,380.8999996185303,2,0,1,80221,task2,618428,false,false,727,image-keyboard-response,10
true,6,0,1,2,false,d,false,false,0.0-2.0-0.20-0.182-3.182,0,0,0,81,false,stim,true,0,427.8000011444092,2,0,0,80221,task2,620384,false,false,730,image-keyboard-response,11
true,6,0,1,0,true,q,false,true,0.0-2.0-0.20-0.183-3.183,0,0,0,81,false,stim,false,2,454.5,2,0,1,80221,task2,622367,false,false,733,image-keyboard-response,12
true,6,2,1,0,false,q,false,false,0.0-2.0-0.20-0.184-3.184,0,0,0,68,false,stim,true,2,464.5,2,0,2,80221,task2,624365,false,false,736,image-keyboard-response,13
true,6,1,1,2,false,d,true,false,0.0-2.0-0.20-0.185-3.185,0,0,0,90,false,stim,false,0,585.6999988555908,2,0,0,80221,task2,626490,false,false,739,image-keyboard-response,14
true,6,2,1,0,false,q,false,false,0.0-2.0-0.20-0.186-3.186,0,0,0,68,false,stim,true,2,680.3000011444092,2,0,2,80221,task2,628705,false,false,742,image-keyboard-response,15
true,6,2,1,0,false,q,false,false,0.0-2.0-0.20-0.187-3.187,0,0,0,68,false,stim,true,2,407.20000076293945,2,0,2,80221,task2,630640,false,false,745,image-keyboard-response,16
true,6,2,1,2,true,d,false,true,0.0-2.0-0.20-0.188-3.188,0,0,0,68,false,stim,false,0,606.0,2,0,0,80221,task2,632775,false,false,748,image-keyboard-response,17
true,6,0,1,0,true,q,false,false,0.0-2.0-0.21-0.189-3.189,0,0,0,81,false,stim,false,2,498.70000076293945,2,0,1,80221,task2,634812,false,true,751,image-keyboard-response,18
true,6,2,1,0,false,q,false,false,0.0-2.0-0.21-0.190-3.190,0,0,0,68,false,stim,true,2,856.5,2,0,2,80221,task2,637190,false,false,754,image-keyboard-response,19
true,6,2,1,2,true,d,false,true,0.0-2.0-0.21-0.191-3.191,0,0,0,68,false,stim,false,0,384.1999988555908,2,0,0,80221,task2,639110,false,false,757,image-keyboard-response,20
true,6,1,1,0,false,q,true,true,0.0-2.0-0.21-0.192-3.192,0,0,0,90,false,stim,false,2,437.29999923706055,2,0,2,80221,task2,641084,false,true,760,image-keyboard-response,21
true,6,1,1,0,false,q,true,false,0.0-2.0-0.21-0.193-3.193,0,0,0,90,false,stim,false,2,361.3999996185303,2,0,2,80221,task2,642974,false,false,763,image-keyboard-response,22
true,6,1,1,0,false,q,true,false,0.0-2.0-0.21-0.194-3.194,0,0,0,90,false,stim,false,2,273.6999988555908,2,0,1,80221,task2,644765,false,false,766,image-keyboard-response,23
true,6,2,1,2,true,d,false,true,0.0-2.0-0.21-0.195-3.195,0,0,0,68,false,stim,false,0,359.3999996185303,2,0,0,80221,task2,646655,false,false,769,image-keyboard-response,24
true,6,2,1,2,true,d,false,true,0.0-2.0-0.21-0.196-3.196,0,0,0,68,false,stim,false,0,480.79999923706055,2,0,0,80221,task2,648666,false,false,772,image-keyboard-response,25
true,6,1,1,0,false,q,true,false,0.0-2.0-0.21-0.197-3.197,0,0,0,90,false,stim,false,2,543.0,2,0,1,80221,task2,650744,false,false,775,image-keyboard-response,26
true,6,2,1,2,true,d,false,true,0.0-2.0-0.22-0.198-3.198,0,0,0,68,false,stim,false,0,560.6999988555908,2,0,0,80221,task2,652834,false,false,778,image-keyboard-response,27
true,6,2,1,0,false,q,false,false,0.0-2.0-0.22-0.199-3.199,0,0,0,68,false,stim,true,2,607.8999996185303,2,0,2,80221,task2,654973,false,false,781,image-keyboard-response,28
true,6,2,1,0,false,q,false,true,0.0-2.0-0.22-0.200-3.200,0,0,0,68,false,stim,true,2,588.1000003814697,2,0,1,80221,task2,657089,false,true,784,image-keyboard-response,29
true,6,0,1,0,true,q,false,true,0.0-2.0-0.22-0.201-3.201,0,0,0,81,false,stim,false,2,323.0,2,0,2,80221,task2,658946,false,false,787,image-keyboard-response,30
true,6,2,1,0,false,q,false,false,0.0-2.0-0.22-0.202-3.202,0,0,0,68,false,stim,true,2,356.79999923706055,2,0,1,80221,task2,660837,false,false,790,image-keyboard-response,31
true,6,2,1,0,false,q,false,true,0.0-2.0-0.22-0.203-3.203,0,0,0,68,false,stim,true,2,334.6000003814697,2,0,1,80221,task2,662704,false,true,793,image-keyboard-response,32
true,6,2,1,2,true,d,false,true,0.0-2.0-0.22-0.204-3.204,0,0,0,68,false,stim,false,0,404.20000076293945,2,0,0,80221,task2,664641,false,false,796,image-keyboard-response,33
true,6,2,1,0,false,q,false,false,0.0-2.0-0.22-0.205-3.205,0,0,0,68,false,stim,true,2,267.0,2,0,2,80221,task2,666448,false,false,799,image-keyboard-response,34
true,6,2,1,2,true,d,false,true,0.0-2.0-0.22-0.206-3.206,0,0,0,68,false,stim,false,0,298.0,2,0,0,80221,task2,668284,false,false,802,image-keyboard-response,35
true,6,0,1,0,true,q,false,true,0.0-2.0-0.23-0.207-3.207,0,0,0,81,false,stim,false,2,426.8999996185303,2,0,1,80221,task2,670232,false,false,805,image-keyboard-response,36
true,6,0,1,2,false,d,false,false,0.0-2.0-0.23-0.208-3.208,0,0,0,81,false,stim,true,0,509.6000003814697,2,0,0,80221,task2,672274,false,false,808,image-keyboard-response,37
true,6,2,1,2,true,d,false,true,0.0-2.0-0.23-0.209-3.209,0,0,0,68,false,stim,false,0,478.8000011444092,2,0,0,80221,task2,674285,false,false,811,image-keyboard-response,38
true,7,0,1,1,false,z,false,false,0.0-2.0-0.23-0.210-3.210,0,0,0,81,true,stim,true,0,372.5,2,0,1,80221,task2,676186,false,false,814,image-keyboard-response,1
true,7,2,1,0,false,q,false,false,0.0-2.0-0.23-0.211-3.211,0,0,0,68,false,stim,true,2,439.29999923706055,2,0,0,80221,task2,678158,false,false,817,image-keyboard-response,2
true,7,0,1,1,false,z,false,false,0.0-2.0-0.23-0.212-3.212,0,0,0,81,false,stim,true,0,534.1999988555908,2,0,2,80221,task2,680221,false,false,820,image-keyboard-response,3
true,7,0,1,1,false,z,false,true,0.0-2.0-0.23-0.213-3.213,0,0,0,81,false,stim,true,0,377.20000076293945,2,0,2,80221,task2,682122,false,true,823,image-keyboard-response,4
true,7,2,1,1,false,z,true,false,0.0-2.0-0.23-0.214-3.214,0,0,0,68,false,stim,false,0,853.6999988555908,2,0,1,80221,task2,684504,false,false,826,image-keyboard-response,5
true,7,0,1,1,false,z,false,false,0.0-2.0-0.23-0.215-3.215,0,0,0,81,false,stim,true,0,416.0999984741211,2,0,2,80221,task2,686459,false,false,829,image-keyboard-response,6
true,7,0,1,0,true,q,false,true,0.0-2.0-0.24-0.216-3.216,0,0,0,81,false,stim,false,2,261.6000003814697,2,0,0,80221,task2,688255,false,false,832,image-keyboard-response,7
true,7,2,1,1,false,z,true,false,0.0-2.0-0.24-0.217-3.217,0,0,0,68,false,stim,false,0,417.0,2,0,1,80221,task2,690201,false,false,835,image-keyboard-response,8
true,7,2,1,1,false,z,true,false,0.0-2.0-0.24-0.218-3.218,0,0,0,68,false,stim,false,0,327.70000076293945,2,0,2,80221,task2,692069,false,false,838,image-keyboard-response,9
true,7,1,1,0,false,q,true,false,0.0-2.0-0.24-0.219-3.219,0,0,0,90,false,stim,false,2,269.0,2,0,0,80221,task2,693865,false,false,841,image-keyboard-response,10
true,7,0,1,1,false,z,false,false,0.0-2.0-0.24-0.220-3.220,0,0,0,81,false,stim,true,0,385.6999988555908,2,0,1,80221,task2,695784,false,false,844,image-keyboard-response,11
true,7,1,1,0,false,q,true,true,0.0-2.0-0.24-0.221-3.221,0,0,0,90,false,stim,false,2,341.5,2,0,0,80221,task2,697665,false,true,847,image-keyboard-response,12
true,7,2,1,1,false,z,true,false,0.0-2.0-0.24-0.222-3.222,0,0,0,68,false,stim,false,0,118.29999923706055,2,0,1,80221,task2,699309,false,false,850,image-keyboard-response,13
true,7,1,1,1,true,z,false,true,0.0-2.0-0.24-0.223-3.223,0,0,0,90,false,stim,false,0,499.6000003814697,2,0,2,80221,task2,701343,false,false,853,image-keyboard-response,14
true,7,0,1,1,false,z,false,false,0.0-2.0-0.24-0.224-3.224,0,0,0,81,false,stim,true,0,155.29999923706055,2,0,2,80221,task2,703028,false,false,856,image-keyboard-response,15
true,7,1,1,0,false,q,true,false,0.0-2.0-0.25-0.225-3.225,0,0,0,90,false,stim,false,2,420.0,2,0,0,80221,task2,704967,false,false,859,image-keyboard-response,16
true,7,2,1,1,false,z,true,false,0.0-2.0-0.25-0.226-3.226,0,0,0,68,false,stim,false,0,76.39999961853027,2,0,2,80221,task2,706575,false,false,862,image-keyboard-response,17
true,7,0,1,0,true,q,false,false,0.0-2.0-0.25-0.227-3.227,0,0,0,81,false,stim,false,2,199.89999961853027,2,0,0,80221,task2,708303,false,true,865,image-keyboard-response,18
true,7,0,1,1,false,z,false,false,0.0-2.0-0.25-0.228-3.228,0,0,0,81,false,stim,true,0,245.0,2,0,2,80221,task2,710084,false,false,868,image-keyboard-response,19
true,7,0,1,1,false,z,false,false,0.0-2.0-0.25-0.229-3.229,0,0,0,81,false,stim,true,0,337.1999988555908,2,0,1,80221,task2,711949,false,false,871,image-keyboard-response,20
true,7,1,1,1,true,z,false,true,0.0-2.0-0.25-0.230-3.230,0,0,0,90,false,stim,false,0,734.6000003814697,2,0,2,80221,task2,714214,false,false,874,image-keyboard-response,21
true,7,2,1,1,false,z,true,false,0.0-2.0-0.25-0.231-3.231,0,0,0,68,false,stim,false,0,547.5,2,0,1,80221,task2,716286,false,false,877,image-keyboard-response,22
true,7,2,1,0,false,q,false,false,0.0-2.0-0.25-0.232-3.232,0,0,0,68,false,stim,true,2,385.29999923706055,2,0,0,80221,task2,718215,false,false,880,image-keyboard-response,23
true,7,1,1,1,true,z,false,true,0.0-2.0-0.25-0.233-3.233,0,0,0,90,false,stim,false,0,254.39999961853027,2,0,1,80221,task2,720004,false,false,883,image-keyboard-response,24
true,7,1,1,1,true,z,false,true,0.0-2.0-0.26-0.234-3.234,0,0,0,90,false,stim,false,0,668.8000011444092,2,0,2,80221,task2,722208,false,false,886,image-keyboard-response,25
true,7,1,1,0,false,q,true,false,0.0-2.0-0.26-0.235-3.235,0,0,0,90,false,stim,false,2,816.1000003814697,2,0,0,80221,task2,724561,false,false,889,image-keyboard-response,26
true,7,0,1,1,false,z,false,true,0.0-2.0-0.26-0.236-3.236,0,0,0,81,false,stim,true,0,189.60000038146973,2,0,2,80221,task2,726287,false,true,892,image-keyboard-response,27
true,7,0,1,0,true,q,false,true,0.0-2.0-0.26-0.237-3.237,0,0,0,81,false,stim,false,2,229.79999923706055,2,0,0,80221,task2,728047,false,false,895,image-keyboard-response,28
true,7,1,1,1,true,z,false,true,0.0-2.0-0.26-0.238-3.238,0,0,0,90,false,stim,false,0,423.0,2,0,1,80221,task2,729999,false,false,898,image-keyboard-response,29
true,7,1,1,0,false,q,true,false,0.0-2.0-0.26-0.239-3.239,0,0,0,90,false,stim,false,2,434.1000003814697,2,0,0,80221,task2,731973,false,false,901,image-keyboard-response,30
true,7,0,1,1,false,z,false,false,0.0-2.0-0.26-0.240-3.240,0,0,0,81,false,stim,true,0,383.0,2,0,2,80221,task2,733889,false,false,904,image-keyboard-response,31
true,7,1,1,1,true,z,false,true,0.0-2.0-0.26-0.241-3.241,0,0,0,90,false,stim,false,0,388.1000003814697,2,1,1,80221,task2,735810,false,false,907,image-keyboard-response,32
true,7,1,1,1,true,z,false,true,0.0-2.0-0.26-0.242-3.242,0,0,0,90,false,stim,false,0,435.3999996185303,2,1,1,80221,task2,737776,false,false,910,image-keyboard-response,33
true,7,0,1,0,true,q,false,true,0.0-2.0-0.27-0.243-3.243,0,0,0,81,false,stim,false,2,872.7999992370605,2,0,0,80221,task2,740172,false,false,913,image-keyboard-response,34
true,7,1,1,1,true,z,false,false,0.0-2.0-0.27-0.244-3.244,0,0,0,90,false,stim,false,0,743.0,2,1,1,80221,task2,742457,false,true,916,image-keyboard-response,35
true,8,0,2,1,false,z,false,false,0.0-2.0-0.27-0.245-3.245,0,1,0,81,true,stim,true,0,315.3000011444092,2,0,0,80221,task2,744313,false,false,919,image-keyboard-response,1
true,8,1,2,2,false,d,false,false,0.0-2.0-0.27-0.246-3.246,0,1,0,90,false,stim,true,1,60.79999923706055,2,0,2,80221,task2,745909,false,false,922,image-keyboard-response,2
true,8,0,2,2,false,d,true,false,0.0-2.0-0.27-0.247-3.247,0,1,0,81,false,stim,false,1,51.29999923706055,2,0,2,80221,task2,747486,false,false,925,image-keyboard-response,3
true,8,0,2,1,false,z,true,true,0.0-2.0-0.27-0.248-3.248,0,1,0,81,false,stim,false,1,292.0999984741211,2,1,1,80221,task2,749318,false,true,928,image-keyboard-response,4
true,8,0,2,2,false,d,true,false,0.0-2.0-0.27-0.249-3.249,0,1,0,81,false,stim,false,1,192.29999923706055,2,0,2,80221,task2,751037,false,false,931,image-keyboard-response,5
true,8,1,2,1,true,z,false,true,0.0-2.0-0.27-0.250-3.250,0,1,0,90,false,stim,false,1,28.69999885559082,2,1,1,80221,task2,752592,false,false,934,image-keyboard-response,6
true,8,1,2,1,true,z,false,true,0.0-2.0-0.27-0.251-3.251,0,1,0,90,false,stim,false,0,92.0,2,0,0,80221,task2,754216,false,false,937,image-keyboard-response,7
true,8,1,2,2,false,d,false,false,0.0-2.0-0.28-0.252-3.252,0,1,0,90,false,stim,true,1,10.299999237060547,2,0,2,80221,task2,755751,false,false,940,image-keyboard-response,8
true,8,2,2,1,false,z,true,false,0.0-2.0-0.28-0.253-3.253,0,1,0,68,false,stim,false,1,38.5,2,1,1,80221,task2,757316,false,false,943,image-keyboard-response,9
true,8,0,2,2,false,d,true,false,0.0-2.0-0.28-0.254-3.254,0,1,0,81,false,stim,false,1,30.799999237060547,2,0,2,80221,task2,758881,false,false,946,image-keyboard-response,10
true,8,1,2,1,true,z,false,true,0.0-2.0-0.28-0.255-3.255,0,1,0,90,false,stim,false,0,151.5,2,0,0,80221,task2,760554,false,false,949,image-keyboard-response,11
true,8,1,2,1,true,z,false,true,0.0-2.0-0.28-0.256-3.256,0,1,0,90,false,stim,false,0,395.6999988555908,2,0,0,80221,task2,762487,false,false,952,image-keyboard-response,12
true,8,1,2,1,true,z,false,true,0.0-2.0-0.28-0.257-3.257,0,1,0,90,false,stim,false,0,313.0,2,0,0,80221,task2,764326,false,false,955,image-keyboard-response,13
true,8,2,2,2,true,d,false,true,0.0-2.0-0.28-0.258-3.258,0,1,0,68,false,stim,false,1,725.7999992370605,2,0,2,80221,task2,766571,false,false,958,image-keyboard-response,14
true,8,0,2,1,false,z,true,false,0.0-2.0-0.28-0.259-3.259,0,1,0,81,false,stim,false,1,490.3000011444092,2,1,1,80221,task2,768588,false,false,961,image-keyboard-response,15
true,8,2,2,1,false,z,true,false,0.0-2.0-0.28-0.260-3.260,0,1,0,68,false,stim,false,1,363.6000003814697,2,1,1,80221,task2,770482,false,false,964,image-keyboard-response,16
true,8,2,2,2,true,d,false,true,0.0-2.0-0.29-0.261-3.261,0,1,0,68,false,stim,false,1,471.4000015258789,2,0,2,80221,task2,772480,false,false,967,image-keyboard-response,17
true,8,1,2,1,true,z,false,true,0.0-2.0-0.29-0.262-3.262,0,1,0,90,false,stim,false,0,306.5,2,0,0,80221,task2,774318,false,false,970,image-keyboard-response,18
true,8,2,2,2,true,d,false,true,0.0-2.0-0.29-0.263-3.263,0,1,0,68,false,stim,false,1,361.8999996185303,2,0,2,80221,task2,776217,false,false,973,image-keyboard-response,19
true,8,1,2,1,true,z,false,true,0.0-2.0-0.29-0.264-3.264,0,1,0,90,false,stim,false,0,363.0,2,0,0,80221,task2,778124,false,false,976,image-keyboard-response,20
true,8,2,2,1,false,z,true,false,0.0-2.0-0.29-0.265-3.265,0,1,0,68,false,stim,false,1,356.6999988555908,2,1,1,80221,task2,780022,false,false,979,image-keyboard-response,21
true,8,1,2,1,true,z,false,true,0.0-2.0-0.29-0.266-3.266,0,1,0,90,false,stim,false,1,314.79999923706055,2,1,1,80221,task2,781862,false,false,982,image-keyboard-response,22
true,8,1,2,1,true,z,false,true,0.0-2.0-0.29-0.267-3.267,0,1,0,90,false,stim,false,0,292.3999996185303,2,0,0,80221,task2,783683,false,false,985,image-keyboard-response,23
true,8,1,2,1,true,z,false,true,0.0-2.0-0.29-0.268-3.268,0,1,0,90,false,stim,false,1,252.79999923706055,2,1,1,80221,task2,785478,false,false,988,image-keyboard-response,24
true,8,2,2,2,true,d,false,true,0.0-2.0-0.29-0.269-3.269,0,1,0,68,false,stim,false,1,312.8999996185303,2,0,2,80221,task2,787311,false,false,991,image-keyboard-response,25
true,8,2,2,2,true,d,false,true,0.0-2.0-0.30-0.270-3.270,0,1,0,68,false,stim,false,1,326.5,2,0,2,80221,task2,789162,false,false,994,image-keyboard-response,26
true,8,1,2,1,true,z,false,true,0.0-2.0-0.30-0.271-3.271,0,1,0,90,false,stim,false,0,398.5,2,0,0,80221,task2,791093,false,false,997,image-keyboard-response,27
true,8,1,2,1,true,z,false,true,0.0-2.0-0.30-0.272-3.272,0,1,0,90,false,stim,false,1,866.0,2,1,1,80221,task2,793481,false,false,1000,image-keyboard-response,28
true,8,1,2,1,true,z,false,true,0.0-2.0-0.30-0.273-3.273,0,1,0,90,false,stim,false,0,620.2000007629395,2,0,0,80221,task2,795640,false,false,1003,image-keyboard-response,29
true,8,2,2,1,false,z,true,false,0.0-2.0-0.30-0.274-3.274,0,1,0,68,false,stim,false,0,216.39999961853027,2,0,0,80221,task2,797390,false,false,1006,image-keyboard-response,30
true,8,1,2,2,false,d,false,false,0.0-2.0-0.30-0.275-3.275,0,1,0,90,false,stim,true,1,426.0,2,0,2,80221,task2,799355,false,false,1009,image-keyboard-response,31
true,8,2,2,2,true,d,false,true,0.0-2.0-0.30-0.276-3.276,0,1,0,68,false,stim,false,1,463.70000076293945,2,0,2,80221,task2,801346,false,false,1012,image-keyboard-response,32
true,9,1,2,1,true,z,false,true,0.0-2.0-0.30-0.277-3.277,0,1,0,90,true,stim,false,1,933.4000015258789,2,1,1,80221,task2,803804,false,false,1015,image-keyboard-response,1
true,9,1,2,1,true,z,false,true,0.0-2.0-0.30-0.278-3.278,0,1,0,90,false,stim,false,1,296.9000015258789,2,1,1,80221,task2,805645,false,false,1018,image-keyboard-response,2
true,9,2,2,0,false,q,false,false,0.0-2.0-0.31-0.279-3.279,0,1,0,68,false,stim,true,2,364.29999923706055,2,0,2,80221,task2,807532,false,false,1021,image-keyboard-response,3
true,9,2,2,0,false,q,false,false,0.0-2.0-0.31-0.280-3.280,0,1,0,68,false,stim,true,2,280.79999923706055,2,0,2,80221,task2,809338,false,false,1024,image-keyboard-response,4
true,9,1,2,2,false,d,false,true,0.0-2.0-0.31-0.281-3.281,0,1,0,90,false,stim,true,1,374.5,2,0,0,80221,task2,811239,false,true,1027,image-keyboard-response,5
true,9,1,2,1,true,z,false,true,0.0-2.0-0.31-0.282-3.282,0,1,0,90,false,stim,false,1,402.5,2,1,1,80221,task2,813170,false,false,1030,image-keyboard-response,6
true,9,0,2,1,false,z,true,false,0.0-2.0-0.31-0.283-3.283,0,1,0,81,false,stim,false,1,349.5,2,1,1,80221,task2,815052,false,false,1033,image-keyboard-response,7
true,9,0,2,0,true,q,false,false,0.0-2.0-0.31-0.284-3.284,0,1,0,81,false,stim,false,2,301.29999923706055,2,0,2,80221,task2,816878,false,true,1036,image-keyboard-response,8
true,9,1,2,2,false,d,false,false,0.0-2.0-0.31-0.285-3.285,0,1,0,90,false,stim,true,1,199.60000038146973,2,0,0,80221,task2,818614,false,false,1039,image-keyboard-response,9
true,9,1,2,2,false,d,false,false,0.0-2.0-0.31-0.286-3.286,0,1,0,90,false,stim,true,1,88.80000114440918,2,0,0,80221,task2,820240,false,false,1042,image-keyboard-response,10
true,9,1,2,1,true,z,false,true,0.0-2.0-0.31-0.287-3.287,0,1,0,90,false,stim,false,1,182.29999923706055,2,1,1,80221,task2,821960,false,false,1045,image-keyboard-response,11
true,9,1,2,0,false,q,true,false,0.0-2.0-0.32-0.288-3.288,0,1,0,90,false,stim,false,2,129.4000015258789,2,0,2,80221,task2,823628,false,false,1048,image-keyboard-response,12
true,9,1,2,1,true,z,false,true,0.0-2.0-0.32-0.289-3.289,0,1,0,90,false,stim,false,1,239.69999885559082,2,1,1,80221,task2,825404,false,false,1051,image-keyboard-response,13
true,9,1,2,2,false,d,false,false,0.0-2.0-0.32-0.290-3.290,0,1,0,90,false,stim,true,1,145.0,2,0,0,80221,task2,827095,false,false,1054,image-keyboard-response,14
true,9,1,2,0,false,q,true,false,0.0-2.0-0.32-0.291-3.291,0,1,0,90,false,stim,false,2,125.29999923706055,2,0,2,80221,task2,828748,false,false,1057,image-keyboard-response,15
true,9,1,2,2,false,d,false,false,0.0-2.0-0.32-0.292-3.292,0,1,0,90,false,stim,true,1,194.89999961853027,2,0,0,80221,task2,830473,false,false,1060,image-keyboard-response,16
true,9,2,2,0,false,q,false,false,0.0-2.0-0.32-0.293-3.293,0,1,0,68,false,stim,true,2,318.29999923706055,2,0,2,80221,task2,832313,false,false,1063,image-keyboard-response,17
true,9,1,2,1,true,z,false,true,0.0-2.0-0.32-0.294-3.294,0,1,0,90,false,stim,false,1,468.20000076293945,2,1,1,80221,task2,834307,false,false,1066,image-keyboard-response,18
true,9,0,2,2,false,d,true,false,0.0-2.0-0.32-0.295-3.295,0,1,0,81,false,stim,false,1,350.6000003814697,2,0,0,80221,task2,836195,false,false,1069,image-keyboard-response,19
true,9,1,2,1,true,z,false,true,0.0-2.0-0.32-0.296-3.296,0,1,0,90,false,stim,false,1,620.9000015258789,2,1,1,80221,task2,838354,false,false,1072,image-keyboard-response,20
true,9,2,2,2,true,d,false,true,0.0-2.0-0.33-0.297-3.297,0,1,0,68,false,stim,false,1,429.70000076293945,2,0,0,80221,task2,840318,false,false,1075,image-keyboard-response,21
true,9,0,2,0,true,q,false,true,0.0-2.0-0.33-0.298-3.298,0,1,0,81,false,stim,false,2,446.1999988555908,2,0,2,80221,task2,842307,false,false,1078,image-keyboard-response,22
true,9,0,2,0,true,q,false,true,0.0-2.0-0.33-0.299-3.299,0,1,0,81,false,stim,false,2,379.79999923706055,2,0,2,80221,task2,844234,false,false,1081,image-keyboard-response,23
true,9,2,2,2,true,d,false,true,0.0-2.0-0.33-0.300-3.300,0,1,0,68,false,stim,false,1,474.3000011444092,2,0,0,80221,task2,846246,false,false,1084,image-keyboard-response,24
true,9,1,2,1,true,z,false,true,0.0-2.0-0.33-0.301-3.301,0,1,0,90,false,stim,false,1,500.1999988555908,2,1,1,80221,task2,848275,false,false,1087,image-keyboard-response,25
true,9,0,2,0,true,q,false,true,0.0-2.0-0.33-0.302-3.302,0,1,0,81,false,stim,false,2,553.1000003814697,2,0,2,80221,task2,850349,false,false,1090,image-keyboard-response,26
true,9,2,2,2,true,d,false,true,0.0-2.0-0.33-0.303-3.303,0,1,0,68,false,stim,false,1,803.8999996185303,2,0,0,80221,task2,852690,false,false,1093,image-keyboard-response,27
true,9,1,2,1,true,z,false,true,0.0-2.0-0.33-0.304-3.304,0,1,0,90,false,stim,false,1,489.0999984741211,2,0,1,80221,task2,854713,false,false,1096,image-keyboard-response,28
true,9,1,2,1,true,z,false,true,0.0-2.0-0.33-0.305-3.305,0,1,0,90,false,stim,false,1,341.0999984741211,2,0,1,80221,task2,856587,false,false,1099,image-keyboard-response,29
true,9,0,2,0,true,q,false,true,0.0-2.0-0.34-0.306-3.306,0,1,0,81,false,stim,false,2,460.8000011444092,2,1,2,80221,task2,858580,false,false,1102,image-keyboard-response,30
true,9,0,2,2,false,d,true,false,0.0-2.0-0.34-0.307-3.307,0,1,0,81,false,stim,false,1,349.3999996185303,2,0,0,80221,task2,860458,false,false,1105,image-keyboard-response,31
true,9,2,2,2,true,d,false,true,0.0-2.0-0.34-0.308-3.308,0,1,0,68,false,stim,false,1,367.0999984741211,2,0,0,80221,task2,862365,false,false,1108,image-keyboard-response,32
true,10,1,2,2,false,d,false,false,0.0-2.0-0.34-0.309-3.309,0,0,1,90,true,stim,true,1,405.70000076293945,2,0,1,80221,task2,864308,false,false,1111,image-keyboard-response,1
true,10,0,2,0,true,q,false,true,0.0-2.0-0.34-0.310-3.310,0,0,1,81,false,stim,false,0,553.1000003814697,2,1,2,80221,task2,866393,false,false,1114,image-keyboard-response,2
true,10,2,2,1,false,z,false,false,0.0-2.0-0.34-0.311-3.311,0,0,1,68,false,stim,true,2,349.70000076293945,2,0,0,80221,task2,868281,false,false,1117,image-keyboard-response,3
true,10,1,2,2,false,d,false,false,0.0-2.0-0.34-0.312-3.312,0,0,1,90,false,stim,true,1,450.79999923706055,2,0,1,80221,task2,870271,false,false,1120,image-keyboard-response,4
true,10,0,2,0,true,q,false,true,0.0-2.0-0.34-0.313-3.313,0,0,1,81,false,stim,false,0,524.4000015258789,2,1,2,80221,task2,872328,false,false,1123,image-keyboard-response,5
true,10,0,2,2,false,d,true,false,0.0-2.0-0.34-0.314-3.314,0,0,1,81,false,stim,false,1,469.3999996185303,2,0,1,80221,task2,874333,false,false,1126,image-keyboard-response,6
true,10,2,2,1,false,z,false,false,0.0-2.0-0.35-0.315-3.315,0,0,1,68,false,stim,true,2,523.1000003814697,2,0,0,80221,task2,876394,false,false,1129,image-keyboard-response,7
true,10,2,2,2,true,d,false,true,0.0-2.0-0.35-0.316-3.316,0,0,1,68,false,stim,false,1,309.29999923706055,2,0,1,80221,task2,878231,false,false,1132,image-keyboard-response,8
true,10,0,2,1,false,z,true,false,0.0-2.0-0.35-0.317-3.317,0,0,1,81,false,stim,false,2,386.1000003814697,2,0,0,80221,task2,880151,false,false,1135,image-keyboard-response,9
true,10,0,2,0,true,q,false,false,0.0-2.0-0.35-0.318-3.318,0,0,1,81,false,stim,false,0,549.5999984741211,2,1,2,80221,task2,882235,false,true,1138,image-keyboard-response,10
true,10,2,2,2,true,d,false,true,0.0-2.0-0.35-0.319-3.319,0,0,1,68,false,stim,false,1,559.6999988555908,2,0,1,80221,task2,884337,false,false,1141,image-keyboard-response,11
true,10,1,2,1,true,z,false,true,0.0-2.0-0.35-0.320-3.320,0,0,1,90,false,stim,false,2,836.0,2,0,0,80221,task2,886703,false,false,1144,image-keyboard-response,12
true,10,1,2,2,false,d,false,false,0.0-2.0-0.35-0.321-3.321,0,0,1,90,false,stim,true,1,642.5,2,0,1,80221,task2,888878,false,false,1147,image-keyboard-response,13
true,10,2,2,0,false,q,true,false,0.0-2.0-0.35-0.322-3.322,0,0,1,68,false,stim,false,0,497.8000011444092,2,1,2,80221,task2,890908,false,false,1150,image-keyboard-response,14
true,10,1,2,0,false,q,true,false,0.0-2.0-0.35-0.323-3.323,0,0,1,90,false,stim,false,0,356.3999996185303,2,1,2,80221,task2,892788,false,false,1153,image-keyboard-response,15
true,10,1,2,1,true,z,false,true,0.0-2.0-0.36-0.324-3.324,0,0,1,90,false,stim,false,2,659.1999988555908,2,0,0,80221,task2,894997,false,false,1156,image-keyboard-response,16
true,10,1,2,0,false,q,true,false,0.0-2.0-0.36-0.325-3.325,0,0,1,90,false,stim,false,0,422.6999988555908,2,1,2,80221,task2,896951,false,false,1159,image-keyboard-response,17
true,10,2,2,0,false,q,true,false,0.0-2.0-0.36-0.326-3.326,0,0,1,68,false,stim,false,0,672.7999992370605,2,1,2,80221,task2,899154,false,false,1162,image-keyboard-response,18
true,10,0,2,0,true,q,false,true,0.0-2.0-0.36-0.327-3.327,0,0,1,81,false,stim,false,0,429.8999996185303,2,1,2,80221,task2,901117,false,false,1165,image-keyboard-response,19
true,10,1,2,1,true,z,false,true,0.0-2.0-0.36-0.328-3.328,0,0,1,90,false,stim,false,2,382.1000003814697,2,0,0,80221,task2,903027,false,false,1168,image-keyboard-response,20
true,10,2,2,2,true,d,false,true,0.0-2.0-0.36-0.329-3.329,0,0,1,68,false,stim,false,1,279.29999923706055,2,0,1,80221,task2,904831,false,false,1171,image-keyboard-response,21
true,10,0,2,2,false,d,true,true,0.0-2.0-0.36-0.330-3.330,0,0,1,81,false,stim,false,1,382.1000003814697,2,0,1,80221,task2,906738,false,true,1174,image-keyboard-response,22
true,10,1,2,1,true,z,false,true,0.0-2.0-0.36-0.331-3.331,0,0,1,90,false,stim,false,2,531.2999992370605,2,0,0,80221,task2,908807,false,false,1177,image-keyboard-response,23
true,10,2,2,2,true,d,false,false,0.0-2.0-0.36-0.332-3.332,0,0,1,68,false,stim,false,1,361.20000076293945,2,0,1,80221,task2,910711,false,true,1180,image-keyboard-response,24
true,10,0,2,2,false,d,true,false,0.0-2.0-0.37-0.333-3.333,0,0,1,81,false,stim,false,1,366.3999996185303,2,0,1,80221,task2,912607,false,false,1183,image-keyboard-response,25
true,10,0,2,0,true,q,false,true,0.0-2.0-0.37-0.334-3.334,0,0,1,81,false,stim,false,0,737.8999996185303,2,1,2,80221,task2,914883,false,false,1186,image-keyboard-response,26
true,10,0,2,2,false,d,true,false,0.0-2.0-0.37-0.335-3.335,0,0,1,81,false,stim,false,1,432.3999996185303,2,0,1,80221,task2,916845,false,false,1189,image-keyboard-response,27
true,10,1,2,1,true,z,false,true,0.0-2.0-0.37-0.336-3.336,0,0,1,90,false,stim,false,2,482.4000015258789,2,0,0,80221,task2,918854,false,false,1192,image-keyboard-response,28
true,10,1,2,1,true,z,false,false,0.0-2.0-0.37-0.337-3.337,0,0,1,90,false,stim,false,2,353.5,2,0,0,80221,task2,920745,false,true,1195,image-keyboard-response,29
true,10,2,2,0,false,q,true,false,0.0-2.0-0.37-0.338-3.338,0,0,1,68,false,stim,false,0,505.1000003814697,2,0,2,80221,task2,922785,false,false,1198,image-keyboard-response,30
true,10,2,2,2,true,d,false,true,0.0-2.0-0.37-0.339-3.339,0,0,1,68,false,stim,false,1,474.29999923706055,2,0,1,80221,task2,924807,false,false,1201,image-keyboard-response,31
true,10,1,2,1,true,z,false,true,0.0-2.0-0.37-0.340-3.340,0,0,1,90,false,stim,false,2,413.20000076293945,2,0,0,80221,task2,926750,false,false,1204,image-keyboard-response,32
true,10,0,2,0,true,q,false,true,0.0-2.0-0.37-0.341-3.341,0,0,1,81,false,stim,false,0,340.6000003814697,2,0,2,80221,task2,928620,false,false,1207,image-keyboard-response,33
true,11,1,1,2,false,d,false,false,0.0-2.0-0.38-0.342-3.342,0,0,0,90,true,stim,true,1,433.29999923706055,2,0,0,80221,task2,930578,false,false,1210,image-keyboard-response,1
true,11,1,1,2,false,d,false,false,0.0-2.0-0.38-0.343-3.343,0,0,0,90,false,stim,true,1,973.1000003814697,2,0,0,80221,task2,933077,false,false,1213,image-keyboard-response,2
true,11,0,1,2,false,d,false,false,0.0-2.0-0.38-0.344-3.344,0,0,0,81,false,stim,true,0,382.3999996185303,2,0,2,80221,task2,934993,false,false,1216,image-keyboard-response,3
true,11,0,1,2,false,d,false,false,0.0-2.0-0.38-0.345-3.345,0,0,0,81,false,stim,true,0,472.79999923706055,2,0,2,80221,task2,936988,false,false,1219,image-keyboard-response,4
true,11,2,1,1,false,z,false,true,0.0-2.0-0.38-0.346-3.346,0,0,0,68,false,stim,true,2,595.7999992370605,2,0,1,80221,task2,939116,false,true,1222,image-keyboard-response,5
true,11,2,1,1,false,z,false,false,0.0-2.0-0.38-0.347-3.347,0,0,0,68,false,stim,true,2,358.1000003814697,2,0,1,80221,task2,941000,false,false,1225,image-keyboard-response,6
true,11,2,1,1,false,z,false,false,0.0-2.0-0.38-0.348-3.348,0,0,0,68,false,stim,true,2,541.2000007629395,2,0,1,80221,task2,943075,false,false,1228,image-keyboard-response,7
true,11,0,1,2,false,d,false,true,0.0-2.0-0.38-0.349-3.349,0,0,0,81,false,stim,true,0,859.4000015258789,2,0,2,80221,task2,945460,false,true,1231,image-keyboard-response,8
true,11,1,1,2,false,d,false,true,0.0-2.0-0.38-0.350-3.350,0,0,0,90,false,stim,true,1,602.2999992370605,2,0,0,80221,task2,947593,false,true,1234,image-keyboard-response,9
true,11,1,1,2,false,d,false,false,0.0-2.0-0.39-0.351-3.351,0,0,0,90,false,stim,true,1,360.79999923706055,2,0,0,80221,task2,949494,false,false,1237,image-keyboard-response,10
true,11,1,1,2,false,d,false,false,0.0-2.0-0.39-0.352-3.352,0,0,0,90,false,stim,true,1,382.1000003814697,2,0,0,80221,task2,951399,false,false,1240,image-keyboard-response,11
true,11,2,1,1,false,z,false,false,0.0-2.0-0.39-0.353-3.353,0,0,0,68,false,stim,true,2,572.1999988555908,2,0,1,80221,task2,953514,false,false,1243,image-keyboard-response,12
true,11,2,1,1,false,z,false,false,0.0-2.0-0.39-0.354-3.354,0,0,0,68,false,stim,true,2,430.0,2,0,1,80221,task2,955479,false,false,1246,image-keyboard-response,13
true,11,0,1,2,false,d,false,false,0.0-2.0-0.39-0.355-3.355,0,0,0,81,false,stim,true,0,1160.8999996185303,2,0,2,80221,task2,958167,false,false,1249,image-keyboard-response,14
true,11,1,1,2,false,d,true,true,0.0-2.0-0.39-0.356-3.356,0,0,0,90,false,stim,false,0,407.70000076293945,2,0,2,80221,task2,960106,false,true,1252,image-keyboard-response,15
true,11,1,1,2,false,d,true,false,0.0-2.0-0.39-0.357-3.357,0,0,0,90,false,stim,false,0,378.79999923706055,2,0,2,80221,task2,962012,false,false,1255,image-keyboard-response,16
true,11,2,1,2,true,d,false,true,0.0-2.0-0.39-0.358-3.358,0,0,0,68,false,stim,false,1,532.6999988555908,2,0,0,80221,task2,964071,false,false,1258,image-keyboard-response,17
true,11,2,1,1,false,z,false,false,0.0-2.0-0.39-0.359-3.359,0,0,0,68,false,stim,true,2,645.1000003814697,2,0,1,80221,task2,966243,false,false,1261,image-keyboard-response,18
true,11,2,1,2,true,d,false,false,0.0-2.0-0.40-0.360-3.360,0,0,0,68,false,stim,false,1,872.1000003814697,2,0,0,80221,task2,968643,false,true,1264,image-keyboard-response,19
true,11,2,1,2,true,d,false,true,0.0-2.0-0.40-0.361-3.361,0,0,0,68,false,stim,false,1,490.6000003814697,2,0,0,80221,task2,970672,false,false,1267,image-keyboard-response,20
true,11,1,1,1,true,z,false,true,0.0-2.0-0.40-0.362-3.362,0,0,0,90,false,stim,false,2,739.1000003814697,2,0,1,80221,task2,972940,false,false,1270,image-keyboard-response,21
true,11,1,1,1,true,z,false,true,0.0-2.0-0.40-0.363-3.363,0,0,0,90,false,stim,false,2,352.0,2,0,1,80221,task2,974827,false,false,1273,image-keyboard-response,22
true,11,1,1,2,false,d,true,false,0.0-2.0-0.40-0.364-3.364,0,0,0,90,false,stim,false,0,539.8999996185303,2,0,2,80221,task2,976904,false,false,1276,image-keyboard-response,23
true,11,2,1,2,true,d,false,true,0.0-2.0-0.40-0.365-3.365,0,0,0,68,false,stim,false,1,869.7999992370605,2,0,0,80221,task2,979308,false,false,1279,image-keyboard-response,24
true,11,1,1,1,true,z,false,true,0.0-2.0-0.40-0.366-3.366,0,0,0,90,false,stim,false,2,974.5,2,0,1,80221,task2,981819,false,false,1282,image-keyboard-response,25
true,11,1,1,2,false,d,true,false,0.0-2.0-0.40-0.367-3.367,0,0,0,90,false,stim,false,0,757.8000011444092,2,0,2,80221,task2,984110,false,false,1285,image-keyboard-response,26
true,11,1,1,2,false,d,true,false,0.0-2.0-0.40-0.368-3.368,0,0,0,90,false,stim,false,0,391.5,2,0,2,80221,task2,986027,false,false,1288,image-keyboard-response,27
true,11,2,1,2,true,d,false,true,0.0-2.0-0.41-0.369-3.369,0,0,0,68,false,stim,false,1,554.5,2,0,0,80221,task2,988120,false,false,1291,image-keyboard-response,28
true,11,1,1,2,false,d,false,false,0.0-2.0-0.41-0.370-3.370,0,0,0,90,false,stim,true,1,419.8999996185303,2,0,0,80221,task2,990069,false,false,1294,image-keyboard-response,29
true,11,0,1,2,false,d,false,false,0.0-2.0-0.41-0.371-3.371,0,0,0,81,false,stim,true,0,578.8000011444092,2,0,2,80221,task2,992169,false,false,1297,image-keyboard-response,30
true,11,2,1,2,true,d,false,true,0.0-2.0-0.41-0.372-3.372,0,0,0,68,false,stim,false,1,334.8000011444092,2,0,0,80221,task2,994031,false,false,1300,image-keyboard-response,31
true,11,2,1,1,false,z,false,false,0.0-2.0-0.41-0.373-3.373,0,0,0,68,false,stim,true,2,241.0,2,0,1,80221,task2,995825,false,false,1303,image-keyboard-response,32
true,11,2,1,1,false,z,false,false,0.0-2.0-0.41-0.374-3.374,0,0,0,68,false,stim,true,2,269.1000003814697,2,0,1,80221,task2,997621,false,false,1306,image-keyboard-response,33
true,11,2,1,2,true,d,false,true,0.0-2.0-0.41-0.375-3.375,0,0,0,68,false,stim,false,0,239.0,2,1,2,80221,task2,999394,false,false,1309,image-keyboard-response,34
true,11,2,1,2,true,d,false,true,0.0-2.0-0.41-0.376-3.376,0,0,0,68,false,stim,false,0,402.3999996185303,2,1,2,80221,task2,1001331,false,false,1312,image-keyboard-response,35
true,11,1,1,1,true,z,false,true,0.0-2.0-0.41-0.377-3.377,0,0,0,90,false,stim,false,2,408.0,2,0,1,80221,task2,1003273,false,false,1315,image-keyboard-response,36
true,11,2,1,2,true,d,false,true,0.0-2.0-0.42-0.378-3.378,0,0,0,68,false,stim,false,1,445.1000003814697,2,0,0,80221,task2,1005253,false,false,1318,image-keyboard-response,37
true,11,1,1,1,true,z,false,true,0.0-2.0-0.42-0.379-3.379,0,0,0,90,false,stim,false,2,423.29999923706055,2,0,1,80221,task2,1007204,false,false,1321,image-keyboard-response,38
true,12,2,2,1,false,z,false,false,0.0-2.0-0.42-0.380-3.380,0,0,1,68,true,stim,true,2,298.1999988555908,2,0,0,80221,task2,1009036,false,false,1324,image-keyboard-response,1
true,12,2,2,1,false,z,false,false,0.0-2.0-0.42-0.381-3.381,0,0,1,68,false,stim,true,2,329.8000011444092,2,0,0,80221,task2,1010905,false,false,1327,image-keyboard-response,2
true,12,1,2,2,false,d,false,false,0.0-2.0-0.42-0.382-3.382,0,0,1,90,false,stim,true,1,766.0,2,0,1,80221,task2,1013216,false,false,1330,image-keyboard-response,3
true,12,2,2,2,true,d,false,true,0.0-2.0-0.42-0.383-3.383,0,0,1,68,false,stim,false,2,798.1000003814697,2,1,2,80221,task2,1015552,false,false,1333,image-keyboard-response,4
true,12,2,2,2,true,d,false,false,0.0-2.0-0.42-0.384-3.384,0,0,1,68,false,stim,false,2,414.4000015258789,2,1,2,80221,task2,1017491,false,true,1336,image-keyboard-response,5
true,12,2,2,2,true,d,false,true,0.0-2.0-0.42-0.385-3.385,0,0,1,68,false,stim,false,2,371.79999923706055,2,1,2,80221,task2,1019399,false,false,1339,image-keyboard-response,6
true,12,2,2,2,true,d,false,true,0.0-2.0-0.42-0.386-3.386,0,0,1,68,false,stim,false,1,399.3999996185303,2,0,1,80221,task2,1021332,false,false,1342,image-keyboard-response,7
true,12,2,2,2,true,d,false,true,0.0-2.0-0.43-0.387-3.387,0,0,1,68,false,stim,false,2,317.3999996185303,2,1,2,80221,task2,1023191,false,false,1345,image-keyboard-response,8
true,12,1,2,1,true,z,false,true,0.0-2.0-0.43-0.388-3.388,0,0,1,90,false,stim,false,2,454.5,2,0,0,80221,task2,1025179,false,false,1348,image-keyboard-response,9
true,12,2,2,2,true,d,false,true,0.0-2.0-0.43-0.389-3.389,0,0,1,68,false,stim,false,1,405.6999988555908,2,0,1,80221,task2,1027119,false,false,1351,image-keyboard-response,10
true,12,2,2,2,true,d,false,true,0.0-2.0-0.43-0.390-3.390,0,0,1,68,false,stim,false,1,317.70000076293945,2,0,1,80221,task2,1028968,false,false,1354,image-keyboard-response,11
true,12,2,2,2,true,d,false,true,0.0-2.0-0.43-0.391-3.391,0,0,1,68,false,stim,false,1,438.6000003814697,2,0,1,80221,task2,1030947,false,false,1357,image-keyboard-response,12
true,12,2,2,2,true,d,false,true,0.0-2.0-0.43-0.392-3.392,0,0,1,68,false,stim,false,2,576.2000007629395,2,1,2,80221,task2,1033053,false,false,1360,image-keyboard-response,13
true,12,1,2,1,true,z,false,true,0.0-2.0-0.43-0.393-3.393,0,0,1,90,false,stim,false,2,399.6999988555908,2,0,0,80221,task2,1034982,false,false,1363,image-keyboard-response,14
true,12,2,2,2,true,d,false,true,0.0-2.0-0.43-0.394-3.394,0,0,1,68,false,stim,false,2,421.29999923706055,2,1,2,80221,task2,1036931,false,false,1366,image-keyboard-response,15
true,12,1,2,1,true,z,false,true,0.0-2.0-0.43-0.395-3.395,0,0,1,90,false,stim,false,2,694.6000003814697,2,0,0,80221,task2,1039156,false,false,1369,image-keyboard-response,16
true,12,2,2,2,true,d,false,true,0.0-2.0-0.44-0.396-3.396,0,0,1,68,false,stim,false,2,469.0,2,1,2,80221,task2,1041154,false,false,1372,image-keyboard-response,17
true,12,2,2,1,false,z,false,false,0.0-2.0-0.44-0.397-3.397,0,0,1,68,false,stim,true,2,367.0,2,0,0,80221,task2,1043055,false,false,1375,image-keyboard-response,18
true,12,1,2,1,true,z,false,false,0.0-2.0-0.44-0.398-3.398,0,0,1,90,false,stim,false,2,1110.7999992370605,2,0,0,80221,task2,1045690,false,true,1378,image-keyboard-response,19
true,12,2,2,2,true,d,false,true,0.0-2.0-0.44-0.399-3.399,0,0,1,68,false,stim,false,2,421.6999988555908,2,1,2,80221,task2,1047644,false,false,1381,image-keyboard-response,20
true,12,2,2,2,true,d,false,true,0.0-2.0-0.44-0.400-3.400,0,0,1,68,false,stim,false,1,375.8999996185303,2,0,1,80221,task2,1049552,false,false,1384,image-keyboard-response,21
true,12,2,2,2,true,d,false,true,0.0-2.0-0.44-0.401-3.401,0,0,1,68,false,stim,false,1,332.0,2,0,1,80221,task2,1051412,false,false,1387,image-keyboard-response,22
true,12,1,2,2,false,d,true,false,0.0-2.0-0.44-0.402-3.402,0,0,1,90,false,stim,false,2,584.2999992370605,2,1,2,80221,task2,1053539,false,false,1390,image-keyboard-response,23
true,12,1,2,1,true,z,false,false,0.0-2.0-0.44-0.403-3.403,0,0,1,90,false,stim,false,2,565.7000007629395,2,0,0,80221,task2,1055641,false,true,1393,image-keyboard-response,24
true,12,2,2,2,true,d,false,true,0.0-2.0-0.44-0.404-3.404,0,0,1,68,false,stim,false,1,441.6999988555908,2,0,1,80221,task2,1057622,false,false,1396,image-keyboard-response,25
true,12,2,2,2,true,d,false,true,0.0-2.0-0.45-0.405-3.405,0,0,1,68,false,stim,false,1,389.8999996185303,2,0,1,80221,task2,1059538,false,false,1399,image-keyboard-response,26
true,12,2,2,2,true,d,false,true,0.0-2.0-0.45-0.406-3.406,0,0,1,68,false,stim,false,1,358.79999923706055,2,0,1,80221,task2,1061466,false,false,1402,image-keyboard-response,27
true,12,1,2,2,false,d,true,false,0.0-2.0-0.45-0.407-3.407,0,0,1,90,false,stim,false,2,636.5,2,0,2,80221,task2,1063634,false,false,1405,image-keyboard-response,28
true,12,0,2,1,false,z,true,false,0.0-2.0-0.45-0.408-3.408,0,0,1,81,false,stim,false,2,544.2999992370605,2,0,0,80221,task2,1065710,false,false,1408,image-keyboard-response,29
true,12,2,2,2,true,d,false,true,0.0-2.0-0.45-0.409-3.409,0,0,1,68,false,stim,false,2,516.0,2,0,2,80221,task2,1067754,false,false,1411,image-keyboard-response,30
true,12,2,2,2,true,d,false,true,0.0-2.0-0.45-0.410-3.410,0,0,1,68,false,stim,false,2,334.6999988555908,2,0,2,80221,task2,1069632,false,false,1414,image-keyboard-response,31
true,12,2,2,2,true,d,false,true,0.0-2.0-0.45-0.411-3.411,0,0,1,68,false,stim,false,1,324.1999988555908,2,1,1,80221,task2,1071488,false,false,1417,image-keyboard-response,32
true,13,1,2,0,false,q,false,false,0.0-2.0-0.45-0.412-3.412,0,1,0,90,true,stim,true,1,413.8999996185303,2,0,0,80221,task2,1073435,false,false,1420,image-keyboard-response,1
true,13,2,2,0,false,q,true,false,0.0-2.0-0.45-0.413-3.413,0,1,0,68,false,stim,false,1,286.5,2,0,0,80221,task2,1075245,false,false,1423,image-keyboard-response,2
true,13,2,2,0,false,q,true,false,0.0-2.0-0.46-0.414-3.414,0,1,0,68,false,stim,false,1,309.5999984741211,2,0,0,80221,task2,1077096,false,false,1426,image-keyboard-response,3
true,13,2,2,0,false,q,false,false,0.0-2.0-0.46-0.415-3.415,0,1,0,68,false,stim,true,2,458.29999923706055,2,0,2,80221,task2,1079093,false,false,1429,image-keyboard-response,4
true,13,2,2,0,false,q,false,false,0.0-2.0-0.46-0.416-3.416,0,1,0,68,false,stim,true,2,325.9000015258789,2,0,2,80221,task2,1080952,false,false,1432,image-keyboard-response,5
true,13,2,2,2,true,d,false,true,0.0-2.0-0.46-0.417-3.417,0,1,0,68,false,stim,false,2,371.8000011444092,2,1,1,80221,task2,1082849,false,false,1435,image-keyboard-response,6
true,13,2,2,0,false,q,false,false,0.0-2.0-0.46-0.418-3.418,0,1,0,68,false,stim,true,2,467.4000015258789,2,0,2,80221,task2,1084850,false,false,1438,image-keyboard-response,7
true,13,0,2,0,true,q,false,true,0.0-2.0-0.46-0.419-3.419,0,1,0,81,false,stim,false,1,731.6999988555908,2,0,0,80221,task2,1087120,false,false,1441,image-keyboard-response,8
true,13,2,2,2,true,d,false,true,0.0-2.0-0.46-0.420-3.420,0,1,0,68,false,stim,false,2,505.0,2,1,1,80221,task2,1089169,false,false,1444,image-keyboard-response,9
true,13,2,2,2,true,d,false,true,0.0-2.0-0.46-0.421-3.421,0,1,0,68,false,stim,false,2,423.79999923706055,2,1,1,80221,task2,1091125,false,false,1447,image-keyboard-response,10
true,13,0,2,0,true,q,false,true,0.0-2.0-0.46-0.422-3.422,0,1,0,81,false,stim,false,1,477.6999988555908,2,0,0,80221,task2,1093136,false,false,1450,image-keyboard-response,11
true,13,0,2,0,true,q,false,true,0.0-2.0-0.47-0.423-3.423,0,1,0,81,false,stim,false,1,398.5,2,0,0,80221,task2,1095077,false,false,1453,image-keyboard-response,12
true,13,1,2,0,false,q,true,false,0.0-2.0-0.47-0.424-3.424,0,1,0,90,false,stim,false,2,419.20000076293945,2,0,2,80221,task2,1097017,false,false,1456,image-keyboard-response,13
true,13,0,2,0,true,q,false,true,0.0-2.0-0.47-0.425-3.425,0,1,0,81,false,stim,false,1,468.8999996185303,2,0,0,80221,task2,1099019,false,false,1459,image-keyboard-response,14
true,13,2,2,2,true,d,false,true,0.0-2.0-0.47-0.426-3.426,0,1,0,68,false,stim,false,2,496.0,2,1,1,80221,task2,1101052,false,false,1462,image-keyboard-response,15
true,13,0,2,0,true,q,false,true,0.0-2.0-0.47-0.427-3.427,0,1,0,81,false,stim,false,1,648.3000011444092,2,0,0,80221,task2,1103232,false,false,1465,image-keyboard-response,16
true,13,2,2,2,true,d,false,false,0.0-2.0-0.47-0.428-3.428,0,1,0,68,false,stim,false,2,392.8999996185303,2,1,1,80221,task2,1105160,false,true,1468,image-keyboard-response,17
true,13,0,2,0,true,q,false,true,0.0-2.0-0.47-0.429-3.429,0,1,0,81,false,stim,false,2,935.0,2,0,2,80221,task2,1107623,false,false,1471,image-keyboard-response,18
true,13,0,2,0,true,q,false,false,0.0-2.0-0.47-0.430-3.430,0,1,0,81,false,stim,false,2,373.8999996185303,2,0,2,80221,task2,1109522,false,true,1474,image-keyboard-response,19
true,13,2,2,2,true,d,false,false,0.0-2.0-0.47-0.431-3.431,0,1,0,68,false,stim,false,2,531.1999988555908,2,1,1,80221,task2,1111583,false,true,1477,image-keyboard-response,20
true,13,2,2,0,false,q,false,false,0.0-2.0-0.48-0.432-3.432,0,1,0,68,false,stim,true,2,318.0999984741211,2,0,2,80221,task2,1113431,false,false,1480,image-keyboard-response,21
true,13,1,2,0,false,q,true,false,0.0-2.0-0.48-0.433-3.433,0,1,0,90,false,stim,false,2,356.5,2,0,2,80221,task2,1115320,false,false,1483,image-keyboard-response,22
true,13,0,2,0,true,q,false,true,0.0-2.0-0.48-0.434-3.434,0,1,0,81,false,stim,false,2,281.6000003814697,2,0,2,80221,task2,1117135,false,false,1486,image-keyboard-response,23
true,13,2,2,2,true,d,false,true,0.0-2.0-0.48-0.435-3.435,0,1,0,68,false,stim,false,2,411.79999923706055,2,1,1,80221,task2,1119085,false,false,1489,image-keyboard-response,24
true,13,0,2,0,true,q,false,true,0.0-2.0-0.48-0.436-3.436,0,1,0,81,false,stim,false,1,647.5,2,0,0,80221,task2,1121253,false,false,1492,image-keyboard-response,25
true,13,0,2,0,true,q,false,true,0.0-2.0-0.48-0.437-3.437,0,1,0,81,false,stim,false,1,353.8999996185303,2,0,0,80221,task2,1123136,false,false,1495,image-keyboard-response,26
true,13,0,2,0,true,q,false,true,0.0-2.0-0.48-0.438-3.438,0,1,0,81,false,stim,false,1,328.5,2,1,0,80221,task2,1124999,false,false,1498,image-keyboard-response,27
true,13,2,2,2,true,d,false,true,0.0-2.0-0.48-0.439-3.439,0,1,0,68,false,stim,false,2,627.1000003814697,2,0,1,80221,task2,1127168,false,false,1501,image-keyboard-response,28
true,13,2,2,2,true,d,false,true,0.0-2.0-0.48-0.440-3.440,0,1,0,68,false,stim,false,2,329.4000015258789,2,0,1,80221,task2,1129033,false,false,1504,image-keyboard-response,29
true,13,1,2,0,false,q,true,false,0.0-2.0-0.49-0.441-3.441,0,1,0,90,false,stim,false,2,495.70000076293945,2,0,2,80221,task2,1131067,false,false,1507,image-keyboard-response,30
true,13,0,2,2,false,d,true,false,0.0-2.0-0.49-0.442-3.442,0,1,0,81,false,stim,false,2,173.69999885559082,2,0,1,80221,task2,1132766,false,false,1510,image-keyboard-response,31
true,14,0,2,0,true,q,false,true,0.0-2.0-0.49-0.443-3.443,1,0,0,81,true,stim,false,0,430.1000003814697,2,1,0,80221,task2,1134727,false,false,1513,image-keyboard-response,1
true,14,0,2,0,true,q,false,true,0.0-2.0-0.49-0.444-3.444,1,0,0,81,false,stim,false,0,396.1999988555908,2,1,0,80221,task2,1136667,false,false,1516,image-keyboard-response,2
true,14,2,2,1,false,z,true,false,0.0-2.0-0.49-0.445-3.445,1,0,0,68,false,stim,false,0,665.1000003814697,2,0,2,80221,task2,1138855,false,false,1519,image-keyboard-response,3
true,14,0,2,0,true,q,false,true,0.0-2.0-0.49-0.446-3.446,1,0,0,81,false,stim,false,0,551.7000007629395,2,1,0,80221,task2,1140947,false,false,1522,image-keyboard-response,4
true,14,2,2,0,false,q,false,false,0.0-2.0-0.49-0.447-3.447,1,0,0,68,false,stim,true,2,636.9000015258789,2,0,1,80221,task2,1143122,false,false,1525,image-keyboard-response,5
true,14,1,2,0,false,q,true,false,0.0-2.0-0.49-0.448-3.448,1,0,0,90,false,stim,false,2,339.6000003814697,2,0,1,80221,task2,1144993,false,false,1528,image-keyboard-response,6
true,14,1,2,1,true,z,false,true,0.0-2.0-0.49-0.449-3.449,1,0,0,90,false,stim,false,0,746.5,2,0,2,80221,task2,1147274,false,false,1531,image-keyboard-response,7
true,14,0,2,0,true,q,false,true,0.0-2.0-0.50-0.450-3.450,1,0,0,81,false,stim,false,2,404.8999996185303,2,0,1,80221,task2,1149224,false,false,1534,image-keyboard-response,8
true,14,0,2,0,true,q,false,true,0.0-2.0-0.50-0.451-3.451,1,0,0,81,false,stim,false,2,369.1999988555908,2,0,1,80221,task2,1151125,false,false,1537,image-keyboard-response,9
true,14,0,2,0,true,q,false,true,0.0-2.0-0.50-0.452-3.452,1,0,0,81,false,stim,false,0,384.1999988555908,2,1,0,80221,task2,1153044,false,false,1540,image-keyboard-response,10
true,14,0,2,0,true,q,false,true,0.0-2.0-0.50-0.453-3.453,1,0,0,81,false,stim,false,2,356.1000003814697,2,0,1,80221,task2,1154936,false,false,1543,image-keyboard-response,11
true,14,1,2,1,true,z,false,true,0.0-2.0-0.50-0.454-3.454,1,0,0,90,false,stim,false,0,385.3999996185303,2,0,2,80221,task2,1156853,false,false,1546,image-keyboard-response,12
true,14,1,2,1,true,z,false,true,0.0-2.0-0.50-0.455-3.455,1,0,0,90,false,stim,false,0,404.20000076293945,2,0,2,80221,task2,1158794,false,false,1549,image-keyboard-response,13
true,14,0,2,0,true,q,false,true,0.0-2.0-0.50-0.456-3.456,1,0,0,81,false,stim,false,0,505.0,2,1,0,80221,task2,1160838,false,false,1552,image-keyboard-response,14
true,14,0,2,0,true,q,false,true,0.0-2.0-0.50-0.457-3.457,1,0,0,81,false,stim,false,0,373.1000003814697,2,1,0,80221,task2,1162741,false,false,1555,image-keyboard-response,15
true,14,1,2,1,true,z,false,true,0.0-2.0-0.50-0.458-3.458,1,0,0,90,false,stim,false,0,458.3000011444092,2,0,2,80221,task2,1164735,false,false,1558,image-keyboard-response,16
true,14,0,2,0,true,q,false,true,0.0-2.0-0.51-0.459-3.459,1,0,0,81,false,stim,false,0,395.5,2,1,0,80221,task2,1166662,false,false,1561,image-keyboard-response,17
true,14,1,2,0,false,q,true,true,0.0-2.0-0.51-0.460-3.460,1,0,0,90,false,stim,false,2,622.5,2,0,1,80221,task2,1168809,false,true,1564,image-keyboard-response,18
true,14,0,2,0,true,q,false,true,0.0-2.0-0.51-0.461-3.461,1,0,0,81,false,stim,false,0,381.8999996185303,2,1,0,80221,task2,1170720,false,false,1567,image-keyboard-response,19
true,14,0,2,1,false,z,false,false,0.0-2.0-0.51-0.462-3.462,1,0,0,81,false,stim,true,0,378.70000076293945,2,0,2,80221,task2,1172622,false,false,1570,image-keyboard-response,20
true,14,1,2,0,false,q,true,false,0.0-2.0-0.51-0.463-3.463,1,0,0,90,false,stim,false,2,383.3000011444092,2,0,1,80221,task2,1174531,false,false,1573,image-keyboard-response,21
true,14,0,2,1,false,z,false,false,0.0-2.0-0.51-0.464-3.464,1,0,0,81,false,stim,true,0,362.8999996185303,2,0,2,80221,task2,1176438,false,false,1576,image-keyboard-response,22
true,14,0,2,0,true,q,false,false,0.0-2.0-0.51-0.465-3.465,1,0,0,81,false,stim,false,0,304.5,2,1,0,80221,task2,1178285,false,true,1579,image-keyboard-response,23
true,14,1,2,0,false,q,true,false,0.0-2.0-0.51-0.466-3.466,1,0,0,90,false,stim,false,2,364.3000011444092,2,0,1,80221,task2,1180180,false,false,1582,image-keyboard-response,24
true,14,1,2,1,true,z,false,true,0.0-2.0-0.51-0.467-3.467,1,0,0,90,false,stim,false,0,1108.6000003814697,2,0,2,80221,task2,1182813,false,false,1585,image-keyboard-response,25
true,14,2,2,0,false,q,false,false,0.0-2.0-0.52-0.468-3.468,1,0,0,68,false,stim,true,2,548.5,2,0,1,80221,task2,1184891,false,false,1588,image-keyboard-response,26
true,14,0,2,0,true,q,false,true,0.0-2.0-0.52-0.469-3.469,1,0,0,81,false,stim,false,2,434.8999996185303,2,0,1,80221,task2,1186852,false,false,1591,image-keyboard-response,27
true,14,1,2,1,true,z,false,true,0.0-2.0-0.52-0.470-3.470,1,0,0,90,false,stim,false,0,410.0999984741211,2,0,2,80221,task2,1188793,false,false,1594,image-keyboard-response,28
true,14,0,2,0,true,q,false,true,0.0-2.0-0.52-0.471-3.471,1,0,0,81,false,stim,false,0,426.29999923706055,2,1,0,80221,task2,1190754,false,false,1597,image-keyboard-response,29
true,14,0,2,0,true,q,false,true,0.0-2.0-0.52-0.472-3.472,1,0,0,81,false,stim,false,0,359.3999996185303,2,1,0,80221,task2,1192638,false,false,1600,image-keyboard-response,30
true,14,1,2,1,true,z,false,true,0.0-2.0-0.52-0.473-3.473,1,0,0,90,false,stim,false,0,614.6999988555908,2,0,2,80221,task2,1194814,false,false,1603,image-keyboard-response,31
true,14,0,2,0,true,q,false,true,0.0-2.0-0.52-0.474-3.474,1,0,0,81,false,stim,false,2,440.1999988555908,2,1,1,80221,task2,1196791,false,false,1606,image-keyboard-response,32
true,14,0,2,0,true,q,false,true,0.0-2.0-0.52-0.475-3.475,1,0,0,81,false,stim,false,0,863.6000003814697,2,0,0,80221,task2,1199196,false,false,1609,image-keyboard-response,33
true,14,1,2,1,true,z,false,false,0.0-2.0-0.52-0.476-3.476,1,0,0,90,false,stim,false,0,394.3999996185303,2,0,2,80221,task2,1201133,false,true,1612,image-keyboard-response,34
true,14,1,2,0,false,q,true,false,0.0-2.0-0.53-0.477-3.477,1,0,0,90,false,stim,false,2,474.3000011444092,2,1,1,80221,task2,1203133,false,false,1615,image-keyboard-response,35
true,15,0,2,1,false,z,false,false,0.0-2.0-0.53-0.478-3.478,0,1,0,81,true,stim,true,0,487.3999996185303,2,0,0,80221,task2,1205151,false,false,1618,image-keyboard-response,1
true,15,1,2,2,false,d,false,false,0.0-2.0-0.53-0.479-3.479,0,1,0,90,false,stim,true,1,574.8999996185303,2,0,2,80221,task2,1207259,false,false,1621,image-keyboard-response,2
true,15,0,2,0,true,q,false,true,0.0-2.0-0.53-0.480-3.480,0,1,0,81,false,stim,false,0,359.3999996185303,2,1,1,80221,task2,1209149,false,false,1624,image-keyboard-response,3
true,15,0,2,0,true,q,false,true,0.0-2.0-0.53-0.481-3.481,0,1,0,81,false,stim,false,0,562.3999996185303,2,1,1,80221,task2,1211241,false,false,1627,image-keyboard-response,4
true,15,2,2,1,false,z,true,false,0.0-2.0-0.53-0.482-3.482,0,1,0,68,false,stim,false,0,460.20000076293945,2,0,0,80221,task2,1213247,false,false,1630,image-keyboard-response,5
true,15,1,2,1,true,z,false,true,0.0-2.0-0.53-0.483-3.483,0,1,0,90,false,stim,false,0,557.6999988555908,2,0,0,80221,task2,1215345,false,false,1633,image-keyboard-response,6
true,15,0,2,2,false,d,true,false,0.0-2.0-0.53-0.484-3.484,0,1,0,81,false,stim,false,1,351.5999984741211,2,0,2,80221,task2,1217230,false,false,1636,image-keyboard-response,7
true,15,2,2,2,true,d,false,true,0.0-2.0-0.53-0.485-3.485,0,1,0,68,false,stim,false,1,355.0,2,0,2,80221,task2,1219115,false,false,1639,image-keyboard-response,8
true,15,1,2,1,true,z,false,false,0.0-2.0-0.54-0.486-3.486,0,1,0,90,false,stim,false,0,416.70000076293945,2,0,0,80221,task2,1221069,false,true,1642,image-keyboard-response,9
true,15,0,2,0,true,q,false,true,0.0-2.0-0.54-0.487-3.487,0,1,0,81,false,stim,false,0,441.0,2,1,1,80221,task2,1223052,false,false,1645,image-keyboard-response,10
true,15,1,2,1,true,z,false,true,0.0-2.0-0.54-0.488-3.488,0,1,0,90,false,stim,false,0,399.8999996185303,2,0,0,80221,task2,1224979,false,false,1648,image-keyboard-response,11
true,15,0,2,0,true,q,false,true,0.0-2.0-0.54-0.489-3.489,0,1,0,81,false,stim,false,0,497.1999988555908,2,1,1,80221,task2,1227019,false,false,1651,image-keyboard-response,12
true,15,1,2,1,true,z,false,true,0.0-2.0-0.54-0.490-3.490,0,1,0,90,false,stim,false,0,421.8999996185303,2,0,0,80221,task2,1228965,false,false,1654,image-keyboard-response,13
true,15,2,2,2,true,d,false,true,0.0-2.0-0.54-0.491-3.491,0,1,0,68,false,stim,false,1,571.3000011444092,2,0,2,80221,task2,1231064,false,false,1657,image-keyboard-response,14
true,15,2,2,2,true,d,false,true,0.0-2.0-0.54-0.492-3.492,0,1,0,68,false,stim,false,1,441.79999923706055,2,0,2,80221,task2,1233040,false,false,1660,image-keyboard-response,15
true,15,2,2,2,true,d,false,false,0.0-2.0-0.54-0.493-3.493,0,1,0,68,false,stim,false,1,327.70000076293945,2,0,2,80221,task2,1234901,false,true,1663,image-keyboard-response,16
true,15,0,2,0,true,q,false,true,0.0-2.0-0.54-0.494-3.494,0,1,0,81,false,stim,false,0,570.9000015258789,2,1,1,80221,task2,1237034,false,false,1666,image-keyboard-response,17
true,15,1,2,1,true,z,false,true,0.0-2.0-0.55-0.495-3.495,0,1,0,90,false,stim,false,0,925.3999996185303,2,0,0,80221,task2,1239494,false,false,1669,image-keyboard-response,18
true,15,2,2,2,true,d,false,true,0.0-2.0-0.55-0.496-3.496,0,1,0,68,false,stim,false,1,535.6999988555908,2,0,2,80221,task2,1241556,false,false,1672,image-keyboard-response,19
true,15,2,2,2,true,d,false,true,0.0-2.0-0.55-0.497-3.497,0,1,0,68,false,stim,false,1,356.3000011444092,2,0,2,80221,task2,1243436,false,false,1675,image-keyboard-response,20
true,15,2,2,2,true,d,false,true,0.0-2.0-0.55-0.498-3.498,0,1,0,68,false,stim,false,1,343.3999996185303,2,0,2,80221,task2,1245311,false,false,1678,image-keyboard-response,21
true,15,1,2,1,true,z,false,true,0.0-2.0-0.55-0.499-3.499,0,1,0,90,false,stim,false,0,555.0,2,0,0,80221,task2,1247390,false,false,1681,image-keyboard-response,22
true,15,0,2,0,true,q,false,true,0.0-2.0-0.55-0.500-3.500,0,1,0,81,false,stim,false,0,492.0,2,1,1,80221,task2,1249417,false,false,1684,image-keyboard-response,23
true,15,0,2,0,true,q,false,true,0.0-2.0-0.55-0.501-3.501,0,1,0,81,false,stim,false,0,425.70000076293945,2,1,1,80221,task2,1251370,false,false,1687,image-keyboard-response,24
true,15,1,2,1,true,z,false,true,0.0-2.0-0.55-0.502-3.502,0,1,0,90,false,stim,false,0,492.0,2,0,0,80221,task2,1253396,false,false,1690,image-keyboard-response,25
true,15,0,2,0,true,q,false,true,0.0-2.0-0.55-0.503-3.503,0,1,0,81,false,stim,false,0,696.0,2,1,1,80221,task2,1255619,false,false,1693,image-keyboard-response,26
true,15,1,2,1,true,z,false,true,0.0-2.0-0.56-0.504-3.504,0,1,0,90,false,stim,false,0,468.1000003814697,2,0,0,80221,task2,1257612,false,false,1696,image-keyboard-response,27
true,15,2,2,2,true,d,false,true,0.0-2.0-0.56-0.505-3.505,0,1,0,68,false,stim,false,1,371.1999988555908,2,0,2,80221,task2,1259544,false,false,1699,image-keyboard-response,28
true,15,0,2,0,true,q,false,true,0.0-2.0-0.56-0.506-3.506,0,1,0,81,false,stim,false,0,641.5,2,1,1,80221,task2,1261748,false,false,1702,image-keyboard-response,29
true,15,2,2,2,true,d,false,true,0.0-2.0-0.56-0.507-3.507,0,1,0,68,false,stim,false,1,706.3000011444092,2,0,2,80221,task2,1263982,false,false,1705,image-keyboard-response,30
true,15,2,2,2,true,d,false,true,0.0-2.0-0.56-0.508-3.508,0,1,0,68,false,stim,false,1,347.0,2,0,2,80221,task2,1265873,false,false,1708,image-keyboard-response,31
true,15,1,2,1,true,z,false,true,0.0-2.0-0.56-0.509-3.509,0,1,0,90,false,stim,false,0,407.6999988555908,2,0,0,80221,task2,1267832,false,false,1711,image-keyboard-response,32
true,15,1,2,1,true,z,false,true,0.0-2.0-0.56-0.510-3.510,0,1,0,90,false,stim,false,0,421.8999996185303,2,0,0,80221,task2,1269783,false,false,1714,image-keyboard-response,33
true,15,0,2,0,true,q,false,true,0.0-2.0-0.56-0.511-3.511,0,1,0,81,false,stim,false,0,334.0,2,1,1,80221,task2,1271657,false,false,1717,image-keyboard-response,34
true,16,0,2,0,true,q,false,true,0.0-2.0-0.56-0.512-3.512,0,1,0,81,true,stim,false,0,507.1000003814697,2,1,1,80221,task2,1273701,false,false,1720,image-keyboard-response,1
true,16,0,2,0,true,q,false,true,0.0-2.0-0.57-0.513-3.513,0,1,0,81,false,stim,false,0,327.1999988555908,2,1,1,80221,task2,1275573,false,false,1723,image-keyboard-response,2
true,16,0,2,0,true,q,false,false,0.0-2.0-0.57-0.514-3.514,0,1,0,81,false,stim,false,0,499.3999996185303,2,1,1,80221,task2,1277596,false,true,1726,image-keyboard-response,3
true,16,2,2,1,false,z,false,false,0.0-2.0-0.57-0.515-3.515,0,1,0,68,false,stim,true,2,823.3999996185303,2,0,2,80221,task2,1279941,false,false,1729,image-keyboard-response,4
true,16,0,2,0,true,q,false,true,0.0-2.0-0.57-0.516-3.516,0,1,0,81,false,stim,false,0,523.3000011444092,2,1,1,80221,task2,1282003,false,false,1732,image-keyboard-response,5
true,16,1,2,2,false,d,false,false,0.0-2.0-0.57-0.517-3.517,0,1,0,90,false,stim,true,1,380.6000003814697,2,0,0,80221,task2,1283910,false,false,1735,image-keyboard-response,6
true,16,1,2,2,false,d,false,false,0.0-2.0-0.57-0.518-3.518,0,1,0,90,false,stim,true,1,434.3000011444092,2,0,0,80221,task2,1285871,false,false,1738,image-keyboard-response,7
true,16,2,2,1,false,z,false,false,0.0-2.0-0.57-0.519-3.519,0,1,0,68,false,stim,true,2,345.5,2,0,2,80221,task2,1287742,false,false,1741,image-keyboard-response,8
true,16,1,2,2,false,d,false,false,0.0-2.0-0.57-0.520-3.520,0,1,0,90,false,stim,true,1,450.70000076293945,2,0,0,80221,task2,1289721,false,false,1744,image-keyboard-response,9
true,16,2,2,1,false,z,false,false,0.0-2.0-0.57-0.521-3.521,0,1,0,68,false,stim,true,2,444.0,2,0,2,80221,task2,1291699,false,false,1747,image-keyboard-response,10
true,16,0,2,1,false,z,true,false,0.0-2.0-0.58-0.522-3.522,0,1,0,81,false,stim,false,2,647.2000007629395,2,0,2,80221,task2,1293877,false,false,1750,image-keyboard-response,11
true,16,0,2,0,true,q,false,true,0.0-2.0-0.58-0.523-3.523,0,1,0,81,false,stim,false,0,439.1000003814697,2,1,1,80221,task2,1295844,false,false,1753,image-keyboard-response,12
true,16,0,2,2,false,d,true,false,0.0-2.0-0.58-0.524-3.524,0,1,0,81,false,stim,false,1,370.8999996185303,2,0,0,80221,task2,1297745,false,false,1756,image-keyboard-response,13
true,16,1,2,1,true,z,false,false,0.0-2.0-0.58-0.525-3.525,0,1,0,90,false,stim,false,2,350.8999996185303,2,0,2,80221,task2,1299629,false,true,1759,image-keyboard-response,14
true,16,0,2,0,true,q,false,true,0.0-2.0-0.58-0.526-3.526,0,1,0,81,false,stim,false,0,545.2000007629395,2,1,1,80221,task2,1301712,false,false,1762,image-keyboard-response,15
true,16,2,2,2,true,d,false,true,0.0-2.0-0.58-0.527-3.527,0,1,0,68,false,stim,false,1,614.7999992370605,2,0,0,80221,task2,1303857,false,false,1765,image-keyboard-response,16
true,16,2,2,2,true,d,false,true,0.0-2.0-0.58-0.528-3.528,0,1,0,68,false,stim,false,1,360.0,2,0,0,80221,task2,1305756,false,false,1768,image-keyboard-response,17
true,16,0,2,1,false,z,true,false,0.0-2.0-0.58-0.529-3.529,0,1,0,81,false,stim,false,2,389.5,2,0,2,80221,task2,1307674,false,false,1771,image-keyboard-response,18
true,16,0,2,0,true,q,false,true,0.0-2.0-0.58-0.530-3.530,0,1,0,81,false,stim,false,0,512.5999984741211,2,1,1,80221,task2,1309716,false,false,1774,image-keyboard-response,19
true,16,0,2,0,true,q,false,true,0.0-2.0-0.59-0.531-3.531,0,1,0,81,false,stim,false,0,455.1999988555908,2,1,1,80221,task2,1311703,false,false,1777,image-keyboard-response,20
true,16,2,2,2,true,d,false,true,0.0-2.0-0.59-0.532-3.532,0,1,0,68,false,stim,false,1,334.9000015258789,2,0,0,80221,task2,1313571,false,false,1780,image-keyboard-response,21
true,16,2,2,2,true,d,false,true,0.0-2.0-0.59-0.533-3.533,0,1,0,68,false,stim,false,1,374.1000003814697,2,0,0,80221,task2,1315479,false,false,1783,image-keyboard-response,22
true,16,1,2,1,true,z,false,false,0.0-2.0-0.59-0.534-3.534,0,1,0,90,false,stim,false,2,389.5,2,0,2,80221,task2,1317400,false,true,1786,image-keyboard-response,23
true,16,0,2,0,true,q,false,false,0.0-2.0-0.59-0.535-3.535,0,1,0,81,false,stim,false,0,576.2999992370605,2,1,1,80221,task2,1319509,false,true,1789,image-keyboard-response,24
true,16,2,2,1,false,z,false,false,0.0-2.0-0.59-0.536-3.536,0,1,0,68,false,stim,true,2,413.1000003814697,2,0,2,80221,task2,1321451,false,false,1792,image-keyboard-response,25
true,16,0,2,1,false,z,true,true,0.0-2.0-0.59-0.537-3.537,0,1,0,81,false,stim,false,2,447.5,2,0,2,80221,task2,1323431,false,true,1795,image-keyboard-response,26
true,16,2,2,2,true,d,false,true,0.0-2.0-0.59-0.538-3.538,0,1,0,68,false,stim,false,1,506.1999988555908,2,0,0,80221,task2,1325479,false,false,1798,image-keyboard-response,27
true,16,0,2,0,true,q,false,true,0.0-2.0-0.59-0.539-3.539,0,1,0,81,false,stim,false,0,293.6999988555908,2,1,1,80221,task2,1327327,false,false,1801,image-keyboard-response,28
true,16,0,2,0,true,q,false,true,0.0-2.0-0.60-0.540-3.540,0,1,0,81,false,stim,false,0,399.1999988555908,2,1,1,80221,task2,1329260,false,false,1804,image-keyboard-response,29
true,16,0,2,1,false,z,true,true,0.0-2.0-0.60-0.541-3.541,0,1,0,81,false,stim,false,2,302.79999923706055,2,1,2,80221,task2,1331105,false,true,1807,image-keyboard-response,30
true,16,2,2,2,true,d,false,false,0.0-2.0-0.60-0.542-3.542,0,1,0,68,false,stim,false,1,378.6000003814697,2,1,0,80221,task2,1333019,false,true,1810,image-keyboard-response,31
true,16,0,2,0,true,q,false,false,0.0-2.0-0.60-0.543-3.543,0,1,0,81,false,stim,false,0,472.0,2,1,1,80221,task2,1335017,false,true,1813,image-keyboard-response,32
true,16,0,2,2,false,d,true,true,0.0-2.0-0.60-0.544-3.544,0,1,0,81,false,stim,false,1,515.0,2,1,0,80221,task2,1337066,false,true,1816,image-keyboard-response,33
true,16,0,2,1,false,z,true,false,0.0-2.0-0.60-0.545-3.545,0,1,0,81,false,stim,false,2,531.2000007629395,2,1,2,80221,task2,1339141,false,false,1819,image-keyboard-response,34
true,17,0,0,0,true,q,false,true,0.0-2.0-0.60-0.546-3.546,1,1,1,81,true,stim,false,0,1539.2999992370605,2,1,1,80221,task2,1420941,false,false,1900,image-keyboard-response,1
true,17,1,0,2,false,d,true,false,0.0-2.0-0.60-0.547-3.547,1,1,1,90,false,stim,false,2,671.0999984741211,2,1,0,80221,task2,1423167,false,false,1903,image-keyboard-response,2
true,17,1,0,1,true,z,false,true,0.0-2.0-0.60-0.548-3.548,1,1,1,90,false,stim,false,1,637.2999992370605,2,1,2,80221,task2,1425345,false,false,1906,image-keyboard-response,3
true,17,0,0,0,true,q,false,true,0.0-2.0-0.61-0.549-3.549,1,1,1,81,false,stim,false,0,378.79999923706055,2,1,1,80221,task2,1427255,false,false,1909,image-keyboard-response,4
true,17,0,0,0,true,q,false,true,0.0-2.0-0.61-0.550-3.550,1,1,1,81,false,stim,false,0,532.1000003814697,2,1,1,80221,task2,1429315,false,false,1912,image-keyboard-response,5
true,17,1,0,1,true,z,false,true,0.0-2.0-0.61-0.551-3.551,1,1,1,90,false,stim,false,1,642.6000003814697,2,1,2,80221,task2,1431503,false,false,1915,image-keyboard-response,6
true,17,2,0,2,true,d,false,true,0.0-2.0-0.61-0.552-3.552,1,1,1,68,false,stim,false,2,1365.6000003814697,2,1,0,80221,task2,1434390,false,false,1918,image-keyboard-response,7
true,17,0,0,0,true,q,false,true,0.0-2.0-0.61-0.553-3.553,1,1,1,81,false,stim,false,0,1221.7999992370605,2,1,1,80221,task2,1437139,false,false,1921,image-keyboard-response,8
true,17,2,0,2,true,d,false,true,0.0-2.0-0.61-0.554-3.554,1,1,1,68,false,stim,false,2,556.3000011444092,2,0,0,80221,task2,1439235,false,false,1924,image-keyboard-response,9
true,17,2,0,2,true,d,false,true,0.0-2.0-0.61-0.555-3.555,1,1,1,68,false,stim,false,2,830.8999996185303,2,0,0,80221,task2,1441595,false,false,1927,image-keyboard-response,10
true,17,1,0,1,true,z,false,true,0.0-2.0-0.61-0.556-3.556,1,1,1,90,false,stim,false,1,1789.0,2,0,2,80221,task2,1444914,false,false,1930,image-keyboard-response,11
true,17,1,0,1,true,z,false,true,0.0-2.0-0.61-0.557-3.557,1,1,1,90,false,stim,false,1,693.1999988555908,2,0,2,80221,task2,1447140,false,false,1933,image-keyboard-response,12
true,17,2,0,0,false,q,true,true,0.0-2.0-0.62-0.558-3.558,1,1,1,68,false,stim,false,0,1075.6000003814697,2,0,1,80221,task2,1449743,false,true,1936,image-keyboard-response,13
true,18,1,1,2,false,d,false,false,0.0-2.0-0.62-0.559-3.559,0,0,0,90,true,stim,true,1,1807.7999992370605,2,0,2,80221,task2,1453083,false,false,1939,image-keyboard-response,1
true,18,0,1,0,true,q,false,true,0.0-2.0-0.62-0.560-3.560,0,0,0,81,false,stim,false,2,1124.8999996185303,2,0,0,80221,task2,1455746,false,false,1942,image-keyboard-response,2
true,18,0,1,1,false,z,false,false,0.0-2.0-0.62-0.561-3.561,0,0,0,81,false,stim,true,0,1783.0,2,0,1,80221,task2,1459057,false,false,1945,image-keyboard-response,3
true,18,2,1,2,true,d,false,true,0.0-2.0-0.62-0.562-3.562,0,0,0,68,false,stim,false,1,2011.2999992370605,2,0,2,80221,task2,1462597,false,false,1948,image-keyboard-response,4
true,18,0,1,1,false,z,false,false,0.0-2.0-0.62-0.563-3.563,0,0,0,81,false,stim,true,0,2289.6000003814697,2,0,1,80221,task2,1466423,false,false,1951,image-keyboard-response,5
true,18,1,1,0,false,q,true,false,0.0-2.0-0.62-0.564-3.564,0,0,0,90,false,stim,false,2,1677.8999996185303,2,0,0,80221,task2,1469638,false,false,1954,image-keyboard-response,6
true,18,2,1,2,true,d,false,true,0.0-2.0-0.62-0.565-3.565,0,0,0,68,false,stim,false,1,1001.1000003814697,2,0,2,80221,task2,1472168,false,false,1957,image-keyboard-response,7
true,18,1,1,0,false,q,true,true,0.0-2.0-0.62-0.566-3.566,0,0,0,90,false,stim,false,2,2375.7999992370605,2,0,0,80221,task2,1476069,false,true,1960,image-keyboard-response,8
true,18,0,1,1,false,z,false,false,0.0-2.0-0.63-0.567-3.567,0,0,0,81,false,stim,true,0,1802.2000007629395,2,0,1,80221,task2,1479406,false,false,1963,image-keyboard-response,9
true,18,0,1,0,true,q,false,true,0.0-2.0-0.63-0.568-3.568,0,0,0,81,false,stim,false,2,884.3000011444092,2,0,0,80221,task2,1481835,false,false,1966,image-keyboard-response,10
true,18,0,1,0,true,q,false,true,0.0-2.0-0.63-0.569-3.569,0,0,0,81,false,stim,false,2,451.6999988555908,2,0,0,80221,task2,1483824,false,false,1969,image-keyboard-response,11
true,18,0,1,2,false,d,true,false,0.0-2.0-0.63-0.570-3.570,0,0,0,81,false,stim,false,1,653.4000015258789,2,0,2,80221,task2,1486013,false,false,1972,image-keyboard-response,12
true,18,2,1,2,true,d,false,true,0.0-2.0-0.63-0.571-3.571,0,0,0,68,false,stim,false,1,1346.3000011444092,2,0,2,80221,task2,1488889,false,false,1975,image-keyboard-response,13
true,18,1,1,0,false,q,true,false,0.0-2.0-0.63-0.572-3.572,0,0,0,90,false,stim,false,2,2061.6000003814697,2,0,0,80221,task2,1492484,false,false,1978,image-keyboard-response,14
true,18,1,1,1,true,z,false,true,0.0-2.0-0.63-0.573-3.573,0,0,0,90,false,stim,false,0,680.8999996185303,2,0,1,80221,task2,1494695,false,false,1981,image-keyboard-response,15
true,18,1,1,1,true,z,false,true,0.0-2.0-0.63-0.574-3.574,0,0,0,90,false,stim,false,0,964.8999996185303,2,0,1,80221,task2,1497185,false,false,1984,image-keyboard-response,16
true,18,2,1,2,true,d,false,true,0.0-2.0-0.63-0.575-3.575,0,0,0,68,false,stim,false,1,1429.0,2,0,2,80221,task2,1500157,false,false,1987,image-keyboard-response,17
true,18,2,1,2,true,d,false,true,0.0-2.0-0.64-0.576-3.576,0,0,0,68,false,stim,false,1,761.7000007629395,2,0,2,80221,task2,1502445,false,false,1990,image-keyboard-response,18
true,18,0,1,0,true,q,false,true,0.0-2.0-0.64-0.577-3.577,0,0,0,81,false,stim,false,2,1151.599998474121,2,0,0,80221,task2,1505127,false,false,1993,image-keyboard-response,19
true,18,1,1,1,true,z,false,true,0.0-2.0-0.64-0.578-3.578,0,0,0,90,false,stim,false,0,1458.0,2,0,1,80221,task2,1508122,false,false,1996,image-keyboard-response,20
true,18,0,1,0,true,q,false,true,0.0-2.0-0.64-0.579-3.579,0,0,0,81,false,stim,false,2,2234.5,2,0,0,80221,task2,1511891,false,false,1999,image-keyboard-response,21
true,18,1,1,1,true,z,false,true,0.0-2.0-0.64-0.580-3.580,0,0,0,90,false,stim,false,0,2385.2999992370605,2,0,1,80221,task2,1515836,false,false,2002,image-keyboard-response,22
true,18,2,1,2,true,d,false,true,0.0-2.0-0.64-0.581-3.581,0,0,0,68,false,stim,false,1,1735.5,2,0,2,80221,task2,1519097,false,false,2005,image-keyboard-response,23
true,18,0,1,1,false,z,false,false,0.0-2.0-0.64-0.582-3.582,0,0,0,81,false,stim,true,0,1570.2999992370605,2,0,1,80221,task2,1522201,false,false,2008,image-keyboard-response,24
true,18,1,1,0,false,q,true,false,0.0-2.0-0.64-0.583-3.583,0,0,0,90,false,stim,false,2,2461.1000003814697,2,0,0,80221,task2,1526198,false,false,2011,image-keyboard-response,25
true,18,0,1,2,false,d,true,false,0.0-2.0-0.64-0.584-3.584,0,0,0,81,false,stim,false,1,1231.5,2,0,2,80221,task2,1528964,false,false,2014,image-keyboard-response,26
true,18,2,1,1,false,z,true,false,0.0-2.0-0.65-0.585-3.585,0,0,0,68,false,stim,false,0,715.7000007629395,2,0,1,80221,task2,1531210,false,false,2017,image-keyboard-response,27
true,18,0,1,0,true,q,false,true,0.0-2.0-0.65-0.586-3.586,0,0,0,81,false,stim,false,2,1217.3000011444092,2,0,0,80221,task2,1533965,false,false,2020,image-keyboard-response,28
true,18,2,1,2,true,d,false,true,0.0-2.0-0.65-0.587-3.587,0,0,0,68,false,stim,false,1,559.6000003814697,2,0,2,80221,task2,1536068,false,false,2023,image-keyboard-response,29
true,18,2,1,1,false,z,true,false,0.0-2.0-0.65-0.588-3.588,0,0,0,68,false,stim,false,0,569.8999996185303,2,0,1,80221,task2,1538168,false,false,2026,image-keyboard-response,30
true,18,0,1,0,true,q,false,true,0.0-2.0-0.65-0.589-3.589,0,0,0,81,false,stim,false,2,376.5,2,0,0,80221,task2,1540080,false,false,2029,image-keyboard-response,31
true,18,0,1,0,true,q,false,true,0.0-2.0-0.65-0.590-3.590,0,0,0,81,false,stim,false,2,1006.3999996185303,2,1,0,80221,task2,1542630,false,false,2032,image-keyboard-response,32
