answered,blockNum,choice,condition,corResp,correct,correct_response,explo,fb,internal_node_id,isStable_1,isStable_2,isStable_3,key_press,newBlock,part,persev,persevResp,rt,sessNum,stableAS,stimulus,subject,task,time_elapsed,training,trap,trial_index,trial_type,trialsInBlock
true,1,0,0,2,false,d,true,false,0.0-2.0-0.0-0.0-3.0,0,0,0,81,true,stim,false,-1,2134.300000011921,0,0,1,80221,task1,313491,false,false,190,image-keyboard-response,1
true,1,1,0,2,false,d,true,false,0.0-2.0-0.0-0.1-3.1,0,0,0,90,false,stim,false,-1,1041.9000000357628,0,0,0,80221,task1,316052,false,false,193,image-keyboard-response,2
true,1,2,0,1,false,z,true,false,0.0-2.0-0.0-0.2-3.2,0,0,0,68,false,stim,false,-1,2141.400000035763,0,0,2,80221,task1,319717,false,false,196,image-keyboard-response,3
true,1,2,0,1,false,z,true,true,0.0-2.0-0.0-0.3-3.3,0,0,0,68,false,stim,false,-1,1919.0,0,0,2,80221,task1,323167,false,true,199,image-keyboard-response,4
true,1,2,0,1,false,z,true,false,0.0-2.0-0.0-0.4-3.4,0,0,0,68,false,stim,false,-1,2809.100000023842,0,0,2,80221,task1,327504,false,false,202,image-keyboard-response,5
true,1,0,0,2,false,d,true,false,0.0-2.0-0.0-0.5-3.5,0,0,0,81,false,stim,false,-1,2111.300000011921,0,0,0,80221,task1,331135,false,false,205,image-keyboard-response,6
true,1,1,0,2,false,d,true,false,0.0-2.0-0.0-0.6-3.6,0,0,0,90,false,stim,false,-1,2726.600000023842,0,0,1,80221,task1,335386,false,false,208,image-keyboard-response,7
true,1,0,0,2,false,d,true,false,0.0-2.0-0.0-0.7-3.7,0,0,0,81,false,stim,false,-1,1902.1000000238419,0,0,0,80221,task1,338808,false,false,211,image-keyboard-response,8
true,1,1,0,2,false,d,true,false,0.0-2.0-0.0-0.8-3.8,0,0,0,90,false,stim,false,-1,2342.899999976158,0,0,1,80221,task1,342672,false,false,214,image-keyboard-response,9
false,1,-1,0,2,false,d,false,false,0.0-2.0-0.1-0.9-3.9,0,0,0,,false,stim,true,-1,,0,0,1,80221,task1,347195,false,false,217,image-keyboard-response,10
true,1,0,0,2,false,d,true,true,0.0-2.0-0.1-0.10-3.10,0,0,0,81,false,stim,false,-1,2718.100000023842,0,0,0,80221,task1,351440,false,true,220,image-keyboard-response,11
true,1,1,0,2,false,d,true,false,0.0-2.0-0.1-0.11-3.11,0,0,0,90,false,stim,false,-1,2160.100000023842,0,0,1,80221,task1,355124,false,false,223,image-keyboard-response,12
true,1,2,0,1,false,z,true,false,0.0-2.0-0.1-0.12-3.12,0,0,0,68,false,stim,false,-1,1575.800000011921,0,0,2,80221,task1,358221,false,false,226,image-keyboard-response,13
true,1,0,0,2,false,d,true,true,0.0-2.0-0.1-0.13-3.13,0,0,0,81,false,stim,false,-1,2466.399999976158,0,0,0,80221,task1,362204,false,true,229,image-keyboard-response,14
true,1,1,0,1,true,z,false,true,0.0-2.0-0.1-0.14-3.14,0,0,0,90,false,stim,false,-1,2073.099999964237,0,0,2,80221,task1,365805,false,false,232,image-keyboard-response,15
false,1,-1,0,2,false,d,false,false,0.0-2.0-0.1-0.15-3.15,0,0,0,,false,stim,true,-1,,0,0,1,80221,task1,370344,false,false,235,image-keyboard-response,16
false,1,-1,0,2,false,d,false,false,0.0-2.0-0.1-0.16-3.16,0,0,0,,false,stim,true,-1,,0,0,0,80221,task1,374882,false,false,238,image-keyboard-response,17
false,1,-1,0,1,false,z,false,false,0.0-2.0-0.1-0.17-3.17,0,0,0,,false,stim,true,-1,,0,0,2,80221,task1,379408,false,false,241,image-keyboard-response,18
true,1,1,0,1,true,z,false,true,0.0-2.0-0.2-0.18-3.18,0,0,0,90,false,stim,false,-1,1773.699999988079,0,0,2,80221,task1,382708,false,false,244,image-keyboard-response,19
true,1,2,0,2,true,d,false,false,0.0-2.0-0.2-0.19-3.19,0,0,0,68,false,stim,false,-1,2705.400000035763,0,0,1,80221,task1,386944,false,true,247,image-keyboard-response,20
true,1,0,0,2,false,d,true,false,0.0-2.0-0.2-0.20-3.20,0,0,0,81,false,stim,false,-1,1989.9000000357628,0,0,1,80221,task1,390466,false,false,250,image-keyboard-response,21
true,1,0,0,2,false,d,true,false,0.0-2.0-0.2-0.21-3.21,0,0,0,81,false,stim,false,-1,2759.0,0,0,0,80221,task1,394746,false,false,253,image-keyboard-response,22
false,1,-1,0,2,false,d,false,false,0.0-2.0-0.2-0.22-3.22,0,0,0,,false,stim,true,-1,,0,0,1,80221,task1,399277,false,false,256,image-keyboard-response,23
true,1,0,0,2,false,d,true,false,0.0-2.0-0.2-0.23-3.23,0,0,0,81,false,stim,false,-1,2198.0,0,0,0,80221,task1,403001,false,false,259,image-keyboard-response,24
false,1,-1,0,1,false,z,false,false,0.0-2.0-0.2-0.24-3.24,0,0,0,,false,stim,true,-1,,0,0,2,80221,task1,407532,false,false,262,image-keyboard-response,25
true,1,1,0,1,true,z,false,true,0.0-2.0-0.2-0.25-3.25,0,0,0,90,false,stim,false,-1,879.8000000119209,0,0,2,80221,task1,409932,false,false,265,image-keyboard-response,26
true,2,0,1,1,false,z,true,false,0.0-2.0-0.2-0.26-3.26,0,0,0,81,true,stim,false,2,2417.899999976158,0,0,0,80221,task1,413874,false,false,268,image-keyboard-response,1
false,2,-1,1,1,false,z,true,false,0.0-2.0-0.3-0.27-3.27,0,0,0,,false,stim,false,2,,0,0,1,80221,task1,418399,false,false,271,image-keyboard-response,2
true,2,2,1,1,false,z,false,false,0.0-2.0-0.3-0.28-3.28,0,0,0,68,false,stim,true,2,2398.800000011921,0,0,1,80221,task1,422323,false,false,274,image-keyboard-response,3
true,2,1,1,2,false,d,false,false,0.0-2.0-0.3-0.29-3.29,0,0,0,90,false,stim,true,1,2637.899999976158,0,0,2,80221,task1,426491,false,false,277,image-keyboard-response,4
true,2,0,1,2,false,d,true,true,0.0-2.0-0.3-0.30-3.30,0,0,0,81,false,stim,false,1,2384.100000023842,0,0,2,80221,task1,430391,false,true,280,image-keyboard-response,5
true,2,0,1,2,false,d,true,false,0.0-2.0-0.3-0.31-3.31,0,0,0,81,false,stim,false,1,1977.6000000238419,0,0,2,80221,task1,433900,false,false,283,image-keyboard-response,6
true,2,1,1,1,true,z,false,true,0.0-2.0-0.3-0.32-3.32,0,0,0,90,false,stim,false,2,2737.600000023842,0,0,1,80221,task1,438166,false,false,286,image-keyboard-response,7
false,2,-1,1,1,false,z,true,false,0.0-2.0-0.3-0.33-3.33,0,0,0,,false,stim,false,2,,0,0,0,80221,task1,442703,false,false,289,image-keyboard-response,8
true,2,0,1,1,false,z,true,false,0.0-2.0-0.3-0.34-3.34,0,0,0,81,false,stim,false,2,1549.199999988079,0,0,0,80221,task1,445780,false,false,292,image-keyboard-response,9
true,2,0,1,1,false,z,true,false,0.0-2.0-0.3-0.35-3.35,0,0,0,81,false,stim,false,2,1043.5999999642372,0,0,0,80221,task1,448340,false,false,295,image-keyboard-response,10
true,2,0,1,2,false,d,true,false,0.0-2.0-0.4-0.36-3.36,0,0,0,81,false,stim,false,1,1720.6000000238419,0,0,2,80221,task1,451584,false,false,298,image-keyboard-response,11
true,2,0,1,1,false,z,true,false,0.0-2.0-0.4-0.37-3.37,0,0,0,81,false,stim,false,2,1225.5,0,0,0,80221,task1,454344,false,false,301,image-keyboard-response,12
true,2,1,1,1,true,z,false,false,0.0-2.0-0.4-0.38-3.38,0,0,0,90,false,stim,false,2,2392.399999976158,0,0,1,80221,task1,458257,false,true,304,image-keyboard-response,13
true,2,2,1,1,false,z,false,false,0.0-2.0-0.4-0.39-3.39,0,0,0,68,false,stim,true,2,2810.100000023842,0,0,1,80221,task1,462598,false,false,307,image-keyboard-response,14
true,2,2,1,2,true,d,false,true,0.0-2.0-0.4-0.40-3.40,0,0,0,68,false,stim,false,1,1338.6000000238419,0,0,2,80221,task1,465459,false,false,310,image-keyboard-response,15
true,2,0,1,1,false,z,true,false,0.0-2.0-0.4-0.41-3.41,0,0,0,81,false,stim,false,2,2423.199999988079,0,0,0,80221,task1,469409,false,false,313,image-keyboard-response,16
true,2,0,1,1,false,z,true,false,0.0-2.0-0.4-0.42-3.42,0,0,0,81,false,stim,false,2,824.6999999880791,0,0,0,80221,task1,471744,false,false,316,image-keyboard-response,17
true,2,0,1,1,false,z,true,false,0.0-2.0-0.4-0.43-3.43,0,0,0,81,false,stim,false,2,1928.9000000357628,0,0,1,80221,task1,475189,false,false,319,image-keyboard-response,18
true,2,2,1,2,true,d,false,true,0.0-2.0-0.4-0.44-3.44,0,0,0,68,false,stim,false,1,1977.8999999761581,0,0,2,80221,task1,478696,false,false,322,image-keyboard-response,19
true,2,1,1,1,true,z,false,false,0.0-2.0-0.5-0.45-3.45,0,0,0,90,false,stim,false,2,2153.0,0,0,1,80221,task1,482374,false,true,325,image-keyboard-response,20
true,2,1,1,1,true,z,false,true,0.0-2.0-0.5-0.46-3.46,0,0,0,90,false,stim,false,2,1546.699999988079,0,0,0,80221,task1,485442,false,false,328,image-keyboard-response,21
false,2,-1,1,2,false,d,true,false,0.0-2.0-0.5-0.47-3.47,0,0,0,,false,stim,false,1,,0,0,2,80221,task1,489976,false,false,331,image-keyboard-response,22
true,2,0,1,2,false,d,true,false,0.0-2.0-0.5-0.48-3.48,0,0,0,81,false,stim,false,1,1014.7999999523163,0,0,2,80221,task1,492522,false,false,334,image-keyboard-response,23
true,2,1,1,1,true,z,false,true,0.0-2.0-0.5-0.49-3.49,0,0,0,90,false,stim,false,2,2211.300000011921,0,0,0,80221,task1,496266,false,false,337,image-keyboard-response,24
true,2,2,1,2,true,d,false,true,0.0-2.0-0.5-0.50-3.50,0,0,0,68,false,stim,false,1,1434.8999999761581,0,0,2,80221,task1,499232,false,false,340,image-keyboard-response,25
false,2,-1,1,1,false,z,true,false,0.0-2.0-0.5-0.51-3.51,0,0,0,,false,stim,false,2,,0,0,1,80221,task1,503765,false,false,343,image-keyboard-response,26
true,2,2,1,1,false,z,false,false,0.0-2.0-0.5-0.52-3.52,0,0,0,68,false,stim,true,2,1621.199999988079,0,0,1,80221,task1,506911,false,false,346,image-keyboard-response,27
true,2,1,1,1,true,z,false,true,0.0-2.0-0.5-0.53-3.53,0,0,0,90,false,stim,false,2,2196.2999999523163,0,0,0,80221,task1,510632,false,false,349,image-keyboard-response,28
true,2,1,1,1,true,z,false,true,0.0-2.0-0.6-0.54-3.54,0,0,0,90,false,stim,false,2,798.4000000357628,0,0,0,80221,task1,512956,false,false,352,image-keyboard-response,29
true,2,1,1,1,true,z,false,true,0.0-2.0-0.6-0.55-3.55,0,0,0,90,false,stim,false,2,614.5,0,0,0,80221,task1,515103,false,false,355,image-keyboard-response,30
true,2,1,1,1,true,z,false,true,0.0-2.0-0.6-0.56-3.56,0,0,0,90,false,stim,false,2,599.2999999523163,0,0,0,80221,task1,517218,false,false,358,image-keyboard-response,31
true,2,2,1,2,true,d,false,true,0.0-2.0-0.6-0.57-3.57,0,0,0,68,false,stim,false,1,1102.0,0,0,2,80221,task1,519844,false,false,361,image-keyboard-response,32
true,2,0,1,1,false,z,true,false,0.0-2.0-0.6-0.58-3.58,0,0,0,81,false,stim,false,2,1306.0999999642372,0,0,1,80221,task1,522677,false,false,364,image-keyboard-response,33
true,2,2,1,1,false,z,false,false,0.0-2.0-0.6-0.59-3.59,0,0,0,68,false,stim,true,2,1668.5,0,0,1,80221,task1,525868,false,false,367,image-keyboard-response,34
true,2,1,1,1,true,z,false,true,0.0-2.0-0.6-0.60-3.60,0,0,0,90,false,stim,false,2,780.6999999880791,0,0,1,80221,task1,528179,false,false,370,image-keyboard-response,35
true,2,1,1,2,false,d,false,false,0.0-2.0-0.6-0.61-3.61,0,0,0,90,false,stim,true,1,1890.1000000238419,0,0,2,80221,task1,531602,false,false,373,image-keyboard-response,36
true,2,1,1,2,false,d,false,false,0.0-2.0-0.6-0.62-3.62,0,0,0,90,false,stim,true,1,1586.7999999523163,0,0,2,80221,task1,534705,false,false,376,image-keyboard-response,37
true,2,2,1,1,false,z,false,false,0.0-2.0-0.7-0.63-3.63,0,0,0,68,false,stim,true,2,2811.300000011921,0,0,1,80221,task1,539043,false,false,379,image-keyboard-response,38
false,2,-1,1,1,false,z,true,false,0.0-2.0-0.7-0.64-3.64,0,0,0,,false,stim,false,2,,0,0,0,80221,task1,543576,false,false,382,image-keyboard-response,39
true,2,1,1,1,true,z,false,true,0.0-2.0-0.7-0.65-3.65,0,0,0,90,false,stim,false,2,475.10000002384186,0,0,0,80221,task1,545576,false,false,385,image-keyboard-response,40
true,2,1,1,1,true,z,false,true,0.0-2.0-0.7-0.66-3.66,0,0,0,90,false,stim,false,2,732.5,0,0,0,80221,task1,547839,false,false,388,image-keyboard-response,41
true,2,2,1,2,true,d,false,false,0.0-2.0-0.7-0.67-3.67,0,0,0,68,false,stim,false,1,903.1999999880791,0,0,2,80221,task1,550260,false,true,391,image-keyboard-response,42
true,2,2,1,2,true,d,false,true,0.0-2.0-0.7-0.68-3.68,0,0,0,68,false,stim,false,1,1568.1000000238419,0,0,2,80221,task1,553355,false,false,394,image-keyboard-response,43
true,3,2,1,2,true,d,false,true,0.0-2.0-0.7-0.69-3.69,0,0,0,68,true,stim,false,1,1256.199999988079,0,0,1,80221,task1,556141,false,false,397,image-keyboard-response,1
true,3,2,1,2,true,d,false,true,0.0-2.0-0.7-0.70-3.70,0,0,0,68,false,stim,false,1,396.80000001192093,0,0,1,80221,task1,558063,false,false,400,image-keyboard-response,2
true,3,2,1,0,false,q,false,false,0.0-2.0-0.7-0.71-3.71,0,0,0,68,false,stim,true,2,715.2000000476837,0,0,2,80221,task1,560309,false,false,403,image-keyboard-response,3
true,3,1,1,0,false,q,false,false,0.0-2.0-0.8-0.72-3.72,0,0,0,90,false,stim,true,1,426.4000000357628,0,0,0,80221,task1,562254,false,false,406,image-keyboard-response,4
true,3,2,1,0,false,q,false,false,0.0-2.0-0.8-0.73-3.73,0,0,0,68,false,stim,true,2,415.5,0,0,2,80221,task1,564195,false,false,409,image-keyboard-response,5
true,3,1,1,0,false,q,false,false,0.0-2.0-0.8-0.74-3.74,0,0,0,90,false,stim,true,1,1008.8000000119209,0,0,0,80221,task1,566723,false,false,412,image-keyboard-response,6
true,3,2,1,0,false,q,false,true,0.0-2.0-0.8-0.75-3.75,0,0,0,68,false,stim,true,2,830.8000000119209,0,0,2,80221,task1,569081,false,true,415,image-keyboard-response,7
true,3,2,1,0,false,q,false,false,0.0-2.0-0.8-0.76-3.76,0,0,0,68,false,stim,true,2,480.5,0,0,2,80221,task1,571085,false,false,418,image-keyboard-response,8
true,3,2,1,2,true,d,false,true,0.0-2.0-0.8-0.77-3.77,0,0,0,68,false,stim,false,1,889.6999999880791,0,0,1,80221,task1,573497,false,false,421,image-keyboard-response,9
true,3,2,1,2,true,d,false,true,0.0-2.0-0.8-0.78-3.78,0,0,0,68,false,stim,false,1,447.2000000476837,0,0,1,80221,task1,575463,false,false,424,image-keyboard-response,10
true,3,2,1,2,true,d,false,true,0.0-2.0-0.8-0.79-3.79,0,0,0,68,false,stim,false,1,338.80000001192093,0,0,1,80221,task1,577327,false,false,427,image-keyboard-response,11
true,3,1,1,0,false,q,false,true,0.0-2.0-0.8-0.80-3.80,0,0,0,90,false,stim,true,1,1035.1000000238419,0,0,0,80221,task1,579881,false,true,430,image-keyboard-response,12
true,3,2,1,2,true,d,false,true,0.0-2.0-0.9-0.81-3.81,0,0,0,68,false,stim,false,1,420.0,0,0,1,80221,task1,581819,false,false,433,image-keyboard-response,13
true,3,2,1,2,true,d,false,true,0.0-2.0-0.9-0.82-3.82,0,0,0,68,false,stim,false,1,345.19999998807907,0,0,1,80221,task1,583684,false,false,436,image-keyboard-response,14
true,3,1,1,0,false,q,true,false,0.0-2.0-0.9-0.83-3.83,0,0,0,90,false,stim,false,2,1087.5,0,0,2,80221,task1,586292,false,false,439,image-keyboard-response,15
true,3,2,1,2,true,d,false,true,0.0-2.0-0.9-0.84-3.84,0,0,0,68,false,stim,false,1,878.3000000119209,0,0,1,80221,task1,588695,false,false,442,image-keyboard-response,16
true,3,2,1,0,false,q,false,false,0.0-2.0-0.9-0.85-3.85,0,0,0,68,false,stim,true,2,357.0999999642372,0,0,2,80221,task1,590582,false,false,445,image-keyboard-response,17
true,3,2,1,0,false,q,false,false,0.0-2.0-0.9-0.86-3.86,0,0,0,68,false,stim,true,2,311.39999997615814,0,0,2,80221,task1,592415,false,false,448,image-keyboard-response,18
true,3,1,1,0,false,q,false,false,0.0-2.0-0.9-0.87-3.87,0,0,0,90,false,stim,true,1,402.5,0,0,0,80221,task1,594339,false,false,451,image-keyboard-response,19
true,3,1,1,0,false,q,false,false,0.0-2.0-0.9-0.88-3.88,0,0,0,90,false,stim,true,1,440.69999998807907,0,0,0,80221,task1,596305,false,false,454,image-keyboard-response,20
true,3,1,1,0,false,q,false,false,0.0-2.0-0.9-0.89-3.89,0,0,0,90,false,stim,true,1,401.39999997615814,0,0,0,80221,task1,598227,false,false,457,image-keyboard-response,21
true,3,2,1,0,false,q,false,false,0.0-2.0-0.10-0.90-3.90,0,0,0,68,false,stim,true,2,411.89999997615814,0,0,2,80221,task1,600156,false,false,460,image-keyboard-response,22
true,3,1,1,0,false,q,false,false,0.0-2.0-0.10-0.91-3.91,0,0,0,90,false,stim,true,1,1086.4000000357628,0,0,0,80221,task1,602766,false,false,463,image-keyboard-response,23
true,3,2,1,2,true,d,false,true,0.0-2.0-0.10-0.92-3.92,0,0,0,68,false,stim,false,1,461.10000002384186,0,0,1,80221,task1,604751,false,false,466,image-keyboard-response,24
true,3,2,1,0,false,q,false,false,0.0-2.0-0.10-0.93-3.93,0,0,0,68,false,stim,true,2,1320.800000011921,0,0,2,80221,task1,607602,false,false,469,image-keyboard-response,25
true,3,2,1,2,true,d,false,true,0.0-2.0-0.10-0.94-3.94,0,0,0,68,false,stim,false,1,491.60000002384186,0,0,1,80221,task1,609623,false,false,472,image-keyboard-response,26
true,3,1,1,0,false,q,false,false,0.0-2.0-0.10-0.95-3.95,0,0,0,90,false,stim,true,1,640.3000000119209,0,0,0,80221,task1,611798,false,false,475,image-keyboard-response,27
true,3,1,1,0,false,q,false,false,0.0-2.0-0.10-0.96-3.96,0,0,0,90,false,stim,true,1,808.1000000238419,0,0,0,80221,task1,614129,false,false,478,image-keyboard-response,28
true,3,2,1,0,false,q,false,false,0.0-2.0-0.10-0.97-3.97,0,0,0,68,false,stim,true,2,852.3000000119209,0,0,2,80221,task1,616507,false,false,481,image-keyboard-response,29
true,3,2,1,2,true,d,false,true,0.0-2.0-0.10-0.98-3.98,0,0,0,68,false,stim,false,1,667.3999999761581,0,0,1,80221,task1,618695,false,false,484,image-keyboard-response,30
true,3,0,1,0,true,q,false,true,0.0-2.0-0.11-0.99-3.99,0,0,0,81,false,stim,false,2,2401.199999988079,0,0,2,80221,task1,622627,false,false,487,image-keyboard-response,31
true,3,2,1,2,true,d,false,true,0.0-2.0-0.11-0.100-3.100,0,0,0,68,false,stim,false,1,2201.399999976158,0,0,1,80221,task1,626351,false,false,490,image-keyboard-response,32
true,3,1,1,0,false,q,false,true,0.0-2.0-0.11-0.101-3.101,0,0,0,90,false,stim,true,1,878.0,0,0,0,80221,task1,628758,false,true,493,image-keyboard-response,33
true,3,2,1,2,true,d,false,true,0.0-2.0-0.11-0.102-3.102,0,0,0,68,false,stim,false,1,1482.699999988079,0,0,1,80221,task1,631770,false,false,496,image-keyboard-response,34
true,3,1,1,0,false,q,false,false,0.0-2.0-0.11-0.103-3.103,0,0,0,90,false,stim,true,1,618.0,0,0,0,80221,task1,633911,false,false,499,image-keyboard-response,35
true,3,2,1,2,true,d,false,true,0.0-2.0-0.11-0.104-3.104,0,0,0,68,false,stim,false,1,595.8999999761581,0,0,1,80221,task1,636030,false,false,502,image-keyboard-response,36
true,3,0,1,0,true,q,false,false,0.0-2.0-0.11-0.105-3.105,0,0,0,81,false,stim,false,2,339.10000002384186,0,0,2,80221,task1,637887,false,true,505,image-keyboard-response,37
true,3,1,1,0,false,q,false,true,0.0-2.0-0.11-0.106-3.106,0,0,0,90,false,stim,true,1,640.6999999880791,0,0,0,80221,task1,640056,false,true,508,image-keyboard-response,38
true,3,0,1,0,true,q,false,true,0.0-2.0-0.11-0.107-3.107,0,0,0,81,false,stim,false,2,1152.699999988079,0,0,2,80221,task1,642733,false,false,511,image-keyboard-response,39
true,3,1,1,0,false,q,false,false,0.0-2.0-0.12-0.108-3.108,0,0,0,90,false,stim,true,1,607.8000000119209,0,0,0,80221,task1,644864,false,false,514,image-keyboard-response,40
true,3,1,1,0,false,q,false,false,0.0-2.0-0.12-0.109-3.109,0,0,0,90,false,stim,true,1,489.5,0,0,0,80221,task1,646880,false,false,517,image-keyboard-response,41
true,4,2,1,0,false,q,false,false,0.0-2.0-0.12-0.110-3.110,0,0,0,68,true,stim,true,2,696.1999999880791,0,0,1,80221,task1,649106,false,false,520,image-keyboard-response,1
true,4,2,1,0,false,q,false,false,0.0-2.0-0.12-0.111-3.111,0,0,0,68,false,stim,true,2,501.7000000476837,0,0,1,80221,task1,651130,false,false,523,image-keyboard-response,2
true,4,0,1,2,false,d,false,false,0.0-2.0-0.12-0.112-3.112,0,0,0,81,false,stim,true,0,1396.0,0,0,2,80221,task1,654046,false,false,526,image-keyboard-response,3
true,4,0,1,2,false,d,false,false,0.0-2.0-0.12-0.113-3.113,0,0,0,81,false,stim,true,0,502.5,0,0,2,80221,task1,656082,false,false,529,image-keyboard-response,4
true,4,0,1,2,false,d,false,false,0.0-2.0-0.12-0.114-3.114,0,0,0,81,false,stim,true,0,587.7000000476837,0,0,2,80221,task1,658192,false,false,532,image-keyboard-response,5
true,4,1,1,1,true,z,false,true,0.0-2.0-0.12-0.115-3.115,0,0,0,90,false,stim,false,0,1183.0999999642372,0,0,0,80221,task1,660896,false,false,535,image-keyboard-response,6
true,4,2,1,0,false,q,false,false,0.0-2.0-0.12-0.116-3.116,0,0,0,68,false,stim,true,2,738.6000000238419,0,0,1,80221,task1,663164,false,false,538,image-keyboard-response,7
true,4,0,1,0,true,q,false,true,0.0-2.0-0.13-0.117-3.117,0,0,0,81,false,stim,false,2,559.0,0,0,1,80221,task1,665249,false,false,541,image-keyboard-response,8
true,4,0,1,0,true,q,false,true,0.0-2.0-0.13-0.118-3.118,0,0,0,81,false,stim,false,2,575.7999999523163,0,0,1,80221,task1,667353,false,false,544,image-keyboard-response,9
true,4,0,1,2,false,d,false,false,0.0-2.0-0.13-0.119-3.119,0,0,0,81,false,stim,true,0,2108.0,0,0,2,80221,task1,670979,false,false,547,image-keyboard-response,10
true,4,1,1,1,true,z,false,true,0.0-2.0-0.13-0.120-3.120,0,0,0,90,false,stim,false,0,559.0,0,0,0,80221,task1,673057,false,false,550,image-keyboard-response,11
true,4,0,1,2,false,d,false,false,0.0-2.0-0.13-0.121-3.121,0,0,0,81,false,stim,true,0,793.6999999880791,0,0,2,80221,task1,675368,false,false,553,image-keyboard-response,12
true,4,1,1,1,true,z,false,true,0.0-2.0-0.13-0.122-3.122,0,0,0,90,false,stim,false,0,576.1999999880791,0,0,0,80221,task1,677463,false,false,556,image-keyboard-response,13
true,4,0,1,0,true,q,false,true,0.0-2.0-0.13-0.123-3.123,0,0,0,81,false,stim,false,2,853.6999999880791,0,0,1,80221,task1,679846,false,false,559,image-keyboard-response,14
true,4,2,1,2,true,d,false,true,0.0-2.0-0.13-0.124-3.124,0,0,0,68,false,stim,false,0,874.5,0,0,2,80221,task1,682246,false,false,562,image-keyboard-response,15
true,4,1,1,1,true,z,false,true,0.0-2.0-0.13-0.125-3.125,0,0,0,90,false,stim,false,0,547.1000000238419,0,0,0,80221,task1,684311,false,false,565,image-keyboard-response,16
true,4,0,1,0,true,q,false,true,0.0-2.0-0.14-0.126-3.126,0,0,0,81,false,stim,false,2,1094.9000000357628,0,0,1,80221,task1,686935,false,false,568,image-keyboard-response,17
true,4,1,1,1,true,z,false,true,0.0-2.0-0.14-0.127-3.127,0,0,0,90,false,stim,false,0,747.6000000238419,0,0,0,80221,task1,689198,false,false,571,image-keyboard-response,18
true,4,0,1,0,true,q,false,false,0.0-2.0-0.14-0.128-3.128,0,0,0,81,false,stim,false,2,413.0999999642372,0,0,1,80221,task1,691135,false,true,574,image-keyboard-response,19
true,4,0,1,0,true,q,false,true,0.0-2.0-0.14-0.129-3.129,0,0,0,81,false,stim,false,2,491.5999999642372,0,0,1,80221,task1,693151,false,false,577,image-keyboard-response,20
true,4,0,1,2,false,d,false,false,0.0-2.0-0.14-0.130-3.130,0,0,0,81,false,stim,true,0,2301.199999988079,0,0,2,80221,task1,696981,false,false,580,image-keyboard-response,21
true,4,2,1,2,true,d,false,true,0.0-2.0-0.14-0.131-3.131,0,0,0,68,false,stim,false,0,491.30000001192093,0,0,2,80221,task1,698997,false,false,583,image-keyboard-response,22
true,4,2,1,2,true,d,false,true,0.0-2.0-0.14-0.132-3.132,0,0,0,68,false,stim,false,0,392.19999998807907,0,0,2,80221,task1,700913,false,false,586,image-keyboard-response,23
true,4,1,1,1,true,z,false,true,0.0-2.0-0.14-0.133-3.133,0,0,0,90,false,stim,false,0,712.8000000119209,0,0,0,80221,task1,703154,false,false,589,image-keyboard-response,24
true,4,1,1,1,true,z,false,true,0.0-2.0-0.14-0.134-3.134,0,0,0,90,false,stim,false,0,418.69999998807907,0,0,0,80221,task1,705100,false,false,592,image-keyboard-response,25
true,4,2,1,2,true,d,false,true,0.0-2.0-0.15-0.135-3.135,0,0,0,68,false,stim,false,0,482.39999997615814,0,0,2,80221,task1,707109,false,false,595,image-keyboard-response,26
true,4,1,1,1,true,z,false,false,0.0-2.0-0.15-0.136-3.136,0,0,0,90,false,stim,false,0,534.0,0,0,0,80221,task1,709169,false,true,598,image-keyboard-response,27
true,4,1,1,1,true,z,false,true,0.0-2.0-0.15-0.137-3.137,0,0,0,90,false,stim,false,0,432.89999997615814,0,0,0,80221,task1,711127,false,false,601,image-keyboard-response,28
true,4,0,1,0,true,q,false,true,0.0-2.0-0.15-0.138-3.138,0,0,0,81,false,stim,false,2,459.69999998807907,0,0,1,80221,task1,713111,false,false,604,image-keyboard-response,29
true,4,0,1,0,true,q,false,true,0.0-2.0-0.15-0.139-3.139,0,0,0,81,false,stim,false,2,395.5,0,0,1,80221,task1,715033,false,false,607,image-keyboard-response,30
true,4,2,1,1,false,z,true,false,0.0-2.0-0.15-0.140-3.140,0,0,0,68,false,stim,false,0,788.1000000238419,0,0,0,80221,task1,717352,false,false,610,image-keyboard-response,31
true,4,2,1,2,true,d,false,true,0.0-2.0-0.15-0.141-3.141,0,0,0,68,false,stim,false,0,322.7999999523163,0,0,2,80221,task1,719198,false,false,613,image-keyboard-response,32
true,4,2,1,2,true,d,false,true,0.0-2.0-0.15-0.142-3.142,0,0,0,68,false,stim,false,0,360.0,0,0,2,80221,task1,721089,false,false,616,image-keyboard-response,33
true,4,0,1,0,true,q,false,false,0.0-2.0-0.15-0.143-3.143,0,0,0,81,false,stim,false,2,495.10000002384186,0,0,1,80221,task1,723105,false,true,619,image-keyboard-response,34
true,4,1,1,1,true,z,false,true,0.0-2.0-0.16-0.144-3.144,0,0,0,90,false,stim,false,0,619.0,0,0,0,80221,task1,725254,false,false,622,image-keyboard-response,35
true,4,1,1,1,true,z,false,true,0.0-2.0-0.16-0.145-3.145,0,0,0,90,false,stim,false,0,456.19999998807907,0,0,0,80221,task1,727241,false,false,625,image-keyboard-response,36
true,4,2,1,2,true,d,false,false,0.0-2.0-0.16-0.146-3.146,0,0,0,68,false,stim,false,0,970.6000000238419,0,0,2,80221,task1,729741,false,true,628,image-keyboard-response,37
true,4,0,1,0,true,q,false,true,0.0-2.0-0.16-0.147-3.147,0,0,0,81,false,stim,false,2,467.60000002384186,0,0,1,80221,task1,731740,false,false,631,image-keyboard-response,38
true,4,2,1,2,true,d,false,true,0.0-2.0-0.16-0.148-3.148,0,0,0,68,false,stim,false,0,533.8999999761581,0,0,2,80221,task1,733794,false,false,634,image-keyboard-response,39
true,4,1,1,1,true,z,false,true,0.0-2.0-0.16-0.149-3.149,0,0,0,90,false,stim,false,0,404.80000001192093,0,0,0,80221,task1,735731,false,false,637,image-keyboard-response,40
true,4,2,1,2,true,d,false,true,0.0-2.0-0.16-0.150-3.150,0,0,0,68,false,stim,false,0,498.5999999642372,0,0,2,80221,task1,737751,false,false,640,image-keyboard-response,41
true,4,0,1,0,true,q,false,false,0.0-2.0-0.16-0.151-3.151,0,0,0,81,false,stim,false,2,341.19999998807907,0,0,1,80221,task1,739626,false,true,643,image-keyboard-response,42
true,4,0,1,0,true,q,false,true,0.0-2.0-0.16-0.152-3.152,0,0,0,81,false,stim,false,2,1067.2000000476837,0,0,1,80221,task1,742222,false,false,646,image-keyboard-response,43
true,4,2,1,2,true,d,false,true,0.0-2.0-0.17-0.153-3.153,0,0,0,68,false,stim,false,0,547.4000000357628,0,0,2,80221,task1,744300,false,false,649,image-keyboard-response,44
true,4,0,1,0,true,q,false,false,0.0-2.0-0.17-0.154-3.154,0,0,0,81,false,stim,false,2,392.10000002384186,0,0,1,80221,task1,746212,false,true,652,image-keyboard-response,45
true,5,1,1,2,false,d,false,false,0.0-2.0-0.17-0.155-3.155,0,0,0,90,true,stim,true,1,434.69999998807907,0,0,0,80221,task1,748167,false,false,655,image-keyboard-response,1
true,5,1,1,2,false,d,false,false,0.0-2.0-0.17-0.156-3.156,0,0,0,90,false,stim,true,1,635.0,0,0,0,80221,task1,750323,false,false,658,image-keyboard-response,2
true,5,0,1,2,false,d,false,false,0.0-2.0-0.17-0.157-3.157,0,0,0,81,false,stim,true,0,583.0999999642372,0,0,1,80221,task1,752428,false,false,661,image-keyboard-response,3
true,5,0,1,2,false,d,false,false,0.0-2.0-0.17-0.158-3.158,0,0,0,81,false,stim,true,0,521.6999999880791,0,0,1,80221,task1,754479,false,false,664,image-keyboard-response,4
true,5,2,1,0,false,q,false,false,0.0-2.0-0.17-0.159-3.159,0,0,0,68,false,stim,true,2,681.2000000476837,0,0,2,80221,task1,756687,false,false,667,image-keyboard-response,5
true,5,1,1,0,false,q,true,false,0.0-2.0-0.17-0.160-3.160,0,0,0,90,false,stim,false,2,1287.5999999642372,0,0,2,80221,task1,759495,false,false,670,image-keyboard-response,6
true,5,1,1,2,false,d,false,false,0.0-2.0-0.17-0.161-3.161,0,0,0,90,false,stim,true,1,612.2999999523163,0,0,0,80221,task1,761630,false,false,673,image-keyboard-response,7
true,5,0,1,2,false,d,true,false,0.0-2.0-0.18-0.162-3.162,0,0,0,81,false,stim,false,1,1336.8999999761581,0,0,0,80221,task1,764488,false,false,676,image-keyboard-response,8
true,5,0,1,2,false,d,false,false,0.0-2.0-0.18-0.163-3.163,0,0,0,81,false,stim,true,0,1153.300000011921,0,0,1,80221,task1,767169,false,false,679,image-keyboard-response,9
true,5,1,1,2,false,d,false,false,0.0-2.0-0.18-0.164-3.164,0,0,0,90,false,stim,true,1,641.3000000119209,0,0,0,80221,task1,769344,false,false,682,image-keyboard-response,10
true,5,1,1,2,false,d,false,false,0.0-2.0-0.18-0.165-3.165,0,0,0,90,false,stim,true,1,368.69999998807907,0,0,0,80221,task1,771224,false,false,685,image-keyboard-response,11
true,5,0,1,2,false,d,false,false,0.0-2.0-0.18-0.166-3.166,0,0,0,81,false,stim,true,0,507.5,0,0,1,80221,task1,773248,false,false,688,image-keyboard-response,12
true,5,2,1,0,false,q,false,false,0.0-2.0-0.18-0.167-3.167,0,0,0,68,false,stim,true,2,540.5,0,0,2,80221,task1,775317,false,false,691,image-keyboard-response,13
true,5,0,1,2,false,d,false,false,0.0-2.0-0.18-0.168-3.168,0,0,0,81,false,stim,true,0,447.2000000476837,0,0,1,80221,task1,777290,false,false,694,image-keyboard-response,14
true,5,0,1,0,true,q,false,true,0.0-2.0-0.18-0.169-3.169,0,0,0,81,false,stim,false,2,843.8000000119209,0,0,2,80221,task1,779664,false,false,697,image-keyboard-response,15
true,5,2,1,0,false,q,false,true,0.0-2.0-0.18-0.170-3.170,0,0,0,68,false,stim,true,2,1082.199999988079,0,0,2,80221,task1,782277,false,true,700,image-keyboard-response,16
true,5,0,1,2,false,d,false,false,0.0-2.0-0.19-0.171-3.171,0,0,0,81,false,stim,true,0,485.0999999642372,0,0,1,80221,task1,784293,false,false,703,image-keyboard-response,17
true,5,0,1,2,false,d,false,false,0.0-2.0-0.19-0.172-3.172,0,0,0,81,false,stim,true,0,368.19999998807907,0,0,1,80221,task1,786185,false,false,706,image-keyboard-response,18
true,5,2,1,0,false,q,false,false,0.0-2.0-0.19-0.173-3.173,0,0,0,68,false,stim,true,2,570.6999999880791,0,0,2,80221,task1,788285,false,false,709,image-keyboard-response,19
true,5,0,1,2,false,d,false,false,0.0-2.0-0.19-0.174-3.174,0,0,0,81,false,stim,true,0,898.5999999642372,0,0,1,80221,task1,790709,false,false,712,image-keyboard-response,20
true,5,1,1,2,false,d,false,false,0.0-2.0-0.19-0.175-3.175,0,0,0,90,false,stim,true,1,521.0,0,0,0,80221,task1,792749,false,false,715,image-keyboard-response,21
true,5,1,1,2,false,d,false,false,0.0-2.0-0.19-0.176-3.176,0,0,0,90,false,stim,true,1,386.19999998807907,0,0,0,80221,task1,794669,false,false,718,image-keyboard-response,22
true,5,2,1,0,false,q,false,false,0.0-2.0-0.19-0.177-3.177,0,0,0,68,false,stim,true,2,889.5999999642372,0,0,2,80221,task1,797084,false,false,721,image-keyboard-response,23
true,5,2,1,0,false,q,false,false,0.0-2.0-0.19-0.178-3.178,0,0,0,68,false,stim,true,2,1190.300000011921,0,0,2,80221,task1,799791,false,false,724,image-keyboard-response,24
true,5,1,1,2,false,d,false,false,0.0-2.0-0.19-0.179-3.179,0,0,0,90,false,stim,true,1,530.5,0,0,0,80221,task1,801851,false,false,727,image-keyboard-response,25
true,5,2,1,0,false,q,false,false,0.0-2.0-0.20-0.180-3.180,0,0,0,68,false,stim,true,2,698.5,0,0,2,80221,task1,804080,false,false,730,image-keyboard-response,26
true,5,0,1,2,false,d,false,false,0.0-2.0-0.20-0.181-3.181,0,0,0,81,false,stim,true,0,531.8000000119209,0,0,1,80221,task1,806135,false,false,733,image-keyboard-response,27
true,5,0,1,2,false,d,false,false,0.0-2.0-0.20-0.182-3.182,0,0,0,81,false,stim,true,0,443.2000000476837,0,0,1,80221,task1,808103,false,false,736,image-keyboard-response,28
true,5,0,1,2,false,d,false,false,0.0-2.0-0.20-0.183-3.183,0,0,0,81,false,stim,true,0,510.60000002384186,0,0,1,80221,task1,810143,false,false,739,image-keyboard-response,29
true,5,2,1,0,false,q,false,true,0.0-2.0-0.20-0.184-3.184,0,0,0,68,false,stim,true,2,753.3999999761581,0,0,2,80221,task1,812416,false,true,742,image-keyboard-response,30
true,5,1,1,2,false,d,false,false,0.0-2.0-0.20-0.185-3.185,0,0,0,90,false,stim,true,1,595.5,0,0,0,80221,task1,814532,false,false,745,image-keyboard-response,31
true,5,1,1,2,false,d,false,true,0.0-2.0-0.20-0.186-3.186,0,0,0,90,false,stim,true,1,416.60000002384186,0,0,0,80221,task1,816467,false,true,748,image-keyboard-response,32
true,5,2,1,0,false,q,false,false,0.0-2.0-0.20-0.187-3.187,0,0,0,68,false,stim,true,2,649.7000000476837,0,0,2,80221,task1,818648,false,false,751,image-keyboard-response,33
true,5,1,1,2,false,d,false,false,0.0-2.0-0.20-0.188-3.188,0,0,0,90,false,stim,true,1,552.1999999880791,0,0,0,80221,task1,820732,false,false,754,image-keyboard-response,34
true,5,2,1,0,false,q,false,false,0.0-2.0-0.21-0.189-3.189,0,0,0,68,false,stim,true,2,595.7000000476837,0,0,2,80221,task1,822863,false,false,757,image-keyboard-response,35
true,5,2,1,0,false,q,false,false,0.0-2.0-0.21-0.190-3.190,0,0,0,68,false,stim,true,2,443.60000002384186,0,0,2,80221,task1,824828,false,false,760,image-keyboard-response,36
true,5,0,1,2,false,d,false,false,0.0-2.0-0.21-0.191-3.191,0,0,0,81,false,stim,true,0,556.3000000119209,0,0,1,80221,task1,826918,false,false,763,image-keyboard-response,37
true,5,2,1,0,false,q,false,false,0.0-2.0-0.21-0.192-3.192,0,0,0,68,false,stim,true,2,496.0,0,0,2,80221,task1,828940,false,false,766,image-keyboard-response,38
true,5,1,1,2,false,d,false,false,0.0-2.0-0.21-0.193-3.193,0,0,0,90,false,stim,true,1,638.7000000476837,0,0,0,80221,task1,831102,false,false,769,image-keyboard-response,39
true,5,1,1,2,false,d,false,false,0.0-2.0-0.21-0.194-3.194,0,0,0,90,false,stim,true,1,448.10000002384186,0,0,0,80221,task1,833073,false,false,772,image-keyboard-response,40
true,6,0,1,0,true,q,false,true,0.0-2.0-0.21-0.195-3.195,0,0,0,81,true,stim,false,2,556.0999999642372,0,0,1,80221,task1,835150,false,false,775,image-keyboard-response,1
true,6,0,1,0,true,q,false,true,0.0-2.0-0.21-0.196-3.196,0,0,0,81,false,stim,false,2,481.89999997615814,0,0,1,80221,task1,837159,false,false,778,image-keyboard-response,2
true,6,2,1,0,false,q,false,false,0.0-2.0-0.21-0.197-3.197,0,0,0,68,false,stim,true,2,582.6000000238419,0,0,0,80221,task1,839259,false,false,781,image-keyboard-response,3
true,6,0,1,0,true,q,false,true,0.0-2.0-0.22-0.198-3.198,0,0,0,81,false,stim,false,2,571.8000000119209,0,0,1,80221,task1,841351,false,false,784,image-keyboard-response,4
true,6,2,1,2,true,d,false,true,0.0-2.0-0.22-0.199-3.199,0,0,0,68,false,stim,false,0,652.0,0,0,2,80221,task1,843529,false,false,787,image-keyboard-response,5
true,6,2,1,2,true,d,false,true,0.0-2.0-0.22-0.200-3.200,0,0,0,68,false,stim,false,0,389.39999997615814,0,0,2,80221,task1,845444,false,false,790,image-keyboard-response,6
true,6,0,1,0,true,q,false,true,0.0-2.0-0.22-0.201-3.201,0,0,0,81,false,stim,false,2,1469.6000000238419,0,0,1,80221,task1,848440,false,false,793,image-keyboard-response,7
true,6,1,1,0,false,q,true,false,0.0-2.0-0.22-0.202-3.202,0,0,0,90,false,stim,false,2,784.5,0,0,0,80221,task1,850758,false,false,796,image-keyboard-response,8
true,6,2,1,0,false,q,false,false,0.0-2.0-0.22-0.203-3.203,0,0,0,68,false,stim,true,2,1661.6000000238419,0,0,0,80221,task1,853940,false,false,799,image-keyboard-response,9
true,6,0,1,0,true,q,false,true,0.0-2.0-0.22-0.204-3.204,0,0,0,81,false,stim,false,2,521.1999999880791,0,0,1,80221,task1,855990,false,false,802,image-keyboard-response,10
true,6,1,1,0,false,q,true,false,0.0-2.0-0.22-0.205-3.205,0,0,0,90,false,stim,false,2,518.8000000119209,0,0,0,80221,task1,858040,false,false,805,image-keyboard-response,11
true,6,2,1,2,true,d,false,false,0.0-2.0-0.22-0.206-3.206,0,0,0,68,false,stim,false,0,529.5,0,0,2,80221,task1,860088,false,true,808,image-keyboard-response,12
true,6,0,1,0,true,q,false,true,0.0-2.0-0.23-0.207-3.207,0,0,0,81,false,stim,false,2,610.6999999880791,0,0,1,80221,task1,862223,false,false,811,image-keyboard-response,13
true,6,0,1,0,true,q,false,true,0.0-2.0-0.23-0.208-3.208,0,0,0,81,false,stim,false,2,1932.0,0,0,0,80221,task1,865675,false,false,814,image-keyboard-response,14
true,6,2,1,2,true,d,false,true,0.0-2.0-0.23-0.209-3.209,0,0,0,68,false,stim,false,0,528.5,0,0,2,80221,task1,867725,false,false,817,image-keyboard-response,15
true,6,2,1,2,true,d,false,true,0.0-2.0-0.23-0.210-3.210,0,0,0,68,false,stim,false,0,495.39999997615814,0,0,2,80221,task1,869747,false,false,820,image-keyboard-response,16
true,6,0,1,0,true,q,false,true,0.0-2.0-0.23-0.211-3.211,0,0,0,81,false,stim,false,2,671.3000000119209,0,0,1,80221,task1,871948,false,false,823,image-keyboard-response,17
true,6,2,1,2,true,d,false,true,0.0-2.0-0.23-0.212-3.212,0,0,0,68,false,stim,false,0,668.7999999523163,0,0,2,80221,task1,874147,false,false,826,image-keyboard-response,18
true,6,0,1,0,true,q,false,true,0.0-2.0-0.23-0.213-3.213,0,0,0,81,false,stim,false,2,1134.1000000238419,0,0,0,80221,task1,876799,false,false,829,image-keyboard-response,19
true,6,0,1,0,true,q,false,true,0.0-2.0-0.23-0.214-3.214,0,0,0,81,false,stim,false,2,374.5999999642372,0,0,1,80221,task1,878699,false,false,832,image-keyboard-response,20
true,6,0,1,0,true,q,false,true,0.0-2.0-0.23-0.215-3.215,0,0,0,81,false,stim,false,2,361.69999998807907,0,0,0,80221,task1,880577,false,false,835,image-keyboard-response,21
true,6,0,1,0,true,q,false,true,0.0-2.0-0.24-0.216-3.216,0,0,0,81,false,stim,false,2,347.89999997615814,0,0,1,80221,task1,882442,false,false,838,image-keyboard-response,22
true,6,0,1,0,true,q,false,true,0.0-2.0-0.24-0.217-3.217,0,0,0,81,false,stim,false,2,382.89999997615814,0,0,1,80221,task1,884354,false,false,841,image-keyboard-response,23
true,6,2,1,2,true,d,false,true,0.0-2.0-0.24-0.218-3.218,0,0,0,68,false,stim,false,0,548.1999999880791,0,0,2,80221,task1,886423,false,false,844,image-keyboard-response,24
true,6,0,1,0,true,q,false,false,0.0-2.0-0.24-0.219-3.219,0,0,0,81,false,stim,false,2,279.89999997615814,0,0,0,80221,task1,888229,false,true,847,image-keyboard-response,25
true,6,0,1,0,true,q,false,true,0.0-2.0-0.24-0.220-3.220,0,0,0,81,false,stim,false,2,384.30000001192093,0,0,0,80221,task1,890137,false,false,850,image-keyboard-response,26
true,6,0,1,0,true,q,false,true,0.0-2.0-0.24-0.221-3.221,0,0,0,81,false,stim,false,2,399.60000002384186,0,0,1,80221,task1,892058,false,false,853,image-keyboard-response,27
true,6,2,1,2,true,d,false,true,0.0-2.0-0.24-0.222-3.222,0,0,0,68,false,stim,false,0,539.1000000238419,0,0,2,80221,task1,894122,false,false,856,image-keyboard-response,28
true,6,0,1,2,false,d,false,false,0.0-2.0-0.24-0.223-3.223,0,0,0,81,false,stim,true,0,308.69999998807907,0,0,2,80221,task1,895956,false,false,859,image-keyboard-response,29
true,6,0,1,0,true,q,false,false,0.0-2.0-0.24-0.224-3.224,0,0,0,81,false,stim,false,2,466.80000001192093,0,0,0,80221,task1,897955,false,true,862,image-keyboard-response,30
true,6,0,1,0,true,q,false,true,0.0-2.0-0.25-0.225-3.225,0,0,0,81,false,stim,false,2,341.80000001192093,0,0,1,80221,task1,899826,false,false,865,image-keyboard-response,31
true,6,0,1,0,true,q,false,true,0.0-2.0-0.25-0.226-3.226,0,0,0,81,false,stim,false,2,490.0999999642372,0,0,0,80221,task1,901837,false,false,868,image-keyboard-response,32
true,6,2,1,2,true,d,false,true,0.0-2.0-0.25-0.227-3.227,0,0,0,68,false,stim,false,0,363.89999997615814,0,0,2,80221,task1,903728,false,false,871,image-keyboard-response,33
true,6,2,1,2,true,d,false,true,0.0-2.0-0.25-0.228-3.228,0,0,0,68,false,stim,false,0,353.2000000476837,0,0,2,80221,task1,905610,false,false,874,image-keyboard-response,34
true,6,0,1,0,true,q,false,true,0.0-2.0-0.25-0.229-3.229,0,0,0,81,false,stim,false,2,388.0,0,0,0,80221,task1,907526,false,false,877,image-keyboard-response,35
true,6,0,1,0,true,q,false,true,0.0-2.0-0.25-0.230-3.230,0,0,0,81,false,stim,false,2,342.2999999523163,0,0,0,80221,task1,909391,false,false,880,image-keyboard-response,36
true,6,0,1,0,true,q,false,true,0.0-2.0-0.25-0.231-3.231,0,0,0,81,false,stim,false,2,545.6999999880791,0,0,1,80221,task1,911461,false,false,883,image-keyboard-response,37
true,6,2,1,2,true,d,false,true,0.0-2.0-0.25-0.232-3.232,0,0,0,68,false,stim,false,0,520.6999999880791,0,0,2,80221,task1,913517,false,false,886,image-keyboard-response,38
true,6,0,1,0,true,q,false,true,0.0-2.0-0.25-0.233-3.233,0,0,0,81,false,stim,false,2,641.0999999642372,0,0,1,80221,task1,915677,false,false,889,image-keyboard-response,39
true,7,2,2,0,false,q,false,false,0.0-2.0-0.26-0.234-3.234,0,0,0,68,true,stim,true,2,453.4000000357628,0,0,2,80221,task1,917650,false,false,892,image-keyboard-response,1
true,7,0,2,2,false,d,false,false,0.0-2.0-0.26-0.235-3.235,0,0,0,81,false,stim,true,0,433.19999998807907,0,0,1,80221,task1,919603,false,false,895,image-keyboard-response,2
true,7,0,2,2,false,d,false,false,0.0-2.0-0.26-0.236-3.236,0,0,0,81,false,stim,true,0,552.0999999642372,0,0,0,80221,task1,921673,false,false,898,image-keyboard-response,3
true,7,0,2,2,false,d,false,false,0.0-2.0-0.26-0.237-3.237,0,0,0,81,false,stim,true,0,388.60000002384186,0,0,0,80221,task1,923595,false,false,901,image-keyboard-response,4
true,7,0,2,2,false,d,false,false,0.0-2.0-0.26-0.238-3.238,0,0,0,81,false,stim,true,0,424.2999999523163,0,0,1,80221,task1,925544,false,false,904,image-keyboard-response,5
true,7,2,2,0,false,q,false,false,0.0-2.0-0.26-0.239-3.239,0,0,0,68,false,stim,true,2,523.3000000119209,0,0,2,80221,task1,927591,false,false,907,image-keyboard-response,6
true,7,0,2,2,false,d,false,false,0.0-2.0-0.26-0.240-3.240,0,0,0,81,false,stim,true,0,538.1999999880791,0,0,1,80221,task1,929658,false,false,910,image-keyboard-response,7
true,7,0,2,2,false,d,false,true,0.0-2.0-0.26-0.241-3.241,0,0,0,81,false,stim,true,0,543.7000000476837,0,0,0,80221,task1,931727,false,true,913,image-keyboard-response,8
true,7,2,2,0,false,q,false,false,0.0-2.0-0.26-0.242-3.242,0,0,0,68,false,stim,true,2,494.19999998807907,0,0,2,80221,task1,933743,false,false,916,image-keyboard-response,9
true,7,0,2,2,false,d,false,false,0.0-2.0-0.27-0.243-3.243,0,0,0,81,false,stim,true,0,446.19999998807907,0,0,1,80221,task1,935708,false,false,919,image-keyboard-response,10
true,7,0,2,2,false,d,false,false,0.0-2.0-0.27-0.244-3.244,0,0,0,81,false,stim,true,0,349.5999999642372,0,0,0,80221,task1,937584,false,false,922,image-keyboard-response,11
true,7,0,2,2,false,d,false,false,0.0-2.0-0.27-0.245-3.245,0,0,0,81,false,stim,true,0,344.5,0,0,0,80221,task1,939447,false,false,925,image-keyboard-response,12
true,7,2,2,0,false,q,false,false,0.0-2.0-0.27-0.246-3.246,0,0,0,68,false,stim,true,2,381.0,0,0,2,80221,task1,941362,false,false,928,image-keyboard-response,13
true,7,2,2,0,false,q,false,false,0.0-2.0-0.27-0.247-3.247,0,0,0,68,false,stim,true,2,359.19999998807907,0,0,2,80221,task1,943239,false,false,931,image-keyboard-response,14
true,7,0,2,2,false,d,false,false,0.0-2.0-0.27-0.248-3.248,0,0,0,81,false,stim,true,0,494.30000001192093,0,0,1,80221,task1,945254,false,false,934,image-keyboard-response,15
true,7,0,2,2,false,d,false,false,0.0-2.0-0.27-0.249-3.249,0,0,0,81,false,stim,true,0,446.30000001192093,0,0,0,80221,task1,947225,false,false,937,image-keyboard-response,16
true,7,0,2,2,false,d,false,false,0.0-2.0-0.27-0.250-3.250,0,0,0,81,false,stim,true,0,480.89999997615814,0,0,1,80221,task1,949234,false,false,940,image-keyboard-response,17
true,7,2,2,0,false,q,false,false,0.0-2.0-0.27-0.251-3.251,0,0,0,68,false,stim,true,2,640.0,0,0,2,80221,task1,951400,false,false,943,image-keyboard-response,18
true,7,1,2,0,false,q,true,false,0.0-2.0-0.28-0.252-3.252,0,0,0,90,false,stim,false,2,455.0,0,0,2,80221,task1,953375,false,false,946,image-keyboard-response,19
true,7,0,2,2,false,d,false,false,0.0-2.0-0.28-0.253-3.253,0,0,0,81,false,stim,true,0,471.89999997615814,0,0,1,80221,task1,955360,false,false,949,image-keyboard-response,20
true,7,0,2,2,false,d,false,false,0.0-2.0-0.28-0.254-3.254,0,0,0,81,false,stim,true,0,500.4000000357628,0,0,0,80221,task1,957391,false,false,952,image-keyboard-response,21
true,7,0,2,0,true,q,false,false,0.0-2.0-0.28-0.255-3.255,0,0,0,81,false,stim,false,2,757.0999999642372,0,0,2,80221,task1,959667,false,true,955,image-keyboard-response,22
true,7,0,2,2,false,d,false,false,0.0-2.0-0.28-0.256-3.256,0,0,0,81,false,stim,true,0,530.8999999761581,0,0,0,80221,task1,961728,false,false,958,image-keyboard-response,23
true,7,0,2,2,false,d,false,false,0.0-2.0-0.28-0.257-3.257,0,0,0,81,false,stim,true,0,485.69999998807907,0,0,1,80221,task1,963741,false,false,961,image-keyboard-response,24
true,7,0,2,2,false,d,false,false,0.0-2.0-0.28-0.258-3.258,0,0,0,81,false,stim,true,0,547.1999999880791,0,0,1,80221,task1,965807,false,false,964,image-keyboard-response,25
true,7,1,2,2,false,d,true,false,0.0-2.0-0.28-0.259-3.259,0,0,0,90,false,stim,false,0,558.6999999880791,0,0,0,80221,task1,967892,false,false,967,image-keyboard-response,26
true,7,2,2,0,false,q,false,false,0.0-2.0-0.28-0.260-3.260,0,0,0,68,false,stim,true,2,638.0,0,0,2,80221,task1,970052,false,false,970,image-keyboard-response,27
true,7,0,2,2,false,d,false,false,0.0-2.0-0.29-0.261-3.261,0,0,0,81,false,stim,true,0,480.9000000357628,0,0,1,80221,task1,972060,false,false,973,image-keyboard-response,28
true,7,2,2,2,true,d,false,true,0.0-2.0-0.29-0.262-3.262,0,0,0,68,false,stim,false,0,399.0,0,0,1,80221,task1,973988,false,false,976,image-keyboard-response,29
true,7,1,2,2,false,d,true,true,0.0-2.0-0.29-0.263-3.263,0,0,0,90,false,stim,false,0,1116.5,0,0,0,80221,task1,976630,false,true,979,image-keyboard-response,30
true,7,1,2,2,false,d,true,false,0.0-2.0-0.29-0.264-3.264,0,0,0,90,false,stim,false,0,597.5,0,0,0,80221,task1,978757,false,false,982,image-keyboard-response,31
true,7,2,2,0,false,q,false,false,0.0-2.0-0.29-0.265-3.265,0,0,0,68,false,stim,true,2,848.3000000119209,0,0,2,80221,task1,981135,false,false,985,image-keyboard-response,32
true,7,0,2,0,true,q,false,true,0.0-2.0-0.29-0.266-3.266,0,0,0,81,false,stim,false,2,1721.300000011921,0,0,2,80221,task1,984387,false,false,988,image-keyboard-response,33
true,7,0,2,0,true,q,false,false,0.0-2.0-0.29-0.267-3.267,0,0,0,81,false,stim,false,2,628.6000000238419,0,0,2,80221,task1,986540,false,true,991,image-keyboard-response,34
true,7,1,2,2,false,d,true,false,0.0-2.0-0.29-0.268-3.268,0,0,0,90,false,stim,false,0,870.3999999761581,0,0,0,80221,task1,988938,false,false,994,image-keyboard-response,35
true,7,0,2,2,false,d,false,false,0.0-2.0-0.29-0.269-3.269,0,0,0,81,false,stim,true,0,523.1999999880791,0,0,1,80221,task1,990983,false,false,997,image-keyboard-response,36
true,7,0,2,0,true,q,false,true,0.0-2.0-0.30-0.270-3.270,0,0,0,81,false,stim,false,2,1669.3999999761581,0,0,2,80221,task1,994173,false,false,1000,image-keyboard-response,37
true,7,0,2,2,false,d,false,false,0.0-2.0-0.30-0.271-3.271,0,0,0,81,false,stim,true,0,1863.300000011921,0,0,0,80221,task1,997574,false,false,1003,image-keyboard-response,38
true,7,1,2,2,false,d,true,false,0.0-2.0-0.30-0.272-3.272,0,0,0,90,false,stim,false,0,865.0,0,0,0,80221,task1,999963,false,false,1006,image-keyboard-response,39
true,7,1,2,2,false,d,true,false,0.0-2.0-0.30-0.273-3.273,0,0,0,90,false,stim,false,0,472.2999999523163,0,0,0,80221,task1,1001967,false,false,1009,image-keyboard-response,40
true,7,2,2,2,true,d,false,true,0.0-2.0-0.30-0.274-3.274,0,0,0,68,false,stim,false,0,1173.800000011921,0,0,1,80221,task1,1004669,false,false,1012,image-keyboard-response,41
true,7,2,2,2,true,d,false,true,0.0-2.0-0.30-0.275-3.275,0,0,0,68,false,stim,false,0,480.30000001192093,0,0,1,80221,task1,1006670,false,false,1015,image-keyboard-response,42
true,8,2,2,0,false,q,false,false,0.0-2.0-0.30-0.276-3.276,0,0,0,68,true,stim,true,2,353.80000001192093,0,0,1,80221,task1,1008543,false,false,1018,image-keyboard-response,1
true,8,2,2,2,true,d,false,true,0.0-2.0-0.30-0.277-3.277,0,0,0,68,false,stim,false,0,1122.5,0,0,2,80221,task1,1011194,false,false,1021,image-keyboard-response,2
true,8,2,2,2,true,d,false,true,0.0-2.0-0.30-0.278-3.278,0,0,0,68,false,stim,false,0,563.8000000119209,0,0,2,80221,task1,1013284,false,false,1024,image-keyboard-response,3
true,8,0,2,2,false,d,false,false,0.0-2.0-0.31-0.279-3.279,0,0,0,81,false,stim,true,0,578.0,0,0,2,80221,task1,1015382,false,false,1027,image-keyboard-response,4
true,8,0,2,0,true,q,false,true,0.0-2.0-0.31-0.280-3.280,0,0,0,81,false,stim,false,2,1638.699999988079,0,0,1,80221,task1,1018549,false,false,1030,image-keyboard-response,5
true,8,0,2,0,true,q,false,true,0.0-2.0-0.31-0.281-3.281,0,0,0,81,false,stim,false,2,407.5,0,0,1,80221,task1,1020473,false,false,1033,image-keyboard-response,6
true,8,2,2,2,true,d,false,true,0.0-2.0-0.31-0.282-3.282,0,0,0,68,false,stim,false,0,2009.699999988079,0,0,2,80221,task1,1024014,false,false,1036,image-keyboard-response,7
true,8,1,2,1,true,z,false,true,0.0-2.0-0.31-0.283-3.283,0,0,0,90,false,stim,false,2,740.8000000119209,0,0,0,80221,task1,1026274,false,false,1039,image-keyboard-response,8
true,8,1,2,1,true,z,false,true,0.0-2.0-0.31-0.284-3.284,0,0,0,90,false,stim,false,2,870.2999999523163,0,0,0,80221,task1,1028673,false,false,1042,image-keyboard-response,9
true,8,0,2,1,false,z,true,false,0.0-2.0-0.31-0.285-3.285,0,0,0,81,false,stim,false,2,480.89999997615814,0,0,0,80221,task1,1030675,false,false,1045,image-keyboard-response,10
true,8,2,2,2,true,d,false,true,0.0-2.0-0.31-0.286-3.286,0,0,0,68,false,stim,false,0,2208.899999976158,0,0,2,80221,task1,1034406,false,false,1048,image-keyboard-response,11
true,8,0,2,0,true,q,false,true,0.0-2.0-0.31-0.287-3.287,0,0,0,81,false,stim,false,2,649.8000000119209,0,0,1,80221,task1,1036588,false,false,1051,image-keyboard-response,12
true,8,0,2,1,false,z,true,false,0.0-2.0-0.32-0.288-3.288,0,0,0,81,false,stim,false,2,1014.1000000238419,0,0,0,80221,task1,1039124,false,false,1054,image-keyboard-response,13
true,8,2,2,2,true,d,false,false,0.0-2.0-0.32-0.289-3.289,0,0,0,68,false,stim,false,0,673.6999999880791,0,0,2,80221,task1,1041326,false,true,1057,image-keyboard-response,14
true,8,2,2,2,true,d,false,true,0.0-2.0-0.32-0.290-3.290,0,0,0,68,false,stim,false,0,539.3000000119209,0,0,2,80221,task1,1043394,false,false,1060,image-keyboard-response,15
true,8,1,2,1,true,z,false,true,0.0-2.0-0.32-0.291-3.291,0,0,0,90,false,stim,false,2,928.0,0,0,0,80221,task1,1045847,false,false,1063,image-keyboard-response,16
true,8,0,2,0,true,q,false,true,0.0-2.0-0.32-0.292-3.292,0,0,0,81,false,stim,false,2,771.5,0,0,1,80221,task1,1048142,false,false,1066,image-keyboard-response,17
true,8,1,2,1,true,z,false,true,0.0-2.0-0.32-0.293-3.293,0,0,0,90,false,stim,false,2,705.5,0,0,0,80221,task1,1050377,false,false,1069,image-keyboard-response,18
true,8,2,2,2,true,d,false,true,0.0-2.0-0.32-0.294-3.294,0,0,0,68,false,stim,false,0,612.8000000119209,0,0,2,80221,task1,1052513,false,false,1072,image-keyboard-response,19
true,8,0,2,0,true,q,false,true,0.0-2.0-0.32-0.295-3.295,0,0,0,81,false,stim,false,2,606.3999999761581,0,0,1,80221,task1,1054652,false,false,1075,image-keyboard-response,20
true,8,0,2,0,true,q,false,true,0.0-2.0-0.32-0.296-3.296,0,0,0,81,false,stim,false,2,479.0999999642372,0,0,1,80221,task1,1056652,false,false,1078,image-keyboard-response,21
true,8,0,2,0,true,q,false,true,0.0-2.0-0.33-0.297-3.297,0,0,0,81,false,stim,false,2,392.9000000357628,0,0,1,80221,task1,1058563,false,false,1081,image-keyboard-response,22
true,8,2,2,2,true,d,false,true,0.0-2.0-0.33-0.298-3.298,0,0,0,68,false,stim,false,0,1290.5,0,0,2,80221,task1,1061371,false,false,1084,image-keyboard-response,23
true,8,0,2,0,true,q,false,false,0.0-2.0-0.33-0.299-3.299,0,0,0,81,false,stim,false,2,665.5999999642372,0,0,1,80221,task1,1063565,false,true,1087,image-keyboard-response,24
true,8,1,2,1,true,z,false,true,0.0-2.0-0.33-0.300-3.300,0,0,0,90,false,stim,false,2,563.2000000476837,0,0,0,80221,task1,1065660,false,false,1090,image-keyboard-response,25
true,8,1,2,1,true,z,false,true,0.0-2.0-0.33-0.301-3.301,0,0,0,90,false,stim,false,2,446.69999998807907,0,0,0,80221,task1,1067635,false,false,1093,image-keyboard-response,26
true,8,2,2,2,true,d,false,true,0.0-2.0-0.33-0.302-3.302,0,0,0,68,false,stim,false,0,595.1000000238419,0,0,2,80221,task1,1069761,false,false,1096,image-keyboard-response,27
true,8,0,2,0,true,q,false,true,0.0-2.0-0.33-0.303-3.303,0,0,0,81,false,stim,false,2,545.2999999523163,0,0,1,80221,task1,1071830,false,false,1099,image-keyboard-response,28
true,8,1,2,1,true,z,false,true,0.0-2.0-0.33-0.304-3.304,0,0,0,90,false,stim,false,2,504.69999998807907,0,0,0,80221,task1,1073863,false,false,1102,image-keyboard-response,29
true,8,2,2,2,true,d,false,true,0.0-2.0-0.33-0.305-3.305,0,0,0,68,false,stim,false,0,555.1999999880791,0,0,2,80221,task1,1075936,false,false,1105,image-keyboard-response,30
true,8,1,2,1,true,z,false,true,0.0-2.0-0.34-0.306-3.306,0,0,0,90,false,stim,false,2,540.5999999642372,0,0,0,80221,task1,1078002,false,false,1108,image-keyboard-response,31
true,8,0,2,0,true,q,false,true,0.0-2.0-0.34-0.307-3.307,0,0,0,81,false,stim,false,2,658.4000000357628,0,0,1,80221,task1,1080187,false,false,1111,image-keyboard-response,32
true,8,2,2,2,true,d,false,false,0.0-2.0-0.34-0.308-3.308,0,0,0,68,false,stim,false,0,1180.5,0,0,2,80221,task1,1082890,false,true,1114,image-keyboard-response,33
true,8,1,2,1,true,z,false,true,0.0-2.0-0.34-0.309-3.309,0,0,0,90,false,stim,false,2,603.0,0,0,0,80221,task1,1085014,false,false,1117,image-keyboard-response,34
true,8,2,2,2,true,d,false,true,0.0-2.0-0.34-0.310-3.310,0,0,0,68,false,stim,false,0,889.8999999761581,0,0,2,80221,task1,1087423,false,false,1120,image-keyboard-response,35
true,8,0,2,0,true,q,false,true,0.0-2.0-0.34-0.311-3.311,0,0,0,81,false,stim,false,2,453.5,0,0,1,80221,task1,1089400,false,false,1123,image-keyboard-response,36
true,8,0,2,0,true,q,false,true,0.0-2.0-0.34-0.312-3.312,0,0,0,81,false,stim,false,2,389.4000000357628,0,0,1,80221,task1,1091311,false,false,1126,image-keyboard-response,37
true,8,1,2,1,true,z,false,true,0.0-2.0-0.34-0.313-3.313,0,0,0,90,false,stim,false,2,585.3999999761581,0,0,0,80221,task1,1093421,false,false,1129,image-keyboard-response,38
true,8,2,2,2,true,d,false,true,0.0-2.0-0.34-0.314-3.314,0,0,0,68,false,stim,false,0,884.9000000357628,0,0,2,80221,task1,1095836,false,false,1132,image-keyboard-response,39
true,8,1,2,1,true,z,false,true,0.0-2.0-0.35-0.315-3.315,0,0,0,90,false,stim,false,2,1049.5999999642372,0,0,0,80221,task1,1098412,false,false,1135,image-keyboard-response,40
true,9,2,2,0,false,q,false,false,0.0-2.0-0.35-0.316-3.316,0,0,0,68,true,stim,true,2,494.0,0,0,2,80221,task1,1100428,false,false,1138,image-keyboard-response,1
true,9,2,2,2,true,d,false,true,0.0-2.0-0.35-0.317-3.317,0,0,0,68,false,stim,false,1,382.69999998807907,0,0,0,80221,task1,1102338,false,false,1141,image-keyboard-response,2
true,9,2,2,0,false,q,false,false,0.0-2.0-0.35-0.318-3.318,0,0,0,68,false,stim,true,2,555.3000000119209,0,0,2,80221,task1,1104423,false,false,1144,image-keyboard-response,3
true,9,0,2,2,false,d,false,false,0.0-2.0-0.35-0.319-3.319,0,0,0,81,false,stim,true,0,517.0999999642372,0,0,1,80221,task1,1106472,false,false,1147,image-keyboard-response,4
true,9,2,2,0,false,q,false,false,0.0-2.0-0.35-0.320-3.320,0,0,0,68,false,stim,true,2,684.3999999761581,0,0,2,80221,task1,1108673,false,false,1150,image-keyboard-response,5
true,9,0,2,2,false,d,false,false,0.0-2.0-0.35-0.321-3.321,0,0,0,81,false,stim,true,0,617.1999999880791,0,0,1,80221,task1,1110809,false,false,1153,image-keyboard-response,6
true,9,0,2,2,false,d,false,false,0.0-2.0-0.35-0.322-3.322,0,0,0,81,false,stim,true,0,347.7000000476837,0,0,1,80221,task1,1112675,false,false,1156,image-keyboard-response,7
true,9,1,2,2,false,d,false,false,0.0-2.0-0.35-0.323-3.323,0,0,0,90,false,stim,true,1,501.80000001192093,0,0,0,80221,task1,1114696,false,false,1159,image-keyboard-response,8
true,9,0,2,2,false,d,false,false,0.0-2.0-0.36-0.324-3.324,0,0,0,81,false,stim,true,0,366.0999999642372,0,0,1,80221,task1,1116583,false,false,1162,image-keyboard-response,9
true,9,0,2,2,false,d,false,false,0.0-2.0-0.36-0.325-3.325,0,0,0,81,false,stim,true,0,414.0,0,0,1,80221,task1,1118533,false,false,1165,image-keyboard-response,10
true,9,2,2,2,true,d,false,true,0.0-2.0-0.36-0.326-3.326,0,0,0,68,false,stim,false,1,479.2000000476837,0,0,0,80221,task1,1120543,false,false,1168,image-keyboard-response,11
true,9,0,2,2,false,d,false,false,0.0-2.0-0.36-0.327-3.327,0,0,0,81,false,stim,true,0,561.6999999880791,0,0,1,80221,task1,1122634,false,false,1171,image-keyboard-response,12
true,9,1,2,0,false,q,true,false,0.0-2.0-0.36-0.328-3.328,0,0,0,90,false,stim,false,2,763.6999999880791,0,0,2,80221,task1,1124923,false,false,1174,image-keyboard-response,13
true,9,1,2,2,false,d,false,false,0.0-2.0-0.36-0.329-3.329,0,0,0,90,false,stim,true,1,702.1999999880791,0,0,0,80221,task1,1127150,false,false,1177,image-keyboard-response,14
true,9,2,2,0,false,q,false,false,0.0-2.0-0.36-0.330-3.330,0,0,0,68,false,stim,true,2,628.5,0,0,2,80221,task1,1129302,false,false,1180,image-keyboard-response,15
true,9,0,2,0,true,q,false,true,0.0-2.0-0.36-0.331-3.331,0,0,0,81,false,stim,false,2,360.80000001192093,0,0,2,80221,task1,1131194,false,false,1183,image-keyboard-response,16
true,9,2,2,2,true,d,false,true,0.0-2.0-0.36-0.332-3.332,0,0,0,68,false,stim,false,1,1164.1000000238419,0,0,0,80221,task1,1133891,false,false,1186,image-keyboard-response,17
true,9,2,2,2,true,d,false,true,0.0-2.0-0.37-0.333-3.333,0,0,0,68,false,stim,false,1,675.6000000238419,0,0,0,80221,task1,1136092,false,false,1189,image-keyboard-response,18
true,9,2,2,2,true,d,false,true,0.0-2.0-0.37-0.334-3.334,0,0,0,68,false,stim,false,1,748.7999999523163,0,0,0,80221,task1,1138372,false,false,1192,image-keyboard-response,19
true,9,1,2,2,false,d,true,false,0.0-2.0-0.37-0.335-3.335,0,0,0,90,false,stim,false,0,891.8000000119209,0,0,1,80221,task1,1140780,false,false,1195,image-keyboard-response,20
true,9,1,2,2,false,d,false,false,0.0-2.0-0.37-0.336-3.336,0,0,0,90,false,stim,true,1,1168.3999999761581,0,0,0,80221,task1,1143476,false,false,1198,image-keyboard-response,21
true,9,0,2,2,false,d,false,false,0.0-2.0-0.37-0.337-3.337,0,0,0,81,false,stim,true,0,1149.0999999642372,0,0,1,80221,task1,1146164,false,false,1201,image-keyboard-response,22
true,9,1,2,2,false,d,true,false,0.0-2.0-0.37-0.338-3.338,0,0,0,90,false,stim,false,0,512.5999999642372,0,0,1,80221,task1,1148194,false,false,1204,image-keyboard-response,23
true,9,2,2,0,false,q,false,false,0.0-2.0-0.37-0.339-3.339,0,0,0,68,false,stim,true,2,1173.5,0,0,2,80221,task1,1150888,false,false,1207,image-keyboard-response,24
true,9,2,2,0,false,q,false,false,0.0-2.0-0.37-0.340-3.340,0,0,0,68,false,stim,true,2,798.5,0,0,2,80221,task1,1153215,false,false,1210,image-keyboard-response,25
true,9,2,2,0,false,q,false,false,0.0-2.0-0.37-0.341-3.341,0,0,0,68,false,stim,true,2,496.60000002384186,0,0,2,80221,task1,1155241,false,false,1213,image-keyboard-response,26
true,9,2,2,0,false,q,false,false,0.0-2.0-0.38-0.342-3.342,0,0,0,68,false,stim,true,2,476.30000001192093,0,0,2,80221,task1,1157236,false,false,1216,image-keyboard-response,27
true,9,1,2,2,false,d,false,false,0.0-2.0-0.38-0.343-3.343,0,0,0,90,false,stim,true,1,644.3999999761581,0,0,0,80221,task1,1159407,false,false,1219,image-keyboard-response,28
true,9,1,2,2,false,d,false,false,0.0-2.0-0.38-0.344-3.344,0,0,0,90,false,stim,true,1,592.8999999761581,0,0,0,80221,task1,1161528,false,false,1222,image-keyboard-response,29
true,9,0,2,2,false,d,false,true,0.0-2.0-0.38-0.345-3.345,0,0,0,81,false,stim,true,0,505.0,0,0,1,80221,task1,1163562,false,true,1225,image-keyboard-response,30
true,9,1,2,2,false,d,false,false,0.0-2.0-0.38-0.346-3.346,0,0,0,90,false,stim,true,1,727.0,0,0,0,80221,task1,1165821,false,false,1228,image-keyboard-response,31
true,9,0,2,2,false,d,false,false,0.0-2.0-0.38-0.347-3.347,0,0,0,81,false,stim,true,0,597.0,0,0,1,80221,task1,1167942,false,false,1231,image-keyboard-response,32
true,9,0,2,0,true,q,false,true,0.0-2.0-0.38-0.348-3.348,0,0,0,81,false,stim,false,2,1106.0,0,0,2,80221,task1,1170569,false,false,1234,image-keyboard-response,33
true,9,1,2,2,false,d,true,false,0.0-2.0-0.38-0.349-3.349,0,0,0,90,false,stim,false,0,647.1999999880791,0,0,1,80221,task1,1172735,false,false,1237,image-keyboard-response,34
true,9,1,2,0,false,q,true,false,0.0-2.0-0.38-0.350-3.350,0,0,0,90,false,stim,false,2,487.80000001192093,0,0,2,80221,task1,1174754,false,false,1240,image-keyboard-response,35
true,9,2,2,2,true,d,false,true,0.0-2.0-0.39-0.351-3.351,0,0,0,68,false,stim,false,0,1123.5,0,0,1,80221,task1,1177398,false,false,1243,image-keyboard-response,36
true,9,0,2,0,true,q,false,true,0.0-2.0-0.39-0.352-3.352,0,0,0,81,false,stim,false,2,467.10000002384186,0,0,2,80221,task1,1179388,false,false,1246,image-keyboard-response,37
true,9,0,2,0,true,q,false,true,0.0-2.0-0.39-0.353-3.353,0,0,0,81,false,stim,false,2,549.1000000238419,0,0,2,80221,task1,1181458,false,false,1249,image-keyboard-response,38
true,9,2,2,2,true,d,false,true,0.0-2.0-0.39-0.354-3.354,0,0,0,68,false,stim,false,1,1112.0,0,0,0,80221,task1,1184089,false,false,1252,image-keyboard-response,39
true,9,2,2,2,true,d,false,true,0.0-2.0-0.39-0.355-3.355,0,0,0,68,false,stim,false,0,418.0999999642372,0,0,1,80221,task1,1186033,false,false,1255,image-keyboard-response,40
true,9,2,2,2,true,d,false,true,0.0-2.0-0.39-0.356-3.356,0,0,0,68,false,stim,false,0,641.7999999523163,0,0,1,80221,task1,1188197,false,false,1258,image-keyboard-response,41
true,9,0,2,0,true,q,false,true,0.0-2.0-0.39-0.357-3.357,0,0,0,81,false,stim,false,2,1079.300000011921,0,0,2,80221,task1,1190810,false,false,1261,image-keyboard-response,42
true,10,2,2,1,false,z,false,false,0.0-2.0-0.39-0.358-3.358,0,0,0,68,true,stim,true,2,1159.300000011921,0,0,0,80221,task1,1193492,false,false,1264,image-keyboard-response,1
true,10,1,2,1,true,z,false,true,0.0-2.0-0.39-0.359-3.359,0,0,0,90,false,stim,false,2,386.60000002384186,0,0,0,80221,task1,1195411,false,false,1267,image-keyboard-response,2
true,10,0,2,0,true,q,false,true,0.0-2.0-0.40-0.360-3.360,0,0,0,81,false,stim,false,2,695.5,0,0,1,80221,task1,1197629,false,false,1270,image-keyboard-response,3
true,10,0,2,0,true,q,false,true,0.0-2.0-0.40-0.361-3.361,0,0,0,81,false,stim,false,2,412.80000001192093,0,0,1,80221,task1,1199575,false,false,1273,image-keyboard-response,4
true,10,2,2,1,false,z,false,false,0.0-2.0-0.40-0.362-3.362,0,0,0,68,false,stim,true,2,669.9000000357628,0,0,0,80221,task1,1201778,false,false,1276,image-keyboard-response,5
true,10,1,2,2,false,d,true,false,0.0-2.0-0.40-0.363-3.363,0,0,0,90,false,stim,false,0,914.0,0,0,2,80221,task1,1204217,false,false,1279,image-keyboard-response,6
true,10,1,2,2,false,d,true,false,0.0-2.0-0.40-0.364-3.364,0,0,0,90,false,stim,false,0,524.0,0,0,2,80221,task1,1206269,false,false,1282,image-keyboard-response,7
true,10,2,2,0,false,q,false,false,0.0-2.0-0.40-0.365-3.365,0,0,0,68,false,stim,true,2,699.1999999880791,0,0,1,80221,task1,1208499,false,false,1285,image-keyboard-response,8
true,10,2,2,2,true,d,false,false,0.0-2.0-0.40-0.366-3.366,0,0,0,68,false,stim,false,0,560.3000000119209,0,0,2,80221,task1,1210577,false,true,1288,image-keyboard-response,9
true,10,1,2,1,true,z,false,true,0.0-2.0-0.40-0.367-3.367,0,0,0,90,false,stim,false,2,473.89999997615814,0,0,0,80221,task1,1212574,false,false,1291,image-keyboard-response,10
true,10,1,2,1,true,z,false,true,0.0-2.0-0.40-0.368-3.368,0,0,0,90,false,stim,false,2,456.0,0,0,0,80221,task1,1214559,false,false,1294,image-keyboard-response,11
true,10,0,2,0,true,q,false,true,0.0-2.0-0.41-0.369-3.369,0,0,0,81,false,stim,false,2,478.89999997615814,0,0,1,80221,task1,1216570,false,false,1297,image-keyboard-response,12
true,10,2,2,2,true,d,false,true,0.0-2.0-0.41-0.370-3.370,0,0,0,68,false,stim,false,0,603.1999999880791,0,0,2,80221,task1,1218705,false,false,1300,image-keyboard-response,13
true,10,1,2,1,true,z,false,true,0.0-2.0-0.41-0.371-3.371,0,0,0,90,false,stim,false,2,441.9000000357628,0,0,0,80221,task1,1220676,false,false,1303,image-keyboard-response,14
true,10,0,2,0,true,q,false,true,0.0-2.0-0.41-0.372-3.372,0,0,0,81,false,stim,false,2,430.0,0,0,1,80221,task1,1222636,false,false,1306,image-keyboard-response,15
true,10,2,2,2,true,d,false,true,0.0-2.0-0.41-0.373-3.373,0,0,0,68,false,stim,false,0,683.5999999642372,0,0,2,80221,task1,1224841,false,false,1309,image-keyboard-response,16
true,10,1,2,1,true,z,false,true,0.0-2.0-0.41-0.374-3.374,0,0,0,90,false,stim,false,2,667.5999999642372,0,0,0,80221,task1,1227033,false,false,1312,image-keyboard-response,17
true,10,1,2,1,true,z,false,true,0.0-2.0-0.41-0.375-3.375,0,0,0,90,false,stim,false,2,332.0,0,0,0,80221,task1,1228892,false,false,1315,image-keyboard-response,18
true,10,0,2,0,true,q,false,true,0.0-2.0-0.41-0.376-3.376,0,0,0,81,false,stim,false,2,415.19999998807907,0,0,1,80221,task1,1230828,false,false,1318,image-keyboard-response,19
true,10,2,2,2,true,d,false,true,0.0-2.0-0.41-0.377-3.377,0,0,0,68,false,stim,false,0,444.69999998807907,0,0,2,80221,task1,1232804,false,false,1321,image-keyboard-response,20
true,10,2,2,2,true,d,false,true,0.0-2.0-0.42-0.378-3.378,0,0,0,68,false,stim,false,0,415.5,0,0,2,80221,task1,1234749,false,false,1324,image-keyboard-response,21
true,10,0,2,0,true,q,false,true,0.0-2.0-0.42-0.379-3.379,0,0,0,81,false,stim,false,2,1000.6000000238419,0,0,1,80221,task1,1237269,false,false,1327,image-keyboard-response,22
true,10,1,2,1,true,z,false,false,0.0-2.0-0.42-0.380-3.380,0,0,0,90,false,stim,false,2,323.39999997615814,0,0,0,80221,task1,1239123,false,true,1330,image-keyboard-response,23
true,10,2,2,1,false,z,false,false,0.0-2.0-0.42-0.381-3.381,0,0,0,68,false,stim,true,2,379.5,0,0,0,80221,task1,1241025,false,false,1333,image-keyboard-response,24
true,10,2,2,2,true,d,false,true,0.0-2.0-0.42-0.382-3.382,0,0,0,68,false,stim,false,0,647.6999999880791,0,0,2,80221,task1,1243203,false,false,1336,image-keyboard-response,25
true,10,0,2,0,true,q,false,true,0.0-2.0-0.42-0.383-3.383,0,0,0,81,false,stim,false,2,609.9000000357628,0,0,1,80221,task1,1245339,false,false,1339,image-keyboard-response,26
true,10,2,2,2,true,d,false,true,0.0-2.0-0.42-0.384-3.384,0,0,0,68,false,stim,false,0,535.1000000238419,0,0,2,80221,task1,1247396,false,false,1342,image-keyboard-response,27
true,10,0,2,0,true,q,false,true,0.0-2.0-0.42-0.385-3.385,0,0,0,81,false,stim,false,2,556.0,0,0,1,80221,task1,1249476,false,false,1345,image-keyboard-response,28
true,10,1,2,1,true,z,false,true,0.0-2.0-0.42-0.386-3.386,0,0,0,90,false,stim,false,2,351.39999997615814,0,0,0,80221,task1,1251351,false,false,1348,image-keyboard-response,29
true,10,1,2,1,true,z,false,true,0.0-2.0-0.43-0.387-3.387,0,0,0,90,false,stim,false,2,376.80000001192093,0,0,0,80221,task1,1253257,false,false,1351,image-keyboard-response,30
true,10,1,2,1,true,z,false,true,0.0-2.0-0.43-0.388-3.388,0,0,0,90,false,stim,false,2,369.5,0,0,0,80221,task1,1255143,false,false,1354,image-keyboard-response,31
true,10,0,2,0,true,q,false,true,0.0-2.0-0.43-0.389-3.389,0,0,0,81,false,stim,false,2,1056.300000011921,0,0,1,80221,task1,1257723,false,false,1357,image-keyboard-response,32
true,10,1,2,1,true,z,false,true,0.0-2.0-0.43-0.390-3.390,0,0,0,90,false,stim,false,2,723.8000000119209,0,0,0,80221,task1,1259966,false,false,1360,image-keyboard-response,33
true,10,0,2,0,true,q,false,true,0.0-2.0-0.43-0.391-3.391,0,0,0,81,false,stim,false,2,1689.699999988079,0,0,1,80221,task1,1263182,false,false,1363,image-keyboard-response,34
true,10,0,2,0,true,q,false,true,0.0-2.0-0.43-0.392-3.392,0,0,0,81,false,stim,false,2,379.30000001192093,0,0,1,80221,task1,1265082,false,false,1366,image-keyboard-response,35
true,10,2,2,2,true,d,false,true,0.0-2.0-0.43-0.393-3.393,0,0,0,68,false,stim,false,0,447.80000001192093,0,0,2,80221,task1,1267056,false,false,1369,image-keyboard-response,36
true,10,2,2,2,true,d,false,true,0.0-2.0-0.43-0.394-3.394,0,0,0,68,false,stim,false,0,375.5999999642372,0,0,2,80221,task1,1268960,false,false,1372,image-keyboard-response,37
true,10,2,2,2,true,d,false,true,0.0-2.0-0.43-0.395-3.395,0,0,0,68,false,stim,false,0,347.80000001192093,0,0,2,80221,task1,1270829,false,false,1375,image-keyboard-response,38
true,10,2,2,2,true,d,false,true,0.0-2.0-0.44-0.396-3.396,0,0,0,68,false,stim,false,0,360.5,0,0,2,80221,task1,1272710,false,false,1378,image-keyboard-response,39
true,10,1,2,1,true,z,false,true,0.0-2.0-0.44-0.397-3.397,0,0,0,90,false,stim,false,2,423.39999997615814,0,0,0,80221,task1,1274656,false,false,1381,image-keyboard-response,40
true,10,2,2,2,true,d,false,true,0.0-2.0-0.44-0.398-3.398,0,0,0,68,false,stim,false,0,557.3000000119209,0,0,2,80221,task1,1276736,false,false,1384,image-keyboard-response,41
true,10,0,2,0,true,q,false,true,0.0-2.0-0.44-0.399-3.399,0,0,0,81,false,stim,false,2,647.8999999761581,0,0,1,80221,task1,1278907,false,false,1387,image-keyboard-response,42
true,10,0,2,0,true,q,false,true,0.0-2.0-0.44-0.400-3.400,0,0,0,81,false,stim,false,2,381.4000000357628,0,0,1,80221,task1,1280819,false,false,1390,image-keyboard-response,43
true,10,2,2,2,true,d,false,true,0.0-2.0-0.44-0.401-3.401,0,0,0,68,false,stim,false,0,412.10000002384186,0,0,2,80221,task1,1282763,false,false,1393,image-keyboard-response,44
true,10,1,2,1,true,z,false,true,0.0-2.0-0.44-0.402-3.402,0,0,0,90,false,stim,false,2,391.0,0,0,0,80221,task1,1284688,false,false,1396,image-keyboard-response,45
true,11,1,1,0,false,q,false,true,0.0-2.0-0.44-0.403-3.403,0,0,0,90,true,stim,true,1,349.7000000476837,0,0,0,80221,task1,1286570,false,true,1399,image-keyboard-response,1
true,11,0,1,1,false,z,false,false,0.0-2.0-0.44-0.404-3.404,0,0,0,81,false,stim,true,0,520.8000000119209,0,0,1,80221,task1,1288621,false,false,1402,image-keyboard-response,2
true,11,0,1,1,false,z,false,false,0.0-2.0-0.45-0.405-3.405,0,0,0,81,false,stim,true,0,368.5,0,0,1,80221,task1,1290526,false,false,1405,image-keyboard-response,3
true,11,1,1,0,false,q,false,false,0.0-2.0-0.45-0.406-3.406,0,0,0,90,false,stim,true,1,623.0999999642372,0,0,0,80221,task1,1292673,false,false,1408,image-keyboard-response,4
true,11,0,1,1,false,z,false,false,0.0-2.0-0.45-0.407-3.407,0,0,0,81,false,stim,true,0,595.6999999880791,0,0,1,80221,task1,1294801,false,false,1411,image-keyboard-response,5
true,11,2,1,0,false,q,false,false,0.0-2.0-0.45-0.408-3.408,0,0,0,68,false,stim,true,2,622.9000000357628,0,0,2,80221,task1,1296952,false,false,1414,image-keyboard-response,6
true,11,0,1,0,true,q,false,true,0.0-2.0-0.45-0.409-3.409,0,0,0,81,false,stim,false,1,594.4000000357628,0,0,0,80221,task1,1299071,false,false,1417,image-keyboard-response,7
true,11,0,1,0,true,q,false,true,0.0-2.0-0.45-0.410-3.410,0,0,0,81,false,stim,false,2,894.8000000119209,0,0,2,80221,task1,1301489,false,false,1420,image-keyboard-response,8
true,11,2,1,0,false,q,true,false,0.0-2.0-0.45-0.411-3.411,0,0,0,68,false,stim,false,1,923.8999999761581,0,0,0,80221,task1,1303944,false,false,1423,image-keyboard-response,9
true,11,2,1,0,false,q,false,false,0.0-2.0-0.45-0.412-3.412,0,0,0,68,false,stim,true,2,717.5,0,0,2,80221,task1,1306193,false,false,1426,image-keyboard-response,10
true,11,0,1,1,false,z,false,false,0.0-2.0-0.45-0.413-3.413,0,0,0,81,false,stim,true,0,506.4000000357628,0,0,1,80221,task1,1308223,false,false,1429,image-keyboard-response,11
true,11,0,1,0,true,q,false,true,0.0-2.0-0.46-0.414-3.414,0,0,0,81,false,stim,false,2,866.9000000357628,0,0,2,80221,task1,1310626,false,false,1432,image-keyboard-response,12
true,11,0,1,0,true,q,false,true,0.0-2.0-0.46-0.415-3.415,0,0,0,81,false,stim,false,2,634.0,0,0,2,80221,task1,1312791,false,false,1435,image-keyboard-response,13
true,11,2,1,0,false,q,true,false,0.0-2.0-0.46-0.416-3.416,0,0,0,68,false,stim,false,1,1185.0,0,0,0,80221,task1,1315500,false,false,1438,image-keyboard-response,14
true,11,2,1,1,false,z,true,false,0.0-2.0-0.46-0.417-3.417,0,0,0,68,false,stim,false,0,498.7999999523163,0,0,1,80221,task1,1317525,false,false,1441,image-keyboard-response,15
true,11,2,1,0,false,q,true,false,0.0-2.0-0.46-0.418-3.418,0,0,0,68,false,stim,false,1,748.3000000119209,0,0,0,80221,task1,1319805,false,false,1444,image-keyboard-response,16
true,11,0,1,1,false,z,false,false,0.0-2.0-0.46-0.419-3.419,0,0,0,81,false,stim,true,0,620.0999999642372,0,0,1,80221,task1,1321950,false,false,1447,image-keyboard-response,17
true,11,0,1,0,true,q,false,true,0.0-2.0-0.46-0.420-3.420,0,0,0,81,false,stim,false,2,810.0,0,0,2,80221,task1,1324288,false,false,1450,image-keyboard-response,18
true,11,1,1,1,true,z,false,false,0.0-2.0-0.46-0.421-3.421,0,0,0,90,false,stim,false,0,880.1999999880791,0,0,1,80221,task1,1326688,false,true,1453,image-keyboard-response,19
true,11,1,1,0,false,q,false,false,0.0-2.0-0.46-0.422-3.422,0,0,0,90,false,stim,true,1,838.1000000238419,0,0,0,80221,task1,1329051,false,false,1456,image-keyboard-response,20
true,11,1,1,0,false,q,false,false,0.0-2.0-0.47-0.423-3.423,0,0,0,90,false,stim,true,1,497.80000001192093,0,0,0,80221,task1,1331076,false,false,1459,image-keyboard-response,21
true,11,0,1,1,false,z,false,false,0.0-2.0-0.47-0.424-3.424,0,0,0,81,false,stim,true,0,665.0,0,0,1,80221,task1,1333266,false,false,1462,image-keyboard-response,22
true,11,0,1,0,true,q,false,true,0.0-2.0-0.47-0.425-3.425,0,0,0,81,false,stim,false,2,668.5999999642372,0,0,2,80221,task1,1335455,false,false,1465,image-keyboard-response,23
true,11,0,1,0,true,q,false,true,0.0-2.0-0.47-0.426-3.426,0,0,0,81,false,stim,false,2,381.10000002384186,0,0,2,80221,task1,1337358,false,false,1468,image-keyboard-response,24
true,11,2,1,1,false,z,true,false,0.0-2.0-0.47-0.427-3.427,0,0,0,68,false,stim,false,0,599.8000000119209,0,0,1,80221,task1,1339476,false,false,1471,image-keyboard-response,25
true,11,2,1,0,false,q,true,false,0.0-2.0-0.47-0.428-3.428,0,0,0,68,false,stim,false,1,917.9000000357628,0,0,0,80221,task1,1341924,false,false,1474,image-keyboard-response,26
true,11,0,1,0,true,q,false,true,0.0-2.0-0.47-0.429-3.429,0,0,0,81,false,stim,false,2,747.1999999880791,0,0,2,80221,task1,1344189,false,false,1477,image-keyboard-response,27
true,11,1,1,0,false,q,false,true,0.0-2.0-0.47-0.430-3.430,0,0,0,90,false,stim,true,1,956.7999999523163,0,0,0,80221,task1,1346678,false,true,1480,image-keyboard-response,28
true,11,0,1,1,false,z,false,false,0.0-2.0-0.47-0.431-3.431,0,0,0,81,false,stim,true,0,423.80000001192093,0,0,1,80221,task1,1348636,false,false,1483,image-keyboard-response,29
true,11,2,1,0,false,q,false,false,0.0-2.0-0.48-0.432-3.432,0,0,0,68,false,stim,true,2,462.89999997615814,0,0,2,80221,task1,1350614,false,false,1486,image-keyboard-response,30
true,11,1,1,0,false,q,false,false,0.0-2.0-0.48-0.433-3.433,0,0,0,90,false,stim,true,1,731.3999999761581,0,0,0,80221,task1,1352872,false,false,1489,image-keyboard-response,31
true,11,0,1,0,true,q,false,true,0.0-2.0-0.48-0.434-3.434,0,0,0,81,false,stim,false,2,589.1999999880791,0,0,2,80221,task1,1354983,false,false,1492,image-keyboard-response,32
true,11,0,1,0,true,q,false,false,0.0-2.0-0.48-0.435-3.435,0,0,0,81,false,stim,false,1,1326.0999999642372,0,0,0,80221,task1,1357840,false,true,1495,image-keyboard-response,33
true,11,0,1,1,false,z,false,false,0.0-2.0-0.48-0.436-3.436,0,0,0,81,false,stim,true,0,517.6999999880791,0,0,1,80221,task1,1359877,false,false,1498,image-keyboard-response,34
true,11,2,1,0,false,q,true,false,0.0-2.0-0.48-0.437-3.437,0,0,0,68,false,stim,false,1,1469.8999999761581,0,0,0,80221,task1,1362887,false,false,1501,image-keyboard-response,35
true,11,0,1,1,false,z,false,false,0.0-2.0-0.48-0.438-3.438,0,0,0,81,false,stim,true,0,686.9000000357628,0,0,1,80221,task1,1365097,false,false,1504,image-keyboard-response,36
true,11,0,1,1,false,z,false,false,0.0-2.0-0.48-0.439-3.439,0,0,0,81,false,stim,true,0,421.89999997615814,0,0,1,80221,task1,1367042,false,false,1507,image-keyboard-response,37
true,11,0,1,0,true,q,false,true,0.0-2.0-0.48-0.440-3.440,0,0,0,81,false,stim,false,2,645.5,0,0,2,80221,task1,1369217,false,false,1510,image-keyboard-response,38
true,11,0,1,0,true,q,false,true,0.0-2.0-0.49-0.441-3.441,0,0,0,81,false,stim,false,2,683.0999999642372,0,0,2,80221,task1,1371417,false,false,1513,image-keyboard-response,39
true,11,2,1,0,false,q,true,false,0.0-2.0-0.49-0.442-3.442,0,0,0,68,false,stim,false,1,1024.5,0,0,0,80221,task1,1373959,false,false,1516,image-keyboard-response,40
true,11,1,1,1,true,z,false,true,0.0-2.0-0.49-0.443-3.443,0,0,0,90,false,stim,false,0,801.0999999642372,0,0,1,80221,task1,1376283,false,false,1519,image-keyboard-response,41
true,11,0,1,0,true,q,false,true,0.0-2.0-0.49-0.444-3.444,0,0,0,81,false,stim,false,2,679.8999999761581,0,0,2,80221,task1,1378498,false,false,1522,image-keyboard-response,42
true,11,2,1,0,false,q,true,false,0.0-2.0-0.49-0.445-3.445,0,0,0,68,false,stim,false,1,601.0,0,0,0,80221,task1,1380625,false,false,1525,image-keyboard-response,43
true,11,1,1,1,true,z,false,true,0.0-2.0-0.49-0.446-3.446,0,0,0,90,false,stim,false,0,483.39999997615814,0,0,1,80221,task1,1382636,false,false,1528,image-keyboard-response,44
true,12,0,2,2,false,d,false,false,0.0-2.0-0.49-0.447-3.447,0,0,0,81,true,stim,true,0,603.1000000238419,0,0,2,80221,task1,1384759,false,false,1531,image-keyboard-response,1
true,12,1,2,0,false,q,false,false,0.0-2.0-0.49-0.448-3.448,0,0,0,90,false,stim,true,1,745.5,0,0,1,80221,task1,1387024,false,false,1534,image-keyboard-response,2
true,12,1,2,1,true,z,false,true,0.0-2.0-0.49-0.449-3.449,0,0,0,90,false,stim,false,0,541.8999999761581,0,0,0,80221,task1,1389089,false,false,1537,image-keyboard-response,3
true,12,1,2,1,true,z,false,true,0.0-2.0-0.50-0.450-3.450,0,0,0,90,false,stim,false,0,453.60000002384186,0,0,0,80221,task1,1391064,false,false,1540,image-keyboard-response,4
true,12,0,2,0,true,q,false,true,0.0-2.0-0.50-0.451-3.451,0,0,0,81,false,stim,false,1,708.0,0,0,1,80221,task1,1393305,false,false,1543,image-keyboard-response,5
true,12,0,2,0,true,q,false,true,0.0-2.0-0.50-0.452-3.452,0,0,0,81,false,stim,false,1,446.10000002384186,0,0,1,80221,task1,1395276,false,false,1546,image-keyboard-response,6
true,12,2,2,2,true,d,false,true,0.0-2.0-0.50-0.453-3.453,0,0,0,68,false,stim,false,0,457.9000000357628,0,0,2,80221,task1,1397261,false,false,1549,image-keyboard-response,7
true,12,2,2,2,true,d,false,true,0.0-2.0-0.50-0.454-3.454,0,0,0,68,false,stim,false,0,477.30000001192093,0,0,2,80221,task1,1399272,false,false,1552,image-keyboard-response,8
true,12,1,2,1,true,z,false,false,0.0-2.0-0.50-0.455-3.455,0,0,0,90,false,stim,false,0,599.6999999880791,0,0,0,80221,task1,1401397,false,true,1555,image-keyboard-response,9
true,12,0,2,0,true,q,false,true,0.0-2.0-0.50-0.456-3.456,0,0,0,81,false,stim,false,1,401.5,0,0,1,80221,task1,1403323,false,false,1558,image-keyboard-response,10
true,12,1,2,1,true,z,false,true,0.0-2.0-0.50-0.457-3.457,0,0,0,90,false,stim,false,0,694.0,0,0,0,80221,task1,1405543,false,false,1561,image-keyboard-response,11
true,12,2,2,2,true,d,false,true,0.0-2.0-0.50-0.458-3.458,0,0,0,68,false,stim,false,0,479.0,0,0,2,80221,task1,1407552,false,false,1564,image-keyboard-response,12
true,12,2,2,2,true,d,false,true,0.0-2.0-0.51-0.459-3.459,0,0,0,68,false,stim,false,0,378.5,0,0,2,80221,task1,1409459,false,false,1567,image-keyboard-response,13
true,12,2,2,2,true,d,false,false,0.0-2.0-0.51-0.460-3.460,0,0,0,68,false,stim,false,0,324.80000001192093,0,0,2,80221,task1,1411310,false,true,1570,image-keyboard-response,14
true,12,1,2,1,true,z,false,true,0.0-2.0-0.51-0.461-3.461,0,0,0,90,false,stim,false,0,473.0,0,0,0,80221,task1,1413306,false,false,1573,image-keyboard-response,15
true,12,0,2,0,true,q,false,true,0.0-2.0-0.51-0.462-3.462,0,0,0,81,false,stim,false,1,470.2000000476837,0,0,1,80221,task1,1415303,false,false,1576,image-keyboard-response,16
true,12,2,2,1,false,z,true,false,0.0-2.0-0.51-0.463-3.463,0,0,0,68,false,stim,false,0,385.19999998807907,0,0,0,80221,task1,1417222,false,false,1579,image-keyboard-response,17
true,12,2,2,2,true,d,false,true,0.0-2.0-0.51-0.464-3.464,0,0,0,68,false,stim,false,0,330.30000001192093,0,0,2,80221,task1,1419074,false,false,1582,image-keyboard-response,18
true,12,1,2,1,true,z,false,true,0.0-2.0-0.51-0.465-3.465,0,0,0,90,false,stim,false,0,329.7000000476837,0,0,0,80221,task1,1420924,false,false,1585,image-keyboard-response,19
true,12,0,2,0,true,q,false,true,0.0-2.0-0.51-0.466-3.466,0,0,0,81,false,stim,false,1,454.69999998807907,0,0,1,80221,task1,1422911,false,false,1588,image-keyboard-response,20
true,12,0,2,0,true,q,false,true,0.0-2.0-0.51-0.467-3.467,0,0,0,81,false,stim,false,1,419.0,0,0,1,80221,task1,1424850,false,false,1591,image-keyboard-response,21
true,12,1,2,2,false,d,true,false,0.0-2.0-0.52-0.468-3.468,0,0,0,90,false,stim,false,0,646.0,0,0,2,80221,task1,1427022,false,false,1594,image-keyboard-response,22
true,12,1,2,1,true,z,false,true,0.0-2.0-0.52-0.469-3.469,0,0,0,90,false,stim,false,0,289.9000000357628,0,0,0,80221,task1,1428833,false,false,1597,image-keyboard-response,23
true,12,2,2,2,true,d,false,true,0.0-2.0-0.52-0.470-3.470,0,0,0,68,false,stim,false,0,367.9000000357628,0,0,2,80221,task1,1430729,false,false,1600,image-keyboard-response,24
true,12,0,2,0,true,q,false,true,0.0-2.0-0.52-0.471-3.471,0,0,0,81,false,stim,false,1,659.3000000119209,0,0,1,80221,task1,1432933,false,false,1603,image-keyboard-response,25
true,12,1,2,1,true,z,false,true,0.0-2.0-0.52-0.472-3.472,0,0,0,90,false,stim,false,0,537.1999999880791,0,0,0,80221,task1,1434994,false,false,1606,image-keyboard-response,26
true,12,0,2,0,true,q,false,true,0.0-2.0-0.52-0.473-3.473,0,0,0,81,false,stim,false,1,592.3000000119209,0,0,1,80221,task1,1437119,false,false,1609,image-keyboard-response,27
true,12,0,2,0,true,q,false,true,0.0-2.0-0.52-0.474-3.474,0,0,0,81,false,stim,false,1,629.6000000238419,0,0,1,80221,task1,1439272,false,false,1612,image-keyboard-response,28
true,12,1,2,1,true,z,false,true,0.0-2.0-0.52-0.475-3.475,0,0,0,90,false,stim,false,0,441.5,0,0,0,80221,task1,1441244,false,false,1615,image-keyboard-response,29
true,12,2,2,2,true,d,false,true,0.0-2.0-0.52-0.476-3.476,0,0,0,68,false,stim,false,0,340.5999999642372,0,0,2,80221,task1,1443109,false,false,1618,image-keyboard-response,30
true,12,0,2,1,false,z,false,true,0.0-2.0-0.53-0.477-3.477,0,0,0,81,false,stim,true,0,345.5999999642372,0,0,0,80221,task1,1444976,false,true,1621,image-keyboard-response,31
true,12,1,2,1,true,z,false,false,0.0-2.0-0.53-0.478-3.478,0,0,0,90,false,stim,false,0,839.8999999761581,0,0,0,80221,task1,1447347,false,true,1624,image-keyboard-response,32
true,12,0,2,2,false,d,false,false,0.0-2.0-0.53-0.479-3.479,0,0,0,81,false,stim,true,0,655.5999999642372,0,0,2,80221,task1,1449524,false,false,1627,image-keyboard-response,33
true,12,1,2,2,false,d,true,false,0.0-2.0-0.53-0.480-3.480,0,0,0,90,false,stim,false,0,1121.2000000476837,0,0,2,80221,task1,1452172,false,false,1630,image-keyboard-response,34
true,12,0,2,0,true,q,false,true,0.0-2.0-0.53-0.481-3.481,0,0,0,81,false,stim,false,1,680.8000000119209,0,0,1,80221,task1,1454382,false,false,1633,image-keyboard-response,35
true,12,2,2,2,true,d,false,true,0.0-2.0-0.53-0.482-3.482,0,0,0,68,false,stim,false,0,788.8999999761581,0,0,2,80221,task1,1456706,false,false,1636,image-keyboard-response,36
true,12,1,2,1,true,z,false,true,0.0-2.0-0.53-0.483-3.483,0,0,0,90,false,stim,false,0,336.5,0,0,0,80221,task1,1458574,false,false,1639,image-keyboard-response,37
true,12,0,2,0,true,q,false,true,0.0-2.0-0.53-0.484-3.484,0,0,0,81,false,stim,false,1,504.89999997615814,0,0,1,80221,task1,1460609,false,false,1642,image-keyboard-response,38
true,12,0,2,0,true,q,false,true,0.0-2.0-0.53-0.485-3.485,0,0,0,81,false,stim,false,1,415.10000002384186,0,0,1,80221,task1,1462538,false,false,1645,image-keyboard-response,39
true,12,0,2,0,true,q,false,true,0.0-2.0-0.54-0.486-3.486,0,0,0,81,false,stim,false,1,358.0,0,0,1,80221,task1,1464425,false,false,1648,image-keyboard-response,40
true,12,2,2,2,true,d,false,true,0.0-2.0-0.54-0.487-3.487,0,0,0,68,false,stim,false,0,589.5,0,0,2,80221,task1,1466545,false,false,1651,image-keyboard-response,41
true,12,2,2,0,false,q,true,false,0.0-2.0-0.54-0.488-3.488,0,0,0,68,false,stim,false,1,380.5,0,0,1,80221,task1,1468451,false,false,1654,image-keyboard-response,42
true,12,0,2,0,true,q,false,true,0.0-2.0-0.54-0.489-3.489,0,0,0,81,false,stim,false,1,697.5,0,0,1,80221,task1,1470681,false,false,1657,image-keyboard-response,43
true,13,1,2,2,false,d,false,false,0.0-2.0-0.54-0.490-3.490,0,0,0,90,true,stim,true,1,614.3999999761581,0,0,0,80221,task1,1472825,false,false,1660,image-keyboard-response,1
true,13,1,2,2,false,d,false,false,0.0-2.0-0.54-0.491-3.491,0,0,0,90,false,stim,true,1,568.5,0,0,0,80221,task1,1474920,false,false,1663,image-keyboard-response,2
true,13,1,2,2,false,d,false,true,0.0-2.0-0.54-0.492-3.492,0,0,0,90,false,stim,true,1,492.69999998807907,0,0,0,80221,task1,1476940,false,true,1666,image-keyboard-response,3
true,13,2,2,0,false,q,false,false,0.0-2.0-0.54-0.493-3.493,0,0,0,68,false,stim,true,2,494.9000000357628,0,0,2,80221,task1,1478966,false,false,1669,image-keyboard-response,4
true,13,2,2,0,false,q,false,false,0.0-2.0-0.54-0.494-3.494,0,0,0,68,false,stim,true,2,347.5,0,0,2,80221,task1,1480839,false,false,1672,image-keyboard-response,5
true,13,2,2,0,false,q,false,true,0.0-2.0-0.55-0.495-3.495,0,0,0,68,false,stim,true,2,355.69999998807907,0,0,2,80221,task1,1482729,false,true,1675,image-keyboard-response,6
true,13,2,2,0,false,q,false,false,0.0-2.0-0.55-0.496-3.496,0,0,0,68,false,stim,true,2,466.89999997615814,0,0,2,80221,task1,1484719,false,false,1678,image-keyboard-response,7
true,13,0,2,2,false,d,false,false,0.0-2.0-0.55-0.497-3.497,0,0,0,81,false,stim,true,0,646.8000000119209,0,0,1,80221,task1,1486889,false,false,1681,image-keyboard-response,8
true,13,2,2,0,false,q,false,false,0.0-2.0-0.55-0.498-3.498,0,0,0,68,false,stim,true,2,537.6999999880791,0,0,2,80221,task1,1488959,false,false,1684,image-keyboard-response,9
true,13,1,2,2,false,d,false,false,0.0-2.0-0.55-0.499-3.499,0,0,0,90,false,stim,true,1,569.6999999880791,0,0,0,80221,task1,1491061,false,false,1687,image-keyboard-response,10
true,13,0,2,2,false,d,false,true,0.0-2.0-0.55-0.500-3.500,0,0,0,81,false,stim,true,0,773.6000000238419,0,0,1,80221,task1,1493364,false,true,1690,image-keyboard-response,11
true,13,1,2,2,false,d,false,false,0.0-2.0-0.55-0.501-3.501,0,0,0,90,false,stim,true,1,601.1000000238419,0,0,0,80221,task1,1495483,false,false,1693,image-keyboard-response,12
true,13,0,2,2,false,d,false,false,0.0-2.0-0.55-0.502-3.502,0,0,0,81,false,stim,true,0,544.6000000238419,0,0,1,80221,task1,1497554,false,false,1696,image-keyboard-response,13
true,13,1,2,2,false,d,false,false,0.0-2.0-0.55-0.503-3.503,0,0,0,90,false,stim,true,1,507.69999998807907,0,0,0,80221,task1,1499580,false,false,1699,image-keyboard-response,14
true,13,2,2,0,false,q,false,false,0.0-2.0-0.56-0.504-3.504,0,0,0,68,false,stim,true,2,601.0999999642372,0,0,2,80221,task1,1501722,false,false,1702,image-keyboard-response,15
true,13,0,2,2,false,d,false,false,0.0-2.0-0.56-0.505-3.505,0,0,0,81,false,stim,true,0,670.8000000119209,0,0,1,80221,task1,1503914,false,false,1705,image-keyboard-response,16
true,13,2,2,2,true,d,false,true,0.0-2.0-0.56-0.506-3.506,0,0,0,68,false,stim,false,1,967.3000000119209,0,0,0,80221,task1,1506408,false,false,1708,image-keyboard-response,17
true,13,2,2,2,true,d,false,true,0.0-2.0-0.56-0.507-3.507,0,0,0,68,false,stim,false,1,397.60000002384186,0,0,0,80221,task1,1508328,false,false,1711,image-keyboard-response,18
true,13,0,2,2,false,d,false,false,0.0-2.0-0.56-0.508-3.508,0,0,0,81,false,stim,true,0,879.5,0,0,1,80221,task1,1510736,false,false,1714,image-keyboard-response,19
true,13,1,2,2,false,d,false,true,0.0-2.0-0.56-0.509-3.509,0,0,0,90,false,stim,true,1,706.6999999880791,0,0,0,80221,task1,1512967,false,true,1717,image-keyboard-response,20
true,13,0,2,2,false,d,false,false,0.0-2.0-0.56-0.510-3.510,0,0,0,81,false,stim,true,0,575.0,0,0,1,80221,task1,1515069,false,false,1720,image-keyboard-response,21
true,13,2,2,0,false,q,false,true,0.0-2.0-0.56-0.511-3.511,0,0,0,68,false,stim,true,2,403.69999998807907,0,0,2,80221,task1,1516999,false,true,1723,image-keyboard-response,22
true,13,2,2,0,false,q,false,false,0.0-2.0-0.56-0.512-3.512,0,0,0,68,false,stim,true,2,361.10000002384186,0,0,2,80221,task1,1518884,false,false,1726,image-keyboard-response,23
true,13,1,2,2,false,d,false,false,0.0-2.0-0.57-0.513-3.513,0,0,0,90,false,stim,true,1,540.0,0,0,0,80221,task1,1520944,false,false,1729,image-keyboard-response,24
true,13,0,2,2,false,d,false,false,0.0-2.0-0.57-0.514-3.514,0,0,0,81,false,stim,true,0,613.7000000476837,0,0,1,80221,task1,1523090,false,false,1732,image-keyboard-response,25
true,13,0,2,0,true,q,false,true,0.0-2.0-0.57-0.515-3.515,0,0,0,81,false,stim,false,2,681.0,0,0,2,80221,task1,1525293,false,false,1735,image-keyboard-response,26
true,13,2,2,2,true,d,false,true,0.0-2.0-0.57-0.516-3.516,0,0,0,68,false,stim,false,0,394.10000002384186,0,0,1,80221,task1,1527215,false,false,1738,image-keyboard-response,27
true,13,0,2,0,true,q,false,true,0.0-2.0-0.57-0.517-3.517,0,0,0,81,false,stim,false,2,397.9000000357628,0,0,2,80221,task1,1529131,false,false,1741,image-keyboard-response,28
true,13,0,2,0,true,q,false,true,0.0-2.0-0.57-0.518-3.518,0,0,0,81,false,stim,false,2,624.1000000238419,0,0,2,80221,task1,1531281,false,false,1744,image-keyboard-response,29
true,13,2,2,2,true,d,false,true,0.0-2.0-0.57-0.519-3.519,0,0,0,68,false,stim,false,1,1022.6999999880791,0,0,0,80221,task1,1533830,false,false,1747,image-keyboard-response,30
true,13,2,2,2,true,d,false,true,0.0-2.0-0.57-0.520-3.520,0,0,0,68,false,stim,false,1,612.0,0,0,0,80221,task1,1535965,false,false,1750,image-keyboard-response,31
true,13,2,2,2,true,d,false,true,0.0-2.0-0.57-0.521-3.521,0,0,0,68,false,stim,false,0,666.6000000238419,0,0,1,80221,task1,1538159,false,false,1753,image-keyboard-response,32
true,13,2,2,2,true,d,false,true,0.0-2.0-0.58-0.522-3.522,0,0,0,68,false,stim,false,0,385.89999997615814,0,0,1,80221,task1,1540065,false,false,1756,image-keyboard-response,33
true,13,2,2,2,true,d,false,true,0.0-2.0-0.58-0.523-3.523,0,0,0,68,false,stim,false,1,930.8999999761581,0,0,0,80221,task1,1542517,false,false,1759,image-keyboard-response,34
true,13,2,2,2,true,d,false,true,0.0-2.0-0.58-0.524-3.524,0,0,0,68,false,stim,false,0,581.6000000238419,0,1,1,80221,task1,1544623,false,false,1762,image-keyboard-response,35
true,13,0,2,0,true,q,false,true,0.0-2.0-0.58-0.525-3.525,0,0,0,81,false,stim,false,2,515.0999999642372,0,1,2,80221,task1,1546669,false,false,1765,image-keyboard-response,36
true,13,2,2,2,true,d,false,true,0.0-2.0-0.58-0.526-3.526,0,0,0,68,false,stim,false,1,533.5999999642372,0,1,0,80221,task1,1548724,false,false,1768,image-keyboard-response,37
true,13,2,2,2,true,d,false,true,0.0-2.0-0.58-0.527-3.527,0,0,0,68,false,stim,false,0,683.1999999880791,0,1,1,80221,task1,1550928,false,false,1771,image-keyboard-response,38
true,13,2,2,2,true,d,false,true,0.0-2.0-0.58-0.528-3.528,0,0,0,68,false,stim,false,1,701.8999999761581,0,1,0,80221,task1,1553162,false,false,1774,image-keyboard-response,39
true,14,2,0,0,false,q,true,false,0.0-2.0-0.58-0.529-3.529,1,1,1,68,true,stim,false,0,2499.100000023842,0,1,2,80221,task1,1590727,false,false,1811,image-keyboard-response,1
true,14,2,0,0,false,q,true,false,0.0-2.0-0.58-0.530-3.530,1,1,1,68,false,stim,false,0,1277.199999988079,0,1,2,80221,task1,1593537,false,false,1814,image-keyboard-response,2
false,14,-1,0,2,false,d,true,false,0.0-2.0-0.59-0.531-3.531,1,1,1,,false,stim,false,2,,0,1,1,80221,task1,1598080,false,false,1817,image-keyboard-response,3
true,14,2,0,0,false,q,true,false,0.0-2.0-0.59-0.532-3.532,1,1,1,68,false,stim,false,0,847.0,0,1,2,80221,task1,1600452,false,false,1820,image-keyboard-response,4
true,14,0,0,2,false,d,true,false,0.0-2.0-0.59-0.533-3.533,1,1,1,81,false,stim,false,2,620.3000000119209,0,1,1,80221,task1,1602602,false,false,1823,image-keyboard-response,5
true,14,0,0,2,false,d,true,false,0.0-2.0-0.59-0.534-3.534,1,1,1,81,false,stim,false,2,631.4000000357628,0,1,1,80221,task1,1604761,false,false,1826,image-keyboard-response,6
true,14,2,0,0,false,q,true,false,0.0-2.0-0.59-0.535-3.535,1,1,1,68,false,stim,false,0,458.4000000357628,0,1,2,80221,task1,1606741,false,false,1829,image-keyboard-response,7
true,14,1,0,2,false,d,true,true,0.0-2.0-0.59-0.536-3.536,1,1,1,90,false,stim,false,2,381.30000001192093,0,1,0,80221,task1,1608654,false,true,1832,image-keyboard-response,8
true,14,1,0,2,false,d,true,false,0.0-2.0-0.59-0.537-3.537,1,1,1,90,false,stim,false,2,668.4000000357628,0,0,0,80221,task1,1610842,false,false,1835,image-keyboard-response,9
true,14,0,0,0,true,q,false,true,0.0-2.0-0.59-0.538-3.538,1,1,1,81,false,stim,false,0,857.3000000119209,0,0,2,80221,task1,1613222,false,false,1838,image-keyboard-response,10
true,14,2,0,2,true,d,false,true,0.0-2.0-0.59-0.539-3.539,1,1,1,68,false,stim,false,2,610.8999999761581,0,0,0,80221,task1,1615360,false,false,1841,image-keyboard-response,11
true,14,2,0,2,true,d,false,true,0.0-2.0-0.60-0.540-3.540,1,1,1,68,false,stim,false,2,908.3999999761581,0,0,1,80221,task1,1617800,false,false,1844,image-keyboard-response,12
true,14,0,0,0,true,q,false,true,0.0-2.0-0.60-0.541-3.541,1,1,1,81,false,stim,false,0,407.80000001192093,0,0,2,80221,task1,1619743,false,false,1847,image-keyboard-response,13
true,15,0,2,2,false,d,false,false,0.0-2.0-0.60-0.542-3.542,0,0,0,81,true,stim,true,0,407.5,0,0,2,80221,task1,1621671,false,false,1850,image-keyboard-response,1
true,15,2,2,0,false,q,false,false,0.0-2.0-0.60-0.543-3.543,0,0,0,68,false,stim,true,2,487.60000002384186,0,0,1,80221,task1,1623686,false,false,1853,image-keyboard-response,2
true,15,2,2,0,false,q,false,false,0.0-2.0-0.60-0.544-3.544,0,0,0,68,false,stim,true,2,637.8000000119209,0,0,1,80221,task1,1625858,false,false,1856,image-keyboard-response,3
true,15,1,2,1,true,z,false,true,0.0-2.0-0.60-0.545-3.545,0,0,0,90,false,stim,false,2,446.9000000357628,0,0,0,80221,task1,1627827,false,false,1859,image-keyboard-response,4
true,15,1,2,1,true,z,false,true,0.0-2.0-0.60-0.546-3.546,0,0,0,90,false,stim,false,2,491.30000001192093,0,0,0,80221,task1,1629844,false,false,1862,image-keyboard-response,5
true,15,1,2,1,true,z,false,true,0.0-2.0-0.60-0.547-3.547,0,0,0,90,false,stim,false,2,343.4000000357628,0,0,0,80221,task1,1631720,false,false,1865,image-keyboard-response,6
true,15,2,2,2,true,d,false,true,0.0-2.0-0.60-0.548-3.548,0,0,0,68,false,stim,false,0,779.1000000238419,0,0,2,80221,task1,1634023,false,false,1868,image-keyboard-response,7
true,15,2,2,2,true,d,false,true,0.0-2.0-0.61-0.549-3.549,0,0,0,68,false,stim,false,0,289.30000001192093,0,0,2,80221,task1,1635836,false,false,1871,image-keyboard-response,8
true,15,2,2,2,true,d,false,true,0.0-2.0-0.61-0.550-3.550,0,0,0,68,false,stim,false,0,305.19999998807907,0,0,2,80221,task1,1637671,false,false,1874,image-keyboard-response,9
true,15,1,2,1,true,z,false,true,0.0-2.0-0.61-0.551-3.551,0,0,0,90,false,stim,false,2,729.5,0,0,0,80221,task1,1639922,false,false,1877,image-keyboard-response,10
true,15,0,2,0,true,q,false,true,0.0-2.0-0.61-0.552-3.552,0,0,0,81,false,stim,false,2,580.3000000119209,0,0,1,80221,task1,1642025,false,false,1880,image-keyboard-response,11
true,15,1,2,1,true,z,false,true,0.0-2.0-0.61-0.553-3.553,0,0,0,90,false,stim,false,2,557.6999999880791,0,0,0,80221,task1,1644106,false,false,1883,image-keyboard-response,12
true,15,0,2,0,true,q,false,true,0.0-2.0-0.61-0.554-3.554,0,0,0,81,false,stim,false,2,615.5999999642372,0,0,1,80221,task1,1646245,false,false,1886,image-keyboard-response,13
true,15,2,2,2,true,d,false,true,0.0-2.0-0.61-0.555-3.555,0,0,0,68,false,stim,false,0,1074.3999999761581,0,0,2,80221,task1,1648844,false,false,1889,image-keyboard-response,14
true,15,0,2,0,true,q,false,true,0.0-2.0-0.61-0.556-3.556,0,0,0,81,false,stim,false,2,712.8999999761581,0,0,1,80221,task1,1651088,false,false,1892,image-keyboard-response,15
true,15,1,2,1,true,z,false,true,0.0-2.0-0.61-0.557-3.557,0,0,0,90,false,stim,false,2,792.5,0,0,0,80221,task1,1653408,false,false,1895,image-keyboard-response,16
true,15,1,2,1,true,z,false,true,0.0-2.0-0.62-0.558-3.558,0,0,0,90,false,stim,false,2,561.8999999761581,0,0,0,80221,task1,1655492,false,false,1898,image-keyboard-response,17
true,15,2,2,2,true,d,false,true,0.0-2.0-0.62-0.559-3.559,0,0,0,68,false,stim,false,0,1068.6000000238419,0,0,2,80221,task1,1658100,false,false,1901,image-keyboard-response,18
true,15,2,2,1,false,z,false,false,0.0-2.0-0.62-0.560-3.560,0,0,0,68,false,stim,true,2,1171.0999999642372,0,0,0,80221,task1,1660802,false,false,1904,image-keyboard-response,19
true,15,2,2,2,true,d,false,true,0.0-2.0-0.62-0.561-3.561,0,0,0,68,false,stim,false,0,337.4000000357628,0,0,2,80221,task1,1662654,false,false,1907,image-keyboard-response,20
true,15,0,2,0,true,q,false,true,0.0-2.0-0.62-0.562-3.562,0,0,0,81,false,stim,false,2,701.3000000119209,0,0,1,80221,task1,1664882,false,false,1910,image-keyboard-response,21
true,15,0,2,0,true,q,false,false,0.0-2.0-0.62-0.563-3.563,0,0,0,81,false,stim,false,2,542.8000000119209,0,0,1,80221,task1,1666942,false,true,1913,image-keyboard-response,22
true,15,0,2,0,true,q,false,true,0.0-2.0-0.62-0.564-3.564,0,0,0,81,false,stim,false,2,375.19999998807907,0,0,1,80221,task1,1668838,false,false,1916,image-keyboard-response,23
true,15,1,2,1,true,z,false,false,0.0-2.0-0.62-0.565-3.565,0,0,0,90,false,stim,false,2,1066.699999988079,0,0,0,80221,task1,1671426,false,true,1919,image-keyboard-response,24
true,15,2,2,2,true,d,false,true,0.0-2.0-0.62-0.566-3.566,0,0,0,68,false,stim,false,0,544.9000000357628,0,0,2,80221,task1,1673513,false,false,1922,image-keyboard-response,25
true,15,2,2,2,true,d,false,true,0.0-2.0-0.63-0.567-3.567,0,0,0,68,false,stim,false,0,918.0,0,0,2,80221,task1,1675955,false,false,1925,image-keyboard-response,26
true,15,1,2,1,true,z,false,false,0.0-2.0-0.63-0.568-3.568,0,0,0,90,false,stim,false,2,506.60000002384186,0,0,0,80221,task1,1677990,false,true,1928,image-keyboard-response,27
true,15,1,2,2,false,d,true,false,0.0-2.0-0.63-0.569-3.569,0,0,0,90,false,stim,false,0,816.3999999761581,0,0,2,80221,task1,1680325,false,false,1931,image-keyboard-response,28
true,15,0,2,0,true,q,false,true,0.0-2.0-0.63-0.570-3.570,0,0,0,81,false,stim,false,2,547.8000000119209,0,0,1,80221,task1,1682401,false,false,1934,image-keyboard-response,29
true,15,0,2,0,true,q,false,true,0.0-2.0-0.63-0.571-3.571,0,0,0,81,false,stim,false,2,418.89999997615814,0,0,1,80221,task1,1684338,false,false,1937,image-keyboard-response,30
true,15,0,2,0,true,q,false,true,0.0-2.0-0.63-0.572-3.572,0,0,0,81,false,stim,false,2,814.4000000357628,0,0,1,80221,task1,1686689,false,false,1940,image-keyboard-response,31
true,15,1,2,1,true,z,false,true,0.0-2.0-0.63-0.573-3.573,0,0,0,90,false,stim,false,2,663.6000000238419,0,0,0,80221,task1,1688871,false,false,1943,image-keyboard-response,32
true,15,2,2,2,true,d,false,true,0.0-2.0-0.63-0.574-3.574,0,0,0,68,false,stim,false,0,674.0,0,0,2,80221,task1,1691069,false,false,1946,image-keyboard-response,33
true,15,1,2,1,true,z,false,true,0.0-2.0-0.63-0.575-3.575,0,0,0,90,false,stim,false,2,969.0,0,0,0,80221,task1,1693568,false,false,1949,image-keyboard-response,34
true,15,1,2,1,true,z,false,true,0.0-2.0-0.64-0.576-3.576,0,0,0,90,false,stim,false,2,1651.9000000357628,0,0,0,80221,task1,1696748,false,false,1952,image-keyboard-response,35
true,15,0,2,0,true,q,false,false,0.0-2.0-0.64-0.577-3.577,0,0,0,81,false,stim,false,2,864.9000000357628,0,0,1,80221,task1,1699141,false,true,1955,image-keyboard-response,36
true,15,2,2,2,true,d,false,true,0.0-2.0-0.64-0.578-3.578,0,0,0,68,false,stim,false,0,1189.699999988079,0,0,2,80221,task1,1701853,false,false,1958,image-keyboard-response,37
true,15,1,2,1,true,z,false,true,0.0-2.0-0.64-0.579-3.579,0,0,0,90,false,stim,false,2,1327.0,0,0,0,80221,task1,1704701,false,false,1961,image-keyboard-response,38
true,15,2,2,2,true,d,false,false,0.0-2.0-0.64-0.580-3.580,0,0,0,68,false,stim,false,0,574.2000000476837,0,0,2,80221,task1,1706797,false,true,1964,image-keyboard-response,39
true,16,1,2,2,false,d,false,false,0.0-2.0-0.64-0.581-3.581,0,0,0,90,true,stim,true,1,2022.8999999761581,0,0,0,80221,task1,1710339,false,false,1967,image-keyboard-response,1
true,16,0,2,2,false,d,false,false,0.0-2.0-0.64-0.582-3.582,0,0,0,81,false,stim,true,0,578.2000000476837,0,0,1,80221,task1,1712448,false,false,1970,image-keyboard-response,2
true,16,0,2,0,true,q,false,true,0.0-2.0-0.64-0.583-3.583,0,0,0,81,false,stim,false,2,630.5,0,0,2,80221,task1,1714612,false,false,1973,image-keyboard-response,3
true,16,2,2,2,true,d,false,true,0.0-2.0-0.64-0.584-3.584,0,0,0,68,false,stim,false,0,356.0999999642372,0,0,1,80221,task1,1716494,false,false,1976,image-keyboard-response,4
true,16,0,2,0,true,q,false,true,0.0-2.0-0.65-0.585-3.585,0,0,0,81,false,stim,false,2,1312.4000000357628,0,0,2,80221,task1,1719337,false,false,1979,image-keyboard-response,5
true,16,0,2,2,false,d,false,false,0.0-2.0-0.65-0.586-3.586,0,0,0,81,false,stim,true,0,1513.8999999761581,0,0,1,80221,task1,1722381,false,false,1982,image-keyboard-response,6
true,16,1,2,2,false,d,false,false,0.0-2.0-0.65-0.587-3.587,0,0,0,90,false,stim,true,1,1110.2999999523163,0,0,0,80221,task1,1725025,false,false,1985,image-keyboard-response,7
true,16,2,2,2,true,d,false,true,0.0-2.0-0.65-0.588-3.588,0,0,0,68,false,stim,false,1,494.5,0,0,0,80221,task1,1727045,false,false,1988,image-keyboard-response,8
true,16,0,2,2,false,d,false,false,0.0-2.0-0.65-0.589-3.589,0,0,0,81,false,stim,true,0,1288.699999988079,0,0,1,80221,task1,1729857,false,false,1991,image-keyboard-response,9
true,16,1,2,2,false,d,false,false,0.0-2.0-0.65-0.590-3.590,0,0,0,90,false,stim,true,1,810.7999999523163,0,0,0,80221,task1,1732196,false,false,1994,image-keyboard-response,10
