answered,blockNum,choice,condition,corResp,correct,correct_response,explo,fb,internal_node_id,isStable_1,isStable_2,isStable_3,key_press,newBlock,part,persev,persevResp,rt,sessNum,stableAS,stimulus,subject,task,time_elapsed,training,trap,trial_index,trial_type,trialsInBlock
true,1,0,0,2,false,d,true,false,0.0-2.0-0.0-0.0-3.0,0,0,0,81,true,stim,false,-1,1169.0,1,0,2,80221,task3,231989,false,false,136,image-keyboard-response,1
true,1,0,0,1,false,z,true,false,0.0-2.0-0.0-0.1-3.1,0,0,0,81,false,stim,false,-1,1400.4000000059605,1,0,0,80221,task3,236216,false,false,139,image-keyboard-response,2
true,1,2,0,2,true,d,false,true,0.0-2.0-0.0-0.2-3.2,0,0,0,68,false,stim,false,-1,994.1000000089407,1,0,2,80221,task3,239811,false,false,142,image-keyboard-response,3
true,1,0,0,1,false,z,true,false,0.0-2.0-0.0-0.3-3.3,0,0,0,81,false,stim,false,-1,1349.699999988079,1,0,1,80221,task3,244165,false,false,145,image-keyboard-response,4
true,1,2,0,1,false,z,true,false,0.0-2.0-0.0-0.4-3.4,0,0,0,68,false,stim,false,-1,1569.2000000029802,1,0,0,80221,task3,248397,false,false,148,image-keyboard-response,5
true,1,1,0,1,true,z,false,true,0.0-2.0-0.0-0.5-3.5,0,0,0,90,false,stim,false,-1,790.7999999970198,1,0,0,80221,task3,251612,false,false,151,image-keyboard-response,6
true,1,2,0,2,true,d,false,true,0.0-2.0-0.0-0.6-3.6,0,0,0,68,false,stim,false,-1,1385.5999999940395,1,0,2,80221,task3,255204,false,false,154,image-keyboard-response,7
true,1,2,0,1,false,z,true,false,0.0-2.0-0.0-0.7-3.7,0,0,0,68,false,stim,false,-1,1387.7000000029802,1,0,1,80221,task3,259201,false,false,157,image-keyboard-response,8
true,1,1,0,1,true,z,false,true,0.0-2.0-0.0-0.8-3.8,0,0,0,90,false,stim,false,-1,772.5,1,0,1,80221,task3,262599,false,false,160,image-keyboard-response,9
true,1,2,0,2,true,d,false,true,0.0-2.0-0.1-0.9-3.9,0,0,0,68,false,stim,false,-1,1393.300000011921,1,0,2,80221,task3,266210,false,false,163,image-keyboard-response,10
true,1,1,0,1,true,z,false,true,0.0-2.0-0.1-0.10-3.10,0,0,0,90,false,stim,false,-1,2462.5999999940395,1,0,0,80221,task3,271290,false,false,166,image-keyboard-response,11
true,1,1,0,1,true,z,false,true,0.0-2.0-0.1-0.11-3.11,0,0,0,90,false,stim,false,-1,2379.3999999910593,1,0,1,80221,task3,276203,false,false,169,image-keyboard-response,12
true,1,2,0,2,true,d,false,true,0.0-2.0-0.1-0.12-3.12,0,0,0,68,false,stim,false,-1,1464.5,1,0,2,80221,task3,280278,false,false,172,image-keyboard-response,13
true,1,1,0,1,true,z,false,true,0.0-2.0-0.1-0.13-3.13,0,0,0,90,false,stim,false,-1,1717.0,1,0,1,80221,task3,284541,false,false,175,image-keyboard-response,14
true,1,1,0,1,true,z,false,true,0.0-2.0-0.1-0.14-3.14,0,0,0,90,false,stim,false,-1,1860.5,1,0,1,80221,task3,288674,false,false,178,image-keyboard-response,15
true,1,2,0,2,true,d,false,true,0.0-2.0-0.1-0.15-3.15,0,0,0,68,false,stim,false,-1,920.7000000029802,1,0,2,80221,task3,291740,false,false,181,image-keyboard-response,16
true,1,1,0,1,true,z,false,true,0.0-2.0-0.1-0.16-3.16,0,0,0,90,false,stim,false,-1,1501.5,1,0,0,80221,task3,295329,false,false,184,image-keyboard-response,17
true,1,1,0,1,true,z,false,true,0.0-2.0-0.1-0.17-3.17,0,0,0,90,false,stim,false,-1,891.2999999970198,1,0,0,80221,task3,298706,false,false,187,image-keyboard-response,18
true,1,1,0,1,true,z,false,true,0.0-2.0-0.2-0.18-3.18,0,0,0,90,false,stim,false,-1,1157.8999999910593,1,0,1,80221,task3,301980,false,false,190,image-keyboard-response,19
true,1,2,0,2,true,d,false,true,0.0-2.0-0.2-0.19-3.19,0,0,0,68,false,stim,false,-1,2227.800000011921,1,1,2,80221,task3,307049,false,false,193,image-keyboard-response,20
true,1,1,0,1,true,z,false,true,0.0-2.0-0.2-0.20-3.20,0,0,0,90,false,stim,false,-1,901.2000000029802,1,0,1,80221,task3,310720,false,false,196,image-keyboard-response,21
true,1,2,0,2,true,d,false,true,0.0-2.0-0.2-0.21-3.21,0,0,0,68,false,stim,false,-1,979.3999999910593,1,1,2,80221,task3,313805,false,false,199,image-keyboard-response,22
true,1,2,0,2,true,d,false,true,0.0-2.0-0.2-0.22-3.22,0,0,0,68,false,stim,false,-1,2506.0999999940395,1,1,2,80221,task3,318326,false,false,202,image-keyboard-response,23
true,2,1,1,2,false,d,false,false,0.0-2.0-0.2-0.23-3.23,0,0,1,90,true,stim,true,1,1037.9000000059605,1,0,0,80221,task3,321862,false,false,205,image-keyboard-response,1
true,2,1,1,0,false,q,false,false,0.0-2.0-0.2-0.24-3.24,0,0,1,90,false,stim,true,1,983.5999999940395,1,0,1,80221,task3,325802,false,false,208,image-keyboard-response,2
true,2,1,1,2,false,d,false,false,0.0-2.0-0.2-0.25-3.25,0,0,1,90,false,stim,true,1,799.2000000029802,1,0,0,80221,task3,328626,false,false,211,image-keyboard-response,3
true,2,1,1,2,false,d,false,false,0.0-2.0-0.2-0.26-3.26,0,0,1,90,false,stim,true,1,1399.800000011921,1,0,0,80221,task3,332219,false,false,214,image-keyboard-response,4
true,2,2,1,2,true,d,false,true,0.0-2.0-0.3-0.27-3.27,0,0,1,68,false,stim,false,2,846.7000000029802,1,1,2,80221,task3,335672,false,false,217,image-keyboard-response,5
true,2,0,1,2,false,d,true,false,0.0-2.0-0.3-0.28-3.28,0,0,1,81,false,stim,false,1,1032.9000000059605,1,0,0,80221,task3,338858,false,false,220,image-keyboard-response,6
true,2,2,1,2,true,d,false,true,0.0-2.0-0.3-0.29-3.29,0,0,1,68,false,stim,false,2,2137.0,1,1,2,80221,task3,343953,false,false,223,image-keyboard-response,7
true,2,2,1,0,false,q,true,false,0.0-2.0-0.3-0.30-3.30,0,0,1,68,false,stim,false,1,1376.7999999970198,1,0,1,80221,task3,348204,false,false,226,image-keyboard-response,8
true,2,2,1,2,true,d,false,true,0.0-2.0-0.3-0.31-3.31,0,0,1,68,false,stim,false,1,769.1000000089407,1,0,0,80221,task3,351597,false,false,229,image-keyboard-response,9
true,2,2,1,2,true,d,false,true,0.0-2.0-0.3-0.32-3.32,0,0,1,68,false,stim,false,2,1061.7000000029802,1,1,2,80221,task3,354881,false,false,232,image-keyboard-response,10
true,2,2,1,2,true,d,false,true,0.0-2.0-0.3-0.33-3.33,0,0,1,68,false,stim,false,1,1483.2999999970198,1,1,0,80221,task3,359309,false,false,235,image-keyboard-response,11
true,2,0,1,0,true,q,false,true,0.0-2.0-0.3-0.34-3.34,0,0,1,81,false,stim,false,1,720.7999999970198,1,1,1,80221,task3,362542,false,false,238,image-keyboard-response,12
true,2,0,1,0,true,q,false,true,0.0-2.0-0.3-0.35-3.35,0,0,1,81,false,stim,false,1,755.0,1,1,1,80221,task3,365580,false,false,241,image-keyboard-response,13
true,2,0,1,0,true,q,false,true,0.0-2.0-0.4-0.36-3.36,0,0,1,81,false,stim,false,1,2331.7000000029802,1,1,1,80221,task3,370148,false,false,244,image-keyboard-response,14
true,2,2,1,2,true,d,false,false,0.0-2.0-0.4-0.37-3.37,0,0,1,68,false,stim,false,2,1043.3999999910593,1,0,2,80221,task3,373862,false,true,247,image-keyboard-response,15
true,3,2,2,0,false,q,false,false,0.0-2.0-0.4-0.38-3.38,1,1,0,68,true,stim,true,2,638.4000000059605,1,0,2,80221,task3,377462,false,false,250,image-keyboard-response,1
true,3,0,2,2,false,d,true,false,0.0-2.0-0.4-0.39-3.39,1,1,0,81,false,stim,false,2,965.2999999970198,1,1,0,80221,task3,380783,false,false,253,image-keyboard-response,2
true,3,0,2,0,true,q,false,true,0.0-2.0-0.4-0.40-3.40,1,1,0,81,false,stim,false,0,2522.1000000089407,1,1,1,80221,task3,385335,false,false,256,image-keyboard-response,3
true,3,0,2,0,true,q,false,true,0.0-2.0-0.4-0.41-3.41,1,1,0,81,false,stim,false,0,781.0999999940395,1,1,1,80221,task3,388600,false,false,259,image-keyboard-response,4
true,3,2,2,0,false,q,false,false,0.0-2.0-0.4-0.42-3.42,1,1,0,68,false,stim,true,2,901.8999999910593,1,0,2,80221,task3,391725,false,false,262,image-keyboard-response,5
true,3,0,2,2,false,d,true,false,0.0-2.0-0.4-0.43-3.43,1,1,0,81,false,stim,false,2,2692.0999999940395,1,1,0,80221,task3,396509,false,false,265,image-keyboard-response,6
true,3,2,2,2,true,d,false,true,0.0-2.0-0.4-0.44-3.44,1,1,0,68,false,stim,false,2,386.30000001192093,1,1,0,80221,task3,399201,false,false,268,image-keyboard-response,7
true,3,2,2,2,true,d,false,true,0.0-2.0-0.5-0.45-3.45,1,1,0,68,false,stim,false,2,2075.5999999940395,1,1,0,80221,task3,403898,false,false,271,image-keyboard-response,8
true,3,0,2,0,true,q,false,true,0.0-2.0-0.5-0.46-3.46,1,1,0,81,false,stim,false,2,1671.5,1,0,2,80221,task3,408493,false,false,274,image-keyboard-response,9
true,3,2,2,2,true,d,false,true,0.0-2.0-0.5-0.47-3.47,1,1,0,68,false,stim,false,2,2064.2999999970198,1,1,0,80221,task3,412880,false,false,277,image-keyboard-response,10
true,3,0,2,0,true,q,false,true,0.0-2.0-0.5-0.48-3.48,1,1,0,81,false,stim,false,2,824.3000000119209,1,0,2,80221,task3,416652,false,false,280,image-keyboard-response,11
true,3,0,2,0,true,q,false,true,0.0-2.0-0.5-0.49-3.49,1,1,0,81,false,stim,false,2,1032.5999999940395,1,0,2,80221,task3,419846,false,false,283,image-keyboard-response,12
true,3,0,2,0,true,q,false,true,0.0-2.0-0.5-0.50-3.50,1,1,0,81,false,stim,false,0,1615.199999988079,1,1,1,80221,task3,424440,false,false,286,image-keyboard-response,13
true,3,0,2,0,true,q,false,true,0.0-2.0-0.5-0.51-3.51,1,1,0,81,false,stim,false,0,1564.7000000029802,1,1,1,80221,task3,428391,false,false,289,image-keyboard-response,14
true,3,2,2,2,true,d,false,true,0.0-2.0-0.5-0.52-3.52,1,1,0,68,false,stim,false,2,1097.2999999970198,1,1,0,80221,task3,431926,false,false,292,image-keyboard-response,15
true,3,0,2,0,true,q,false,true,0.0-2.0-0.5-0.53-3.53,1,1,0,81,false,stim,false,0,1339.5,1,1,1,80221,task3,436158,false,false,295,image-keyboard-response,16
true,3,0,2,0,true,q,false,true,0.0-2.0-0.6-0.54-3.54,1,1,0,81,false,stim,false,0,1297.3999999910593,1,1,1,80221,task3,440121,false,false,298,image-keyboard-response,17
true,3,0,2,0,true,q,false,true,0.0-2.0-0.6-0.55-3.55,1,1,0,81,false,stim,false,2,1489.6000000089407,1,0,2,80221,task3,444316,false,false,301,image-keyboard-response,18
true,3,2,2,2,true,d,false,true,0.0-2.0-0.6-0.56-3.56,1,1,0,68,false,stim,false,2,815.0,1,1,0,80221,task3,447634,false,false,304,image-keyboard-response,19
true,3,2,2,2,true,d,false,false,0.0-2.0-0.6-0.57-3.57,1,1,0,68,false,stim,false,2,1687.3999999910593,1,1,0,80221,task3,451515,false,true,307,image-keyboard-response,20
true,3,0,2,0,true,q,false,true,0.0-2.0-0.6-0.58-3.58,1,1,0,81,false,stim,false,0,946.4000000059605,1,0,1,80221,task3,454766,false,false,310,image-keyboard-response,21
true,3,0,2,0,true,q,false,true,0.0-2.0-0.6-0.59-3.59,1,1,0,81,false,stim,false,0,1599.0,1,0,1,80221,task3,458418,false,false,313,image-keyboard-response,22
true,3,0,2,0,true,q,false,false,0.0-2.0-0.6-0.60-3.60,1,1,0,81,false,stim,false,2,996.1000000089407,1,0,2,80221,task3,461810,false,true,316,image-keyboard-response,23
true,4,2,1,2,true,d,false,true,0.0-2.0-0.6-0.61-3.61,1,0,0,68,true,stim,false,2,1224.6000000089407,1,1,0,80221,task3,466038,false,false,319,image-keyboard-response,1
true,4,0,1,1,false,z,false,false,0.0-2.0-0.6-0.62-3.62,1,0,0,81,false,stim,true,0,974.8999999910593,1,0,2,80221,task3,469803,false,false,322,image-keyboard-response,2
true,4,0,1,1,false,z,false,false,0.0-2.0-0.7-0.63-3.63,1,0,0,81,false,stim,true,0,2023.5999999940395,1,0,1,80221,task3,473846,false,false,325,image-keyboard-response,3
true,4,2,1,2,true,d,false,false,0.0-2.0-0.7-0.64-3.64,1,0,0,68,false,stim,false,2,890.6000000089407,1,1,0,80221,task3,477707,false,true,328,image-keyboard-response,4
true,4,1,1,2,false,d,true,false,0.0-2.0-0.7-0.65-3.65,1,0,0,90,false,stim,false,2,1951.0,1,1,0,80221,task3,481770,false,false,331,image-keyboard-response,5
true,4,2,1,1,false,z,true,false,0.0-2.0-0.7-0.66-3.66,1,0,0,68,false,stim,false,0,1051.5,1,0,2,80221,task3,484869,false,false,334,image-keyboard-response,6
true,4,1,1,1,true,z,false,true,0.0-2.0-0.7-0.67-3.67,1,0,0,90,false,stim,false,0,1776.7999999970198,1,0,2,80221,task3,489593,false,false,337,image-keyboard-response,7
true,4,1,1,1,true,z,false,true,0.0-2.0-0.7-0.68-3.68,1,0,0,90,false,stim,false,0,2530.0,1,0,1,80221,task3,494349,false,false,340,image-keyboard-response,8
true,4,1,1,1,true,z,false,true,0.0-2.0-0.7-0.69-3.69,1,0,0,90,false,stim,false,0,1395.0,1,0,2,80221,task3,498216,false,false,343,image-keyboard-response,9
true,4,1,1,1,true,z,false,true,0.0-2.0-0.7-0.70-3.70,1,0,0,90,false,stim,false,0,2664.4000000059605,1,0,1,80221,task3,503487,false,false,346,image-keyboard-response,10
true,4,2,1,2,true,d,false,true,0.0-2.0-0.7-0.71-3.71,1,0,0,68,false,stim,false,2,1956.2999999970198,1,1,0,80221,task3,507770,false,false,349,image-keyboard-response,11
true,4,1,1,1,true,z,false,true,0.0-2.0-0.8-0.72-3.72,1,0,0,90,false,stim,false,0,2135.1000000089407,1,0,1,80221,task3,511949,false,false,352,image-keyboard-response,12
true,4,1,1,1,true,z,false,true,0.0-2.0-0.8-0.73-3.73,1,0,0,90,false,stim,false,0,1488.0999999940395,1,0,1,80221,task3,516305,false,false,355,image-keyboard-response,13
true,4,1,1,1,true,z,false,true,0.0-2.0-0.8-0.74-3.74,1,0,0,90,false,stim,false,0,1110.8999999910593,1,0,2,80221,task3,519938,false,false,358,image-keyboard-response,14
true,4,2,1,2,true,d,false,true,0.0-2.0-0.8-0.75-3.75,1,0,0,68,false,stim,false,2,2368.8999999910593,1,1,0,80221,task3,525187,false,false,361,image-keyboard-response,15
true,4,2,1,2,true,d,false,true,0.0-2.0-0.8-0.76-3.76,1,0,0,68,false,stim,false,2,1190.2000000029802,1,1,0,80221,task3,529011,false,false,364,image-keyboard-response,16
true,4,1,1,1,true,z,false,true,0.0-2.0-0.8-0.77-3.77,1,0,0,90,false,stim,false,0,927.5,1,0,2,80221,task3,532746,false,false,367,image-keyboard-response,17
true,4,1,1,1,true,z,false,true,0.0-2.0-0.8-0.78-3.78,1,0,0,90,false,stim,false,0,1777.6000000089407,1,0,1,80221,task3,536592,false,false,370,image-keyboard-response,18
true,4,2,1,1,false,z,true,false,0.0-2.0-0.8-0.79-3.79,1,0,0,68,false,stim,false,0,1076.0999999940395,1,0,2,80221,task3,539898,false,false,373,image-keyboard-response,19
true,4,2,1,2,true,d,false,true,0.0-2.0-0.8-0.80-3.80,1,0,0,68,false,stim,false,2,980.0,1,1,0,80221,task3,543793,false,false,376,image-keyboard-response,20
true,4,2,1,2,true,d,false,true,0.0-2.0-0.9-0.81-3.81,1,0,0,68,false,stim,false,2,1976.7000000029802,1,1,0,80221,task3,547794,false,false,379,image-keyboard-response,21
true,4,1,1,1,true,z,false,true,0.0-2.0-0.9-0.82-3.82,1,0,0,90,false,stim,false,0,1684.5,1,0,1,80221,task3,551504,false,false,382,image-keyboard-response,22
true,4,2,1,1,false,z,true,false,0.0-2.0-0.9-0.83-3.83,1,0,0,68,false,stim,false,0,858.0,1,1,2,80221,task3,554681,false,false,385,image-keyboard-response,23
true,4,1,1,1,true,z,false,true,0.0-2.0-0.9-0.84-3.84,1,0,0,90,false,stim,false,0,1422.699999988079,1,1,2,80221,task3,558240,false,false,388,image-keyboard-response,24
true,5,2,2,2,true,d,false,true,0.0-2.0-0.9-0.85-3.85,1,0,1,68,true,stim,false,2,1300.8999999910593,1,1,0,80221,task3,562117,false,false,391,image-keyboard-response,1
true,5,1,2,0,false,q,false,true,0.0-2.0-0.9-0.86-3.86,1,0,1,90,false,stim,true,1,903.0,1,0,1,80221,task3,565724,false,true,394,image-keyboard-response,2
true,5,1,2,0,false,q,false,true,0.0-2.0-0.9-0.87-3.87,1,0,1,90,false,stim,true,1,1853.2999999970198,1,0,1,80221,task3,569670,false,true,397,image-keyboard-response,3
true,5,2,2,2,true,d,false,true,0.0-2.0-0.9-0.88-3.88,1,0,1,68,false,stim,false,2,1546.4000000059605,1,1,0,80221,task3,573364,false,false,400,image-keyboard-response,4
true,5,1,2,1,true,z,false,true,0.0-2.0-0.9-0.89-3.89,1,0,1,90,false,stim,false,1,1818.199999988079,1,1,2,80221,task3,577632,false,false,403,image-keyboard-response,5
false,5,-1,2,2,false,d,true,false,0.0-2.0-0.10-0.90-3.90,1,0,1,,false,stim,false,2,,1,1,0,80221,task3,583827,false,false,406,image-keyboard-response,6
true,5,1,2,0,false,q,false,false,0.0-2.0-0.10-0.91-3.91,1,0,1,90,false,stim,true,1,1125.0,1,0,1,80221,task3,587945,false,false,409,image-keyboard-response,7
true,5,1,2,1,true,z,false,true,0.0-2.0-0.10-0.92-3.92,1,0,1,90,false,stim,false,1,1290.0,1,1,2,80221,task3,592118,false,false,412,image-keyboard-response,8
true,5,1,2,0,false,q,false,false,0.0-2.0-0.10-0.93-3.93,1,0,1,90,false,stim,true,1,804.4000000059605,1,1,1,80221,task3,595626,false,false,415,image-keyboard-response,9
true,5,2,2,2,true,d,false,true,0.0-2.0-0.10-0.94-3.94,1,0,1,68,false,stim,false,2,1800.0,1,0,0,80221,task3,599614,false,false,418,image-keyboard-response,10
true,5,1,2,0,false,q,false,false,0.0-2.0-0.10-0.95-3.95,1,0,1,90,false,stim,true,1,1798.8999999910593,1,1,1,80221,task3,603623,false,false,421,image-keyboard-response,11
true,5,2,2,2,true,d,false,true,0.0-2.0-0.10-0.96-3.96,1,0,1,68,false,stim,false,2,1443.9000000059605,1,0,0,80221,task3,607261,false,false,424,image-keyboard-response,12
true,6,1,2,1,true,z,false,true,0.0-2.0-0.10-0.97-3.97,0,1,1,90,true,stim,false,1,651.3000000119209,1,1,2,80221,task3,610467,false,false,427,image-keyboard-response,1
true,6,1,2,1,true,z,false,true,0.0-2.0-0.10-0.98-3.98,0,1,1,90,false,stim,false,1,1459.2000000029802,1,1,2,80221,task3,614278,false,false,430,image-keyboard-response,2
true,6,1,2,1,true,z,false,false,0.0-2.0-0.11-0.99-3.99,0,1,1,90,false,stim,false,1,2161.9000000059605,1,1,2,80221,task3,618979,false,true,433,image-keyboard-response,3
true,6,1,2,0,false,q,true,false,0.0-2.0-0.11-0.100-3.100,0,1,1,90,false,stim,false,0,1525.6000000089407,1,1,1,80221,task3,623351,false,false,436,image-keyboard-response,4
true,6,1,2,0,false,q,true,false,0.0-2.0-0.11-0.101-3.101,0,1,1,90,false,stim,false,0,784.7000000029802,1,1,1,80221,task3,626609,false,false,439,image-keyboard-response,5
true,6,0,2,1,false,z,true,false,0.0-2.0-0.11-0.102-3.102,0,1,1,81,false,stim,false,1,2057.9000000059605,1,1,2,80221,task3,630874,false,false,442,image-keyboard-response,6
true,6,0,2,1,false,z,true,true,0.0-2.0-0.11-0.103-3.103,0,1,1,81,false,stim,false,2,3051.800000011921,1,0,0,80221,task3,636877,false,true,445,image-keyboard-response,7
true,6,1,2,1,true,z,false,true,0.0-2.0-0.11-0.104-3.104,0,1,1,90,false,stim,false,1,1055.0999999940395,1,1,2,80221,task3,640880,false,false,448,image-keyboard-response,8
true,6,0,2,1,false,z,true,false,0.0-2.0-0.11-0.105-3.105,0,1,1,81,false,stim,false,2,1606.2000000029802,1,0,0,80221,task3,645434,false,false,451,image-keyboard-response,9
true,6,2,2,1,false,z,false,false,0.0-2.0-0.11-0.106-3.106,0,1,1,68,false,stim,true,2,1980.3999999910593,1,0,0,80221,task3,649799,false,false,454,image-keyboard-response,10
true,6,2,2,0,false,q,true,false,0.0-2.0-0.11-0.107-3.107,0,1,1,68,false,stim,false,0,833.7999999970198,1,1,1,80221,task3,652648,false,false,457,image-keyboard-response,11
true,6,1,2,1,true,z,false,true,0.0-2.0-0.12-0.108-3.108,0,1,1,90,false,stim,false,1,1286.9000000059605,1,1,2,80221,task3,656111,false,false,460,image-keyboard-response,12
true,6,0,2,1,false,z,true,false,0.0-2.0-0.12-0.109-3.109,0,1,1,81,false,stim,false,2,1352.5,1,0,0,80221,task3,660169,false,false,463,image-keyboard-response,13
true,6,0,2,1,false,z,true,false,0.0-2.0-0.12-0.110-3.110,0,1,1,81,false,stim,false,1,1030.199999988079,1,1,2,80221,task3,663849,false,false,466,image-keyboard-response,14
true,6,0,2,1,false,z,true,false,0.0-2.0-0.12-0.111-3.111,0,1,1,81,false,stim,false,2,2421.5,1,0,0,80221,task3,669243,false,false,469,image-keyboard-response,15
true,6,0,2,0,true,q,false,true,0.0-2.0-0.12-0.112-3.112,0,1,1,81,false,stim,false,0,1598.4000000059605,1,1,1,80221,task3,673415,false,false,472,image-keyboard-response,16
true,6,0,2,0,true,q,false,false,0.0-2.0-0.12-0.113-3.113,0,1,1,81,false,stim,false,0,949.7999999970198,1,1,1,80221,task3,676763,false,true,475,image-keyboard-response,17
true,6,2,2,1,false,z,true,false,0.0-2.0-0.12-0.114-3.114,0,1,1,68,false,stim,false,1,1524.5,1,1,2,80221,task3,680350,false,false,478,image-keyboard-response,18
true,6,2,2,1,false,z,false,false,0.0-2.0-0.12-0.115-3.115,0,1,1,68,false,stim,true,2,1443.0999999940395,1,0,0,80221,task3,684257,false,false,481,image-keyboard-response,19
true,6,0,2,0,true,q,false,false,0.0-2.0-0.12-0.116-3.116,0,1,1,81,false,stim,false,0,653.2000000029802,1,1,1,80221,task3,687475,false,true,484,image-keyboard-response,20
true,6,0,2,0,true,q,false,true,0.0-2.0-0.13-0.117-3.117,0,1,1,81,false,stim,false,0,676.7000000029802,1,1,1,80221,task3,690501,false,false,487,image-keyboard-response,21
true,6,0,2,1,false,z,true,true,0.0-2.0-0.13-0.118-3.118,0,1,1,81,false,stim,false,2,1534.5,1,0,0,80221,task3,694348,false,true,490,image-keyboard-response,22
true,6,0,2,0,true,q,false,true,0.0-2.0-0.13-0.119-3.119,0,1,1,81,false,stim,false,0,746.2000000029802,1,1,1,80221,task3,697562,false,false,493,image-keyboard-response,23
true,6,0,2,1,false,z,true,false,0.0-2.0-0.13-0.120-3.120,0,1,1,81,false,stim,false,2,1645.4000000059605,1,0,0,80221,task3,701464,false,false,496,image-keyboard-response,24
true,6,1,2,1,true,z,false,true,0.0-2.0-0.13-0.121-3.121,0,1,1,90,false,stim,false,1,1755.0999999940395,1,1,2,80221,task3,705580,false,false,499,image-keyboard-response,25
true,6,1,2,1,true,z,false,true,0.0-2.0-0.13-0.122-3.122,0,1,1,90,false,stim,false,1,808.4000000059605,1,1,2,80221,task3,708629,false,false,502,image-keyboard-response,26
true,6,1,2,1,true,z,false,true,0.0-2.0-0.13-0.123-3.123,0,1,1,90,false,stim,false,1,874.7999999970198,1,1,2,80221,task3,711695,false,false,505,image-keyboard-response,27
true,6,0,2,0,true,q,false,true,0.0-2.0-0.13-0.124-3.124,0,1,1,81,false,stim,false,0,1430.9000000059605,1,1,1,80221,task3,715252,false,false,508,image-keyboard-response,28
true,6,0,2,1,false,z,true,false,0.0-2.0-0.13-0.125-3.125,0,1,1,81,false,stim,false,2,2431.0999999940395,1,0,0,80221,task3,720251,false,false,511,image-keyboard-response,29
true,7,0,2,0,true,q,false,false,0.0-2.0-0.14-0.126-3.126,0,1,1,81,true,stim,false,0,1220.5,1,1,1,80221,task3,724040,false,true,514,image-keyboard-response,1
true,7,1,2,1,true,z,false,true,0.0-2.0-0.14-0.127-3.127,0,1,1,90,false,stim,false,1,1329.2000000029802,1,1,2,80221,task3,728150,false,false,517,image-keyboard-response,2
true,7,1,2,1,true,z,false,true,0.0-2.0-0.14-0.128-3.128,0,1,1,90,false,stim,false,1,1047.0,1,1,2,80221,task3,731868,false,false,520,image-keyboard-response,3
true,7,0,2,0,true,q,false,true,0.0-2.0-0.14-0.129-3.129,0,1,1,81,false,stim,false,1,1551.6000000089407,1,0,0,80221,task3,736368,false,false,523,image-keyboard-response,4
true,7,0,2,0,true,q,false,true,0.0-2.0-0.14-0.130-3.130,0,1,1,81,false,stim,false,1,1627.2999999970198,1,0,0,80221,task3,740447,false,false,526,image-keyboard-response,5
true,7,0,2,0,true,q,false,true,0.0-2.0-0.14-0.131-3.131,0,1,1,81,false,stim,false,0,1564.2000000029802,1,1,1,80221,task3,744391,false,false,529,image-keyboard-response,6
true,7,0,2,0,true,q,false,true,0.0-2.0-0.14-0.132-3.132,0,1,1,81,false,stim,false,0,2151.0,1,1,1,80221,task3,748966,false,false,532,image-keyboard-response,7
true,7,1,2,0,false,q,false,false,0.0-2.0-0.14-0.133-3.133,0,1,1,90,false,stim,true,1,917.5999999940395,1,1,0,80221,task3,752734,false,false,535,image-keyboard-response,8
true,7,0,2,1,false,z,true,false,0.0-2.0-0.14-0.134-3.134,0,1,1,81,false,stim,false,1,1680.7999999970198,1,0,2,80221,task3,756501,false,false,538,image-keyboard-response,9
true,7,2,2,1,false,z,true,false,0.0-2.0-0.15-0.135-3.135,0,1,1,68,false,stim,false,1,1860.7000000029802,1,0,2,80221,task3,760686,false,false,541,image-keyboard-response,10
true,7,0,2,0,true,q,false,true,0.0-2.0-0.15-0.136-3.136,0,1,1,81,false,stim,false,1,1280.699999988079,1,1,0,80221,task3,764094,false,false,544,image-keyboard-response,11
true,7,0,2,0,true,q,false,true,0.0-2.0-0.15-0.137-3.137,0,1,1,81,false,stim,false,0,1455.2999999970198,1,1,1,80221,task3,768275,false,false,547,image-keyboard-response,12
true,8,0,2,0,true,q,false,true,0.0-2.0-0.15-0.138-3.138,1,1,0,81,true,stim,false,0,580.8000000119209,1,1,1,80221,task3,771404,false,false,550,image-keyboard-response,1
true,8,1,2,2,false,d,false,false,0.0-2.0-0.15-0.139-3.139,1,1,0,90,false,stim,true,1,2084.3999999910593,1,0,2,80221,task3,775899,false,false,553,image-keyboard-response,2
true,8,0,2,2,false,d,true,false,0.0-2.0-0.15-0.140-3.140,1,1,0,81,false,stim,false,1,1033.7000000029802,1,0,2,80221,task3,779861,false,false,556,image-keyboard-response,3
true,8,0,2,0,true,q,false,true,0.0-2.0-0.15-0.141-3.141,1,1,0,81,false,stim,false,0,1333.5,1,1,1,80221,task3,784160,false,false,559,image-keyboard-response,4
true,8,2,2,0,false,q,true,false,0.0-2.0-0.15-0.142-3.142,1,1,0,68,false,stim,false,0,1031.7999999970198,1,1,0,80221,task3,787847,false,false,562,image-keyboard-response,5
true,8,2,2,0,false,q,true,false,0.0-2.0-0.15-0.143-3.143,1,1,0,68,false,stim,false,0,888.5,1,1,0,80221,task3,791709,false,false,565,image-keyboard-response,6
true,8,1,2,0,false,q,true,false,0.0-2.0-0.16-0.144-3.144,1,1,0,90,false,stim,false,0,2521.0999999940395,1,1,0,80221,task3,796346,false,false,568,image-keyboard-response,7
true,8,1,2,2,false,d,false,false,0.0-2.0-0.16-0.145-3.145,1,1,0,90,false,stim,true,1,1193.2000000029802,1,1,2,80221,task3,800009,false,false,571,image-keyboard-response,8
true,8,0,2,0,true,q,false,true,0.0-2.0-0.16-0.146-3.146,1,1,0,81,false,stim,false,0,1483.8999999910593,1,0,1,80221,task3,804305,false,false,574,image-keyboard-response,9
true,8,0,2,0,true,q,false,false,0.0-2.0-0.16-0.147-3.147,1,1,0,81,false,stim,false,0,1910.0,1,1,0,80221,task3,808731,false,true,577,image-keyboard-response,10
true,8,2,2,2,true,d,false,true,0.0-2.0-0.16-0.148-3.148,1,1,0,68,false,stim,false,1,930.9000000059605,1,1,2,80221,task3,811758,false,false,580,image-keyboard-response,11
true,8,0,2,0,true,q,false,true,0.0-2.0-0.16-0.149-3.149,1,1,0,81,false,stim,false,0,1548.0999999940395,1,0,1,80221,task3,815367,false,false,583,image-keyboard-response,12
true,9,0,2,1,false,z,false,false,0.0-2.0-0.16-0.150-3.150,1,0,1,81,true,stim,true,0,855.7999999970198,1,0,1,80221,task3,818673,false,false,586,image-keyboard-response,1
true,9,2,2,2,true,d,false,true,0.0-2.0-0.16-0.151-3.151,1,0,1,68,false,stim,false,2,1552.0999999940395,1,1,2,80221,task3,822365,false,false,589,image-keyboard-response,2
true,9,1,2,0,false,q,true,true,0.0-2.0-0.16-0.152-3.152,1,0,1,90,false,stim,false,0,1521.8999999910593,1,1,0,80221,task3,826334,false,true,592,image-keyboard-response,3
true,9,1,2,0,false,q,true,false,0.0-2.0-0.17-0.153-3.153,1,0,1,90,false,stim,false,0,802.7999999970198,1,1,0,80221,task3,829627,false,false,595,image-keyboard-response,4
true,9,0,2,1,false,z,false,true,0.0-2.0-0.17-0.154-3.154,1,0,1,81,false,stim,true,0,1059.0,1,0,1,80221,task3,832881,false,true,598,image-keyboard-response,5
true,9,1,2,2,false,d,true,false,0.0-2.0-0.17-0.155-3.155,1,0,1,90,false,stim,false,2,1496.0,1,1,2,80221,task3,837325,false,false,601,image-keyboard-response,6
true,9,0,2,1,false,z,false,false,0.0-2.0-0.17-0.156-3.156,1,0,1,81,false,stim,true,0,800.7999999970198,1,0,1,80221,task3,840628,false,false,604,image-keyboard-response,7
true,9,1,2,2,false,d,true,false,0.0-2.0-0.17-0.157-3.157,1,0,1,90,false,stim,false,2,795.9000000059605,1,1,2,80221,task3,843613,false,false,607,image-keyboard-response,8
true,9,2,2,2,true,d,false,true,0.0-2.0-0.17-0.158-3.158,1,0,1,68,false,stim,false,2,1289.0999999940395,1,0,2,80221,task3,847112,false,false,610,image-keyboard-response,9
true,9,2,2,0,false,q,true,false,0.0-2.0-0.17-0.159-3.159,1,0,1,68,false,stim,false,0,637.6000000089407,1,1,0,80221,task3,850453,false,false,613,image-keyboard-response,10
true,9,2,2,0,false,q,true,false,0.0-2.0-0.17-0.160-3.160,1,0,1,68,false,stim,false,0,1754.5,1,1,0,80221,task3,854583,false,false,616,image-keyboard-response,11
true,9,0,2,1,false,z,false,false,0.0-2.0-0.17-0.161-3.161,1,0,1,81,false,stim,true,0,806.0,1,1,1,80221,task3,857627,false,false,619,image-keyboard-response,12
true,9,1,2,1,true,z,false,true,0.0-2.0-0.18-0.162-3.162,1,0,1,90,false,stim,false,0,888.1000000089407,1,1,1,80221,task3,860706,false,false,622,image-keyboard-response,13
true,10,1,2,1,true,z,false,false,0.0-2.0-0.18-0.163-3.163,1,1,0,90,true,stim,false,1,623.9000000059605,1,1,1,80221,task3,863450,false,true,625,image-keyboard-response,1
true,10,2,2,1,false,z,false,false,0.0-2.0-0.18-0.164-3.164,1,1,0,68,false,stim,true,2,776.4000000059605,1,0,2,80221,task3,866590,false,false,628,image-keyboard-response,2
true,10,1,2,1,true,z,false,true,0.0-2.0-0.18-0.165-3.165,1,1,0,90,false,stim,false,1,1190.0,1,1,1,80221,task3,870008,false,false,631,image-keyboard-response,3
true,10,0,2,1,false,z,true,false,0.0-2.0-0.18-0.166-3.166,1,1,0,81,false,stim,false,2,1447.300000011921,1,0,2,80221,task3,874270,false,false,634,image-keyboard-response,4
true,10,1,2,1,true,z,false,false,0.0-2.0-0.18-0.167-3.167,1,1,0,90,false,stim,false,2,1549.7999999970198,1,0,2,80221,task3,878373,false,true,637,image-keyboard-response,5
true,10,0,2,0,true,q,false,true,0.0-2.0-0.18-0.168-3.168,1,1,0,81,false,stim,false,0,2473.0999999940395,1,1,0,80221,task3,883290,false,false,640,image-keyboard-response,6
true,10,0,2,0,true,q,false,true,0.0-2.0-0.18-0.169-3.169,1,1,0,81,false,stim,false,0,814.9000000059605,1,1,0,80221,task3,886631,false,false,643,image-keyboard-response,7
true,10,0,2,0,true,q,false,true,0.0-2.0-0.18-0.170-3.170,1,1,0,81,false,stim,false,0,956.0999999940395,1,1,0,80221,task3,889779,false,false,646,image-keyboard-response,8
true,10,2,2,0,false,q,true,false,0.0-2.0-0.19-0.171-3.171,1,1,0,68,false,stim,false,0,1467.2000000029802,1,1,0,80221,task3,893292,false,false,649,image-keyboard-response,9
true,10,1,2,1,true,z,false,true,0.0-2.0-0.19-0.172-3.172,1,1,0,90,false,stim,false,1,1247.4000000059605,1,1,1,80221,task3,897076,false,false,652,image-keyboard-response,10
true,10,1,2,1,true,z,false,true,0.0-2.0-0.19-0.173-3.173,1,1,0,90,false,stim,false,2,1317.3999999910593,1,0,2,80221,task3,901134,false,false,655,image-keyboard-response,11
true,10,2,2,1,false,z,true,true,0.0-2.0-0.19-0.174-3.174,1,1,0,68,false,stim,false,1,2557.9000000059605,1,1,1,80221,task3,906373,false,true,658,image-keyboard-response,12
true,10,2,2,1,false,z,true,false,0.0-2.0-0.19-0.175-3.175,1,1,0,68,false,stim,false,1,785.5,1,1,1,80221,task3,909613,false,false,661,image-keyboard-response,13
true,10,1,2,0,false,q,true,false,0.0-2.0-0.19-0.176-3.176,1,1,0,90,false,stim,false,0,1154.7999999970198,1,1,0,80221,task3,912969,false,false,664,image-keyboard-response,14
true,10,0,2,1,false,z,true,false,0.0-2.0-0.19-0.177-3.177,1,1,0,81,false,stim,false,2,796.4000000059605,1,0,2,80221,task3,916622,false,false,667,image-keyboard-response,15
true,10,0,2,1,false,z,true,false,0.0-2.0-0.19-0.178-3.178,1,1,0,81,false,stim,false,2,1705.4000000059605,1,0,2,80221,task3,920520,false,false,670,image-keyboard-response,16
true,10,0,2,0,true,q,false,true,0.0-2.0-0.19-0.179-3.179,1,1,0,81,false,stim,false,0,805.2999999970198,1,1,0,80221,task3,923619,false,false,673,image-keyboard-response,17
true,10,0,2,0,true,q,false,true,0.0-2.0-0.20-0.180-3.180,1,1,0,81,false,stim,false,0,1325.0,1,1,0,80221,task3,927138,false,false,676,image-keyboard-response,18
true,10,0,2,0,true,q,false,true,0.0-2.0-0.20-0.181-3.181,1,1,0,81,false,stim,false,0,1476.3999999910593,1,1,0,80221,task3,931299,false,false,679,image-keyboard-response,19
true,10,2,2,1,false,z,true,false,0.0-2.0-0.20-0.182-3.182,1,1,0,68,false,stim,false,1,1745.0,1,1,1,80221,task3,935560,false,false,682,image-keyboard-response,20
true,10,2,2,1,false,z,false,false,0.0-2.0-0.20-0.183-3.183,1,1,0,68,false,stim,true,2,2189.1000000089407,1,0,2,80221,task3,940009,false,false,685,image-keyboard-response,21
true,10,1,2,1,true,z,false,true,0.0-2.0-0.20-0.184-3.184,1,1,0,90,false,stim,false,2,1169.2999999970198,1,0,2,80221,task3,943985,false,false,688,image-keyboard-response,22
true,10,1,2,1,true,z,false,true,0.0-2.0-0.20-0.185-3.185,1,1,0,90,false,stim,false,1,1252.6000000089407,1,1,1,80221,task3,948076,false,false,691,image-keyboard-response,23
true,10,0,2,0,true,q,false,true,0.0-2.0-0.20-0.186-3.186,1,1,0,81,false,stim,false,0,563.6999999880791,1,1,0,80221,task3,951388,false,false,694,image-keyboard-response,24
true,10,0,2,1,false,z,true,true,0.0-2.0-0.20-0.187-3.187,1,1,0,81,false,stim,false,1,1024.7999999970198,1,1,1,80221,task3,954839,false,true,697,image-keyboard-response,25
true,10,0,2,1,false,z,true,false,0.0-2.0-0.20-0.188-3.188,1,1,0,81,false,stim,false,2,1003.7999999970198,1,0,2,80221,task3,958823,false,false,700,image-keyboard-response,26
true,10,1,2,0,false,q,true,false,0.0-2.0-0.21-0.189-3.189,1,1,0,90,false,stim,false,0,1220.699999988079,1,1,0,80221,task3,963042,false,false,703,image-keyboard-response,27
true,11,1,2,0,false,q,true,false,0.0-2.0-0.21-0.190-3.190,1,1,0,90,true,stim,false,0,1595.7000000029802,1,1,0,80221,task3,967422,false,false,706,image-keyboard-response,1
true,11,2,2,0,false,q,true,false,0.0-2.0-0.21-0.191-3.191,1,1,0,68,false,stim,false,0,1886.2000000029802,1,1,0,80221,task3,971701,false,false,709,image-keyboard-response,2
true,11,0,2,0,true,q,false,true,0.0-2.0-0.21-0.192-3.192,1,1,0,81,false,stim,false,1,567.8000000119209,1,0,2,80221,task3,974383,false,false,712,image-keyboard-response,3
true,11,0,2,1,false,z,true,false,0.0-2.0-0.21-0.193-3.193,1,1,0,81,false,stim,false,1,582.2999999970198,1,1,1,80221,task3,977407,false,false,715,image-keyboard-response,4
true,11,1,2,1,true,z,false,true,0.0-2.0-0.21-0.194-3.194,1,1,0,90,false,stim,false,1,1078.7000000029802,1,1,1,80221,task3,980897,false,false,718,image-keyboard-response,5
true,11,0,2,0,true,q,false,true,0.0-2.0-0.21-0.195-3.195,1,1,0,81,false,stim,false,1,848.2000000029802,1,1,2,80221,task3,984672,false,false,721,image-keyboard-response,6
true,11,1,2,1,true,z,false,true,0.0-2.0-0.21-0.196-3.196,1,1,0,90,false,stim,false,1,1734.5,1,1,1,80221,task3,988563,false,false,724,image-keyboard-response,7
true,11,0,2,0,true,q,false,true,0.0-2.0-0.21-0.197-3.197,1,1,0,81,false,stim,false,1,1295.7999999970198,1,1,2,80221,task3,992110,false,false,727,image-keyboard-response,8
true,11,0,2,0,true,q,false,true,0.0-2.0-0.22-0.198-3.198,1,1,0,81,false,stim,false,0,1639.9000000059605,1,0,0,80221,task3,996461,false,false,730,image-keyboard-response,9
true,11,0,2,0,true,q,false,true,0.0-2.0-0.22-0.199-3.199,1,1,0,81,false,stim,false,0,1706.2000000029802,1,0,0,80221,task3,1000520,false,false,733,image-keyboard-response,10
true,12,0,2,0,true,q,false,true,0.0-2.0-0.22-0.200-3.200,0,1,1,81,true,stim,false,0,1607.5,1,1,2,80221,task3,1004428,false,false,736,image-keyboard-response,1
true,12,0,2,0,true,q,false,true,0.0-2.0-0.22-0.201-3.201,0,1,1,81,false,stim,false,0,1566.300000011921,1,1,2,80221,task3,1008382,false,false,739,image-keyboard-response,2
true,12,1,2,1,true,z,false,true,0.0-2.0-0.22-0.202-3.202,0,1,1,90,false,stim,false,1,979.5,1,1,1,80221,task3,1011806,false,false,742,image-keyboard-response,3
true,12,0,2,2,false,d,false,false,0.0-2.0-0.22-0.203-3.203,0,1,1,81,false,stim,true,0,682.7999999970198,1,0,0,80221,task3,1014499,false,false,745,image-keyboard-response,4
true,12,1,2,1,true,z,false,true,0.0-2.0-0.22-0.204-3.204,0,1,1,90,false,stim,false,1,859.7999999970198,1,1,1,80221,task3,1017682,false,false,748,image-keyboard-response,5
true,12,1,2,1,true,z,false,true,0.0-2.0-0.22-0.205-3.205,0,1,1,90,false,stim,false,1,685.5999999940395,1,1,1,80221,task3,1020513,false,false,751,image-keyboard-response,6
true,12,0,2,0,true,q,false,true,0.0-2.0-0.22-0.206-3.206,0,1,1,81,false,stim,false,0,898.7999999970198,1,1,2,80221,task3,1023714,false,false,754,image-keyboard-response,7
true,12,1,2,1,true,z,false,true,0.0-2.0-0.23-0.207-3.207,0,1,1,90,false,stim,false,1,723.9000000059605,1,1,1,80221,task3,1026547,false,false,757,image-keyboard-response,8
true,12,1,2,1,true,z,false,false,0.0-2.0-0.23-0.208-3.208,0,1,1,90,false,stim,false,1,1046.2000000029802,1,1,1,80221,task3,1029863,false,true,760,image-keyboard-response,9
true,12,1,2,1,true,z,false,true,0.0-2.0-0.23-0.209-3.209,0,1,1,90,false,stim,false,1,584.0999999940395,1,1,1,80221,task3,1033411,false,false,763,image-keyboard-response,10
true,12,0,2,2,false,d,false,true,0.0-2.0-0.23-0.210-3.210,0,1,1,81,false,stim,true,0,643.0999999940395,1,1,0,80221,task3,1036465,false,true,766,image-keyboard-response,11
true,12,0,2,0,true,q,false,true,0.0-2.0-0.23-0.211-3.211,0,1,1,81,false,stim,false,0,708.5,1,0,2,80221,task3,1039529,false,false,769,image-keyboard-response,12
true,12,0,2,2,false,d,false,false,0.0-2.0-0.23-0.212-3.212,0,1,1,81,false,stim,true,0,879.2999999970198,1,1,0,80221,task3,1042701,false,false,772,image-keyboard-response,13
true,12,0,2,2,false,d,false,false,0.0-2.0-0.23-0.213-3.213,0,1,1,81,false,stim,true,0,527.1000000089407,1,1,0,80221,task3,1045353,false,false,775,image-keyboard-response,14
true,13,0,2,2,false,d,false,false,0.0-2.0-0.23-0.214-3.214,1,1,0,81,true,stim,true,0,788.7999999970198,1,0,2,80221,task3,1048607,false,false,778,image-keyboard-response,1
true,13,0,2,2,false,d,false,false,0.0-2.0-0.23-0.215-3.215,1,1,0,81,false,stim,true,0,675.8000000119209,1,0,2,80221,task3,1051500,false,false,781,image-keyboard-response,2
true,13,0,2,2,false,d,false,false,0.0-2.0-0.24-0.216-3.216,1,1,0,81,false,stim,true,0,692.7999999970198,1,0,2,80221,task3,1054509,false,false,784,image-keyboard-response,3
true,13,2,2,2,true,d,false,true,0.0-2.0-0.24-0.217-3.217,1,1,0,68,false,stim,false,2,683.0999999940395,1,1,0,80221,task3,1057509,false,false,787,image-keyboard-response,4
true,13,1,2,1,true,z,false,true,0.0-2.0-0.24-0.218-3.218,1,1,0,90,false,stim,false,1,564.2000000029802,1,1,1,80221,task3,1060385,false,false,790,image-keyboard-response,5
true,13,1,2,1,true,z,false,true,0.0-2.0-0.24-0.219-3.219,1,1,0,90,false,stim,false,1,956.0,1,1,1,80221,task3,1063776,false,false,793,image-keyboard-response,6
true,13,2,2,2,true,d,false,true,0.0-2.0-0.24-0.220-3.220,1,1,0,68,false,stim,false,0,1557.5999999940395,1,0,2,80221,task3,1067382,false,false,796,image-keyboard-response,7
true,13,2,2,2,true,d,false,true,0.0-2.0-0.24-0.221-3.221,1,1,0,68,false,stim,false,0,852.3999999910593,1,0,2,80221,task3,1070671,false,false,799,image-keyboard-response,8
true,13,1,2,2,false,d,true,false,0.0-2.0-0.24-0.222-3.222,1,1,0,90,false,stim,false,2,2011.5999999940395,1,1,0,80221,task3,1074829,false,false,802,image-keyboard-response,9
true,13,2,2,2,true,d,false,true,0.0-2.0-0.24-0.223-3.223,1,1,0,68,false,stim,false,2,662.7999999970198,1,1,0,80221,task3,1078477,false,false,805,image-keyboard-response,10
true,13,1,2,1,true,z,false,true,0.0-2.0-0.24-0.224-3.224,1,1,0,90,false,stim,false,1,1357.2999999970198,1,1,1,80221,task3,1082174,false,false,808,image-keyboard-response,11
true,13,2,2,2,true,d,false,true,0.0-2.0-0.25-0.225-3.225,1,1,0,68,false,stim,false,0,900.7000000029802,1,0,2,80221,task3,1085728,false,false,811,image-keyboard-response,12
true,13,2,2,2,true,d,false,true,0.0-2.0-0.25-0.226-3.226,1,1,0,68,false,stim,false,0,1559.4000000059605,1,0,2,80221,task3,1089385,false,false,814,image-keyboard-response,13
true,13,1,2,1,true,z,false,true,0.0-2.0-0.25-0.227-3.227,1,1,0,90,false,stim,false,1,701.0,1,1,1,80221,task3,1092523,false,false,817,image-keyboard-response,14
true,13,1,2,1,true,z,false,false,0.0-2.0-0.25-0.228-3.228,1,1,0,90,false,stim,false,1,1238.5,1,1,1,80221,task3,1096063,false,true,820,image-keyboard-response,15
true,13,2,2,2,true,d,false,false,0.0-2.0-0.25-0.229-3.229,1,1,0,68,false,stim,false,2,1177.2999999970198,1,1,0,80221,task3,1099993,false,true,823,image-keyboard-response,16
true,13,1,2,1,true,z,false,true,0.0-2.0-0.25-0.230-3.230,1,1,0,90,false,stim,false,1,853.9000000059605,1,1,1,80221,task3,1103670,false,false,826,image-keyboard-response,17
true,13,2,2,2,true,d,false,true,0.0-2.0-0.25-0.231-3.231,1,1,0,68,false,stim,false,0,2047.2999999970198,1,0,2,80221,task3,1107871,false,false,829,image-keyboard-response,18
true,13,2,2,2,true,d,false,true,0.0-2.0-0.25-0.232-3.232,1,1,0,68,false,stim,false,2,2204.8999999910593,1,1,0,80221,task3,1113025,false,false,832,image-keyboard-response,19
true,13,2,2,2,true,d,false,true,0.0-2.0-0.25-0.233-3.233,1,1,0,68,false,stim,false,2,2188.7999999970198,1,1,0,80221,task3,1118003,false,false,835,image-keyboard-response,20
true,13,2,2,2,true,d,false,false,0.0-2.0-0.26-0.234-3.234,1,1,0,68,false,stim,false,0,2059.5999999940395,1,0,2,80221,task3,1122878,false,true,838,image-keyboard-response,21
true,13,1,2,1,true,z,false,true,0.0-2.0-0.26-0.235-3.235,1,1,0,90,false,stim,false,1,1266.2000000029802,1,1,1,80221,task3,1127081,false,false,841,image-keyboard-response,22
true,13,1,2,1,true,z,false,true,0.0-2.0-0.26-0.236-3.236,1,1,0,90,false,stim,false,1,1129.6000000089407,1,1,1,80221,task3,1130950,false,false,844,image-keyboard-response,23
true,13,2,2,2,true,d,false,true,0.0-2.0-0.26-0.237-3.237,1,1,0,68,false,stim,false,2,2287.699999988079,1,1,0,80221,task3,1136113,false,false,847,image-keyboard-response,24
true,13,1,2,1,true,z,false,true,0.0-2.0-0.26-0.238-3.238,1,1,0,90,false,stim,false,1,980.5,1,0,1,80221,task3,1139796,false,false,850,image-keyboard-response,25
true,13,2,2,2,true,d,false,true,0.0-2.0-0.26-0.239-3.239,1,1,0,68,false,stim,false,0,926.7000000029802,1,0,2,80221,task3,1142743,false,false,853,image-keyboard-response,26
true,13,2,2,2,true,d,false,true,0.0-2.0-0.26-0.240-3.240,1,1,0,68,false,stim,false,0,613.2999999970198,1,0,2,80221,task3,1145432,false,false,856,image-keyboard-response,27
true,13,1,2,2,false,d,true,false,0.0-2.0-0.26-0.241-3.241,1,1,0,90,false,stim,false,2,554.1000000089407,1,1,0,80221,task3,1148379,false,false,859,image-keyboard-response,28
true,13,2,2,2,true,d,false,true,0.0-2.0-0.26-0.242-3.242,1,1,0,68,false,stim,false,2,561.3000000119209,1,1,0,80221,task3,1151380,false,false,862,image-keyboard-response,29
true,14,2,1,2,true,d,false,true,0.0-2.0-0.27-0.243-3.243,1,0,0,68,true,stim,false,2,1771.3999999910593,1,1,0,80221,task3,1155585,false,false,865,image-keyboard-response,1
true,14,1,1,2,false,d,false,false,0.0-2.0-0.27-0.244-3.244,1,0,0,90,false,stim,true,1,1049.199999988079,1,0,1,80221,task3,1158872,false,false,868,image-keyboard-response,2
true,14,2,1,2,true,d,false,true,0.0-2.0-0.27-0.245-3.245,1,0,0,68,false,stim,false,2,1007.7999999970198,1,1,0,80221,task3,1162824,false,false,871,image-keyboard-response,3
true,14,2,1,1,false,z,false,true,0.0-2.0-0.27-0.246-3.246,1,0,0,68,false,stim,true,2,635.7000000029802,1,0,2,80221,task3,1166452,false,true,874,image-keyboard-response,4
true,14,1,1,2,false,d,false,false,0.0-2.0-0.27-0.247-3.247,1,0,0,90,false,stim,true,1,1016.9000000059605,1,0,1,80221,task3,1169839,false,false,877,image-keyboard-response,5
true,14,2,1,1,false,z,false,false,0.0-2.0-0.27-0.248-3.248,1,0,0,68,false,stim,true,2,892.5,1,0,2,80221,task3,1173716,false,false,880,image-keyboard-response,6
true,14,2,1,2,true,d,false,true,0.0-2.0-0.27-0.249-3.249,1,0,0,68,false,stim,false,2,1468.0999999940395,1,1,0,80221,task3,1177284,false,false,883,image-keyboard-response,7
true,14,2,1,1,false,z,false,false,0.0-2.0-0.27-0.250-3.250,1,0,0,68,false,stim,true,2,2236.9000000059605,1,0,2,80221,task3,1182055,false,false,886,image-keyboard-response,8
true,14,1,1,2,false,d,false,false,0.0-2.0-0.27-0.251-3.251,1,0,0,90,false,stim,true,1,1068.4000000059605,1,0,1,80221,task3,1185891,false,false,889,image-keyboard-response,9
true,14,2,1,1,false,z,false,true,0.0-2.0-0.28-0.252-3.252,1,0,0,68,false,stim,true,2,969.7999999970198,1,0,2,80221,task3,1189785,false,true,892,image-keyboard-response,10
true,14,2,1,1,false,z,false,true,0.0-2.0-0.28-0.253-3.253,1,0,0,68,false,stim,true,2,2748.2000000029802,1,0,2,80221,task3,1194574,false,true,895,image-keyboard-response,11
true,14,0,1,2,false,d,true,false,0.0-2.0-0.28-0.254-3.254,1,0,0,81,false,stim,false,2,2324.6000000089407,1,1,0,80221,task3,1199150,false,false,898,image-keyboard-response,12
true,14,1,1,2,false,d,false,false,0.0-2.0-0.28-0.255-3.255,1,0,0,90,false,stim,true,1,1211.2000000029802,1,0,1,80221,task3,1203042,false,false,901,image-keyboard-response,13
true,14,2,1,2,true,d,false,true,0.0-2.0-0.28-0.256-3.256,1,0,0,68,false,stim,false,2,2092.3999999910593,1,1,0,80221,task3,1207921,false,false,904,image-keyboard-response,14
true,14,2,1,2,true,d,false,true,0.0-2.0-0.28-0.257-3.257,1,0,0,68,false,stim,false,1,1739.6000000089407,1,0,1,80221,task3,1212554,false,false,907,image-keyboard-response,15
true,14,2,1,2,true,d,false,true,0.0-2.0-0.28-0.258-3.258,1,0,0,68,false,stim,false,2,1083.7999999970198,1,1,0,80221,task3,1215906,false,false,910,image-keyboard-response,16
true,14,2,1,2,true,d,false,true,0.0-2.0-0.28-0.259-3.259,1,0,0,68,false,stim,false,1,1246.8999999910593,1,0,1,80221,task3,1220064,false,false,913,image-keyboard-response,17
true,14,0,1,1,false,z,true,false,0.0-2.0-0.28-0.260-3.260,1,0,0,81,false,stim,false,2,1551.8999999910593,1,0,2,80221,task3,1224379,false,false,916,image-keyboard-response,18
true,14,2,1,1,false,z,false,false,0.0-2.0-0.29-0.261-3.261,1,0,0,68,false,stim,true,2,890.8999999910593,1,0,2,80221,task3,1227709,false,false,919,image-keyboard-response,19
true,14,0,1,1,false,z,true,false,0.0-2.0-0.29-0.262-3.262,1,0,0,81,false,stim,false,2,1636.2000000029802,1,0,2,80221,task3,1231461,false,false,922,image-keyboard-response,20
true,14,0,1,2,false,d,true,false,0.0-2.0-0.29-0.263-3.263,1,0,0,81,false,stim,false,2,1695.300000011921,1,1,0,80221,task3,1235511,false,false,925,image-keyboard-response,21
true,14,2,1,2,true,d,false,true,0.0-2.0-0.29-0.264-3.264,1,0,0,68,false,stim,false,2,1235.8999999910593,1,1,0,80221,task3,1239051,false,false,928,image-keyboard-response,22
true,14,2,1,2,true,d,false,true,0.0-2.0-0.29-0.265-3.265,1,0,0,68,false,stim,false,1,1967.5,1,0,1,80221,task3,1243792,false,false,931,image-keyboard-response,23
true,14,2,1,1,false,z,false,false,0.0-2.0-0.29-0.266-3.266,1,0,0,68,false,stim,true,2,2133.5999999940395,1,0,2,80221,task3,1247951,false,false,934,image-keyboard-response,24
true,14,2,1,2,true,d,false,true,0.0-2.0-0.29-0.267-3.267,1,0,0,68,false,stim,false,2,1183.6000000089407,1,1,0,80221,task3,1252010,false,false,937,image-keyboard-response,25
true,14,2,1,2,true,d,false,true,0.0-2.0-0.29-0.268-3.268,1,0,0,68,false,stim,false,1,1330.300000011921,1,1,1,80221,task3,1256157,false,false,940,image-keyboard-response,26
true,14,2,1,2,true,d,false,true,0.0-2.0-0.29-0.269-3.269,1,0,0,68,false,stim,false,1,1160.4000000059605,1,1,1,80221,task3,1259979,false,false,943,image-keyboard-response,27
true,14,2,1,2,true,d,false,true,0.0-2.0-0.30-0.270-3.270,1,0,0,68,false,stim,false,2,1700.2000000029802,1,1,0,80221,task3,1264519,false,false,946,image-keyboard-response,28
true,15,1,2,0,false,q,false,false,0.0-2.0-0.30-0.271-3.271,1,1,0,90,true,stim,true,1,1437.2999999970198,1,0,2,80221,task3,1268260,false,false,949,image-keyboard-response,1
true,15,2,2,2,true,d,false,true,0.0-2.0-0.30-0.272-3.272,1,1,0,68,false,stim,false,2,1340.5,1,1,1,80221,task3,1272168,false,false,952,image-keyboard-response,2
true,15,2,2,0,false,q,true,false,0.0-2.0-0.30-0.273-3.273,1,1,0,68,false,stim,false,1,983.2000000029802,1,0,2,80221,task3,1275802,false,false,955,image-keyboard-response,3
true,15,0,2,2,false,d,true,false,0.0-2.0-0.30-0.274-3.274,1,1,0,81,false,stim,false,2,1390.7999999970198,1,1,0,80221,task3,1279218,false,false,958,image-keyboard-response,4
true,15,0,2,2,false,d,true,false,0.0-2.0-0.30-0.275-3.275,1,1,0,81,false,stim,false,2,1141.0999999940395,1,1,0,80221,task3,1282957,false,false,961,image-keyboard-response,5
true,15,2,2,2,true,d,false,true,0.0-2.0-0.30-0.276-3.276,1,1,0,68,false,stim,false,2,1227.800000011921,1,1,1,80221,task3,1287048,false,false,964,image-keyboard-response,6
true,15,0,2,0,true,q,false,true,0.0-2.0-0.30-0.277-3.277,1,1,0,81,false,stim,false,1,2026.2000000029802,1,0,2,80221,task3,1291854,false,false,967,image-keyboard-response,7
true,15,2,2,2,true,d,false,true,0.0-2.0-0.30-0.278-3.278,1,1,0,68,false,stim,false,2,1081.5,1,1,1,80221,task3,1295905,false,false,970,image-keyboard-response,8
true,15,2,2,2,true,d,false,true,0.0-2.0-0.31-0.279-3.279,1,1,0,68,false,stim,false,2,895.8999999910593,1,1,0,80221,task3,1299710,false,false,973,image-keyboard-response,9
true,15,0,2,0,true,q,false,false,0.0-2.0-0.31-0.280-3.280,1,1,0,81,false,stim,false,1,3023.4000000059605,1,1,2,80221,task3,1304849,false,true,976,image-keyboard-response,10
true,15,2,2,2,true,d,false,true,0.0-2.0-0.31-0.281-3.281,1,1,0,68,false,stim,false,2,1946.5,1,0,0,80221,task3,1309773,false,false,979,image-keyboard-response,11
true,15,2,2,2,true,d,false,true,0.0-2.0-0.31-0.282-3.282,1,1,0,68,false,stim,false,2,726.2000000029802,1,0,0,80221,task3,1312543,false,false,982,image-keyboard-response,12
true,15,0,2,2,false,d,true,false,0.0-2.0-0.31-0.283-3.283,1,1,0,81,false,stim,false,2,1556.3999999910593,1,1,1,80221,task3,1316379,false,false,985,image-keyboard-response,13
true,15,0,2,2,false,d,true,false,0.0-2.0-0.31-0.284-3.284,1,1,0,81,false,stim,false,2,1389.7999999970198,1,1,1,80221,task3,1320212,false,false,988,image-keyboard-response,14
true,16,1,2,0,false,q,true,false,0.0-2.0-0.31-0.285-3.285,0,1,1,90,true,stim,false,0,980.0,1,1,2,80221,task3,1323803,false,false,991,image-keyboard-response,1
true,16,0,2,0,true,q,false,true,0.0-2.0-0.31-0.286-3.286,0,1,1,81,false,stim,false,0,2552.6000000089407,1,1,2,80221,task3,1328366,false,false,994,image-keyboard-response,2
true,16,2,2,2,true,d,false,true,0.0-2.0-0.31-0.287-3.287,0,1,1,68,false,stim,false,2,2153.5,1,1,1,80221,task3,1332968,false,false,997,image-keyboard-response,3
true,16,0,2,0,true,q,false,true,0.0-2.0-0.32-0.288-3.288,0,1,1,81,false,stim,false,0,1597.800000011921,1,1,2,80221,task3,1337426,false,false,1000,image-keyboard-response,4
true,16,2,2,1,false,z,false,false,0.0-2.0-0.32-0.289-3.289,0,1,1,68,false,stim,true,2,1193.5,1,0,0,80221,task3,1341013,false,false,1003,image-keyboard-response,5
true,16,0,2,1,false,z,true,false,0.0-2.0-0.32-0.290-3.290,0,1,1,81,false,stim,false,2,2314.2999999970198,1,0,0,80221,task3,1346134,false,false,1006,image-keyboard-response,6
true,16,2,2,0,false,q,true,false,0.0-2.0-0.32-0.291-3.291,0,1,1,68,false,stim,false,0,1253.5,1,1,2,80221,task3,1350074,false,false,1009,image-keyboard-response,7
true,16,2,2,2,true,d,false,true,0.0-2.0-0.32-0.292-3.292,0,1,1,68,false,stim,false,2,705.8999999910593,1,1,1,80221,task3,1353527,false,false,1012,image-keyboard-response,8
true,16,0,2,0,true,q,false,true,0.0-2.0-0.32-0.293-3.293,0,1,1,81,false,stim,false,0,951.1000000089407,1,1,2,80221,task3,1356770,false,false,1015,image-keyboard-response,9
true,16,2,2,1,false,z,false,false,0.0-2.0-0.32-0.294-3.294,0,1,1,68,false,stim,true,2,1150.5,1,0,0,80221,task3,1359972,false,false,1018,image-keyboard-response,10
true,16,0,2,2,false,d,true,false,0.0-2.0-0.32-0.295-3.295,0,1,1,81,false,stim,false,2,1116.2999999970198,1,1,1,80221,task3,1363943,false,false,1021,image-keyboard-response,11
true,16,2,2,2,true,d,false,true,0.0-2.0-0.32-0.296-3.296,0,1,1,68,false,stim,false,2,1615.0,1,1,1,80221,task3,1368434,false,false,1024,image-keyboard-response,12
true,16,0,2,0,true,q,false,true,0.0-2.0-0.33-0.297-3.297,0,1,1,81,false,stim,false,0,2956.0,1,1,2,80221,task3,1373773,false,false,1027,image-keyboard-response,13
true,16,2,2,2,true,d,false,true,0.0-2.0-0.33-0.298-3.298,0,1,1,68,false,stim,false,2,883.5999999940395,1,1,1,80221,task3,1376699,false,false,1030,image-keyboard-response,14
true,16,2,2,2,true,d,false,true,0.0-2.0-0.33-0.299-3.299,0,1,1,68,false,stim,false,2,1304.2000000029802,1,1,1,80221,task3,1380124,false,false,1033,image-keyboard-response,15
true,16,0,2,1,false,z,true,false,0.0-2.0-0.33-0.300-3.300,0,1,1,81,false,stim,false,2,961.2000000029802,1,0,0,80221,task3,1383775,false,false,1036,image-keyboard-response,16
true,16,2,2,1,false,z,false,false,0.0-2.0-0.33-0.301-3.301,0,1,1,68,false,stim,true,2,729.2000000029802,1,0,0,80221,task3,1386556,false,false,1039,image-keyboard-response,17
true,16,0,2,0,true,q,false,false,0.0-2.0-0.33-0.302-3.302,0,1,1,81,false,stim,false,0,751.0,1,1,2,80221,task3,1389572,false,true,1042,image-keyboard-response,18
true,16,0,2,0,true,q,false,true,0.0-2.0-0.33-0.303-3.303,0,1,1,81,false,stim,false,0,729.0999999940395,1,1,2,80221,task3,1392555,false,false,1045,image-keyboard-response,19
true,16,1,2,1,true,z,false,true,0.0-2.0-0.33-0.304-3.304,0,1,1,90,false,stim,false,2,1513.2999999970198,1,0,0,80221,task3,1396340,false,false,1048,image-keyboard-response,20
true,16,2,2,2,true,d,false,true,0.0-2.0-0.33-0.305-3.305,0,1,1,68,false,stim,false,2,695.7000000029802,1,1,1,80221,task3,1399521,false,false,1051,image-keyboard-response,21
true,16,0,2,0,true,q,false,true,0.0-2.0-0.34-0.306-3.306,0,1,1,81,false,stim,false,0,1150.4000000059605,1,1,2,80221,task3,1402970,false,false,1054,image-keyboard-response,22
true,16,2,2,2,true,d,false,true,0.0-2.0-0.34-0.307-3.307,0,1,1,68,false,stim,false,2,1698.0,1,1,1,80221,task3,1407522,false,false,1057,image-keyboard-response,23
true,16,0,2,1,false,z,true,false,0.0-2.0-0.34-0.308-3.308,0,1,1,81,false,stim,false,2,1860.2999999970198,1,0,0,80221,task3,1411677,false,false,1060,image-keyboard-response,24
true,16,0,2,0,true,q,false,true,0.0-2.0-0.34-0.309-3.309,0,1,1,81,false,stim,false,0,1834.4000000059605,1,0,2,80221,task3,1415656,false,false,1063,image-keyboard-response,25
true,16,1,2,1,true,z,false,true,0.0-2.0-0.34-0.310-3.310,0,1,1,90,false,stim,false,2,1632.699999988079,1,0,0,80221,task3,1419451,false,false,1066,image-keyboard-response,26
true,16,2,2,2,true,d,false,true,0.0-2.0-0.34-0.311-3.311,0,1,1,68,false,stim,false,2,908.1000000089407,1,1,1,80221,task3,1422731,false,false,1069,image-keyboard-response,27
true,16,1,2,1,true,z,false,true,0.0-2.0-0.34-0.312-3.312,0,1,1,90,false,stim,false,2,1555.1000000089407,1,0,0,80221,task3,1426370,false,false,1072,image-keyboard-response,28
true,17,2,1,2,true,d,false,true,0.0-2.0-0.34-0.313-3.313,0,1,0,68,true,stim,false,2,1279.9000000059605,1,1,1,80221,task3,1430105,false,false,1075,image-keyboard-response,1
true,17,0,1,1,false,z,false,false,0.0-2.0-0.34-0.314-3.314,0,1,0,81,false,stim,true,0,1230.5999999940395,1,0,2,80221,task3,1434047,false,false,1078,image-keyboard-response,2
true,17,1,1,0,false,q,false,false,0.0-2.0-0.35-0.315-3.315,0,1,0,90,false,stim,true,1,917.0,1,0,0,80221,task3,1437740,false,false,1081,image-keyboard-response,3
true,17,0,1,1,false,z,false,true,0.0-2.0-0.35-0.316-3.316,0,1,0,81,false,stim,true,0,1890.5,1,0,2,80221,task3,1441710,false,true,1084,image-keyboard-response,4
true,17,1,1,0,false,q,false,false,0.0-2.0-0.35-0.317-3.317,0,1,0,90,false,stim,true,1,1308.8999999910593,1,0,0,80221,task3,1445123,false,false,1087,image-keyboard-response,5
true,17,2,1,2,true,d,false,true,0.0-2.0-0.35-0.318-3.318,0,1,0,68,false,stim,false,2,1490.0999999940395,1,1,1,80221,task3,1449309,false,false,1090,image-keyboard-response,6
true,17,0,1,1,false,z,false,true,0.0-2.0-0.35-0.319-3.319,0,1,0,81,false,stim,true,0,2676.1000000089407,1,0,2,80221,task3,1454498,false,true,1093,image-keyboard-response,7
true,17,2,1,2,true,d,false,true,0.0-2.0-0.35-0.320-3.320,0,1,0,68,false,stim,false,2,1143.3999999910593,1,1,1,80221,task3,1457968,false,false,1096,image-keyboard-response,8
true,17,2,1,2,true,d,false,true,0.0-2.0-0.35-0.321-3.321,0,1,0,68,false,stim,false,2,1637.4000000059605,1,1,1,80221,task3,1462452,false,false,1099,image-keyboard-response,9
true,17,1,1,0,false,q,false,false,0.0-2.0-0.35-0.322-3.322,0,1,0,90,false,stim,true,1,2392.7000000029802,1,0,0,80221,task3,1467210,false,false,1102,image-keyboard-response,10
true,17,0,1,1,false,z,false,false,0.0-2.0-0.35-0.323-3.323,0,1,0,81,false,stim,true,0,2923.1000000089407,1,0,2,80221,task3,1472749,false,false,1105,image-keyboard-response,11
true,17,2,1,2,true,d,false,true,0.0-2.0-0.36-0.324-3.324,0,1,0,68,false,stim,false,2,1872.1000000089407,1,1,1,80221,task3,1476693,false,false,1108,image-keyboard-response,12
true,17,1,1,1,true,z,false,true,0.0-2.0-0.36-0.325-3.325,0,1,0,90,false,stim,false,0,2721.199999988079,1,0,2,80221,task3,1481541,false,false,1111,image-keyboard-response,13
true,17,1,1,0,false,q,false,false,0.0-2.0-0.36-0.326-3.326,0,1,0,90,false,stim,true,1,2377.0,1,0,0,80221,task3,1486197,false,false,1114,image-keyboard-response,14
true,17,2,1,1,false,z,true,false,0.0-2.0-0.36-0.327-3.327,0,1,0,68,false,stim,false,0,1272.699999988079,1,0,2,80221,task3,1490101,false,false,1117,image-keyboard-response,15
true,17,2,1,2,true,d,false,true,0.0-2.0-0.36-0.328-3.328,0,1,0,68,false,stim,false,2,615.5,1,1,1,80221,task3,1493435,false,false,1120,image-keyboard-response,16
true,17,1,1,1,true,z,false,true,0.0-2.0-0.36-0.329-3.329,0,1,0,90,false,stim,false,0,2573.7999999970198,1,0,2,80221,task3,1498387,false,false,1123,image-keyboard-response,17
true,17,1,1,0,false,q,false,false,0.0-2.0-0.36-0.330-3.330,0,1,0,90,false,stim,true,1,2098.5,1,0,0,80221,task3,1502919,false,false,1126,image-keyboard-response,18
true,17,1,1,0,false,q,false,false,0.0-2.0-0.36-0.331-3.331,0,1,0,90,false,stim,true,1,760.5,1,0,0,80221,task3,1506586,false,false,1129,image-keyboard-response,19
true,17,2,1,2,true,d,false,true,0.0-2.0-0.36-0.332-3.332,0,1,0,68,false,stim,false,2,829.0,1,1,1,80221,task3,1509649,false,false,1132,image-keyboard-response,20
true,17,2,1,0,false,q,true,true,0.0-2.0-0.37-0.333-3.333,0,1,0,68,false,stim,false,1,1232.6000000089407,1,0,0,80221,task3,1513047,false,true,1135,image-keyboard-response,21
true,17,0,1,1,false,z,false,false,0.0-2.0-0.37-0.334-3.334,0,1,0,81,false,stim,true,0,2782.9000000059605,1,0,2,80221,task3,1518605,false,false,1138,image-keyboard-response,22
true,17,2,1,2,true,d,false,true,0.0-2.0-0.37-0.335-3.335,0,1,0,68,false,stim,false,2,1814.199999988079,1,1,1,80221,task3,1522631,false,false,1141,image-keyboard-response,23
true,17,2,1,2,true,d,false,true,0.0-2.0-0.37-0.336-3.336,0,1,0,68,false,stim,false,2,1193.800000011921,1,1,1,80221,task3,1526019,false,false,1144,image-keyboard-response,24
true,17,0,1,1,false,z,false,false,0.0-2.0-0.37-0.337-3.337,0,1,0,81,false,stim,true,0,1219.9000000059605,1,0,2,80221,task3,1530035,false,false,1147,image-keyboard-response,25
true,17,2,1,2,true,d,false,true,0.0-2.0-0.37-0.338-3.338,0,1,0,68,false,stim,false,2,1285.2000000029802,1,1,1,80221,task3,1534107,false,false,1150,image-keyboard-response,26
true,17,1,1,0,false,q,false,false,0.0-2.0-0.37-0.339-3.339,0,1,0,90,false,stim,true,1,809.7000000029802,1,0,0,80221,task3,1537638,false,false,1153,image-keyboard-response,27
true,17,2,1,0,false,q,true,false,0.0-2.0-0.37-0.340-3.340,0,1,0,68,false,stim,false,1,1634.9000000059605,1,0,0,80221,task3,1541451,false,false,1156,image-keyboard-response,28
true,17,1,1,1,true,z,false,true,0.0-2.0-0.37-0.341-3.341,0,1,0,90,false,stim,false,0,883.9000000059605,1,0,2,80221,task3,1544712,false,false,1159,image-keyboard-response,29
true,18,1,1,1,true,z,false,true,0.0-2.0-0.38-0.342-3.342,0,1,0,90,true,stim,false,0,1298.199999988079,1,0,0,80221,task3,1548113,false,false,1162,image-keyboard-response,1
true,18,2,1,2,true,d,false,true,0.0-2.0-0.38-0.343-3.343,0,1,0,68,false,stim,false,2,703.9000000059605,1,1,1,80221,task3,1551531,false,false,1165,image-keyboard-response,2
true,18,2,1,2,true,d,false,true,0.0-2.0-0.38-0.344-3.344,0,1,0,68,false,stim,false,1,1047.5,1,0,2,80221,task3,1554867,false,false,1168,image-keyboard-response,3
true,18,2,1,1,false,z,true,true,0.0-2.0-0.38-0.345-3.345,0,1,0,68,false,stim,false,0,767.0,1,0,0,80221,task3,1558593,false,true,1171,image-keyboard-response,4
true,18,2,1,2,true,d,false,true,0.0-2.0-0.38-0.346-3.346,0,1,0,68,false,stim,false,2,757.6000000089407,1,1,1,80221,task3,1561574,false,false,1174,image-keyboard-response,5
true,18,2,1,2,true,d,false,true,0.0-2.0-0.38-0.347-3.347,0,1,0,68,false,stim,false,2,646.7000000029802,1,1,1,80221,task3,1564475,false,false,1177,image-keyboard-response,6
true,18,2,1,1,false,z,true,false,0.0-2.0-0.38-0.348-3.348,0,1,0,68,false,stim,false,0,929.3999999910593,1,0,0,80221,task3,1567755,false,false,1180,image-keyboard-response,7
true,18,1,1,2,false,d,false,false,0.0-2.0-0.38-0.349-3.349,0,1,0,90,false,stim,true,1,1125.5999999940395,1,0,2,80221,task3,1570943,false,false,1183,image-keyboard-response,8
true,18,2,1,2,true,d,false,true,0.0-2.0-0.38-0.350-3.350,0,1,0,68,false,stim,false,1,1332.2999999970198,1,0,2,80221,task3,1575158,false,false,1186,image-keyboard-response,9
true,18,2,1,2,true,d,false,true,0.0-2.0-0.39-0.351-3.351,0,1,0,68,false,stim,false,2,855.8999999910593,1,1,1,80221,task3,1578673,false,false,1189,image-keyboard-response,10
true,18,2,1,2,true,d,false,true,0.0-2.0-0.39-0.352-3.352,0,1,0,68,false,stim,false,1,1036.2000000029802,1,0,2,80221,task3,1581861,false,false,1192,image-keyboard-response,11
true,18,2,1,2,true,d,false,true,0.0-2.0-0.39-0.353-3.353,0,1,0,68,false,stim,false,2,1406.1000000089407,1,1,1,80221,task3,1586226,false,false,1195,image-keyboard-response,12
true,18,2,1,1,false,z,true,false,0.0-2.0-0.39-0.354-3.354,0,1,0,68,false,stim,false,0,922.3999999910593,1,0,0,80221,task3,1589749,false,false,1198,image-keyboard-response,13
true,18,2,1,2,true,d,false,true,0.0-2.0-0.39-0.355-3.355,0,1,0,68,false,stim,false,1,1087.0,1,0,2,80221,task3,1592914,false,false,1201,image-keyboard-response,14
true,18,2,1,2,true,d,false,true,0.0-2.0-0.39-0.356-3.356,0,1,0,68,false,stim,false,1,814.5,1,0,2,80221,task3,1596631,false,false,1204,image-keyboard-response,15
true,18,1,1,1,true,z,false,false,0.0-2.0-0.39-0.357-3.357,0,1,0,90,false,stim,false,0,1063.7999999970198,1,0,0,80221,task3,1599891,false,true,1207,image-keyboard-response,16
true,18,2,1,2,true,d,false,true,0.0-2.0-0.39-0.358-3.358,0,1,0,68,false,stim,false,2,1732.9000000059605,1,1,1,80221,task3,1604548,false,false,1210,image-keyboard-response,17
true,18,1,1,1,true,z,false,true,0.0-2.0-0.39-0.359-3.359,0,1,0,90,false,stim,false,0,2278.6000000089407,1,0,0,80221,task3,1609096,false,false,1213,image-keyboard-response,18
true,18,2,1,2,true,d,false,false,0.0-2.0-0.40-0.360-3.360,0,1,0,68,false,stim,false,1,894.5999999940395,1,0,2,80221,task3,1612720,false,true,1216,image-keyboard-response,19
true,18,2,1,2,true,d,false,true,0.0-2.0-0.40-0.361-3.361,0,1,0,68,false,stim,false,2,1536.0,1,1,1,80221,task3,1616355,false,false,1219,image-keyboard-response,20
true,18,2,1,1,false,z,true,false,0.0-2.0-0.40-0.362-3.362,0,1,0,68,false,stim,false,0,810.2000000029802,1,0,0,80221,task3,1619625,false,false,1222,image-keyboard-response,21
true,18,2,1,2,true,d,false,true,0.0-2.0-0.40-0.363-3.363,0,1,0,68,false,stim,false,2,1290.2999999970198,1,1,1,80221,task3,1623116,false,false,1225,image-keyboard-response,22
true,18,1,1,1,true,z,false,false,0.0-2.0-0.40-0.364-3.364,0,1,0,90,false,stim,false,0,961.4000000059605,1,0,0,80221,task3,1626780,false,true,1228,image-keyboard-response,23
true,18,2,1,2,true,d,false,true,0.0-2.0-0.40-0.365-3.365,0,1,0,68,false,stim,false,1,1146.7999999970198,1,0,2,80221,task3,1629960,false,false,1231,image-keyboard-response,24
true,18,2,1,2,true,d,false,true,0.0-2.0-0.40-0.366-3.366,0,1,0,68,false,stim,false,1,594.5999999940395,1,0,2,80221,task3,1633409,false,false,1234,image-keyboard-response,25
true,18,1,1,1,true,z,false,true,0.0-2.0-0.40-0.367-3.367,0,1,0,90,false,stim,false,0,1163.4000000059605,1,1,0,80221,task3,1636991,false,false,1237,image-keyboard-response,26
true,18,2,1,2,true,d,false,true,0.0-2.0-0.40-0.368-3.368,0,1,0,68,false,stim,false,2,1476.2999999970198,1,0,1,80221,task3,1641291,false,false,1240,image-keyboard-response,27
true,18,1,1,1,true,z,false,true,0.0-2.0-0.41-0.369-3.369,0,1,0,90,false,stim,false,0,1207.7999999970198,1,1,0,80221,task3,1645032,false,false,1243,image-keyboard-response,28
true,19,0,1,1,false,z,true,true,0.0-2.0-0.41-0.370-3.370,1,0,0,81,true,stim,false,1,1085.3999999910593,1,1,0,80221,task3,1648914,false,true,1246,image-keyboard-response,1
true,19,0,1,1,false,z,true,false,0.0-2.0-0.41-0.371-3.371,1,0,0,81,false,stim,false,1,2175.5,1,1,0,80221,task3,1653999,false,false,1249,image-keyboard-response,2
true,19,2,1,0,false,q,false,false,0.0-2.0-0.41-0.372-3.372,1,0,0,68,false,stim,true,2,716.7999999970198,1,0,1,80221,task3,1657534,false,false,1252,image-keyboard-response,3
true,19,2,1,0,false,q,false,false,0.0-2.0-0.41-0.373-3.373,1,0,0,68,false,stim,true,2,570.8999999910593,1,0,1,80221,task3,1660388,false,false,1255,image-keyboard-response,4
true,19,2,1,0,false,q,false,false,0.0-2.0-0.41-0.374-3.374,1,0,0,68,false,stim,true,2,459.0,1,0,1,80221,task3,1663286,false,false,1258,image-keyboard-response,5
true,19,2,1,0,false,q,false,false,0.0-2.0-0.41-0.375-3.375,1,0,0,68,false,stim,true,2,1210.7999999970198,1,0,2,80221,task3,1667028,false,false,1261,image-keyboard-response,6
true,19,2,1,0,false,q,false,false,0.0-2.0-0.41-0.376-3.376,1,0,0,68,false,stim,true,2,1728.7000000029802,1,0,2,80221,task3,1671557,false,false,1264,image-keyboard-response,7
true,19,0,1,0,true,q,false,false,0.0-2.0-0.41-0.377-3.377,1,0,0,81,false,stim,false,2,1430.3999999910593,1,0,2,80221,task3,1675253,false,true,1267,image-keyboard-response,8
true,19,0,1,1,false,z,true,true,0.0-2.0-0.42-0.378-3.378,1,0,0,81,false,stim,false,1,2098.3999999910593,1,1,0,80221,task3,1679924,false,true,1270,image-keyboard-response,9
true,19,2,1,1,false,z,true,false,0.0-2.0-0.42-0.379-3.379,1,0,0,68,false,stim,false,1,2074.6000000089407,1,1,0,80221,task3,1684894,false,false,1273,image-keyboard-response,10
true,19,1,1,0,false,q,true,false,0.0-2.0-0.42-0.380-3.380,1,0,0,90,false,stim,false,2,1269.7000000029802,1,0,1,80221,task3,1689091,false,false,1276,image-keyboard-response,11
true,19,1,1,0,false,q,true,false,0.0-2.0-0.42-0.381-3.381,1,0,0,90,false,stim,false,2,1143.1000000089407,1,0,2,80221,task3,1692964,false,false,1279,image-keyboard-response,12
true,19,0,1,0,true,q,false,true,0.0-2.0-0.42-0.382-3.382,1,0,0,81,false,stim,false,2,1642.6000000089407,1,0,2,80221,task3,1697458,false,false,1282,image-keyboard-response,13
true,19,0,1,0,true,q,false,true,0.0-2.0-0.42-0.383-3.383,1,0,0,81,false,stim,false,2,861.3999999910593,1,0,2,80221,task3,1700681,false,false,1285,image-keyboard-response,14
true,19,1,1,1,true,z,false,true,0.0-2.0-0.42-0.384-3.384,1,0,0,90,false,stim,false,1,1589.7999999970198,1,1,0,80221,task3,1704414,false,false,1288,image-keyboard-response,15
true,19,1,1,0,false,q,true,true,0.0-2.0-0.42-0.385-3.385,1,0,0,90,false,stim,false,2,1417.2999999970198,1,0,1,80221,task3,1708241,false,true,1291,image-keyboard-response,16
true,19,1,1,0,false,q,true,false,0.0-2.0-0.42-0.386-3.386,1,0,0,90,false,stim,false,2,882.3999999910593,1,0,1,80221,task3,1711699,false,false,1294,image-keyboard-response,17
true,19,1,1,0,false,q,true,false,0.0-2.0-0.43-0.387-3.387,1,0,0,90,false,stim,false,2,722.2000000029802,1,0,1,80221,task3,1714549,false,false,1297,image-keyboard-response,18
true,19,1,1,1,true,z,false,true,0.0-2.0-0.43-0.388-3.388,1,0,0,90,false,stim,false,1,1590.5,1,1,0,80221,task3,1718408,false,false,1300,image-keyboard-response,19
true,19,0,1,0,true,q,false,true,0.0-2.0-0.43-0.389-3.389,1,0,0,81,false,stim,false,2,1505.2000000029802,1,0,2,80221,task3,1722332,false,false,1303,image-keyboard-response,20
true,19,2,1,0,false,q,false,false,0.0-2.0-0.43-0.390-3.390,1,0,0,68,false,stim,true,2,1993.4000000059605,1,0,1,80221,task3,1726810,false,false,1306,image-keyboard-response,21
true,19,1,1,1,true,z,false,false,0.0-2.0-0.43-0.391-3.391,1,0,0,90,false,stim,false,1,2587.5,1,0,0,80221,task3,1731410,false,true,1309,image-keyboard-response,22
true,19,0,1,0,true,q,false,false,0.0-2.0-0.43-0.392-3.392,1,0,0,81,false,stim,false,2,975.2000000029802,1,1,2,80221,task3,1734797,false,true,1312,image-keyboard-response,23
true,19,2,1,0,false,q,false,true,0.0-2.0-0.43-0.393-3.393,1,0,0,68,false,stim,true,2,2206.199999988079,1,1,2,80221,task3,1739021,false,true,1315,image-keyboard-response,24
true,19,1,1,1,true,z,false,true,0.0-2.0-0.43-0.394-3.394,1,0,0,90,false,stim,false,1,1964.8999999910593,1,0,0,80221,task3,1743790,false,false,1318,image-keyboard-response,25
true,19,0,1,0,true,q,false,true,0.0-2.0-0.43-0.395-3.395,1,0,0,81,false,stim,false,2,1047.9000000059605,1,0,1,80221,task3,1746865,false,false,1321,image-keyboard-response,26
true,20,1,1,0,false,q,false,false,0.0-2.0-0.44-0.396-3.396,0,0,1,90,true,stim,true,1,784.5,1,0,0,80221,task3,1750601,false,false,1324,image-keyboard-response,1
true,20,1,1,0,false,q,false,false,0.0-2.0-0.44-0.397-3.397,0,0,1,90,false,stim,true,1,2551.7999999970198,1,0,0,80221,task3,1755364,false,false,1327,image-keyboard-response,2
true,20,2,1,0,false,q,true,false,0.0-2.0-0.44-0.398-3.398,0,0,1,68,false,stim,false,0,1947.2999999970198,1,1,2,80221,task3,1759766,false,false,1330,image-keyboard-response,3
true,20,0,1,0,true,q,false,true,0.0-2.0-0.44-0.399-3.399,0,0,1,81,false,stim,false,0,1250.2999999970198,1,1,2,80221,task3,1763070,false,false,1333,image-keyboard-response,4
true,20,0,1,0,true,q,false,true,0.0-2.0-0.44-0.400-3.400,0,0,1,81,false,stim,false,0,798.5,1,1,2,80221,task3,1766626,false,false,1336,image-keyboard-response,5
true,20,2,1,2,true,d,false,true,0.0-2.0-0.44-0.401-3.401,0,0,1,68,false,stim,false,0,2207.7000000029802,1,0,1,80221,task3,1771028,false,false,1339,image-keyboard-response,6
true,20,1,1,0,false,q,false,false,0.0-2.0-0.44-0.402-3.402,0,0,1,90,false,stim,true,1,734.8999999910593,1,0,0,80221,task3,1774549,false,false,1342,image-keyboard-response,7
true,20,2,1,2,true,d,false,true,0.0-2.0-0.44-0.403-3.403,0,0,1,68,false,stim,false,0,1253.2999999970198,1,0,1,80221,task3,1778079,false,false,1345,image-keyboard-response,8
true,20,2,1,2,true,d,false,true,0.0-2.0-0.44-0.404-3.404,0,0,1,68,false,stim,false,0,1520.800000011921,1,0,1,80221,task3,1782339,false,false,1348,image-keyboard-response,9
true,20,0,1,0,true,q,false,true,0.0-2.0-0.45-0.405-3.405,0,0,1,81,false,stim,false,1,1092.0,1,0,0,80221,task3,1785916,false,false,1351,image-keyboard-response,10
true,20,2,1,2,true,d,false,true,0.0-2.0-0.45-0.406-3.406,0,0,1,68,false,stim,false,0,1129.5999999940395,1,0,1,80221,task3,1789943,false,false,1354,image-keyboard-response,11
true,20,2,1,0,false,q,true,false,0.0-2.0-0.45-0.407-3.407,0,0,1,68,false,stim,false,1,2049.2999999970198,1,0,0,80221,task3,1794868,false,false,1357,image-keyboard-response,12
true,20,0,1,0,true,q,false,true,0.0-2.0-0.45-0.408-3.408,0,0,1,81,false,stim,false,0,971.5999999940395,1,1,2,80221,task3,1798797,false,false,1360,image-keyboard-response,13
true,20,0,1,0,true,q,false,true,0.0-2.0-0.45-0.409-3.409,0,0,1,81,false,stim,false,1,2011.7999999970198,1,0,0,80221,task3,1802826,false,false,1363,image-keyboard-response,14
true,20,0,1,0,true,q,false,true,0.0-2.0-0.45-0.410-3.410,0,0,1,81,false,stim,false,0,1546.0999999940395,1,1,2,80221,task3,1807367,false,false,1366,image-keyboard-response,15
true,20,0,1,0,true,q,false,true,0.0-2.0-0.45-0.411-3.411,0,0,1,81,false,stim,false,0,977.7999999970198,1,1,2,80221,task3,1810805,false,false,1369,image-keyboard-response,16
true,20,2,1,2,true,d,false,true,0.0-2.0-0.45-0.412-3.412,0,0,1,68,false,stim,false,0,723.2000000029802,1,0,1,80221,task3,1813537,false,false,1372,image-keyboard-response,17
true,20,2,1,2,true,d,false,true,0.0-2.0-0.45-0.413-3.413,0,0,1,68,false,stim,false,0,867.8999999910593,1,0,1,80221,task3,1816690,false,false,1375,image-keyboard-response,18
true,20,2,1,2,true,d,false,true,0.0-2.0-0.46-0.414-3.414,0,0,1,68,false,stim,false,0,1027.0999999940395,1,0,1,80221,task3,1819840,false,false,1378,image-keyboard-response,19
true,20,0,1,0,true,q,false,true,0.0-2.0-0.46-0.415-3.415,0,0,1,81,false,stim,false,1,1231.9000000059605,1,0,0,80221,task3,1824053,false,false,1381,image-keyboard-response,20
true,20,0,1,0,true,q,false,true,0.0-2.0-0.46-0.416-3.416,0,0,1,81,false,stim,false,0,1069.0,1,0,2,80221,task3,1827891,false,false,1384,image-keyboard-response,21
true,20,2,1,0,false,q,true,false,0.0-2.0-0.46-0.417-3.417,0,0,1,68,false,stim,false,1,2342.2999999970198,1,0,0,80221,task3,1833167,false,false,1387,image-keyboard-response,22
true,20,0,1,0,true,q,false,true,0.0-2.0-0.46-0.418-3.418,0,0,1,81,false,stim,false,0,1955.6000000089407,1,0,2,80221,task3,1837782,false,false,1390,image-keyboard-response,23
true,20,2,1,2,true,d,false,true,0.0-2.0-0.46-0.419-3.419,0,0,1,68,false,stim,false,0,1474.7000000029802,1,1,1,80221,task3,1841289,false,false,1393,image-keyboard-response,24
true,21,0,1,1,false,z,false,false,0.0-2.0-0.46-0.420-3.420,0,1,0,81,true,stim,true,0,1561.2999999970198,1,0,2,80221,task3,1845377,false,false,1396,image-keyboard-response,1
true,21,0,1,2,false,d,true,false,0.0-2.0-0.46-0.421-3.421,0,1,0,81,false,stim,false,2,1331.199999988079,1,1,1,80221,task3,1849156,false,false,1399,image-keyboard-response,2
true,21,2,1,1,false,z,true,false,0.0-2.0-0.46-0.422-3.422,0,1,0,68,false,stim,false,0,1842.0,1,0,0,80221,task3,1853667,false,false,1402,image-keyboard-response,3
true,21,1,1,1,true,z,false,true,0.0-2.0-0.47-0.423-3.423,0,1,0,90,false,stim,false,0,887.5,1,0,0,80221,task3,1856709,false,false,1405,image-keyboard-response,4
true,21,1,1,1,true,z,false,true,0.0-2.0-0.47-0.424-3.424,0,1,0,90,false,stim,false,0,1000.1000000089407,1,0,0,80221,task3,1859816,false,false,1408,image-keyboard-response,5
true,21,2,1,2,true,d,false,true,0.0-2.0-0.47-0.425-3.425,0,1,0,68,false,stim,false,2,2549.9000000059605,1,1,1,80221,task3,1865367,false,false,1411,image-keyboard-response,6
true,21,1,1,1,true,z,false,true,0.0-2.0-0.47-0.426-3.426,0,1,0,90,false,stim,false,0,1901.2999999970198,1,0,2,80221,task3,1869716,false,false,1414,image-keyboard-response,7
true,21,2,1,2,true,d,false,false,0.0-2.0-0.47-0.427-3.427,0,1,0,68,false,stim,false,2,1700.2000000029802,1,1,1,80221,task3,1873525,false,true,1417,image-keyboard-response,8
true,21,1,1,1,true,z,false,true,0.0-2.0-0.47-0.428-3.428,0,1,0,90,false,stim,false,0,1158.0,1,0,0,80221,task3,1876982,false,false,1420,image-keyboard-response,9
true,21,2,1,1,false,z,true,false,0.0-2.0-0.47-0.429-3.429,0,1,0,68,false,stim,false,0,1662.5,1,0,2,80221,task3,1881486,false,false,1423,image-keyboard-response,10
true,21,2,1,2,true,d,false,true,0.0-2.0-0.47-0.430-3.430,0,1,0,68,false,stim,false,2,2624.0,1,1,1,80221,task3,1886450,false,false,1426,image-keyboard-response,11
true,21,1,1,1,true,z,false,true,0.0-2.0-0.47-0.431-3.431,0,1,0,90,false,stim,false,0,2164.0,1,0,2,80221,task3,1890991,false,false,1429,image-keyboard-response,12
true,21,2,1,2,true,d,false,true,0.0-2.0-0.48-0.432-3.432,0,1,0,68,false,stim,false,2,1719.5999999940395,1,1,1,80221,task3,1895534,false,false,1432,image-keyboard-response,13
true,21,2,1,2,true,d,false,true,0.0-2.0-0.48-0.433-3.433,0,1,0,68,false,stim,false,2,1129.7999999970198,1,1,1,80221,task3,1898946,false,false,1435,image-keyboard-response,14
true,21,0,1,1,false,z,false,false,0.0-2.0-0.48-0.434-3.434,0,1,0,81,false,stim,true,0,1427.6000000089407,1,0,2,80221,task3,1903248,false,false,1438,image-keyboard-response,15
true,21,2,1,1,false,z,true,false,0.0-2.0-0.48-0.435-3.435,0,1,0,68,false,stim,false,0,1461.1000000089407,1,0,0,80221,task3,1907279,false,false,1441,image-keyboard-response,16
true,21,1,1,1,true,z,false,true,0.0-2.0-0.48-0.436-3.436,0,1,0,90,false,stim,false,0,1103.2999999970198,1,0,0,80221,task3,1910918,false,false,1444,image-keyboard-response,17
true,21,2,1,2,true,d,false,true,0.0-2.0-0.48-0.437-3.437,0,1,0,68,false,stim,false,2,827.0,1,1,1,80221,task3,1914646,false,false,1447,image-keyboard-response,18
true,21,1,1,1,true,z,false,true,0.0-2.0-0.48-0.438-3.438,0,1,0,90,false,stim,false,0,2643.2000000029802,1,0,2,80221,task3,1919463,false,false,1450,image-keyboard-response,19
true,21,0,1,1,false,z,false,false,0.0-2.0-0.48-0.439-3.439,0,1,0,81,false,stim,true,0,1618.9000000059605,1,0,0,80221,task3,1923436,false,false,1453,image-keyboard-response,20
true,21,1,1,1,true,z,false,true,0.0-2.0-0.48-0.440-3.440,0,1,0,90,false,stim,false,0,1516.2999999970198,1,0,2,80221,task3,1927339,false,false,1456,image-keyboard-response,21
true,21,1,1,1,true,z,false,true,0.0-2.0-0.49-0.441-3.441,0,1,0,90,false,stim,false,0,946.5999999940395,1,0,2,80221,task3,1930773,false,false,1459,image-keyboard-response,22
true,21,1,1,1,true,z,false,true,0.0-2.0-0.49-0.442-3.442,0,1,0,90,false,stim,false,0,1797.0999999940395,1,1,0,80221,task3,1934612,false,false,1462,image-keyboard-response,23
true,21,1,1,1,true,z,false,true,0.0-2.0-0.49-0.443-3.443,0,1,0,90,false,stim,false,0,1889.2000000029802,1,1,0,80221,task3,1938706,false,false,1465,image-keyboard-response,24
true,21,2,1,2,true,d,false,true,0.0-2.0-0.49-0.444-3.444,0,1,0,68,false,stim,false,2,869.2999999970198,1,0,1,80221,task3,1941697,false,false,1468,image-keyboard-response,25
true,21,1,1,1,true,z,false,true,0.0-2.0-0.49-0.445-3.445,0,1,0,90,false,stim,false,0,1319.5,1,0,2,80221,task3,1945132,false,false,1471,image-keyboard-response,26
true,21,0,1,1,false,z,false,false,0.0-2.0-0.49-0.446-3.446,0,1,0,81,false,stim,true,0,1148.0999999940395,1,1,0,80221,task3,1948967,false,false,1474,image-keyboard-response,27
true,22,2,1,2,true,d,false,true,0.0-2.0-0.49-0.447-3.447,1,0,0,68,true,stim,false,1,682.1999999880791,1,0,2,80221,task3,1952501,false,false,1477,image-keyboard-response,1
true,22,2,1,1,false,z,false,false,0.0-2.0-0.49-0.448-3.448,1,0,0,68,false,stim,true,2,913.2000000029802,1,0,1,80221,task3,1955737,false,false,1480,image-keyboard-response,2
true,22,2,1,1,false,z,false,false,0.0-2.0-0.49-0.449-3.449,1,0,0,68,false,stim,true,2,885.1000000089407,1,0,1,80221,task3,1958707,false,false,1483,image-keyboard-response,3
true,22,0,1,1,false,z,true,false,0.0-2.0-0.50-0.450-3.450,1,0,0,81,false,stim,false,2,1023.2000000029802,1,0,1,80221,task3,1961851,false,false,1486,image-keyboard-response,4
true,22,1,1,1,true,z,false,false,0.0-2.0-0.50-0.451-3.451,1,0,0,90,false,stim,false,2,1103.7000000029802,1,0,1,80221,task3,1965923,false,true,1489,image-keyboard-response,5
true,22,1,1,1,true,z,false,true,0.0-2.0-0.50-0.452-3.452,1,0,0,90,false,stim,false,1,1188.0,1,1,0,80221,task3,1970009,false,false,1492,image-keyboard-response,6
true,22,2,1,2,true,d,false,true,0.0-2.0-0.50-0.453-3.453,1,0,0,68,false,stim,false,1,872.5,1,0,2,80221,task3,1973696,false,false,1495,image-keyboard-response,7
true,22,1,1,1,true,z,false,true,0.0-2.0-0.50-0.454-3.454,1,0,0,90,false,stim,false,1,1674.2999999970198,1,1,0,80221,task3,1977489,false,false,1498,image-keyboard-response,8
true,22,1,1,1,true,z,false,true,0.0-2.0-0.50-0.455-3.455,1,0,0,90,false,stim,false,2,1671.7000000029802,1,0,1,80221,task3,1981509,false,false,1501,image-keyboard-response,9
true,22,2,1,2,true,d,false,true,0.0-2.0-0.50-0.456-3.456,1,0,0,68,false,stim,false,1,709.9000000059605,1,0,2,80221,task3,1984525,false,false,1504,image-keyboard-response,10
true,22,1,1,1,true,z,false,true,0.0-2.0-0.50-0.457-3.457,1,0,0,90,false,stim,false,1,1674.699999988079,1,1,0,80221,task3,1988492,false,false,1507,image-keyboard-response,11
true,22,2,1,2,true,d,false,true,0.0-2.0-0.50-0.458-3.458,1,0,0,68,false,stim,false,1,701.2999999970198,1,0,2,80221,task3,1991516,false,false,1510,image-keyboard-response,12
true,22,1,1,1,true,z,false,true,0.0-2.0-0.51-0.459-3.459,1,0,0,90,false,stim,false,2,1316.5999999940395,1,0,1,80221,task3,1995135,false,false,1513,image-keyboard-response,13
true,22,1,1,1,true,z,false,true,0.0-2.0-0.51-0.460-3.460,1,0,0,90,false,stim,false,2,717.5999999940395,1,0,1,80221,task3,1998535,false,false,1516,image-keyboard-response,14
true,22,2,1,2,true,d,false,true,0.0-2.0-0.51-0.461-3.461,1,0,0,68,false,stim,false,1,1072.0,1,0,2,80221,task3,2001899,false,false,1519,image-keyboard-response,15
true,22,2,1,2,true,d,false,true,0.0-2.0-0.51-0.462-3.462,1,0,0,68,false,stim,false,1,1226.2999999970198,1,0,2,80221,task3,2006043,false,false,1522,image-keyboard-response,16
true,22,1,1,1,true,z,false,true,0.0-2.0-0.51-0.463-3.463,1,0,0,90,false,stim,false,1,1231.0999999940395,1,1,0,80221,task3,2010057,false,false,1525,image-keyboard-response,17
true,22,1,1,1,true,z,false,true,0.0-2.0-0.51-0.464-3.464,1,0,0,90,false,stim,false,2,1334.6000000089407,1,0,1,80221,task3,2014150,false,false,1528,image-keyboard-response,18
true,22,2,1,2,true,d,false,true,0.0-2.0-0.51-0.465-3.465,1,0,0,68,false,stim,false,1,762.0,1,1,2,80221,task3,2017580,false,false,1531,image-keyboard-response,19
true,22,1,1,1,true,z,false,true,0.0-2.0-0.51-0.466-3.466,1,0,0,90,false,stim,false,1,1132.5,1,0,0,80221,task3,2020960,false,false,1534,image-keyboard-response,20
true,22,1,1,1,true,z,false,true,0.0-2.0-0.51-0.467-3.467,1,0,0,90,false,stim,false,1,787.5,1,0,0,80221,task3,2024606,false,false,1537,image-keyboard-response,21
true,22,1,1,1,true,z,false,true,0.0-2.0-0.52-0.468-3.468,1,0,0,90,false,stim,false,2,1052.2999999970198,1,0,1,80221,task3,2027880,false,false,1540,image-keyboard-response,22
true,23,1,1,0,false,q,false,false,0.0-2.0-0.52-0.469-3.469,0,0,1,90,true,stim,true,1,699.2000000029802,1,0,1,80221,task3,2031520,false,false,1543,image-keyboard-response,1
true,23,1,1,2,false,d,false,false,0.0-2.0-0.52-0.470-3.470,0,0,1,90,false,stim,true,1,1747.2000000029802,1,0,0,80221,task3,2035569,false,false,1546,image-keyboard-response,2
true,23,1,1,0,false,q,false,true,0.0-2.0-0.52-0.471-3.471,0,0,1,90,false,stim,true,1,913.2999999970198,1,0,1,80221,task3,2038735,false,true,1549,image-keyboard-response,3
true,23,2,1,2,true,d,false,true,0.0-2.0-0.52-0.472-3.472,0,0,1,68,false,stim,false,2,675.3999999910593,1,1,2,80221,task3,2041502,false,false,1552,image-keyboard-response,4
true,23,2,1,2,true,d,false,true,0.0-2.0-0.52-0.473-3.473,0,0,1,68,false,stim,false,2,1339.7999999970198,1,1,2,80221,task3,2045158,false,false,1555,image-keyboard-response,5
true,23,2,1,2,true,d,false,true,0.0-2.0-0.52-0.474-3.474,0,0,1,68,false,stim,false,2,717.7000000029802,1,1,2,80221,task3,2048538,false,false,1558,image-keyboard-response,6
true,23,1,1,2,false,d,false,false,0.0-2.0-0.52-0.475-3.475,0,0,1,90,false,stim,true,1,772.2000000029802,1,0,0,80221,task3,2051595,false,false,1561,image-keyboard-response,7
true,23,1,1,2,false,d,false,false,0.0-2.0-0.52-0.476-3.476,0,0,1,90,false,stim,true,1,759.9000000059605,1,0,0,80221,task3,2054581,false,false,1564,image-keyboard-response,8
true,23,0,1,2,false,d,true,false,0.0-2.0-0.53-0.477-3.477,0,0,1,81,false,stim,false,1,913.2999999970198,1,0,0,80221,task3,2057733,false,false,1567,image-keyboard-response,9
true,23,2,1,2,true,d,false,true,0.0-2.0-0.53-0.478-3.478,0,0,1,68,false,stim,false,1,333.79999999701977,1,0,0,80221,task3,2060160,false,false,1570,image-keyboard-response,10
true,23,1,1,0,false,q,false,false,0.0-2.0-0.53-0.479-3.479,0,0,1,90,false,stim,true,1,2015.0,1,0,1,80221,task3,2064837,false,false,1573,image-keyboard-response,11
true,23,0,1,2,false,d,true,true,0.0-2.0-0.53-0.480-3.480,0,0,1,81,false,stim,false,1,1557.5999999940395,1,0,0,80221,task3,2069384,false,true,1576,image-keyboard-response,12
true,23,1,1,2,false,d,true,false,0.0-2.0-0.53-0.481-3.481,0,0,1,90,false,stim,false,2,1610.2999999970198,1,1,2,80221,task3,2073431,false,false,1579,image-keyboard-response,13
true,23,2,1,0,false,q,true,false,0.0-2.0-0.53-0.482-3.482,0,0,1,68,false,stim,false,1,916.2000000029802,1,0,1,80221,task3,2076730,false,false,1582,image-keyboard-response,14
true,23,2,1,2,true,d,false,true,0.0-2.0-0.53-0.483-3.483,0,0,1,68,false,stim,false,2,694.2000000029802,1,1,2,80221,task3,2079519,false,false,1585,image-keyboard-response,15
true,23,2,1,2,true,d,false,true,0.0-2.0-0.53-0.484-3.484,0,0,1,68,false,stim,false,2,410.40000000596046,1,1,2,80221,task3,2082235,false,false,1588,image-keyboard-response,16
true,23,2,1,0,false,q,true,false,0.0-2.0-0.53-0.485-3.485,0,0,1,68,false,stim,false,1,2019.8999999910593,1,0,1,80221,task3,2086845,false,false,1591,image-keyboard-response,17
true,23,0,1,0,true,q,false,true,0.0-2.0-0.54-0.486-3.486,0,0,1,81,false,stim,false,1,1190.7000000029802,1,0,1,80221,task3,2091007,false,false,1594,image-keyboard-response,18
true,23,0,1,0,true,q,false,true,0.0-2.0-0.54-0.487-3.487,0,0,1,81,false,stim,false,1,698.9000000059605,1,0,1,80221,task3,2094524,false,false,1597,image-keyboard-response,19
true,23,2,1,2,true,d,false,true,0.0-2.0-0.54-0.488-3.488,0,0,1,68,false,stim,false,2,779.8999999910593,1,1,2,80221,task3,2097604,false,false,1600,image-keyboard-response,20
true,23,2,1,0,false,q,true,false,0.0-2.0-0.54-0.489-3.489,0,0,1,68,false,stim,false,1,1009.7000000029802,1,0,1,80221,task3,2100824,false,false,1603,image-keyboard-response,21
true,23,2,1,2,true,d,false,true,0.0-2.0-0.54-0.490-3.490,0,0,1,68,false,stim,false,1,1475.0999999940395,1,0,0,80221,task3,2105289,false,false,1606,image-keyboard-response,22
true,23,2,1,2,true,d,false,true,0.0-2.0-0.54-0.491-3.491,0,0,1,68,false,stim,false,1,908.7000000029802,1,0,0,80221,task3,2108727,false,false,1609,image-keyboard-response,23
true,23,2,1,2,true,d,false,true,0.0-2.0-0.54-0.492-3.492,0,0,1,68,false,stim,false,1,606.5999999940395,1,0,0,80221,task3,2111420,false,false,1612,image-keyboard-response,24
true,24,0,1,2,false,d,true,true,0.0-2.0-0.54-0.493-3.493,0,0,1,81,true,stim,false,2,1120.7999999970198,1,1,2,80221,task3,2114937,false,true,1615,image-keyboard-response,1
true,24,0,1,2,false,d,true,false,0.0-2.0-0.54-0.494-3.494,0,0,1,81,false,stim,false,2,746.5,1,1,2,80221,task3,2118567,false,false,1618,image-keyboard-response,2
true,24,2,1,0,false,q,false,false,0.0-2.0-0.55-0.495-3.495,0,0,1,68,false,stim,true,2,959.8999999910593,1,0,0,80221,task3,2121786,false,false,1621,image-keyboard-response,3
true,24,2,1,2,true,d,false,true,0.0-2.0-0.55-0.496-3.496,0,0,1,68,false,stim,false,0,2311.5999999940395,1,0,1,80221,task3,2126135,false,false,1624,image-keyboard-response,4
true,24,2,1,0,false,q,false,false,0.0-2.0-0.55-0.497-3.497,0,0,1,68,false,stim,true,2,1259.5,1,0,0,80221,task3,2130075,false,false,1627,image-keyboard-response,5
true,24,2,1,2,true,d,false,true,0.0-2.0-0.55-0.498-3.498,0,0,1,68,false,stim,false,0,1117.2000000029802,1,0,1,80221,task3,2133934,false,false,1630,image-keyboard-response,6
true,24,0,1,2,false,d,true,false,0.0-2.0-0.55-0.499-3.499,0,0,1,81,false,stim,false,2,648.5,1,1,2,80221,task3,2137468,false,false,1633,image-keyboard-response,7
true,24,1,1,2,false,d,true,false,0.0-2.0-0.55-0.500-3.500,0,0,1,90,false,stim,false,2,413.09999999403954,1,1,2,80221,task3,2140241,false,false,1636,image-keyboard-response,8
true,24,2,1,0,false,q,false,true,0.0-2.0-0.55-0.501-3.501,0,0,1,68,false,stim,true,2,818.0999999940395,1,0,0,80221,task3,2143639,false,true,1639,image-keyboard-response,9
true,24,2,1,2,true,d,false,true,0.0-2.0-0.55-0.502-3.502,0,0,1,68,false,stim,false,0,1428.7000000029802,1,0,1,80221,task3,2147257,false,false,1642,image-keyboard-response,10
true,24,2,1,2,true,d,false,true,0.0-2.0-0.55-0.503-3.503,0,0,1,68,false,stim,false,2,452.09999999403954,1,1,2,80221,task3,2150279,false,false,1645,image-keyboard-response,11
true,24,2,1,2,true,d,false,true,0.0-2.0-0.56-0.504-3.504,0,0,1,68,false,stim,false,2,271.0,1,1,2,80221,task3,2153094,false,false,1648,image-keyboard-response,12
true,24,2,1,2,true,d,false,true,0.0-2.0-0.56-0.505-3.505,0,0,1,68,false,stim,false,0,196.90000000596046,1,0,1,80221,task3,2156016,false,false,1651,image-keyboard-response,13
true,24,2,1,0,false,q,false,false,0.0-2.0-0.56-0.506-3.506,0,0,1,68,false,stim,true,2,191.40000000596046,1,0,0,80221,task3,2159013,false,false,1654,image-keyboard-response,14
true,24,2,1,2,true,d,false,true,0.0-2.0-0.56-0.507-3.507,0,0,1,68,false,stim,false,0,348.29999999701977,1,0,1,80221,task3,2162173,false,false,1657,image-keyboard-response,15
true,24,2,1,2,true,d,false,true,0.0-2.0-0.56-0.508-3.508,0,0,1,68,false,stim,false,2,691.0,1,1,2,80221,task3,2165517,false,false,1660,image-keyboard-response,16
true,24,2,1,2,true,d,false,true,0.0-2.0-0.56-0.509-3.509,0,0,1,68,false,stim,false,2,726.0,1,1,2,80221,task3,2168552,false,false,1663,image-keyboard-response,17
true,24,0,1,0,true,q,false,true,0.0-2.0-0.56-0.510-3.510,0,0,1,81,false,stim,false,2,2036.7999999970198,1,0,0,80221,task3,2172851,false,false,1666,image-keyboard-response,18
true,24,0,1,0,true,q,false,true,0.0-2.0-0.56-0.511-3.511,0,0,1,81,false,stim,false,2,659.8999999910593,1,0,0,80221,task3,2176481,false,false,1669,image-keyboard-response,19
true,24,2,1,2,true,d,false,true,0.0-2.0-0.56-0.512-3.512,0,0,1,68,false,stim,false,0,933.5,1,0,1,80221,task3,2179761,false,false,1672,image-keyboard-response,20
true,24,2,1,0,false,q,false,false,0.0-2.0-0.57-0.513-3.513,0,0,1,68,false,stim,true,2,1458.5,1,0,0,80221,task3,2183282,false,false,1675,image-keyboard-response,21
true,24,2,1,2,true,d,false,true,0.0-2.0-0.57-0.514-3.514,0,0,1,68,false,stim,false,0,593.7999999970198,1,0,1,80221,task3,2186414,false,false,1678,image-keyboard-response,22
true,24,2,1,2,true,d,false,true,0.0-2.0-0.57-0.515-3.515,0,0,1,68,false,stim,false,0,648.0999999940395,1,0,1,80221,task3,2189465,false,false,1681,image-keyboard-response,23
true,24,0,1,0,true,q,false,true,0.0-2.0-0.57-0.516-3.516,0,0,1,81,false,stim,false,2,1328.0,1,0,0,80221,task3,2193147,false,false,1684,image-keyboard-response,24
true,25,2,1,2,true,d,false,true,0.0-2.0-0.57-0.517-3.517,0,0,1,68,true,stim,false,2,2497.4000000059605,1,1,2,80221,task3,2198316,false,false,1687,image-keyboard-response,1
true,25,2,1,0,false,q,false,false,0.0-2.0-0.57-0.518-3.518,0,0,1,68,false,stim,true,2,894.2000000029802,1,0,1,80221,task3,2201713,false,false,1690,image-keyboard-response,2
true,25,2,1,2,true,d,false,true,0.0-2.0-0.57-0.519-3.519,0,0,1,68,false,stim,false,2,819.5,1,1,2,80221,task3,2204644,false,false,1693,image-keyboard-response,3
true,25,2,1,2,true,d,false,true,0.0-2.0-0.57-0.520-3.520,0,0,1,68,false,stim,false,2,978.3000000119209,1,1,2,80221,task3,2207794,false,false,1696,image-keyboard-response,4
true,25,0,1,1,false,z,false,false,0.0-2.0-0.57-0.521-3.521,0,0,1,81,false,stim,true,0,1236.8999999910593,1,0,0,80221,task3,2211066,false,false,1699,image-keyboard-response,5
true,25,2,1,2,true,d,false,true,0.0-2.0-0.58-0.522-3.522,0,0,1,68,false,stim,false,2,785.4000000059605,1,1,2,80221,task3,2214612,false,false,1702,image-keyboard-response,6
true,25,2,1,0,false,q,false,false,0.0-2.0-0.58-0.523-3.523,0,0,1,68,false,stim,true,2,695.1000000089407,1,0,1,80221,task3,2217522,false,false,1705,image-keyboard-response,7
true,25,2,1,2,true,d,false,true,0.0-2.0-0.58-0.524-3.524,0,0,1,68,false,stim,false,2,647.5,1,1,2,80221,task3,2220475,false,false,1708,image-keyboard-response,8
true,25,0,1,1,false,z,false,false,0.0-2.0-0.58-0.525-3.525,0,0,1,81,false,stim,true,0,1634.2000000029802,1,0,0,80221,task3,2224454,false,false,1711,image-keyboard-response,9
true,25,1,1,1,true,z,false,true,0.0-2.0-0.58-0.526-3.526,0,0,1,90,false,stim,false,0,622.0999999940395,1,1,0,80221,task3,2227438,false,false,1714,image-keyboard-response,10
true,25,1,1,2,false,d,true,false,0.0-2.0-0.58-0.527-3.527,0,0,1,90,false,stim,false,2,1714.7000000029802,1,1,2,80221,task3,2231539,false,false,1717,image-keyboard-response,11
true,25,2,1,0,false,q,false,false,0.0-2.0-0.58-0.528-3.528,0,0,1,68,false,stim,true,2,1799.3999999910593,1,1,1,80221,task3,2235627,false,false,1720,image-keyboard-response,12
true,25,1,1,0,false,q,true,false,0.0-2.0-0.58-0.529-3.529,0,0,1,90,false,stim,false,2,3498.0,1,1,1,80221,task3,2241318,false,false,1723,image-keyboard-response,13
true,25,0,1,1,false,z,false,true,0.0-2.0-0.58-0.530-3.530,0,0,1,81,false,stim,true,0,3006.5999999940395,1,1,0,80221,task3,2246834,false,true,1726,image-keyboard-response,14
true,26,0,0,1,false,z,true,false,0.0-2.0-0.59-0.531-3.531,1,1,1,81,true,stim,false,1,1093.0,1,1,0,80221,task3,2253913,false,false,1731,image-keyboard-response,1
true,26,0,0,1,false,z,true,false,0.0-2.0-0.59-0.532-3.532,1,1,1,81,false,stim,false,1,902.7000000029802,1,1,0,80221,task3,2257717,false,false,1734,image-keyboard-response,2
true,26,2,0,2,true,d,false,false,0.0-2.0-0.59-0.533-3.533,1,1,1,68,false,stim,false,2,652.2999999970198,1,1,2,80221,task3,2260472,false,true,1737,image-keyboard-response,3
true,26,2,0,0,false,q,true,false,0.0-2.0-0.59-0.534-3.534,1,1,1,68,false,stim,false,0,570.3000000119209,1,1,1,80221,task3,2263395,false,false,1740,image-keyboard-response,4
true,26,1,0,2,false,d,true,false,0.0-2.0-0.59-0.535-3.535,1,1,1,90,false,stim,false,2,1226.3999999910593,1,1,2,80221,task3,2267048,false,false,1743,image-keyboard-response,5
true,26,1,0,1,true,z,false,true,0.0-2.0-0.59-0.536-3.536,1,1,1,90,false,stim,false,1,686.7999999970198,1,1,0,80221,task3,2270512,false,false,1746,image-keyboard-response,6
true,26,0,0,0,true,q,false,true,0.0-2.0-0.59-0.537-3.537,1,1,1,81,false,stim,false,0,911.2999999970198,1,1,1,80221,task3,2273735,false,false,1749,image-keyboard-response,7
true,26,0,0,0,true,q,false,false,0.0-2.0-0.59-0.538-3.538,1,1,1,81,false,stim,false,0,604.1999999880791,1,1,1,80221,task3,2276427,false,true,1752,image-keyboard-response,8
true,26,1,0,2,false,d,true,false,0.0-2.0-0.59-0.539-3.539,1,1,1,90,false,stim,false,2,1300.9000000059605,1,0,2,80221,task3,2280115,false,false,1755,image-keyboard-response,9
true,26,0,0,1,false,z,true,false,0.0-2.0-0.60-0.540-3.540,1,1,1,81,false,stim,false,1,753.5999999940395,1,1,0,80221,task3,2283575,false,false,1758,image-keyboard-response,10
true,27,1,2,1,true,z,false,true,0.0-2.0-0.60-0.541-3.541,1,1,0,90,true,stim,false,2,1129.4000000059605,1,0,2,80221,task3,2286944,false,false,1761,image-keyboard-response,1
true,27,0,2,0,true,q,false,true,0.0-2.0-0.60-0.542-3.542,1,1,0,81,false,stim,false,0,1269.4000000059605,1,1,1,80221,task3,2291083,false,false,1764,image-keyboard-response,2
true,27,0,2,1,false,z,true,false,0.0-2.0-0.60-0.543-3.543,1,1,0,81,false,stim,false,1,1491.2999999970198,1,1,0,80221,task3,2295317,false,false,1767,image-keyboard-response,3
true,27,1,2,0,false,q,true,false,0.0-2.0-0.60-0.544-3.544,1,1,0,90,false,stim,false,0,40.099999994039536,1,1,1,80221,task3,2297868,false,false,1770,image-keyboard-response,4
true,27,0,2,1,false,z,true,false,0.0-2.0-0.60-0.545-3.545,1,1,0,81,false,stim,false,1,719.2000000029802,1,1,0,80221,task3,2301541,false,false,1773,image-keyboard-response,5
true,27,1,2,1,true,z,false,true,0.0-2.0-0.60-0.546-3.546,1,1,0,90,false,stim,false,2,553.8000000119209,1,0,2,80221,task3,2304372,false,false,1776,image-keyboard-response,6
true,27,1,2,1,true,z,false,true,0.0-2.0-0.60-0.547-3.547,1,1,0,90,false,stim,false,2,699.9000000059605,1,0,2,80221,task3,2307523,false,false,1779,image-keyboard-response,7
true,27,0,2,0,true,q,false,true,0.0-2.0-0.60-0.548-3.548,1,1,0,81,false,stim,false,0,1350.8999999910593,1,1,1,80221,task3,2311179,false,false,1782,image-keyboard-response,8
true,27,1,2,1,true,z,false,true,0.0-2.0-0.61-0.549-3.549,1,1,0,90,false,stim,false,2,1103.9000000059605,1,1,2,80221,task3,2314931,false,false,1785,image-keyboard-response,9
true,27,1,2,1,true,z,false,true,0.0-2.0-0.61-0.550-3.550,1,1,0,90,false,stim,false,2,614.7000000029802,1,1,2,80221,task3,2318436,false,false,1788,image-keyboard-response,10
true,27,0,2,1,false,z,true,false,0.0-2.0-0.61-0.551-3.551,1,1,0,81,false,stim,false,1,929.5999999940395,1,0,0,80221,task3,2321755,false,false,1791,image-keyboard-response,11
true,27,0,2,0,true,q,false,true,0.0-2.0-0.61-0.552-3.552,1,1,0,81,false,stim,false,0,1243.6000000089407,1,1,1,80221,task3,2325063,false,false,1794,image-keyboard-response,12
true,28,1,2,1,true,z,false,true,0.0-2.0-0.61-0.553-3.553,0,1,1,90,true,stim,false,1,483.20000000298023,1,1,2,80221,task3,2328303,false,false,1797,image-keyboard-response,1
true,28,0,2,0,true,q,false,true,0.0-2.0-0.61-0.554-3.554,0,1,1,81,false,stim,false,0,914.0,1,1,1,80221,task3,2331739,false,false,1800,image-keyboard-response,2
true,28,2,2,2,true,d,false,true,0.0-2.0-0.61-0.555-3.555,0,1,1,68,false,stim,false,1,344.20000000298023,1,0,0,80221,task3,2334165,false,false,1803,image-keyboard-response,3
true,28,2,2,2,true,d,false,true,0.0-2.0-0.61-0.556-3.556,0,1,1,68,false,stim,false,1,510.70000000298023,1,0,0,80221,task3,2337338,false,false,1806,image-keyboard-response,4
true,28,0,2,0,true,q,false,true,0.0-2.0-0.61-0.557-3.557,0,1,1,81,false,stim,false,0,1447.800000011921,1,1,1,80221,task3,2341266,false,false,1809,image-keyboard-response,5
true,28,0,2,0,true,q,false,true,0.0-2.0-0.62-0.558-3.558,0,1,1,81,false,stim,false,0,654.0,1,1,1,80221,task3,2344481,false,false,1812,image-keyboard-response,6
true,28,2,2,2,true,d,false,true,0.0-2.0-0.62-0.559-3.559,0,1,1,68,false,stim,false,1,689.5999999940395,1,0,0,80221,task3,2347505,false,false,1815,image-keyboard-response,7
true,28,1,2,1,true,z,false,true,0.0-2.0-0.62-0.560-3.560,0,1,1,90,false,stim,false,1,1314.6000000089407,1,1,2,80221,task3,2351138,false,false,1818,image-keyboard-response,8
true,28,2,2,2,true,d,false,true,0.0-2.0-0.62-0.561-3.561,0,1,1,68,false,stim,false,1,1245.7000000029802,1,0,0,80221,task3,2355072,false,false,1821,image-keyboard-response,9
true,28,1,2,0,false,q,true,false,0.0-2.0-0.62-0.562-3.562,0,1,1,90,false,stim,false,0,1149.2000000029802,1,1,1,80221,task3,2358976,false,false,1824,image-keyboard-response,10
true,28,1,2,1,true,z,false,false,0.0-2.0-0.62-0.563-3.563,0,1,1,90,false,stim,false,1,1189.9000000059605,1,1,2,80221,task3,2363006,false,true,1827,image-keyboard-response,11
true,28,0,2,0,true,q,false,true,0.0-2.0-0.62-0.564-3.564,0,1,1,81,false,stim,false,0,63.5,1,1,1,80221,task3,2365889,false,false,1830,image-keyboard-response,12
true,28,2,2,2,true,d,false,false,0.0-2.0-0.62-0.565-3.565,0,1,1,68,false,stim,false,1,772.7999999970198,1,0,0,80221,task3,2369591,false,true,1833,image-keyboard-response,13
true,28,2,2,1,false,z,true,true,0.0-2.0-0.62-0.566-3.566,0,1,1,68,false,stim,false,1,1231.2999999970198,1,1,2,80221,task3,2373053,false,true,1836,image-keyboard-response,14
true,28,1,2,2,false,d,false,false,0.0-2.0-0.63-0.567-3.567,0,1,1,90,false,stim,true,1,1085.1000000089407,1,0,0,80221,task3,2376905,false,false,1839,image-keyboard-response,15
true,28,0,2,1,false,z,true,false,0.0-2.0-0.63-0.568-3.568,0,1,1,81,false,stim,false,1,1154.2000000029802,1,1,2,80221,task3,2380980,false,false,1842,image-keyboard-response,16
true,28,2,2,0,false,q,true,false,0.0-2.0-0.63-0.569-3.569,0,1,1,68,false,stim,false,0,911.0,1,1,1,80221,task3,2384732,false,false,1845,image-keyboard-response,17
true,28,2,2,2,true,d,false,true,0.0-2.0-0.63-0.570-3.570,0,1,1,68,false,stim,false,1,820.6999999880791,1,0,0,80221,task3,2387640,false,false,1848,image-keyboard-response,18
true,28,1,2,1,true,z,false,true,0.0-2.0-0.63-0.571-3.571,0,1,1,90,false,stim,false,1,1808.4000000059605,1,1,2,80221,task3,2391634,false,false,1851,image-keyboard-response,19
true,28,2,2,2,true,d,false,true,0.0-2.0-0.63-0.572-3.572,0,1,1,68,false,stim,false,1,567.7000000029802,1,0,0,80221,task3,2394382,false,false,1854,image-keyboard-response,20
true,28,1,2,1,true,z,false,true,0.0-2.0-0.63-0.573-3.573,0,1,1,90,false,stim,false,1,1480.5,1,1,2,80221,task3,2398304,false,false,1857,image-keyboard-response,21
true,28,0,2,0,true,q,false,true,0.0-2.0-0.63-0.574-3.574,0,1,1,81,false,stim,false,0,440.0,1,1,1,80221,task3,2401264,false,false,1860,image-keyboard-response,22
true,28,0,2,0,true,q,false,true,0.0-2.0-0.63-0.575-3.575,0,1,1,81,false,stim,false,0,573.0,1,1,1,80221,task3,2404400,false,false,1863,image-keyboard-response,23
true,28,0,2,0,true,q,false,true,0.0-2.0-0.64-0.576-3.576,0,1,1,81,false,stim,false,0,463.0,1,1,1,80221,task3,2407280,false,false,1866,image-keyboard-response,24
true,28,1,2,1,true,z,false,true,0.0-2.0-0.64-0.577-3.577,0,1,1,90,false,stim,false,1,1301.1000000089407,1,1,2,80221,task3,2411115,false,false,1869,image-keyboard-response,25
true,28,1,2,1,true,z,false,true,0.0-2.0-0.64-0.578-3.578,0,1,1,90,false,stim,false,1,450.59999999403954,1,1,2,80221,task3,2414268,false,false,1872,image-keyboard-response,26
true,28,2,2,2,true,d,false,true,0.0-2.0-0.64-0.579-3.579,0,1,1,68,false,stim,false,1,639.3999999910593,1,0,0,80221,task3,2417462,false,false,1875,image-keyboard-response,27
true,28,1,2,1,true,z,false,true,0.0-2.0-0.64-0.580-3.580,0,1,1,90,false,stim,false,1,762.5,1,1,2,80221,task3,2420583,false,false,1878,image-keyboard-response,28
true,29,2,2,0,false,q,false,false,0.0-2.0-0.64-0.581-3.581,0,1,1,68,true,stim,true,2,1068.4000000059605,1,0,0,80221,task3,2423894,false,false,1881,image-keyboard-response,1
true,29,2,2,0,false,q,false,false,0.0-2.0-0.64-0.582-3.582,0,1,1,68,false,stim,true,2,476.40000000596046,1,0,0,80221,task3,2427291,false,false,1884,image-keyboard-response,2
true,29,0,2,0,true,q,false,true,0.0-2.0-0.64-0.583-3.583,0,1,1,81,false,stim,false,0,351.5,1,1,1,80221,task3,2430172,false,false,1887,image-keyboard-response,3
true,29,0,2,0,true,q,false,true,0.0-2.0-0.64-0.584-3.584,0,1,1,81,false,stim,false,0,317.0,1,1,1,80221,task3,2433134,false,false,1890,image-keyboard-response,4
true,29,1,2,0,false,q,true,false,0.0-2.0-0.65-0.585-3.585,0,1,1,90,false,stim,false,2,854.1000000089407,1,0,0,80221,task3,2436682,false,false,1893,image-keyboard-response,5
true,29,0,2,0,true,q,false,true,0.0-2.0-0.65-0.586-3.586,0,1,1,81,false,stim,false,2,524.7000000029802,1,0,0,80221,task3,2439349,false,false,1896,image-keyboard-response,6
true,29,1,2,1,true,z,false,true,0.0-2.0-0.65-0.587-3.587,0,1,1,90,false,stim,false,1,702.5,1,1,2,80221,task3,2442524,false,false,1899,image-keyboard-response,7
true,29,0,2,0,true,q,false,true,0.0-2.0-0.65-0.588-3.588,0,1,1,81,false,stim,false,0,467.79999999701977,1,1,1,80221,task3,2445287,false,false,1902,image-keyboard-response,8
