answered,blockNum,choice,condition,corResp,correct,correct_response,explo,fb,internal_node_id,isStable_1,isStable_2,isStable_3,key_press,newBlock,part,persev,persevResp,rt,sessNum,stableAS,stimulus,subject,task,time_elapsed,training,trap,trial_index,trial_type,trialsInBlock
true,1,0,0,1,false,z,true,false,0.0-2.0-0.0-0.0-3.0,0,0,0,81,true,stim,false,-1,659,1,0,0,80508,task2,107296,false,false,88,image-keyboard-response,1
true,1,0,0,0,true,q,false,true,0.0-2.0-0.0-0.1-3.1,0,0,0,81,false,stim,false,-1,555,1,0,2,80508,task2,109354,false,false,91,image-keyboard-response,2
true,1,0,0,0,true,q,false,true,0.0-2.0-0.0-0.2-3.2,0,0,0,81,false,stim,false,-1,512,1,0,2,80508,task2,111369,false,false,94,image-keyboard-response,3
true,1,0,0,1,false,z,true,false,0.0-2.0-0.0-0.3-3.3,0,0,0,81,false,stim,false,-1,1005,1,0,0,80508,task2,113879,false,false,97,image-keyboard-response,4
true,1,0,0,0,true,q,false,true,0.0-2.0-0.0-0.4-3.4,0,0,0,81,false,stim,false,-1,580,1,0,2,80508,task2,115963,false,false,100,image-keyboard-response,5
true,1,0,0,1,false,z,true,false,0.0-2.0-0.0-0.5-3.5,0,0,0,81,false,stim,false,-1,764,1,0,1,80508,task2,118234,false,false,103,image-keyboard-response,6
true,1,1,0,1,true,z,false,true,0.0-2.0-0.0-0.6-3.6,0,0,0,90,false,stim,false,-1,510,1,0,1,80508,task2,120246,false,false,106,image-keyboard-response,7
true,1,1,0,1,true,z,false,true,0.0-2.0-0.0-0.7-3.7,0,0,0,90,false,stim,false,-1,434,1,0,1,80508,task2,122183,false,false,109,image-keyboard-response,8
true,1,1,0,1,true,z,false,true,0.0-2.0-0.0-0.8-3.8,0,0,0,90,false,stim,false,-1,469,1,0,0,80508,task2,124157,false,false,112,image-keyboard-response,9
true,1,1,0,1,true,z,false,true,0.0-2.0-0.1-0.9-3.9,0,0,0,90,false,stim,false,-1,382,1,0,0,80508,task2,126042,false,false,115,image-keyboard-response,10
true,1,1,0,1,true,z,false,true,0.0-2.0-0.1-0.10-3.10,0,0,0,90,false,stim,false,-1,502,1,0,1,80508,task2,128049,false,false,118,image-keyboard-response,11
true,1,1,0,1,true,z,false,true,0.0-2.0-0.1-0.11-3.11,0,0,0,90,false,stim,false,-1,600,1,0,0,80508,task2,130155,false,false,121,image-keyboard-response,12
true,1,0,0,0,true,q,false,false,0.0-2.0-0.1-0.12-3.12,0,0,0,81,false,stim,false,-1,525,1,0,2,80508,task2,132185,false,true,124,image-keyboard-response,13
true,1,1,0,1,true,z,false,true,0.0-2.0-0.1-0.13-3.13,0,0,0,90,false,stim,false,-1,387,1,0,0,80508,task2,134080,false,false,127,image-keyboard-response,14
true,1,1,0,1,true,z,false,true,0.0-2.0-0.1-0.14-3.14,0,0,0,90,false,stim,false,-1,505,1,0,1,80508,task2,136089,false,false,130,image-keyboard-response,15
true,1,1,0,1,true,z,false,true,0.0-2.0-0.1-0.15-3.15,0,0,0,90,false,stim,false,-1,402,1,0,1,80508,task2,137997,false,false,133,image-keyboard-response,16
true,1,0,0,0,true,q,false,true,0.0-2.0-0.1-0.16-3.16,0,0,0,81,false,stim,false,-1,464,1,0,2,80508,task2,139966,false,false,136,image-keyboard-response,17
true,1,0,0,0,true,q,false,true,0.0-2.0-0.1-0.17-3.17,0,0,0,81,false,stim,false,-1,462,1,0,2,80508,task2,141932,false,false,139,image-keyboard-response,18
true,1,1,0,1,true,z,false,true,0.0-2.0-0.2-0.18-3.18,0,0,0,90,false,stim,false,-1,624,1,0,1,80508,task2,144061,false,false,142,image-keyboard-response,19
true,1,1,0,1,true,z,false,true,0.0-2.0-0.2-0.19-3.19,0,0,0,90,false,stim,false,-1,463,1,0,1,80508,task2,146028,false,false,145,image-keyboard-response,20
true,1,0,0,0,true,q,false,false,0.0-2.0-0.2-0.20-3.20,0,0,0,81,false,stim,false,-1,802,1,0,2,80508,task2,148332,false,true,148,image-keyboard-response,21
true,1,1,0,1,true,z,false,true,0.0-2.0-0.2-0.21-3.21,0,0,0,90,false,stim,false,-1,524,1,0,0,80508,task2,150361,false,false,151,image-keyboard-response,22
true,1,1,0,0,false,q,true,false,0.0-2.0-0.2-0.22-3.22,0,0,0,90,false,stim,false,-1,652,1,0,2,80508,task2,152517,false,false,154,image-keyboard-response,23
true,1,2,0,0,false,q,true,false,0.0-2.0-0.2-0.23-3.23,0,0,0,68,false,stim,false,-1,517,1,0,2,80508,task2,154537,false,false,157,image-keyboard-response,24
true,1,1,0,1,true,z,false,true,0.0-2.0-0.2-0.24-3.24,0,0,0,90,false,stim,false,-1,571,1,0,0,80508,task2,156613,false,false,160,image-keyboard-response,25
true,1,1,0,1,true,z,false,true,0.0-2.0-0.2-0.25-3.25,0,0,0,90,false,stim,false,-1,438,1,0,0,80508,task2,158554,false,false,163,image-keyboard-response,26
true,2,1,2,1,true,z,false,true,0.0-2.0-0.2-0.26-3.26,0,1,0,90,true,stim,false,1,555,1,1,1,80508,task2,160612,false,false,166,image-keyboard-response,1
true,2,1,2,1,true,z,false,true,0.0-2.0-0.3-0.27-3.27,0,1,0,90,false,stim,false,1,414,1,1,1,80508,task2,162529,false,false,169,image-keyboard-response,2
true,2,0,2,1,false,z,false,false,0.0-2.0-0.3-0.28-3.28,0,1,0,81,false,stim,true,0,574,1,0,2,80508,task2,164607,false,false,172,image-keyboard-response,3
true,2,1,2,0,false,q,false,false,0.0-2.0-0.3-0.29-3.29,0,1,0,90,false,stim,true,1,524,1,0,0,80508,task2,166639,false,false,175,image-keyboard-response,4
true,2,1,2,1,true,z,false,true,0.0-2.0-0.3-0.30-3.30,0,1,0,90,false,stim,false,1,504,1,1,1,80508,task2,168648,false,false,178,image-keyboard-response,5
true,2,1,2,0,false,q,false,false,0.0-2.0-0.3-0.31-3.31,0,1,0,90,false,stim,true,1,1078,1,0,0,80508,task2,171232,false,false,181,image-keyboard-response,6
true,2,1,2,1,true,z,false,true,0.0-2.0-0.3-0.32-3.32,0,1,0,90,false,stim,false,1,450,1,1,1,80508,task2,173189,false,false,184,image-keyboard-response,7
true,2,2,2,0,false,q,true,false,0.0-2.0-0.3-0.33-3.33,0,1,0,68,false,stim,false,1,569,1,0,0,80508,task2,175261,false,false,187,image-keyboard-response,8
true,2,1,2,1,true,z,false,true,0.0-2.0-0.3-0.34-3.34,0,1,0,90,false,stim,false,0,592,1,0,2,80508,task2,177356,false,false,190,image-keyboard-response,9
true,2,1,2,1,true,z,false,true,0.0-2.0-0.3-0.35-3.35,0,1,0,90,false,stim,false,0,369,1,0,2,80508,task2,179229,false,false,193,image-keyboard-response,10
true,2,0,2,0,true,q,false,true,0.0-2.0-0.4-0.36-3.36,0,1,0,81,false,stim,false,1,468,1,0,0,80508,task2,181202,false,false,196,image-keyboard-response,11
true,2,1,2,1,true,z,false,true,0.0-2.0-0.4-0.37-3.37,0,1,0,90,false,stim,false,0,573,1,0,2,80508,task2,183280,false,false,199,image-keyboard-response,12
true,2,0,2,0,true,q,false,false,0.0-2.0-0.4-0.38-3.38,0,1,0,81,false,stim,false,1,686,1,0,0,80508,task2,185468,false,true,202,image-keyboard-response,13
true,2,1,2,1,true,z,false,true,0.0-2.0-0.4-0.39-3.39,0,1,0,90,false,stim,false,1,532,1,1,1,80508,task2,187504,false,false,205,image-keyboard-response,14
true,2,1,2,1,true,z,false,true,0.0-2.0-0.4-0.40-3.40,0,1,0,90,false,stim,false,0,583,1,0,2,80508,task2,189592,false,false,208,image-keyboard-response,15
true,2,1,2,1,true,z,false,true,0.0-2.0-0.4-0.41-3.41,0,1,0,90,false,stim,false,1,522,1,1,1,80508,task2,191618,false,false,211,image-keyboard-response,16
true,2,1,2,1,true,z,false,true,0.0-2.0-0.4-0.42-3.42,0,1,0,90,false,stim,false,1,574,1,1,1,80508,task2,193695,false,false,214,image-keyboard-response,17
true,2,1,2,1,true,z,false,true,0.0-2.0-0.4-0.43-3.43,0,1,0,90,false,stim,false,0,709,1,0,2,80508,task2,195908,false,false,217,image-keyboard-response,18
true,2,0,2,0,true,q,false,true,0.0-2.0-0.4-0.44-3.44,0,1,0,81,false,stim,false,1,769,1,0,0,80508,task2,198181,false,false,220,image-keyboard-response,19
true,2,1,2,1,true,z,false,true,0.0-2.0-0.5-0.45-3.45,0,1,0,90,false,stim,false,1,573,1,1,1,80508,task2,200260,false,false,223,image-keyboard-response,20
true,2,0,2,0,true,q,false,true,0.0-2.0-0.5-0.46-3.46,0,1,0,81,false,stim,false,1,638,1,0,0,80508,task2,202404,false,false,226,image-keyboard-response,21
true,2,1,2,1,true,z,false,true,0.0-2.0-0.5-0.47-3.47,0,1,0,90,false,stim,false,0,499,1,0,2,80508,task2,204411,false,false,229,image-keyboard-response,22
true,2,1,2,1,true,z,false,true,0.0-2.0-0.5-0.48-3.48,0,1,0,90,false,stim,false,0,499,1,0,2,80508,task2,206416,false,false,232,image-keyboard-response,23
true,2,0,2,0,true,q,false,true,0.0-2.0-0.5-0.49-3.49,0,1,0,81,false,stim,false,1,609,1,0,0,80508,task2,208530,false,false,235,image-keyboard-response,24
true,2,0,2,0,true,q,false,true,0.0-2.0-0.5-0.50-3.50,0,1,0,81,false,stim,false,1,450,1,0,0,80508,task2,210483,false,false,238,image-keyboard-response,25
true,2,1,2,1,true,z,false,true,0.0-2.0-0.5-0.51-3.51,0,1,0,90,false,stim,false,1,557,1,1,1,80508,task2,212549,false,false,241,image-keyboard-response,26
true,2,1,2,1,true,z,false,true,0.0-2.0-0.5-0.52-3.52,0,1,0,90,false,stim,false,0,1289,1,0,2,80508,task2,215341,false,false,244,image-keyboard-response,27
true,2,1,2,1,true,z,false,true,0.0-2.0-0.5-0.53-3.53,0,1,0,90,false,stim,false,1,705,1,1,1,80508,task2,217552,false,false,247,image-keyboard-response,28
true,2,1,2,1,true,z,false,true,0.0-2.0-0.6-0.54-3.54,0,1,0,90,false,stim,false,1,542,1,0,1,80508,task2,219601,false,false,250,image-keyboard-response,29
true,2,0,2,0,true,q,false,true,0.0-2.0-0.6-0.55-3.55,0,1,0,81,false,stim,false,1,794,1,0,0,80508,task2,221900,false,false,253,image-keyboard-response,30
true,2,1,2,1,true,z,false,true,0.0-2.0-0.6-0.56-3.56,0,1,0,90,false,stim,false,1,460,1,0,1,80508,task2,223866,false,false,256,image-keyboard-response,31
true,2,0,2,0,true,q,false,true,0.0-2.0-0.6-0.57-3.57,0,1,0,81,false,stim,false,1,818,1,0,0,80508,task2,226185,false,false,259,image-keyboard-response,32
true,2,0,2,0,true,q,false,true,0.0-2.0-0.6-0.58-3.58,0,1,0,81,false,stim,false,1,477,1,0,0,80508,task2,228170,false,false,262,image-keyboard-response,33
true,3,1,2,1,true,z,false,true,0.0-2.0-0.6-0.59-3.59,0,0,1,90,true,stim,false,1,517,1,1,2,80508,task2,230194,false,false,265,image-keyboard-response,1
true,3,1,2,2,false,d,false,false,0.0-2.0-0.6-0.60-3.60,0,0,1,90,false,stim,true,1,1164,1,0,1,80508,task2,232862,false,false,268,image-keyboard-response,2
true,3,1,2,1,true,z,false,true,0.0-2.0-0.6-0.61-3.61,0,0,1,90,false,stim,false,1,643,1,1,2,80508,task2,235007,false,false,271,image-keyboard-response,3
true,3,1,2,1,true,z,false,true,0.0-2.0-0.6-0.62-3.62,0,0,1,90,false,stim,false,1,537,1,1,2,80508,task2,237049,false,false,274,image-keyboard-response,4
true,3,0,2,1,false,z,false,false,0.0-2.0-0.7-0.63-3.63,0,0,1,81,false,stim,true,0,605,1,0,0,80508,task2,239159,false,false,277,image-keyboard-response,5
true,3,0,2,1,false,z,false,false,0.0-2.0-0.7-0.64-3.64,0,0,1,81,false,stim,true,0,489,1,0,0,80508,task2,241155,false,false,280,image-keyboard-response,6
true,3,1,2,2,false,d,false,false,0.0-2.0-0.7-0.65-3.65,0,0,1,90,false,stim,true,1,684,1,0,1,80508,task2,243341,false,false,283,image-keyboard-response,7
true,3,2,2,2,true,d,false,true,0.0-2.0-0.7-0.66-3.66,0,0,1,68,false,stim,false,1,517,1,0,1,80508,task2,245363,false,false,286,image-keyboard-response,8
true,3,1,2,1,true,z,false,true,0.0-2.0-0.7-0.67-3.67,0,0,1,90,false,stim,false,1,783,1,1,2,80508,task2,247651,false,false,289,image-keyboard-response,9
true,3,1,2,1,true,z,false,true,0.0-2.0-0.7-0.68-3.68,0,0,1,90,false,stim,false,0,586,1,0,0,80508,task2,249742,false,false,292,image-keyboard-response,10
true,3,1,2,1,true,z,false,true,0.0-2.0-0.7-0.69-3.69,0,0,1,90,false,stim,false,1,541,1,1,2,80508,task2,251789,false,false,295,image-keyboard-response,11
true,3,1,2,1,true,z,false,true,0.0-2.0-0.7-0.70-3.70,0,0,1,90,false,stim,false,1,519,1,1,2,80508,task2,253812,false,false,298,image-keyboard-response,12
true,3,2,2,2,true,d,false,true,0.0-2.0-0.7-0.71-3.71,0,0,1,68,false,stim,false,1,681,1,0,1,80508,task2,256000,false,false,301,image-keyboard-response,13
true,3,1,2,1,true,z,false,true,0.0-2.0-0.8-0.72-3.72,0,0,1,90,false,stim,false,1,534,1,1,2,80508,task2,258041,false,false,304,image-keyboard-response,14
true,3,2,2,2,true,d,false,true,0.0-2.0-0.8-0.73-3.73,0,0,1,68,false,stim,false,1,562,1,0,1,80508,task2,260107,false,false,307,image-keyboard-response,15
true,3,1,2,1,true,z,false,true,0.0-2.0-0.8-0.74-3.74,0,0,1,90,false,stim,false,1,638,1,1,2,80508,task2,262254,false,false,310,image-keyboard-response,16
true,3,1,2,2,false,d,false,false,0.0-2.0-0.8-0.75-3.75,0,0,1,90,false,stim,true,1,515,1,0,1,80508,task2,264271,false,false,313,image-keyboard-response,17
true,3,1,2,1,true,z,false,true,0.0-2.0-0.8-0.76-3.76,0,0,1,90,false,stim,false,0,812,1,0,0,80508,task2,266588,false,false,316,image-keyboard-response,18
true,3,2,2,2,true,d,false,true,0.0-2.0-0.8-0.77-3.77,0,0,1,68,false,stim,false,1,440,1,0,1,80508,task2,268534,false,false,319,image-keyboard-response,19
true,3,1,2,1,true,z,false,true,0.0-2.0-0.8-0.78-3.78,0,0,1,90,false,stim,false,0,555,1,0,0,80508,task2,270598,false,false,322,image-keyboard-response,20
true,3,1,2,1,true,z,false,true,0.0-2.0-0.8-0.79-3.79,0,0,1,90,false,stim,false,0,482,1,0,0,80508,task2,272587,false,false,325,image-keyboard-response,21
true,3,1,2,1,true,z,false,true,0.0-2.0-0.8-0.80-3.80,0,0,1,90,false,stim,false,1,755,1,1,2,80508,task2,274848,false,false,328,image-keyboard-response,22
true,3,1,2,1,true,z,false,true,0.0-2.0-0.9-0.81-3.81,0,0,1,90,false,stim,false,0,1240,1,0,0,80508,task2,277597,false,false,331,image-keyboard-response,23
true,3,2,2,2,true,d,false,true,0.0-2.0-0.9-0.82-3.82,0,0,1,68,false,stim,false,1,573,1,0,1,80508,task2,279673,false,false,334,image-keyboard-response,24
true,3,1,2,1,true,z,false,true,0.0-2.0-0.9-0.83-3.83,0,0,1,90,false,stim,false,0,904,1,0,0,80508,task2,282083,false,false,337,image-keyboard-response,25
true,3,1,2,1,true,z,false,true,0.0-2.0-0.9-0.84-3.84,0,0,1,90,false,stim,false,1,1075,1,1,2,80508,task2,284660,false,false,340,image-keyboard-response,26
true,3,1,2,1,true,z,false,true,0.0-2.0-0.9-0.85-3.85,0,0,1,90,false,stim,false,1,661,1,1,2,80508,task2,286829,false,false,343,image-keyboard-response,27
true,3,1,2,1,true,z,false,true,0.0-2.0-0.9-0.86-3.86,0,0,1,90,false,stim,false,1,713,1,1,2,80508,task2,289048,false,false,346,image-keyboard-response,28
true,3,2,2,2,true,d,false,true,0.0-2.0-0.9-0.87-3.87,0,0,1,68,false,stim,false,1,1204,1,0,1,80508,task2,291755,false,false,349,image-keyboard-response,29
true,3,1,2,1,true,z,false,true,0.0-2.0-0.9-0.88-3.88,0,0,1,90,false,stim,false,0,631,1,0,0,80508,task2,293887,false,false,352,image-keyboard-response,30
true,3,2,2,2,true,d,false,true,0.0-2.0-0.9-0.89-3.89,0,0,1,68,false,stim,false,1,883,1,0,1,80508,task2,296279,false,false,355,image-keyboard-response,31
true,3,2,2,2,true,d,false,true,0.0-2.0-0.10-0.90-3.90,0,0,1,68,false,stim,false,1,560,1,0,1,80508,task2,298343,false,false,358,image-keyboard-response,32
true,3,2,2,2,true,d,false,false,0.0-2.0-0.10-0.91-3.91,0,0,1,68,false,stim,false,1,588,1,0,1,80508,task2,300435,false,true,361,image-keyboard-response,33
true,3,2,2,2,true,d,false,true,0.0-2.0-0.10-0.92-3.92,0,0,1,68,false,stim,false,1,403,1,0,1,80508,task2,302344,false,false,364,image-keyboard-response,34
true,3,1,2,1,true,z,false,true,0.0-2.0-0.10-0.93-3.93,0,0,1,90,false,stim,false,0,514,1,1,0,80508,task2,304360,false,false,367,image-keyboard-response,35
true,4,1,2,2,false,d,false,false,0.0-2.0-0.10-0.94-3.94,1,0,0,90,true,stim,true,1,687,1,0,2,80508,task2,306549,false,false,370,image-keyboard-response,1
true,4,1,2,1,true,z,false,true,0.0-2.0-0.10-0.95-3.95,1,0,0,90,false,stim,false,1,613,1,1,0,80508,task2,308664,false,false,373,image-keyboard-response,2
true,4,1,2,2,false,d,false,false,0.0-2.0-0.10-0.96-3.96,1,0,0,90,false,stim,true,1,542,1,0,2,80508,task2,310713,false,false,376,image-keyboard-response,3
true,4,2,2,2,true,d,false,true,0.0-2.0-0.10-0.97-3.97,1,0,0,68,false,stim,false,1,570,1,0,2,80508,task2,312791,false,false,379,image-keyboard-response,4
true,4,1,2,1,true,z,false,true,0.0-2.0-0.10-0.98-3.98,1,0,0,90,false,stim,false,1,906,1,1,0,80508,task2,315201,false,false,382,image-keyboard-response,5
true,4,2,2,2,true,d,false,true,0.0-2.0-0.11-0.99-3.99,1,0,0,68,false,stim,false,1,672,1,0,2,80508,task2,317381,false,false,385,image-keyboard-response,6
true,4,2,2,0,false,q,false,false,0.0-2.0-0.11-0.100-3.100,1,0,0,68,false,stim,true,2,481,1,0,1,80508,task2,319363,false,false,388,image-keyboard-response,7
true,4,1,2,1,true,z,false,true,0.0-2.0-0.11-0.101-3.101,1,0,0,90,false,stim,false,1,575,1,1,0,80508,task2,321443,false,false,391,image-keyboard-response,8
true,4,2,2,0,false,q,false,false,0.0-2.0-0.11-0.102-3.102,1,0,0,68,false,stim,true,2,463,1,0,1,80508,task2,323408,false,false,394,image-keyboard-response,9
true,4,2,2,2,true,d,false,true,0.0-2.0-0.11-0.103-3.103,1,0,0,68,false,stim,false,1,647,1,0,2,80508,task2,325561,false,false,397,image-keyboard-response,10
true,4,1,2,1,true,z,false,true,0.0-2.0-0.11-0.104-3.104,1,0,0,90,false,stim,false,1,710,1,1,0,80508,task2,327775,false,false,400,image-keyboard-response,11
true,4,1,2,1,true,z,false,true,0.0-2.0-0.11-0.105-3.105,1,0,0,90,false,stim,false,1,774,1,1,0,80508,task2,330058,false,false,403,image-keyboard-response,12
true,4,2,2,2,true,d,false,false,0.0-2.0-0.11-0.106-3.106,1,0,0,68,false,stim,false,1,572,1,0,2,80508,task2,332133,false,true,406,image-keyboard-response,13
true,4,0,2,0,true,q,false,true,0.0-2.0-0.11-0.107-3.107,1,0,0,81,false,stim,false,2,521,1,0,1,80508,task2,334159,false,false,409,image-keyboard-response,14
true,4,0,2,0,true,q,false,true,0.0-2.0-0.12-0.108-3.108,1,0,0,81,false,stim,false,2,930,1,0,1,80508,task2,336596,false,false,412,image-keyboard-response,15
true,4,1,2,1,true,z,false,false,0.0-2.0-0.12-0.109-3.109,1,0,0,90,false,stim,false,1,714,1,1,0,80508,task2,338813,false,true,415,image-keyboard-response,16
true,4,0,2,0,true,q,false,true,0.0-2.0-0.12-0.110-3.110,1,0,0,81,false,stim,false,2,637,1,0,1,80508,task2,340955,false,false,418,image-keyboard-response,17
true,4,2,2,2,true,d,false,true,0.0-2.0-0.12-0.111-3.111,1,0,0,68,false,stim,false,1,722,1,0,2,80508,task2,343183,false,false,421,image-keyboard-response,18
true,4,1,2,1,true,z,false,true,0.0-2.0-0.12-0.112-3.112,1,0,0,90,false,stim,false,1,513,1,1,0,80508,task2,345202,false,false,424,image-keyboard-response,19
true,4,1,2,1,true,z,false,true,0.0-2.0-0.12-0.113-3.113,1,0,0,90,false,stim,false,1,488,1,1,0,80508,task2,347194,false,false,427,image-keyboard-response,20
true,4,2,2,2,true,d,false,true,0.0-2.0-0.12-0.114-3.114,1,0,0,68,false,stim,false,1,532,1,0,2,80508,task2,349229,false,false,430,image-keyboard-response,21
true,4,0,2,0,true,q,false,true,0.0-2.0-0.12-0.115-3.115,1,0,0,81,false,stim,false,2,792,1,0,1,80508,task2,351527,false,false,433,image-keyboard-response,22
true,4,2,2,2,true,d,false,false,0.0-2.0-0.12-0.116-3.116,1,0,0,68,false,stim,false,1,842,1,0,2,80508,task2,353872,false,true,436,image-keyboard-response,23
true,4,1,2,1,true,z,false,true,0.0-2.0-0.13-0.117-3.117,1,0,0,90,false,stim,false,1,751,1,1,0,80508,task2,356133,false,false,439,image-keyboard-response,24
true,4,2,2,2,true,d,false,true,0.0-2.0-0.13-0.118-3.118,1,0,0,68,false,stim,false,1,557,1,0,2,80508,task2,358195,false,false,442,image-keyboard-response,25
true,4,0,2,0,true,q,false,false,0.0-2.0-0.13-0.119-3.119,1,0,0,81,false,stim,false,2,383,1,0,1,80508,task2,360087,false,true,445,image-keyboard-response,26
true,4,0,2,0,true,q,false,true,0.0-2.0-0.13-0.120-3.120,1,0,0,81,false,stim,false,2,497,1,0,1,80508,task2,362088,false,false,448,image-keyboard-response,27
true,4,2,2,2,true,d,false,true,0.0-2.0-0.13-0.121-3.121,1,0,0,68,false,stim,false,1,667,1,0,2,80508,task2,364260,false,false,451,image-keyboard-response,28
true,4,1,2,1,true,z,false,true,0.0-2.0-0.13-0.122-3.122,1,0,0,90,false,stim,false,1,634,1,1,0,80508,task2,366400,false,false,454,image-keyboard-response,29
true,4,2,2,2,true,d,false,true,0.0-2.0-0.13-0.123-3.123,1,0,0,68,false,stim,false,1,599,1,0,2,80508,task2,368506,false,false,457,image-keyboard-response,30
true,4,0,2,0,true,q,false,true,0.0-2.0-0.13-0.124-3.124,1,0,0,81,false,stim,false,2,815,1,1,1,80508,task2,370828,false,false,460,image-keyboard-response,31
true,4,1,2,1,true,z,false,true,0.0-2.0-0.13-0.125-3.125,1,0,0,90,false,stim,false,1,620,1,0,0,80508,task2,372952,false,false,463,image-keyboard-response,32
true,4,2,2,2,true,d,false,true,0.0-2.0-0.14-0.126-3.126,1,0,0,68,false,stim,false,1,576,1,0,2,80508,task2,375032,false,false,466,image-keyboard-response,33
true,4,1,2,1,true,z,false,true,0.0-2.0-0.14-0.127-3.127,1,0,0,90,false,stim,false,1,714,1,0,0,80508,task2,377256,false,false,469,image-keyboard-response,34
true,5,2,2,0,false,q,false,false,0.0-2.0-0.14-0.128-3.128,0,1,0,68,true,stim,true,2,627,1,0,2,80508,task2,379387,false,false,472,image-keyboard-response,1
true,5,2,2,0,false,q,false,false,0.0-2.0-0.14-0.129-3.129,0,1,0,68,false,stim,true,2,734,1,0,2,80508,task2,381626,false,false,475,image-keyboard-response,2
true,5,1,2,2,false,d,false,false,0.0-2.0-0.14-0.130-3.130,0,1,0,90,false,stim,true,1,692,1,0,0,80508,task2,383821,false,false,478,image-keyboard-response,3
true,5,0,2,0,true,q,false,true,0.0-2.0-0.14-0.131-3.131,0,1,0,81,false,stim,false,0,682,1,1,1,80508,task2,386005,false,false,481,image-keyboard-response,4
true,5,1,2,2,false,d,false,false,0.0-2.0-0.14-0.132-3.132,0,1,0,90,false,stim,true,1,595,1,0,0,80508,task2,388105,false,false,484,image-keyboard-response,5
true,5,0,2,0,true,q,false,true,0.0-2.0-0.14-0.133-3.133,0,1,0,81,false,stim,false,0,676,1,1,1,80508,task2,390284,false,false,487,image-keyboard-response,6
true,5,0,2,0,true,q,false,false,0.0-2.0-0.14-0.134-3.134,0,1,0,81,false,stim,false,0,642,1,1,1,80508,task2,392432,false,true,490,image-keyboard-response,7
true,5,2,2,2,true,d,false,true,0.0-2.0-0.15-0.135-3.135,0,1,0,68,false,stim,false,1,905,1,0,0,80508,task2,394845,false,false,493,image-keyboard-response,8
true,5,0,2,0,true,q,false,true,0.0-2.0-0.15-0.136-3.136,0,1,0,81,false,stim,false,0,752,1,1,1,80508,task2,397107,false,false,496,image-keyboard-response,9
true,5,2,2,2,true,d,false,true,0.0-2.0-0.15-0.137-3.137,0,1,0,68,false,stim,false,1,668,1,0,0,80508,task2,399280,false,false,499,image-keyboard-response,10
true,5,0,2,0,true,q,false,true,0.0-2.0-0.15-0.138-3.138,0,1,0,81,false,stim,false,2,515,1,0,2,80508,task2,401304,false,false,502,image-keyboard-response,11
true,5,2,2,2,true,d,false,true,0.0-2.0-0.15-0.139-3.139,0,1,0,68,false,stim,false,1,531,1,0,0,80508,task2,403339,false,false,505,image-keyboard-response,12
true,5,0,2,0,true,q,false,true,0.0-2.0-0.15-0.140-3.140,0,1,0,81,false,stim,false,2,580,1,0,2,80508,task2,405422,false,false,508,image-keyboard-response,13
true,5,0,2,0,true,q,false,true,0.0-2.0-0.15-0.141-3.141,0,1,0,81,false,stim,false,0,516,1,1,1,80508,task2,407442,false,false,511,image-keyboard-response,14
true,5,0,2,0,true,q,false,true,0.0-2.0-0.15-0.142-3.142,0,1,0,81,false,stim,false,0,564,1,1,1,80508,task2,409514,false,false,514,image-keyboard-response,15
true,5,0,2,0,true,q,false,true,0.0-2.0-0.15-0.143-3.143,0,1,0,81,false,stim,false,2,1239,1,0,2,80508,task2,412258,false,false,517,image-keyboard-response,16
true,5,0,2,0,true,q,false,true,0.0-2.0-0.16-0.144-3.144,0,1,0,81,false,stim,false,2,698,1,0,2,80508,task2,414461,false,false,520,image-keyboard-response,17
true,5,2,2,2,true,d,false,true,0.0-2.0-0.16-0.145-3.145,0,1,0,68,false,stim,false,1,768,1,0,0,80508,task2,416732,false,false,523,image-keyboard-response,18
true,5,2,2,2,true,d,false,true,0.0-2.0-0.16-0.146-3.146,0,1,0,68,false,stim,false,1,555,1,0,0,80508,task2,418793,false,false,526,image-keyboard-response,19
true,5,0,2,0,true,q,false,true,0.0-2.0-0.16-0.147-3.147,0,1,0,81,false,stim,false,0,673,1,1,1,80508,task2,420978,false,false,529,image-keyboard-response,20
true,5,0,2,0,true,q,false,true,0.0-2.0-0.16-0.148-3.148,0,1,0,81,false,stim,false,0,518,1,1,1,80508,task2,423003,false,false,532,image-keyboard-response,21
true,5,0,2,0,true,q,false,false,0.0-2.0-0.16-0.149-3.149,0,1,0,81,false,stim,false,2,517,1,0,2,80508,task2,425022,false,true,535,image-keyboard-response,22
true,5,2,2,2,true,d,false,true,0.0-2.0-0.16-0.150-3.150,0,1,0,68,false,stim,false,1,619,1,0,0,80508,task2,427144,false,false,538,image-keyboard-response,23
true,5,0,2,0,true,q,false,true,0.0-2.0-0.16-0.151-3.151,0,1,0,81,false,stim,false,2,479,1,0,2,80508,task2,429126,false,false,541,image-keyboard-response,24
true,5,0,2,0,true,q,false,true,0.0-2.0-0.16-0.152-3.152,0,1,0,81,false,stim,false,0,440,1,1,1,80508,task2,431068,false,false,544,image-keyboard-response,25
true,5,2,2,2,true,d,false,true,0.0-2.0-0.17-0.153-3.153,0,1,0,68,false,stim,false,1,645,1,0,0,80508,task2,433215,false,false,547,image-keyboard-response,26
true,5,0,2,0,true,q,false,true,0.0-2.0-0.17-0.154-3.154,0,1,0,81,false,stim,false,0,484,1,1,1,80508,task2,435206,false,false,550,image-keyboard-response,27
true,5,0,2,0,true,q,false,true,0.0-2.0-0.17-0.155-3.155,0,1,0,81,false,stim,false,2,750,1,0,2,80508,task2,437463,false,false,553,image-keyboard-response,28
true,5,0,2,0,true,q,false,true,0.0-2.0-0.17-0.156-3.156,0,1,0,81,false,stim,false,2,394,1,0,2,80508,task2,439361,false,false,556,image-keyboard-response,29
true,5,0,2,0,true,q,false,true,0.0-2.0-0.17-0.157-3.157,0,1,0,81,false,stim,false,0,679,1,1,1,80508,task2,441542,false,false,559,image-keyboard-response,30
true,5,2,2,2,true,d,false,true,0.0-2.0-0.17-0.158-3.158,0,1,0,68,false,stim,false,1,675,1,0,0,80508,task2,443720,false,false,562,image-keyboard-response,31
true,5,0,2,0,true,q,false,true,0.0-2.0-0.17-0.159-3.159,0,1,0,81,false,stim,false,0,640,1,1,1,80508,task2,445864,false,false,565,image-keyboard-response,32
true,5,2,2,2,true,d,false,true,0.0-2.0-0.17-0.160-3.160,0,1,0,68,false,stim,false,1,893,1,0,0,80508,task2,448260,false,false,568,image-keyboard-response,33
true,5,0,2,0,true,q,false,true,0.0-2.0-0.17-0.161-3.161,0,1,0,81,false,stim,false,2,694,1,0,2,80508,task2,450459,false,false,571,image-keyboard-response,34
true,5,2,2,2,true,d,false,true,0.0-2.0-0.18-0.162-3.162,0,1,0,68,false,stim,false,1,1137,1,0,0,80508,task2,453102,false,false,574,image-keyboard-response,35
true,6,0,2,2,false,d,false,false,0.0-2.0-0.18-0.163-3.163,0,1,0,81,true,stim,true,0,551,1,0,2,80508,task2,455157,false,false,577,image-keyboard-response,1
true,6,0,2,2,false,d,false,false,0.0-2.0-0.18-0.164-3.164,0,1,0,81,false,stim,true,0,452,1,0,2,80508,task2,457115,false,false,580,image-keyboard-response,2
true,6,0,2,0,true,q,false,false,0.0-2.0-0.18-0.165-3.165,0,1,0,81,false,stim,false,0,717,1,1,1,80508,task2,459336,false,true,583,image-keyboard-response,3
true,6,0,2,0,true,q,false,true,0.0-2.0-0.18-0.166-3.166,0,1,0,81,false,stim,false,0,633,1,1,1,80508,task2,461473,false,false,586,image-keyboard-response,4
true,6,2,2,0,false,q,false,false,0.0-2.0-0.18-0.167-3.167,0,1,0,68,false,stim,true,2,509,1,0,0,80508,task2,463491,false,false,589,image-keyboard-response,5
true,6,0,2,0,true,q,false,true,0.0-2.0-0.18-0.168-3.168,0,1,0,81,false,stim,false,0,616,1,1,1,80508,task2,465613,false,false,592,image-keyboard-response,6
true,6,2,2,0,false,q,false,false,0.0-2.0-0.18-0.169-3.169,0,1,0,68,false,stim,true,2,436,1,0,0,80508,task2,467553,false,false,595,image-keyboard-response,7
true,6,1,2,2,false,d,true,false,0.0-2.0-0.18-0.170-3.170,0,1,0,90,false,stim,false,0,498,1,0,2,80508,task2,469559,false,false,598,image-keyboard-response,8
true,6,2,2,2,true,d,false,true,0.0-2.0-0.19-0.171-3.171,0,1,0,68,false,stim,false,0,491,1,0,2,80508,task2,471560,false,false,601,image-keyboard-response,9
true,6,2,2,2,true,d,false,true,0.0-2.0-0.19-0.172-3.172,0,1,0,68,false,stim,false,0,560,1,0,2,80508,task2,473622,false,false,604,image-keyboard-response,10
true,6,2,2,2,true,d,false,true,0.0-2.0-0.19-0.173-3.173,0,1,0,68,false,stim,false,0,377,1,0,2,80508,task2,475504,false,false,607,image-keyboard-response,11
true,6,0,2,0,true,q,false,true,0.0-2.0-0.19-0.174-3.174,0,1,0,81,false,stim,false,2,718,1,0,0,80508,task2,477724,false,false,610,image-keyboard-response,12
true,6,0,2,0,true,q,false,true,0.0-2.0-0.19-0.175-3.175,0,1,0,81,false,stim,false,0,644,1,1,1,80508,task2,479875,false,false,613,image-keyboard-response,13
true,6,0,2,0,true,q,false,true,0.0-2.0-0.19-0.176-3.176,0,1,0,81,false,stim,false,0,455,1,1,1,80508,task2,481833,false,false,616,image-keyboard-response,14
true,6,0,2,0,true,q,false,true,0.0-2.0-0.19-0.177-3.177,0,1,0,81,false,stim,false,2,462,1,0,0,80508,task2,483802,false,false,619,image-keyboard-response,15
true,6,0,2,0,true,q,false,true,0.0-2.0-0.19-0.178-3.178,0,1,0,81,false,stim,false,2,388,1,0,0,80508,task2,485693,false,false,622,image-keyboard-response,16
true,6,0,2,0,true,q,false,true,0.0-2.0-0.19-0.179-3.179,0,1,0,81,false,stim,false,0,693,1,1,1,80508,task2,487892,false,false,625,image-keyboard-response,17
true,6,2,2,2,true,d,false,true,0.0-2.0-0.20-0.180-3.180,0,1,0,68,false,stim,false,0,635,1,0,2,80508,task2,490032,false,false,628,image-keyboard-response,18
true,6,0,2,0,true,q,false,false,0.0-2.0-0.20-0.181-3.181,0,1,0,81,false,stim,false,2,695,1,0,0,80508,task2,492234,false,true,631,image-keyboard-response,19
true,6,0,2,0,true,q,false,true,0.0-2.0-0.20-0.182-3.182,0,1,0,81,false,stim,false,0,746,1,1,1,80508,task2,494485,false,false,634,image-keyboard-response,20
true,6,0,2,0,true,q,false,true,0.0-2.0-0.20-0.183-3.183,0,1,0,81,false,stim,false,2,575,1,0,0,80508,task2,496567,false,false,637,image-keyboard-response,21
true,6,0,2,0,true,q,false,true,0.0-2.0-0.20-0.184-3.184,0,1,0,81,false,stim,false,0,593,1,1,1,80508,task2,498667,false,false,640,image-keyboard-response,22
true,6,0,2,0,true,q,false,true,0.0-2.0-0.20-0.185-3.185,0,1,0,81,false,stim,false,0,744,1,1,1,80508,task2,500916,false,false,643,image-keyboard-response,23
true,6,2,2,2,true,d,false,false,0.0-2.0-0.20-0.186-3.186,0,1,0,68,false,stim,false,0,570,1,0,2,80508,task2,502993,false,true,646,image-keyboard-response,24
true,6,2,2,2,true,d,false,true,0.0-2.0-0.20-0.187-3.187,0,1,0,68,false,stim,false,0,948,1,0,2,80508,task2,505446,false,false,649,image-keyboard-response,25
true,6,0,2,0,true,q,false,true,0.0-2.0-0.20-0.188-3.188,0,1,0,81,false,stim,false,2,888,1,0,0,80508,task2,507842,false,false,652,image-keyboard-response,26
true,6,0,2,0,true,q,false,true,0.0-2.0-0.21-0.189-3.189,0,1,0,81,false,stim,false,2,519,1,0,0,80508,task2,509864,false,false,655,image-keyboard-response,27
true,6,0,2,0,true,q,false,true,0.0-2.0-0.21-0.190-3.190,0,1,0,81,false,stim,false,2,488,1,0,0,80508,task2,511858,false,false,658,image-keyboard-response,28
true,6,0,2,0,true,q,false,true,0.0-2.0-0.21-0.191-3.191,0,1,0,81,false,stim,false,0,753,1,1,1,80508,task2,514115,false,false,661,image-keyboard-response,29
true,6,0,2,0,true,q,false,true,0.0-2.0-0.21-0.192-3.192,0,1,0,81,false,stim,false,2,928,1,0,0,80508,task2,516549,false,false,664,image-keyboard-response,30
true,6,0,2,0,true,q,false,true,0.0-2.0-0.21-0.193-3.193,0,1,0,81,false,stim,false,0,795,1,1,1,80508,task2,518853,false,false,667,image-keyboard-response,31
true,6,2,2,2,true,d,false,true,0.0-2.0-0.21-0.194-3.194,0,1,0,68,false,stim,false,0,593,1,0,2,80508,task2,520949,false,false,670,image-keyboard-response,32
true,6,2,2,2,true,d,false,true,0.0-2.0-0.21-0.195-3.195,0,1,0,68,false,stim,false,0,624,1,0,2,80508,task2,523081,false,false,673,image-keyboard-response,33
true,6,2,2,2,true,d,false,true,0.0-2.0-0.21-0.196-3.196,0,1,0,68,false,stim,false,0,620,1,0,2,80508,task2,525206,false,false,676,image-keyboard-response,34
true,7,0,2,0,true,q,false,false,0.0-2.0-0.21-0.197-3.197,0,1,0,81,true,stim,false,0,1214,1,1,1,80508,task2,527926,false,true,679,image-keyboard-response,1
true,7,2,2,1,false,z,false,false,0.0-2.0-0.22-0.198-3.198,0,1,0,68,false,stim,true,2,1330,1,0,2,80508,task2,530761,false,false,682,image-keyboard-response,2
true,7,2,2,1,false,z,false,false,0.0-2.0-0.22-0.199-3.199,0,1,0,68,false,stim,true,2,671,1,0,2,80508,task2,532936,false,false,685,image-keyboard-response,3
true,7,0,2,0,true,q,false,true,0.0-2.0-0.22-0.200-3.200,0,1,0,81,false,stim,false,0,748,1,1,1,80508,task2,535192,false,false,688,image-keyboard-response,4
true,7,0,2,1,false,z,true,false,0.0-2.0-0.22-0.201-3.201,0,1,0,81,false,stim,false,2,938,1,0,2,80508,task2,537635,false,false,691,image-keyboard-response,5
true,7,0,2,1,false,z,false,false,0.0-2.0-0.22-0.202-3.202,0,1,0,81,false,stim,true,0,646,1,0,0,80508,task2,539787,false,false,694,image-keyboard-response,6
true,7,0,2,1,false,z,false,false,0.0-2.0-0.22-0.203-3.203,0,1,0,81,false,stim,true,0,739,1,0,0,80508,task2,542032,false,false,697,image-keyboard-response,7
true,7,0,2,0,true,q,false,true,0.0-2.0-0.22-0.204-3.204,0,1,0,81,false,stim,false,0,734,1,1,1,80508,task2,544271,false,false,700,image-keyboard-response,8
true,7,1,2,1,true,z,false,false,0.0-2.0-0.22-0.205-3.205,0,1,0,90,false,stim,false,0,818,1,0,0,80508,task2,546595,false,true,703,image-keyboard-response,9
true,7,0,2,0,true,q,false,true,0.0-2.0-0.22-0.206-3.206,0,1,0,81,false,stim,false,0,670,1,1,1,80508,task2,548769,false,false,706,image-keyboard-response,10
true,7,2,2,1,false,z,true,false,0.0-2.0-0.23-0.207-3.207,0,1,0,68,false,stim,false,0,1031,1,0,0,80508,task2,551307,false,false,709,image-keyboard-response,11
true,7,0,2,0,true,q,false,true,0.0-2.0-0.23-0.208-3.208,0,1,0,81,false,stim,false,0,685,1,1,1,80508,task2,553497,false,false,712,image-keyboard-response,12
true,7,0,2,1,false,z,false,false,0.0-2.0-0.23-0.209-3.209,0,1,0,81,false,stim,true,0,634,1,0,0,80508,task2,555635,false,false,715,image-keyboard-response,13
true,7,1,2,1,true,z,false,true,0.0-2.0-0.23-0.210-3.210,0,1,0,90,false,stim,false,2,618,1,0,2,80508,task2,557760,false,false,718,image-keyboard-response,14
true,7,1,2,1,true,z,false,true,0.0-2.0-0.23-0.211-3.211,0,1,0,90,false,stim,false,2,431,1,0,2,80508,task2,559696,false,false,721,image-keyboard-response,15
true,7,1,2,1,true,z,false,false,0.0-2.0-0.23-0.212-3.212,0,1,0,90,false,stim,false,0,1535,1,0,0,80508,task2,562736,false,true,724,image-keyboard-response,16
true,7,1,2,1,true,z,false,true,0.0-2.0-0.23-0.213-3.213,0,1,0,90,false,stim,false,2,695,1,0,2,80508,task2,564939,false,false,727,image-keyboard-response,17
true,7,0,2,0,true,q,false,true,0.0-2.0-0.23-0.214-3.214,0,1,0,81,false,stim,false,0,1186,1,1,1,80508,task2,567630,false,false,730,image-keyboard-response,18
true,7,0,2,0,true,q,false,true,0.0-2.0-0.23-0.215-3.215,0,1,0,81,false,stim,false,0,507,1,1,1,80508,task2,569643,false,false,733,image-keyboard-response,19
true,7,0,2,0,true,q,false,true,0.0-2.0-0.24-0.216-3.216,0,1,0,81,false,stim,false,0,474,1,1,1,80508,task2,571626,false,false,736,image-keyboard-response,20
true,7,1,2,1,true,z,false,true,0.0-2.0-0.24-0.217-3.217,0,1,0,90,false,stim,false,0,531,1,0,0,80508,task2,573668,false,false,739,image-keyboard-response,21
true,7,1,2,1,true,z,false,true,0.0-2.0-0.24-0.218-3.218,0,1,0,90,false,stim,false,0,854,1,0,0,80508,task2,576031,false,false,742,image-keyboard-response,22
true,7,0,2,0,true,q,false,true,0.0-2.0-0.24-0.219-3.219,0,1,0,81,false,stim,false,0,740,1,1,1,80508,task2,578274,false,false,745,image-keyboard-response,23
true,7,1,2,1,true,z,false,true,0.0-2.0-0.24-0.220-3.220,0,1,0,90,false,stim,false,2,477,1,0,2,80508,task2,580257,false,false,748,image-keyboard-response,24
true,7,1,2,1,true,z,false,true,0.0-2.0-0.24-0.221-3.221,0,1,0,90,false,stim,false,0,463,1,0,0,80508,task2,582226,false,false,751,image-keyboard-response,25
true,7,1,2,1,true,z,false,true,0.0-2.0-0.24-0.222-3.222,0,1,0,90,false,stim,false,2,562,1,0,2,80508,task2,584290,false,false,754,image-keyboard-response,26
true,7,0,2,0,true,q,false,true,0.0-2.0-0.24-0.223-3.223,0,1,0,81,false,stim,false,0,682,1,1,1,80508,task2,586481,false,false,757,image-keyboard-response,27
true,7,1,2,1,true,z,false,true,0.0-2.0-0.24-0.224-3.224,0,1,0,90,false,stim,false,2,466,1,0,2,80508,task2,588454,false,false,760,image-keyboard-response,28
true,7,1,2,1,true,z,false,true,0.0-2.0-0.25-0.225-3.225,0,1,0,90,false,stim,false,2,520,1,0,2,80508,task2,590481,false,false,763,image-keyboard-response,29
true,7,1,2,1,true,z,false,true,0.0-2.0-0.25-0.226-3.226,0,1,0,90,false,stim,false,0,395,1,0,0,80508,task2,592382,false,false,766,image-keyboard-response,30
true,7,0,2,0,true,q,false,true,0.0-2.0-0.25-0.227-3.227,0,1,0,81,false,stim,false,0,547,1,0,1,80508,task2,594434,false,false,769,image-keyboard-response,31
true,7,0,2,0,true,q,false,false,0.0-2.0-0.25-0.228-3.228,0,1,0,81,false,stim,false,0,670,1,0,1,80508,task2,596610,false,true,772,image-keyboard-response,32
true,7,1,2,1,true,z,false,true,0.0-2.0-0.25-0.229-3.229,0,1,0,90,false,stim,false,0,1909,1,0,0,80508,task2,600028,false,false,775,image-keyboard-response,33
true,7,1,2,0,false,q,true,false,0.0-2.0-0.25-0.230-3.230,0,1,0,90,false,stim,false,0,990,1,0,1,80508,task2,602520,false,false,778,image-keyboard-response,34
true,7,1,2,1,true,z,false,true,0.0-2.0-0.25-0.231-3.231,0,1,0,90,false,stim,false,2,642,1,1,2,80508,task2,604667,false,false,781,image-keyboard-response,35
true,8,1,2,2,false,d,false,false,0.0-2.0-0.25-0.232-3.232,0,0,1,90,true,stim,true,1,451,1,0,0,80508,task2,606622,false,false,784,image-keyboard-response,1
true,8,1,2,1,true,z,false,true,0.0-2.0-0.25-0.233-3.233,0,0,1,90,false,stim,false,1,910,1,1,2,80508,task2,609036,false,false,787,image-keyboard-response,2
true,8,0,2,1,false,z,false,false,0.0-2.0-0.26-0.234-3.234,0,0,1,81,false,stim,true,0,537,1,0,1,80508,task2,611077,false,false,790,image-keyboard-response,3
true,8,1,2,1,true,z,false,true,0.0-2.0-0.26-0.235-3.235,0,0,1,90,false,stim,false,1,750,1,1,2,80508,task2,613331,false,false,793,image-keyboard-response,4
true,8,1,2,1,true,z,false,false,0.0-2.0-0.26-0.236-3.236,0,0,1,90,false,stim,false,1,589,1,1,2,80508,task2,615424,false,true,796,image-keyboard-response,5
true,8,1,2,2,false,d,false,false,0.0-2.0-0.26-0.237-3.237,0,0,1,90,false,stim,true,1,864,1,0,0,80508,task2,617792,false,false,799,image-keyboard-response,6
true,8,2,2,1,false,z,true,false,0.0-2.0-0.26-0.238-3.238,0,0,1,68,false,stim,false,0,637,1,0,1,80508,task2,619937,false,false,802,image-keyboard-response,7
true,8,1,2,1,true,z,false,true,0.0-2.0-0.26-0.239-3.239,0,0,1,90,false,stim,false,1,1539,1,1,2,80508,task2,622978,false,false,805,image-keyboard-response,8
true,8,0,2,2,false,d,true,false,0.0-2.0-0.26-0.240-3.240,0,0,1,81,false,stim,false,1,711,1,0,0,80508,task2,625194,false,false,808,image-keyboard-response,9
true,8,2,2,1,false,z,true,false,0.0-2.0-0.26-0.241-3.241,0,0,1,68,false,stim,false,0,1141,1,0,1,80508,task2,627843,false,false,811,image-keyboard-response,10
true,8,1,2,2,false,d,false,false,0.0-2.0-0.26-0.242-3.242,0,0,1,90,false,stim,true,1,803,1,0,0,80508,task2,630150,false,false,814,image-keyboard-response,11
true,8,2,2,2,true,d,false,false,0.0-2.0-0.27-0.243-3.243,0,0,1,68,false,stim,false,1,681,1,0,0,80508,task2,632334,false,true,817,image-keyboard-response,12
true,8,1,2,1,true,z,false,true,0.0-2.0-0.27-0.244-3.244,0,0,1,90,false,stim,false,1,796,1,1,2,80508,task2,634636,false,false,820,image-keyboard-response,13
true,8,0,2,2,false,d,true,false,0.0-2.0-0.27-0.245-3.245,0,0,1,81,false,stim,false,1,556,1,0,0,80508,task2,636698,false,false,823,image-keyboard-response,14
true,8,0,2,1,false,z,false,false,0.0-2.0-0.27-0.246-3.246,0,0,1,81,false,stim,true,0,1232,1,0,1,80508,task2,639431,false,false,826,image-keyboard-response,15
true,8,1,2,1,true,z,false,true,0.0-2.0-0.27-0.247-3.247,0,0,1,90,false,stim,false,1,647,1,1,2,80508,task2,641582,false,false,829,image-keyboard-response,16
true,8,1,2,1,true,z,false,true,0.0-2.0-0.27-0.248-3.248,0,0,1,90,false,stim,false,1,559,1,1,2,80508,task2,643644,false,false,832,image-keyboard-response,17
true,8,1,2,1,true,z,false,true,0.0-2.0-0.27-0.249-3.249,0,0,1,90,false,stim,false,0,638,1,0,1,80508,task2,645788,false,false,835,image-keyboard-response,18
true,8,1,2,1,true,z,false,true,0.0-2.0-0.27-0.250-3.250,0,0,1,90,false,stim,false,0,499,1,0,1,80508,task2,647790,false,false,838,image-keyboard-response,19
true,8,1,2,2,false,d,false,false,0.0-2.0-0.27-0.251-3.251,0,0,1,90,false,stim,true,1,546,1,0,0,80508,task2,649839,false,false,841,image-keyboard-response,20
true,8,1,2,1,true,z,false,true,0.0-2.0-0.28-0.252-3.252,0,0,1,90,false,stim,false,0,459,1,0,1,80508,task2,651809,false,false,844,image-keyboard-response,21
true,8,2,2,2,true,d,false,true,0.0-2.0-0.28-0.253-3.253,0,0,1,68,false,stim,false,1,498,1,0,0,80508,task2,653818,false,false,847,image-keyboard-response,22
true,8,2,2,2,true,d,false,true,0.0-2.0-0.28-0.254-3.254,0,0,1,68,false,stim,false,1,692,1,0,0,80508,task2,656015,false,false,850,image-keyboard-response,23
true,8,2,2,2,true,d,false,true,0.0-2.0-0.28-0.255-3.255,0,0,1,68,false,stim,false,1,470,1,0,0,80508,task2,657993,false,false,853,image-keyboard-response,24
true,8,1,2,1,true,z,false,true,0.0-2.0-0.28-0.256-3.256,0,0,1,90,false,stim,false,0,500,1,0,1,80508,task2,659995,false,false,856,image-keyboard-response,25
true,8,1,2,1,true,z,false,false,0.0-2.0-0.28-0.257-3.257,0,0,1,90,false,stim,false,1,487,1,1,2,80508,task2,661988,false,true,859,image-keyboard-response,26
true,8,1,2,1,true,z,false,true,0.0-2.0-0.28-0.258-3.258,0,0,1,90,false,stim,false,1,686,1,1,2,80508,task2,664178,false,false,862,image-keyboard-response,27
true,8,1,2,1,true,z,false,true,0.0-2.0-0.28-0.259-3.259,0,0,1,90,false,stim,false,1,450,1,0,2,80508,task2,666132,false,false,865,image-keyboard-response,28
true,8,1,2,1,true,z,false,true,0.0-2.0-0.28-0.260-3.260,0,0,1,90,false,stim,false,0,726,1,0,1,80508,task2,668366,false,false,868,image-keyboard-response,29
true,8,1,2,1,true,z,false,true,0.0-2.0-0.29-0.261-3.261,0,0,1,90,false,stim,false,1,487,1,0,2,80508,task2,670359,false,false,871,image-keyboard-response,30
true,8,2,2,2,true,d,false,true,0.0-2.0-0.29-0.262-3.262,0,0,1,68,false,stim,false,1,691,1,1,0,80508,task2,672555,false,false,874,image-keyboard-response,31
true,8,1,2,1,true,z,false,true,0.0-2.0-0.29-0.263-3.263,0,0,1,90,false,stim,false,0,701,1,0,1,80508,task2,674759,false,false,877,image-keyboard-response,32
true,9,1,2,0,false,q,false,false,0.0-2.0-0.29-0.264-3.264,1,0,0,90,true,stim,true,1,432,1,0,1,80508,task2,676695,false,false,880,image-keyboard-response,1
true,9,2,2,2,true,d,false,true,0.0-2.0-0.29-0.265-3.265,1,0,0,68,false,stim,false,2,758,1,1,0,80508,task2,678956,false,false,883,image-keyboard-response,2
true,9,1,2,2,false,d,false,false,0.0-2.0-0.29-0.266-3.266,1,0,0,90,false,stim,true,1,497,1,0,2,80508,task2,680958,false,false,886,image-keyboard-response,3
true,9,2,2,2,true,d,false,true,0.0-2.0-0.29-0.267-3.267,1,0,0,68,false,stim,false,2,704,1,1,0,80508,task2,683164,false,false,889,image-keyboard-response,4
true,9,1,2,2,false,d,false,false,0.0-2.0-0.29-0.268-3.268,1,0,0,90,false,stim,true,1,673,1,0,2,80508,task2,685342,false,false,892,image-keyboard-response,5
true,9,1,2,0,false,q,false,false,0.0-2.0-0.29-0.269-3.269,1,0,0,90,false,stim,true,1,698,1,0,1,80508,task2,687543,false,false,895,image-keyboard-response,6
true,9,2,2,2,true,d,false,true,0.0-2.0-0.30-0.270-3.270,1,0,0,68,false,stim,false,1,880,1,0,2,80508,task2,689927,false,false,898,image-keyboard-response,7
true,9,2,2,0,false,q,true,false,0.0-2.0-0.30-0.271-3.271,1,0,0,68,false,stim,false,1,883,1,0,1,80508,task2,692324,false,false,901,image-keyboard-response,8
true,9,0,2,0,true,q,false,true,0.0-2.0-0.30-0.272-3.272,1,0,0,81,false,stim,false,1,851,1,0,1,80508,task2,694677,false,false,904,image-keyboard-response,9
true,9,0,2,0,true,q,false,true,0.0-2.0-0.30-0.273-3.273,1,0,0,81,false,stim,false,1,972,1,0,1,80508,task2,697152,false,false,907,image-keyboard-response,10
true,9,2,2,2,true,d,false,true,0.0-2.0-0.30-0.274-3.274,1,0,0,68,false,stim,false,2,460,1,1,0,80508,task2,699121,false,false,910,image-keyboard-response,11
true,9,2,2,2,true,d,false,true,0.0-2.0-0.30-0.275-3.275,1,0,0,68,false,stim,false,2,960,1,1,0,80508,task2,701585,false,false,913,image-keyboard-response,12
true,9,2,2,2,true,d,false,true,0.0-2.0-0.30-0.276-3.276,1,0,0,68,false,stim,false,1,1031,1,0,2,80508,task2,704123,false,false,916,image-keyboard-response,13
true,9,2,2,2,true,d,false,true,0.0-2.0-0.30-0.277-3.277,1,0,0,68,false,stim,false,2,835,1,1,0,80508,task2,706463,false,false,919,image-keyboard-response,14
true,9,2,2,2,true,d,false,true,0.0-2.0-0.30-0.278-3.278,1,0,0,68,false,stim,false,1,622,1,0,2,80508,task2,708589,false,false,922,image-keyboard-response,15
true,9,0,2,0,true,q,false,true,0.0-2.0-0.31-0.279-3.279,1,0,0,81,false,stim,false,1,1168,1,0,1,80508,task2,711267,false,false,925,image-keyboard-response,16
true,9,0,2,0,true,q,false,true,0.0-2.0-0.31-0.280-3.280,1,0,0,81,false,stim,false,1,520,1,0,1,80508,task2,713289,false,false,928,image-keyboard-response,17
true,9,2,2,2,true,d,false,true,0.0-2.0-0.31-0.281-3.281,1,0,0,68,false,stim,false,1,840,1,0,2,80508,task2,715636,false,false,931,image-keyboard-response,18
true,9,0,2,0,true,q,false,true,0.0-2.0-0.31-0.282-3.282,1,0,0,81,false,stim,false,1,896,1,0,1,80508,task2,718042,false,false,934,image-keyboard-response,19
true,9,2,2,2,true,d,false,true,0.0-2.0-0.31-0.283-3.283,1,0,0,68,false,stim,false,2,1436,1,1,0,80508,task2,720985,false,false,937,image-keyboard-response,20
true,9,2,2,2,true,d,false,true,0.0-2.0-0.31-0.284-3.284,1,0,0,68,false,stim,false,1,1557,1,0,2,80508,task2,724048,false,false,940,image-keyboard-response,21
true,9,2,2,2,true,d,false,true,0.0-2.0-0.31-0.285-3.285,1,0,0,68,false,stim,false,2,1382,1,1,0,80508,task2,726938,false,false,943,image-keyboard-response,22
true,9,2,2,2,true,d,false,false,0.0-2.0-0.31-0.286-3.286,1,0,0,68,false,stim,false,1,767,1,0,2,80508,task2,729210,false,true,946,image-keyboard-response,23
true,9,2,2,2,true,d,false,true,0.0-2.0-0.31-0.287-3.287,1,0,0,68,false,stim,false,2,545,1,1,0,80508,task2,731262,false,false,949,image-keyboard-response,24
true,9,0,2,0,true,q,false,false,0.0-2.0-0.32-0.288-3.288,1,0,0,81,false,stim,false,1,553,1,0,1,80508,task2,733326,false,true,952,image-keyboard-response,25
true,9,0,2,0,true,q,false,true,0.0-2.0-0.32-0.289-3.289,1,0,0,81,false,stim,false,1,470,1,0,1,80508,task2,735298,false,false,955,image-keyboard-response,26
true,9,2,2,2,true,d,false,true,0.0-2.0-0.32-0.290-3.290,1,0,0,68,false,stim,false,1,617,1,0,2,80508,task2,737423,false,false,958,image-keyboard-response,27
true,9,2,2,2,true,d,false,true,0.0-2.0-0.32-0.291-3.291,1,0,0,68,false,stim,false,1,427,1,0,2,80508,task2,739357,false,false,961,image-keyboard-response,28
true,9,2,2,2,true,d,false,true,0.0-2.0-0.32-0.292-3.292,1,0,0,68,false,stim,false,2,486,1,1,0,80508,task2,741346,false,false,964,image-keyboard-response,29
true,9,2,2,2,true,d,false,true,0.0-2.0-0.32-0.293-3.293,1,0,0,68,false,stim,false,2,603,1,1,0,80508,task2,743455,false,false,967,image-keyboard-response,30
true,9,0,2,0,true,q,false,false,0.0-2.0-0.32-0.294-3.294,1,0,0,81,false,stim,false,1,641,1,0,1,80508,task2,745605,false,true,970,image-keyboard-response,31
true,9,2,2,2,true,d,false,true,0.0-2.0-0.32-0.295-3.295,1,0,0,68,false,stim,false,2,590,1,0,0,80508,task2,747704,false,false,973,image-keyboard-response,32
true,9,2,2,2,true,d,false,true,0.0-2.0-0.32-0.296-3.296,1,0,0,68,false,stim,false,1,552,1,0,2,80508,task2,749759,false,false,976,image-keyboard-response,33
true,9,2,2,2,true,d,false,true,0.0-2.0-0.33-0.297-3.297,1,0,0,68,false,stim,false,2,625,1,0,0,80508,task2,751890,false,false,979,image-keyboard-response,34
true,9,2,2,2,true,d,false,true,0.0-2.0-0.33-0.298-3.298,1,0,0,68,false,stim,false,1,533,1,0,2,80508,task2,753928,false,false,982,image-keyboard-response,35
true,10,0,1,2,false,d,false,false,0.0-2.0-0.33-0.299-3.299,0,0,0,81,true,stim,true,0,617,1,0,1,80508,task2,756051,false,false,985,image-keyboard-response,1
true,10,2,1,1,false,z,false,false,0.0-2.0-0.33-0.300-3.300,0,0,0,68,false,stim,true,2,539,1,0,2,80508,task2,758095,false,false,988,image-keyboard-response,2
true,10,2,1,0,false,q,false,false,0.0-2.0-0.33-0.301-3.301,0,0,0,68,false,stim,true,2,482,1,0,0,80508,task2,760080,false,false,991,image-keyboard-response,3
true,10,2,1,1,false,z,false,false,0.0-2.0-0.33-0.302-3.302,0,0,0,68,false,stim,true,2,673,1,0,2,80508,task2,762258,false,false,994,image-keyboard-response,4
true,10,1,1,2,false,d,true,false,0.0-2.0-0.33-0.303-3.303,0,0,0,90,false,stim,false,0,764,1,0,1,80508,task2,764524,false,false,997,image-keyboard-response,5
true,10,2,1,2,true,d,false,true,0.0-2.0-0.33-0.304-3.304,0,0,0,68,false,stim,false,0,646,1,0,1,80508,task2,766674,false,false,1000,image-keyboard-response,6
true,10,2,1,0,false,q,false,false,0.0-2.0-0.33-0.305-3.305,0,0,0,68,false,stim,true,2,671,1,0,0,80508,task2,768854,false,false,1003,image-keyboard-response,7
true,10,0,1,1,false,z,true,false,0.0-2.0-0.34-0.306-3.306,0,0,0,81,false,stim,false,2,858,1,0,2,80508,task2,771221,false,false,1006,image-keyboard-response,8
true,10,2,1,2,true,d,false,true,0.0-2.0-0.34-0.307-3.307,0,0,0,68,false,stim,false,0,747,1,0,1,80508,task2,773473,false,false,1009,image-keyboard-response,9
true,10,0,1,0,true,q,false,true,0.0-2.0-0.34-0.308-3.308,0,0,0,81,false,stim,false,2,567,1,0,0,80508,task2,775547,false,false,1012,image-keyboard-response,10
true,10,0,1,0,true,q,false,true,0.0-2.0-0.34-0.309-3.309,0,0,0,81,false,stim,false,2,1141,1,0,0,80508,task2,778193,false,false,1015,image-keyboard-response,11
true,10,1,1,1,true,z,false,true,0.0-2.0-0.34-0.310-3.310,0,0,0,90,false,stim,false,2,842,1,0,2,80508,task2,780544,false,false,1018,image-keyboard-response,12
true,10,0,1,0,true,q,false,true,0.0-2.0-0.34-0.311-3.311,0,0,0,81,false,stim,false,2,638,1,0,0,80508,task2,782690,false,false,1021,image-keyboard-response,13
true,10,2,1,2,true,d,false,true,0.0-2.0-0.34-0.312-3.312,0,0,0,68,false,stim,false,0,758,1,0,1,80508,task2,784953,false,false,1024,image-keyboard-response,14
true,10,2,1,2,true,d,false,true,0.0-2.0-0.34-0.313-3.313,0,0,0,68,false,stim,false,0,665,1,0,1,80508,task2,787125,false,false,1027,image-keyboard-response,15
true,10,1,1,1,true,z,false,true,0.0-2.0-0.34-0.314-3.314,0,0,0,90,false,stim,false,2,832,1,0,2,80508,task2,789462,false,false,1030,image-keyboard-response,16
true,10,1,1,1,true,z,false,true,0.0-2.0-0.35-0.315-3.315,0,0,0,90,false,stim,false,2,516,1,0,2,80508,task2,791483,false,false,1033,image-keyboard-response,17
true,10,1,1,1,true,z,false,true,0.0-2.0-0.35-0.316-3.316,0,0,0,90,false,stim,false,2,463,1,0,2,80508,task2,793453,false,false,1036,image-keyboard-response,18
true,10,0,1,0,true,q,false,true,0.0-2.0-0.35-0.317-3.317,0,0,0,81,false,stim,false,2,876,1,0,0,80508,task2,795831,false,false,1039,image-keyboard-response,19
true,10,0,1,0,true,q,false,true,0.0-2.0-0.35-0.318-3.318,0,0,0,81,false,stim,false,2,532,1,0,0,80508,task2,797868,false,false,1042,image-keyboard-response,20
true,10,1,1,1,true,z,false,true,0.0-2.0-0.35-0.319-3.319,0,0,0,90,false,stim,false,2,815,1,0,2,80508,task2,800188,false,false,1045,image-keyboard-response,21
true,10,2,1,2,true,d,false,true,0.0-2.0-0.35-0.320-3.320,0,0,0,68,false,stim,false,0,1170,1,0,1,80508,task2,802861,false,false,1048,image-keyboard-response,22
true,10,2,1,2,true,d,false,true,0.0-2.0-0.35-0.321-3.321,0,0,0,68,false,stim,false,0,524,1,0,1,80508,task2,804890,false,false,1051,image-keyboard-response,23
true,10,0,1,0,true,q,false,true,0.0-2.0-0.35-0.322-3.322,0,0,0,81,false,stim,false,2,1501,1,0,0,80508,task2,807896,false,false,1054,image-keyboard-response,24
true,10,2,1,2,true,d,false,true,0.0-2.0-0.35-0.323-3.323,0,0,0,68,false,stim,false,0,1274,1,0,1,80508,task2,810676,false,false,1057,image-keyboard-response,25
true,10,2,1,2,true,d,false,true,0.0-2.0-0.36-0.324-3.324,0,0,0,68,false,stim,false,0,655,1,0,1,80508,task2,812840,false,false,1060,image-keyboard-response,26
true,10,0,1,0,true,q,false,false,0.0-2.0-0.36-0.325-3.325,0,0,0,81,false,stim,false,2,1248,1,0,0,80508,task2,815591,false,true,1063,image-keyboard-response,27
true,10,1,1,1,true,z,false,false,0.0-2.0-0.36-0.326-3.326,0,0,0,90,false,stim,false,2,754,1,0,2,80508,task2,817855,false,true,1066,image-keyboard-response,28
true,10,1,1,1,true,z,false,true,0.0-2.0-0.36-0.327-3.327,0,0,0,90,false,stim,false,2,943,1,0,2,80508,task2,820303,false,false,1069,image-keyboard-response,29
true,10,1,1,1,true,z,false,true,0.0-2.0-0.36-0.328-3.328,0,0,0,90,false,stim,false,2,870,1,0,2,80508,task2,822682,false,false,1072,image-keyboard-response,30
true,10,2,1,2,true,d,false,true,0.0-2.0-0.36-0.329-3.329,0,0,0,68,false,stim,false,0,622,1,0,1,80508,task2,824812,false,false,1075,image-keyboard-response,31
true,10,2,1,2,true,d,false,true,0.0-2.0-0.36-0.330-3.330,0,0,0,68,false,stim,false,0,793,1,0,1,80508,task2,827110,false,false,1078,image-keyboard-response,32
true,10,0,1,0,true,q,false,true,0.0-2.0-0.36-0.331-3.331,0,0,0,81,false,stim,false,2,584,1,0,0,80508,task2,829202,false,false,1081,image-keyboard-response,33
true,10,0,1,0,true,q,false,true,0.0-2.0-0.36-0.332-3.332,0,0,0,81,false,stim,false,2,821,1,0,0,80508,task2,831529,false,false,1084,image-keyboard-response,34
true,10,2,1,2,true,d,false,true,0.0-2.0-0.37-0.333-3.333,0,0,0,68,false,stim,false,0,892,1,0,1,80508,task2,833926,false,false,1087,image-keyboard-response,35
true,10,0,1,0,true,q,false,false,0.0-2.0-0.37-0.334-3.334,0,0,0,81,false,stim,false,2,945,1,0,0,80508,task2,836374,false,true,1090,image-keyboard-response,36
true,10,1,1,1,true,z,false,true,0.0-2.0-0.37-0.335-3.335,0,0,0,90,false,stim,false,2,1367,1,0,2,80508,task2,839247,false,false,1093,image-keyboard-response,37
true,11,0,1,1,false,z,false,false,0.0-2.0-0.37-0.336-3.336,0,0,0,81,true,stim,true,0,495,1,0,0,80508,task2,841250,false,false,1096,image-keyboard-response,1
true,11,2,1,0,false,q,false,false,0.0-2.0-0.37-0.337-3.337,0,0,0,68,false,stim,true,2,545,1,0,1,80508,task2,843305,false,false,1099,image-keyboard-response,2
true,11,1,1,0,false,q,false,false,0.0-2.0-0.37-0.338-3.338,0,0,0,90,false,stim,true,1,434,1,0,2,80508,task2,845248,false,false,1102,image-keyboard-response,3
true,11,2,1,0,false,q,false,false,0.0-2.0-0.37-0.339-3.339,0,0,0,68,false,stim,true,2,468,1,0,1,80508,task2,847222,false,false,1105,image-keyboard-response,4
true,11,1,1,1,true,z,false,false,0.0-2.0-0.37-0.340-3.340,0,0,0,90,false,stim,false,0,1008,1,0,0,80508,task2,849736,false,true,1108,image-keyboard-response,5
true,11,1,1,0,false,q,false,false,0.0-2.0-0.37-0.341-3.341,0,0,0,90,false,stim,true,1,704,1,0,2,80508,task2,851944,false,false,1111,image-keyboard-response,6
true,11,2,1,1,false,z,true,false,0.0-2.0-0.38-0.342-3.342,0,0,0,68,false,stim,false,0,790,1,0,0,80508,task2,854238,false,false,1114,image-keyboard-response,7
true,11,2,1,0,false,q,true,false,0.0-2.0-0.38-0.343-3.343,0,0,0,68,false,stim,false,1,913,1,0,2,80508,task2,856658,false,false,1117,image-keyboard-response,8
true,11,0,1,0,true,q,false,true,0.0-2.0-0.38-0.344-3.344,0,0,0,81,false,stim,false,2,1315,1,0,1,80508,task2,859476,false,false,1120,image-keyboard-response,9
true,11,0,1,0,true,q,false,false,0.0-2.0-0.38-0.345-3.345,0,0,0,81,false,stim,false,2,934,1,0,1,80508,task2,861915,false,true,1123,image-keyboard-response,10
true,11,0,1,1,false,z,false,false,0.0-2.0-0.38-0.346-3.346,0,0,0,81,false,stim,true,0,1629,1,0,0,80508,task2,865049,false,false,1126,image-keyboard-response,11
true,11,1,1,1,true,z,false,true,0.0-2.0-0.38-0.347-3.347,0,0,0,90,false,stim,false,0,972,1,0,0,80508,task2,867526,false,false,1129,image-keyboard-response,12
true,11,0,1,0,true,q,false,true,0.0-2.0-0.38-0.348-3.348,0,0,0,81,false,stim,false,1,1105,1,0,2,80508,task2,870139,false,false,1132,image-keyboard-response,13
true,11,0,1,0,true,q,false,true,0.0-2.0-0.38-0.349-3.349,0,0,0,81,false,stim,false,1,843,1,0,2,80508,task2,872489,false,false,1135,image-keyboard-response,14
true,11,0,1,0,true,q,false,true,0.0-2.0-0.38-0.350-3.350,0,0,0,81,false,stim,false,2,628,1,0,1,80508,task2,874622,false,false,1138,image-keyboard-response,15
true,11,0,1,0,true,q,false,true,0.0-2.0-0.39-0.351-3.351,0,0,0,81,false,stim,false,2,601,1,0,1,80508,task2,876728,false,false,1141,image-keyboard-response,16
true,11,1,1,1,true,z,false,true,0.0-2.0-0.39-0.352-3.352,0,0,0,90,false,stim,false,0,734,1,0,0,80508,task2,878971,false,false,1144,image-keyboard-response,17
true,11,1,1,1,true,z,false,true,0.0-2.0-0.39-0.353-3.353,0,0,0,90,false,stim,false,0,658,1,0,0,80508,task2,881132,false,false,1147,image-keyboard-response,18
true,11,0,1,0,true,q,false,true,0.0-2.0-0.39-0.354-3.354,0,0,0,81,false,stim,false,1,1081,1,0,2,80508,task2,883718,false,false,1150,image-keyboard-response,19
true,11,1,1,1,true,z,false,true,0.0-2.0-0.39-0.355-3.355,0,0,0,90,false,stim,false,0,1203,1,0,0,80508,task2,886429,false,false,1153,image-keyboard-response,20
true,11,0,1,0,true,q,false,true,0.0-2.0-0.39-0.356-3.356,0,0,0,81,false,stim,false,1,588,1,0,2,80508,task2,888522,false,false,1156,image-keyboard-response,21
true,11,0,1,0,true,q,false,true,0.0-2.0-0.39-0.357-3.357,0,0,0,81,false,stim,false,2,524,1,0,1,80508,task2,890551,false,false,1159,image-keyboard-response,22
true,11,0,1,0,true,q,false,true,0.0-2.0-0.39-0.358-3.358,0,0,0,81,false,stim,false,1,881,1,0,2,80508,task2,892940,false,false,1162,image-keyboard-response,23
true,11,0,1,0,true,q,false,false,0.0-2.0-0.39-0.359-3.359,0,0,0,81,false,stim,false,2,671,1,0,1,80508,task2,895118,false,true,1165,image-keyboard-response,24
true,11,0,1,0,true,q,false,true,0.0-2.0-0.40-0.360-3.360,0,0,0,81,false,stim,false,2,687,1,0,1,80508,task2,897311,false,false,1168,image-keyboard-response,25
true,11,0,1,0,true,q,false,true,0.0-2.0-0.40-0.361-3.361,0,0,0,81,false,stim,false,2,465,1,0,1,80508,task2,899281,false,false,1171,image-keyboard-response,26
true,11,1,1,1,true,z,false,true,0.0-2.0-0.40-0.362-3.362,0,0,0,90,false,stim,false,0,394,1,0,0,80508,task2,901179,false,false,1174,image-keyboard-response,27
true,11,1,1,1,true,z,false,true,0.0-2.0-0.40-0.363-3.363,0,0,0,90,false,stim,false,0,432,1,0,0,80508,task2,903117,false,false,1177,image-keyboard-response,28
true,11,0,1,0,true,q,false,false,0.0-2.0-0.40-0.364-3.364,0,0,0,81,false,stim,false,1,566,1,0,2,80508,task2,905187,false,true,1180,image-keyboard-response,29
true,11,0,1,0,true,q,false,true,0.0-2.0-0.40-0.365-3.365,0,0,0,81,false,stim,false,2,575,1,0,1,80508,task2,907269,false,false,1183,image-keyboard-response,30
true,11,0,1,0,true,q,false,true,0.0-2.0-0.40-0.366-3.366,0,0,0,81,false,stim,false,1,408,1,0,2,80508,task2,909182,false,false,1186,image-keyboard-response,31
true,11,1,1,1,true,z,false,true,0.0-2.0-0.40-0.367-3.367,0,0,0,90,false,stim,false,0,454,1,0,0,80508,task2,911138,false,false,1189,image-keyboard-response,32
true,11,0,1,0,true,q,false,true,0.0-2.0-0.40-0.368-3.368,0,0,0,81,false,stim,false,1,499,1,0,2,80508,task2,913141,false,false,1192,image-keyboard-response,33
true,11,0,1,0,true,q,false,true,0.0-2.0-0.41-0.369-3.369,0,0,0,81,false,stim,false,2,880,1,0,1,80508,task2,915527,false,false,1195,image-keyboard-response,34
true,11,0,1,0,true,q,false,true,0.0-2.0-0.41-0.370-3.370,0,0,0,81,false,stim,false,2,457,1,0,1,80508,task2,917490,false,false,1198,image-keyboard-response,35
true,12,0,1,2,false,d,false,false,0.0-2.0-0.41-0.371-3.371,0,0,0,81,true,stim,true,0,819,1,0,2,80508,task2,919818,false,false,1201,image-keyboard-response,1
true,12,0,1,1,false,z,false,false,0.0-2.0-0.41-0.372-3.372,0,0,0,81,false,stim,true,0,505,1,0,1,80508,task2,921829,false,false,1204,image-keyboard-response,2
true,12,1,1,2,false,d,false,false,0.0-2.0-0.41-0.373-3.373,0,0,0,90,false,stim,true,1,583,1,0,0,80508,task2,923921,false,false,1207,image-keyboard-response,3
true,12,0,1,2,false,d,false,false,0.0-2.0-0.41-0.374-3.374,0,0,0,81,false,stim,true,0,529,1,0,2,80508,task2,925955,false,false,1210,image-keyboard-response,4
true,12,1,1,2,false,d,false,false,0.0-2.0-0.41-0.375-3.375,0,0,0,90,false,stim,true,1,1253,1,0,0,80508,task2,928714,false,false,1213,image-keyboard-response,5
true,12,2,1,2,true,d,false,true,0.0-2.0-0.41-0.376-3.376,0,0,0,68,false,stim,false,1,481,1,0,0,80508,task2,930698,false,false,1216,image-keyboard-response,6
true,12,1,1,2,false,d,true,false,0.0-2.0-0.41-0.377-3.377,0,0,0,90,false,stim,false,0,708,1,0,2,80508,task2,932911,false,false,1219,image-keyboard-response,7
true,12,1,1,1,true,z,false,true,0.0-2.0-0.42-0.378-3.378,0,0,0,90,false,stim,false,0,896,1,0,1,80508,task2,935311,false,false,1222,image-keyboard-response,8
true,12,2,1,2,true,d,false,true,0.0-2.0-0.42-0.379-3.379,0,0,0,68,false,stim,false,0,1039,1,0,2,80508,task2,937854,false,false,1225,image-keyboard-response,9
true,12,2,1,2,true,d,false,true,0.0-2.0-0.42-0.380-3.380,0,0,0,68,false,stim,false,1,738,1,0,0,80508,task2,940100,false,false,1228,image-keyboard-response,10
true,12,2,1,2,true,d,false,true,0.0-2.0-0.42-0.381-3.381,0,0,0,68,false,stim,false,1,615,1,0,0,80508,task2,942220,false,false,1231,image-keyboard-response,11
true,12,2,1,2,true,d,false,true,0.0-2.0-0.42-0.382-3.382,0,0,0,68,false,stim,false,1,935,1,0,0,80508,task2,944662,false,false,1234,image-keyboard-response,12
true,12,1,1,1,true,z,false,false,0.0-2.0-0.42-0.383-3.383,0,0,0,90,false,stim,false,0,516,1,0,1,80508,task2,946683,false,true,1237,image-keyboard-response,13
true,12,1,1,1,true,z,false,true,0.0-2.0-0.42-0.384-3.384,0,0,0,90,false,stim,false,0,401,1,0,1,80508,task2,948591,false,false,1240,image-keyboard-response,14
true,12,2,1,2,true,d,false,false,0.0-2.0-0.42-0.385-3.385,0,0,0,68,false,stim,false,0,537,1,0,2,80508,task2,950634,false,true,1243,image-keyboard-response,15
true,12,2,1,2,true,d,false,true,0.0-2.0-0.42-0.386-3.386,0,0,0,68,false,stim,false,0,612,1,0,2,80508,task2,952752,false,false,1246,image-keyboard-response,16
true,12,2,1,2,true,d,false,true,0.0-2.0-0.43-0.387-3.387,0,0,0,68,false,stim,false,0,660,1,0,2,80508,task2,954916,false,false,1249,image-keyboard-response,17
true,12,2,1,2,true,d,false,true,0.0-2.0-0.43-0.388-3.388,0,0,0,68,false,stim,false,0,857,1,0,2,80508,task2,957280,false,false,1252,image-keyboard-response,18
true,12,1,1,1,true,z,false,true,0.0-2.0-0.43-0.389-3.389,0,0,0,90,false,stim,false,0,681,1,0,1,80508,task2,959463,false,false,1255,image-keyboard-response,19
true,12,1,1,1,true,z,false,true,0.0-2.0-0.43-0.390-3.390,0,0,0,90,false,stim,false,0,397,1,0,1,80508,task2,961363,false,false,1258,image-keyboard-response,20
true,12,2,1,2,true,d,false,true,0.0-2.0-0.43-0.391-3.391,0,0,0,68,false,stim,false,1,1278,1,0,0,80508,task2,964149,false,false,1261,image-keyboard-response,21
true,12,1,1,1,true,z,false,true,0.0-2.0-0.43-0.392-3.392,0,0,0,90,false,stim,false,0,756,1,0,1,80508,task2,966409,false,false,1264,image-keyboard-response,22
true,12,2,1,2,true,d,false,true,0.0-2.0-0.43-0.393-3.393,0,0,0,68,false,stim,false,1,1209,1,0,0,80508,task2,969123,false,false,1267,image-keyboard-response,23
true,12,2,1,2,true,d,false,false,0.0-2.0-0.43-0.394-3.394,0,0,0,68,false,stim,false,1,554,1,0,0,80508,task2,971186,false,true,1270,image-keyboard-response,24
true,12,2,1,2,true,d,false,true,0.0-2.0-0.43-0.395-3.395,0,0,0,68,false,stim,false,0,683,1,0,2,80508,task2,973373,false,false,1273,image-keyboard-response,25
true,12,2,1,2,true,d,false,true,0.0-2.0-0.44-0.396-3.396,0,0,0,68,false,stim,false,1,465,1,0,0,80508,task2,975346,false,false,1276,image-keyboard-response,26
true,12,1,1,1,true,z,false,true,0.0-2.0-0.44-0.397-3.397,0,0,0,90,false,stim,false,0,512,1,0,1,80508,task2,977367,false,false,1279,image-keyboard-response,27
true,12,2,1,2,true,d,false,false,0.0-2.0-0.44-0.398-3.398,0,0,0,68,false,stim,false,1,437,1,0,0,80508,task2,979308,false,true,1282,image-keyboard-response,28
true,12,2,1,2,true,d,false,false,0.0-2.0-0.44-0.399-3.399,0,0,0,68,false,stim,false,1,660,1,0,0,80508,task2,981472,false,true,1285,image-keyboard-response,29
true,12,1,1,1,true,z,false,true,0.0-2.0-0.44-0.400-3.400,0,0,0,90,false,stim,false,0,637,1,0,1,80508,task2,983615,false,false,1288,image-keyboard-response,30
true,12,2,1,2,true,d,false,true,0.0-2.0-0.44-0.401-3.401,0,0,0,68,false,stim,false,0,836,1,0,2,80508,task2,985959,false,false,1291,image-keyboard-response,31
true,12,2,1,2,true,d,false,true,0.0-2.0-0.44-0.402-3.402,0,0,0,68,false,stim,false,0,541,1,0,2,80508,task2,988006,false,false,1294,image-keyboard-response,32
true,12,1,1,1,true,z,false,true,0.0-2.0-0.44-0.403-3.403,0,0,0,90,false,stim,false,0,760,1,0,1,80508,task2,990273,false,false,1297,image-keyboard-response,33
true,12,2,1,2,true,d,false,true,0.0-2.0-0.44-0.404-3.404,0,0,0,68,false,stim,false,0,686,1,0,2,80508,task2,992465,false,false,1300,image-keyboard-response,34
true,12,2,1,2,true,d,false,true,0.0-2.0-0.45-0.405-3.405,0,0,0,68,false,stim,false,0,480,1,0,2,80508,task2,994455,false,false,1303,image-keyboard-response,35
true,13,1,1,2,false,d,false,false,0.0-2.0-0.45-0.406-3.406,0,0,0,90,true,stim,true,1,508,1,0,1,80508,task2,996469,false,false,1306,image-keyboard-response,1
true,13,2,1,0,false,q,false,false,0.0-2.0-0.45-0.407-3.407,0,0,0,68,false,stim,true,2,776,1,0,2,80508,task2,998751,false,false,1309,image-keyboard-response,2
true,13,1,1,2,false,d,false,false,0.0-2.0-0.45-0.408-3.408,0,0,0,90,false,stim,true,1,591,1,0,1,80508,task2,1000845,false,false,1312,image-keyboard-response,3
true,13,0,1,0,true,q,false,false,0.0-2.0-0.45-0.409-3.409,0,0,0,81,false,stim,false,2,835,1,0,0,80508,task2,1003189,false,true,1315,image-keyboard-response,4
true,13,2,1,0,false,q,false,false,0.0-2.0-0.45-0.410-3.410,0,0,0,68,false,stim,true,2,753,1,0,2,80508,task2,1005452,false,false,1318,image-keyboard-response,5
true,13,1,1,2,false,d,false,false,0.0-2.0-0.45-0.411-3.411,0,0,0,90,false,stim,true,1,511,1,0,1,80508,task2,1007467,false,false,1321,image-keyboard-response,6
true,13,1,1,0,false,q,true,false,0.0-2.0-0.45-0.412-3.412,0,0,0,90,false,stim,false,2,380,1,0,0,80508,task2,1009352,false,false,1324,image-keyboard-response,7
true,13,2,1,0,false,q,false,false,0.0-2.0-0.45-0.413-3.413,0,0,0,68,false,stim,true,2,596,1,0,0,80508,task2,1011453,false,false,1327,image-keyboard-response,8
true,13,2,1,2,true,d,false,true,0.0-2.0-0.46-0.414-3.414,0,0,0,68,false,stim,false,1,923,1,0,1,80508,task2,1013881,false,false,1330,image-keyboard-response,9
true,13,2,1,2,true,d,false,true,0.0-2.0-0.46-0.415-3.415,0,0,0,68,false,stim,false,1,632,1,0,1,80508,task2,1016017,false,false,1333,image-keyboard-response,10
true,13,0,1,0,true,q,false,true,0.0-2.0-0.46-0.416-3.416,0,0,0,81,false,stim,false,2,557,1,0,2,80508,task2,1018080,false,false,1336,image-keyboard-response,11
true,13,2,1,2,true,d,false,true,0.0-2.0-0.46-0.417-3.417,0,0,0,68,false,stim,false,1,890,1,0,1,80508,task2,1020480,false,false,1339,image-keyboard-response,12
true,13,0,1,0,true,q,false,true,0.0-2.0-0.46-0.418-3.418,0,0,0,81,false,stim,false,2,664,1,0,2,80508,task2,1022649,false,false,1342,image-keyboard-response,13
true,13,0,1,0,true,q,false,true,0.0-2.0-0.46-0.419-3.419,0,0,0,81,false,stim,false,2,491,1,0,0,80508,task2,1024646,false,false,1345,image-keyboard-response,14
true,13,0,1,0,true,q,false,true,0.0-2.0-0.46-0.420-3.420,0,0,0,81,false,stim,false,2,474,1,0,0,80508,task2,1026624,false,false,1348,image-keyboard-response,15
true,13,0,1,0,true,q,false,true,0.0-2.0-0.46-0.421-3.421,0,0,0,81,false,stim,false,2,1115,1,0,2,80508,task2,1029243,false,false,1351,image-keyboard-response,16
true,13,0,1,0,true,q,false,true,0.0-2.0-0.46-0.422-3.422,0,0,0,81,false,stim,false,2,498,1,0,0,80508,task2,1031244,false,false,1354,image-keyboard-response,17
true,13,0,1,0,true,q,false,true,0.0-2.0-0.47-0.423-3.423,0,0,0,81,false,stim,false,2,482,1,0,2,80508,task2,1033234,false,false,1357,image-keyboard-response,18
true,13,0,1,0,true,q,false,true,0.0-2.0-0.47-0.424-3.424,0,0,0,81,false,stim,false,2,411,1,0,2,80508,task2,1035152,false,false,1360,image-keyboard-response,19
true,13,0,1,0,true,q,false,true,0.0-2.0-0.47-0.425-3.425,0,0,0,81,false,stim,false,2,461,1,0,0,80508,task2,1037120,false,false,1363,image-keyboard-response,20
true,13,0,1,0,true,q,false,true,0.0-2.0-0.47-0.426-3.426,0,0,0,81,false,stim,false,2,479,1,0,2,80508,task2,1039107,false,false,1366,image-keyboard-response,21
true,13,2,1,2,true,d,false,true,0.0-2.0-0.47-0.427-3.427,0,0,0,68,false,stim,false,1,478,1,0,1,80508,task2,1041093,false,false,1369,image-keyboard-response,22
true,13,0,1,0,true,q,false,true,0.0-2.0-0.47-0.428-3.428,0,0,0,81,false,stim,false,2,610,1,0,0,80508,task2,1043207,false,false,1372,image-keyboard-response,23
true,13,0,1,0,true,q,false,true,0.0-2.0-0.47-0.429-3.429,0,0,0,81,false,stim,false,2,385,1,0,0,80508,task2,1045098,false,false,1375,image-keyboard-response,24
true,13,2,1,2,true,d,false,true,0.0-2.0-0.47-0.430-3.430,0,0,0,68,false,stim,false,1,1182,1,0,1,80508,task2,1047784,false,false,1378,image-keyboard-response,25
true,13,2,1,2,true,d,false,true,0.0-2.0-0.47-0.431-3.431,0,0,0,68,false,stim,false,1,402,1,0,1,80508,task2,1049692,false,false,1381,image-keyboard-response,26
true,13,0,1,0,true,q,false,false,0.0-2.0-0.48-0.432-3.432,0,0,0,81,false,stim,false,2,754,1,0,0,80508,task2,1051957,false,true,1384,image-keyboard-response,27
true,13,2,1,2,true,d,false,true,0.0-2.0-0.48-0.433-3.433,0,0,0,68,false,stim,false,1,641,1,0,1,80508,task2,1054101,false,false,1387,image-keyboard-response,28
true,13,2,1,2,true,d,false,true,0.0-2.0-0.48-0.434-3.434,0,0,0,68,false,stim,false,1,638,1,0,1,80508,task2,1056243,false,false,1390,image-keyboard-response,29
true,13,2,1,2,true,d,false,true,0.0-2.0-0.48-0.435-3.435,0,0,0,68,false,stim,false,1,422,1,0,1,80508,task2,1058171,false,false,1393,image-keyboard-response,30
true,13,0,1,0,true,q,false,true,0.0-2.0-0.48-0.436-3.436,0,0,0,81,false,stim,false,2,1005,1,0,0,80508,task2,1060680,false,false,1396,image-keyboard-response,31
true,13,0,1,0,true,q,false,true,0.0-2.0-0.48-0.437-3.437,0,0,0,81,false,stim,false,2,404,1,0,2,80508,task2,1062589,false,false,1399,image-keyboard-response,32
true,13,0,1,0,true,q,false,true,0.0-2.0-0.48-0.438-3.438,0,0,0,81,false,stim,false,2,749,1,0,2,80508,task2,1064848,false,false,1402,image-keyboard-response,33
true,13,0,1,0,true,q,false,true,0.0-2.0-0.48-0.439-3.439,0,0,0,81,false,stim,false,2,458,1,0,0,80508,task2,1066811,false,false,1405,image-keyboard-response,34
true,13,0,1,0,true,q,false,true,0.0-2.0-0.48-0.440-3.440,0,0,0,81,false,stim,false,2,1168,1,0,2,80508,task2,1069485,false,false,1408,image-keyboard-response,35
true,13,0,1,0,true,q,false,true,0.0-2.0-0.49-0.441-3.441,0,0,0,81,false,stim,false,2,475,1,0,2,80508,task2,1071467,false,false,1411,image-keyboard-response,36
true,13,0,1,0,true,q,false,true,0.0-2.0-0.49-0.442-3.442,0,0,0,81,false,stim,false,2,1267,1,0,0,80508,task2,1074243,false,false,1414,image-keyboard-response,37
true,14,0,1,2,false,d,false,false,0.0-2.0-0.49-0.443-3.443,0,0,0,81,true,stim,true,0,637,1,0,0,80508,task2,1076384,false,false,1417,image-keyboard-response,1
true,14,0,1,1,false,z,false,false,0.0-2.0-0.49-0.444-3.444,0,0,0,81,false,stim,true,0,1445,1,0,2,80508,task2,1079336,false,false,1420,image-keyboard-response,2
true,14,2,1,0,false,q,false,true,0.0-2.0-0.49-0.445-3.445,0,0,0,68,false,stim,true,2,604,1,0,1,80508,task2,1081446,false,true,1423,image-keyboard-response,3
true,14,2,1,0,false,q,false,false,0.0-2.0-0.49-0.446-3.446,0,0,0,68,false,stim,true,2,628,1,0,1,80508,task2,1083578,false,false,1426,image-keyboard-response,4
true,14,0,1,1,false,z,false,false,0.0-2.0-0.49-0.447-3.447,0,0,0,81,false,stim,true,0,603,1,0,2,80508,task2,1085688,false,false,1429,image-keyboard-response,5
true,14,0,1,2,false,d,false,false,0.0-2.0-0.49-0.448-3.448,0,0,0,81,false,stim,true,0,639,1,0,0,80508,task2,1087836,false,false,1432,image-keyboard-response,6
true,14,2,1,0,false,q,false,false,0.0-2.0-0.49-0.449-3.449,0,0,0,68,false,stim,true,2,842,1,0,1,80508,task2,1090183,false,false,1435,image-keyboard-response,7
true,14,1,1,1,true,z,false,true,0.0-2.0-0.50-0.450-3.450,0,0,0,90,false,stim,false,0,652,1,0,2,80508,task2,1092342,false,false,1438,image-keyboard-response,8
true,14,0,1,0,true,q,false,true,0.0-2.0-0.50-0.451-3.451,0,0,0,81,false,stim,false,2,1017,1,0,1,80508,task2,1094863,false,false,1441,image-keyboard-response,9
true,14,1,1,1,true,z,false,false,0.0-2.0-0.50-0.452-3.452,0,0,0,90,false,stim,false,0,730,1,0,2,80508,task2,1097098,false,true,1444,image-keyboard-response,10
true,14,1,1,1,true,z,false,true,0.0-2.0-0.50-0.453-3.453,0,0,0,90,false,stim,false,0,529,1,0,2,80508,task2,1099132,false,false,1447,image-keyboard-response,11
true,14,1,1,2,false,d,true,false,0.0-2.0-0.50-0.454-3.454,0,0,0,90,false,stim,false,0,1124,1,0,0,80508,task2,1101763,false,false,1450,image-keyboard-response,12
true,14,0,1,0,true,q,false,true,0.0-2.0-0.50-0.455-3.455,0,0,0,81,false,stim,false,2,549,1,0,1,80508,task2,1103820,false,false,1453,image-keyboard-response,13
true,14,2,1,2,true,d,false,false,0.0-2.0-0.50-0.456-3.456,0,0,0,68,false,stim,false,0,440,1,0,0,80508,task2,1105767,false,true,1456,image-keyboard-response,14
true,14,0,1,0,true,q,false,false,0.0-2.0-0.50-0.457-3.457,0,0,0,81,false,stim,false,2,454,1,0,1,80508,task2,1107726,false,true,1459,image-keyboard-response,15
true,14,0,1,2,false,d,false,false,0.0-2.0-0.50-0.458-3.458,0,0,0,81,false,stim,true,0,762,1,0,0,80508,task2,1109994,false,false,1462,image-keyboard-response,16
true,14,1,1,1,true,z,false,true,0.0-2.0-0.51-0.459-3.459,0,0,0,90,false,stim,false,0,601,1,0,2,80508,task2,1112104,false,false,1465,image-keyboard-response,17
true,14,0,1,0,true,q,false,true,0.0-2.0-0.51-0.460-3.460,0,0,0,81,false,stim,false,2,756,1,0,1,80508,task2,1114367,false,false,1468,image-keyboard-response,18
true,14,1,1,2,false,d,true,false,0.0-2.0-0.51-0.461-3.461,0,0,0,90,false,stim,false,0,336,1,0,0,80508,task2,1116211,false,false,1471,image-keyboard-response,19
true,14,1,1,1,true,z,false,true,0.0-2.0-0.51-0.462-3.462,0,0,0,90,false,stim,false,0,619,1,0,2,80508,task2,1118333,false,false,1474,image-keyboard-response,20
true,14,2,1,2,true,d,false,true,0.0-2.0-0.51-0.463-3.463,0,0,0,68,false,stim,false,0,522,1,0,0,80508,task2,1120360,false,false,1477,image-keyboard-response,21
true,14,0,1,0,true,q,false,true,0.0-2.0-0.51-0.464-3.464,0,0,0,81,false,stim,false,2,622,1,0,1,80508,task2,1122484,false,false,1480,image-keyboard-response,22
true,14,2,1,2,true,d,false,true,0.0-2.0-0.51-0.465-3.465,0,0,0,68,false,stim,false,0,719,1,0,0,80508,task2,1124707,false,false,1483,image-keyboard-response,23
true,14,0,1,0,true,q,false,true,0.0-2.0-0.51-0.466-3.466,0,0,0,81,false,stim,false,2,608,1,0,1,80508,task2,1126819,false,false,1486,image-keyboard-response,24
true,14,1,1,1,true,z,false,true,0.0-2.0-0.51-0.467-3.467,0,0,0,90,false,stim,false,0,533,1,0,2,80508,task2,1128859,false,false,1489,image-keyboard-response,25
true,14,1,1,1,true,z,false,true,0.0-2.0-0.52-0.468-3.468,0,0,0,90,false,stim,false,0,476,1,0,2,80508,task2,1130843,false,false,1492,image-keyboard-response,26
true,14,0,1,0,true,q,false,true,0.0-2.0-0.52-0.469-3.469,0,0,0,81,false,stim,false,2,873,1,0,1,80508,task2,1133224,false,false,1495,image-keyboard-response,27
true,14,2,1,2,true,d,false,true,0.0-2.0-0.52-0.470-3.470,0,0,0,68,false,stim,false,0,795,1,0,0,80508,task2,1135526,false,false,1498,image-keyboard-response,28
true,14,0,1,0,true,q,false,false,0.0-2.0-0.52-0.471-3.471,0,0,0,81,false,stim,false,2,1125,1,0,1,80508,task2,1138164,false,true,1501,image-keyboard-response,29
true,14,2,1,2,true,d,false,true,0.0-2.0-0.52-0.472-3.472,0,0,0,68,false,stim,false,0,774,1,0,0,80508,task2,1140445,false,false,1504,image-keyboard-response,30
true,14,1,1,1,true,z,false,true,0.0-2.0-0.52-0.473-3.473,0,0,0,90,false,stim,false,0,1285,1,0,2,80508,task2,1143236,false,false,1507,image-keyboard-response,31
true,14,2,1,2,true,d,false,true,0.0-2.0-0.52-0.474-3.474,0,0,0,68,false,stim,false,0,1354,1,0,0,80508,task2,1146096,false,false,1510,image-keyboard-response,32
true,14,0,1,0,true,q,false,true,0.0-2.0-0.52-0.475-3.475,0,0,0,81,false,stim,false,2,661,1,0,1,80508,task2,1148260,false,false,1513,image-keyboard-response,33
true,14,1,1,1,true,z,false,true,0.0-2.0-0.52-0.476-3.476,0,0,0,90,false,stim,false,0,798,1,0,2,80508,task2,1150563,false,false,1516,image-keyboard-response,34
true,14,1,1,1,true,z,false,true,0.0-2.0-0.53-0.477-3.477,0,0,0,90,false,stim,false,0,531,1,0,2,80508,task2,1152598,false,false,1519,image-keyboard-response,35
true,14,1,1,1,true,z,false,true,0.0-2.0-0.53-0.478-3.478,0,0,0,90,false,stim,false,0,688,1,0,2,80508,task2,1154791,false,false,1522,image-keyboard-response,36
true,15,2,1,1,false,z,false,false,0.0-2.0-0.53-0.479-3.479,0,0,0,68,true,stim,true,2,1142,1,0,0,80508,task2,1157439,false,false,1525,image-keyboard-response,1
true,15,2,1,1,false,z,false,false,0.0-2.0-0.53-0.480-3.480,0,0,0,68,false,stim,true,2,702,1,0,0,80508,task2,1159645,false,false,1528,image-keyboard-response,2
true,15,0,1,2,false,d,false,false,0.0-2.0-0.53-0.481-3.481,0,0,0,81,false,stim,true,0,623,1,0,1,80508,task2,1161773,false,false,1531,image-keyboard-response,3
true,15,0,1,1,false,z,true,false,0.0-2.0-0.53-0.482-3.482,0,0,0,81,false,stim,false,2,640,1,0,0,80508,task2,1163922,false,false,1534,image-keyboard-response,4
true,15,0,1,2,false,d,false,false,0.0-2.0-0.53-0.483-3.483,0,0,0,81,false,stim,true,0,897,1,0,1,80508,task2,1166329,false,false,1537,image-keyboard-response,5
true,15,1,1,2,false,d,false,true,0.0-2.0-0.53-0.484-3.484,0,0,0,90,false,stim,true,1,678,1,0,2,80508,task2,1168515,false,true,1540,image-keyboard-response,6
true,15,1,1,2,false,d,true,false,0.0-2.0-0.53-0.485-3.485,0,0,0,90,false,stim,false,0,409,1,0,1,80508,task2,1170433,false,false,1543,image-keyboard-response,7
true,15,2,1,2,true,d,false,true,0.0-2.0-0.54-0.486-3.486,0,0,0,68,false,stim,false,0,640,1,0,1,80508,task2,1172583,false,false,1546,image-keyboard-response,8
true,15,2,1,2,true,d,false,true,0.0-2.0-0.54-0.487-3.487,0,0,0,68,false,stim,false,0,572,1,0,1,80508,task2,1174661,false,false,1549,image-keyboard-response,9
true,15,1,1,1,true,z,false,true,0.0-2.0-0.54-0.488-3.488,0,0,0,90,false,stim,false,2,556,1,0,0,80508,task2,1176719,false,false,1552,image-keyboard-response,10
true,15,1,1,2,false,d,false,false,0.0-2.0-0.54-0.489-3.489,0,0,0,90,false,stim,true,1,528,1,0,2,80508,task2,1178753,false,false,1555,image-keyboard-response,11
true,15,1,1,1,true,z,false,true,0.0-2.0-0.54-0.490-3.490,0,0,0,90,false,stim,false,2,476,1,0,0,80508,task2,1180733,false,false,1558,image-keyboard-response,12
true,15,1,1,2,false,d,false,false,0.0-2.0-0.54-0.491-3.491,0,0,0,90,false,stim,true,1,404,1,0,2,80508,task2,1182644,false,false,1561,image-keyboard-response,13
true,15,1,1,1,true,z,false,true,0.0-2.0-0.54-0.492-3.492,0,0,0,90,false,stim,false,2,466,1,0,0,80508,task2,1184616,false,false,1564,image-keyboard-response,14
true,15,2,1,2,true,d,false,true,0.0-2.0-0.54-0.493-3.493,0,0,0,68,false,stim,false,0,659,1,0,1,80508,task2,1186783,false,false,1567,image-keyboard-response,15
true,15,2,1,2,true,d,false,false,0.0-2.0-0.54-0.494-3.494,0,0,0,68,false,stim,false,1,668,1,0,2,80508,task2,1188954,false,true,1570,image-keyboard-response,16
true,15,0,1,2,false,d,true,false,0.0-2.0-0.55-0.495-3.495,0,0,0,81,false,stim,false,1,675,1,0,2,80508,task2,1191135,false,false,1573,image-keyboard-response,17
true,15,2,1,2,true,d,false,true,0.0-2.0-0.55-0.496-3.496,0,0,0,68,false,stim,false,0,756,1,0,1,80508,task2,1193394,false,false,1576,image-keyboard-response,18
true,15,2,1,2,true,d,false,true,0.0-2.0-0.55-0.497-3.497,0,0,0,68,false,stim,false,0,1227,1,0,1,80508,task2,1196129,false,false,1579,image-keyboard-response,19
true,15,2,1,2,true,d,false,true,0.0-2.0-0.55-0.498-3.498,0,0,0,68,false,stim,false,0,414,1,0,1,80508,task2,1198047,false,false,1582,image-keyboard-response,20
true,15,2,1,2,true,d,false,false,0.0-2.0-0.55-0.499-3.499,0,0,0,68,false,stim,false,1,609,1,0,2,80508,task2,1200160,false,true,1585,image-keyboard-response,21
true,15,1,1,2,false,d,false,false,0.0-2.0-0.55-0.500-3.500,0,0,0,90,false,stim,true,1,378,1,0,2,80508,task2,1202042,false,false,1588,image-keyboard-response,22
true,15,1,1,1,true,z,false,true,0.0-2.0-0.55-0.501-3.501,0,0,0,90,false,stim,false,2,1429,1,0,0,80508,task2,1204976,false,false,1591,image-keyboard-response,23
true,15,1,1,1,true,z,false,true,0.0-2.0-0.55-0.502-3.502,0,0,0,90,false,stim,false,2,456,1,0,0,80508,task2,1206939,false,false,1594,image-keyboard-response,24
true,15,1,1,1,true,z,false,true,0.0-2.0-0.55-0.503-3.503,0,0,0,90,false,stim,false,2,471,1,0,0,80508,task2,1208915,false,false,1597,image-keyboard-response,25
true,15,2,1,2,true,d,false,true,0.0-2.0-0.56-0.504-3.504,0,0,0,68,false,stim,false,0,597,1,0,1,80508,task2,1211017,false,false,1600,image-keyboard-response,26
true,15,1,1,1,true,z,false,true,0.0-2.0-0.56-0.505-3.505,0,0,0,90,false,stim,false,2,652,1,0,0,80508,task2,1213179,false,false,1603,image-keyboard-response,27
true,15,0,1,2,false,d,true,false,0.0-2.0-0.56-0.506-3.506,0,0,0,81,false,stim,false,1,414,1,0,2,80508,task2,1215099,false,false,1606,image-keyboard-response,28
true,15,1,1,2,false,d,false,false,0.0-2.0-0.56-0.507-3.507,0,0,0,90,false,stim,true,1,596,1,0,2,80508,task2,1217199,false,false,1609,image-keyboard-response,29
true,15,1,1,1,true,z,false,true,0.0-2.0-0.56-0.508-3.508,0,0,0,90,false,stim,false,2,647,1,0,0,80508,task2,1219352,false,false,1612,image-keyboard-response,30
true,15,2,1,2,true,d,false,true,0.0-2.0-0.56-0.509-3.509,0,0,0,68,false,stim,false,0,590,1,0,1,80508,task2,1221447,false,false,1615,image-keyboard-response,31
true,15,1,1,1,true,z,false,true,0.0-2.0-0.56-0.510-3.510,0,0,0,90,false,stim,false,2,562,1,0,0,80508,task2,1223512,false,false,1618,image-keyboard-response,32
true,15,2,1,2,true,d,false,true,0.0-2.0-0.56-0.511-3.511,0,0,0,68,false,stim,false,0,556,1,0,1,80508,task2,1225571,false,false,1621,image-keyboard-response,33
true,15,2,1,2,true,d,false,true,0.0-2.0-0.56-0.512-3.512,0,0,0,68,false,stim,false,1,441,1,1,2,80508,task2,1227524,false,false,1624,image-keyboard-response,34
true,15,2,1,2,true,d,false,true,0.0-2.0-0.57-0.513-3.513,0,0,0,68,false,stim,false,1,614,1,1,2,80508,task2,1229647,false,false,1627,image-keyboard-response,35
true,15,2,1,2,true,d,false,true,0.0-2.0-0.57-0.514-3.514,0,0,0,68,false,stim,false,1,583,1,1,2,80508,task2,1231738,false,false,1630,image-keyboard-response,36
true,15,2,1,2,true,d,false,true,0.0-2.0-0.57-0.515-3.515,0,0,0,68,false,stim,false,0,533,1,1,1,80508,task2,1233779,false,false,1633,image-keyboard-response,37
true,15,2,1,2,true,d,false,true,0.0-2.0-0.57-0.516-3.516,0,0,0,68,false,stim,false,0,702,1,1,1,80508,task2,1235988,false,false,1636,image-keyboard-response,38
true,16,0,0,1,false,z,true,false,0.0-2.0-0.57-0.517-3.517,1,1,1,81,true,stim,false,1,687,1,1,0,80508,task2,1358422,false,false,1759,image-keyboard-response,1
true,16,1,0,1,true,z,false,true,0.0-2.0-0.57-0.518-3.518,1,1,1,90,false,stim,false,1,409,1,1,0,80508,task2,1360340,false,false,1762,image-keyboard-response,2
true,16,1,0,1,true,z,false,true,0.0-2.0-0.57-0.519-3.519,1,1,1,90,false,stim,false,1,525,1,1,0,80508,task2,1362373,false,false,1765,image-keyboard-response,3
true,16,0,0,2,false,d,true,false,0.0-2.0-0.57-0.520-3.520,1,1,1,81,false,stim,false,2,838,1,1,2,80508,task2,1364717,false,false,1768,image-keyboard-response,4
true,16,0,0,2,false,d,true,true,0.0-2.0-0.57-0.521-3.521,1,1,1,81,false,stim,false,2,814,1,1,1,80508,task2,1367040,false,true,1771,image-keyboard-response,5
true,16,1,0,1,true,z,false,true,0.0-2.0-0.58-0.522-3.522,1,1,1,90,false,stim,false,1,733,1,1,0,80508,task2,1369281,false,false,1774,image-keyboard-response,6
true,16,0,0,2,false,d,true,false,0.0-2.0-0.58-0.523-3.523,1,1,1,81,false,stim,false,2,538,1,1,1,80508,task2,1371327,false,false,1777,image-keyboard-response,7
true,16,0,0,2,false,d,true,false,0.0-2.0-0.58-0.524-3.524,1,1,1,81,false,stim,false,2,498,1,1,1,80508,task2,1373328,false,false,1780,image-keyboard-response,8
true,16,1,0,2,false,d,true,true,0.0-2.0-0.58-0.525-3.525,1,1,1,90,false,stim,false,2,465,1,0,1,80508,task2,1375301,false,true,1783,image-keyboard-response,9
true,16,1,0,2,false,d,true,false,0.0-2.0-0.58-0.526-3.526,1,1,1,90,false,stim,false,2,560,1,1,2,80508,task2,1377368,false,false,1786,image-keyboard-response,10
true,16,1,0,1,true,z,false,true,0.0-2.0-0.58-0.527-3.527,1,1,1,90,false,stim,false,1,1071,1,0,0,80508,task2,1379945,false,false,1789,image-keyboard-response,11
true,16,1,0,1,true,z,false,true,0.0-2.0-0.58-0.528-3.528,1,1,1,90,false,stim,false,1,1153,1,0,0,80508,task2,1382602,false,false,1792,image-keyboard-response,12
true,16,2,0,2,true,d,false,true,0.0-2.0-0.58-0.529-3.529,1,1,1,68,false,stim,false,2,542,1,1,2,80508,task2,1384652,false,false,1795,image-keyboard-response,13
true,17,2,2,2,true,d,false,true,0.0-2.0-0.58-0.530-3.530,0,0,1,68,true,stim,false,2,617,1,1,2,80508,task2,1386773,false,false,1798,image-keyboard-response,1
true,17,1,2,0,false,q,false,false,0.0-2.0-0.59-0.531-3.531,0,0,1,90,false,stim,true,1,907,1,0,0,80508,task2,1389195,false,false,1801,image-keyboard-response,2
true,17,2,2,2,true,d,false,true,0.0-2.0-0.59-0.532-3.532,0,0,1,68,false,stim,false,2,661,1,1,2,80508,task2,1391365,false,false,1804,image-keyboard-response,3
true,17,1,2,1,true,z,false,true,0.0-2.0-0.59-0.533-3.533,0,0,1,90,false,stim,false,2,802,1,0,1,80508,task2,1393672,false,false,1807,image-keyboard-response,4
true,17,2,2,2,true,d,false,true,0.0-2.0-0.59-0.534-3.534,0,0,1,68,false,stim,false,2,607,1,1,2,80508,task2,1395783,false,false,1810,image-keyboard-response,5
true,17,1,2,0,false,q,false,false,0.0-2.0-0.59-0.535-3.535,0,0,1,90,false,stim,true,1,1069,1,0,0,80508,task2,1398356,false,false,1813,image-keyboard-response,6
true,17,1,2,1,true,z,false,true,0.0-2.0-0.59-0.536-3.536,0,0,1,90,false,stim,false,2,1211,1,0,1,80508,task2,1401071,false,false,1816,image-keyboard-response,7
true,17,1,2,1,true,z,false,true,0.0-2.0-0.59-0.537-3.537,0,0,1,90,false,stim,false,2,471,1,0,1,80508,task2,1403044,false,false,1819,image-keyboard-response,8
true,17,1,2,0,false,q,false,false,0.0-2.0-0.59-0.538-3.538,0,0,1,90,false,stim,true,1,780,1,0,0,80508,task2,1405333,false,false,1822,image-keyboard-response,9
true,17,2,2,2,true,d,false,true,0.0-2.0-0.59-0.539-3.539,0,0,1,68,false,stim,false,2,469,1,1,2,80508,task2,1407313,false,false,1825,image-keyboard-response,10
true,17,2,2,0,false,q,true,false,0.0-2.0-0.60-0.540-3.540,0,0,1,68,false,stim,false,1,648,1,0,0,80508,task2,1409468,false,false,1828,image-keyboard-response,11
true,17,1,2,1,true,z,false,true,0.0-2.0-0.60-0.541-3.541,0,0,1,90,false,stim,false,2,747,1,0,1,80508,task2,1411720,false,false,1831,image-keyboard-response,12
true,17,2,2,2,true,d,false,true,0.0-2.0-0.60-0.542-3.542,0,0,1,68,false,stim,false,2,1053,1,1,2,80508,task2,1414280,false,false,1834,image-keyboard-response,13
true,17,2,2,2,true,d,false,true,0.0-2.0-0.60-0.543-3.543,0,0,1,68,false,stim,false,2,556,1,1,2,80508,task2,1416341,false,false,1837,image-keyboard-response,14
true,17,0,2,0,true,q,false,true,0.0-2.0-0.60-0.544-3.544,0,0,1,81,false,stim,false,1,431,1,0,0,80508,task2,1418277,false,false,1840,image-keyboard-response,15
true,17,2,2,2,true,d,false,true,0.0-2.0-0.60-0.545-3.545,0,0,1,68,false,stim,false,2,822,1,1,2,80508,task2,1420607,false,false,1843,image-keyboard-response,16
true,17,1,2,1,true,z,false,false,0.0-2.0-0.60-0.546-3.546,0,0,1,90,false,stim,false,2,411,1,0,1,80508,task2,1422527,false,true,1846,image-keyboard-response,17
true,17,0,2,0,true,q,false,false,0.0-2.0-0.60-0.547-3.547,0,0,1,81,false,stim,false,1,805,1,0,0,80508,task2,1424840,false,true,1849,image-keyboard-response,18
true,17,1,2,1,true,z,false,true,0.0-2.0-0.60-0.548-3.548,0,0,1,90,false,stim,false,2,581,1,0,1,80508,task2,1426929,false,false,1852,image-keyboard-response,19
true,17,1,2,1,true,z,false,true,0.0-2.0-0.61-0.549-3.549,0,0,1,90,false,stim,false,2,591,1,0,1,80508,task2,1429027,false,false,1855,image-keyboard-response,20
true,17,0,2,0,true,q,false,true,0.0-2.0-0.61-0.550-3.550,0,0,1,81,false,stim,false,1,840,1,0,0,80508,task2,1431374,false,false,1858,image-keyboard-response,21
true,17,2,2,2,true,d,false,true,0.0-2.0-0.61-0.551-3.551,0,0,1,68,false,stim,false,2,600,1,1,2,80508,task2,1433480,false,false,1861,image-keyboard-response,22
true,17,0,2,0,true,q,false,true,0.0-2.0-0.61-0.552-3.552,0,0,1,81,false,stim,false,1,1048,1,0,0,80508,task2,1436036,false,false,1864,image-keyboard-response,23
true,17,1,2,1,true,z,false,true,0.0-2.0-0.61-0.553-3.553,0,0,1,90,false,stim,false,2,687,1,0,1,80508,task2,1438236,false,false,1867,image-keyboard-response,24
true,17,2,2,2,true,d,false,true,0.0-2.0-0.61-0.554-3.554,0,0,1,68,false,stim,false,2,753,1,1,2,80508,task2,1440494,false,false,1870,image-keyboard-response,25
true,17,2,2,2,true,d,false,true,0.0-2.0-0.61-0.555-3.555,0,0,1,68,false,stim,false,2,646,1,1,2,80508,task2,1442646,false,false,1873,image-keyboard-response,26
true,17,1,2,1,true,z,false,false,0.0-2.0-0.61-0.556-3.556,0,0,1,90,false,stim,false,2,978,1,0,1,80508,task2,1445131,false,true,1876,image-keyboard-response,27
true,17,0,2,0,true,q,false,true,0.0-2.0-0.61-0.557-3.557,0,0,1,81,false,stim,false,1,1112,1,0,0,80508,task2,1447750,false,false,1879,image-keyboard-response,28
true,17,1,2,1,true,z,false,false,0.0-2.0-0.62-0.558-3.558,0,0,1,90,false,stim,false,2,911,1,1,1,80508,task2,1450166,false,true,1882,image-keyboard-response,29
true,17,1,2,1,true,z,false,true,0.0-2.0-0.62-0.559-3.559,0,0,1,90,false,stim,false,2,677,1,1,1,80508,task2,1452353,false,false,1885,image-keyboard-response,30
true,17,2,2,2,true,d,false,false,0.0-2.0-0.62-0.560-3.560,0,0,1,68,false,stim,false,2,459,1,0,2,80508,task2,1454317,false,true,1888,image-keyboard-response,31
true,17,0,2,0,true,q,false,true,0.0-2.0-0.62-0.561-3.561,0,0,1,81,false,stim,false,1,557,1,0,0,80508,task2,1456380,false,false,1891,image-keyboard-response,32
true,18,0,2,2,false,d,false,false,0.0-2.0-0.62-0.562-3.562,0,1,0,81,true,stim,true,0,579,1,0,0,80508,task2,1458462,false,false,1894,image-keyboard-response,1
true,18,2,2,0,false,q,false,true,0.0-2.0-0.62-0.563-3.563,0,1,0,68,false,stim,true,2,633,1,0,2,80508,task2,1460604,false,true,1897,image-keyboard-response,2
true,18,2,2,0,false,q,false,true,0.0-2.0-0.62-0.564-3.564,0,1,0,68,false,stim,true,2,553,1,0,2,80508,task2,1462663,false,true,1900,image-keyboard-response,3
true,18,1,2,1,true,z,false,true,0.0-2.0-0.62-0.565-3.565,0,1,0,90,false,stim,false,1,464,1,1,1,80508,task2,1464638,false,false,1903,image-keyboard-response,4
true,18,0,2,2,false,d,false,false,0.0-2.0-0.62-0.566-3.566,0,1,0,81,false,stim,true,0,667,1,0,0,80508,task2,1466812,false,false,1906,image-keyboard-response,5
true,18,1,2,2,false,d,true,false,0.0-2.0-0.63-0.567-3.567,0,1,0,90,false,stim,false,0,480,1,0,0,80508,task2,1468795,false,false,1909,image-keyboard-response,6
true,18,2,2,0,false,q,false,false,0.0-2.0-0.63-0.568-3.568,0,1,0,68,false,stim,true,2,560,1,0,2,80508,task2,1470862,false,false,1912,image-keyboard-response,7
true,18,1,2,1,true,z,false,true,0.0-2.0-0.63-0.569-3.569,0,1,0,90,false,stim,false,1,810,1,1,1,80508,task2,1473177,false,false,1915,image-keyboard-response,8
true,18,2,2,0,false,q,false,false,0.0-2.0-0.63-0.570-3.570,0,1,0,68,false,stim,true,2,447,1,0,2,80508,task2,1475128,false,false,1918,image-keyboard-response,9
true,18,1,2,1,true,z,false,true,0.0-2.0-0.63-0.571-3.571,0,1,0,90,false,stim,false,1,488,1,1,1,80508,task2,1477121,false,false,1921,image-keyboard-response,10
true,18,2,2,2,true,d,false,true,0.0-2.0-0.63-0.572-3.572,0,1,0,68,false,stim,false,0,462,1,0,0,80508,task2,1479091,false,false,1924,image-keyboard-response,11
true,18,1,2,1,true,z,false,true,0.0-2.0-0.63-0.573-3.573,0,1,0,90,false,stim,false,1,655,1,1,1,80508,task2,1481249,false,false,1927,image-keyboard-response,12
true,18,0,2,0,true,q,false,true,0.0-2.0-0.63-0.574-3.574,0,1,0,81,false,stim,false,2,396,1,0,2,80508,task2,1483151,false,false,1930,image-keyboard-response,13
true,18,2,2,2,true,d,false,false,0.0-2.0-0.63-0.575-3.575,0,1,0,68,false,stim,false,0,644,1,0,0,80508,task2,1485303,false,true,1933,image-keyboard-response,14
true,18,0,2,0,true,q,false,true,0.0-2.0-0.64-0.576-3.576,0,1,0,81,false,stim,false,2,627,1,0,2,80508,task2,1487437,false,false,1936,image-keyboard-response,15
true,18,1,2,1,true,z,false,true,0.0-2.0-0.64-0.577-3.577,0,1,0,90,false,stim,false,1,389,1,1,1,80508,task2,1489334,false,false,1939,image-keyboard-response,16
true,18,2,2,2,true,d,false,true,0.0-2.0-0.64-0.578-3.578,0,1,0,68,false,stim,false,0,776,1,0,0,80508,task2,1491619,false,false,1942,image-keyboard-response,17
true,18,0,2,0,true,q,false,true,0.0-2.0-0.64-0.579-3.579,0,1,0,81,false,stim,false,2,786,1,0,2,80508,task2,1493912,false,false,1945,image-keyboard-response,18
true,18,1,2,1,true,z,false,true,0.0-2.0-0.64-0.580-3.580,0,1,0,90,false,stim,false,1,511,1,1,1,80508,task2,1495929,false,false,1948,image-keyboard-response,19
true,18,2,2,2,true,d,false,false,0.0-2.0-0.64-0.581-3.581,0,1,0,68,false,stim,false,0,803,1,0,0,80508,task2,1498240,false,true,1951,image-keyboard-response,20
true,18,2,2,2,true,d,false,true,0.0-2.0-0.64-0.582-3.582,0,1,0,68,false,stim,false,0,1007,1,0,0,80508,task2,1500753,false,false,1954,image-keyboard-response,21
true,18,0,2,0,true,q,false,true,0.0-2.0-0.64-0.583-3.583,0,1,0,81,false,stim,false,2,633,1,0,2,80508,task2,1502891,false,false,1957,image-keyboard-response,22
true,18,1,2,1,true,z,false,true,0.0-2.0-0.64-0.584-3.584,0,1,0,90,false,stim,false,1,655,1,1,1,80508,task2,1505055,false,false,1960,image-keyboard-response,23
true,18,0,2,0,true,q,false,true,0.0-2.0-0.65-0.585-3.585,0,1,0,81,false,stim,false,2,784,1,0,2,80508,task2,1507350,false,false,1963,image-keyboard-response,24
true,18,1,2,1,true,z,false,true,0.0-2.0-0.65-0.586-3.586,0,1,0,90,false,stim,false,1,519,1,1,1,80508,task2,1509373,false,false,1966,image-keyboard-response,25
true,18,0,2,0,true,q,false,true,0.0-2.0-0.65-0.587-3.587,0,1,0,81,false,stim,false,2,621,1,0,2,80508,task2,1511507,false,false,1969,image-keyboard-response,26
true,18,1,2,1,true,z,false,true,0.0-2.0-0.65-0.588-3.588,0,1,0,90,false,stim,false,1,551,1,1,1,80508,task2,1513564,false,false,1972,image-keyboard-response,27
true,18,1,2,1,true,z,false,true,0.0-2.0-0.65-0.589-3.589,0,1,0,90,false,stim,false,1,698,1,1,1,80508,task2,1515772,false,false,1975,image-keyboard-response,28
true,18,2,2,2,true,d,false,true,0.0-2.0-0.65-0.590-3.590,0,1,0,68,false,stim,false,0,768,1,0,0,80508,task2,1518047,false,false,1978,image-keyboard-response,29
true,18,2,2,2,true,d,false,true,0.0-2.0-0.65-0.591-3.591,0,1,0,68,false,stim,false,0,941,1,0,0,80508,task2,1520494,false,false,1981,image-keyboard-response,30
true,18,2,2,2,true,d,false,true,0.0-2.0-0.65-0.592-3.592,0,1,0,68,false,stim,false,0,394,1,0,0,80508,task2,1522396,false,false,1984,image-keyboard-response,31
true,18,0,2,0,true,q,false,true,0.0-2.0-0.65-0.593-3.593,0,1,0,81,false,stim,false,2,618,1,0,2,80508,task2,1524519,false,false,1987,image-keyboard-response,32
true,18,1,2,1,true,z,false,true,0.0-2.0-0.66-0.594-3.594,0,1,0,90,false,stim,false,1,524,1,0,1,80508,task2,1526551,false,false,1990,image-keyboard-response,33
true,19,1,1,0,false,q,false,false,0.0-2.0-0.66-0.595-3.595,0,0,0,90,true,stim,true,1,1041,1,0,1,80508,task2,1529098,false,false,1993,image-keyboard-response,1
true,19,0,1,1,false,z,false,false,0.0-2.0-0.66-0.596-3.596,0,0,0,81,false,stim,true,0,682,1,0,2,80508,task2,1531284,false,false,1996,image-keyboard-response,2
true,19,2,1,0,false,q,false,false,0.0-2.0-0.66-0.597-3.597,0,0,0,68,false,stim,true,2,613,1,0,0,80508,task2,1533404,false,false,1999,image-keyboard-response,3
true,19,0,1,1,false,z,false,false,0.0-2.0-0.66-0.598-3.598,0,0,0,81,false,stim,true,0,603,1,0,2,80508,task2,1535520,false,false,2002,image-keyboard-response,4
true,19,1,1,0,false,q,false,false,0.0-2.0-0.66-0.599-3.599,0,0,0,90,false,stim,true,1,709,1,0,1,80508,task2,1537736,false,false,2005,image-keyboard-response,5
true,19,2,1,0,false,q,false,false,0.0-2.0-0.66-0.600-3.600,0,0,0,68,false,stim,true,2,697,1,0,0,80508,task2,1539939,false,false,2008,image-keyboard-response,6
true,19,1,1,1,true,z,false,true,0.0-2.0-0.66-0.601-3.601,0,0,0,90,false,stim,false,0,796,1,0,2,80508,task2,1542241,false,false,2011,image-keyboard-response,7
true,19,0,1,0,true,q,false,true,0.0-2.0-0.66-0.602-3.602,0,0,0,81,false,stim,false,2,661,1,0,0,80508,task2,1544408,false,false,2014,image-keyboard-response,8
true,19,1,1,1,true,z,false,false,0.0-2.0-0.67-0.603-3.603,0,0,0,90,false,stim,false,0,664,1,0,2,80508,task2,1546576,false,true,2017,image-keyboard-response,9
true,19,1,1,1,true,z,false,true,0.0-2.0-0.67-0.604-3.604,0,0,0,90,false,stim,false,0,485,1,0,2,80508,task2,1548571,false,false,2020,image-keyboard-response,10
true,19,2,1,0,false,q,true,false,0.0-2.0-0.67-0.605-3.605,0,0,0,68,false,stim,false,1,613,1,0,1,80508,task2,1550696,false,false,2023,image-keyboard-response,11
true,19,1,1,1,true,z,false,true,0.0-2.0-0.67-0.606-3.606,0,0,0,90,false,stim,false,0,623,1,0,2,80508,task2,1552828,false,false,2026,image-keyboard-response,12
true,19,0,1,0,true,q,false,false,0.0-2.0-0.67-0.607-3.607,0,0,0,81,false,stim,false,2,631,1,0,0,80508,task2,1554969,false,true,2029,image-keyboard-response,13
true,19,0,1,0,true,q,false,true,0.0-2.0-0.67-0.608-3.608,0,0,0,81,false,stim,false,2,969,1,0,0,80508,task2,1557448,false,false,2032,image-keyboard-response,14
true,19,0,1,0,true,q,false,false,0.0-2.0-0.67-0.609-3.609,0,0,0,81,false,stim,false,1,576,1,0,1,80508,task2,1559531,false,true,2035,image-keyboard-response,15
true,19,1,1,0,false,q,false,true,0.0-2.0-0.67-0.610-3.610,0,0,0,90,false,stim,true,1,787,1,0,1,80508,task2,1561826,false,true,2038,image-keyboard-response,16
true,19,0,1,0,true,q,false,true,0.0-2.0-0.67-0.611-3.611,0,0,0,81,false,stim,false,2,887,1,0,0,80508,task2,1564219,false,false,2041,image-keyboard-response,17
true,19,1,1,1,true,z,false,true,0.0-2.0-0.68-0.612-3.612,0,0,0,90,false,stim,false,0,617,1,0,2,80508,task2,1566344,false,false,2044,image-keyboard-response,18
true,19,0,1,0,true,q,false,true,0.0-2.0-0.68-0.613-3.613,0,0,0,81,false,stim,false,2,571,1,0,0,80508,task2,1568421,false,false,2047,image-keyboard-response,19
true,19,1,1,1,true,z,false,false,0.0-2.0-0.68-0.614-3.614,0,0,0,90,false,stim,false,0,369,1,0,2,80508,task2,1570296,false,true,2050,image-keyboard-response,20
true,19,0,1,0,true,q,false,true,0.0-2.0-0.68-0.615-3.615,0,0,0,81,false,stim,false,2,669,1,0,0,80508,task2,1572478,false,false,2053,image-keyboard-response,21
true,19,0,1,0,true,q,false,true,0.0-2.0-0.68-0.616-3.616,0,0,0,81,false,stim,false,2,541,1,0,0,80508,task2,1574524,false,false,2056,image-keyboard-response,22
true,19,1,1,0,false,q,false,true,0.0-2.0-0.68-0.617-3.617,0,0,0,90,false,stim,true,1,585,1,0,1,80508,task2,1576616,false,true,2059,image-keyboard-response,23
true,19,1,1,0,false,q,false,true,0.0-2.0-0.68-0.618-3.618,0,0,0,90,false,stim,true,1,662,1,0,1,80508,task2,1578786,false,true,2062,image-keyboard-response,24
true,19,1,1,1,true,z,false,true,0.0-2.0-0.68-0.619-3.619,0,0,0,90,false,stim,false,0,646,1,0,2,80508,task2,1580944,false,false,2065,image-keyboard-response,25
true,19,1,1,0,false,q,false,false,0.0-2.0-0.68-0.620-3.620,0,0,0,90,false,stim,true,1,1028,1,0,1,80508,task2,1583479,false,false,2068,image-keyboard-response,26
true,19,1,1,1,true,z,false,true,0.0-2.0-0.69-0.621-3.621,0,0,0,90,false,stim,false,0,981,1,0,2,80508,task2,1585969,false,false,2071,image-keyboard-response,27
true,19,0,1,0,true,q,false,true,0.0-2.0-0.69-0.622-3.622,0,0,0,81,false,stim,false,2,622,1,0,0,80508,task2,1588099,false,false,2074,image-keyboard-response,28
true,19,1,1,0,false,q,false,false,0.0-2.0-0.69-0.623-3.623,0,0,0,90,false,stim,true,1,492,1,0,1,80508,task2,1590099,false,false,2077,image-keyboard-response,29
true,19,1,1,1,true,z,false,true,0.0-2.0-0.69-0.624-3.624,0,0,0,90,false,stim,false,0,569,1,0,2,80508,task2,1592177,false,false,2080,image-keyboard-response,30
true,19,0,1,0,true,q,false,false,0.0-2.0-0.69-0.625-3.625,0,0,0,81,false,stim,false,2,673,1,0,0,80508,task2,1594357,false,true,2083,image-keyboard-response,31
true,19,2,1,0,false,q,true,false,0.0-2.0-0.69-0.626-3.626,0,0,0,68,false,stim,false,1,789,1,0,1,80508,task2,1596653,false,false,2086,image-keyboard-response,32
true,19,1,1,1,true,z,false,true,0.0-2.0-0.69-0.627-3.627,0,0,0,90,false,stim,false,0,680,1,0,2,80508,task2,1598839,false,false,2089,image-keyboard-response,33
true,19,0,1,0,true,q,false,true,0.0-2.0-0.69-0.628-3.628,0,0,0,81,false,stim,false,1,879,1,0,1,80508,task2,1601225,false,false,2092,image-keyboard-response,34
true,19,0,1,0,true,q,false,true,0.0-2.0-0.69-0.629-3.629,0,0,0,81,false,stim,false,2,455,1,0,0,80508,task2,1603186,false,false,2095,image-keyboard-response,35
true,19,0,1,0,true,q,false,true,0.0-2.0-0.70-0.630-3.630,0,0,0,81,false,stim,false,2,771,1,0,0,80508,task2,1605465,false,false,2098,image-keyboard-response,36
true,19,0,1,0,true,q,false,true,0.0-2.0-0.70-0.631-3.631,0,0,0,81,false,stim,false,1,688,1,0,1,80508,task2,1607668,false,false,2101,image-keyboard-response,37
true,19,0,1,0,true,q,false,true,0.0-2.0-0.70-0.632-3.632,0,0,0,81,false,stim,false,2,681,1,0,0,80508,task2,1609855,false,false,2104,image-keyboard-response,38
true,20,0,1,1,false,z,false,false,0.0-2.0-0.70-0.633-3.633,0,0,0,81,true,stim,true,0,741,1,0,1,80508,task2,1612104,false,false,2107,image-keyboard-response,1
true,20,1,1,2,false,d,false,false,0.0-2.0-0.70-0.634-3.634,0,0,0,90,false,stim,true,1,738,1,0,2,80508,task2,1614351,false,false,2110,image-keyboard-response,2
