answered,blockNum,choice,condition,corResp,correct,correct_response,explo,fb,internal_node_id,isStable_1,isStable_2,isStable_3,key_press,newBlock,part,persev,persevResp,rt,sessNum,stableAS,stimulus,subject,task,time_elapsed,training,trap,trial_index,trial_type,trialsInBlock
true,1,0,0,1,false,z,true,false,0.0-2.0-0.0-0.0-3.0,0,0,0,81,true,stim,false,-1,701,2,0,2,80508,task3,93903,false,false,79,image-keyboard-response,1
true,1,0,0,2,false,d,true,false,0.0-2.0-0.0-0.1-3.1,0,0,0,81,false,stim,false,-1,526,2,0,1,80508,task3,95935,false,false,82,image-keyboard-response,2
true,1,0,0,1,false,z,true,false,0.0-2.0-0.0-0.2-3.2,0,0,0,81,false,stim,false,-1,418,2,0,0,80508,task3,97857,false,false,85,image-keyboard-response,3
true,1,1,0,2,false,d,true,false,0.0-2.0-0.0-0.3-3.3,0,0,0,90,false,stim,false,-1,413,2,0,1,80508,task3,99772,false,false,88,image-keyboard-response,4
true,1,1,0,1,true,z,false,true,0.0-2.0-0.0-0.4-3.4,0,0,0,90,false,stim,false,-1,521,2,0,0,80508,task3,101798,false,false,91,image-keyboard-response,5
true,1,1,0,1,true,z,false,true,0.0-2.0-0.0-0.5-3.5,0,0,0,90,false,stim,false,-1,414,2,0,2,80508,task3,103719,false,false,94,image-keyboard-response,6
true,1,1,0,1,true,z,false,true,0.0-2.0-0.0-0.6-3.6,0,0,0,90,false,stim,false,-1,547,2,0,2,80508,task3,105769,false,false,97,image-keyboard-response,7
true,1,2,0,2,true,d,false,true,0.0-2.0-0.0-0.7-3.7,0,0,0,68,false,stim,false,-1,408,2,0,1,80508,task3,107682,false,false,100,image-keyboard-response,8
true,1,1,0,1,true,z,false,true,0.0-2.0-0.0-0.8-3.8,0,0,0,90,false,stim,false,-1,529,2,0,0,80508,task3,109716,false,false,103,image-keyboard-response,9
true,1,1,0,1,true,z,false,true,0.0-2.0-0.1-0.9-3.9,0,0,0,90,false,stim,false,-1,607,2,0,0,80508,task3,111828,false,false,106,image-keyboard-response,10
true,1,1,0,1,true,z,false,true,0.0-2.0-0.1-0.10-3.10,0,0,0,90,false,stim,false,-1,367,2,0,0,80508,task3,113701,false,false,109,image-keyboard-response,11
true,1,1,0,1,true,z,false,true,0.0-2.0-0.1-0.11-3.11,0,0,0,90,false,stim,false,-1,826,2,0,2,80508,task3,116034,false,false,112,image-keyboard-response,12
true,1,2,0,2,true,d,false,true,0.0-2.0-0.1-0.12-3.12,0,0,0,68,false,stim,false,-1,525,2,0,1,80508,task3,118064,false,false,115,image-keyboard-response,13
true,1,2,0,2,true,d,false,true,0.0-2.0-0.1-0.13-3.13,0,0,0,68,false,stim,false,-1,666,2,0,1,80508,task3,120237,false,false,118,image-keyboard-response,14
true,1,1,0,1,true,z,false,true,0.0-2.0-0.1-0.14-3.14,0,0,0,90,false,stim,false,-1,631,2,0,0,80508,task3,122372,false,false,121,image-keyboard-response,15
true,1,1,0,1,true,z,false,true,0.0-2.0-0.1-0.15-3.15,0,0,0,90,false,stim,false,-1,1122,2,0,2,80508,task3,124999,false,false,124,image-keyboard-response,16
true,1,1,0,1,true,z,false,true,0.0-2.0-0.1-0.16-3.16,0,0,0,90,false,stim,false,-1,541,2,0,2,80508,task3,127048,false,false,127,image-keyboard-response,17
true,1,2,0,2,true,d,false,true,0.0-2.0-0.1-0.17-3.17,0,0,0,68,false,stim,false,-1,1424,2,0,1,80508,task3,129975,false,false,130,image-keyboard-response,18
true,1,2,0,2,true,d,false,true,0.0-2.0-0.2-0.18-3.18,0,0,0,68,false,stim,false,-1,518,2,0,1,80508,task3,132002,false,false,133,image-keyboard-response,19
true,1,2,0,2,true,d,false,true,0.0-2.0-0.2-0.19-3.19,0,0,0,68,false,stim,false,-1,595,2,0,1,80508,task3,134102,false,false,136,image-keyboard-response,20
true,1,1,0,1,true,z,false,true,0.0-2.0-0.2-0.20-3.20,0,0,0,90,false,stim,false,-1,571,2,0,0,80508,task3,136181,false,false,139,image-keyboard-response,21
true,1,1,0,1,true,z,false,true,0.0-2.0-0.2-0.21-3.21,0,0,0,90,false,stim,false,-1,664,2,1,2,80508,task3,138354,false,false,142,image-keyboard-response,22
true,1,1,0,1,true,z,false,true,0.0-2.0-0.2-0.22-3.22,0,0,0,90,false,stim,false,-1,402,2,1,2,80508,task3,140262,false,false,145,image-keyboard-response,23
true,1,1,0,1,true,z,false,true,0.0-2.0-0.2-0.23-3.23,0,0,0,90,false,stim,false,-1,814,2,1,2,80508,task3,142581,false,false,148,image-keyboard-response,24
true,1,1,0,1,true,z,false,true,0.0-2.0-0.2-0.24-3.24,0,0,0,90,false,stim,false,-1,683,2,0,0,80508,task3,144768,false,false,151,image-keyboard-response,25
true,2,2,1,0,false,q,false,false,0.0-2.0-0.2-0.25-3.25,0,0,1,68,true,stim,true,2,1421,2,0,1,80508,task3,147694,false,false,154,image-keyboard-response,1
true,2,1,1,0,false,q,false,false,0.0-2.0-0.2-0.26-3.26,0,0,1,90,false,stim,true,1,553,2,0,0,80508,task3,149752,false,false,157,image-keyboard-response,2
true,2,2,1,0,false,q,false,false,0.0-2.0-0.3-0.27-3.27,0,0,1,68,false,stim,true,2,552,2,0,1,80508,task3,151810,false,false,160,image-keyboard-response,3
true,2,1,1,1,true,z,false,true,0.0-2.0-0.3-0.28-3.28,0,0,1,90,false,stim,false,1,598,2,1,2,80508,task3,153916,false,false,163,image-keyboard-response,4
true,2,0,1,0,true,q,false,false,0.0-2.0-0.3-0.29-3.29,0,0,1,81,false,stim,false,2,706,2,0,1,80508,task3,156128,false,true,166,image-keyboard-response,5
true,2,1,1,0,false,q,false,false,0.0-2.0-0.3-0.30-3.30,0,0,1,90,false,stim,true,1,865,2,0,0,80508,task3,158496,false,false,169,image-keyboard-response,6
true,2,1,1,0,false,q,true,false,0.0-2.0-0.3-0.31-3.31,0,0,1,90,false,stim,false,2,678,2,0,1,80508,task3,160677,false,false,172,image-keyboard-response,7
true,2,2,1,0,false,q,true,false,0.0-2.0-0.3-0.32-3.32,0,0,1,68,false,stim,false,1,647,2,0,0,80508,task3,162827,false,false,175,image-keyboard-response,8
true,2,1,1,1,true,z,false,true,0.0-2.0-0.3-0.33-3.33,0,0,1,90,false,stim,false,1,883,2,1,2,80508,task3,165217,false,false,178,image-keyboard-response,9
true,2,1,1,1,true,z,false,true,0.0-2.0-0.3-0.34-3.34,0,0,1,90,false,stim,false,1,698,2,1,2,80508,task3,167420,false,false,181,image-keyboard-response,10
true,2,0,1,0,true,q,false,true,0.0-2.0-0.3-0.35-3.35,0,0,1,81,false,stim,false,1,694,2,0,0,80508,task3,169620,false,false,184,image-keyboard-response,11
true,2,0,1,0,true,q,false,true,0.0-2.0-0.4-0.36-3.36,0,0,1,81,false,stim,false,1,789,2,0,0,80508,task3,171914,false,false,187,image-keyboard-response,12
true,2,1,1,1,true,z,false,true,0.0-2.0-0.4-0.37-3.37,0,0,1,90,false,stim,false,1,557,2,1,2,80508,task3,173977,false,false,190,image-keyboard-response,13
true,2,0,1,0,true,q,false,true,0.0-2.0-0.4-0.38-3.38,0,0,1,81,false,stim,false,1,470,2,0,0,80508,task3,175952,false,false,193,image-keyboard-response,14
true,2,2,1,0,false,q,false,false,0.0-2.0-0.4-0.39-3.39,0,0,1,68,false,stim,true,2,513,2,0,1,80508,task3,177971,false,false,196,image-keyboard-response,15
true,2,0,1,0,true,q,false,true,0.0-2.0-0.4-0.40-3.40,0,0,1,81,false,stim,false,2,597,2,0,1,80508,task3,180070,false,false,199,image-keyboard-response,16
true,2,1,1,1,true,z,false,true,0.0-2.0-0.4-0.41-3.41,0,0,1,90,false,stim,false,1,1030,2,1,2,80508,task3,182606,false,false,202,image-keyboard-response,17
true,2,0,1,0,true,q,false,true,0.0-2.0-0.4-0.42-3.42,0,0,1,81,false,stim,false,2,598,2,0,1,80508,task3,184708,false,false,205,image-keyboard-response,18
true,2,0,1,0,true,q,false,false,0.0-2.0-0.4-0.43-3.43,0,0,1,81,false,stim,false,1,1416,2,0,0,80508,task3,187628,false,true,208,image-keyboard-response,19
true,2,1,1,1,true,z,false,false,0.0-2.0-0.4-0.44-3.44,0,0,1,90,false,stim,false,1,503,2,0,2,80508,task3,189637,false,true,211,image-keyboard-response,20
true,2,1,1,1,true,z,false,true,0.0-2.0-0.5-0.45-3.45,0,0,1,90,false,stim,false,1,598,2,0,2,80508,task3,191740,false,false,214,image-keyboard-response,21
true,2,0,1,0,true,q,false,true,0.0-2.0-0.5-0.46-3.46,0,0,1,81,false,stim,false,2,894,2,1,1,80508,task3,194138,false,false,217,image-keyboard-response,22
true,2,1,1,1,true,z,false,true,0.0-2.0-0.5-0.47-3.47,0,0,1,90,false,stim,false,1,591,2,0,2,80508,task3,196233,false,false,220,image-keyboard-response,23
true,2,0,1,0,true,q,false,true,0.0-2.0-0.5-0.48-3.48,0,0,1,81,false,stim,false,2,918,2,1,1,80508,task3,198658,false,false,223,image-keyboard-response,24
true,3,0,1,0,true,q,false,true,0.0-2.0-0.5-0.49-3.49,0,1,0,81,true,stim,false,0,695,2,1,1,80508,task3,200861,false,false,226,image-keyboard-response,1
true,3,1,1,2,false,d,false,false,0.0-2.0-0.5-0.50-3.50,0,1,0,90,false,stim,true,1,604,2,0,2,80508,task3,202970,false,false,229,image-keyboard-response,2
true,3,0,1,1,false,z,false,false,0.0-2.0-0.5-0.51-3.51,0,1,0,81,false,stim,true,0,590,2,0,0,80508,task3,205066,false,false,232,image-keyboard-response,3
true,3,1,1,1,true,z,false,false,0.0-2.0-0.5-0.52-3.52,0,1,0,90,false,stim,false,0,636,2,0,0,80508,task3,207208,false,true,235,image-keyboard-response,4
true,3,2,1,1,false,z,true,false,0.0-2.0-0.5-0.53-3.53,0,1,0,68,false,stim,false,0,573,2,0,0,80508,task3,209286,false,false,238,image-keyboard-response,5
true,3,0,1,0,true,q,false,true,0.0-2.0-0.6-0.54-3.54,0,1,0,81,false,stim,false,0,842,2,1,1,80508,task3,211632,false,false,241,image-keyboard-response,6
true,3,1,1,2,false,d,false,true,0.0-2.0-0.6-0.55-3.55,0,1,0,90,false,stim,true,1,1229,2,0,2,80508,task3,214365,false,true,244,image-keyboard-response,7
true,3,1,1,2,false,d,false,false,0.0-2.0-0.6-0.56-3.56,0,1,0,90,false,stim,true,1,688,2,0,2,80508,task3,216560,false,false,247,image-keyboard-response,8
true,3,0,1,0,true,q,false,true,0.0-2.0-0.6-0.57-3.57,0,1,0,81,false,stim,false,0,499,2,1,1,80508,task3,218565,false,false,250,image-keyboard-response,9
true,3,0,1,1,false,z,false,false,0.0-2.0-0.6-0.58-3.58,0,1,0,81,false,stim,true,0,763,2,0,0,80508,task3,220833,false,false,253,image-keyboard-response,10
true,3,1,1,2,false,d,false,false,0.0-2.0-0.6-0.59-3.59,0,1,0,90,false,stim,true,1,796,2,1,2,80508,task3,223132,false,false,256,image-keyboard-response,11
true,3,1,1,1,true,z,false,true,0.0-2.0-0.6-0.60-3.60,0,1,0,90,false,stim,false,0,372,2,1,0,80508,task3,225007,false,false,259,image-keyboard-response,12
true,3,1,1,1,true,z,false,true,0.0-2.0-0.6-0.61-3.61,0,1,0,90,false,stim,false,0,816,2,1,0,80508,task3,227328,false,false,262,image-keyboard-response,13
true,3,0,1,0,true,q,false,true,0.0-2.0-0.6-0.62-3.62,0,1,0,81,false,stim,false,0,618,2,0,1,80508,task3,229450,false,false,265,image-keyboard-response,14
true,3,2,1,2,true,d,false,true,0.0-2.0-0.7-0.63-3.63,0,1,0,68,false,stim,false,1,455,2,1,2,80508,task3,231407,false,false,268,image-keyboard-response,15
true,4,2,2,2,true,d,false,false,0.0-2.0-0.7-0.64-3.64,1,0,1,68,true,stim,false,2,672,2,1,2,80508,task3,233582,false,true,271,image-keyboard-response,1
true,4,0,2,1,false,z,false,false,0.0-2.0-0.7-0.65-3.65,1,0,1,81,false,stim,true,0,914,2,0,1,80508,task3,236000,false,false,274,image-keyboard-response,2
true,4,1,2,1,true,z,false,true,0.0-2.0-0.7-0.66-3.66,1,0,1,90,false,stim,false,1,548,2,1,0,80508,task3,238052,false,false,277,image-keyboard-response,3
true,4,2,2,2,true,d,false,true,0.0-2.0-0.7-0.67-3.67,1,0,1,68,false,stim,false,2,688,2,1,2,80508,task3,240242,false,false,280,image-keyboard-response,4
true,4,0,2,1,false,z,false,false,0.0-2.0-0.7-0.68-3.68,1,0,1,81,false,stim,true,0,489,2,0,1,80508,task3,242242,false,false,283,image-keyboard-response,5
true,4,1,2,1,true,z,false,true,0.0-2.0-0.7-0.69-3.69,1,0,1,90,false,stim,false,1,755,2,1,0,80508,task3,244504,false,false,286,image-keyboard-response,6
true,4,1,2,1,true,z,false,false,0.0-2.0-0.7-0.70-3.70,1,0,1,90,false,stim,false,1,455,2,1,0,80508,task3,246463,false,true,289,image-keyboard-response,7
true,4,1,2,1,true,z,false,true,0.0-2.0-0.7-0.71-3.71,1,0,1,90,false,stim,false,0,908,2,1,1,80508,task3,248877,false,false,292,image-keyboard-response,8
true,4,1,2,1,true,z,false,true,0.0-2.0-0.8-0.72-3.72,1,0,1,90,false,stim,false,1,635,2,1,0,80508,task3,251021,false,false,295,image-keyboard-response,9
true,4,2,2,2,true,d,false,true,0.0-2.0-0.8-0.73-3.73,1,0,1,68,false,stim,false,2,658,2,0,2,80508,task3,253186,false,false,298,image-keyboard-response,10
true,4,1,2,1,true,z,false,true,0.0-2.0-0.8-0.74-3.74,1,0,1,90,false,stim,false,0,790,2,1,1,80508,task3,255482,false,false,301,image-keyboard-response,11
true,4,1,2,1,true,z,false,false,0.0-2.0-0.8-0.75-3.75,1,0,1,90,false,stim,false,0,504,2,1,1,80508,task3,257489,false,true,304,image-keyboard-response,12
true,5,2,2,0,false,q,false,false,0.0-2.0-0.8-0.76-3.76,1,1,0,68,true,stim,true,2,688,2,0,2,80508,task3,259684,false,false,307,image-keyboard-response,1
true,5,1,2,1,true,z,false,true,0.0-2.0-0.8-0.77-3.77,1,1,0,90,false,stim,false,1,955,2,1,0,80508,task3,262147,false,false,310,image-keyboard-response,2
true,5,2,2,0,false,q,false,false,0.0-2.0-0.8-0.78-3.78,1,1,0,68,false,stim,true,2,545,2,0,2,80508,task3,264197,false,false,313,image-keyboard-response,3
true,5,1,2,1,true,z,false,true,0.0-2.0-0.8-0.79-3.79,1,1,0,90,false,stim,false,1,801,2,1,1,80508,task3,266508,false,false,316,image-keyboard-response,4
true,5,1,2,1,true,z,false,true,0.0-2.0-0.8-0.80-3.80,1,1,0,90,false,stim,false,1,564,2,1,0,80508,task3,268577,false,false,319,image-keyboard-response,5
true,5,1,2,1,true,z,false,true,0.0-2.0-0.9-0.81-3.81,1,1,0,90,false,stim,false,1,616,2,1,1,80508,task3,270695,false,false,322,image-keyboard-response,6
true,5,1,2,1,true,z,false,true,0.0-2.0-0.9-0.82-3.82,1,1,0,90,false,stim,false,1,728,2,1,0,80508,task3,272929,false,false,325,image-keyboard-response,7
true,5,1,2,1,true,z,false,true,0.0-2.0-0.9-0.83-3.83,1,1,0,90,false,stim,false,1,599,2,1,1,80508,task3,275032,false,false,328,image-keyboard-response,8
true,5,0,2,0,true,q,false,true,0.0-2.0-0.9-0.84-3.84,1,1,0,81,false,stim,false,2,660,2,0,2,80508,task3,277195,false,false,331,image-keyboard-response,9
true,5,1,2,1,true,z,false,true,0.0-2.0-0.9-0.85-3.85,1,1,0,90,false,stim,false,1,518,2,1,0,80508,task3,279218,false,false,334,image-keyboard-response,10
true,5,0,2,0,true,q,false,true,0.0-2.0-0.9-0.86-3.86,1,1,0,81,false,stim,false,2,656,2,1,2,80508,task3,281382,false,false,337,image-keyboard-response,11
true,5,1,2,1,true,z,false,false,0.0-2.0-0.9-0.87-3.87,1,1,0,90,false,stim,false,1,693,2,1,1,80508,task3,283584,false,true,340,image-keyboard-response,12
true,5,1,2,1,true,z,false,true,0.0-2.0-0.9-0.88-3.88,1,1,0,90,false,stim,false,1,763,2,0,0,80508,task3,285851,false,false,343,image-keyboard-response,13
true,5,0,2,0,true,q,false,true,0.0-2.0-0.9-0.89-3.89,1,1,0,81,false,stim,false,2,423,2,1,2,80508,task3,287776,false,false,346,image-keyboard-response,14
true,5,1,2,1,true,z,false,false,0.0-2.0-0.10-0.90-3.90,1,1,0,90,false,stim,false,1,689,2,0,0,80508,task3,289973,false,true,349,image-keyboard-response,15
true,6,1,2,1,true,z,false,true,0.0-2.0-0.10-0.91-3.91,0,1,1,90,true,stim,false,1,831,2,1,1,80508,task3,292308,false,false,352,image-keyboard-response,1
true,6,0,2,0,true,q,false,false,0.0-2.0-0.10-0.92-3.92,0,1,1,81,false,stim,false,0,756,2,1,2,80508,task3,294569,false,true,355,image-keyboard-response,2
true,6,1,2,0,false,q,false,false,0.0-2.0-0.10-0.93-3.93,0,1,1,90,false,stim,true,1,686,2,0,0,80508,task3,296763,false,false,358,image-keyboard-response,3
true,6,2,2,0,false,q,true,false,0.0-2.0-0.10-0.94-3.94,0,1,1,68,false,stim,false,1,620,2,0,0,80508,task3,298886,false,false,361,image-keyboard-response,4
true,6,1,2,1,true,z,false,false,0.0-2.0-0.10-0.95-3.95,0,1,1,90,false,stim,false,1,735,2,1,1,80508,task3,301126,false,true,364,image-keyboard-response,5
true,6,1,2,1,true,z,false,true,0.0-2.0-0.10-0.96-3.96,0,1,1,90,false,stim,false,1,589,2,1,1,80508,task3,303221,false,false,367,image-keyboard-response,6
true,6,0,2,0,true,q,false,false,0.0-2.0-0.10-0.97-3.97,0,1,1,81,false,stim,false,0,661,2,1,2,80508,task3,305387,false,true,370,image-keyboard-response,7
true,6,1,2,0,false,q,true,false,0.0-2.0-0.10-0.98-3.98,0,1,1,90,false,stim,false,0,685,2,1,2,80508,task3,307577,false,false,373,image-keyboard-response,8
true,6,1,2,1,true,z,false,true,0.0-2.0-0.11-0.99-3.99,0,1,1,90,false,stim,false,1,756,2,0,1,80508,task3,309837,false,false,376,image-keyboard-response,9
true,6,2,2,0,false,q,true,false,0.0-2.0-0.11-0.100-3.100,0,1,1,68,false,stim,false,0,722,2,0,2,80508,task3,312064,false,false,379,image-keyboard-response,10
true,6,0,2,0,true,q,false,false,0.0-2.0-0.11-0.101-3.101,0,1,1,81,false,stim,false,1,521,2,1,0,80508,task3,314090,false,true,382,image-keyboard-response,11
true,6,1,2,0,false,q,false,false,0.0-2.0-0.11-0.102-3.102,0,1,1,90,false,stim,true,1,476,2,1,0,80508,task3,316072,false,false,385,image-keyboard-response,12
true,6,2,2,0,false,q,true,false,0.0-2.0-0.11-0.103-3.103,0,1,1,68,false,stim,false,1,467,2,1,0,80508,task3,318043,false,false,388,image-keyboard-response,13
true,7,1,1,2,false,d,false,false,0.0-2.0-0.11-0.104-3.104,1,0,0,90,true,stim,true,1,645,2,0,1,80508,task3,320193,false,false,391,image-keyboard-response,1
true,7,1,1,2,false,d,true,false,0.0-2.0-0.11-0.105-3.105,1,0,0,90,false,stim,false,0,2488,2,0,2,80508,task3,324192,false,false,394,image-keyboard-response,2
true,7,1,1,2,false,d,false,false,0.0-2.0-0.11-0.106-3.106,1,0,0,90,false,stim,true,1,835,2,0,1,80508,task3,326540,false,false,397,image-keyboard-response,3
true,7,2,1,2,true,d,false,true,0.0-2.0-0.11-0.107-3.107,1,0,0,68,false,stim,false,0,544,2,0,2,80508,task3,328587,false,false,400,image-keyboard-response,4
true,7,0,1,0,true,q,false,true,0.0-2.0-0.12-0.108-3.108,1,0,0,81,false,stim,false,0,1230,2,1,0,80508,task3,331327,false,false,403,image-keyboard-response,5
true,7,2,1,2,true,d,false,true,0.0-2.0-0.12-0.109-3.109,1,0,0,68,false,stim,false,0,553,2,0,2,80508,task3,333389,false,false,406,image-keyboard-response,6
true,7,0,1,2,false,d,true,false,0.0-2.0-0.12-0.110-3.110,1,0,0,81,false,stim,false,1,661,2,0,1,80508,task3,335554,false,false,409,image-keyboard-response,7
true,7,0,1,0,true,q,false,true,0.0-2.0-0.12-0.111-3.111,1,0,0,81,false,stim,false,0,758,2,1,0,80508,task3,337818,false,false,412,image-keyboard-response,8
true,7,2,1,2,true,d,false,true,0.0-2.0-0.12-0.112-3.112,1,0,0,68,false,stim,false,0,865,2,0,2,80508,task3,340186,false,false,415,image-keyboard-response,9
true,7,2,1,2,true,d,false,true,0.0-2.0-0.12-0.113-3.113,1,0,0,68,false,stim,false,1,441,2,0,1,80508,task3,342129,false,false,418,image-keyboard-response,10
true,7,0,1,0,true,q,false,true,0.0-2.0-0.12-0.114-3.114,1,0,0,81,false,stim,false,0,563,2,1,0,80508,task3,344201,false,false,421,image-keyboard-response,11
true,7,2,1,2,true,d,false,true,0.0-2.0-0.12-0.115-3.115,1,0,0,68,false,stim,false,0,447,2,0,2,80508,task3,346153,false,false,424,image-keyboard-response,12
true,7,2,1,2,true,d,false,true,0.0-2.0-0.12-0.116-3.116,1,0,0,68,false,stim,false,1,425,2,0,1,80508,task3,348084,false,false,427,image-keyboard-response,13
true,7,2,1,2,true,d,false,true,0.0-2.0-0.13-0.117-3.117,1,0,0,68,false,stim,false,0,700,2,0,2,80508,task3,350292,false,false,430,image-keyboard-response,14
true,7,2,1,2,true,d,false,true,0.0-2.0-0.13-0.118-3.118,1,0,0,68,false,stim,false,1,583,2,0,1,80508,task3,352378,false,false,433,image-keyboard-response,15
true,7,2,1,2,true,d,false,true,0.0-2.0-0.13-0.119-3.119,1,0,0,68,false,stim,false,0,415,2,0,2,80508,task3,354296,false,false,436,image-keyboard-response,16
true,7,0,1,0,true,q,false,true,0.0-2.0-0.13-0.120-3.120,1,0,0,81,false,stim,false,0,1342,2,1,0,80508,task3,357145,false,false,439,image-keyboard-response,17
true,7,2,1,2,true,d,false,true,0.0-2.0-0.13-0.121-3.121,1,0,0,68,false,stim,false,1,767,2,0,1,80508,task3,359419,false,false,442,image-keyboard-response,18
true,7,0,1,0,true,q,false,true,0.0-2.0-0.13-0.122-3.122,1,0,0,81,false,stim,false,0,641,2,0,0,80508,task3,361566,false,false,445,image-keyboard-response,19
true,7,2,1,2,true,d,false,true,0.0-2.0-0.13-0.123-3.123,1,0,0,68,false,stim,false,0,601,2,1,2,80508,task3,363674,false,false,448,image-keyboard-response,20
true,7,2,1,2,true,d,false,true,0.0-2.0-0.13-0.124-3.124,1,0,0,68,false,stim,false,1,1352,2,0,1,80508,task3,366531,false,false,451,image-keyboard-response,21
true,7,0,1,0,true,q,false,true,0.0-2.0-0.13-0.125-3.125,1,0,0,81,false,stim,false,0,811,2,0,0,80508,task3,368844,false,false,454,image-keyboard-response,22
true,7,2,1,2,true,d,false,true,0.0-2.0-0.14-0.126-3.126,1,0,0,68,false,stim,false,1,960,2,0,1,80508,task3,371310,false,false,457,image-keyboard-response,23
true,8,2,1,2,true,d,false,true,0.0-2.0-0.14-0.127-3.127,0,0,1,68,true,stim,false,2,1335,2,1,2,80508,task3,374153,false,false,460,image-keyboard-response,1
true,8,0,1,2,false,d,false,false,0.0-2.0-0.14-0.128-3.128,0,0,1,81,false,stim,true,0,616,2,0,0,80508,task3,376271,false,false,463,image-keyboard-response,2
true,8,2,1,0,false,q,false,false,0.0-2.0-0.14-0.129-3.129,0,0,1,68,false,stim,true,2,847,2,0,1,80508,task3,378625,false,false,466,image-keyboard-response,3
true,8,2,1,2,true,d,false,true,0.0-2.0-0.14-0.130-3.130,0,0,1,68,false,stim,false,2,797,2,1,2,80508,task3,380929,false,false,469,image-keyboard-response,4
true,8,2,1,2,true,d,false,true,0.0-2.0-0.14-0.131-3.131,0,0,1,68,false,stim,false,2,1686,2,1,2,80508,task3,384118,false,false,472,image-keyboard-response,5
true,8,0,1,2,false,d,false,false,0.0-2.0-0.14-0.132-3.132,0,0,1,81,false,stim,true,0,1993,2,0,0,80508,task3,387616,false,false,475,image-keyboard-response,6
true,8,0,1,2,false,d,false,false,0.0-2.0-0.14-0.133-3.133,0,0,1,81,false,stim,true,0,1272,2,0,0,80508,task3,390398,false,false,478,image-keyboard-response,7
true,8,2,1,0,false,q,false,false,0.0-2.0-0.14-0.134-3.134,0,0,1,68,false,stim,true,2,2080,2,0,1,80508,task3,393987,false,false,481,image-keyboard-response,8
true,8,0,1,2,false,d,false,false,0.0-2.0-0.15-0.135-3.135,0,0,1,81,false,stim,true,0,2242,2,1,0,80508,task3,397744,false,false,484,image-keyboard-response,9
false,8,-1,1,0,false,q,true,false,0.0-2.0-0.15-0.136-3.136,0,0,1,,false,stim,false,2,,2,1,1,80508,task3,402253,false,false,487,image-keyboard-response,10
false,8,-1,1,2,false,d,true,false,0.0-2.0-0.15-0.137-3.137,0,0,1,,false,stim,false,0,,2,1,0,80508,task3,406764,false,false,490,image-keyboard-response,11
false,8,-1,1,2,false,d,true,false,0.0-2.0-0.15-0.138-3.138,0,0,1,,false,stim,false,2,,2,0,2,80508,task3,411270,false,false,493,image-keyboard-response,12
true,8,0,1,0,true,q,false,true,0.0-2.0-0.15-0.139-3.139,0,0,1,81,false,stim,false,2,980,2,1,1,80508,task3,413755,false,false,496,image-keyboard-response,13
true,9,0,2,2,false,d,true,false,0.0-2.0-0.15-0.140-3.140,1,1,0,81,true,stim,false,2,2028,2,1,0,80508,task3,417292,false,false,499,image-keyboard-response,1
true,9,0,2,1,false,z,true,false,0.0-2.0-0.15-0.141-3.141,1,1,0,81,false,stim,false,2,1089,2,0,2,80508,task3,419894,false,false,502,image-keyboard-response,2
true,9,1,2,1,true,z,false,true,0.0-2.0-0.15-0.142-3.142,1,1,0,90,false,stim,false,2,699,2,0,2,80508,task3,422101,false,false,505,image-keyboard-response,3
true,9,0,2,0,true,q,false,true,0.0-2.0-0.15-0.143-3.143,1,1,0,81,false,stim,false,0,638,2,1,1,80508,task3,424245,false,false,508,image-keyboard-response,4
true,9,1,2,1,true,z,false,true,0.0-2.0-0.16-0.144-3.144,1,1,0,90,false,stim,false,2,1269,2,0,2,80508,task3,427022,false,false,511,image-keyboard-response,5
true,9,1,2,2,false,d,true,false,0.0-2.0-0.16-0.145-3.145,1,1,0,90,false,stim,false,2,1331,2,1,0,80508,task3,429858,false,false,514,image-keyboard-response,6
true,9,1,2,2,false,d,true,false,0.0-2.0-0.16-0.146-3.146,1,1,0,90,false,stim,false,2,700,2,1,0,80508,task3,432061,false,false,517,image-keyboard-response,7
true,9,1,2,1,true,z,false,true,0.0-2.0-0.16-0.147-3.147,1,1,0,90,false,stim,false,2,1101,2,0,2,80508,task3,434669,false,false,520,image-keyboard-response,8
true,9,1,2,1,true,z,false,true,0.0-2.0-0.16-0.148-3.148,1,1,0,90,false,stim,false,2,840,2,0,2,80508,task3,437016,false,false,523,image-keyboard-response,9
true,9,2,2,2,true,d,false,true,0.0-2.0-0.16-0.149-3.149,1,1,0,68,false,stim,false,2,402,2,1,0,80508,task3,438928,false,false,526,image-keyboard-response,10
true,9,0,2,0,true,q,false,true,0.0-2.0-0.16-0.150-3.150,1,1,0,81,false,stim,false,0,705,2,1,1,80508,task3,441138,false,false,529,image-keyboard-response,11
true,9,0,2,0,true,q,false,true,0.0-2.0-0.16-0.151-3.151,1,1,0,81,false,stim,false,0,732,2,1,1,80508,task3,443378,false,false,532,image-keyboard-response,12
true,9,0,2,0,true,q,false,true,0.0-2.0-0.16-0.152-3.152,1,1,0,81,false,stim,false,0,516,2,1,1,80508,task3,445403,false,false,535,image-keyboard-response,13
true,9,1,2,1,true,z,false,true,0.0-2.0-0.17-0.153-3.153,1,1,0,90,false,stim,false,2,1080,2,0,2,80508,task3,447990,false,false,538,image-keyboard-response,14
true,9,1,2,1,true,z,false,true,0.0-2.0-0.17-0.154-3.154,1,1,0,90,false,stim,false,2,1536,2,0,2,80508,task3,451030,false,false,541,image-keyboard-response,15
true,9,1,2,1,true,z,false,false,0.0-2.0-0.17-0.155-3.155,1,1,0,90,false,stim,false,2,663,2,0,2,80508,task3,453199,false,true,544,image-keyboard-response,16
true,9,2,2,2,true,d,false,true,0.0-2.0-0.17-0.156-3.156,1,1,0,68,false,stim,false,2,1126,2,1,0,80508,task3,455831,false,false,547,image-keyboard-response,17
true,9,0,2,0,true,q,false,true,0.0-2.0-0.17-0.157-3.157,1,1,0,81,false,stim,false,0,627,2,1,1,80508,task3,457966,false,false,550,image-keyboard-response,18
true,9,0,2,0,true,q,false,true,0.0-2.0-0.17-0.158-3.158,1,1,0,81,false,stim,false,0,716,2,1,1,80508,task3,460190,false,false,553,image-keyboard-response,19
true,9,2,2,2,true,d,false,true,0.0-2.0-0.17-0.159-3.159,1,1,0,68,false,stim,false,2,1064,2,1,0,80508,task3,462758,false,false,556,image-keyboard-response,20
true,9,2,2,2,true,d,false,true,0.0-2.0-0.17-0.160-3.160,1,1,0,68,false,stim,false,2,605,2,1,0,80508,task3,464868,false,false,559,image-keyboard-response,21
true,9,0,2,0,true,q,false,false,0.0-2.0-0.17-0.161-3.161,1,1,0,81,false,stim,false,0,935,2,1,1,80508,task3,467312,false,true,562,image-keyboard-response,22
true,9,1,2,1,true,z,false,true,0.0-2.0-0.18-0.162-3.162,1,1,0,90,false,stim,false,2,1434,2,0,2,80508,task3,470252,false,false,565,image-keyboard-response,23
true,9,1,2,1,true,z,false,true,0.0-2.0-0.18-0.163-3.163,1,1,0,90,false,stim,false,2,581,2,0,2,80508,task3,472335,false,false,568,image-keyboard-response,24
true,9,0,2,0,true,q,false,true,0.0-2.0-0.18-0.164-3.164,1,1,0,81,false,stim,false,0,615,2,1,1,80508,task3,474454,false,false,571,image-keyboard-response,25
true,9,2,2,2,true,d,false,true,0.0-2.0-0.18-0.165-3.165,1,1,0,68,false,stim,false,2,495,2,0,0,80508,task3,476455,false,false,574,image-keyboard-response,26
true,9,0,2,0,true,q,false,true,0.0-2.0-0.18-0.166-3.166,1,1,0,81,false,stim,false,0,769,2,1,1,80508,task3,478730,false,false,577,image-keyboard-response,27
true,9,1,2,1,true,z,false,true,0.0-2.0-0.18-0.167-3.167,1,1,0,90,false,stim,false,2,678,2,0,2,80508,task3,480913,false,false,580,image-keyboard-response,28
true,9,2,2,2,true,d,false,true,0.0-2.0-0.18-0.168-3.168,1,1,0,68,false,stim,false,2,730,2,0,0,80508,task3,483146,false,false,583,image-keyboard-response,29
true,10,2,1,0,false,q,false,false,0.0-2.0-0.18-0.169-3.169,0,1,0,68,true,stim,true,2,697,2,0,0,80508,task3,485350,false,false,586,image-keyboard-response,1
true,10,0,1,0,true,q,false,true,0.0-2.0-0.18-0.170-3.170,0,1,0,81,false,stim,false,0,555,2,1,1,80508,task3,487410,false,false,589,image-keyboard-response,2
true,10,1,1,2,false,d,false,false,0.0-2.0-0.19-0.171-3.171,0,1,0,90,false,stim,true,1,397,2,0,2,80508,task3,489316,false,false,592,image-keyboard-response,3
true,10,0,1,0,true,q,false,true,0.0-2.0-0.19-0.172-3.172,0,1,0,81,false,stim,false,0,642,2,1,1,80508,task3,491464,false,false,595,image-keyboard-response,4
true,10,0,1,0,true,q,false,true,0.0-2.0-0.19-0.173-3.173,0,1,0,81,false,stim,false,0,617,2,1,1,80508,task3,493588,false,false,598,image-keyboard-response,5
true,10,0,1,0,true,q,false,true,0.0-2.0-0.19-0.174-3.174,0,1,0,81,false,stim,false,0,515,2,1,1,80508,task3,495615,false,false,601,image-keyboard-response,6
true,10,2,1,0,false,q,false,false,0.0-2.0-0.19-0.175-3.175,0,1,0,68,false,stim,true,2,1069,2,0,0,80508,task3,498189,false,false,604,image-keyboard-response,7
true,10,0,1,0,true,q,false,true,0.0-2.0-0.19-0.176-3.176,0,1,0,81,false,stim,false,2,457,2,0,0,80508,task3,500153,false,false,607,image-keyboard-response,8
true,10,1,1,2,false,d,false,false,0.0-2.0-0.19-0.177-3.177,0,1,0,90,false,stim,true,1,642,2,0,2,80508,task3,502301,false,false,610,image-keyboard-response,9
true,10,0,1,0,true,q,false,false,0.0-2.0-0.19-0.178-3.178,0,1,0,81,false,stim,false,2,658,2,0,0,80508,task3,504463,false,true,613,image-keyboard-response,10
true,10,2,1,2,true,d,false,true,0.0-2.0-0.19-0.179-3.179,0,1,0,68,false,stim,false,1,1041,2,0,2,80508,task3,507009,false,false,616,image-keyboard-response,11
true,10,0,1,0,true,q,false,true,0.0-2.0-0.20-0.180-3.180,0,1,0,81,false,stim,false,0,735,2,1,1,80508,task3,509249,false,false,619,image-keyboard-response,12
true,10,0,1,0,true,q,false,true,0.0-2.0-0.20-0.181-3.181,0,1,0,81,false,stim,false,2,460,2,0,0,80508,task3,511214,false,false,622,image-keyboard-response,13
true,10,2,1,2,true,d,false,true,0.0-2.0-0.20-0.182-3.182,0,1,0,68,false,stim,false,1,591,2,0,2,80508,task3,513307,false,false,625,image-keyboard-response,14
true,10,2,1,2,true,d,false,true,0.0-2.0-0.20-0.183-3.183,0,1,0,68,false,stim,false,1,685,2,0,2,80508,task3,515495,false,false,628,image-keyboard-response,15
true,10,0,1,0,true,q,false,true,0.0-2.0-0.20-0.184-3.184,0,1,0,81,false,stim,false,0,677,2,1,1,80508,task3,517680,false,false,631,image-keyboard-response,16
true,10,0,1,0,true,q,false,true,0.0-2.0-0.20-0.185-3.185,0,1,0,81,false,stim,false,2,437,2,0,0,80508,task3,519629,false,false,634,image-keyboard-response,17
true,10,0,1,0,true,q,false,false,0.0-2.0-0.20-0.186-3.186,0,1,0,81,false,stim,false,0,661,2,1,1,80508,task3,521801,false,true,637,image-keyboard-response,18
true,10,0,1,0,true,q,false,true,0.0-2.0-0.20-0.187-3.187,0,1,0,81,false,stim,false,2,1155,2,0,0,80508,task3,524462,false,false,640,image-keyboard-response,19
true,10,2,1,2,true,d,false,true,0.0-2.0-0.20-0.188-3.188,0,1,0,68,false,stim,false,1,887,2,0,2,80508,task3,526856,false,false,643,image-keyboard-response,20
true,10,2,1,2,true,d,false,true,0.0-2.0-0.21-0.189-3.189,0,1,0,68,false,stim,false,1,654,2,0,2,80508,task3,529017,false,false,646,image-keyboard-response,21
true,10,0,1,0,true,q,false,false,0.0-2.0-0.21-0.190-3.190,0,1,0,81,false,stim,false,2,1853,2,1,0,80508,task3,532374,false,true,649,image-keyboard-response,22
true,10,2,1,2,true,d,false,true,0.0-2.0-0.21-0.191-3.191,0,1,0,68,false,stim,false,1,768,2,0,2,80508,task3,534648,false,false,652,image-keyboard-response,23
true,10,0,1,0,true,q,false,true,0.0-2.0-0.21-0.192-3.192,0,1,0,81,false,stim,false,2,1183,2,1,0,80508,task3,537340,false,false,655,image-keyboard-response,24
true,10,0,1,0,true,q,false,true,0.0-2.0-0.21-0.193-3.193,0,1,0,81,false,stim,false,2,573,2,1,0,80508,task3,539422,false,false,658,image-keyboard-response,25
true,10,0,1,0,true,q,false,true,0.0-2.0-0.21-0.194-3.194,0,1,0,81,false,stim,false,0,684,2,0,1,80508,task3,541611,false,false,661,image-keyboard-response,26
true,11,2,1,0,false,q,false,false,0.0-2.0-0.21-0.195-3.195,1,0,0,68,true,stim,true,2,712,2,0,2,80508,task3,543831,false,false,664,image-keyboard-response,1
true,11,0,1,2,false,d,false,false,0.0-2.0-0.21-0.196-3.196,1,0,0,81,false,stim,true,0,734,2,0,1,80508,task3,546070,false,false,667,image-keyboard-response,2
true,11,0,1,2,false,d,false,false,0.0-2.0-0.21-0.197-3.197,1,0,0,81,false,stim,true,0,525,2,0,1,80508,task3,548100,false,false,670,image-keyboard-response,3
true,11,1,1,2,false,d,true,false,0.0-2.0-0.22-0.198-3.198,1,0,0,90,false,stim,false,0,475,2,0,1,80508,task3,550080,false,false,673,image-keyboard-response,4
true,11,2,1,0,false,q,false,false,0.0-2.0-0.22-0.199-3.199,1,0,0,68,false,stim,true,2,795,2,0,2,80508,task3,552382,false,false,676,image-keyboard-response,5
true,11,2,1,2,true,d,false,true,0.0-2.0-0.22-0.200-3.200,1,0,0,68,false,stim,false,0,643,2,0,1,80508,task3,554533,false,false,679,image-keyboard-response,6
true,11,0,1,0,true,q,false,true,0.0-2.0-0.22-0.201-3.201,1,0,0,81,false,stim,false,0,667,2,1,0,80508,task3,556703,false,false,682,image-keyboard-response,7
true,11,0,1,0,true,q,false,true,0.0-2.0-0.22-0.202-3.202,1,0,0,81,false,stim,false,0,711,2,1,0,80508,task3,558920,false,false,685,image-keyboard-response,8
true,11,0,1,0,true,q,false,true,0.0-2.0-0.22-0.203-3.203,1,0,0,81,false,stim,false,0,478,2,1,0,80508,task3,560903,false,false,688,image-keyboard-response,9
true,11,2,1,2,true,d,false,false,0.0-2.0-0.22-0.204-3.204,1,0,0,68,false,stim,false,0,569,2,0,1,80508,task3,562980,false,true,691,image-keyboard-response,10
true,11,0,1,0,true,q,false,true,0.0-2.0-0.22-0.205-3.205,1,0,0,81,false,stim,false,2,584,2,0,2,80508,task3,565066,false,false,694,image-keyboard-response,11
true,11,0,1,0,true,q,false,true,0.0-2.0-0.22-0.206-3.206,1,0,0,81,false,stim,false,2,553,2,0,2,80508,task3,567129,false,false,697,image-keyboard-response,12
true,11,2,1,2,true,d,false,true,0.0-2.0-0.23-0.207-3.207,1,0,0,68,false,stim,false,0,792,2,0,1,80508,task3,569428,false,false,700,image-keyboard-response,13
true,11,0,1,0,true,q,false,true,0.0-2.0-0.23-0.208-3.208,1,0,0,81,false,stim,false,0,651,2,1,0,80508,task3,571585,false,false,703,image-keyboard-response,14
true,11,0,1,0,true,q,false,true,0.0-2.0-0.23-0.209-3.209,1,0,0,81,false,stim,false,2,605,2,0,2,80508,task3,573697,false,false,706,image-keyboard-response,15
true,11,2,1,2,true,d,false,true,0.0-2.0-0.23-0.210-3.210,1,0,0,68,false,stim,false,0,722,2,0,1,80508,task3,575924,false,false,709,image-keyboard-response,16
true,11,0,1,0,true,q,false,true,0.0-2.0-0.23-0.211-3.211,1,0,0,81,false,stim,false,0,982,2,1,0,80508,task3,578413,false,false,712,image-keyboard-response,17
true,11,2,1,2,true,d,false,true,0.0-2.0-0.23-0.212-3.212,1,0,0,68,false,stim,false,0,982,2,0,1,80508,task3,580900,false,false,715,image-keyboard-response,18
true,11,0,1,0,true,q,false,true,0.0-2.0-0.23-0.213-3.213,1,0,0,81,false,stim,false,2,1375,2,0,2,80508,task3,583785,false,false,718,image-keyboard-response,19
true,11,0,1,0,true,q,false,true,0.0-2.0-0.23-0.214-3.214,1,0,0,81,false,stim,false,2,731,2,0,2,80508,task3,586025,false,false,721,image-keyboard-response,20
true,11,0,1,0,true,q,false,true,0.0-2.0-0.23-0.215-3.215,1,0,0,81,false,stim,false,0,656,2,1,0,80508,task3,588192,false,false,724,image-keyboard-response,21
true,11,2,1,2,true,d,false,true,0.0-2.0-0.24-0.216-3.216,1,0,0,68,false,stim,false,0,452,2,0,1,80508,task3,590152,false,false,727,image-keyboard-response,22
true,11,0,1,0,true,q,false,true,0.0-2.0-0.24-0.217-3.217,1,0,0,81,false,stim,false,2,514,2,0,2,80508,task3,592172,false,false,730,image-keyboard-response,23
true,11,0,1,0,true,q,false,true,0.0-2.0-0.24-0.218-3.218,1,0,0,81,false,stim,false,0,672,2,1,0,80508,task3,594354,false,false,733,image-keyboard-response,24
true,11,2,1,2,true,d,false,true,0.0-2.0-0.24-0.219-3.219,1,0,0,68,false,stim,false,0,523,2,1,1,80508,task3,596383,false,false,736,image-keyboard-response,25
true,11,0,1,0,true,q,false,true,0.0-2.0-0.24-0.220-3.220,1,0,0,81,false,stim,false,0,907,2,1,0,80508,task3,598794,false,false,739,image-keyboard-response,26
true,11,0,1,0,true,q,false,false,0.0-2.0-0.24-0.221-3.221,1,0,0,81,false,stim,false,0,503,2,1,0,80508,task3,600806,false,true,742,image-keyboard-response,27
true,11,0,1,0,true,q,false,true,0.0-2.0-0.24-0.222-3.222,1,0,0,81,false,stim,false,2,886,2,0,2,80508,task3,603196,false,false,745,image-keyboard-response,28
true,11,0,1,0,true,q,false,true,0.0-2.0-0.24-0.223-3.223,1,0,0,81,false,stim,false,2,473,2,0,2,80508,task3,605174,false,false,748,image-keyboard-response,29
true,12,2,2,2,true,d,false,true,0.0-2.0-0.24-0.224-3.224,1,1,0,68,true,stim,false,2,527,2,1,1,80508,task3,607204,false,false,751,image-keyboard-response,1
true,12,2,2,2,true,d,false,true,0.0-2.0-0.25-0.225-3.225,1,1,0,68,false,stim,false,2,598,2,1,1,80508,task3,609305,false,false,754,image-keyboard-response,2
true,12,0,2,1,false,z,false,false,0.0-2.0-0.25-0.226-3.226,1,1,0,81,false,stim,true,0,610,2,0,2,80508,task3,611421,false,false,757,image-keyboard-response,3
true,12,2,2,2,true,d,false,true,0.0-2.0-0.25-0.227-3.227,1,1,0,68,false,stim,false,2,649,2,1,1,80508,task3,613575,false,false,760,image-keyboard-response,4
true,12,0,2,1,false,z,false,false,0.0-2.0-0.25-0.228-3.228,1,1,0,81,false,stim,true,0,530,2,0,2,80508,task3,615610,false,false,763,image-keyboard-response,5
true,12,1,2,0,false,q,true,false,0.0-2.0-0.25-0.229-3.229,1,1,0,90,false,stim,false,0,766,2,1,0,80508,task3,617881,false,false,766,image-keyboard-response,6
true,12,2,2,0,false,q,true,false,0.0-2.0-0.25-0.230-3.230,1,1,0,68,false,stim,false,0,770,2,1,0,80508,task3,620156,false,false,769,image-keyboard-response,7
true,12,0,2,0,true,q,false,true,0.0-2.0-0.25-0.231-3.231,1,1,0,81,false,stim,false,0,419,2,1,0,80508,task3,622083,false,false,772,image-keyboard-response,8
true,12,2,2,2,true,d,false,true,0.0-2.0-0.25-0.232-3.232,1,1,0,68,false,stim,false,2,633,2,0,1,80508,task3,624222,false,false,775,image-keyboard-response,9
true,12,1,2,1,true,z,false,true,0.0-2.0-0.25-0.233-3.233,1,1,0,90,false,stim,false,0,575,2,1,2,80508,task3,626307,false,false,778,image-keyboard-response,10
true,12,0,2,0,true,q,false,true,0.0-2.0-0.26-0.234-3.234,1,1,0,81,false,stim,false,0,770,2,0,0,80508,task3,628587,false,false,781,image-keyboard-response,11
true,12,2,2,2,true,d,false,true,0.0-2.0-0.26-0.235-3.235,1,1,0,68,false,stim,false,2,704,2,0,1,80508,task3,630795,false,false,784,image-keyboard-response,12
true,12,2,2,2,true,d,false,true,0.0-2.0-0.26-0.236-3.236,1,1,0,68,false,stim,false,2,772,2,0,1,80508,task3,633072,false,false,787,image-keyboard-response,13
true,13,1,1,1,true,z,false,false,0.0-2.0-0.26-0.237-3.237,0,0,1,90,true,stim,false,1,1119,2,1,2,80508,task3,635695,false,true,790,image-keyboard-response,1
true,13,2,1,0,false,q,false,true,0.0-2.0-0.26-0.238-3.238,0,0,1,68,false,stim,true,2,808,2,0,1,80508,task3,638010,false,true,793,image-keyboard-response,2
true,13,0,1,1,false,z,true,false,0.0-2.0-0.26-0.239-3.239,0,0,1,81,false,stim,false,1,1257,2,1,2,80508,task3,640771,false,false,796,image-keyboard-response,3
true,13,1,1,1,true,z,false,false,0.0-2.0-0.26-0.240-3.240,0,0,1,90,false,stim,false,1,577,2,1,2,80508,task3,642851,false,true,799,image-keyboard-response,4
true,13,0,1,1,false,z,false,false,0.0-2.0-0.26-0.241-3.241,0,0,1,81,false,stim,true,0,572,2,0,0,80508,task3,644931,false,false,802,image-keyboard-response,5
true,13,0,1,1,false,z,false,false,0.0-2.0-0.26-0.242-3.242,0,0,1,81,false,stim,true,0,869,2,0,0,80508,task3,647307,false,false,805,image-keyboard-response,6
true,13,2,1,1,false,z,true,false,0.0-2.0-0.27-0.243-3.243,0,0,1,68,false,stim,false,1,612,2,1,2,80508,task3,649425,false,false,808,image-keyboard-response,7
true,13,1,1,1,true,z,false,true,0.0-2.0-0.27-0.244-3.244,0,0,1,90,false,stim,false,0,455,2,0,0,80508,task3,651389,false,false,811,image-keyboard-response,8
true,13,1,1,1,true,z,false,true,0.0-2.0-0.27-0.245-3.245,0,0,1,90,false,stim,false,0,634,2,0,0,80508,task3,653531,false,false,814,image-keyboard-response,9
true,13,0,1,1,false,z,true,false,0.0-2.0-0.27-0.246-3.246,0,0,1,81,false,stim,false,1,972,2,1,2,80508,task3,656009,false,false,817,image-keyboard-response,10
true,13,1,1,1,true,z,false,true,0.0-2.0-0.27-0.247-3.247,0,0,1,90,false,stim,false,0,540,2,0,0,80508,task3,658059,false,false,820,image-keyboard-response,11
true,13,2,1,0,false,q,false,false,0.0-2.0-0.27-0.248-3.248,0,0,1,68,false,stim,true,2,567,2,0,1,80508,task3,660132,false,false,823,image-keyboard-response,12
true,13,2,1,0,false,q,false,false,0.0-2.0-0.27-0.249-3.249,0,0,1,68,false,stim,true,2,460,2,0,1,80508,task3,662097,false,false,826,image-keyboard-response,13
true,13,1,1,1,true,z,false,true,0.0-2.0-0.27-0.250-3.250,0,0,1,90,false,stim,false,1,859,2,1,2,80508,task3,664465,false,false,829,image-keyboard-response,14
true,13,0,1,0,true,q,false,true,0.0-2.0-0.27-0.251-3.251,0,0,1,81,false,stim,false,2,662,2,0,1,80508,task3,666635,false,false,832,image-keyboard-response,15
true,13,0,1,0,true,q,false,true,0.0-2.0-0.28-0.252-3.252,0,0,1,81,false,stim,false,2,479,2,0,1,80508,task3,668619,false,false,835,image-keyboard-response,16
true,13,0,1,0,true,q,false,true,0.0-2.0-0.28-0.253-3.253,0,0,1,81,false,stim,false,2,494,2,0,1,80508,task3,670620,false,false,838,image-keyboard-response,17
true,13,0,1,0,true,q,false,true,0.0-2.0-0.28-0.254-3.254,0,0,1,81,false,stim,false,2,1366,2,0,1,80508,task3,673492,false,false,841,image-keyboard-response,18
true,13,1,1,1,true,z,false,true,0.0-2.0-0.28-0.255-3.255,0,0,1,90,false,stim,false,1,733,2,1,2,80508,task3,675736,false,false,844,image-keyboard-response,19
true,13,1,1,1,true,z,false,true,0.0-2.0-0.28-0.256-3.256,0,0,1,90,false,stim,false,0,541,2,0,0,80508,task3,677782,false,false,847,image-keyboard-response,20
true,13,1,1,1,true,z,false,true,0.0-2.0-0.28-0.257-3.257,0,0,1,90,false,stim,false,0,610,2,0,0,80508,task3,679902,false,false,850,image-keyboard-response,21
true,13,1,1,1,true,z,false,true,0.0-2.0-0.28-0.258-3.258,0,0,1,90,false,stim,false,1,967,2,1,2,80508,task3,682373,false,false,853,image-keyboard-response,22
true,13,1,1,1,true,z,false,true,0.0-2.0-0.28-0.259-3.259,0,0,1,90,false,stim,false,1,1137,2,1,2,80508,task3,685017,false,false,856,image-keyboard-response,23
true,14,1,1,2,false,d,false,false,0.0-2.0-0.28-0.260-3.260,0,0,1,90,true,stim,true,1,1646,2,0,0,80508,task3,688170,false,false,859,image-keyboard-response,1
true,14,0,1,2,false,d,true,true,0.0-2.0-0.29-0.261-3.261,0,0,1,81,false,stim,false,1,352,2,0,0,80508,task3,690028,false,true,862,image-keyboard-response,2
true,14,0,1,2,false,d,false,false,0.0-2.0-0.29-0.262-3.262,0,0,1,81,false,stim,true,0,1465,2,0,1,80508,task3,692997,false,false,865,image-keyboard-response,3
true,14,1,1,1,true,z,false,false,0.0-2.0-0.29-0.263-3.263,0,0,1,90,false,stim,false,1,2308,2,1,2,80508,task3,696812,false,true,868,image-keyboard-response,4
true,14,1,1,2,false,d,false,false,0.0-2.0-0.29-0.264-3.264,0,0,1,90,false,stim,true,1,1609,2,0,0,80508,task3,699929,false,false,871,image-keyboard-response,5
true,14,2,1,1,false,z,true,false,0.0-2.0-0.29-0.265-3.265,0,0,1,68,false,stim,false,1,2299,2,1,2,80508,task3,703731,false,false,874,image-keyboard-response,6
true,14,0,1,2,false,d,true,false,0.0-2.0-0.29-0.266-3.266,0,0,1,81,false,stim,false,1,498,2,0,0,80508,task3,705734,false,false,877,image-keyboard-response,7
true,14,0,1,1,false,z,true,true,0.0-2.0-0.29-0.267-3.267,0,0,1,81,false,stim,false,1,697,2,1,2,80508,task3,707938,false,true,880,image-keyboard-response,8
true,14,0,1,2,false,d,false,false,0.0-2.0-0.29-0.268-3.268,0,0,1,81,false,stim,true,0,756,2,0,1,80508,task3,710203,false,false,883,image-keyboard-response,9
true,14,1,1,2,false,d,true,false,0.0-2.0-0.29-0.269-3.269,0,0,1,90,false,stim,false,0,557,2,0,1,80508,task3,712269,false,false,886,image-keyboard-response,10
true,14,2,1,2,true,d,false,true,0.0-2.0-0.30-0.270-3.270,0,0,1,68,false,stim,false,0,604,2,0,1,80508,task3,714380,false,false,889,image-keyboard-response,11
true,14,1,1,2,false,d,false,true,0.0-2.0-0.30-0.271-3.271,0,0,1,90,false,stim,true,1,700,2,0,0,80508,task3,716587,false,true,892,image-keyboard-response,12
true,14,0,1,1,false,z,true,false,0.0-2.0-0.30-0.272-3.272,0,0,1,81,false,stim,false,1,591,2,1,2,80508,task3,718682,false,false,895,image-keyboard-response,13
true,14,0,1,1,false,z,true,false,0.0-2.0-0.30-0.273-3.273,0,0,1,81,false,stim,false,1,473,2,1,2,80508,task3,720659,false,false,898,image-keyboard-response,14
true,14,1,1,2,false,d,false,false,0.0-2.0-0.30-0.274-3.274,0,0,1,90,false,stim,true,1,455,2,0,0,80508,task3,722622,false,false,901,image-keyboard-response,15
true,14,1,1,1,true,z,false,true,0.0-2.0-0.30-0.275-3.275,0,0,1,90,false,stim,false,1,928,2,1,2,80508,task3,725054,false,false,904,image-keyboard-response,16
true,14,2,1,2,true,d,false,true,0.0-2.0-0.30-0.276-3.276,0,0,1,68,false,stim,false,0,587,2,0,1,80508,task3,727144,false,false,907,image-keyboard-response,17
true,14,2,1,2,true,d,false,true,0.0-2.0-0.30-0.277-3.277,0,0,1,68,false,stim,false,0,638,2,0,1,80508,task3,729288,false,false,910,image-keyboard-response,18
true,14,1,1,2,false,d,false,false,0.0-2.0-0.30-0.278-3.278,0,0,1,90,false,stim,true,1,580,2,0,0,80508,task3,731377,false,false,913,image-keyboard-response,19
true,14,2,1,2,true,d,false,true,0.0-2.0-0.31-0.279-3.279,0,0,1,68,false,stim,false,0,932,2,0,1,80508,task3,733819,false,false,916,image-keyboard-response,20
true,14,1,1,1,true,z,false,true,0.0-2.0-0.31-0.280-3.280,0,0,1,90,false,stim,false,1,749,2,1,2,80508,task3,736073,false,false,919,image-keyboard-response,21
true,14,1,1,1,true,z,false,true,0.0-2.0-0.31-0.281-3.281,0,0,1,90,false,stim,false,1,945,2,1,2,80508,task3,738521,false,false,922,image-keyboard-response,22
true,14,2,1,2,true,d,false,true,0.0-2.0-0.31-0.282-3.282,0,0,1,68,false,stim,false,0,435,2,0,1,80508,task3,740465,false,false,925,image-keyboard-response,23
true,14,1,1,1,true,z,false,true,0.0-2.0-0.31-0.283-3.283,0,0,1,90,false,stim,false,1,721,2,1,2,80508,task3,742692,false,false,928,image-keyboard-response,24
true,15,2,2,2,true,d,false,true,0.0-2.0-0.31-0.284-3.284,1,0,1,68,true,stim,false,2,926,2,1,0,80508,task3,745124,false,false,931,image-keyboard-response,1
true,15,2,2,1,false,z,false,false,0.0-2.0-0.31-0.285-3.285,1,0,1,68,false,stim,true,2,598,2,0,1,80508,task3,747227,false,false,934,image-keyboard-response,2
true,15,2,2,2,true,d,false,true,0.0-2.0-0.31-0.286-3.286,1,0,1,68,false,stim,false,2,604,2,1,0,80508,task3,749341,false,false,937,image-keyboard-response,3
true,15,2,2,2,true,d,false,true,0.0-2.0-0.31-0.287-3.287,1,0,1,68,false,stim,false,2,456,2,1,0,80508,task3,751304,false,false,940,image-keyboard-response,4
true,15,1,2,1,true,z,false,true,0.0-2.0-0.32-0.288-3.288,1,0,1,90,false,stim,false,1,518,2,1,2,80508,task3,753328,false,false,943,image-keyboard-response,5
true,15,2,2,2,true,d,false,true,0.0-2.0-0.32-0.289-3.289,1,0,1,68,false,stim,false,2,628,2,1,0,80508,task3,755459,false,false,946,image-keyboard-response,6
true,15,2,2,2,true,d,false,true,0.0-2.0-0.32-0.290-3.290,1,0,1,68,false,stim,false,2,574,2,1,0,80508,task3,757536,false,false,949,image-keyboard-response,7
true,15,1,2,1,true,z,false,true,0.0-2.0-0.32-0.291-3.291,1,0,1,90,false,stim,false,1,634,2,1,2,80508,task3,759676,false,false,952,image-keyboard-response,8
true,15,2,2,2,true,d,false,true,0.0-2.0-0.32-0.292-3.292,1,0,1,68,false,stim,false,2,644,2,1,0,80508,task3,761824,false,false,955,image-keyboard-response,9
true,15,2,2,1,false,z,false,true,0.0-2.0-0.32-0.293-3.293,1,0,1,68,false,stim,true,2,1294,2,1,1,80508,task3,764625,false,true,958,image-keyboard-response,10
true,15,2,2,1,false,z,false,false,0.0-2.0-0.32-0.294-3.294,1,0,1,68,false,stim,true,2,684,2,1,1,80508,task3,766814,false,false,961,image-keyboard-response,11
true,15,2,2,1,false,z,false,true,0.0-2.0-0.32-0.295-3.295,1,0,1,68,false,stim,true,2,488,2,1,1,80508,task3,768806,false,true,964,image-keyboard-response,12
true,15,1,2,1,true,z,false,true,0.0-2.0-0.32-0.296-3.296,1,0,1,90,false,stim,false,1,764,2,0,2,80508,task3,771075,false,false,967,image-keyboard-response,13
true,15,2,2,2,true,d,false,false,0.0-2.0-0.33-0.297-3.297,1,0,1,68,false,stim,false,2,900,2,0,0,80508,task3,773480,false,true,970,image-keyboard-response,14
true,16,2,1,1,false,z,true,true,0.0-2.0-0.33-0.298-3.298,0,1,0,68,true,stim,false,1,713,2,1,1,80508,task3,775704,false,true,973,image-keyboard-response,1
true,16,1,1,2,false,d,false,false,0.0-2.0-0.33-0.299-3.299,0,1,0,90,false,stim,true,1,570,2,0,2,80508,task3,777783,false,false,976,image-keyboard-response,2
true,16,1,1,2,false,d,false,false,0.0-2.0-0.33-0.300-3.300,0,1,0,90,false,stim,true,1,736,2,0,2,80508,task3,780027,false,false,979,image-keyboard-response,3
true,16,2,1,0,false,q,false,false,0.0-2.0-0.33-0.301-3.301,0,1,0,68,false,stim,true,2,599,2,0,0,80508,task3,782135,false,false,982,image-keyboard-response,4
true,16,0,1,0,true,q,false,false,0.0-2.0-0.33-0.302-3.302,0,1,0,81,false,stim,false,2,651,2,0,0,80508,task3,784291,false,true,985,image-keyboard-response,5
true,16,2,1,1,false,z,true,false,0.0-2.0-0.33-0.303-3.303,0,1,0,68,false,stim,false,1,652,2,1,1,80508,task3,786453,false,false,988,image-keyboard-response,6
true,16,2,1,2,true,d,false,true,0.0-2.0-0.33-0.304-3.304,0,1,0,68,false,stim,false,1,903,2,0,2,80508,task3,788864,false,false,991,image-keyboard-response,7
true,16,2,1,1,false,z,true,false,0.0-2.0-0.33-0.305-3.305,0,1,0,68,false,stim,false,1,456,2,1,1,80508,task3,790826,false,false,994,image-keyboard-response,8
true,16,2,1,2,true,d,false,true,0.0-2.0-0.34-0.306-3.306,0,1,0,68,false,stim,false,1,951,2,0,2,80508,task3,793280,false,false,997,image-keyboard-response,9
true,16,1,1,0,false,q,true,false,0.0-2.0-0.34-0.307-3.307,0,1,0,90,false,stim,false,2,819,2,0,0,80508,task3,795604,false,false,1000,image-keyboard-response,10
true,16,2,1,2,true,d,false,true,0.0-2.0-0.34-0.308-3.308,0,1,0,68,false,stim,false,1,706,2,0,2,80508,task3,797821,false,false,1003,image-keyboard-response,11
true,16,2,1,0,false,q,false,false,0.0-2.0-0.34-0.309-3.309,0,1,0,68,false,stim,true,2,837,2,0,0,80508,task3,800169,false,false,1006,image-keyboard-response,12
true,16,0,1,1,false,z,true,false,0.0-2.0-0.34-0.310-3.310,0,1,0,81,false,stim,false,1,900,2,1,1,80508,task3,802576,false,false,1009,image-keyboard-response,13
true,16,2,1,2,true,d,false,true,0.0-2.0-0.34-0.311-3.311,0,1,0,68,false,stim,false,1,638,2,0,2,80508,task3,804721,false,false,1012,image-keyboard-response,14
true,16,1,1,1,true,z,false,true,0.0-2.0-0.34-0.312-3.312,0,1,0,90,false,stim,false,1,953,2,1,1,80508,task3,807181,false,false,1015,image-keyboard-response,15
true,16,1,1,1,true,z,false,true,0.0-2.0-0.34-0.313-3.313,0,1,0,90,false,stim,false,1,871,2,1,1,80508,task3,809558,false,false,1018,image-keyboard-response,16
true,16,0,1,0,true,q,false,true,0.0-2.0-0.34-0.314-3.314,0,1,0,81,false,stim,false,2,537,2,0,0,80508,task3,811599,false,false,1021,image-keyboard-response,17
true,16,0,1,0,true,q,false,true,0.0-2.0-0.35-0.315-3.315,0,1,0,81,false,stim,false,2,525,2,0,0,80508,task3,813633,false,false,1024,image-keyboard-response,18
true,16,0,1,0,true,q,false,false,0.0-2.0-0.35-0.316-3.316,0,1,0,81,false,stim,false,2,556,2,0,0,80508,task3,815692,false,true,1027,image-keyboard-response,19
true,16,2,1,2,true,d,false,false,0.0-2.0-0.35-0.317-3.317,0,1,0,68,false,stim,false,1,898,2,0,2,80508,task3,818094,false,true,1030,image-keyboard-response,20
true,16,0,1,0,true,q,false,true,0.0-2.0-0.35-0.318-3.318,0,1,0,81,false,stim,false,2,613,2,0,0,80508,task3,820211,false,false,1033,image-keyboard-response,21
true,16,2,1,2,true,d,false,true,0.0-2.0-0.35-0.319-3.319,0,1,0,68,false,stim,false,1,491,2,0,2,80508,task3,822206,false,false,1036,image-keyboard-response,22
true,16,1,1,1,true,z,false,true,0.0-2.0-0.35-0.320-3.320,0,1,0,90,false,stim,false,1,522,2,1,1,80508,task3,824232,false,false,1039,image-keyboard-response,23
true,16,1,1,1,true,z,false,true,0.0-2.0-0.35-0.321-3.321,0,1,0,90,false,stim,false,1,1174,2,1,1,80508,task3,826913,false,false,1042,image-keyboard-response,24
true,16,1,1,1,true,z,false,true,0.0-2.0-0.35-0.322-3.322,0,1,0,90,false,stim,false,1,491,2,1,1,80508,task3,828911,false,false,1045,image-keyboard-response,25
true,16,2,1,2,true,d,false,true,0.0-2.0-0.35-0.323-3.323,0,1,0,68,false,stim,false,1,591,2,0,2,80508,task3,831004,false,false,1048,image-keyboard-response,26
true,16,2,1,2,true,d,false,true,0.0-2.0-0.36-0.324-3.324,0,1,0,68,false,stim,false,1,658,2,0,2,80508,task3,833169,false,false,1051,image-keyboard-response,27
true,17,0,2,0,true,q,false,true,0.0-2.0-0.36-0.325-3.325,1,1,0,81,true,stim,false,0,572,2,1,0,80508,task3,835247,false,false,1054,image-keyboard-response,1
true,17,1,2,1,true,z,false,true,0.0-2.0-0.36-0.326-3.326,1,1,0,90,false,stim,false,1,991,2,1,1,80508,task3,837746,false,false,1057,image-keyboard-response,2
true,17,1,2,1,true,z,false,true,0.0-2.0-0.36-0.327-3.327,1,1,0,90,false,stim,false,1,509,2,1,1,80508,task3,839766,false,false,1060,image-keyboard-response,3
true,17,2,2,1,false,z,false,false,0.0-2.0-0.36-0.328-3.328,1,1,0,68,false,stim,true,2,554,2,0,2,80508,task3,841826,false,false,1063,image-keyboard-response,4
true,17,2,2,1,false,z,false,false,0.0-2.0-0.36-0.329-3.329,1,1,0,68,false,stim,true,2,490,2,0,2,80508,task3,843825,false,false,1066,image-keyboard-response,5
true,17,1,2,1,true,z,false,true,0.0-2.0-0.36-0.330-3.330,1,1,0,90,false,stim,false,1,1308,2,1,1,80508,task3,846639,false,false,1069,image-keyboard-response,6
true,17,0,2,0,true,q,false,true,0.0-2.0-0.36-0.331-3.331,1,1,0,81,false,stim,false,0,714,2,1,0,80508,task3,848858,false,false,1072,image-keyboard-response,7
true,17,0,2,0,true,q,false,true,0.0-2.0-0.36-0.332-3.332,1,1,0,81,false,stim,false,0,460,2,1,0,80508,task3,850823,false,false,1075,image-keyboard-response,8
true,17,1,2,1,true,z,false,false,0.0-2.0-0.37-0.333-3.333,1,1,0,90,false,stim,false,1,687,2,1,1,80508,task3,853017,false,true,1078,image-keyboard-response,9
true,17,0,2,0,true,q,false,true,0.0-2.0-0.37-0.334-3.334,1,1,0,81,false,stim,false,0,679,2,1,0,80508,task3,855206,false,false,1081,image-keyboard-response,10
true,17,2,2,1,false,z,false,false,0.0-2.0-0.37-0.335-3.335,1,1,0,68,false,stim,true,2,552,2,0,2,80508,task3,857264,false,false,1084,image-keyboard-response,11
true,17,0,2,0,true,q,false,true,0.0-2.0-0.37-0.336-3.336,1,1,0,81,false,stim,false,0,737,2,1,0,80508,task3,859511,false,false,1087,image-keyboard-response,12
true,17,2,2,1,false,z,false,true,0.0-2.0-0.37-0.337-3.337,1,1,0,68,false,stim,true,2,926,2,0,2,80508,task3,861945,false,true,1090,image-keyboard-response,13
true,17,2,2,1,false,z,false,false,0.0-2.0-0.37-0.338-3.338,1,1,0,68,false,stim,true,2,534,2,0,2,80508,task3,863984,false,false,1093,image-keyboard-response,14
true,17,0,2,0,true,q,false,true,0.0-2.0-0.37-0.339-3.339,1,1,0,81,false,stim,false,0,764,2,1,0,80508,task3,866251,false,false,1096,image-keyboard-response,15
true,17,1,2,1,true,z,false,true,0.0-2.0-0.37-0.340-3.340,1,1,0,90,false,stim,false,1,886,2,1,1,80508,task3,868646,false,false,1099,image-keyboard-response,16
true,17,1,2,1,true,z,false,true,0.0-2.0-0.37-0.341-3.341,1,1,0,90,false,stim,false,1,491,2,1,1,80508,task3,870648,false,false,1102,image-keyboard-response,17
true,17,2,2,1,false,z,false,true,0.0-2.0-0.38-0.342-3.342,1,1,0,68,false,stim,true,2,505,2,0,2,80508,task3,872656,false,true,1105,image-keyboard-response,18
true,17,2,2,1,false,z,false,false,0.0-2.0-0.38-0.343-3.343,1,1,0,68,false,stim,true,2,537,2,0,2,80508,task3,874697,false,false,1108,image-keyboard-response,19
true,17,1,2,1,true,z,false,true,0.0-2.0-0.38-0.344-3.344,1,1,0,90,false,stim,false,1,969,2,1,1,80508,task3,877174,false,false,1111,image-keyboard-response,20
true,17,0,2,0,true,q,false,true,0.0-2.0-0.38-0.345-3.345,1,1,0,81,false,stim,false,0,535,2,1,0,80508,task3,879215,false,false,1114,image-keyboard-response,21
true,17,1,2,1,true,z,false,true,0.0-2.0-0.38-0.346-3.346,1,1,0,90,false,stim,false,1,678,2,1,1,80508,task3,881400,false,false,1117,image-keyboard-response,22
true,17,0,2,0,true,q,false,true,0.0-2.0-0.38-0.347-3.347,1,1,0,81,false,stim,false,0,616,2,1,0,80508,task3,883522,false,false,1120,image-keyboard-response,23
true,17,1,2,1,true,z,false,true,0.0-2.0-0.38-0.348-3.348,1,1,0,90,false,stim,false,1,609,2,1,1,80508,task3,885637,false,false,1123,image-keyboard-response,24
true,17,2,2,1,false,z,false,false,0.0-2.0-0.38-0.349-3.349,1,1,0,68,false,stim,true,2,473,2,0,2,80508,task3,887619,false,false,1126,image-keyboard-response,25
true,17,0,2,0,true,q,false,true,0.0-2.0-0.38-0.350-3.350,1,1,0,81,false,stim,false,0,521,2,0,0,80508,task3,889648,false,false,1129,image-keyboard-response,26
true,17,0,2,1,false,z,true,false,0.0-2.0-0.39-0.351-3.351,1,1,0,81,false,stim,false,2,387,2,0,2,80508,task3,891546,false,false,1132,image-keyboard-response,27
true,17,0,2,0,true,q,false,true,0.0-2.0-0.39-0.352-3.352,1,1,0,81,false,stim,false,0,636,2,0,0,80508,task3,893690,false,false,1135,image-keyboard-response,28
true,18,0,1,2,false,d,false,false,0.0-2.0-0.39-0.353-3.353,0,1,0,81,true,stim,true,0,410,2,0,0,80508,task3,895608,false,false,1138,image-keyboard-response,1
true,18,1,1,2,false,d,false,false,0.0-2.0-0.39-0.354-3.354,0,1,0,90,false,stim,true,1,885,2,0,2,80508,task3,897997,false,false,1141,image-keyboard-response,2
true,18,2,1,2,true,d,false,true,0.0-2.0-0.39-0.355-3.355,0,1,0,68,false,stim,false,1,494,2,0,2,80508,task3,899998,false,false,1144,image-keyboard-response,3
true,18,1,1,1,true,z,false,true,0.0-2.0-0.39-0.356-3.356,0,1,0,90,false,stim,false,1,744,2,1,1,80508,task3,902247,false,false,1147,image-keyboard-response,4
true,18,0,1,2,false,d,false,false,0.0-2.0-0.39-0.357-3.357,0,1,0,81,false,stim,true,0,407,2,0,0,80508,task3,904165,false,false,1150,image-keyboard-response,5
true,18,1,1,1,true,z,false,true,0.0-2.0-0.39-0.358-3.358,0,1,0,90,false,stim,false,1,386,2,1,1,80508,task3,906058,false,false,1153,image-keyboard-response,6
true,18,1,1,1,true,z,false,true,0.0-2.0-0.39-0.359-3.359,0,1,0,90,false,stim,false,1,448,2,1,1,80508,task3,908012,false,false,1156,image-keyboard-response,7
true,18,1,1,2,false,d,true,false,0.0-2.0-0.40-0.360-3.360,0,1,0,90,false,stim,false,0,611,2,0,0,80508,task3,910133,false,false,1159,image-keyboard-response,8
true,18,2,1,2,true,d,false,true,0.0-2.0-0.40-0.361-3.361,0,1,0,68,false,stim,false,1,402,2,0,2,80508,task3,912040,false,false,1162,image-keyboard-response,9
true,18,2,1,2,true,d,false,true,0.0-2.0-0.40-0.362-3.362,0,1,0,68,false,stim,false,0,562,2,0,0,80508,task3,914106,false,false,1165,image-keyboard-response,10
true,18,1,1,1,true,z,false,true,0.0-2.0-0.40-0.363-3.363,0,1,0,90,false,stim,false,1,678,2,1,1,80508,task3,916290,false,false,1168,image-keyboard-response,11
true,18,1,1,1,true,z,false,true,0.0-2.0-0.40-0.364-3.364,0,1,0,90,false,stim,false,1,522,2,1,1,80508,task3,918320,false,false,1171,image-keyboard-response,12
true,18,2,1,2,true,d,false,false,0.0-2.0-0.40-0.365-3.365,0,1,0,68,false,stim,false,1,679,2,0,2,80508,task3,920505,false,true,1174,image-keyboard-response,13
true,18,2,1,2,true,d,false,true,0.0-2.0-0.40-0.366-3.366,0,1,0,68,false,stim,false,0,556,2,0,0,80508,task3,922569,false,false,1177,image-keyboard-response,14
true,18,2,1,2,true,d,false,true,0.0-2.0-0.40-0.367-3.367,0,1,0,68,false,stim,false,1,510,2,0,2,80508,task3,924584,false,false,1180,image-keyboard-response,15
true,18,1,1,1,true,z,false,true,0.0-2.0-0.40-0.368-3.368,0,1,0,90,false,stim,false,1,788,2,1,1,80508,task3,926877,false,false,1183,image-keyboard-response,16
true,18,1,1,1,true,z,false,false,0.0-2.0-0.41-0.369-3.369,0,1,0,90,false,stim,false,1,506,2,1,1,80508,task3,928891,false,true,1186,image-keyboard-response,17
true,18,2,1,2,true,d,false,true,0.0-2.0-0.41-0.370-3.370,0,1,0,68,false,stim,false,0,1178,2,0,0,80508,task3,931576,false,false,1189,image-keyboard-response,18
true,18,2,1,2,true,d,false,true,0.0-2.0-0.41-0.371-3.371,0,1,0,68,false,stim,false,1,764,2,0,2,80508,task3,933844,false,false,1192,image-keyboard-response,19
true,18,2,1,2,true,d,false,true,0.0-2.0-0.41-0.372-3.372,0,1,0,68,false,stim,false,0,735,2,0,0,80508,task3,936083,false,false,1195,image-keyboard-response,20
true,18,2,1,2,true,d,false,true,0.0-2.0-0.41-0.373-3.373,0,1,0,68,false,stim,false,0,540,2,0,0,80508,task3,938131,false,false,1198,image-keyboard-response,21
true,18,2,1,2,true,d,false,true,0.0-2.0-0.41-0.374-3.374,0,1,0,68,false,stim,false,1,773,2,0,2,80508,task3,940414,false,false,1201,image-keyboard-response,22
true,18,2,1,2,true,d,false,true,0.0-2.0-0.41-0.375-3.375,0,1,0,68,false,stim,false,1,549,2,0,2,80508,task3,942470,false,false,1204,image-keyboard-response,23
true,18,1,1,1,true,z,false,true,0.0-2.0-0.41-0.376-3.376,0,1,0,90,false,stim,false,1,734,2,1,1,80508,task3,944709,false,false,1207,image-keyboard-response,24
true,18,1,1,1,true,z,false,true,0.0-2.0-0.41-0.377-3.377,0,1,0,90,false,stim,false,1,470,2,1,1,80508,task3,946684,false,false,1210,image-keyboard-response,25
true,18,2,1,2,true,d,false,true,0.0-2.0-0.42-0.378-3.378,0,1,0,68,false,stim,false,0,653,2,1,0,80508,task3,948843,false,false,1213,image-keyboard-response,26
true,18,1,1,1,true,z,false,false,0.0-2.0-0.42-0.379-3.379,0,1,0,90,false,stim,false,1,876,2,1,1,80508,task3,951231,false,true,1216,image-keyboard-response,27
true,18,2,1,2,true,d,false,true,0.0-2.0-0.42-0.380-3.380,0,1,0,68,false,stim,false,1,517,2,0,2,80508,task3,953254,false,false,1219,image-keyboard-response,28
true,19,1,2,1,true,z,false,true,0.0-2.0-0.42-0.381-3.381,1,1,0,90,true,stim,false,1,1036,2,1,1,80508,task3,955796,false,false,1222,image-keyboard-response,1
true,19,2,2,0,false,q,false,false,0.0-2.0-0.42-0.382-3.382,1,1,0,68,false,stim,true,2,378,2,0,2,80508,task3,957683,false,false,1225,image-keyboard-response,2
true,19,2,2,2,true,d,false,true,0.0-2.0-0.42-0.383-3.383,1,1,0,68,false,stim,false,2,570,2,1,0,80508,task3,959756,false,false,1228,image-keyboard-response,3
true,19,2,2,0,false,q,false,false,0.0-2.0-0.42-0.384-3.384,1,1,0,68,false,stim,true,2,379,2,0,2,80508,task3,961642,false,false,1231,image-keyboard-response,4
true,19,2,2,2,true,d,false,true,0.0-2.0-0.42-0.385-3.385,1,1,0,68,false,stim,false,2,604,2,1,0,80508,task3,963755,false,false,1234,image-keyboard-response,5
true,19,1,2,1,true,z,false,true,0.0-2.0-0.42-0.386-3.386,1,1,0,90,false,stim,false,1,834,2,1,1,80508,task3,966095,false,false,1237,image-keyboard-response,6
true,19,1,2,1,true,z,false,true,0.0-2.0-0.43-0.387-3.387,1,1,0,90,false,stim,false,1,532,2,0,1,80508,task3,968134,false,false,1240,image-keyboard-response,7
true,19,2,2,2,true,d,false,true,0.0-2.0-0.43-0.388-3.388,1,1,0,68,false,stim,false,2,605,2,0,0,80508,task3,970246,false,false,1243,image-keyboard-response,8
true,19,1,2,1,true,z,false,true,0.0-2.0-0.43-0.389-3.389,1,1,0,90,false,stim,false,1,580,2,0,1,80508,task3,972335,false,false,1246,image-keyboard-response,9
true,19,1,2,1,true,z,false,true,0.0-2.0-0.43-0.390-3.390,1,1,0,90,false,stim,false,1,593,2,0,1,80508,task3,974439,false,false,1249,image-keyboard-response,10
true,19,2,2,2,true,d,false,false,0.0-2.0-0.43-0.391-3.391,1,1,0,68,false,stim,false,2,706,2,0,0,80508,task3,976652,false,true,1252,image-keyboard-response,11
true,20,0,1,0,true,q,false,true,0.0-2.0-0.43-0.392-3.392,0,0,1,81,true,stim,false,0,1313,2,1,2,80508,task3,979473,false,false,1255,image-keyboard-response,1
true,20,0,1,0,true,q,false,true,0.0-2.0-0.43-0.393-3.393,0,0,1,81,false,stim,false,0,600,2,1,2,80508,task3,981579,false,false,1258,image-keyboard-response,2
true,20,2,1,1,false,z,false,false,0.0-2.0-0.43-0.394-3.394,0,0,1,68,false,stim,true,2,636,2,0,0,80508,task3,983719,false,false,1261,image-keyboard-response,3
true,20,0,1,0,true,q,false,true,0.0-2.0-0.43-0.395-3.395,0,0,1,81,false,stim,false,0,500,2,1,2,80508,task3,985724,false,false,1264,image-keyboard-response,4
true,20,2,1,1,false,z,false,false,0.0-2.0-0.44-0.396-3.396,0,0,1,68,false,stim,true,2,406,2,0,0,80508,task3,987640,false,false,1267,image-keyboard-response,5
true,20,0,1,0,true,q,false,false,0.0-2.0-0.44-0.397-3.397,0,0,1,81,false,stim,false,1,570,2,0,1,80508,task3,989719,false,true,1270,image-keyboard-response,6
true,20,0,1,0,true,q,false,true,0.0-2.0-0.44-0.398-3.398,0,0,1,81,false,stim,false,0,522,2,1,2,80508,task3,991746,false,false,1273,image-keyboard-response,7
true,20,0,1,0,true,q,false,true,0.0-2.0-0.44-0.399-3.399,0,0,1,81,false,stim,false,0,514,2,1,2,80508,task3,993764,false,false,1276,image-keyboard-response,8
true,20,0,1,0,true,q,false,true,0.0-2.0-0.44-0.400-3.400,0,0,1,81,false,stim,false,0,467,2,1,2,80508,task3,995739,false,false,1279,image-keyboard-response,9
true,20,1,1,0,false,q,false,false,0.0-2.0-0.44-0.401-3.401,0,0,1,90,false,stim,true,1,477,2,0,1,80508,task3,997721,false,false,1282,image-keyboard-response,10
true,20,0,1,1,false,z,true,false,0.0-2.0-0.44-0.402-3.402,0,0,1,81,false,stim,false,2,1004,2,0,0,80508,task3,1000230,false,false,1285,image-keyboard-response,11
true,20,1,1,0,false,q,false,false,0.0-2.0-0.44-0.403-3.403,0,0,1,90,false,stim,true,1,953,2,0,1,80508,task3,1002690,false,false,1288,image-keyboard-response,12
true,20,1,1,1,true,z,false,true,0.0-2.0-0.44-0.404-3.404,0,0,1,90,false,stim,false,2,979,2,0,0,80508,task3,1005176,false,false,1291,image-keyboard-response,13
true,20,2,1,0,false,q,true,false,0.0-2.0-0.45-0.405-3.405,0,0,1,68,false,stim,false,1,441,2,0,1,80508,task3,1007123,false,false,1294,image-keyboard-response,14
true,20,0,1,0,true,q,false,true,0.0-2.0-0.45-0.406-3.406,0,0,1,81,false,stim,false,0,748,2,1,2,80508,task3,1009380,false,false,1297,image-keyboard-response,15
true,20,1,1,1,true,z,false,false,0.0-2.0-0.45-0.407-3.407,0,0,1,90,false,stim,false,2,890,2,0,0,80508,task3,1011774,false,true,1300,image-keyboard-response,16
true,20,1,1,1,true,z,false,true,0.0-2.0-0.45-0.408-3.408,0,0,1,90,false,stim,false,2,466,2,0,0,80508,task3,1013755,false,false,1303,image-keyboard-response,17
true,20,0,1,0,true,q,false,true,0.0-2.0-0.45-0.409-3.409,0,0,1,81,false,stim,false,1,496,2,0,1,80508,task3,1015760,false,false,1306,image-keyboard-response,18
true,20,0,1,0,true,q,false,true,0.0-2.0-0.45-0.410-3.410,0,0,1,81,false,stim,false,0,679,2,1,2,80508,task3,1017948,false,false,1309,image-keyboard-response,19
true,20,0,1,0,true,q,false,true,0.0-2.0-0.45-0.411-3.411,0,0,1,81,false,stim,false,1,574,2,0,1,80508,task3,1020029,false,false,1312,image-keyboard-response,20
true,20,0,1,0,true,q,false,true,0.0-2.0-0.45-0.412-3.412,0,0,1,81,false,stim,false,0,707,2,1,2,80508,task3,1022242,false,false,1315,image-keyboard-response,21
true,20,1,1,1,true,z,false,true,0.0-2.0-0.45-0.413-3.413,0,0,1,90,false,stim,false,2,521,2,0,0,80508,task3,1024267,false,false,1318,image-keyboard-response,22
true,20,0,1,0,true,q,false,true,0.0-2.0-0.46-0.414-3.414,0,0,1,81,false,stim,false,0,802,2,1,2,80508,task3,1026576,false,false,1321,image-keyboard-response,23
true,20,1,1,1,true,z,false,true,0.0-2.0-0.46-0.415-3.415,0,0,1,90,false,stim,false,2,826,2,0,0,80508,task3,1028908,false,false,1324,image-keyboard-response,24
true,21,1,1,2,false,d,false,false,0.0-2.0-0.46-0.416-3.416,0,0,1,90,true,stim,true,1,724,2,0,0,80508,task3,1031140,false,false,1327,image-keyboard-response,1
true,21,0,1,2,false,d,false,false,0.0-2.0-0.46-0.417-3.417,0,0,1,81,false,stim,true,0,625,2,0,1,80508,task3,1033277,false,false,1330,image-keyboard-response,2
true,21,1,1,2,false,d,false,false,0.0-2.0-0.46-0.418-3.418,0,0,1,90,false,stim,true,1,1568,2,0,0,80508,task3,1036355,false,false,1333,image-keyboard-response,3
true,21,0,1,0,true,q,false,true,0.0-2.0-0.46-0.419-3.419,0,0,1,81,false,stim,false,0,822,2,1,2,80508,task3,1038684,false,false,1336,image-keyboard-response,4
true,21,0,1,2,false,d,false,false,0.0-2.0-0.46-0.420-3.420,0,0,1,81,false,stim,true,0,717,2,0,1,80508,task3,1040907,false,false,1339,image-keyboard-response,5
true,21,1,1,2,false,d,true,false,0.0-2.0-0.46-0.421-3.421,0,0,1,90,false,stim,false,0,577,2,0,1,80508,task3,1042990,false,false,1342,image-keyboard-response,6
true,21,0,1,0,true,q,false,true,0.0-2.0-0.46-0.422-3.422,0,0,1,81,false,stim,false,0,545,2,1,2,80508,task3,1045042,false,false,1345,image-keyboard-response,7
true,21,2,1,2,true,d,false,true,0.0-2.0-0.47-0.423-3.423,0,0,1,68,false,stim,false,0,904,2,0,1,80508,task3,1047452,false,false,1348,image-keyboard-response,8
true,21,2,1,2,true,d,false,true,0.0-2.0-0.47-0.424-3.424,0,0,1,68,false,stim,false,1,1779,2,0,0,80508,task3,1050737,false,false,1351,image-keyboard-response,9
true,21,2,1,2,true,d,false,true,0.0-2.0-0.47-0.425-3.425,0,0,1,68,false,stim,false,1,536,2,0,0,80508,task3,1052780,false,false,1354,image-keyboard-response,10
true,21,2,1,2,true,d,false,true,0.0-2.0-0.47-0.426-3.426,0,0,1,68,false,stim,false,1,1304,2,0,0,80508,task3,1055591,false,false,1357,image-keyboard-response,11
true,21,0,1,0,true,q,false,true,0.0-2.0-0.47-0.427-3.427,0,0,1,81,false,stim,false,0,788,2,1,2,80508,task3,1057884,false,false,1360,image-keyboard-response,12
true,21,2,1,2,true,d,false,true,0.0-2.0-0.47-0.428-3.428,0,0,1,68,false,stim,false,0,999,2,0,1,80508,task3,1060387,false,false,1363,image-keyboard-response,13
true,21,0,1,0,true,q,false,true,0.0-2.0-0.47-0.429-3.429,0,0,1,81,false,stim,false,0,534,2,1,2,80508,task3,1062425,false,false,1366,image-keyboard-response,14
true,21,2,1,2,true,d,false,false,0.0-2.0-0.47-0.430-3.430,0,0,1,68,false,stim,false,0,599,2,0,1,80508,task3,1064530,false,true,1369,image-keyboard-response,15
true,21,0,1,0,true,q,false,true,0.0-2.0-0.47-0.431-3.431,0,0,1,81,false,stim,false,0,525,2,1,2,80508,task3,1066561,false,false,1372,image-keyboard-response,16
true,21,2,1,2,true,d,false,true,0.0-2.0-0.48-0.432-3.432,0,0,1,68,false,stim,false,1,887,2,0,0,80508,task3,1068953,false,false,1375,image-keyboard-response,17
true,21,0,1,0,true,q,false,false,0.0-2.0-0.48-0.433-3.433,0,0,1,81,false,stim,false,0,549,2,1,2,80508,task3,1071012,false,true,1378,image-keyboard-response,18
true,21,2,1,2,true,d,false,true,0.0-2.0-0.48-0.434-3.434,0,0,1,68,false,stim,false,1,602,2,0,0,80508,task3,1073123,false,false,1381,image-keyboard-response,19
true,21,2,1,2,true,d,false,true,0.0-2.0-0.48-0.435-3.435,0,0,1,68,false,stim,false,0,847,2,1,1,80508,task3,1075478,false,false,1384,image-keyboard-response,20
true,21,2,1,2,true,d,false,true,0.0-2.0-0.48-0.436-3.436,0,0,1,68,false,stim,false,1,711,2,0,0,80508,task3,1077693,false,false,1387,image-keyboard-response,21
true,21,2,1,2,true,d,false,false,0.0-2.0-0.48-0.437-3.437,0,0,1,68,false,stim,false,0,584,2,1,1,80508,task3,1079785,false,true,1390,image-keyboard-response,22
true,21,0,1,0,true,q,false,true,0.0-2.0-0.48-0.438-3.438,0,0,1,81,false,stim,false,0,1538,2,1,2,80508,task3,1082829,false,false,1393,image-keyboard-response,23
true,21,2,1,2,true,d,false,true,0.0-2.0-0.48-0.439-3.439,0,0,1,68,false,stim,false,0,666,2,1,1,80508,task3,1085004,false,false,1396,image-keyboard-response,24
true,22,0,2,0,true,q,false,true,0.0-2.0-0.48-0.440-3.440,0,1,1,81,true,stim,false,0,499,2,1,2,80508,task3,1087007,false,false,1399,image-keyboard-response,1
true,22,0,2,0,true,q,false,true,0.0-2.0-0.49-0.441-3.441,0,1,1,81,false,stim,false,0,487,2,1,2,80508,task3,1089011,false,false,1402,image-keyboard-response,2
true,22,2,2,1,false,z,false,false,0.0-2.0-0.49-0.442-3.442,0,1,1,68,false,stim,true,2,780,2,0,0,80508,task3,1091297,false,false,1405,image-keyboard-response,3
true,22,2,2,2,true,d,false,false,0.0-2.0-0.49-0.443-3.443,0,1,1,68,false,stim,false,2,1114,2,1,1,80508,task3,1093917,false,true,1408,image-keyboard-response,4
true,22,0,2,0,true,q,false,true,0.0-2.0-0.49-0.444-3.444,0,1,1,81,false,stim,false,0,584,2,1,2,80508,task3,1096011,false,false,1411,image-keyboard-response,5
true,22,0,2,2,false,d,true,false,0.0-2.0-0.49-0.445-3.445,0,1,1,81,false,stim,false,2,582,2,1,1,80508,task3,1098099,false,false,1414,image-keyboard-response,6
true,22,2,2,1,false,z,false,false,0.0-2.0-0.49-0.446-3.446,0,1,1,68,false,stim,true,2,741,2,1,0,80508,task3,1100347,false,false,1417,image-keyboard-response,7
true,22,1,2,2,false,d,true,false,0.0-2.0-0.49-0.447-3.447,0,1,1,90,false,stim,false,2,938,2,1,1,80508,task3,1102795,false,false,1420,image-keyboard-response,8
true,22,0,2,0,true,q,false,true,0.0-2.0-0.49-0.448-3.448,0,1,1,81,false,stim,false,0,505,2,0,2,80508,task3,1104807,false,false,1423,image-keyboard-response,9
true,22,2,2,1,false,z,false,false,0.0-2.0-0.49-0.449-3.449,0,1,1,68,false,stim,true,2,457,2,1,0,80508,task3,1106771,false,false,1426,image-keyboard-response,10
true,22,2,2,2,true,d,false,true,0.0-2.0-0.50-0.450-3.450,0,1,1,68,false,stim,false,2,601,2,1,1,80508,task3,1108877,false,false,1429,image-keyboard-response,11
true,23,2,2,2,true,d,false,true,0.0-2.0-0.50-0.451-3.451,1,1,0,68,true,stim,false,2,572,2,1,1,80508,task3,1110952,false,false,1432,image-keyboard-response,1
true,23,0,2,1,false,z,true,false,0.0-2.0-0.50-0.452-3.452,1,1,0,81,false,stim,false,1,355,2,1,0,80508,task3,1112813,false,false,1435,image-keyboard-response,2
true,23,1,2,1,true,z,false,true,0.0-2.0-0.50-0.453-3.453,1,1,0,90,false,stim,false,1,398,2,1,0,80508,task3,1114715,false,false,1438,image-keyboard-response,3
true,23,0,2,1,false,z,false,false,0.0-2.0-0.50-0.454-3.454,1,1,0,81,false,stim,true,0,486,2,0,2,80508,task3,1116709,false,false,1441,image-keyboard-response,4
true,23,0,2,1,false,z,false,false,0.0-2.0-0.50-0.455-3.455,1,1,0,81,false,stim,true,0,406,2,0,2,80508,task3,1118620,false,false,1444,image-keyboard-response,5
true,23,1,2,1,true,z,false,true,0.0-2.0-0.50-0.456-3.456,1,1,0,90,false,stim,false,0,596,2,0,2,80508,task3,1120721,false,false,1447,image-keyboard-response,6
true,23,2,2,2,true,d,false,true,0.0-2.0-0.50-0.457-3.457,1,1,0,68,false,stim,false,2,556,2,1,1,80508,task3,1122784,false,false,1450,image-keyboard-response,7
true,23,1,2,1,true,z,false,true,0.0-2.0-0.50-0.458-3.458,1,1,0,90,false,stim,false,1,827,2,1,0,80508,task3,1125120,false,false,1453,image-keyboard-response,8
true,23,2,2,2,true,d,false,false,0.0-2.0-0.51-0.459-3.459,1,1,0,68,false,stim,false,2,1034,2,1,1,80508,task3,1127660,false,true,1456,image-keyboard-response,9
true,23,1,2,1,true,z,false,true,0.0-2.0-0.51-0.460-3.460,1,1,0,90,false,stim,false,0,550,2,0,2,80508,task3,1129717,false,false,1459,image-keyboard-response,10
true,23,2,2,2,true,d,false,true,0.0-2.0-0.51-0.461-3.461,1,1,0,68,false,stim,false,2,498,2,1,1,80508,task3,1131717,false,false,1462,image-keyboard-response,11
true,23,1,2,1,true,z,false,true,0.0-2.0-0.51-0.462-3.462,1,1,0,90,false,stim,false,0,869,2,0,2,80508,task3,1134098,false,false,1465,image-keyboard-response,12
true,23,2,2,2,true,d,false,true,0.0-2.0-0.51-0.463-3.463,1,1,0,68,false,stim,false,2,718,2,1,1,80508,task3,1136320,false,false,1468,image-keyboard-response,13
true,23,1,2,1,true,z,false,true,0.0-2.0-0.51-0.464-3.464,1,1,0,90,false,stim,false,0,1182,2,0,2,80508,task3,1139007,false,false,1471,image-keyboard-response,14
true,23,1,2,1,true,z,false,true,0.0-2.0-0.51-0.465-3.465,1,1,0,90,false,stim,false,1,1154,2,1,0,80508,task3,1141670,false,false,1474,image-keyboard-response,15
true,23,1,2,1,true,z,false,true,0.0-2.0-0.51-0.466-3.466,1,1,0,90,false,stim,false,1,757,2,1,0,80508,task3,1143935,false,false,1477,image-keyboard-response,16
true,23,1,2,1,true,z,false,true,0.0-2.0-0.51-0.467-3.467,1,1,0,90,false,stim,false,1,451,2,1,0,80508,task3,1145890,false,false,1480,image-keyboard-response,17
true,23,1,2,1,true,z,false,true,0.0-2.0-0.52-0.468-3.468,1,1,0,90,false,stim,false,0,1246,2,0,2,80508,task3,1148642,false,false,1483,image-keyboard-response,18
true,23,1,2,1,true,z,false,true,0.0-2.0-0.52-0.469-3.469,1,1,0,90,false,stim,false,1,769,2,1,0,80508,task3,1150917,false,false,1486,image-keyboard-response,19
true,23,1,2,1,true,z,false,true,0.0-2.0-0.52-0.470-3.470,1,1,0,90,false,stim,false,0,989,2,0,2,80508,task3,1153415,false,false,1489,image-keyboard-response,20
true,23,2,2,2,true,d,false,true,0.0-2.0-0.52-0.471-3.471,1,1,0,68,false,stim,false,2,579,2,1,1,80508,task3,1155498,false,false,1492,image-keyboard-response,21
true,23,1,2,1,true,z,false,true,0.0-2.0-0.52-0.472-3.472,1,1,0,90,false,stim,false,1,558,2,1,0,80508,task3,1157563,false,false,1495,image-keyboard-response,22
true,23,2,2,2,true,d,false,true,0.0-2.0-0.52-0.473-3.473,1,1,0,68,false,stim,false,2,902,2,1,1,80508,task3,1159973,false,false,1498,image-keyboard-response,23
true,23,1,2,1,true,z,false,true,0.0-2.0-0.52-0.474-3.474,1,1,0,90,false,stim,false,1,664,2,1,0,80508,task3,1162147,false,false,1501,image-keyboard-response,24
true,23,2,2,2,true,d,false,false,0.0-2.0-0.52-0.475-3.475,1,1,0,68,false,stim,false,2,1870,2,1,1,80508,task3,1165525,false,true,1504,image-keyboard-response,25
true,23,1,2,1,true,z,false,true,0.0-2.0-0.52-0.476-3.476,1,1,0,90,false,stim,false,0,1046,2,0,2,80508,task3,1168077,false,false,1507,image-keyboard-response,26
true,24,2,2,2,true,d,false,true,0.0-2.0-0.53-0.477-3.477,1,1,0,68,true,stim,false,2,606,2,1,1,80508,task3,1170188,false,false,1510,image-keyboard-response,1
true,24,2,2,2,true,d,false,true,0.0-2.0-0.53-0.478-3.478,1,1,0,68,false,stim,false,2,2070,2,1,1,80508,task3,1173768,false,false,1513,image-keyboard-response,2
true,24,1,2,2,false,d,false,false,0.0-2.0-0.53-0.479-3.479,1,1,0,90,false,stim,true,1,1116,2,0,2,80508,task3,1176390,false,false,1516,image-keyboard-response,3
true,24,1,2,2,false,d,false,true,0.0-2.0-0.53-0.480-3.480,1,1,0,90,false,stim,true,1,547,2,0,2,80508,task3,1178448,false,true,1519,image-keyboard-response,4
true,24,1,2,1,true,z,false,true,0.0-2.0-0.53-0.481-3.481,1,1,0,90,false,stim,false,1,470,2,1,0,80508,task3,1180423,false,false,1522,image-keyboard-response,5
true,24,1,2,2,false,d,false,false,0.0-2.0-0.53-0.482-3.482,1,1,0,90,false,stim,true,1,609,2,0,2,80508,task3,1182538,false,false,1525,image-keyboard-response,6
true,24,2,2,2,true,d,false,true,0.0-2.0-0.53-0.483-3.483,1,1,0,68,false,stim,false,2,665,2,0,1,80508,task3,1184711,false,false,1528,image-keyboard-response,7
true,24,1,2,1,true,z,false,true,0.0-2.0-0.53-0.484-3.484,1,1,0,90,false,stim,false,1,1019,2,1,0,80508,task3,1187238,false,false,1531,image-keyboard-response,8
true,24,1,2,1,true,z,false,true,0.0-2.0-0.53-0.485-3.485,1,1,0,90,false,stim,false,1,626,2,1,0,80508,task3,1189371,false,false,1534,image-keyboard-response,9
true,24,1,2,2,false,d,false,false,0.0-2.0-0.54-0.486-3.486,1,1,0,90,false,stim,true,1,751,2,1,2,80508,task3,1191630,false,false,1537,image-keyboard-response,10
true,24,2,2,2,true,d,false,true,0.0-2.0-0.54-0.487-3.487,1,1,0,68,false,stim,false,2,1673,2,0,1,80508,task3,1194807,false,false,1540,image-keyboard-response,11
true,25,1,2,2,false,d,true,false,0.0-2.0-0.54-0.488-3.488,1,0,1,90,true,stim,false,2,2199,2,1,2,80508,task3,1198512,false,false,1543,image-keyboard-response,1
true,25,2,2,0,false,q,false,false,0.0-2.0-0.54-0.489-3.489,1,0,1,68,false,stim,true,2,2562,2,0,1,80508,task3,1202580,false,false,1546,image-keyboard-response,2
true,25,1,2,1,true,z,false,true,0.0-2.0-0.54-0.490-3.490,1,0,1,90,false,stim,false,1,766,2,1,0,80508,task3,1204854,false,false,1549,image-keyboard-response,3
true,25,1,2,2,false,d,true,false,0.0-2.0-0.54-0.491-3.491,1,0,1,90,false,stim,false,2,1196,2,1,2,80508,task3,1207556,false,false,1552,image-keyboard-response,4
true,25,1,2,1,true,z,false,true,0.0-2.0-0.54-0.492-3.492,1,0,1,90,false,stim,false,1,758,2,1,0,80508,task3,1209819,false,false,1555,image-keyboard-response,5
true,25,1,2,1,true,z,false,true,0.0-2.0-0.54-0.493-3.493,1,0,1,90,false,stim,false,1,519,2,1,0,80508,task3,1211843,false,false,1558,image-keyboard-response,6
true,25,2,2,0,false,q,false,true,0.0-2.0-0.54-0.494-3.494,1,0,1,68,false,stim,true,2,958,2,0,1,80508,task3,1214309,false,true,1561,image-keyboard-response,7
true,25,2,2,2,true,d,false,true,0.0-2.0-0.55-0.495-3.495,1,0,1,68,false,stim,false,2,375,2,1,2,80508,task3,1216188,false,false,1564,image-keyboard-response,8
true,25,2,2,0,false,q,false,false,0.0-2.0-0.55-0.496-3.496,1,0,1,68,false,stim,true,2,696,2,1,1,80508,task3,1218392,false,false,1567,image-keyboard-response,9
true,25,2,2,0,false,q,false,false,0.0-2.0-0.55-0.497-3.497,1,0,1,68,false,stim,true,2,579,2,1,1,80508,task3,1220475,false,false,1570,image-keyboard-response,10
true,25,2,2,2,true,d,false,true,0.0-2.0-0.55-0.498-3.498,1,0,1,68,false,stim,false,2,501,2,1,2,80508,task3,1222485,false,false,1573,image-keyboard-response,11
true,25,1,2,1,true,z,false,true,0.0-2.0-0.55-0.499-3.499,1,0,1,90,false,stim,false,1,642,2,1,0,80508,task3,1224638,false,false,1576,image-keyboard-response,12
true,25,0,2,0,true,q,false,true,0.0-2.0-0.55-0.500-3.500,1,0,1,81,false,stim,false,2,585,2,1,1,80508,task3,1226730,false,false,1579,image-keyboard-response,13
false,26,-1,0,1,false,z,true,true,0.0-2.0-0.55-0.501-3.501,1,1,1,,true,stim,false,1,,2,1,0,80508,task3,1351602,false,true,1702,image-keyboard-response,1
false,26,-1,0,1,false,z,true,false,0.0-2.0-0.55-0.502-3.502,1,1,1,,false,stim,false,1,,2,1,0,80508,task3,1356110,false,false,1705,image-keyboard-response,2
false,26,-1,0,2,false,d,true,false,0.0-2.0-0.55-0.503-3.503,1,1,1,,false,stim,false,2,,2,1,2,80508,task3,1360623,false,false,1708,image-keyboard-response,3
false,26,-1,0,0,false,q,true,false,0.0-2.0-0.56-0.504-3.504,1,1,1,,false,stim,false,0,,2,1,1,80508,task3,1365132,false,false,1711,image-keyboard-response,4
false,26,-1,0,0,false,q,true,false,0.0-2.0-0.56-0.505-3.505,1,1,1,,false,stim,false,0,,2,1,1,80508,task3,1369641,false,false,1714,image-keyboard-response,5
true,26,0,0,1,false,z,true,false,0.0-2.0-0.56-0.506-3.506,1,1,1,81,false,stim,false,1,1441,2,1,0,80508,task3,1398205,false,false,1718,image-keyboard-response,6
true,26,0,0,2,false,d,true,false,0.0-2.0-0.56-0.507-3.507,1,1,1,81,false,stim,false,2,655,2,1,2,80508,task3,1400366,false,false,1721,image-keyboard-response,7
true,26,0,0,1,false,z,true,false,0.0-2.0-0.56-0.508-3.508,1,1,1,81,false,stim,false,1,806,2,1,0,80508,task3,1402677,false,false,1724,image-keyboard-response,8
true,26,1,0,2,false,d,true,false,0.0-2.0-0.56-0.509-3.509,1,1,1,90,false,stim,false,2,1466,2,1,2,80508,task3,1405648,false,false,1727,image-keyboard-response,9
true,26,2,0,2,true,d,false,true,0.0-2.0-0.56-0.510-3.510,1,1,1,68,false,stim,false,2,690,2,1,2,80508,task3,1407844,false,false,1730,image-keyboard-response,10
true,26,0,0,0,true,q,false,true,0.0-2.0-0.56-0.511-3.511,1,1,1,81,false,stim,false,0,998,2,0,1,80508,task3,1410349,false,false,1733,image-keyboard-response,11
true,26,1,0,1,true,z,false,true,0.0-2.0-0.56-0.512-3.512,1,1,1,90,false,stim,false,1,1793,2,1,0,80508,task3,1413645,false,false,1736,image-keyboard-response,12
true,27,1,2,1,true,z,false,true,0.0-2.0-0.57-0.513-3.513,1,0,1,90,true,stim,false,1,462,2,1,0,80508,task3,1415617,false,false,1739,image-keyboard-response,1
true,27,1,2,1,true,z,false,true,0.0-2.0-0.57-0.514-3.514,1,0,1,90,false,stim,false,1,398,2,1,0,80508,task3,1417524,false,false,1742,image-keyboard-response,2
true,27,1,2,1,true,z,false,true,0.0-2.0-0.57-0.515-3.515,1,0,1,90,false,stim,false,1,380,2,1,0,80508,task3,1419415,false,false,1745,image-keyboard-response,3
true,27,2,2,2,true,d,false,false,0.0-2.0-0.57-0.516-3.516,1,0,1,68,false,stim,false,2,984,2,1,2,80508,task3,1421908,false,true,1748,image-keyboard-response,4
true,27,0,2,1,false,z,false,false,0.0-2.0-0.57-0.517-3.517,1,0,1,81,false,stim,true,0,1191,2,0,1,80508,task3,1424607,false,false,1751,image-keyboard-response,5
true,27,2,2,2,true,d,false,true,0.0-2.0-0.57-0.518-3.518,1,0,1,68,false,stim,false,2,896,2,1,2,80508,task3,1427010,false,false,1754,image-keyboard-response,6
true,27,2,2,2,true,d,false,true,0.0-2.0-0.57-0.519-3.519,1,0,1,68,false,stim,false,2,654,2,1,2,80508,task3,1429172,false,false,1757,image-keyboard-response,7
true,27,0,2,1,false,z,false,false,0.0-2.0-0.57-0.520-3.520,1,0,1,81,false,stim,true,0,924,2,0,1,80508,task3,1431605,false,false,1760,image-keyboard-response,8
true,27,1,2,1,true,z,false,true,0.0-2.0-0.57-0.521-3.521,1,0,1,90,false,stim,false,0,1381,2,0,1,80508,task3,1434493,false,false,1763,image-keyboard-response,9
true,27,1,2,1,true,z,false,true,0.0-2.0-0.58-0.522-3.522,1,0,1,90,false,stim,false,1,705,2,1,0,80508,task3,1436706,false,false,1766,image-keyboard-response,10
true,27,1,2,1,true,z,false,false,0.0-2.0-0.58-0.523-3.523,1,0,1,90,false,stim,false,0,497,2,1,1,80508,task3,1438711,false,true,1769,image-keyboard-response,11
true,27,1,2,1,true,z,false,true,0.0-2.0-0.58-0.524-3.524,1,0,1,90,false,stim,false,1,732,2,1,0,80508,task3,1440955,false,false,1772,image-keyboard-response,12
true,27,1,2,1,true,z,false,true,0.0-2.0-0.58-0.525-3.525,1,0,1,90,false,stim,false,1,539,2,1,0,80508,task3,1442998,false,false,1775,image-keyboard-response,13
true,27,2,2,1,false,z,true,false,0.0-2.0-0.58-0.526-3.526,1,0,1,68,false,stim,false,0,931,2,1,1,80508,task3,1445435,false,false,1778,image-keyboard-response,14
true,27,2,2,2,true,d,false,true,0.0-2.0-0.58-0.527-3.527,1,0,1,68,false,stim,false,2,524,2,0,2,80508,task3,1447464,false,false,1781,image-keyboard-response,15
true,28,2,2,0,false,q,false,false,0.0-2.0-0.58-0.528-3.528,1,1,0,68,true,stim,true,2,656,2,0,2,80508,task3,1449626,false,false,1784,image-keyboard-response,1
true,28,0,2,1,false,z,true,false,0.0-2.0-0.58-0.529-3.529,1,1,0,81,false,stim,false,1,843,2,1,1,80508,task3,1451981,false,false,1787,image-keyboard-response,2
true,28,2,2,0,false,q,false,false,0.0-2.0-0.58-0.530-3.530,1,1,0,68,false,stim,true,2,972,2,0,2,80508,task3,1454458,false,false,1790,image-keyboard-response,3
true,28,1,2,1,true,z,false,true,0.0-2.0-0.59-0.531-3.531,1,1,0,90,false,stim,false,1,519,2,1,0,80508,task3,1456485,false,false,1793,image-keyboard-response,4
true,28,1,2,1,true,z,false,true,0.0-2.0-0.59-0.532-3.532,1,1,0,90,false,stim,false,1,600,2,1,0,80508,task3,1458595,false,false,1796,image-keyboard-response,5
true,28,1,2,1,true,z,false,true,0.0-2.0-0.59-0.533-3.533,1,1,0,90,false,stim,false,1,375,2,1,0,80508,task3,1460476,false,false,1799,image-keyboard-response,6
true,28,0,2,0,true,q,false,true,0.0-2.0-0.59-0.534-3.534,1,1,0,81,false,stim,false,2,1126,2,0,2,80508,task3,1463116,false,false,1802,image-keyboard-response,7
true,28,1,2,1,true,z,false,true,0.0-2.0-0.59-0.535-3.535,1,1,0,90,false,stim,false,1,2195,2,1,1,80508,task3,1466816,false,false,1805,image-keyboard-response,8
true,28,0,2,0,true,q,false,true,0.0-2.0-0.59-0.536-3.536,1,1,0,81,false,stim,false,2,1077,2,0,2,80508,task3,1469406,false,false,1808,image-keyboard-response,9
true,28,1,2,1,true,z,false,true,0.0-2.0-0.59-0.537-3.537,1,1,0,90,false,stim,false,1,534,2,1,1,80508,task3,1471449,false,false,1811,image-keyboard-response,10
true,28,1,2,1,true,z,false,true,0.0-2.0-0.59-0.538-3.538,1,1,0,90,false,stim,false,1,396,2,1,1,80508,task3,1473350,false,false,1814,image-keyboard-response,11
true,28,0,2,0,true,q,false,true,0.0-2.0-0.59-0.539-3.539,1,1,0,81,false,stim,false,2,768,2,1,2,80508,task3,1475627,false,false,1817,image-keyboard-response,12
true,28,0,2,0,true,q,false,false,0.0-2.0-0.60-0.540-3.540,1,1,0,81,false,stim,false,2,603,2,1,2,80508,task3,1477739,false,true,1820,image-keyboard-response,13
true,28,1,2,1,true,z,false,true,0.0-2.0-0.60-0.541-3.541,1,1,0,90,false,stim,false,1,647,2,0,0,80508,task3,1479899,false,false,1823,image-keyboard-response,14
true,28,0,2,0,true,q,false,true,0.0-2.0-0.60-0.542-3.542,1,1,0,81,false,stim,false,2,920,2,1,2,80508,task3,1482328,false,false,1826,image-keyboard-response,15
true,29,1,2,1,true,z,false,true,0.0-2.0-0.60-0.543-3.543,0,1,1,90,true,stim,false,1,387,2,1,1,80508,task3,1484226,false,false,1829,image-keyboard-response,1
true,29,0,2,0,true,q,false,true,0.0-2.0-0.60-0.544-3.544,0,1,1,81,false,stim,false,0,614,2,1,2,80508,task3,1486348,false,false,1832,image-keyboard-response,2
true,29,1,2,0,false,q,false,false,0.0-2.0-0.60-0.545-3.545,0,1,1,90,false,stim,true,1,496,2,0,0,80508,task3,1488353,false,false,1835,image-keyboard-response,3
true,29,0,2,1,false,z,true,false,0.0-2.0-0.60-0.546-3.546,0,1,1,81,false,stim,false,1,563,2,1,1,80508,task3,1490422,false,false,1838,image-keyboard-response,4
true,29,1,2,1,true,z,false,true,0.0-2.0-0.60-0.547-3.547,0,1,1,90,false,stim,false,1,692,2,1,1,80508,task3,1492619,false,false,1841,image-keyboard-response,5
true,29,1,2,0,false,q,false,false,0.0-2.0-0.60-0.548-3.548,0,1,1,90,false,stim,true,1,1012,2,0,0,80508,task3,1495138,false,false,1844,image-keyboard-response,6
true,29,1,2,1,true,z,false,true,0.0-2.0-0.61-0.549-3.549,0,1,1,90,false,stim,false,1,618,2,1,1,80508,task3,1497271,false,false,1847,image-keyboard-response,7
true,29,0,2,0,true,q,false,true,0.0-2.0-0.61-0.550-3.550,0,1,1,81,false,stim,false,0,631,2,0,2,80508,task3,1499408,false,false,1850,image-keyboard-response,8
true,29,2,2,0,false,q,true,false,0.0-2.0-0.61-0.551-3.551,0,1,1,68,false,stim,false,1,355,2,1,0,80508,task3,1501270,false,false,1853,image-keyboard-response,9
true,29,0,2,0,true,q,false,false,0.0-2.0-0.61-0.552-3.552,0,1,1,81,false,stim,false,1,469,2,1,0,80508,task3,1503247,false,true,1856,image-keyboard-response,10
true,29,1,2,0,false,q,false,false,0.0-2.0-0.61-0.553-3.553,0,1,1,90,false,stim,true,1,376,2,1,0,80508,task3,1505133,false,false,1859,image-keyboard-response,11
true,29,1,2,1,true,z,false,true,0.0-2.0-0.61-0.554-3.554,0,1,1,90,false,stim,false,1,842,2,0,1,80508,task3,1507487,false,false,1862,image-keyboard-response,12
true,30,1,1,2,false,d,true,false,0.0-2.0-0.61-0.555-3.555,1,0,0,90,true,stim,false,0,387,2,0,2,80508,task3,1509381,false,false,1865,image-keyboard-response,1
true,30,1,1,2,false,d,false,true,0.0-2.0-0.61-0.556-3.556,1,0,0,90,false,stim,true,1,658,2,0,1,80508,task3,1511546,false,true,1868,image-keyboard-response,2
true,30,0,1,2,false,d,false,false,0.0-2.0-0.61-0.557-3.557,1,0,0,81,false,stim,true,0,573,2,0,2,80508,task3,1513631,false,false,1871,image-keyboard-response,3
true,30,0,1,2,false,d,false,false,0.0-2.0-0.62-0.558-3.558,1,0,0,81,false,stim,true,0,473,2,0,2,80508,task3,1515613,false,false,1874,image-keyboard-response,4
true,30,2,1,2,true,d,false,true,0.0-2.0-0.62-0.559-3.559,1,0,0,68,false,stim,false,0,559,2,0,2,80508,task3,1517679,false,false,1877,image-keyboard-response,5
true,30,1,1,2,false,d,false,false,0.0-2.0-0.62-0.560-3.560,1,0,0,90,false,stim,true,1,660,2,0,1,80508,task3,1519848,false,false,1880,image-keyboard-response,6
true,30,1,1,2,false,d,false,true,0.0-2.0-0.62-0.561-3.561,1,0,0,90,false,stim,true,1,485,2,0,1,80508,task3,1521841,false,true,1883,image-keyboard-response,7
true,30,1,1,2,false,d,false,false,0.0-2.0-0.62-0.562-3.562,1,0,0,90,false,stim,true,1,446,2,0,1,80508,task3,1523794,false,false,1886,image-keyboard-response,8
true,30,0,1,0,true,q,false,true,0.0-2.0-0.62-0.563-3.563,1,0,0,81,false,stim,false,0,1419,2,1,0,80508,task3,1526721,false,false,1889,image-keyboard-response,9
true,30,2,1,2,true,d,false,true,0.0-2.0-0.62-0.564-3.564,1,0,0,68,false,stim,false,0,539,2,0,2,80508,task3,1528772,false,false,1892,image-keyboard-response,10
true,30,0,1,0,true,q,false,true,0.0-2.0-0.62-0.565-3.565,1,0,0,81,false,stim,false,0,713,2,1,0,80508,task3,1530990,false,false,1895,image-keyboard-response,11
true,30,0,1,0,true,q,false,true,0.0-2.0-0.62-0.566-3.566,1,0,0,81,false,stim,false,0,678,2,1,0,80508,task3,1533175,false,false,1898,image-keyboard-response,12
true,30,0,1,0,true,q,false,true,0.0-2.0-0.63-0.567-3.567,1,0,0,81,false,stim,false,0,497,2,1,0,80508,task3,1535190,false,false,1901,image-keyboard-response,13
true,30,1,1,2,false,d,false,false,0.0-2.0-0.63-0.568-3.568,1,0,0,90,false,stim,true,1,568,2,0,1,80508,task3,1537262,false,false,1904,image-keyboard-response,14
true,30,2,1,2,true,d,false,true,0.0-2.0-0.63-0.569-3.569,1,0,0,68,false,stim,false,1,979,2,0,1,80508,task3,1539745,false,false,1907,image-keyboard-response,15
true,30,2,1,2,true,d,false,true,0.0-2.0-0.63-0.570-3.570,1,0,0,68,false,stim,false,0,923,2,0,2,80508,task3,1542180,false,false,1910,image-keyboard-response,16
true,30,2,1,2,true,d,false,true,0.0-2.0-0.63-0.571-3.571,1,0,0,68,false,stim,false,0,731,2,0,2,80508,task3,1544420,false,false,1913,image-keyboard-response,17
true,30,2,1,2,true,d,false,true,0.0-2.0-0.63-0.572-3.572,1,0,0,68,false,stim,false,0,541,2,0,2,80508,task3,1546468,false,false,1916,image-keyboard-response,18
true,30,2,1,2,true,d,false,true,0.0-2.0-0.63-0.573-3.573,1,0,0,68,false,stim,false,1,822,2,0,1,80508,task3,1548800,false,false,1919,image-keyboard-response,19
true,30,0,1,0,true,q,false,false,0.0-2.0-0.63-0.574-3.574,1,0,0,81,false,stim,false,0,514,2,1,0,80508,task3,1550824,false,true,1922,image-keyboard-response,20
true,30,1,1,0,false,q,true,false,0.0-2.0-0.63-0.575-3.575,1,0,0,90,false,stim,false,0,895,2,1,0,80508,task3,1553227,false,false,1925,image-keyboard-response,21
true,30,2,1,2,true,d,false,true,0.0-2.0-0.64-0.576-3.576,1,0,0,68,false,stim,false,1,620,2,0,1,80508,task3,1555355,false,false,1928,image-keyboard-response,22
true,30,0,1,0,true,q,false,true,0.0-2.0-0.64-0.577-3.577,1,0,0,81,false,stim,false,0,602,2,1,0,80508,task3,1557463,false,false,1931,image-keyboard-response,23
true,30,2,1,2,true,d,false,true,0.0-2.0-0.64-0.578-3.578,1,0,0,68,false,stim,false,0,667,2,1,2,80508,task3,1559641,false,false,1934,image-keyboard-response,24
true,30,2,1,2,true,d,false,true,0.0-2.0-0.64-0.579-3.579,1,0,0,68,false,stim,false,1,501,2,0,1,80508,task3,1561651,false,false,1937,image-keyboard-response,25
true,30,2,1,2,true,d,false,true,0.0-2.0-0.64-0.580-3.580,1,0,0,68,false,stim,false,0,547,2,1,2,80508,task3,1563709,false,false,1940,image-keyboard-response,26
true,30,2,1,2,true,d,false,true,0.0-2.0-0.64-0.581-3.581,1,0,0,68,false,stim,false,0,683,2,1,2,80508,task3,1565898,false,false,1943,image-keyboard-response,27
true,31,0,2,0,true,q,false,true,0.0-2.0-0.64-0.582-3.582,1,0,1,81,true,stim,false,0,837,2,1,0,80508,task3,1568244,false,false,1946,image-keyboard-response,1
true,31,2,2,0,false,q,false,false,0.0-2.0-0.64-0.583-3.583,1,0,1,68,false,stim,true,2,604,2,0,1,80508,task3,1570355,false,false,1949,image-keyboard-response,2
true,31,0,2,0,true,q,false,true,0.0-2.0-0.64-0.584-3.584,1,0,1,81,false,stim,false,0,955,2,1,0,80508,task3,1572816,false,false,1952,image-keyboard-response,3
true,31,0,2,0,true,q,false,true,0.0-2.0-0.65-0.585-3.585,1,0,1,81,false,stim,false,0,646,2,1,0,80508,task3,1574974,false,false,1955,image-keyboard-response,4
true,31,2,2,2,true,d,false,true,0.0-2.0-0.65-0.586-3.586,1,0,1,68,false,stim,false,2,519,2,1,2,80508,task3,1577000,false,false,1958,image-keyboard-response,5
true,31,2,2,2,true,d,false,true,0.0-2.0-0.65-0.587-3.587,1,0,1,68,false,stim,false,2,521,2,1,2,80508,task3,1579029,false,false,1961,image-keyboard-response,6
true,31,0,2,0,true,q,false,true,0.0-2.0-0.65-0.588-3.588,1,0,1,81,false,stim,false,0,780,2,1,0,80508,task3,1581318,false,false,1964,image-keyboard-response,7
true,31,2,2,0,false,q,false,false,0.0-2.0-0.65-0.589-3.589,1,0,1,68,false,stim,true,2,859,2,0,1,80508,task3,1583685,false,false,1967,image-keyboard-response,8
true,31,2,2,2,true,d,false,true,0.0-2.0-0.65-0.590-3.590,1,0,1,68,false,stim,false,2,596,2,0,2,80508,task3,1585790,false,false,1970,image-keyboard-response,9
true,31,0,2,0,true,q,false,true,0.0-2.0-0.65-0.591-3.591,1,0,1,81,false,stim,false,0,673,2,1,0,80508,task3,1587972,false,false,1973,image-keyboard-response,10
true,31,0,2,0,true,q,false,true,0.0-2.0-0.65-0.592-3.592,1,0,1,81,false,stim,false,2,916,2,1,1,80508,task3,1590398,false,false,1976,image-keyboard-response,11
true,31,0,2,0,true,q,false,true,0.0-2.0-0.65-0.593-3.593,1,0,1,81,false,stim,false,2,659,2,1,1,80508,task3,1592563,false,false,1979,image-keyboard-response,12
true,31,0,2,0,true,q,false,true,0.0-2.0-0.66-0.594-3.594,1,0,1,81,false,stim,false,2,630,2,1,1,80508,task3,1594699,false,false,1982,image-keyboard-response,13
true,32,0,2,0,true,q,false,true,0.0-2.0-0.66-0.595-3.595,1,1,0,81,true,stim,false,0,467,2,1,1,80508,task3,1596674,false,false,1985,image-keyboard-response,1
true,32,2,2,1,false,z,false,false,0.0-2.0-0.66-0.596-3.596,1,1,0,68,false,stim,true,2,552,2,0,2,80508,task3,1598736,false,false,1988,image-keyboard-response,2
true,32,0,2,0,true,q,false,true,0.0-2.0-0.66-0.597-3.597,1,1,0,81,false,stim,false,0,460,2,1,0,80508,task3,1600703,false,false,1991,image-keyboard-response,3
true,32,2,2,1,false,z,false,false,0.0-2.0-0.66-0.598-3.598,1,1,0,68,false,stim,true,2,449,2,0,2,80508,task3,1602663,false,false,1994,image-keyboard-response,4
true,32,0,2,0,true,q,false,true,0.0-2.0-0.66-0.599-3.599,1,1,0,81,false,stim,false,0,434,2,1,0,80508,task3,1604606,false,false,1997,image-keyboard-response,5
true,32,0,2,0,true,q,false,true,0.0-2.0-0.66-0.600-3.600,1,1,0,81,false,stim,false,0,507,2,1,1,80508,task3,1606619,false,false,2000,image-keyboard-response,6
true,32,0,2,0,true,q,false,true,0.0-2.0-0.66-0.601-3.601,1,1,0,81,false,stim,false,0,504,2,1,0,80508,task3,1608640,false,false,2003,image-keyboard-response,7
true,32,0,2,1,false,z,true,false,0.0-2.0-0.66-0.602-3.602,1,1,0,81,false,stim,false,2,500,2,0,2,80508,task3,1610649,false,false,2006,image-keyboard-response,8
true,32,0,2,0,true,q,false,true,0.0-2.0-0.67-0.603-3.603,1,1,0,81,false,stim,false,0,413,2,1,0,80508,task3,1612571,false,false,2009,image-keyboard-response,9
true,32,0,2,0,true,q,false,true,0.0-2.0-0.67-0.604-3.604,1,1,0,81,false,stim,false,0,461,2,1,1,80508,task3,1614540,false,false,2012,image-keyboard-response,10
true,32,0,2,0,true,q,false,true,0.0-2.0-0.67-0.605-3.605,1,1,0,81,false,stim,false,0,550,2,1,0,80508,task3,1616598,false,false,2015,image-keyboard-response,11
true,32,1,2,1,true,z,false,true,0.0-2.0-0.67-0.606-3.606,1,1,0,90,false,stim,false,2,561,2,0,2,80508,task3,1618669,false,false,2018,image-keyboard-response,12
true,32,1,2,1,true,z,false,true,0.0-2.0-0.67-0.607-3.607,1,1,0,90,false,stim,false,2,637,2,0,2,80508,task3,1620815,false,false,2021,image-keyboard-response,13
true,32,0,2,0,true,q,false,true,0.0-2.0-0.67-0.608-3.608,1,1,0,81,false,stim,false,0,516,2,1,1,80508,task3,1622838,false,false,2024,image-keyboard-response,14
true,32,1,2,1,true,z,false,true,0.0-2.0-0.67-0.609-3.609,1,1,0,90,false,stim,false,2,454,2,0,2,80508,task3,1624803,false,false,2027,image-keyboard-response,15
true,32,0,2,0,true,q,false,true,0.0-2.0-0.67-0.610-3.610,1,1,0,81,false,stim,false,0,965,2,1,1,80508,task3,1627273,false,false,2030,image-keyboard-response,16
true,32,0,2,0,true,q,false,true,0.0-2.0-0.67-0.611-3.611,1,1,0,81,false,stim,false,0,1072,2,1,0,80508,task3,1629850,false,false,2033,image-keyboard-response,17
true,32,1,2,1,true,z,false,true,0.0-2.0-0.68-0.612-3.612,1,1,0,90,false,stim,false,2,498,2,0,2,80508,task3,1631857,false,false,2036,image-keyboard-response,18
true,32,0,2,0,true,q,false,true,0.0-2.0-0.68-0.613-3.613,1,1,0,81,false,stim,false,0,1300,2,1,1,80508,task3,1634666,false,false,2039,image-keyboard-response,19
true,32,0,2,0,true,q,false,true,0.0-2.0-0.68-0.614-3.614,1,1,0,81,false,stim,false,0,830,2,1,1,80508,task3,1637004,false,false,2042,image-keyboard-response,20
true,32,0,2,0,true,q,false,false,0.0-2.0-0.68-0.615-3.615,1,1,0,81,false,stim,false,0,579,2,1,1,80508,task3,1639091,false,true,2045,image-keyboard-response,21
true,32,0,2,0,true,q,false,true,0.0-2.0-0.68-0.616-3.616,1,1,0,81,false,stim,false,0,810,2,0,0,80508,task3,1641408,false,false,2048,image-keyboard-response,22
true,32,1,2,1,true,z,false,true,0.0-2.0-0.68-0.617-3.617,1,1,0,90,false,stim,false,2,1265,2,0,2,80508,task3,1644182,false,false,2051,image-keyboard-response,23
true,32,1,2,1,true,z,false,false,0.0-2.0-0.68-0.618-3.618,1,1,0,90,false,stim,false,2,764,2,0,2,80508,task3,1646452,false,true,2054,image-keyboard-response,24
true,32,0,2,0,true,q,false,true,0.0-2.0-0.68-0.619-3.619,1,1,0,81,false,stim,false,0,581,2,0,0,80508,task3,1648542,false,false,2057,image-keyboard-response,25
true,33,0,1,2,false,d,false,false,0.0-2.0-0.68-0.620-3.620,0,1,0,81,true,stim,true,0,553,2,0,0,80508,task3,1650603,false,false,2060,image-keyboard-response,1
true,33,1,1,0,false,q,false,false,0.0-2.0-0.69-0.621-3.621,0,1,0,90,false,stim,true,1,851,2,0,2,80508,task3,1652961,false,false,2063,image-keyboard-response,2
true,33,0,1,0,true,q,false,true,0.0-2.0-0.69-0.622-3.622,0,1,0,81,false,stim,false,0,705,2,1,1,80508,task3,1655170,false,false,2066,image-keyboard-response,3
true,33,2,1,0,false,q,true,false,0.0-2.0-0.69-0.623-3.623,0,1,0,68,false,stim,false,1,721,2,0,2,80508,task3,1657397,false,false,2069,image-keyboard-response,4
true,33,2,1,0,false,q,true,false,0.0-2.0-0.69-0.624-3.624,0,1,0,68,false,stim,false,1,1037,2,0,2,80508,task3,1659943,false,false,2072,image-keyboard-response,5
true,33,0,1,0,true,q,false,true,0.0-2.0-0.69-0.625-3.625,0,1,0,81,false,stim,false,0,672,2,1,1,80508,task3,1662121,false,false,2075,image-keyboard-response,6
true,33,0,1,2,false,d,false,false,0.0-2.0-0.69-0.626-3.626,0,1,0,81,false,stim,true,0,656,2,0,0,80508,task3,1664282,false,false,2078,image-keyboard-response,7
true,33,1,1,2,false,d,true,false,0.0-2.0-0.69-0.627-3.627,0,1,0,90,false,stim,false,0,757,2,0,0,80508,task3,1666550,false,false,2081,image-keyboard-response,8
true,33,0,1,0,true,q,false,true,0.0-2.0-0.69-0.628-3.628,0,1,0,81,false,stim,false,0,678,2,1,1,80508,task3,1668734,false,false,2084,image-keyboard-response,9
true,33,2,1,2,true,d,false,true,0.0-2.0-0.69-0.629-3.629,0,1,0,68,false,stim,false,0,600,2,0,0,80508,task3,1670841,false,false,2087,image-keyboard-response,10
true,33,0,1,0,true,q,false,true,0.0-2.0-0.70-0.630-3.630,0,1,0,81,false,stim,false,1,350,2,0,2,80508,task3,1672698,false,false,2090,image-keyboard-response,11
true,33,2,1,2,true,d,false,true,0.0-2.0-0.70-0.631-3.631,0,1,0,68,false,stim,false,0,700,2,0,0,80508,task3,1674908,false,false,2093,image-keyboard-response,12
true,33,0,1,0,true,q,false,true,0.0-2.0-0.70-0.632-3.632,0,1,0,81,false,stim,false,1,596,2,0,2,80508,task3,1677013,false,false,2096,image-keyboard-response,13
true,33,0,1,0,true,q,false,true,0.0-2.0-0.70-0.633-3.633,0,1,0,81,false,stim,false,1,593,2,0,2,80508,task3,1679114,false,false,2099,image-keyboard-response,14
true,33,0,1,0,true,q,false,true,0.0-2.0-0.70-0.634-3.634,0,1,0,81,false,stim,false,0,668,2,1,1,80508,task3,1681298,false,false,2102,image-keyboard-response,15
