answered,blockNum,choice,condition,corResp,correct,correct_response,explo,fb,internal_node_id,isStable_1,isStable_2,isStable_3,key_press,newBlock,part,persev,persevResp,rt,sessNum,stableAS,stimulus,subject,task,time_elapsed,training,trap,trial_index,trial_type,trialsInBlock
true,1,1,0,1,true,z,false,true,0.0-2.0-0.0-0.0-3.0,0,0,0,90,true,stim,false,-1,1380,0,0,1,85316,task2,206416,false,false,145,image-keyboard-response,1
true,1,0,0,0,true,q,false,true,0.0-2.0-0.0-0.1-3.1,0,0,0,81,false,stim,false,-1,1565,0,0,0,85316,task2,209503,false,false,148,image-keyboard-response,2
true,1,0,0,2,false,d,true,false,0.0-2.0-0.0-0.2-3.2,0,0,0,81,false,stim,false,-1,2271,0,0,2,85316,task2,213280,false,false,151,image-keyboard-response,3
true,1,2,0,2,true,d,false,true,0.0-2.0-0.0-0.3-3.3,0,0,0,68,false,stim,false,-1,691,0,0,2,85316,task2,215504,false,false,154,image-keyboard-response,4
true,1,0,0,0,true,q,false,true,0.0-2.0-0.0-0.4-3.4,0,0,0,81,false,stim,false,-1,1184,0,0,0,85316,task2,218200,false,false,157,image-keyboard-response,5
true,1,2,0,2,true,d,false,false,0.0-2.0-0.0-0.5-3.5,0,0,0,68,false,stim,false,-1,834,0,0,2,85316,task2,220568,false,true,160,image-keyboard-response,6
true,1,1,0,0,false,q,true,false,0.0-2.0-0.0-0.6-3.6,0,0,0,90,false,stim,false,-1,1904,0,0,0,85316,task2,223992,false,false,163,image-keyboard-response,7
true,1,1,0,1,true,z,false,true,0.0-2.0-0.0-0.7-3.7,0,0,0,90,false,stim,false,-1,1187,0,0,1,85316,task2,226695,false,false,166,image-keyboard-response,8
true,1,1,0,1,true,z,false,true,0.0-2.0-0.0-0.8-3.8,0,0,0,90,false,stim,false,-1,907,0,0,1,85316,task2,229136,false,false,169,image-keyboard-response,9
true,1,0,0,0,true,q,false,true,0.0-2.0-0.1-0.9-3.9,0,0,0,81,false,stim,false,-1,848,0,0,0,85316,task2,231495,false,false,172,image-keyboard-response,10
true,1,0,0,0,true,q,false,true,0.0-2.0-0.1-0.10-3.10,0,0,0,81,false,stim,false,-1,623,0,0,0,85316,task2,233640,false,false,175,image-keyboard-response,11
true,1,1,0,2,false,d,true,false,0.0-2.0-0.1-0.11-3.11,0,0,0,90,false,stim,false,-1,1758,0,0,2,85316,task2,236924,false,false,178,image-keyboard-response,12
true,1,0,0,2,false,d,true,false,0.0-2.0-0.1-0.12-3.12,0,0,0,81,false,stim,false,-1,920,0,0,2,85316,task2,239359,false,false,181,image-keyboard-response,13
true,1,0,0,1,false,z,true,false,0.0-2.0-0.1-0.13-3.13,0,0,0,81,false,stim,false,-1,2251,0,0,1,85316,task2,243142,false,false,184,image-keyboard-response,14
true,1,1,0,1,true,z,false,true,0.0-2.0-0.1-0.14-3.14,0,0,0,90,false,stim,false,-1,662,0,0,1,85316,task2,245341,false,false,187,image-keyboard-response,15
true,1,0,0,0,true,q,false,true,0.0-2.0-0.1-0.15-3.15,0,0,0,81,false,stim,false,-1,446,0,0,0,85316,task2,247295,false,false,190,image-keyboard-response,16
true,1,1,0,1,true,z,false,true,0.0-2.0-0.1-0.16-3.16,0,0,0,90,false,stim,false,-1,638,0,0,1,85316,task2,249454,false,false,193,image-keyboard-response,17
true,1,2,0,2,true,d,false,true,0.0-2.0-0.1-0.17-3.17,0,0,0,68,false,stim,false,-1,639,0,0,2,85316,task2,251623,false,false,196,image-keyboard-response,18
true,1,1,0,1,true,z,false,false,0.0-2.0-0.2-0.18-3.18,0,0,0,90,false,stim,false,-1,1461,0,0,1,85316,task2,254615,false,true,199,image-keyboard-response,19
true,1,0,0,0,true,q,false,true,0.0-2.0-0.2-0.19-3.19,0,0,0,81,false,stim,false,-1,1071,0,0,0,85316,task2,257215,false,false,202,image-keyboard-response,20
true,1,2,0,1,false,z,true,false,0.0-2.0-0.2-0.20-3.20,0,0,0,68,false,stim,false,-1,1103,0,0,1,85316,task2,259831,false,false,205,image-keyboard-response,21
true,1,2,0,2,true,d,false,true,0.0-2.0-0.2-0.21-3.21,0,0,0,68,false,stim,false,-1,1148,0,0,2,85316,task2,262512,false,false,208,image-keyboard-response,22
true,1,0,0,1,false,z,true,false,0.0-2.0-0.2-0.22-3.22,0,0,0,81,false,stim,false,-1,842,0,0,1,85316,task2,264873,false,false,211,image-keyboard-response,23
true,1,0,0,0,true,q,false,true,0.0-2.0-0.2-0.23-3.23,0,0,0,81,false,stim,false,-1,1189,0,0,0,85316,task2,267576,false,false,214,image-keyboard-response,24
true,1,1,0,0,false,q,true,false,0.0-2.0-0.2-0.24-3.24,0,0,0,90,false,stim,false,-1,901,0,0,0,85316,task2,270007,false,false,217,image-keyboard-response,25
true,1,2,0,2,true,d,false,true,0.0-2.0-0.2-0.25-3.25,0,0,0,68,false,stim,false,-1,1163,0,0,2,85316,task2,272704,false,false,220,image-keyboard-response,26
true,2,2,1,1,false,z,false,false,0.0-2.0-0.2-0.26-3.26,0,0,0,68,true,stim,true,2,458,0,0,2,85316,task2,274688,false,false,223,image-keyboard-response,1
true,2,2,1,0,false,q,true,false,0.0-2.0-0.3-0.27-3.27,0,0,0,68,false,stim,false,1,1898,0,0,1,85316,task2,278109,false,false,226,image-keyboard-response,2
true,2,1,1,1,true,z,false,true,0.0-2.0-0.3-0.28-3.28,0,0,0,90,false,stim,false,2,1670,0,0,2,85316,task2,281303,false,false,229,image-keyboard-response,3
true,2,1,1,1,true,z,false,true,0.0-2.0-0.3-0.29-3.29,0,0,0,90,false,stim,false,2,1130,0,0,2,85316,task2,283967,false,false,232,image-keyboard-response,4
true,2,0,1,0,true,q,false,true,0.0-2.0-0.3-0.30-3.30,0,0,0,81,false,stim,false,1,1683,0,0,1,85316,task2,287175,false,false,235,image-keyboard-response,5
true,2,0,1,0,true,q,false,true,0.0-2.0-0.3-0.31-3.31,0,0,0,81,false,stim,false,1,864,0,0,1,85316,task2,289576,false,false,238,image-keyboard-response,6
true,2,1,1,1,true,z,false,true,0.0-2.0-0.3-0.32-3.32,0,0,0,90,false,stim,false,2,671,0,0,2,85316,task2,291768,false,false,241,image-keyboard-response,7
true,2,1,1,1,true,z,false,true,0.0-2.0-0.3-0.33-3.33,0,0,0,90,false,stim,false,0,614,0,0,0,85316,task2,293894,false,false,244,image-keyboard-response,8
true,2,0,1,1,false,z,false,false,0.0-2.0-0.3-0.34-3.34,0,0,0,81,false,stim,true,0,703,0,0,0,85316,task2,296120,false,false,247,image-keyboard-response,9
true,2,1,1,1,true,z,false,true,0.0-2.0-0.3-0.35-3.35,0,0,0,90,false,stim,false,0,579,0,0,0,85316,task2,298233,false,false,250,image-keyboard-response,10
true,2,1,1,1,true,z,false,true,0.0-2.0-0.4-0.36-3.36,0,0,0,90,false,stim,false,0,562,0,0,0,85316,task2,300303,false,false,253,image-keyboard-response,11
true,2,1,1,1,true,z,false,true,0.0-2.0-0.4-0.37-3.37,0,0,0,90,false,stim,false,0,815,0,0,0,85316,task2,302638,false,false,256,image-keyboard-response,12
true,2,1,1,1,true,z,false,true,0.0-2.0-0.4-0.38-3.38,0,0,0,90,false,stim,false,2,1822,0,0,2,85316,task2,305975,false,false,259,image-keyboard-response,13
true,2,1,1,1,true,z,false,false,0.0-2.0-0.4-0.39-3.39,0,0,0,90,false,stim,false,2,602,0,0,2,85316,task2,308093,false,true,262,image-keyboard-response,14
true,2,1,1,0,false,q,false,true,0.0-2.0-0.4-0.40-3.40,0,0,0,90,false,stim,true,1,958,0,0,1,85316,task2,310560,false,true,265,image-keyboard-response,15
true,2,1,1,0,false,q,false,false,0.0-2.0-0.4-0.41-3.41,0,0,0,90,false,stim,true,1,665,0,0,1,85316,task2,312735,false,false,268,image-keyboard-response,16
true,2,0,1,0,true,q,false,true,0.0-2.0-0.4-0.42-3.42,0,0,0,81,false,stim,false,1,685,0,0,1,85316,task2,314928,false,false,271,image-keyboard-response,17
true,2,1,1,1,true,z,false,true,0.0-2.0-0.4-0.43-3.43,0,0,0,90,false,stim,false,2,998,0,0,2,85316,task2,317440,false,false,274,image-keyboard-response,18
true,2,1,1,1,true,z,false,true,0.0-2.0-0.4-0.44-3.44,0,0,0,90,false,stim,false,0,990,0,0,0,85316,task2,319953,false,false,277,image-keyboard-response,19
true,2,1,1,1,true,z,false,false,0.0-2.0-0.5-0.45-3.45,0,0,0,90,false,stim,false,0,919,0,0,0,85316,task2,322391,false,true,280,image-keyboard-response,20
true,2,1,1,1,true,z,false,false,0.0-2.0-0.5-0.46-3.46,0,0,0,90,false,stim,false,2,1259,0,0,2,85316,task2,325160,false,true,283,image-keyboard-response,21
true,2,1,1,0,false,q,false,false,0.0-2.0-0.5-0.47-3.47,0,0,0,90,false,stim,true,1,974,0,0,1,85316,task2,327646,false,false,286,image-keyboard-response,22
true,2,0,1,1,false,z,true,false,0.0-2.0-0.5-0.48-3.48,0,0,0,81,false,stim,false,2,767,0,0,2,85316,task2,329928,false,false,289,image-keyboard-response,23
true,2,2,1,1,false,z,false,false,0.0-2.0-0.5-0.49-3.49,0,0,0,68,false,stim,true,2,576,0,0,2,85316,task2,332032,false,false,292,image-keyboard-response,24
true,2,2,1,0,false,q,true,false,0.0-2.0-0.5-0.50-3.50,0,0,0,68,false,stim,false,1,1263,0,0,1,85316,task2,334823,false,false,295,image-keyboard-response,25
true,2,0,1,1,false,z,false,false,0.0-2.0-0.5-0.51-3.51,0,0,0,81,false,stim,true,0,365,0,0,0,85316,task2,336711,false,false,298,image-keyboard-response,26
true,2,0,1,0,true,q,false,true,0.0-2.0-0.5-0.52-3.52,0,0,0,81,false,stim,false,1,723,0,0,1,85316,task2,338960,false,false,301,image-keyboard-response,27
true,2,2,1,1,false,z,true,false,0.0-2.0-0.5-0.53-3.53,0,0,0,68,false,stim,false,0,618,0,0,0,85316,task2,341087,false,false,304,image-keyboard-response,28
true,2,0,1,1,false,z,true,false,0.0-2.0-0.6-0.54-3.54,0,0,0,81,false,stim,false,2,1115,0,0,2,85316,task2,343736,false,false,307,image-keyboard-response,29
true,2,1,1,1,true,z,false,true,0.0-2.0-0.6-0.55-3.55,0,0,0,90,false,stim,false,2,782,0,0,2,85316,task2,346032,false,false,310,image-keyboard-response,30
true,2,0,1,1,false,z,false,false,0.0-2.0-0.6-0.56-3.56,0,0,0,81,false,stim,true,0,1640,0,0,0,85316,task2,349199,false,false,313,image-keyboard-response,31
true,2,2,1,0,false,q,true,false,0.0-2.0-0.6-0.57-3.57,0,0,0,68,false,stim,false,1,962,0,0,1,85316,task2,351695,false,false,316,image-keyboard-response,32
true,2,1,1,1,true,z,false,true,0.0-2.0-0.6-0.58-3.58,0,0,0,90,false,stim,false,2,686,0,0,2,85316,task2,353903,false,false,319,image-keyboard-response,33
true,2,1,1,0,false,q,false,false,0.0-2.0-0.6-0.59-3.59,0,0,0,90,false,stim,true,1,481,0,0,1,85316,task2,355903,false,false,322,image-keyboard-response,34
true,2,1,1,1,true,z,false,true,0.0-2.0-0.6-0.60-3.60,0,0,0,90,false,stim,false,0,516,0,1,0,85316,task2,357935,false,false,325,image-keyboard-response,35
true,2,0,1,0,true,q,false,true,0.0-2.0-0.6-0.61-3.61,0,0,0,81,false,stim,false,1,667,0,0,1,85316,task2,360112,false,false,328,image-keyboard-response,36
true,3,1,2,1,true,z,false,true,0.0-2.0-0.6-0.62-3.62,1,0,0,90,true,stim,false,1,620,0,1,0,85316,task2,362255,false,false,331,image-keyboard-response,1
true,3,1,2,0,false,q,false,false,0.0-2.0-0.7-0.63-3.63,1,0,0,90,false,stim,true,1,395,0,0,2,85316,task2,364168,false,false,334,image-keyboard-response,2
true,3,0,2,2,false,d,false,false,0.0-2.0-0.7-0.64-3.64,1,0,0,81,false,stim,true,0,947,0,0,1,85316,task2,366637,false,false,337,image-keyboard-response,3
true,3,1,2,1,true,z,false,true,0.0-2.0-0.7-0.65-3.65,1,0,0,90,false,stim,false,1,1023,0,1,0,85316,task2,369164,false,false,340,image-keyboard-response,4
true,3,1,2,1,true,z,false,true,0.0-2.0-0.7-0.66-3.66,1,0,0,90,false,stim,false,1,677,0,1,0,85316,task2,371352,false,false,343,image-keyboard-response,5
true,3,2,2,2,true,d,false,true,0.0-2.0-0.7-0.67-3.67,1,0,0,68,false,stim,false,0,1467,0,0,1,85316,task2,374341,false,false,346,image-keyboard-response,6
true,3,2,2,0,false,q,true,false,0.0-2.0-0.7-0.68-3.68,1,0,0,68,false,stim,false,1,2040,0,0,2,85316,task2,377913,false,false,349,image-keyboard-response,7
true,3,1,2,0,false,q,false,false,0.0-2.0-0.7-0.69-3.69,1,0,0,90,false,stim,true,1,1107,0,0,2,85316,task2,380552,false,false,352,image-keyboard-response,8
true,3,2,2,2,true,d,false,true,0.0-2.0-0.7-0.70-3.70,1,0,0,68,false,stim,false,0,1248,0,0,1,85316,task2,383311,false,false,355,image-keyboard-response,9
true,3,0,2,1,false,z,true,true,0.0-2.0-0.7-0.71-3.71,1,0,0,81,false,stim,false,1,846,0,1,0,85316,task2,385680,false,true,358,image-keyboard-response,10
true,3,0,2,1,false,z,true,false,0.0-2.0-0.8-0.72-3.72,1,0,0,81,false,stim,false,1,734,0,1,0,85316,task2,387934,false,false,361,image-keyboard-response,11
false,3,-1,2,2,false,d,true,true,0.0-2.0-0.8-0.73-3.73,1,0,0,,false,stim,false,0,,0,0,1,85316,task2,392456,false,true,364,image-keyboard-response,12
true,3,1,2,0,false,q,false,false,0.0-2.0-0.8-0.74-3.74,1,0,0,90,false,stim,true,1,1543,0,0,2,85316,task2,395535,false,false,367,image-keyboard-response,13
true,3,2,2,2,true,d,false,true,0.0-2.0-0.8-0.75-3.75,1,0,0,68,false,stim,false,0,664,0,0,1,85316,task2,397728,false,false,370,image-keyboard-response,14
true,3,0,2,2,false,d,false,false,0.0-2.0-0.8-0.76-3.76,1,0,0,81,false,stim,true,0,1061,0,0,1,85316,task2,400312,false,false,373,image-keyboard-response,15
true,3,1,2,0,false,q,false,true,0.0-2.0-0.8-0.77-3.77,1,0,0,90,false,stim,true,1,700,0,0,2,85316,task2,402519,false,true,376,image-keyboard-response,16
true,3,2,2,1,false,z,true,false,0.0-2.0-0.8-0.78-3.78,1,0,0,68,false,stim,false,1,721,0,1,0,85316,task2,404775,false,false,379,image-keyboard-response,17
true,3,1,2,0,false,q,false,false,0.0-2.0-0.8-0.79-3.79,1,0,0,90,false,stim,true,1,1782,0,0,2,85316,task2,408086,false,false,382,image-keyboard-response,18
true,3,2,2,1,false,z,true,false,0.0-2.0-0.8-0.80-3.80,1,0,0,68,false,stim,false,1,612,0,1,0,85316,task2,410223,false,false,385,image-keyboard-response,19
true,3,0,2,2,false,d,false,false,0.0-2.0-0.9-0.81-3.81,1,0,0,81,false,stim,true,0,399,0,0,1,85316,task2,412129,false,false,388,image-keyboard-response,20
true,3,1,2,1,true,z,false,true,0.0-2.0-0.9-0.82-3.82,1,0,0,90,false,stim,false,1,1096,0,1,0,85316,task2,414760,false,false,391,image-keyboard-response,21
true,3,1,2,1,true,z,false,true,0.0-2.0-0.9-0.83-3.83,1,0,0,90,false,stim,false,1,379,0,1,0,85316,task2,416663,false,false,394,image-keyboard-response,22
true,3,0,2,2,false,d,false,false,0.0-2.0-0.9-0.84-3.84,1,0,0,81,false,stim,true,0,806,0,0,1,85316,task2,418992,false,false,397,image-keyboard-response,23
true,3,1,2,2,false,d,true,false,0.0-2.0-0.9-0.85-3.85,1,0,0,90,false,stim,false,0,518,0,0,1,85316,task2,421039,false,false,400,image-keyboard-response,24
true,3,2,2,0,false,q,true,false,0.0-2.0-0.9-0.86-3.86,1,0,0,68,false,stim,false,1,1914,0,0,2,85316,task2,424472,false,false,403,image-keyboard-response,25
true,3,1,2,0,false,q,false,false,0.0-2.0-0.9-0.87-3.87,1,0,0,90,false,stim,true,1,973,0,0,2,85316,task2,426968,false,false,406,image-keyboard-response,26
true,3,0,2,0,true,q,false,true,0.0-2.0-0.9-0.88-3.88,1,0,0,81,false,stim,false,1,648,0,0,2,85316,task2,429143,false,false,409,image-keyboard-response,27
true,3,1,2,1,true,z,false,true,0.0-2.0-0.9-0.89-3.89,1,0,0,90,false,stim,false,1,1085,0,1,0,85316,task2,431751,false,false,412,image-keyboard-response,28
true,3,2,2,2,true,d,false,true,0.0-2.0-0.10-0.90-3.90,1,0,0,68,false,stim,false,0,1601,0,0,1,85316,task2,434885,false,false,415,image-keyboard-response,29
true,3,1,2,1,true,z,false,true,0.0-2.0-0.10-0.91-3.91,1,0,0,90,false,stim,false,1,776,0,0,0,85316,task2,437183,false,false,418,image-keyboard-response,30
true,3,1,2,1,true,z,false,false,0.0-2.0-0.10-0.92-3.92,1,0,0,90,false,stim,false,1,842,0,0,0,85316,task2,439552,false,true,421,image-keyboard-response,31
true,3,2,2,2,true,d,false,true,0.0-2.0-0.10-0.93-3.93,1,0,0,68,false,stim,false,0,727,0,0,1,85316,task2,441806,false,false,424,image-keyboard-response,32
true,3,0,2,0,true,q,false,true,0.0-2.0-0.10-0.94-3.94,1,0,0,81,false,stim,false,1,1061,0,1,2,85316,task2,444374,false,false,427,image-keyboard-response,33
true,3,0,2,1,false,z,true,false,0.0-2.0-0.10-0.95-3.95,1,0,0,81,false,stim,false,1,858,0,0,0,85316,task2,446759,false,false,430,image-keyboard-response,34
true,4,2,2,1,false,z,false,false,0.0-2.0-0.10-0.96-3.96,0,0,1,68,true,stim,true,2,674,0,0,1,85316,task2,448959,false,false,433,image-keyboard-response,1
true,4,1,2,0,false,q,true,false,0.0-2.0-0.10-0.97-3.97,0,0,1,90,false,stim,false,0,1550,0,1,2,85316,task2,452040,false,false,436,image-keyboard-response,2
true,4,2,2,0,false,q,true,false,0.0-2.0-0.10-0.98-3.98,0,0,1,68,false,stim,false,0,447,0,1,2,85316,task2,454022,false,false,439,image-keyboard-response,3
true,4,0,2,1,false,z,true,false,0.0-2.0-0.11-0.99-3.99,0,0,1,81,false,stim,false,2,1159,0,0,1,85316,task2,456703,false,false,442,image-keyboard-response,4
true,4,1,2,2,false,d,false,false,0.0-2.0-0.11-0.100-3.100,0,0,1,90,false,stim,true,1,784,0,0,0,85316,task2,459014,false,false,445,image-keyboard-response,5
true,4,2,2,2,true,d,false,true,0.0-2.0-0.11-0.101-3.101,0,0,1,68,false,stim,false,1,519,0,0,0,85316,task2,461071,false,false,448,image-keyboard-response,6
true,4,0,2,1,false,z,true,false,0.0-2.0-0.11-0.102-3.102,0,0,1,81,false,stim,false,2,1182,0,0,1,85316,task2,463783,false,false,451,image-keyboard-response,7
true,4,2,2,0,false,q,true,false,0.0-2.0-0.11-0.103-3.103,0,0,1,68,false,stim,false,0,1280,0,1,2,85316,task2,466583,false,false,454,image-keyboard-response,8
true,4,1,2,0,false,q,true,false,0.0-2.0-0.11-0.104-3.104,0,0,1,90,false,stim,false,0,651,0,1,2,85316,task2,468759,false,false,457,image-keyboard-response,9
true,4,0,2,0,true,q,false,true,0.0-2.0-0.11-0.105-3.105,0,0,1,81,false,stim,false,0,466,0,1,2,85316,task2,470761,false,false,460,image-keyboard-response,10
true,4,2,2,2,true,d,false,true,0.0-2.0-0.11-0.106-3.106,0,0,1,68,false,stim,false,1,474,0,0,0,85316,task2,472767,false,false,463,image-keyboard-response,11
true,4,1,2,1,true,z,false,true,0.0-2.0-0.11-0.107-3.107,0,0,1,90,false,stim,false,2,1092,0,0,1,85316,task2,475392,false,false,466,image-keyboard-response,12
true,4,1,2,1,true,z,false,true,0.0-2.0-0.12-0.108-3.108,0,0,1,90,false,stim,false,2,609,0,0,1,85316,task2,477527,false,false,469,image-keyboard-response,13
true,4,1,2,1,true,z,false,true,0.0-2.0-0.12-0.109-3.109,0,0,1,90,false,stim,false,2,819,0,0,1,85316,task2,479871,false,false,472,image-keyboard-response,14
true,4,0,2,0,true,q,false,true,0.0-2.0-0.12-0.110-3.110,0,0,1,81,false,stim,false,0,808,0,1,2,85316,task2,482214,false,false,475,image-keyboard-response,15
true,4,0,2,0,true,q,false,true,0.0-2.0-0.12-0.111-3.111,0,0,1,81,false,stim,false,0,652,0,1,2,85316,task2,484392,false,false,478,image-keyboard-response,16
true,4,0,2,0,true,q,false,true,0.0-2.0-0.12-0.112-3.112,0,0,1,81,false,stim,false,0,543,0,1,2,85316,task2,486472,false,false,481,image-keyboard-response,17
true,4,2,2,2,true,d,false,true,0.0-2.0-0.12-0.113-3.113,0,0,1,68,false,stim,false,1,729,0,0,0,85316,task2,488726,false,false,484,image-keyboard-response,18
true,4,2,2,2,true,d,false,true,0.0-2.0-0.12-0.114-3.114,0,0,1,68,false,stim,false,1,437,0,0,0,85316,task2,490687,false,false,487,image-keyboard-response,19
true,4,0,2,1,false,z,true,false,0.0-2.0-0.12-0.115-3.115,0,0,1,81,false,stim,false,2,1126,0,0,1,85316,task2,493342,false,false,490,image-keyboard-response,20
true,4,2,2,2,true,d,false,true,0.0-2.0-0.12-0.116-3.116,0,0,1,68,false,stim,false,1,712,0,0,0,85316,task2,495583,false,false,493,image-keyboard-response,21
true,4,0,2,0,true,q,false,true,0.0-2.0-0.13-0.117-3.117,0,0,1,81,false,stim,false,0,812,0,1,2,85316,task2,497919,false,false,496,image-keyboard-response,22
true,4,0,2,0,true,q,false,true,0.0-2.0-0.13-0.118-3.118,0,0,1,81,false,stim,false,0,830,0,1,2,85316,task2,500271,false,false,499,image-keyboard-response,23
true,4,2,2,2,true,d,false,true,0.0-2.0-0.13-0.119-3.119,0,0,1,68,false,stim,false,1,690,0,0,0,85316,task2,502485,false,false,502,image-keyboard-response,24
true,4,0,2,0,true,q,false,true,0.0-2.0-0.13-0.120-3.120,0,0,1,81,false,stim,false,0,1064,0,1,2,85316,task2,505079,false,false,505,image-keyboard-response,25
true,4,1,2,1,true,z,false,true,0.0-2.0-0.13-0.121-3.121,0,0,1,90,false,stim,false,2,645,0,0,1,85316,task2,507262,false,false,508,image-keyboard-response,26
true,4,2,2,2,true,d,false,true,0.0-2.0-0.13-0.122-3.122,0,0,1,68,false,stim,false,1,771,0,0,0,85316,task2,509556,false,false,511,image-keyboard-response,27
true,4,1,2,1,true,z,false,true,0.0-2.0-0.13-0.123-3.123,0,0,1,90,false,stim,false,2,1006,0,0,1,85316,task2,512094,false,false,514,image-keyboard-response,28
true,4,0,2,2,false,d,true,false,0.0-2.0-0.13-0.124-3.124,0,0,1,81,false,stim,false,1,1039,0,1,0,85316,task2,514663,false,false,517,image-keyboard-response,29
true,4,1,2,1,true,z,false,true,0.0-2.0-0.13-0.125-3.125,0,0,1,90,false,stim,false,2,815,0,0,1,85316,task2,517007,false,false,520,image-keyboard-response,30
true,4,0,2,0,true,q,false,true,0.0-2.0-0.14-0.126-3.126,0,0,1,81,false,stim,false,0,1075,0,0,2,85316,task2,519607,false,false,523,image-keyboard-response,31
true,4,0,2,0,true,q,false,true,0.0-2.0-0.14-0.127-3.127,0,0,1,81,false,stim,false,0,835,0,0,2,85316,task2,521966,false,false,526,image-keyboard-response,32
true,4,1,2,1,true,z,false,true,0.0-2.0-0.14-0.128-3.128,0,0,1,90,false,stim,false,2,497,0,0,1,85316,task2,523983,false,false,529,image-keyboard-response,33
true,5,0,2,2,false,d,false,false,0.0-2.0-0.14-0.129-3.129,1,0,0,81,true,stim,true,0,1453,0,0,2,85316,task2,526973,false,false,532,image-keyboard-response,1
true,5,2,2,2,true,d,false,true,0.0-2.0-0.14-0.130-3.130,1,0,0,68,false,stim,false,2,834,0,1,0,85316,task2,529342,false,false,535,image-keyboard-response,2
true,5,2,2,2,true,d,false,true,0.0-2.0-0.14-0.131-3.131,1,0,0,68,false,stim,false,2,642,0,1,0,85316,task2,531519,false,false,538,image-keyboard-response,3
true,5,1,2,0,false,q,false,true,0.0-2.0-0.14-0.132-3.132,1,0,0,90,false,stim,true,1,712,0,0,1,85316,task2,533743,false,true,541,image-keyboard-response,4
true,5,1,2,0,false,q,false,false,0.0-2.0-0.14-0.133-3.133,1,0,0,90,false,stim,true,1,557,0,0,1,85316,task2,535823,false,false,544,image-keyboard-response,5
true,5,2,2,2,true,d,false,true,0.0-2.0-0.14-0.134-3.134,1,0,0,68,false,stim,false,2,1383,0,1,0,85316,task2,538734,false,false,547,image-keyboard-response,6
true,5,2,2,2,true,d,false,true,0.0-2.0-0.15-0.135-3.135,1,0,0,68,false,stim,false,2,503,0,1,0,85316,task2,540757,false,false,550,image-keyboard-response,7
true,5,1,2,0,false,q,false,false,0.0-2.0-0.15-0.136-3.136,1,0,0,90,false,stim,true,1,1172,0,0,1,85316,task2,543463,false,false,553,image-keyboard-response,8
true,5,0,2,2,false,d,false,false,0.0-2.0-0.15-0.137-3.137,1,0,0,81,false,stim,true,0,1335,0,0,2,85316,task2,546327,false,false,556,image-keyboard-response,9
true,5,2,2,2,true,d,false,true,0.0-2.0-0.15-0.138-3.138,1,0,0,68,false,stim,false,0,769,0,0,2,85316,task2,548614,false,false,559,image-keyboard-response,10
true,5,2,2,2,true,d,false,true,0.0-2.0-0.15-0.139-3.139,1,0,0,68,false,stim,false,2,670,0,1,0,85316,task2,550814,false,false,562,image-keyboard-response,11
true,5,2,2,0,false,q,true,true,0.0-2.0-0.15-0.140-3.140,1,0,0,68,false,stim,false,1,1041,0,0,1,85316,task2,553374,false,true,565,image-keyboard-response,12
true,5,2,2,2,true,d,false,true,0.0-2.0-0.15-0.141-3.141,1,0,0,68,false,stim,false,0,487,0,0,2,85316,task2,555390,false,false,568,image-keyboard-response,13
true,5,2,2,0,false,q,true,false,0.0-2.0-0.15-0.142-3.142,1,0,0,68,false,stim,false,1,347,0,0,1,85316,task2,557254,false,false,571,image-keyboard-response,14
true,5,2,2,2,true,d,false,true,0.0-2.0-0.15-0.143-3.143,1,0,0,68,false,stim,false,2,449,0,1,0,85316,task2,559223,false,false,574,image-keyboard-response,15
true,5,2,2,2,true,d,false,true,0.0-2.0-0.16-0.144-3.144,1,0,0,68,false,stim,false,0,764,0,0,2,85316,task2,561525,false,false,577,image-keyboard-response,16
true,5,1,2,0,false,q,false,false,0.0-2.0-0.16-0.145-3.145,1,0,0,90,false,stim,true,1,1081,0,0,1,85316,task2,564127,false,false,580,image-keyboard-response,17
true,5,2,2,2,true,d,false,true,0.0-2.0-0.16-0.146-3.146,1,0,0,68,false,stim,false,2,453,0,1,0,85316,task2,566102,false,false,583,image-keyboard-response,18
true,5,2,2,0,false,q,true,false,0.0-2.0-0.16-0.147-3.147,1,0,0,68,false,stim,false,1,324,0,0,1,85316,task2,567956,false,false,586,image-keyboard-response,19
true,5,2,2,2,true,d,false,true,0.0-2.0-0.16-0.148-3.148,1,0,0,68,false,stim,false,0,593,0,0,2,85316,task2,570079,false,false,589,image-keyboard-response,20
true,5,2,2,2,true,d,false,true,0.0-2.0-0.16-0.149-3.149,1,0,0,68,false,stim,false,0,547,0,0,2,85316,task2,572151,false,false,592,image-keyboard-response,21
true,5,2,2,2,true,d,false,true,0.0-2.0-0.16-0.150-3.150,1,0,0,68,false,stim,false,2,739,0,1,0,85316,task2,574412,false,false,595,image-keyboard-response,22
true,5,2,2,2,true,d,false,true,0.0-2.0-0.16-0.151-3.151,1,0,0,68,false,stim,false,2,448,0,1,0,85316,task2,576392,false,false,598,image-keyboard-response,23
true,5,0,2,0,true,q,false,true,0.0-2.0-0.16-0.152-3.152,1,0,0,81,false,stim,false,1,651,0,0,1,85316,task2,578574,false,false,601,image-keyboard-response,24
true,5,0,2,0,true,q,false,false,0.0-2.0-0.17-0.153-3.153,1,0,0,81,false,stim,false,1,615,0,0,1,85316,task2,580711,false,true,604,image-keyboard-response,25
true,5,2,2,0,false,q,true,false,0.0-2.0-0.17-0.154-3.154,1,0,0,68,false,stim,false,1,1065,0,0,1,85316,task2,583296,false,false,607,image-keyboard-response,26
true,5,2,2,2,true,d,false,true,0.0-2.0-0.17-0.155-3.155,1,0,0,68,false,stim,false,0,754,0,0,2,85316,task2,585574,false,false,610,image-keyboard-response,27
true,5,2,2,2,true,d,false,true,0.0-2.0-0.17-0.156-3.156,1,0,0,68,false,stim,false,0,533,0,0,2,85316,task2,587639,false,false,613,image-keyboard-response,28
true,5,2,2,2,true,d,false,true,0.0-2.0-0.17-0.157-3.157,1,0,0,68,false,stim,false,2,617,0,0,0,85316,task2,589791,false,false,616,image-keyboard-response,29
true,5,2,2,2,true,d,false,true,0.0-2.0-0.17-0.158-3.158,1,0,0,68,false,stim,false,2,511,0,0,0,85316,task2,591839,false,false,619,image-keyboard-response,30
true,5,2,2,2,true,d,false,true,0.0-2.0-0.17-0.159-3.159,1,0,0,68,false,stim,false,2,466,0,0,0,85316,task2,593847,false,false,622,image-keyboard-response,31
true,6,1,2,0,false,q,true,false,0.0-2.0-0.17-0.160-3.160,0,1,0,90,true,stim,false,0,1050,0,1,1,85316,task2,596431,false,false,625,image-keyboard-response,1
true,6,2,2,1,false,z,false,false,0.0-2.0-0.17-0.161-3.161,0,1,0,68,false,stim,true,2,694,0,0,2,85316,task2,598663,false,false,628,image-keyboard-response,2
true,6,0,2,1,false,z,true,false,0.0-2.0-0.18-0.162-3.162,0,1,0,81,false,stim,false,2,779,0,0,2,85316,task2,600967,false,false,631,image-keyboard-response,3
true,6,2,2,0,false,q,true,false,0.0-2.0-0.18-0.163-3.163,0,1,0,68,false,stim,false,0,781,0,1,1,85316,task2,603272,false,false,634,image-keyboard-response,4
true,6,2,2,0,false,q,false,false,0.0-2.0-0.18-0.164-3.164,0,1,0,68,false,stim,true,2,757,0,0,0,85316,task2,605567,false,false,637,image-keyboard-response,5
true,6,1,2,1,true,z,false,true,0.0-2.0-0.18-0.165-3.165,0,1,0,90,false,stim,false,2,777,0,0,2,85316,task2,607871,false,false,640,image-keyboard-response,6
true,6,1,2,0,false,q,true,false,0.0-2.0-0.18-0.166-3.166,0,1,0,90,false,stim,false,2,897,0,0,0,85316,task2,610295,false,false,643,image-keyboard-response,7
true,6,0,2,0,true,q,false,false,0.0-2.0-0.18-0.167-3.167,0,1,0,81,false,stim,false,2,606,0,0,0,85316,task2,612422,false,true,646,image-keyboard-response,8
true,6,2,2,0,false,q,true,false,0.0-2.0-0.18-0.168-3.168,0,1,0,68,false,stim,false,0,1216,0,1,1,85316,task2,615166,false,false,649,image-keyboard-response,9
true,6,1,2,1,true,z,false,false,0.0-2.0-0.18-0.169-3.169,0,1,0,90,false,stim,false,2,604,0,0,2,85316,task2,617294,false,true,652,image-keyboard-response,10
true,6,1,2,0,false,q,true,false,0.0-2.0-0.18-0.170-3.170,0,1,0,90,false,stim,false,0,943,0,1,1,85316,task2,619767,false,false,655,image-keyboard-response,11
true,6,2,2,0,false,q,true,false,0.0-2.0-0.19-0.171-3.171,0,1,0,68,false,stim,false,0,521,0,1,1,85316,task2,621814,false,false,658,image-keyboard-response,12
true,6,0,2,0,true,q,false,true,0.0-2.0-0.19-0.172-3.172,0,1,0,81,false,stim,false,0,581,0,1,1,85316,task2,623926,false,false,661,image-keyboard-response,13
true,6,2,2,1,false,z,false,false,0.0-2.0-0.19-0.173-3.173,0,1,0,68,false,stim,true,2,2263,0,0,2,85316,task2,627711,false,false,664,image-keyboard-response,14
true,6,1,2,0,false,q,true,false,0.0-2.0-0.19-0.174-3.174,0,1,0,90,false,stim,false,2,459,0,0,0,85316,task2,629694,false,false,667,image-keyboard-response,15
true,6,0,2,0,true,q,false,true,0.0-2.0-0.19-0.175-3.175,0,1,0,81,false,stim,false,2,937,0,0,0,85316,task2,632158,false,false,670,image-keyboard-response,16
true,6,0,2,0,true,q,false,true,0.0-2.0-0.19-0.176-3.176,0,1,0,81,false,stim,false,2,411,0,0,0,85316,task2,634100,false,false,673,image-keyboard-response,17
true,6,0,2,1,false,z,true,false,0.0-2.0-0.19-0.177-3.177,0,1,0,81,false,stim,false,2,1797,0,0,2,85316,task2,637423,false,false,676,image-keyboard-response,18
true,6,0,2,0,true,q,false,true,0.0-2.0-0.19-0.178-3.178,0,1,0,81,false,stim,false,0,916,0,1,1,85316,task2,639861,false,false,679,image-keyboard-response,19
true,6,2,2,1,false,z,false,false,0.0-2.0-0.19-0.179-3.179,0,1,0,68,false,stim,true,2,1042,0,0,2,85316,task2,642422,false,false,682,image-keyboard-response,20
true,6,0,2,0,true,q,false,true,0.0-2.0-0.20-0.180-3.180,0,1,0,81,false,stim,false,2,623,0,0,0,85316,task2,644575,false,false,685,image-keyboard-response,21
true,6,0,2,0,true,q,false,true,0.0-2.0-0.20-0.181-3.181,0,1,0,81,false,stim,false,0,369,0,1,1,85316,task2,646471,false,false,688,image-keyboard-response,22
true,6,1,2,1,true,z,false,false,0.0-2.0-0.20-0.182-3.182,0,1,0,90,false,stim,false,2,425,0,0,2,85316,task2,648422,false,true,691,image-keyboard-response,23
true,6,0,2,0,true,q,false,true,0.0-2.0-0.20-0.183-3.183,0,1,0,81,false,stim,false,2,415,0,0,0,85316,task2,650374,false,false,694,image-keyboard-response,24
true,6,0,2,0,true,q,false,true,0.0-2.0-0.20-0.184-3.184,0,1,0,81,false,stim,false,0,295,0,1,1,85316,task2,652206,false,false,697,image-keyboard-response,25
true,6,0,2,1,false,z,true,false,0.0-2.0-0.20-0.185-3.185,0,1,0,81,false,stim,false,2,358,0,0,2,85316,task2,654087,false,false,700,image-keyboard-response,26
true,6,1,2,1,true,z,false,true,0.0-2.0-0.20-0.186-3.186,0,1,0,90,false,stim,false,2,2169,0,0,2,85316,task2,657800,false,false,703,image-keyboard-response,27
true,6,0,2,0,true,q,false,true,0.0-2.0-0.20-0.187-3.187,0,1,0,81,false,stim,false,2,398,0,0,0,85316,task2,659719,false,false,706,image-keyboard-response,28
true,6,0,2,0,true,q,false,true,0.0-2.0-0.20-0.188-3.188,0,1,0,81,false,stim,false,0,544,0,0,1,85316,task2,661799,false,false,709,image-keyboard-response,29
true,6,0,2,0,true,q,false,true,0.0-2.0-0.21-0.189-3.189,0,1,0,81,false,stim,false,0,506,0,0,1,85316,task2,663846,false,false,712,image-keyboard-response,30
true,6,1,2,1,true,z,false,false,0.0-2.0-0.21-0.190-3.190,0,1,0,90,false,stim,false,2,528,0,0,2,85316,task2,665902,false,true,715,image-keyboard-response,31
true,6,2,2,1,false,z,false,false,0.0-2.0-0.21-0.191-3.191,0,1,0,68,false,stim,true,2,624,0,0,2,85316,task2,668051,false,false,718,image-keyboard-response,32
true,7,0,1,1,false,z,false,false,0.0-2.0-0.21-0.192-3.192,0,0,0,81,true,stim,true,0,1106,0,0,0,85316,task2,670686,false,false,721,image-keyboard-response,1
true,7,2,1,1,false,z,true,false,0.0-2.0-0.21-0.193-3.193,0,0,0,68,false,stim,false,0,798,0,0,0,85316,task2,673014,false,false,724,image-keyboard-response,2
true,7,1,1,1,true,z,false,true,0.0-2.0-0.21-0.194-3.194,0,0,0,90,false,stim,false,0,399,0,0,0,85316,task2,674934,false,false,727,image-keyboard-response,3
true,7,0,1,1,false,z,false,false,0.0-2.0-0.21-0.195-3.195,0,0,0,81,false,stim,true,0,1063,0,0,1,85316,task2,677534,false,false,730,image-keyboard-response,4
true,7,2,1,2,true,d,false,true,0.0-2.0-0.21-0.196-3.196,0,0,0,68,false,stim,false,1,1655,0,0,2,85316,task2,680711,false,false,733,image-keyboard-response,5
true,7,1,1,1,true,z,false,true,0.0-2.0-0.21-0.197-3.197,0,0,0,90,false,stim,false,0,962,0,0,1,85316,task2,683206,false,false,736,image-keyboard-response,6
true,7,1,1,1,true,z,false,true,0.0-2.0-0.22-0.198-3.198,0,0,0,90,false,stim,false,0,1331,0,0,0,85316,task2,686062,false,false,739,image-keyboard-response,7
true,7,1,1,1,true,z,false,true,0.0-2.0-0.22-0.199-3.199,0,0,0,90,false,stim,false,0,1492,0,0,1,85316,task2,689075,false,false,742,image-keyboard-response,8
true,7,1,1,1,true,z,false,true,0.0-2.0-0.22-0.200-3.200,0,0,0,90,false,stim,false,0,924,0,0,0,85316,task2,691527,false,false,745,image-keyboard-response,9
true,7,2,1,2,true,d,false,false,0.0-2.0-0.22-0.201-3.201,0,0,0,68,false,stim,false,1,766,0,0,2,85316,task2,693822,false,true,748,image-keyboard-response,10
true,7,1,1,2,false,d,false,false,0.0-2.0-0.22-0.202-3.202,0,0,0,90,false,stim,true,1,687,0,0,2,85316,task2,696046,false,false,751,image-keyboard-response,11
true,7,1,1,1,true,z,false,true,0.0-2.0-0.22-0.203-3.203,0,0,0,90,false,stim,false,0,1150,0,0,1,85316,task2,698727,false,false,754,image-keyboard-response,12
true,7,1,1,1,true,z,false,true,0.0-2.0-0.22-0.204-3.204,0,0,0,90,false,stim,false,0,432,0,0,0,85316,task2,700678,false,false,757,image-keyboard-response,13
true,7,0,1,2,false,d,true,false,0.0-2.0-0.22-0.205-3.205,0,0,0,81,false,stim,false,1,951,0,0,2,85316,task2,703166,false,false,760,image-keyboard-response,14
true,7,1,1,1,true,z,false,true,0.0-2.0-0.22-0.206-3.206,0,0,0,90,false,stim,false,0,386,0,0,1,85316,task2,705071,false,false,763,image-keyboard-response,15
true,7,1,1,1,true,z,false,true,0.0-2.0-0.23-0.207-3.207,0,0,0,90,false,stim,false,0,450,0,0,0,85316,task2,707053,false,false,766,image-keyboard-response,16
true,7,1,1,2,false,d,false,false,0.0-2.0-0.23-0.208-3.208,0,0,0,90,false,stim,true,1,360,0,0,2,85316,task2,708951,false,false,769,image-keyboard-response,17
true,7,2,1,2,true,d,false,true,0.0-2.0-0.23-0.209-3.209,0,0,0,68,false,stim,false,1,494,0,0,2,85316,task2,710967,false,false,772,image-keyboard-response,18
true,7,1,1,1,true,z,false,false,0.0-2.0-0.23-0.210-3.210,0,0,0,90,false,stim,false,0,537,0,0,1,85316,task2,713030,false,true,775,image-keyboard-response,19
true,7,1,1,1,true,z,false,true,0.0-2.0-0.23-0.211-3.211,0,0,0,90,false,stim,false,0,574,0,0,0,85316,task2,715134,false,false,778,image-keyboard-response,20
true,7,0,1,1,false,z,false,false,0.0-2.0-0.23-0.212-3.212,0,0,0,81,false,stim,true,0,1989,0,0,1,85316,task2,718638,false,false,781,image-keyboard-response,21
true,7,1,1,1,true,z,false,true,0.0-2.0-0.23-0.213-3.213,0,0,0,90,false,stim,false,0,753,0,0,0,85316,task2,720919,false,false,784,image-keyboard-response,22
true,7,2,1,2,true,d,false,true,0.0-2.0-0.23-0.214-3.214,0,0,0,68,false,stim,false,1,558,0,0,2,85316,task2,723014,false,false,787,image-keyboard-response,23
true,7,2,1,1,false,z,true,false,0.0-2.0-0.23-0.215-3.215,0,0,0,68,false,stim,false,0,529,0,0,1,85316,task2,725071,false,false,790,image-keyboard-response,24
true,7,1,1,1,true,z,false,true,0.0-2.0-0.24-0.216-3.216,0,0,0,90,false,stim,false,0,432,0,0,1,85316,task2,727022,false,false,793,image-keyboard-response,25
true,7,1,1,1,true,z,false,true,0.0-2.0-0.24-0.217-3.217,0,0,0,90,false,stim,false,0,383,0,0,0,85316,task2,728926,false,false,796,image-keyboard-response,26
true,7,1,1,1,true,z,false,false,0.0-2.0-0.24-0.218-3.218,0,0,0,90,false,stim,false,0,485,0,0,1,85316,task2,730933,false,true,799,image-keyboard-response,27
true,7,0,1,1,false,z,false,false,0.0-2.0-0.24-0.219-3.219,0,0,0,81,false,stim,true,0,285,0,0,1,85316,task2,732750,false,false,802,image-keyboard-response,28
true,7,2,1,1,false,z,true,false,0.0-2.0-0.24-0.220-3.220,0,0,0,68,false,stim,false,0,329,0,0,0,85316,task2,734614,false,false,805,image-keyboard-response,29
true,7,2,1,2,true,d,false,false,0.0-2.0-0.24-0.221-3.221,0,0,0,68,false,stim,false,1,607,0,0,2,85316,task2,736734,false,true,808,image-keyboard-response,30
true,7,1,1,1,true,z,false,true,0.0-2.0-0.24-0.222-3.222,0,0,0,90,false,stim,false,0,639,0,0,0,85316,task2,738894,false,false,811,image-keyboard-response,31
true,7,1,1,2,false,d,false,false,0.0-2.0-0.24-0.223-3.223,0,0,0,90,false,stim,true,1,570,0,0,2,85316,task2,740982,false,false,814,image-keyboard-response,32
true,7,0,1,2,false,d,true,false,0.0-2.0-0.24-0.224-3.224,0,0,0,81,false,stim,false,1,517,0,0,2,85316,task2,743031,false,false,817,image-keyboard-response,33
true,7,1,1,1,true,z,false,true,0.0-2.0-0.25-0.225-3.225,0,0,0,90,false,stim,false,0,637,0,0,1,85316,task2,745190,false,false,820,image-keyboard-response,34
true,7,1,1,1,true,z,false,true,0.0-2.0-0.25-0.226-3.226,0,0,0,90,false,stim,false,0,417,0,0,1,85316,task2,747126,false,false,823,image-keyboard-response,35
true,7,1,1,1,true,z,false,true,0.0-2.0-0.25-0.227-3.227,0,0,0,90,false,stim,false,0,397,0,0,0,85316,task2,749039,false,false,826,image-keyboard-response,36
true,7,1,1,2,false,d,false,true,0.0-2.0-0.25-0.228-3.228,0,0,0,90,false,stim,true,1,409,0,1,2,85316,task2,750982,false,true,829,image-keyboard-response,37
true,7,1,1,1,true,z,false,false,0.0-2.0-0.25-0.229-3.229,0,0,0,90,false,stim,false,0,278,0,0,0,85316,task2,752782,false,true,832,image-keyboard-response,38
true,8,0,2,0,true,q,false,true,0.0-2.0-0.25-0.230-3.230,0,0,1,81,true,stim,false,1,520,0,0,0,85316,task2,754814,false,false,835,image-keyboard-response,1
true,8,1,2,2,false,d,true,true,0.0-2.0-0.25-0.231-3.231,0,0,1,90,false,stim,false,2,347,0,1,2,85316,task2,756687,false,true,838,image-keyboard-response,2
true,8,1,2,2,false,d,false,false,0.0-2.0-0.25-0.232-3.232,0,0,1,90,false,stim,true,1,354,0,0,1,85316,task2,758567,false,false,841,image-keyboard-response,3
true,8,1,2,2,false,d,true,false,0.0-2.0-0.25-0.233-3.233,0,0,1,90,false,stim,false,2,944,0,1,2,85316,task2,761039,false,false,844,image-keyboard-response,4
true,8,2,2,2,true,d,false,true,0.0-2.0-0.26-0.234-3.234,0,0,1,68,false,stim,false,2,627,0,1,2,85316,task2,763191,false,false,847,image-keyboard-response,5
true,8,2,2,2,true,d,false,true,0.0-2.0-0.26-0.235-3.235,0,0,1,68,false,stim,false,1,819,0,0,1,85316,task2,765540,false,false,850,image-keyboard-response,6
true,8,2,2,2,true,d,false,true,0.0-2.0-0.26-0.236-3.236,0,0,1,68,false,stim,false,2,783,0,1,2,85316,task2,767836,false,false,853,image-keyboard-response,7
true,8,2,2,2,true,d,false,true,0.0-2.0-0.26-0.237-3.237,0,0,1,68,false,stim,false,1,455,0,0,1,85316,task2,769812,false,false,856,image-keyboard-response,8
true,8,2,2,2,true,d,false,true,0.0-2.0-0.26-0.238-3.238,0,0,1,68,false,stim,false,1,525,0,0,1,85316,task2,771865,false,false,859,image-keyboard-response,9
true,8,2,2,2,true,d,false,true,0.0-2.0-0.26-0.239-3.239,0,0,1,68,false,stim,false,2,332,0,1,2,85316,task2,773724,false,false,862,image-keyboard-response,10
true,8,0,2,0,true,q,false,true,0.0-2.0-0.26-0.240-3.240,0,0,1,81,false,stim,false,1,720,0,0,0,85316,task2,775967,false,false,865,image-keyboard-response,11
true,8,0,2,0,true,q,false,true,0.0-2.0-0.26-0.241-3.241,0,0,1,81,false,stim,false,1,627,0,0,0,85316,task2,778126,false,false,868,image-keyboard-response,12
true,8,0,2,0,true,q,false,true,0.0-2.0-0.26-0.242-3.242,0,0,1,81,false,stim,false,1,677,0,0,0,85316,task2,780326,false,false,871,image-keyboard-response,13
true,8,2,2,2,true,d,false,true,0.0-2.0-0.27-0.243-3.243,0,0,1,68,false,stim,false,1,1104,0,0,1,85316,task2,782941,false,false,874,image-keyboard-response,14
true,8,2,2,2,true,d,false,true,0.0-2.0-0.27-0.244-3.244,0,0,1,68,false,stim,false,1,453,0,0,1,85316,task2,784927,false,false,877,image-keyboard-response,15
true,8,0,2,0,true,q,false,true,0.0-2.0-0.27-0.245-3.245,0,0,1,81,false,stim,false,1,714,0,0,0,85316,task2,787174,false,false,880,image-keyboard-response,16
true,8,2,2,2,true,d,false,true,0.0-2.0-0.27-0.246-3.246,0,0,1,68,false,stim,false,2,519,0,1,2,85316,task2,789213,false,false,883,image-keyboard-response,17
true,8,2,2,2,true,d,false,true,0.0-2.0-0.27-0.247-3.247,0,0,1,68,false,stim,false,2,381,0,1,2,85316,task2,791127,false,false,886,image-keyboard-response,18
true,8,0,2,0,true,q,false,true,0.0-2.0-0.27-0.248-3.248,0,0,1,81,false,stim,false,1,525,0,0,0,85316,task2,793191,false,false,889,image-keyboard-response,19
true,8,0,2,0,true,q,false,true,0.0-2.0-0.27-0.249-3.249,0,0,1,81,false,stim,false,1,616,0,0,0,85316,task2,795334,false,false,892,image-keyboard-response,20
true,8,2,2,2,true,d,false,true,0.0-2.0-0.27-0.250-3.250,0,0,1,68,false,stim,false,1,424,0,0,1,85316,task2,797294,false,false,895,image-keyboard-response,21
true,8,0,2,2,false,d,true,true,0.0-2.0-0.27-0.251-3.251,0,0,1,81,false,stim,false,2,520,0,1,2,85316,task2,799342,false,true,898,image-keyboard-response,22
true,8,2,2,2,true,d,false,true,0.0-2.0-0.28-0.252-3.252,0,0,1,68,false,stim,false,1,753,0,0,1,85316,task2,801646,false,false,901,image-keyboard-response,23
true,8,0,2,2,false,d,true,false,0.0-2.0-0.28-0.253-3.253,0,0,1,81,false,stim,false,2,436,0,1,2,85316,task2,803614,false,false,904,image-keyboard-response,24
true,8,2,2,2,true,d,false,true,0.0-2.0-0.28-0.254-3.254,0,0,1,68,false,stim,false,2,796,0,1,2,85316,task2,805943,false,false,907,image-keyboard-response,25
true,8,2,2,2,true,d,false,true,0.0-2.0-0.28-0.255-3.255,0,0,1,68,false,stim,false,1,597,0,0,1,85316,task2,808062,false,false,910,image-keyboard-response,26
true,8,0,2,0,true,q,false,true,0.0-2.0-0.28-0.256-3.256,0,0,1,81,false,stim,false,1,335,0,0,0,85316,task2,809918,false,false,913,image-keyboard-response,27
true,8,0,2,0,true,q,false,true,0.0-2.0-0.28-0.257-3.257,0,0,1,81,false,stim,false,1,501,0,0,0,85316,task2,811950,false,false,916,image-keyboard-response,28
true,8,2,2,2,true,d,false,true,0.0-2.0-0.28-0.258-3.258,0,0,1,68,false,stim,false,2,982,0,1,2,85316,task2,814453,false,false,919,image-keyboard-response,29
true,8,2,2,2,true,d,false,true,0.0-2.0-0.28-0.259-3.259,0,0,1,68,false,stim,false,1,1760,0,0,1,85316,task2,817734,false,false,922,image-keyboard-response,30
true,8,0,2,0,true,q,false,true,0.0-2.0-0.28-0.260-3.260,0,0,1,81,false,stim,false,1,513,0,0,0,85316,task2,819774,false,false,925,image-keyboard-response,31
true,9,0,2,1,false,z,false,true,0.0-2.0-0.29-0.261-3.261,0,0,1,81,true,stim,true,0,540,0,0,0,85316,task2,821839,false,true,928,image-keyboard-response,1
true,9,2,2,0,false,q,false,false,0.0-2.0-0.29-0.262-3.262,0,0,1,68,false,stim,true,2,480,0,0,1,85316,task2,823831,false,false,931,image-keyboard-response,2
true,9,1,2,0,false,q,true,false,0.0-2.0-0.29-0.263-3.263,0,0,1,90,false,stim,false,2,565,0,0,1,85316,task2,825934,false,false,934,image-keyboard-response,3
true,9,0,2,1,false,z,false,true,0.0-2.0-0.29-0.264-3.264,0,0,1,81,false,stim,true,0,335,0,0,0,85316,task2,827805,false,true,937,image-keyboard-response,4
true,9,2,2,2,true,d,false,true,0.0-2.0-0.29-0.265-3.265,0,0,1,68,false,stim,false,2,770,0,1,2,85316,task2,830111,false,false,940,image-keyboard-response,5
true,9,0,2,1,false,z,false,false,0.0-2.0-0.29-0.266-3.266,0,0,1,81,false,stim,true,0,668,0,0,0,85316,task2,832308,false,false,943,image-keyboard-response,6
true,9,0,2,0,true,q,false,true,0.0-2.0-0.29-0.267-3.267,0,0,1,81,false,stim,false,2,726,0,0,1,85316,task2,834572,false,false,946,image-keyboard-response,7
true,9,2,2,2,true,d,false,true,0.0-2.0-0.29-0.268-3.268,0,0,1,68,false,stim,false,2,779,0,1,2,85316,task2,836876,false,false,949,image-keyboard-response,8
true,9,2,2,2,true,d,false,true,0.0-2.0-0.29-0.269-3.269,0,0,1,68,false,stim,false,2,614,0,1,2,85316,task2,839014,false,false,952,image-keyboard-response,9
true,9,0,2,0,true,q,false,true,0.0-2.0-0.30-0.270-3.270,0,0,1,81,false,stim,false,2,671,0,0,1,85316,task2,841206,false,false,955,image-keyboard-response,10
true,9,0,2,0,true,q,false,true,0.0-2.0-0.30-0.271-3.271,0,0,1,81,false,stim,false,2,564,0,0,1,85316,task2,843303,false,false,958,image-keyboard-response,11
true,9,1,2,1,true,z,false,true,0.0-2.0-0.30-0.272-3.272,0,0,1,90,false,stim,false,0,549,0,0,0,85316,task2,845374,false,false,961,image-keyboard-response,12
true,9,1,2,1,true,z,false,true,0.0-2.0-0.30-0.273-3.273,0,0,1,90,false,stim,false,0,856,0,0,0,85316,task2,847767,false,false,964,image-keyboard-response,13
true,9,1,2,1,true,z,false,true,0.0-2.0-0.30-0.274-3.274,0,0,1,90,false,stim,false,0,499,0,0,0,85316,task2,849792,false,false,967,image-keyboard-response,14
true,9,0,2,0,true,q,false,true,0.0-2.0-0.30-0.275-3.275,0,0,1,81,false,stim,false,2,587,0,0,1,85316,task2,851919,false,false,970,image-keyboard-response,15
true,9,2,2,2,true,d,false,true,0.0-2.0-0.30-0.276-3.276,0,0,1,68,false,stim,false,2,563,0,1,2,85316,task2,854007,false,false,973,image-keyboard-response,16
true,9,2,2,2,true,d,false,true,0.0-2.0-0.30-0.277-3.277,0,0,1,68,false,stim,false,2,587,0,1,2,85316,task2,856118,false,false,976,image-keyboard-response,17
true,9,2,2,2,true,d,false,true,0.0-2.0-0.30-0.278-3.278,0,0,1,68,false,stim,false,2,719,0,1,2,85316,task2,858374,false,false,979,image-keyboard-response,18
true,9,0,2,0,true,q,false,true,0.0-2.0-0.31-0.279-3.279,0,0,1,81,false,stim,false,2,733,0,0,1,85316,task2,860639,false,false,982,image-keyboard-response,19
true,9,2,2,2,true,d,false,true,0.0-2.0-0.31-0.280-3.280,0,0,1,68,false,stim,false,2,608,0,1,2,85316,task2,862782,false,false,985,image-keyboard-response,20
true,9,2,2,2,true,d,false,true,0.0-2.0-0.31-0.281-3.281,0,0,1,68,false,stim,false,2,461,0,1,2,85316,task2,864765,false,false,988,image-keyboard-response,21
true,9,0,2,0,true,q,false,true,0.0-2.0-0.31-0.282-3.282,0,0,1,81,false,stim,false,2,557,0,0,1,85316,task2,866854,false,false,991,image-keyboard-response,22
true,9,1,2,1,true,z,false,true,0.0-2.0-0.31-0.283-3.283,0,0,1,90,false,stim,false,0,495,0,0,0,85316,task2,868877,false,false,994,image-keyboard-response,23
true,9,2,2,2,true,d,false,true,0.0-2.0-0.31-0.284-3.284,0,0,1,68,false,stim,false,2,540,0,1,2,85316,task2,870942,false,false,997,image-keyboard-response,24
true,9,0,2,0,true,q,false,true,0.0-2.0-0.31-0.285-3.285,0,0,1,81,false,stim,false,2,636,0,0,1,85316,task2,873107,false,false,1000,image-keyboard-response,25
true,9,1,2,1,true,z,false,true,0.0-2.0-0.31-0.286-3.286,0,0,1,90,false,stim,false,0,606,0,0,0,85316,task2,875246,false,false,1003,image-keyboard-response,26
true,9,1,2,1,true,z,false,true,0.0-2.0-0.31-0.287-3.287,0,0,1,90,false,stim,false,0,455,0,0,0,85316,task2,877231,false,false,1006,image-keyboard-response,27
true,9,1,2,1,true,z,false,true,0.0-2.0-0.32-0.288-3.288,0,0,1,90,false,stim,false,0,470,0,0,0,85316,task2,879230,false,false,1009,image-keyboard-response,28
true,9,1,2,1,true,z,false,false,0.0-2.0-0.32-0.289-3.289,0,0,1,90,false,stim,false,0,507,0,0,0,85316,task2,881253,false,true,1012,image-keyboard-response,29
true,9,2,2,2,true,d,false,true,0.0-2.0-0.32-0.290-3.290,0,0,1,68,false,stim,false,2,641,0,0,2,85316,task2,883422,false,false,1015,image-keyboard-response,30
true,9,0,2,0,true,q,false,true,0.0-2.0-0.32-0.291-3.291,0,0,1,81,false,stim,false,2,423,0,1,1,85316,task2,885374,false,false,1018,image-keyboard-response,31
true,9,2,2,2,true,d,false,true,0.0-2.0-0.32-0.292-3.292,0,0,1,68,false,stim,false,2,639,0,0,2,85316,task2,887542,false,false,1021,image-keyboard-response,32
true,10,2,2,0,false,q,false,false,0.0-2.0-0.32-0.293-3.293,0,1,0,68,true,stim,true,2,793,0,0,2,85316,task2,889861,false,false,1024,image-keyboard-response,1
true,10,2,2,2,true,d,false,true,0.0-2.0-0.32-0.294-3.294,0,1,0,68,false,stim,false,1,800,0,0,0,85316,task2,892190,false,false,1027,image-keyboard-response,2
true,10,0,2,0,true,q,false,true,0.0-2.0-0.32-0.295-3.295,0,1,0,81,false,stim,false,0,636,0,1,1,85316,task2,894364,false,false,1030,image-keyboard-response,3
true,10,0,2,0,true,q,false,true,0.0-2.0-0.32-0.296-3.296,0,1,0,81,false,stim,false,0,590,0,1,1,85316,task2,896486,false,false,1033,image-keyboard-response,4
true,10,0,2,0,true,q,false,true,0.0-2.0-0.33-0.297-3.297,0,1,0,81,false,stim,false,0,591,0,1,1,85316,task2,898605,false,false,1036,image-keyboard-response,5
true,10,1,2,0,false,q,true,false,0.0-2.0-0.33-0.298-3.298,0,1,0,90,false,stim,false,2,1032,0,0,2,85316,task2,901165,false,false,1039,image-keyboard-response,6
true,10,2,2,2,true,d,false,true,0.0-2.0-0.33-0.299-3.299,0,1,0,68,false,stim,false,1,1072,0,0,0,85316,task2,903759,false,false,1042,image-keyboard-response,7
true,10,0,2,0,true,q,false,true,0.0-2.0-0.33-0.300-3.300,0,1,0,81,false,stim,false,2,403,0,0,2,85316,task2,905693,false,false,1045,image-keyboard-response,8
true,10,0,2,0,true,q,false,true,0.0-2.0-0.33-0.301-3.301,0,1,0,81,false,stim,false,0,854,0,1,1,85316,task2,908078,false,false,1048,image-keyboard-response,9
true,10,0,2,0,true,q,false,true,0.0-2.0-0.33-0.302-3.302,0,1,0,81,false,stim,false,2,998,0,0,2,85316,task2,910606,false,false,1051,image-keyboard-response,10
true,10,0,2,0,true,q,false,false,0.0-2.0-0.33-0.303-3.303,0,1,0,81,false,stim,false,0,483,0,1,1,85316,task2,912614,false,true,1054,image-keyboard-response,11
true,10,1,2,2,false,d,false,true,0.0-2.0-0.33-0.304-3.304,0,1,0,90,false,stim,true,1,697,0,0,0,85316,task2,914846,false,true,1057,image-keyboard-response,12
true,10,1,2,2,false,d,false,false,0.0-2.0-0.33-0.305-3.305,0,1,0,90,false,stim,true,1,501,0,0,0,85316,task2,916871,false,false,1060,image-keyboard-response,13
true,10,0,2,0,true,q,false,true,0.0-2.0-0.34-0.306-3.306,0,1,0,81,false,stim,false,2,1330,0,0,2,85316,task2,919733,false,false,1063,image-keyboard-response,14
true,10,0,2,0,true,q,false,true,0.0-2.0-0.34-0.307-3.307,0,1,0,81,false,stim,false,2,526,0,0,2,85316,task2,921782,false,false,1066,image-keyboard-response,15
true,10,2,2,0,false,q,true,true,0.0-2.0-0.34-0.308-3.308,0,1,0,68,false,stim,false,0,949,0,1,1,85316,task2,924262,false,true,1069,image-keyboard-response,16
true,10,0,2,0,true,q,false,true,0.0-2.0-0.34-0.309-3.309,0,1,0,81,false,stim,false,2,714,0,0,2,85316,task2,926493,false,false,1072,image-keyboard-response,17
true,10,0,2,0,true,q,false,true,0.0-2.0-0.34-0.310-3.310,0,1,0,81,false,stim,false,0,739,0,1,1,85316,task2,928750,false,false,1075,image-keyboard-response,18
true,10,0,2,0,true,q,false,true,0.0-2.0-0.34-0.311-3.311,0,1,0,81,false,stim,false,0,705,0,1,1,85316,task2,930974,false,false,1078,image-keyboard-response,19
true,10,0,2,2,false,d,true,false,0.0-2.0-0.34-0.312-3.312,0,1,0,81,false,stim,false,1,1626,0,0,0,85316,task2,934111,false,false,1081,image-keyboard-response,20
true,10,1,2,2,false,d,false,false,0.0-2.0-0.34-0.313-3.313,0,1,0,90,false,stim,true,1,762,0,0,0,85316,task2,936390,false,false,1084,image-keyboard-response,21
true,10,2,2,2,true,d,false,true,0.0-2.0-0.34-0.314-3.314,0,1,0,68,false,stim,false,1,488,0,0,0,85316,task2,938398,false,false,1087,image-keyboard-response,22
true,10,0,2,0,true,q,false,true,0.0-2.0-0.35-0.315-3.315,0,1,0,81,false,stim,false,0,766,0,1,1,85316,task2,940686,false,false,1090,image-keyboard-response,23
true,10,0,2,0,true,q,false,true,0.0-2.0-0.35-0.316-3.316,0,1,0,81,false,stim,false,0,604,0,1,1,85316,task2,942814,false,false,1093,image-keyboard-response,24
true,10,2,2,0,false,q,false,false,0.0-2.0-0.35-0.317-3.317,0,1,0,68,false,stim,true,2,574,0,0,2,85316,task2,944910,false,false,1096,image-keyboard-response,25
true,10,0,2,0,true,q,false,false,0.0-2.0-0.35-0.318-3.318,0,1,0,81,false,stim,false,0,446,0,1,1,85316,task2,946878,false,true,1099,image-keyboard-response,26
true,10,2,2,2,true,d,false,true,0.0-2.0-0.35-0.319-3.319,0,1,0,68,false,stim,false,1,754,0,0,0,85316,task2,949173,false,false,1102,image-keyboard-response,27
true,10,1,2,0,false,q,true,false,0.0-2.0-0.35-0.320-3.320,0,1,0,90,false,stim,false,2,590,0,1,2,85316,task2,951278,false,false,1105,image-keyboard-response,28
true,10,0,2,0,true,q,false,true,0.0-2.0-0.35-0.321-3.321,0,1,0,81,false,stim,false,2,599,0,1,2,85316,task2,953399,false,false,1108,image-keyboard-response,29
true,10,2,2,2,true,d,false,true,0.0-2.0-0.35-0.322-3.322,0,1,0,68,false,stim,false,1,652,0,0,0,85316,task2,955582,false,false,1111,image-keyboard-response,30
true,10,2,2,2,true,d,false,true,0.0-2.0-0.35-0.323-3.323,0,1,0,68,false,stim,false,1,541,0,0,0,85316,task2,957653,false,false,1114,image-keyboard-response,31
true,11,0,2,0,true,q,false,true,0.0-2.0-0.36-0.324-3.324,0,0,1,81,true,stim,false,0,530,0,1,2,85316,task2,959711,false,false,1117,image-keyboard-response,1
true,11,0,2,0,true,q,false,true,0.0-2.0-0.36-0.325-3.325,0,0,1,81,false,stim,false,0,435,0,1,2,85316,task2,961670,false,false,1120,image-keyboard-response,2
true,11,2,2,1,false,z,false,false,0.0-2.0-0.36-0.326-3.326,0,0,1,68,false,stim,true,2,696,0,0,0,85316,task2,963900,false,false,1123,image-keyboard-response,3
true,11,0,2,1,false,z,true,false,0.0-2.0-0.36-0.327-3.327,0,0,1,81,false,stim,false,2,625,0,0,0,85316,task2,966047,false,false,1126,image-keyboard-response,4
true,11,0,2,1,false,z,false,false,0.0-2.0-0.36-0.328-3.328,0,0,1,81,false,stim,true,0,741,0,0,1,85316,task2,968316,false,false,1129,image-keyboard-response,5
true,11,1,2,1,true,z,false,true,0.0-2.0-0.36-0.329-3.329,0,0,1,90,false,stim,false,0,571,0,0,1,85316,task2,970398,false,false,1132,image-keyboard-response,6
true,11,0,2,0,true,q,false,false,0.0-2.0-0.36-0.330-3.330,0,0,1,81,false,stim,false,0,516,0,1,2,85316,task2,972447,false,true,1135,image-keyboard-response,7
true,11,1,2,1,true,z,false,true,0.0-2.0-0.36-0.331-3.331,0,0,1,90,false,stim,false,2,311,0,0,0,85316,task2,974293,false,false,1138,image-keyboard-response,8
true,11,1,2,1,true,z,false,true,0.0-2.0-0.36-0.332-3.332,0,0,1,90,false,stim,false,0,323,0,0,1,85316,task2,976142,false,false,1141,image-keyboard-response,9
true,11,2,2,0,false,q,true,false,0.0-2.0-0.37-0.333-3.333,0,0,1,68,false,stim,false,0,943,0,1,2,85316,task2,978614,false,false,1144,image-keyboard-response,10
true,11,1,2,1,true,z,false,true,0.0-2.0-0.37-0.334-3.334,0,0,1,90,false,stim,false,0,322,0,0,1,85316,task2,980462,false,false,1147,image-keyboard-response,11
true,11,1,2,1,true,z,false,true,0.0-2.0-0.37-0.335-3.335,0,0,1,90,false,stim,false,2,255,0,0,0,85316,task2,982246,false,false,1150,image-keyboard-response,12
true,11,1,2,1,true,z,false,true,0.0-2.0-0.37-0.336-3.336,0,0,1,90,false,stim,false,2,254,0,0,0,85316,task2,984030,false,false,1153,image-keyboard-response,13
true,11,1,2,0,false,q,true,false,0.0-2.0-0.37-0.337-3.337,0,0,1,90,false,stim,false,0,332,0,1,2,85316,task2,985893,false,false,1156,image-keyboard-response,14
true,11,1,2,0,false,q,true,false,0.0-2.0-0.37-0.338-3.338,0,0,1,90,false,stim,false,0,328,0,1,2,85316,task2,987759,false,false,1159,image-keyboard-response,15
true,11,1,2,1,true,z,false,true,0.0-2.0-0.37-0.339-3.339,0,0,1,90,false,stim,false,2,605,0,0,0,85316,task2,989886,false,false,1162,image-keyboard-response,16
true,11,1,2,1,true,z,false,true,0.0-2.0-0.37-0.340-3.340,0,0,1,90,false,stim,false,0,540,0,0,1,85316,task2,991957,false,false,1165,image-keyboard-response,17
true,11,1,2,1,true,z,false,true,0.0-2.0-0.37-0.341-3.341,0,0,1,90,false,stim,false,0,1217,0,0,1,85316,task2,994702,false,false,1168,image-keyboard-response,18
true,11,1,2,0,false,q,true,false,0.0-2.0-0.38-0.342-3.342,0,0,1,90,false,stim,false,0,663,0,1,2,85316,task2,996886,false,false,1171,image-keyboard-response,19
true,11,0,2,0,true,q,false,true,0.0-2.0-0.38-0.343-3.343,0,0,1,81,false,stim,false,0,1571,0,1,2,85316,task2,999982,false,false,1174,image-keyboard-response,20
false,11,-1,2,1,false,z,true,false,0.0-2.0-0.38-0.344-3.344,0,0,1,,false,stim,false,2,,0,0,0,85316,task2,1004514,false,false,1177,image-keyboard-response,21
true,11,0,2,1,false,z,true,false,0.0-2.0-0.38-0.345-3.345,0,0,1,81,false,stim,false,2,560,0,0,0,85316,task2,1006607,false,false,1180,image-keyboard-response,22
false,11,-1,2,1,false,z,true,true,0.0-2.0-0.38-0.346-3.346,0,0,1,,false,stim,false,0,,0,0,1,85316,task2,1011154,false,true,1183,image-keyboard-response,23
true,11,2,2,0,false,q,true,true,0.0-2.0-0.38-0.347-3.347,0,0,1,68,false,stim,false,0,402,0,1,2,85316,task2,1013093,false,true,1186,image-keyboard-response,24
true,11,2,2,1,false,z,true,false,0.0-2.0-0.38-0.348-3.348,0,0,1,68,false,stim,false,0,675,0,0,1,85316,task2,1015302,false,false,1189,image-keyboard-response,25
true,11,1,2,1,true,z,false,true,0.0-2.0-0.38-0.349-3.349,0,0,1,90,false,stim,false,2,391,0,0,0,85316,task2,1017222,false,false,1192,image-keyboard-response,26
true,11,0,2,1,false,z,false,false,0.0-2.0-0.38-0.350-3.350,0,0,1,81,false,stim,true,0,573,0,0,1,85316,task2,1019317,false,false,1195,image-keyboard-response,27
true,11,1,2,1,true,z,false,true,0.0-2.0-0.39-0.351-3.351,0,0,1,90,false,stim,false,0,2435,0,0,1,85316,task2,1023286,false,false,1198,image-keyboard-response,28
true,11,2,2,0,false,q,true,false,0.0-2.0-0.39-0.352-3.352,0,0,1,68,false,stim,false,0,1308,0,0,2,85316,task2,1026151,false,false,1201,image-keyboard-response,29
true,11,1,2,1,true,z,false,true,0.0-2.0-0.39-0.353-3.353,0,0,1,90,false,stim,false,0,982,0,0,1,85316,task2,1028653,false,false,1204,image-keyboard-response,30
true,11,1,2,1,true,z,false,true,0.0-2.0-0.39-0.354-3.354,0,0,1,90,false,stim,false,0,443,0,0,1,85316,task2,1030622,false,false,1207,image-keyboard-response,31
true,11,0,2,1,false,z,true,false,0.0-2.0-0.39-0.355-3.355,0,0,1,81,false,stim,false,2,619,0,0,0,85316,task2,1032766,false,false,1210,image-keyboard-response,32
true,11,1,2,1,true,z,false,true,0.0-2.0-0.39-0.356-3.356,0,0,1,90,false,stim,false,2,1659,0,0,0,85316,task2,1035959,false,false,1213,image-keyboard-response,33
true,12,1,1,1,true,z,false,true,0.0-2.0-0.39-0.357-3.357,0,0,0,90,true,stim,false,0,336,0,0,2,85316,task2,1037822,false,false,1216,image-keyboard-response,1
true,12,1,1,1,true,z,false,false,0.0-2.0-0.39-0.358-3.358,0,0,0,90,false,stim,false,0,397,0,0,2,85316,task2,1039748,false,true,1219,image-keyboard-response,2
true,12,1,1,2,false,d,false,false,0.0-2.0-0.39-0.359-3.359,0,0,0,90,false,stim,true,1,741,0,0,0,85316,task2,1042014,false,false,1222,image-keyboard-response,3
true,12,2,1,2,true,d,false,true,0.0-2.0-0.40-0.360-3.360,0,0,0,68,false,stim,false,1,591,0,0,0,85316,task2,1044134,false,false,1225,image-keyboard-response,4
true,12,2,1,1,false,z,true,false,0.0-2.0-0.40-0.361-3.361,0,0,0,68,false,stim,false,0,1025,0,0,2,85316,task2,1046686,false,false,1228,image-keyboard-response,5
true,12,0,1,2,false,d,true,false,0.0-2.0-0.40-0.362-3.362,0,0,0,81,false,stim,false,1,1216,0,0,1,85316,task2,1049430,false,false,1231,image-keyboard-response,6
true,12,2,1,2,true,d,false,false,0.0-2.0-0.40-0.363-3.363,0,0,0,68,false,stim,false,1,886,0,0,1,85316,task2,1051853,false,true,1234,image-keyboard-response,7
true,12,1,1,2,false,d,false,false,0.0-2.0-0.40-0.364-3.364,0,0,0,90,false,stim,true,1,425,0,0,1,85316,task2,1053806,false,false,1237,image-keyboard-response,8
true,12,1,1,1,true,z,false,true,0.0-2.0-0.40-0.365-3.365,0,0,0,90,false,stim,false,0,1299,0,0,2,85316,task2,1056639,false,false,1240,image-keyboard-response,9
true,12,1,1,1,true,z,false,false,0.0-2.0-0.40-0.366-3.366,0,0,0,90,false,stim,false,0,530,0,0,2,85316,task2,1058702,false,true,1243,image-keyboard-response,10
true,12,2,1,2,true,d,false,true,0.0-2.0-0.40-0.367-3.367,0,0,0,68,false,stim,false,1,719,0,0,0,85316,task2,1060942,false,false,1246,image-keyboard-response,11
true,12,2,1,2,true,d,false,true,0.0-2.0-0.40-0.368-3.368,0,0,0,68,false,stim,false,1,583,0,0,0,85316,task2,1063046,false,false,1249,image-keyboard-response,12
true,12,2,1,1,false,z,true,false,0.0-2.0-0.41-0.369-3.369,0,0,0,68,false,stim,false,0,1433,0,0,2,85316,task2,1066013,false,false,1252,image-keyboard-response,13
true,12,1,1,2,false,d,false,false,0.0-2.0-0.41-0.370-3.370,0,0,0,90,false,stim,true,1,877,0,0,1,85316,task2,1068413,false,false,1255,image-keyboard-response,14
true,12,0,1,2,false,d,true,true,0.0-2.0-0.41-0.371-3.371,0,0,0,81,false,stim,false,1,795,0,0,1,85316,task2,1070733,false,true,1258,image-keyboard-response,15
true,12,0,1,2,false,d,true,true,0.0-2.0-0.41-0.372-3.372,0,0,0,81,false,stim,false,1,1322,0,0,0,85316,task2,1073581,false,true,1261,image-keyboard-response,16
true,12,2,1,1,false,z,true,false,0.0-2.0-0.41-0.373-3.373,0,0,0,68,false,stim,false,0,2208,0,0,2,85316,task2,1077301,false,false,1264,image-keyboard-response,17
true,12,0,1,2,false,d,true,false,0.0-2.0-0.41-0.374-3.374,0,0,0,81,false,stim,false,1,463,0,0,0,85316,task2,1079294,false,false,1267,image-keyboard-response,18
true,12,1,1,2,false,d,false,true,0.0-2.0-0.41-0.375-3.375,0,0,0,90,false,stim,true,1,492,0,0,0,85316,task2,1081310,false,true,1270,image-keyboard-response,19
true,12,1,1,1,true,z,false,true,0.0-2.0-0.41-0.376-3.376,0,0,0,90,false,stim,false,0,770,0,0,2,85316,task2,1083606,false,false,1273,image-keyboard-response,20
true,12,2,1,2,true,d,false,true,0.0-2.0-0.41-0.377-3.377,0,0,0,68,false,stim,false,1,354,0,0,1,85316,task2,1085493,false,false,1276,image-keyboard-response,21
true,12,2,1,1,false,z,true,false,0.0-2.0-0.42-0.378-3.378,0,0,0,68,false,stim,false,0,912,0,0,2,85316,task2,1087934,false,false,1279,image-keyboard-response,22
true,12,0,1,2,false,d,true,false,0.0-2.0-0.42-0.379-3.379,0,0,0,81,false,stim,false,1,544,0,0,0,85316,task2,1089998,false,false,1282,image-keyboard-response,23
true,12,1,1,2,false,d,false,false,0.0-2.0-0.42-0.380-3.380,0,0,0,90,false,stim,true,1,492,0,0,1,85316,task2,1092022,false,false,1285,image-keyboard-response,24
true,12,2,1,2,true,d,false,true,0.0-2.0-0.42-0.381-3.381,0,0,0,68,false,stim,false,1,380,0,0,1,85316,task2,1093926,false,false,1288,image-keyboard-response,25
true,12,2,1,1,false,z,true,false,0.0-2.0-0.42-0.382-3.382,0,0,0,68,false,stim,false,0,2236,0,0,2,85316,task2,1097685,false,false,1291,image-keyboard-response,26
true,12,0,1,1,false,z,false,false,0.0-2.0-0.42-0.383-3.383,0,0,0,81,false,stim,true,0,669,0,0,2,85316,task2,1099890,false,false,1294,image-keyboard-response,27
true,12,0,1,2,false,d,true,false,0.0-2.0-0.42-0.384-3.384,0,0,0,81,false,stim,false,1,1144,0,0,0,85316,task2,1102565,false,false,1297,image-keyboard-response,28
true,12,2,1,2,true,d,false,true,0.0-2.0-0.42-0.385-3.385,0,0,0,68,false,stim,false,1,858,0,0,1,85316,task2,1104951,false,false,1300,image-keyboard-response,29
true,12,1,1,2,false,d,false,false,0.0-2.0-0.42-0.386-3.386,0,0,0,90,false,stim,true,1,599,0,0,0,85316,task2,1107093,false,false,1303,image-keyboard-response,30
true,12,2,1,2,true,d,false,false,0.0-2.0-0.43-0.387-3.387,0,0,0,68,false,stim,false,1,415,0,0,0,85316,task2,1109030,false,true,1306,image-keyboard-response,31
true,12,0,1,2,false,d,true,false,0.0-2.0-0.43-0.388-3.388,0,0,0,81,false,stim,false,1,400,0,0,0,85316,task2,1110966,false,false,1309,image-keyboard-response,32
true,12,2,1,2,true,d,false,true,0.0-2.0-0.43-0.389-3.389,0,0,0,68,false,stim,false,1,634,0,0,1,85316,task2,1113134,false,false,1312,image-keyboard-response,33
true,12,2,1,2,true,d,false,true,0.0-2.0-0.43-0.390-3.390,0,0,0,68,false,stim,false,1,640,0,0,0,85316,task2,1115311,false,false,1315,image-keyboard-response,34
true,12,2,1,1,false,z,true,false,0.0-2.0-0.43-0.391-3.391,0,0,0,68,false,stim,false,0,470,0,0,2,85316,task2,1117311,false,false,1318,image-keyboard-response,35
true,12,0,1,1,false,z,false,false,0.0-2.0-0.43-0.392-3.392,0,0,0,81,false,stim,true,0,946,0,0,2,85316,task2,1119788,false,false,1321,image-keyboard-response,36
true,12,1,1,1,true,z,false,true,0.0-2.0-0.43-0.393-3.393,0,0,0,90,false,stim,false,0,400,0,0,2,85316,task2,1121711,false,false,1324,image-keyboard-response,37
true,13,2,1,0,false,q,false,false,0.0-2.0-0.43-0.394-3.394,0,0,0,68,true,stim,true,2,341,0,0,1,85316,task2,1123591,false,false,1327,image-keyboard-response,1
true,13,1,1,0,false,q,true,false,0.0-2.0-0.43-0.395-3.395,0,0,0,90,false,stim,false,2,481,0,0,1,85316,task2,1125598,false,false,1330,image-keyboard-response,2
true,13,2,1,0,false,q,false,false,0.0-2.0-0.44-0.396-3.396,0,0,0,68,false,stim,true,2,703,0,0,0,85316,task2,1127838,false,false,1333,image-keyboard-response,3
true,13,1,1,0,false,q,true,true,0.0-2.0-0.44-0.397-3.397,0,0,0,90,false,stim,false,2,1050,0,0,0,85316,task2,1130421,false,true,1336,image-keyboard-response,4
true,13,0,1,0,true,q,false,true,0.0-2.0-0.44-0.398-3.398,0,0,0,81,false,stim,false,2,561,0,0,1,85316,task2,1132501,false,false,1339,image-keyboard-response,5
true,13,1,1,2,false,d,false,true,0.0-2.0-0.44-0.399-3.399,0,0,0,90,false,stim,true,1,805,0,0,2,85316,task2,1134830,false,true,1342,image-keyboard-response,6
true,13,1,1,0,false,q,true,false,0.0-2.0-0.44-0.400-3.400,0,0,0,90,false,stim,false,2,981,0,0,1,85316,task2,1137342,false,false,1345,image-keyboard-response,7
true,13,1,1,2,false,d,false,false,0.0-2.0-0.44-0.401-3.401,0,0,0,90,false,stim,true,1,651,0,0,2,85316,task2,1139516,false,false,1348,image-keyboard-response,8
false,13,-1,1,0,false,q,true,false,0.0-2.0-0.44-0.402-3.402,0,0,0,,false,stim,false,2,,0,0,0,85316,task2,1144051,false,false,1351,image-keyboard-response,9
false,13,-1,1,2,false,d,true,false,0.0-2.0-0.44-0.403-3.403,0,0,0,,false,stim,false,1,,0,0,2,85316,task2,1148606,false,false,1354,image-keyboard-response,10
true,13,2,1,0,false,q,false,false,0.0-2.0-0.44-0.404-3.404,0,0,0,68,false,stim,true,2,1095,0,0,1,85316,task2,1151223,false,false,1357,image-keyboard-response,11
true,13,0,1,2,false,d,true,false,0.0-2.0-0.45-0.405-3.405,0,0,0,81,false,stim,false,1,1819,0,0,2,85316,task2,1154565,false,false,1360,image-keyboard-response,12
true,13,1,1,0,false,q,true,false,0.0-2.0-0.45-0.406-3.406,0,0,0,90,false,stim,false,2,1499,0,0,1,85316,task2,1157598,false,false,1363,image-keyboard-response,13
true,13,2,1,0,false,q,false,true,0.0-2.0-0.45-0.407-3.407,0,0,0,68,false,stim,true,2,396,0,0,1,85316,task2,1159534,false,true,1366,image-keyboard-response,14
true,13,2,1,0,false,q,false,false,0.0-2.0-0.45-0.408-3.408,0,0,0,68,false,stim,true,2,2525,0,0,0,85316,task2,1163581,false,false,1369,image-keyboard-response,15
true,13,0,1,0,true,q,false,true,0.0-2.0-0.45-0.409-3.409,0,0,0,81,false,stim,false,2,934,0,0,1,85316,task2,1166045,false,false,1372,image-keyboard-response,16
true,13,0,1,0,true,q,false,true,0.0-2.0-0.45-0.410-3.410,0,0,0,81,false,stim,false,2,603,0,0,0,85316,task2,1168181,false,false,1375,image-keyboard-response,17
false,13,-1,1,2,false,d,true,false,0.0-2.0-0.45-0.411-3.411,0,0,0,,false,stim,false,1,,0,0,2,85316,task2,1172728,false,false,1378,image-keyboard-response,18
true,13,1,1,2,false,d,false,false,0.0-2.0-0.45-0.412-3.412,0,0,0,90,false,stim,true,1,530,0,0,2,85316,task2,1174782,false,false,1381,image-keyboard-response,19
true,13,2,1,0,false,q,false,false,0.0-2.0-0.45-0.413-3.413,0,0,0,68,false,stim,true,2,694,0,0,0,85316,task2,1176998,false,false,1384,image-keyboard-response,20
true,13,2,1,2,true,d,false,true,0.0-2.0-0.46-0.414-3.414,0,0,0,68,false,stim,false,1,940,0,0,2,85316,task2,1179462,false,false,1387,image-keyboard-response,21
true,13,2,1,0,false,q,false,false,0.0-2.0-0.46-0.415-3.415,0,0,0,68,false,stim,true,2,1081,0,0,1,85316,task2,1182074,false,false,1390,image-keyboard-response,22
true,13,0,1,0,true,q,false,true,0.0-2.0-0.46-0.416-3.416,0,0,0,81,false,stim,false,2,1281,0,0,0,85316,task2,1184878,false,false,1393,image-keyboard-response,23
true,13,0,1,0,true,q,false,true,0.0-2.0-0.46-0.417-3.417,0,0,0,81,false,stim,false,2,412,0,0,0,85316,task2,1186831,false,false,1396,image-keyboard-response,24
true,13,1,1,0,false,q,true,false,0.0-2.0-0.46-0.418-3.418,0,0,0,90,false,stim,false,2,724,0,0,0,85316,task2,1189093,false,false,1399,image-keyboard-response,25
true,13,0,1,2,false,d,true,false,0.0-2.0-0.46-0.419-3.419,0,0,0,81,false,stim,false,1,791,0,0,2,85316,task2,1191430,false,false,1402,image-keyboard-response,26
true,13,0,1,0,true,q,false,true,0.0-2.0-0.46-0.420-3.420,0,0,0,81,false,stim,false,2,704,0,0,1,85316,task2,1193661,false,false,1405,image-keyboard-response,27
true,13,0,1,0,true,q,false,true,0.0-2.0-0.46-0.421-3.421,0,0,0,81,false,stim,false,2,340,0,0,1,85316,task2,1195533,false,false,1408,image-keyboard-response,28
true,13,2,1,2,true,d,false,true,0.0-2.0-0.46-0.422-3.422,0,0,0,68,false,stim,false,1,639,0,0,2,85316,task2,1197701,false,false,1411,image-keyboard-response,29
true,13,2,1,0,false,q,false,false,0.0-2.0-0.47-0.423-3.423,0,0,0,68,false,stim,true,2,1070,0,0,0,85316,task2,1200301,false,false,1414,image-keyboard-response,30
true,13,2,1,0,false,q,false,false,0.0-2.0-0.47-0.424-3.424,0,0,0,68,false,stim,true,2,413,0,0,1,85316,task2,1202245,false,false,1417,image-keyboard-response,31
true,13,0,1,0,true,q,false,true,0.0-2.0-0.47-0.425-3.425,0,0,0,81,false,stim,false,2,340,0,0,0,85316,task2,1204111,false,false,1420,image-keyboard-response,32
true,13,2,1,2,true,d,false,true,0.0-2.0-0.47-0.426-3.426,0,0,0,68,false,stim,false,1,1432,0,0,2,85316,task2,1207071,false,false,1423,image-keyboard-response,33
true,13,0,1,0,true,q,false,false,0.0-2.0-0.47-0.427-3.427,0,0,0,81,false,stim,false,2,453,0,0,0,85316,task2,1209062,false,true,1426,image-keyboard-response,34
true,13,2,1,0,false,q,false,false,0.0-2.0-0.47-0.428-3.428,0,0,0,68,false,stim,true,2,980,0,0,1,85316,task2,1211573,false,false,1429,image-keyboard-response,35
true,14,0,1,0,true,q,false,false,0.0-2.0-0.47-0.429-3.429,0,0,0,81,true,stim,false,2,343,0,0,2,85316,task2,1213438,false,true,1432,image-keyboard-response,1
true,14,2,1,0,false,q,false,false,0.0-2.0-0.47-0.430-3.430,0,0,0,68,false,stim,true,2,536,0,0,2,85316,task2,1215502,false,false,1435,image-keyboard-response,2
true,14,0,1,2,false,d,false,false,0.0-2.0-0.47-0.431-3.431,0,0,0,81,false,stim,true,0,509,0,0,1,85316,task2,1217542,false,false,1438,image-keyboard-response,3
true,14,0,1,2,false,d,false,false,0.0-2.0-0.48-0.432-3.432,0,0,0,81,false,stim,true,0,695,0,0,0,85316,task2,1219767,false,false,1441,image-keyboard-response,4
true,14,1,1,0,false,q,true,false,0.0-2.0-0.48-0.433-3.433,0,0,0,90,false,stim,false,2,829,0,0,2,85316,task2,1222134,false,false,1444,image-keyboard-response,5
true,14,0,1,2,false,d,false,false,0.0-2.0-0.48-0.434-3.434,0,0,0,81,false,stim,true,0,1388,0,0,0,85316,task2,1225046,false,false,1447,image-keyboard-response,6
true,14,2,1,2,true,d,false,true,0.0-2.0-0.48-0.435-3.435,0,0,0,68,false,stim,false,0,1068,0,0,0,85316,task2,1227643,false,false,1450,image-keyboard-response,7
true,14,1,1,2,false,d,true,true,0.0-2.0-0.48-0.436-3.436,0,0,0,90,false,stim,false,0,1057,0,0,1,85316,task2,1230221,false,true,1453,image-keyboard-response,8
true,14,2,1,0,false,q,false,false,0.0-2.0-0.48-0.437-3.437,0,0,0,68,false,stim,true,2,860,0,0,2,85316,task2,1232611,false,false,1456,image-keyboard-response,9
true,14,1,1,2,false,d,true,false,0.0-2.0-0.48-0.438-3.438,0,0,0,90,false,stim,false,0,581,0,0,1,85316,task2,1234718,false,false,1459,image-keyboard-response,10
true,14,2,1,2,true,d,false,true,0.0-2.0-0.48-0.439-3.439,0,0,0,68,false,stim,false,0,744,0,0,1,85316,task2,1236998,false,false,1462,image-keyboard-response,11
true,14,0,1,0,true,q,false,true,0.0-2.0-0.48-0.440-3.440,0,0,0,81,false,stim,false,2,892,0,0,2,85316,task2,1239414,false,false,1465,image-keyboard-response,12
true,14,2,1,2,true,d,false,true,0.0-2.0-0.49-0.441-3.441,0,0,0,68,false,stim,false,0,886,0,0,1,85316,task2,1241814,false,false,1468,image-keyboard-response,13
true,14,0,1,2,false,d,false,false,0.0-2.0-0.49-0.442-3.442,0,0,0,81,false,stim,true,0,368,0,0,1,85316,task2,1243714,false,false,1471,image-keyboard-response,14
true,14,2,1,2,true,d,false,true,0.0-2.0-0.49-0.443-3.443,0,0,0,68,false,stim,false,0,1178,0,0,1,85316,task2,1246421,false,false,1474,image-keyboard-response,15
true,14,2,1,2,true,d,false,true,0.0-2.0-0.49-0.444-3.444,0,0,0,68,false,stim,false,0,1516,0,0,0,85316,task2,1249462,false,false,1477,image-keyboard-response,16
true,14,2,1,0,false,q,false,false,0.0-2.0-0.49-0.445-3.445,0,0,0,68,false,stim,true,2,548,0,0,2,85316,task2,1251534,false,false,1480,image-keyboard-response,17
true,14,2,1,2,true,d,false,true,0.0-2.0-0.49-0.446-3.446,0,0,0,68,false,stim,false,0,532,0,0,0,85316,task2,1253590,false,false,1483,image-keyboard-response,18
true,14,2,1,2,true,d,false,true,0.0-2.0-0.49-0.447-3.447,0,0,0,68,false,stim,false,0,504,0,0,0,85316,task2,1255630,false,false,1486,image-keyboard-response,19
true,14,1,1,0,false,q,true,false,0.0-2.0-0.49-0.448-3.448,0,0,0,90,false,stim,false,2,790,0,0,2,85316,task2,1257951,false,false,1489,image-keyboard-response,20
true,14,0,1,0,true,q,false,true,0.0-2.0-0.49-0.449-3.449,0,0,0,81,false,stim,false,2,579,0,0,2,85316,task2,1260060,false,false,1492,image-keyboard-response,21
true,14,0,1,0,true,q,false,true,0.0-2.0-0.50-0.450-3.450,0,0,0,81,false,stim,false,2,903,0,0,2,85316,task2,1262486,false,false,1495,image-keyboard-response,22
true,14,2,1,2,true,d,false,true,0.0-2.0-0.50-0.451-3.451,0,0,0,68,false,stim,false,0,626,0,0,1,85316,task2,1264646,false,false,1498,image-keyboard-response,23
true,14,2,1,2,true,d,false,true,0.0-2.0-0.50-0.452-3.452,0,0,0,68,false,stim,false,0,627,0,0,0,85316,task2,1266821,false,false,1501,image-keyboard-response,24
true,14,2,1,2,true,d,false,true,0.0-2.0-0.50-0.453-3.453,0,0,0,68,false,stim,false,0,461,0,0,0,85316,task2,1268822,false,false,1504,image-keyboard-response,25
true,14,0,1,0,true,q,false,true,0.0-2.0-0.50-0.454-3.454,0,0,0,81,false,stim,false,2,812,0,0,2,85316,task2,1271164,false,false,1507,image-keyboard-response,26
true,14,0,1,0,true,q,false,false,0.0-2.0-0.50-0.455-3.455,0,0,0,81,false,stim,false,2,950,0,0,2,85316,task2,1273646,false,true,1510,image-keyboard-response,27
true,14,2,1,2,true,d,false,true,0.0-2.0-0.50-0.456-3.456,0,0,0,68,false,stim,false,0,561,0,0,0,85316,task2,1275742,false,false,1513,image-keyboard-response,28
true,14,2,1,2,true,d,false,true,0.0-2.0-0.50-0.457-3.457,0,0,0,68,false,stim,false,0,980,0,0,1,85316,task2,1278247,false,false,1516,image-keyboard-response,29
true,14,2,1,2,true,d,false,true,0.0-2.0-0.50-0.458-3.458,0,0,0,68,false,stim,false,0,522,0,0,1,85316,task2,1280293,false,false,1519,image-keyboard-response,30
true,14,1,1,0,false,q,true,false,0.0-2.0-0.51-0.459-3.459,0,0,0,90,false,stim,false,2,656,0,0,2,85316,task2,1282471,false,false,1522,image-keyboard-response,31
true,14,2,1,2,true,d,false,true,0.0-2.0-0.51-0.460-3.460,0,0,0,68,false,stim,false,0,1085,0,0,0,85316,task2,1285093,false,false,1525,image-keyboard-response,32
true,14,2,1,2,true,d,false,true,0.0-2.0-0.51-0.461-3.461,0,0,0,68,false,stim,false,0,498,0,0,1,85316,task2,1287126,false,false,1528,image-keyboard-response,33
true,14,2,1,2,true,d,false,true,0.0-2.0-0.51-0.462-3.462,0,0,0,68,false,stim,false,0,549,0,0,0,85316,task2,1289197,false,false,1531,image-keyboard-response,34
true,14,2,1,2,true,d,false,true,0.0-2.0-0.51-0.463-3.463,0,0,0,68,false,stim,false,0,354,0,0,0,85316,task2,1291086,false,false,1534,image-keyboard-response,35
true,14,2,1,0,false,q,false,false,0.0-2.0-0.51-0.464-3.464,0,0,0,68,false,stim,true,2,613,0,0,2,85316,task2,1293230,false,false,1537,image-keyboard-response,36
true,14,2,1,2,true,d,false,true,0.0-2.0-0.51-0.465-3.465,0,0,0,68,false,stim,false,0,648,0,0,1,85316,task2,1295398,false,false,1540,image-keyboard-response,37
true,15,2,1,1,false,z,true,true,0.0-2.0-0.51-0.466-3.466,0,0,0,68,true,stim,false,0,1772,0,0,2,85316,task2,1298694,false,true,1543,image-keyboard-response,1
true,15,2,1,1,false,z,false,false,0.0-2.0-0.51-0.467-3.467,0,0,0,68,false,stim,true,2,667,0,0,1,85316,task2,1300893,false,false,1546,image-keyboard-response,2
true,15,1,1,1,true,z,false,true,0.0-2.0-0.52-0.468-3.468,0,0,0,90,false,stim,false,2,552,0,0,1,85316,task2,1302981,false,false,1549,image-keyboard-response,3
true,15,1,1,1,true,z,false,true,0.0-2.0-0.52-0.469-3.469,0,0,0,90,false,stim,false,2,511,0,0,1,85316,task2,1305022,false,false,1552,image-keyboard-response,4
true,15,1,1,1,true,z,false,true,0.0-2.0-0.52-0.470-3.470,0,0,0,90,false,stim,false,2,1000,0,0,1,85316,task2,1307550,false,false,1555,image-keyboard-response,5
true,15,2,1,1,false,z,true,false,0.0-2.0-0.52-0.471-3.471,0,0,0,68,false,stim,false,0,1030,0,0,2,85316,task2,1310110,false,false,1558,image-keyboard-response,6
true,15,0,1,1,false,z,false,false,0.0-2.0-0.52-0.472-3.472,0,0,0,81,false,stim,true,0,716,0,0,2,85316,task2,1312358,false,false,1561,image-keyboard-response,7
true,15,2,1,0,false,q,false,false,0.0-2.0-0.52-0.473-3.473,0,0,0,68,false,stim,true,2,691,0,0,0,85316,task2,1314582,false,false,1564,image-keyboard-response,8
true,15,1,1,1,true,z,false,true,0.0-2.0-0.52-0.474-3.474,0,0,0,90,false,stim,false,0,375,0,0,2,85316,task2,1316485,false,false,1567,image-keyboard-response,9
true,15,1,1,0,false,q,true,false,0.0-2.0-0.52-0.475-3.475,0,0,0,90,false,stim,false,2,1055,0,0,0,85316,task2,1319067,false,false,1570,image-keyboard-response,10
true,15,0,1,0,true,q,false,false,0.0-2.0-0.52-0.476-3.476,0,0,0,81,false,stim,false,2,527,0,0,0,85316,task2,1321126,false,true,1573,image-keyboard-response,11
true,15,1,1,1,true,z,false,true,0.0-2.0-0.53-0.477-3.477,0,0,0,90,false,stim,false,2,680,0,0,1,85316,task2,1323330,false,false,1576,image-keyboard-response,12
true,15,1,1,0,false,q,true,false,0.0-2.0-0.53-0.478-3.478,0,0,0,90,false,stim,false,2,844,0,0,0,85316,task2,1325693,false,false,1579,image-keyboard-response,13
true,15,2,1,0,false,q,false,false,0.0-2.0-0.53-0.479-3.479,0,0,0,68,false,stim,true,2,457,0,0,0,85316,task2,1327678,false,false,1582,image-keyboard-response,14
true,15,0,1,0,true,q,false,true,0.0-2.0-0.53-0.480-3.480,0,0,0,81,false,stim,false,2,654,0,0,0,85316,task2,1329861,false,false,1585,image-keyboard-response,15
true,15,1,1,1,true,z,false,true,0.0-2.0-0.53-0.481-3.481,0,0,0,90,false,stim,false,2,958,0,0,1,85316,task2,1332351,false,false,1588,image-keyboard-response,16
true,15,1,1,1,true,z,false,true,0.0-2.0-0.53-0.482-3.482,0,0,0,90,false,stim,false,2,469,0,0,1,85316,task2,1334350,false,false,1591,image-keyboard-response,17
true,15,0,1,1,false,z,false,false,0.0-2.0-0.53-0.483-3.483,0,0,0,81,false,stim,true,0,476,0,0,2,85316,task2,1336358,false,false,1594,image-keyboard-response,18
true,15,1,1,1,true,z,false,false,0.0-2.0-0.53-0.484-3.484,0,0,0,90,false,stim,false,0,370,0,0,2,85316,task2,1338253,false,true,1597,image-keyboard-response,19
true,15,2,1,1,false,z,true,false,0.0-2.0-0.53-0.485-3.485,0,0,0,68,false,stim,false,0,271,0,0,2,85316,task2,1340053,false,false,1600,image-keyboard-response,20
true,15,0,1,0,true,q,false,true,0.0-2.0-0.54-0.486-3.486,0,0,0,81,false,stim,false,2,273,0,0,0,85316,task2,1341894,false,false,1603,image-keyboard-response,21
true,15,1,1,1,true,z,false,true,0.0-2.0-0.54-0.487-3.487,0,0,0,90,false,stim,false,2,823,0,0,1,85316,task2,1344245,false,false,1606,image-keyboard-response,22
true,15,0,1,1,false,z,false,false,0.0-2.0-0.54-0.488-3.488,0,0,0,81,false,stim,true,0,382,0,0,2,85316,task2,1346159,false,false,1609,image-keyboard-response,23
true,15,0,1,0,true,q,false,true,0.0-2.0-0.54-0.489-3.489,0,0,0,81,false,stim,false,2,1051,0,0,0,85316,task2,1348744,false,false,1612,image-keyboard-response,24
true,15,0,1,1,false,z,true,false,0.0-2.0-0.54-0.490-3.490,0,0,0,81,false,stim,false,2,1412,0,0,1,85316,task2,1351694,false,false,1615,image-keyboard-response,25
true,15,1,1,1,true,z,false,false,0.0-2.0-0.54-0.491-3.491,0,0,0,90,false,stim,false,2,412,0,0,1,85316,task2,1353630,false,true,1618,image-keyboard-response,26
true,15,2,1,1,false,z,true,false,0.0-2.0-0.54-0.492-3.492,0,0,0,68,false,stim,false,0,701,0,0,2,85316,task2,1355853,false,false,1621,image-keyboard-response,27
true,15,1,1,1,true,z,false,false,0.0-2.0-0.54-0.493-3.493,0,0,0,90,false,stim,false,0,474,0,0,2,85316,task2,1357863,false,true,1624,image-keyboard-response,28
true,15,0,1,0,true,q,false,true,0.0-2.0-0.54-0.494-3.494,0,0,0,81,false,stim,false,2,637,0,0,0,85316,task2,1360029,false,false,1627,image-keyboard-response,29
true,15,0,1,1,false,z,false,false,0.0-2.0-0.55-0.495-3.495,0,0,0,81,false,stim,true,0,330,0,0,2,85316,task2,1361886,false,false,1630,image-keyboard-response,30
true,15,0,1,0,true,q,false,true,0.0-2.0-0.55-0.496-3.496,0,0,0,81,false,stim,false,2,634,0,0,0,85316,task2,1364046,false,false,1633,image-keyboard-response,31
true,15,2,1,1,false,z,true,false,0.0-2.0-0.55-0.497-3.497,0,0,0,68,false,stim,false,0,1761,0,0,2,85316,task2,1367340,false,false,1636,image-keyboard-response,32
true,15,0,1,1,false,z,true,false,0.0-2.0-0.55-0.498-3.498,0,0,0,81,false,stim,false,2,1217,0,0,1,85316,task2,1370086,false,false,1639,image-keyboard-response,33
true,15,1,1,1,true,z,false,false,0.0-2.0-0.55-0.499-3.499,0,0,0,90,false,stim,false,2,377,0,0,1,85316,task2,1371997,false,true,1642,image-keyboard-response,34
true,15,2,1,1,false,z,false,false,0.0-2.0-0.55-0.500-3.500,0,0,0,68,false,stim,true,2,362,0,0,1,85316,task2,1373886,false,false,1645,image-keyboard-response,35
true,16,0,1,1,false,z,false,true,0.0-2.0-0.55-0.501-3.501,0,0,0,81,true,stim,true,0,620,0,0,0,85316,task2,1376031,false,true,1648,image-keyboard-response,1
true,16,0,1,1,false,z,false,false,0.0-2.0-0.55-0.502-3.502,0,0,0,81,false,stim,true,0,780,0,0,0,85316,task2,1378342,false,false,1651,image-keyboard-response,2
true,16,1,1,0,false,q,false,false,0.0-2.0-0.55-0.503-3.503,0,0,0,90,false,stim,true,1,1030,0,0,2,85316,task2,1380911,false,false,1654,image-keyboard-response,3
true,16,0,1,0,true,q,false,true,0.0-2.0-0.56-0.504-3.504,0,0,0,81,false,stim,false,1,900,0,0,1,85316,task2,1383350,false,false,1657,image-keyboard-response,4
true,16,0,1,0,true,q,false,true,0.0-2.0-0.56-0.505-3.505,0,0,0,81,false,stim,false,1,485,0,0,2,85316,task2,1385366,false,false,1660,image-keyboard-response,5
true,16,2,1,1,false,z,true,false,0.0-2.0-0.56-0.506-3.506,0,0,0,68,false,stim,false,0,309,0,0,0,85316,task2,1387213,false,false,1663,image-keyboard-response,6
true,16,0,1,0,true,q,false,true,0.0-2.0-0.56-0.507-3.507,0,0,0,81,false,stim,false,1,793,0,0,2,85316,task2,1389534,false,false,1666,image-keyboard-response,7
true,16,1,1,0,false,q,false,false,0.0-2.0-0.56-0.508-3.508,0,0,0,90,false,stim,true,1,545,0,0,2,85316,task2,1391605,false,false,1669,image-keyboard-response,8
true,16,0,1,0,true,q,false,true,0.0-2.0-0.56-0.509-3.509,0,0,0,81,false,stim,false,1,446,0,0,1,85316,task2,1393590,false,false,1672,image-keyboard-response,9
true,16,0,1,0,true,q,false,true,0.0-2.0-0.56-0.510-3.510,0,0,0,81,false,stim,false,1,757,0,0,1,85316,task2,1395871,false,false,1675,image-keyboard-response,10
true,16,1,1,1,true,z,false,true,0.0-2.0-0.56-0.511-3.511,0,0,0,90,false,stim,false,0,383,0,0,0,85316,task2,1397782,false,false,1678,image-keyboard-response,11
true,16,1,1,1,true,z,false,true,0.0-2.0-0.56-0.512-3.512,0,0,0,90,false,stim,false,0,471,0,0,0,85316,task2,1399790,false,false,1681,image-keyboard-response,12
true,16,0,1,0,true,q,false,true,0.0-2.0-0.57-0.513-3.513,0,0,0,81,false,stim,false,1,421,0,0,2,85316,task2,1401741,false,false,1684,image-keyboard-response,13
true,16,0,1,1,false,z,false,false,0.0-2.0-0.57-0.514-3.514,0,0,0,81,false,stim,true,0,368,0,0,0,85316,task2,1403640,false,false,1687,image-keyboard-response,14
true,16,0,1,1,false,z,false,false,0.0-2.0-0.57-0.515-3.515,0,0,0,81,false,stim,true,0,338,0,0,0,85316,task2,1405511,false,false,1690,image-keyboard-response,15
true,16,0,1,0,true,q,false,true,0.0-2.0-0.57-0.516-3.516,0,0,0,81,false,stim,false,1,756,0,0,1,85316,task2,1407798,false,false,1693,image-keyboard-response,16
true,16,1,1,0,false,q,false,false,0.0-2.0-0.57-0.517-3.517,0,0,0,90,false,stim,true,1,570,0,0,2,85316,task2,1409901,false,false,1696,image-keyboard-response,17
true,16,0,1,1,false,z,false,true,0.0-2.0-0.57-0.518-3.518,0,0,0,81,false,stim,true,0,437,0,0,0,85316,task2,1411870,false,true,1699,image-keyboard-response,18
true,16,1,1,0,false,q,false,true,0.0-2.0-0.57-0.519-3.519,0,0,0,90,false,stim,true,1,444,0,0,2,85316,task2,1413879,false,true,1702,image-keyboard-response,19
true,16,1,1,0,false,q,false,false,0.0-2.0-0.57-0.520-3.520,0,0,0,90,false,stim,true,1,667,0,0,1,85316,task2,1416070,false,false,1705,image-keyboard-response,20
true,16,2,1,0,false,q,true,false,0.0-2.0-0.57-0.521-3.521,0,0,0,68,false,stim,false,1,826,0,0,1,85316,task2,1418431,false,false,1708,image-keyboard-response,21
true,16,0,1,0,true,q,false,true,0.0-2.0-0.58-0.522-3.522,0,0,0,81,false,stim,false,1,563,0,0,1,85316,task2,1420519,false,false,1711,image-keyboard-response,22
true,16,0,1,0,true,q,false,true,0.0-2.0-0.58-0.523-3.523,0,0,0,81,false,stim,false,1,706,0,0,1,85316,task2,1422750,false,false,1714,image-keyboard-response,23
true,16,1,1,0,false,q,false,true,0.0-2.0-0.58-0.524-3.524,0,0,0,90,false,stim,true,1,759,0,0,2,85316,task2,1425038,false,true,1717,image-keyboard-response,24
true,16,0,1,1,false,z,false,false,0.0-2.0-0.58-0.525-3.525,0,0,0,81,false,stim,true,0,393,0,0,0,85316,task2,1426956,false,false,1720,image-keyboard-response,25
true,16,1,1,0,false,q,false,false,0.0-2.0-0.58-0.526-3.526,0,0,0,90,false,stim,true,1,558,0,0,2,85316,task2,1429038,false,false,1723,image-keyboard-response,26
true,16,1,1,1,true,z,false,true,0.0-2.0-0.58-0.527-3.527,0,0,0,90,false,stim,false,0,627,0,0,0,85316,task2,1431199,false,false,1726,image-keyboard-response,27
true,16,1,1,1,true,z,false,true,0.0-2.0-0.58-0.528-3.528,0,0,0,90,false,stim,false,0,491,0,0,0,85316,task2,1433228,false,false,1729,image-keyboard-response,28
true,16,2,1,0,false,q,true,false,0.0-2.0-0.58-0.529-3.529,0,0,0,68,false,stim,false,1,809,0,0,2,85316,task2,1435566,false,false,1732,image-keyboard-response,29
true,16,1,1,0,false,q,false,false,0.0-2.0-0.58-0.530-3.530,0,0,0,90,false,stim,true,1,2080,0,0,1,85316,task2,1439173,false,false,1735,image-keyboard-response,30
true,16,0,1,0,true,q,false,true,0.0-2.0-0.59-0.531-3.531,0,0,0,81,false,stim,false,1,533,0,0,1,85316,task2,1441230,false,false,1738,image-keyboard-response,31
true,16,0,1,0,true,q,false,true,0.0-2.0-0.59-0.532-3.532,0,0,0,81,false,stim,false,1,470,0,1,1,85316,task2,1443238,false,false,1741,image-keyboard-response,32
true,16,2,1,0,false,q,true,false,0.0-2.0-0.59-0.533-3.533,0,0,0,68,false,stim,false,1,892,0,1,2,85316,task2,1445662,false,false,1744,image-keyboard-response,33
true,16,1,1,1,true,z,false,true,0.0-2.0-0.59-0.534-3.534,0,0,0,90,false,stim,false,0,593,0,1,0,85316,task2,1447780,false,false,1747,image-keyboard-response,34
true,16,1,1,0,false,q,false,false,0.0-2.0-0.59-0.535-3.535,0,0,0,90,false,stim,true,1,798,0,1,2,85316,task2,1450105,false,false,1750,image-keyboard-response,35
true,16,0,1,0,true,q,false,false,0.0-2.0-0.59-0.536-3.536,0,0,0,81,false,stim,false,1,540,0,1,2,85316,task2,1452165,false,true,1753,image-keyboard-response,36
true,17,1,0,0,false,q,true,false,0.0-2.0-0.59-0.537-3.537,1,1,1,90,true,stim,false,0,2105,0,1,1,85316,task2,1550038,false,false,1850,image-keyboard-response,1
true,17,0,0,1,false,z,true,false,0.0-2.0-0.59-0.538-3.538,1,1,1,81,false,stim,false,1,732,0,1,0,85316,task2,1552303,false,false,1853,image-keyboard-response,2
true,17,2,0,1,false,z,true,false,0.0-2.0-0.59-0.539-3.539,1,1,1,68,false,stim,false,1,894,0,1,0,85316,task2,1554734,false,false,1856,image-keyboard-response,3
true,17,1,0,1,true,z,false,true,0.0-2.0-0.60-0.540-3.540,1,1,1,90,false,stim,false,1,599,0,1,0,85316,task2,1556854,false,false,1859,image-keyboard-response,4
true,17,2,0,0,false,q,true,false,0.0-2.0-0.60-0.541-3.541,1,1,1,68,false,stim,false,0,804,0,1,2,85316,task2,1559180,false,false,1862,image-keyboard-response,5
true,17,1,0,0,false,q,true,false,0.0-2.0-0.60-0.542-3.542,1,1,1,90,false,stim,false,0,733,0,1,1,85316,task2,1561446,false,false,1865,image-keyboard-response,6
true,17,1,0,0,false,q,true,false,0.0-2.0-0.60-0.543-3.543,1,1,1,90,false,stim,false,0,1510,0,1,2,85316,task2,1564491,false,false,1868,image-keyboard-response,7
true,17,0,0,0,true,q,false,true,0.0-2.0-0.60-0.544-3.544,1,1,1,81,false,stim,false,0,932,0,1,1,85316,task2,1566951,false,false,1871,image-keyboard-response,8
true,17,1,0,1,true,z,false,true,0.0-2.0-0.60-0.545-3.545,1,1,1,90,false,stim,false,1,548,0,0,0,85316,task2,1569037,false,false,1874,image-keyboard-response,9
true,17,0,0,0,true,q,false,true,0.0-2.0-0.60-0.546-3.546,1,1,1,81,false,stim,false,0,623,0,1,2,85316,task2,1571195,false,false,1877,image-keyboard-response,10
true,17,0,0,0,true,q,false,true,0.0-2.0-0.60-0.547-3.547,1,1,1,81,false,stim,false,0,507,0,0,1,85316,task2,1573213,false,false,1880,image-keyboard-response,11
true,17,1,0,1,true,z,false,true,0.0-2.0-0.60-0.548-3.548,1,1,1,90,false,stim,false,1,509,0,0,0,85316,task2,1575253,false,false,1883,image-keyboard-response,12
true,17,0,0,0,true,q,false,true,0.0-2.0-0.61-0.549-3.549,1,1,1,81,false,stim,false,0,480,0,0,1,85316,task2,1577261,false,false,1886,image-keyboard-response,13
true,18,1,2,0,false,q,false,false,0.0-2.0-0.61-0.550-3.550,0,0,1,90,true,stim,true,1,492,0,0,0,85316,task2,1579293,false,false,1889,image-keyboard-response,1
true,18,0,2,0,true,q,false,true,0.0-2.0-0.61-0.551-3.551,0,0,1,81,false,stim,false,1,643,0,0,0,85316,task2,1581461,false,false,1892,image-keyboard-response,2
true,18,0,2,0,true,q,false,true,0.0-2.0-0.61-0.552-3.552,0,0,1,81,false,stim,false,0,362,0,1,2,85316,task2,1583351,false,false,1895,image-keyboard-response,3
true,18,2,2,1,false,z,true,false,0.0-2.0-0.61-0.553-3.553,0,0,1,68,false,stim,false,0,819,0,0,1,85316,task2,1585711,false,false,1898,image-keyboard-response,4
true,18,0,2,1,false,z,false,false,0.0-2.0-0.61-0.554-3.554,0,0,1,81,false,stim,true,0,592,0,0,1,85316,task2,1587870,false,false,1901,image-keyboard-response,5
true,18,0,2,0,true,q,false,true,0.0-2.0-0.61-0.555-3.555,0,0,1,81,false,stim,false,1,893,0,0,0,85316,task2,1590286,false,false,1904,image-keyboard-response,6
true,18,0,2,0,true,q,false,true,0.0-2.0-0.61-0.556-3.556,0,0,1,81,false,stim,false,0,579,0,1,2,85316,task2,1592391,false,false,1907,image-keyboard-response,7
true,18,0,2,0,true,q,false,true,0.0-2.0-0.61-0.557-3.557,0,0,1,81,false,stim,false,0,1507,0,1,2,85316,task2,1595422,false,false,1910,image-keyboard-response,8
true,18,0,2,0,true,q,false,true,0.0-2.0-0.62-0.558-3.558,0,0,1,81,false,stim,false,0,485,0,1,2,85316,task2,1597438,false,false,1913,image-keyboard-response,9
true,18,1,2,1,true,z,false,false,0.0-2.0-0.62-0.559-3.559,0,0,1,90,false,stim,false,0,1067,0,0,1,85316,task2,1600038,false,true,1916,image-keyboard-response,10
true,18,0,2,0,true,q,false,true,0.0-2.0-0.62-0.560-3.560,0,0,1,81,false,stim,false,1,434,0,0,0,85316,task2,1602007,false,false,1919,image-keyboard-response,11
true,18,0,2,0,true,q,false,true,0.0-2.0-0.62-0.561-3.561,0,0,1,81,false,stim,false,0,647,0,1,2,85316,task2,1604189,false,false,1922,image-keyboard-response,12
true,18,0,2,0,true,q,false,true,0.0-2.0-0.62-0.562-3.562,0,0,1,81,false,stim,false,1,571,0,0,0,85316,task2,1606302,false,false,1925,image-keyboard-response,13
true,18,0,2,1,false,z,false,false,0.0-2.0-0.62-0.563-3.563,0,0,1,81,false,stim,true,0,372,0,0,1,85316,task2,1608203,false,false,1928,image-keyboard-response,14
true,18,0,2,0,true,q,false,true,0.0-2.0-0.62-0.564-3.564,0,0,1,81,false,stim,false,1,370,0,0,0,85316,task2,1610102,false,false,1931,image-keyboard-response,15
true,18,0,2,0,true,q,false,true,0.0-2.0-0.62-0.565-3.565,0,0,1,81,false,stim,false,0,378,0,1,2,85316,task2,1611998,false,false,1934,image-keyboard-response,16
true,18,2,2,1,false,z,true,false,0.0-2.0-0.62-0.566-3.566,0,0,1,68,false,stim,false,0,686,0,0,1,85316,task2,1614214,false,false,1937,image-keyboard-response,17
true,18,0,2,0,true,q,false,false,0.0-2.0-0.63-0.567-3.567,0,0,1,81,false,stim,false,1,400,0,0,0,85316,task2,1616142,false,true,1940,image-keyboard-response,18
true,18,0,2,0,true,q,false,true,0.0-2.0-0.63-0.568-3.568,0,0,1,81,false,stim,false,0,537,0,1,2,85316,task2,1618214,false,false,1943,image-keyboard-response,19
true,18,0,2,0,true,q,false,true,0.0-2.0-0.63-0.569-3.569,0,0,1,81,false,stim,false,0,623,0,1,2,85316,task2,1620366,false,false,1946,image-keyboard-response,20
true,18,2,2,1,false,z,true,false,0.0-2.0-0.63-0.570-3.570,0,0,1,68,false,stim,false,0,1124,0,0,1,85316,task2,1623022,false,false,1949,image-keyboard-response,21
true,18,0,2,0,true,q,false,true,0.0-2.0-0.63-0.571-3.571,0,0,1,81,false,stim,false,0,406,0,1,2,85316,task2,1624958,false,false,1952,image-keyboard-response,22
true,18,1,2,0,false,q,false,false,0.0-2.0-0.63-0.572-3.572,0,0,1,90,false,stim,true,1,752,0,0,0,85316,task2,1627237,false,false,1955,image-keyboard-response,23
true,18,2,2,0,false,q,true,true,0.0-2.0-0.63-0.573-3.573,0,0,1,68,false,stim,false,1,468,0,0,0,85316,task2,1629238,false,true,1958,image-keyboard-response,24
true,18,0,2,1,false,z,false,true,0.0-2.0-0.63-0.574-3.574,0,0,1,81,false,stim,true,0,1056,0,0,1,85316,task2,1631827,false,true,1961,image-keyboard-response,25
true,18,0,2,1,false,z,false,false,0.0-2.0-0.63-0.575-3.575,0,0,1,81,false,stim,true,0,413,0,0,1,85316,task2,1633774,false,false,1964,image-keyboard-response,26
true,18,1,2,1,true,z,false,true,0.0-2.0-0.64-0.576-3.576,0,0,1,90,false,stim,false,0,759,0,0,1,85316,task2,1636071,false,false,1967,image-keyboard-response,27
true,18,2,2,0,false,q,true,false,0.0-2.0-0.64-0.577-3.577,0,0,1,68,false,stim,false,1,570,0,0,0,85316,task2,1638171,false,false,1970,image-keyboard-response,28
true,18,1,2,1,true,z,false,false,0.0-2.0-0.64-0.578-3.578,0,0,1,90,false,stim,false,0,511,0,0,1,85316,task2,1640213,false,true,1973,image-keyboard-response,29
true,18,1,2,0,false,q,false,false,0.0-2.0-0.64-0.579-3.579,0,0,1,90,false,stim,true,1,792,0,0,0,85316,task2,1642526,false,false,1976,image-keyboard-response,30
true,18,0,2,0,true,q,false,false,0.0-2.0-0.64-0.580-3.580,0,0,1,81,false,stim,false,0,684,0,0,2,85316,task2,1644726,false,true,1979,image-keyboard-response,31
true,18,0,2,1,false,z,false,false,0.0-2.0-0.64-0.581-3.581,0,0,1,81,false,stim,true,0,1643,0,0,1,85316,task2,1647894,false,false,1982,image-keyboard-response,32
true,18,1,2,0,false,q,true,false,0.0-2.0-0.64-0.582-3.582,0,0,1,90,false,stim,false,0,693,0,0,2,85316,task2,1650118,false,false,1985,image-keyboard-response,33
true,19,2,1,2,true,d,false,true,0.0-2.0-0.64-0.583-3.583,0,0,0,68,true,stim,false,0,293,0,0,2,85316,task2,1651941,false,false,1988,image-keyboard-response,1
true,19,2,1,1,false,z,true,false,0.0-2.0-0.64-0.584-3.584,0,0,0,68,false,stim,false,0,606,0,0,0,85316,task2,1654086,false,false,1991,image-keyboard-response,2
true,19,2,1,2,true,d,false,true,0.0-2.0-0.65-0.585-3.585,0,0,0,68,false,stim,false,1,831,0,0,1,85316,task2,1656446,false,false,1994,image-keyboard-response,3
true,19,1,1,1,true,z,false,true,0.0-2.0-0.65-0.586-3.586,0,0,0,90,false,stim,false,0,852,0,0,0,85316,task2,1658830,false,false,1997,image-keyboard-response,4
true,19,1,1,1,true,z,false,true,0.0-2.0-0.65-0.587-3.587,0,0,0,90,false,stim,false,0,824,0,0,0,85316,task2,1661182,false,false,2000,image-keyboard-response,5
true,19,1,1,2,false,d,true,false,0.0-2.0-0.65-0.588-3.588,0,0,0,90,false,stim,false,0,942,0,0,2,85316,task2,1663678,false,false,2003,image-keyboard-response,6
true,19,0,1,2,false,d,false,true,0.0-2.0-0.65-0.589-3.589,0,0,0,81,false,stim,true,0,564,0,0,2,85316,task2,1665773,false,true,2006,image-keyboard-response,7
true,19,0,1,2,false,d,false,false,0.0-2.0-0.65-0.590-3.590,0,0,0,81,false,stim,true,0,548,0,0,2,85316,task2,1667846,false,false,2009,image-keyboard-response,8
true,19,1,1,1,true,z,false,true,0.0-2.0-0.65-0.591-3.591,0,0,0,90,false,stim,false,0,350,0,0,0,85316,task2,1669734,false,false,2012,image-keyboard-response,9
true,19,2,1,2,true,d,false,true,0.0-2.0-0.65-0.592-3.592,0,0,0,68,false,stim,false,1,852,0,0,1,85316,task2,1672118,false,false,2015,image-keyboard-response,10
true,19,2,1,2,true,d,false,true,0.0-2.0-0.65-0.593-3.593,0,0,0,68,false,stim,false,1,497,0,0,1,85316,task2,1674151,false,false,2018,image-keyboard-response,11
true,19,2,1,2,true,d,false,true,0.0-2.0-0.66-0.594-3.594,0,0,0,68,false,stim,false,1,470,0,0,1,85316,task2,1676141,false,false,2021,image-keyboard-response,12
true,19,2,1,1,false,z,true,false,0.0-2.0-0.66-0.595-3.595,0,0,0,68,false,stim,false,0,514,0,0,0,85316,task2,1678190,false,false,2024,image-keyboard-response,13
true,19,0,1,2,false,d,false,false,0.0-2.0-0.66-0.596-3.596,0,0,0,81,false,stim,true,0,438,0,0,2,85316,task2,1680165,false,false,2027,image-keyboard-response,14
true,19,1,1,2,false,d,true,false,0.0-2.0-0.66-0.597-3.597,0,0,0,90,false,stim,false,0,325,0,0,2,85316,task2,1682021,false,false,2030,image-keyboard-response,15
true,19,2,1,2,true,d,false,false,0.0-2.0-0.66-0.598-3.598,0,0,0,68,false,stim,false,1,496,0,0,1,85316,task2,1684046,false,true,2033,image-keyboard-response,16
true,19,1,1,2,false,d,false,false,0.0-2.0-0.66-0.599-3.599,0,0,0,90,false,stim,true,1,716,0,0,1,85316,task2,1686300,false,false,2036,image-keyboard-response,17
true,19,0,1,1,false,z,false,false,0.0-2.0-0.66-0.600-3.600,0,0,0,81,false,stim,true,0,400,0,0,0,85316,task2,1688237,false,false,2039,image-keyboard-response,18
false,19,-1,1,2,false,d,true,false,0.0-2.0-0.66-0.601-3.601,0,0,0,,false,stim,false,0,,0,0,2,85316,task2,1692773,false,false,2042,image-keyboard-response,19
true,19,2,1,1,false,z,true,false,0.0-2.0-0.66-0.602-3.602,0,0,0,68,false,stim,false,0,1024,0,0,0,85316,task2,1695333,false,false,2045,image-keyboard-response,20
true,19,1,1,2,false,d,true,false,0.0-2.0-0.67-0.603-3.603,0,0,0,90,false,stim,false,0,438,0,0,2,85316,task2,1697299,false,false,2048,image-keyboard-response,21
true,19,0,1,1,false,z,false,false,0.0-2.0-0.67-0.604-3.604,0,0,0,81,false,stim,true,0,294,0,0,0,85316,task2,1699123,false,false,2051,image-keyboard-response,22
true,19,0,1,2,false,d,false,false,0.0-2.0-0.67-0.605-3.605,0,0,0,81,false,stim,true,0,715,0,0,2,85316,task2,1701365,false,false,2054,image-keyboard-response,23
true,19,0,1,2,false,d,true,false,0.0-2.0-0.67-0.606-3.606,0,0,0,81,false,stim,false,1,832,0,0,1,85316,task2,1703719,false,false,2057,image-keyboard-response,24
true,19,1,1,2,false,d,false,false,0.0-2.0-0.67-0.607-3.607,0,0,0,90,false,stim,true,1,623,0,0,1,85316,task2,1705878,false,false,2060,image-keyboard-response,25
true,19,2,1,2,true,d,false,true,0.0-2.0-0.67-0.608-3.608,0,0,0,68,false,stim,false,1,332,0,0,1,85316,task2,1707741,false,false,2063,image-keyboard-response,26
true,19,2,1,1,false,z,true,false,0.0-2.0-0.67-0.609-3.609,0,0,0,68,false,stim,false,0,432,0,0,0,85316,task2,1709710,false,false,2066,image-keyboard-response,27
true,19,2,1,1,false,z,true,false,0.0-2.0-0.67-0.610-3.610,0,0,0,68,false,stim,false,0,271,0,0,0,85316,task2,1711518,false,false,2069,image-keyboard-response,28
true,19,2,1,2,true,d,false,false,0.0-2.0-0.67-0.611-3.611,0,0,0,68,false,stim,false,0,546,0,0,2,85316,task2,1713590,false,true,2072,image-keyboard-response,29
true,19,1,1,1,true,z,false,true,0.0-2.0-0.68-0.612-3.612,0,0,0,90,false,stim,false,0,688,0,0,0,85316,task2,1715806,false,false,2075,image-keyboard-response,30
true,19,1,1,2,false,d,true,false,0.0-2.0-0.68-0.613-3.613,0,0,0,90,false,stim,false,0,845,0,0,2,85316,task2,1718181,false,false,2078,image-keyboard-response,31
true,19,0,1,1,false,z,false,false,0.0-2.0-0.68-0.614-3.614,0,0,0,81,false,stim,true,0,862,0,0,0,85316,task2,1720566,false,false,2081,image-keyboard-response,32
true,19,0,1,2,false,d,false,false,0.0-2.0-0.68-0.615-3.615,0,0,0,81,false,stim,true,0,618,0,0,2,85316,task2,1722708,false,false,2084,image-keyboard-response,33
true,19,1,1,1,true,z,false,true,0.0-2.0-0.68-0.616-3.616,0,0,0,90,false,stim,false,0,459,0,0,0,85316,task2,1724701,false,false,2087,image-keyboard-response,34
true,19,0,1,2,false,d,true,false,0.0-2.0-0.68-0.617-3.617,0,0,0,81,false,stim,false,1,1119,0,0,1,85316,task2,1727350,false,false,2090,image-keyboard-response,35
true,19,0,1,2,false,d,false,false,0.0-2.0-0.68-0.618-3.618,0,0,0,81,false,stim,true,0,1076,0,1,2,85316,task2,1729958,false,false,2093,image-keyboard-response,36
true,19,1,1,2,false,d,false,false,0.0-2.0-0.68-0.619-3.619,0,0,0,90,false,stim,true,1,487,0,0,1,85316,task2,1731966,false,false,2096,image-keyboard-response,37
true,19,2,1,2,true,d,false,true,0.0-2.0-0.68-0.620-3.620,0,0,0,68,false,stim,false,1,342,0,0,1,85316,task2,1733846,false,false,2099,image-keyboard-response,38
true,20,2,2,2,true,d,false,true,0.0-2.0-0.69-0.621-3.621,0,0,1,68,true,stim,false,1,1227,0,0,0,85316,task2,1736630,false,false,2102,image-keyboard-response,1
true,20,0,2,2,false,d,true,false,0.0-2.0-0.69-0.622-3.622,0,0,1,81,false,stim,false,2,613,0,1,2,85316,task2,1738774,false,false,2105,image-keyboard-response,2
true,20,1,2,2,false,d,true,false,0.0-2.0-0.69-0.623-3.623,0,0,1,90,false,stim,false,2,566,0,1,2,85316,task2,1740877,false,false,2108,image-keyboard-response,3
true,20,1,2,1,true,z,false,true,0.0-2.0-0.69-0.624-3.624,0,0,1,90,false,stim,false,2,328,0,0,1,85316,task2,1742741,false,false,2111,image-keyboard-response,4
true,20,1,2,1,true,z,false,true,0.0-2.0-0.69-0.625-3.625,0,0,1,90,false,stim,false,2,667,0,0,1,85316,task2,1744933,false,false,2114,image-keyboard-response,5
true,20,1,2,2,false,d,false,false,0.0-2.0-0.69-0.626-3.626,0,0,1,90,false,stim,true,1,580,0,0,0,85316,task2,1747046,false,false,2117,image-keyboard-response,6
true,20,2,2,2,true,d,false,true,0.0-2.0-0.69-0.627-3.627,0,0,1,68,false,stim,false,2,1154,0,1,2,85316,task2,1749741,false,false,2120,image-keyboard-response,7
true,20,1,2,1,true,z,false,true,0.0-2.0-0.69-0.628-3.628,0,0,1,90,false,stim,false,2,660,0,0,1,85316,task2,1751933,false,false,2123,image-keyboard-response,8
true,20,2,2,2,true,d,false,true,0.0-2.0-0.69-0.629-3.629,0,0,1,68,false,stim,false,1,441,0,0,0,85316,task2,1753901,false,false,2126,image-keyboard-response,9
true,20,2,2,2,true,d,false,true,0.0-2.0-0.70-0.630-3.630,0,0,1,68,false,stim,false,2,681,0,1,2,85316,task2,1756109,false,false,2129,image-keyboard-response,10
true,20,2,2,2,true,d,false,true,0.0-2.0-0.70-0.631-3.631,0,0,1,68,false,stim,false,2,421,0,1,2,85316,task2,1758051,false,false,2132,image-keyboard-response,11
true,20,2,2,2,true,d,false,true,0.0-2.0-0.70-0.632-3.632,0,0,1,68,false,stim,false,1,995,0,0,0,85316,task2,1760572,false,false,2135,image-keyboard-response,12
true,20,2,2,1,false,z,false,false,0.0-2.0-0.70-0.633-3.633,0,0,1,68,false,stim,true,2,562,0,0,1,85316,task2,1762661,false,false,2138,image-keyboard-response,13
