answered,blockNum,choice,condition,corResp,correct,correct_response,explo,fb,internal_node_id,isStable_1,isStable_2,isStable_3,key_press,newBlock,part,persev,persevResp,rt,sessNum,stableAS,stimulus,subject,task,time_elapsed,training,trap,trial_index,trial_type,trialsInBlock
true,1,0,0,2,false,d,true,false,0.0-2.0-0.0-0.0-3.0,0,0,0,81,true,stim,false,-1,1264.7000000476837,1,0,0,85316,task1,146723,false,false,166,image-keyboard-response,1
true,1,2,0,0,false,q,true,true,0.0-2.0-0.0-0.1-3.1,0,0,0,68,false,stim,false,-1,759.5,1,0,2,85316,task1,149000,false,true,169,image-keyboard-response,2
true,1,1,0,2,false,d,true,false,0.0-2.0-0.0-0.2-3.2,0,0,0,90,false,stim,false,-1,525.5999999046326,1,0,0,85316,task1,151052,false,false,172,image-keyboard-response,3
true,1,2,0,2,true,d,false,false,0.0-2.0-0.0-0.3-3.3,0,0,0,68,false,stim,false,-1,1413.5,1,0,1,85316,task1,153987,false,true,175,image-keyboard-response,4
true,1,2,0,0,false,q,true,false,0.0-2.0-0.0-0.4-3.4,0,0,0,68,false,stim,false,-1,686.0,1,0,2,85316,task1,156192,false,false,178,image-keyboard-response,5
true,1,1,0,2,false,d,true,true,0.0-2.0-0.0-0.5-3.5,0,0,0,90,false,stim,false,-1,438.40000009536743,1,0,1,85316,task1,158146,false,true,181,image-keyboard-response,6
true,1,0,0,2,false,d,true,false,0.0-2.0-0.0-0.6-3.6,0,0,0,81,false,stim,false,-1,628.3999998569489,1,0,0,85316,task1,160301,false,false,184,image-keyboard-response,7
true,1,1,0,2,false,d,true,false,0.0-2.0-0.0-0.7-3.7,0,0,0,90,false,stim,false,-1,920.2999999523163,1,0,1,85316,task1,162742,false,false,187,image-keyboard-response,8
true,1,1,0,0,false,q,true,false,0.0-2.0-0.0-0.8-3.8,0,0,0,90,false,stim,false,-1,938.5,1,0,2,85316,task1,165208,false,false,190,image-keyboard-response,9
true,1,0,0,2,false,d,true,false,0.0-2.0-0.1-0.9-3.9,0,0,0,81,false,stim,false,-1,579.9000000953674,1,0,0,85316,task1,167314,false,false,193,image-keyboard-response,10
true,1,1,0,2,false,d,true,false,0.0-2.0-0.1-0.10-3.10,0,0,0,90,false,stim,false,-1,346.09999990463257,1,0,1,85316,task1,169167,false,false,196,image-keyboard-response,11
true,1,0,0,0,true,q,false,true,0.0-2.0-0.1-0.11-3.11,0,0,0,81,false,stim,false,-1,712.1999998092651,1,0,2,85316,task1,171413,false,false,199,image-keyboard-response,12
true,1,0,0,2,false,d,true,false,0.0-2.0-0.1-0.12-3.12,0,0,0,81,false,stim,false,-1,457.2999999523163,1,0,1,85316,task1,173392,false,false,202,image-keyboard-response,13
true,1,2,0,0,false,q,true,false,0.0-2.0-0.1-0.13-3.13,0,0,0,68,false,stim,false,-1,1459.1000001430511,1,0,2,85316,task1,176376,false,false,205,image-keyboard-response,14
true,1,1,0,0,false,q,true,true,0.0-2.0-0.1-0.14-3.14,0,0,0,90,false,stim,false,-1,294.10000014305115,1,0,2,85316,task1,178192,false,true,208,image-keyboard-response,15
true,1,0,0,2,false,d,true,false,0.0-2.0-0.1-0.15-3.15,0,0,0,81,false,stim,false,-1,1211.2999999523163,1,0,0,85316,task1,180925,false,false,211,image-keyboard-response,16
true,1,1,0,2,false,d,true,false,0.0-2.0-0.1-0.16-3.16,0,0,0,90,false,stim,false,-1,1154.7999999523163,1,0,0,85316,task1,183597,false,false,214,image-keyboard-response,17
true,1,1,0,2,false,d,true,false,0.0-2.0-0.1-0.17-3.17,0,0,0,90,false,stim,false,-1,587.7000000476837,1,0,1,85316,task1,185717,false,false,217,image-keyboard-response,18
true,1,0,0,2,false,d,true,false,0.0-2.0-0.2-0.18-3.18,0,0,0,81,false,stim,false,-1,1089.0,1,0,0,85316,task1,188318,false,false,220,image-keyboard-response,19
true,1,2,0,2,true,d,false,false,0.0-2.0-0.2-0.19-3.19,0,0,0,68,false,stim,false,-1,276.60000014305115,1,0,0,85316,task1,190115,false,true,223,image-keyboard-response,20
true,1,1,0,2,false,d,true,true,0.0-2.0-0.2-0.20-3.20,0,0,0,90,false,stim,false,-1,525.2999999523163,1,0,1,85316,task1,192158,false,true,226,image-keyboard-response,21
true,1,2,0,0,false,q,true,true,0.0-2.0-0.2-0.21-3.21,0,0,0,68,false,stim,false,-1,558.5999999046326,1,0,2,85316,task1,194245,false,true,229,image-keyboard-response,22
true,1,1,0,2,false,d,true,false,0.0-2.0-0.2-0.22-3.22,0,0,0,90,false,stim,false,-1,723.7999999523163,1,0,1,85316,task1,196495,false,false,232,image-keyboard-response,23
true,1,2,0,0,false,q,true,false,0.0-2.0-0.2-0.23-3.23,0,0,0,68,false,stim,false,-1,431.10000014305115,1,0,2,85316,task1,198452,false,false,235,image-keyboard-response,24
true,1,0,0,0,true,q,false,true,0.0-2.0-0.2-0.24-3.24,0,0,0,81,false,stim,false,-1,1089.8999998569489,1,0,2,85316,task1,201076,false,false,238,image-keyboard-response,25
true,1,0,0,2,false,d,true,false,0.0-2.0-0.2-0.25-3.25,0,0,0,81,false,stim,false,-1,522.0999999046326,1,0,0,85316,task1,203125,false,false,241,image-keyboard-response,26
true,2,2,1,1,false,z,false,true,0.0-2.0-0.2-0.26-3.26,0,0,0,68,true,stim,true,2,870.9000000953674,1,0,1,85316,task1,205508,false,true,244,image-keyboard-response,1
true,2,1,1,1,true,z,false,true,0.0-2.0-0.3-0.27-3.27,0,0,0,90,false,stim,false,2,1107.5,1,0,0,85316,task1,208127,false,false,247,image-keyboard-response,2
true,2,1,1,1,true,z,false,false,0.0-2.0-0.3-0.28-3.28,0,0,0,90,false,stim,false,2,555.0999999046326,1,0,0,85316,task1,210205,false,true,250,image-keyboard-response,3
true,2,2,1,2,true,d,false,true,0.0-2.0-0.3-0.29-3.29,0,0,0,68,false,stim,false,0,324.2999999523163,1,0,2,85316,task1,212057,false,false,253,image-keyboard-response,4
true,2,0,1,1,false,z,true,false,0.0-2.0-0.3-0.30-3.30,0,0,0,81,false,stim,false,2,715.7999999523163,1,0,0,85316,task1,214298,false,false,256,image-keyboard-response,5
true,2,0,1,1,false,z,true,false,0.0-2.0-0.3-0.31-3.31,0,0,0,81,false,stim,false,2,729.0999999046326,1,0,1,85316,task1,216561,false,false,259,image-keyboard-response,6
true,2,1,1,1,true,z,false,true,0.0-2.0-0.3-0.32-3.32,0,0,0,90,false,stim,false,2,1114.4000000953674,1,0,1,85316,task1,219194,false,false,262,image-keyboard-response,7
true,2,2,1,2,true,d,false,true,0.0-2.0-0.3-0.33-3.33,0,0,0,68,false,stim,false,0,918.6000001430511,1,0,2,85316,task1,221630,false,false,265,image-keyboard-response,8
true,2,2,1,2,true,d,false,true,0.0-2.0-0.3-0.34-3.34,0,0,0,68,false,stim,false,0,459.2999999523163,1,0,2,85316,task1,223621,false,false,268,image-keyboard-response,9
true,2,2,1,1,false,z,false,false,0.0-2.0-0.3-0.35-3.35,0,0,0,68,false,stim,true,2,1567.2000000476837,1,0,1,85316,task1,226711,false,false,271,image-keyboard-response,10
true,2,2,1,1,false,z,false,false,0.0-2.0-0.4-0.36-3.36,0,0,0,68,false,stim,true,2,828.7000000476837,1,0,0,85316,task1,229071,false,false,274,image-keyboard-response,11
true,2,1,1,1,true,z,false,true,0.0-2.0-0.4-0.37-3.37,0,0,0,90,false,stim,false,2,657.3999998569489,1,0,0,85316,task1,231234,false,false,277,image-keyboard-response,12
true,2,1,1,1,true,z,false,true,0.0-2.0-0.4-0.38-3.38,0,0,0,90,false,stim,false,2,557.3999998569489,1,0,1,85316,task1,233317,false,false,280,image-keyboard-response,13
true,2,1,1,1,true,z,false,true,0.0-2.0-0.4-0.39-3.39,0,0,0,90,false,stim,false,2,259.69999980926514,1,0,1,85316,task1,235099,false,false,283,image-keyboard-response,14
true,2,1,1,2,false,d,true,false,0.0-2.0-0.4-0.40-3.40,0,0,0,90,false,stim,false,0,999.5999999046326,1,0,2,85316,task1,237624,false,false,286,image-keyboard-response,15
true,2,0,1,2,false,d,false,false,0.0-2.0-0.4-0.41-3.41,0,0,0,81,false,stim,true,0,654.8999998569489,1,0,2,85316,task1,239805,false,false,289,image-keyboard-response,16
true,2,1,1,1,true,z,false,true,0.0-2.0-0.4-0.42-3.42,0,0,0,90,false,stim,false,2,843.1000001430511,1,0,1,85316,task1,242165,false,false,292,image-keyboard-response,17
true,2,2,1,2,true,d,false,true,0.0-2.0-0.4-0.43-3.43,0,0,0,68,false,stim,false,0,368.59999990463257,1,0,2,85316,task1,244057,false,false,295,image-keyboard-response,18
true,2,0,1,1,false,z,true,false,0.0-2.0-0.4-0.44-3.44,0,0,0,81,false,stim,false,2,708.0,1,0,0,85316,task1,246293,false,false,298,image-keyboard-response,19
true,2,2,1,2,true,d,false,true,0.0-2.0-0.5-0.45-3.45,0,0,0,68,false,stim,false,0,588.9000000953674,1,0,2,85316,task1,248394,false,false,301,image-keyboard-response,20
true,2,2,1,1,false,z,false,false,0.0-2.0-0.5-0.46-3.46,0,0,0,68,false,stim,true,2,598.0,1,0,0,85316,task1,250522,false,false,304,image-keyboard-response,21
true,2,1,1,1,true,z,false,true,0.0-2.0-0.5-0.47-3.47,0,0,0,90,false,stim,false,2,468.2000000476837,1,0,0,85316,task1,252525,false,false,307,image-keyboard-response,22
true,2,2,1,2,true,d,false,true,0.0-2.0-0.5-0.48-3.48,0,0,0,68,false,stim,false,0,425.39999985694885,1,0,2,85316,task1,254483,false,false,310,image-keyboard-response,23
true,2,1,1,1,true,z,false,true,0.0-2.0-0.5-0.49-3.49,0,0,0,90,false,stim,false,2,528.3000001907349,1,0,0,85316,task1,256534,false,false,313,image-keyboard-response,24
true,2,2,1,2,true,d,false,true,0.0-2.0-0.5-0.50-3.50,0,0,0,68,false,stim,false,0,448.2999999523163,1,0,2,85316,task1,258505,false,false,316,image-keyboard-response,25
true,2,1,1,1,true,z,false,true,0.0-2.0-0.5-0.51-3.51,0,0,0,90,false,stim,false,2,401.60000014305115,1,0,1,85316,task1,260439,false,false,319,image-keyboard-response,26
true,2,1,1,1,true,z,false,true,0.0-2.0-0.5-0.52-3.52,0,0,0,90,false,stim,false,2,746.9000000953674,1,0,1,85316,task1,262702,false,false,322,image-keyboard-response,27
true,2,1,1,1,true,z,false,true,0.0-2.0-0.5-0.53-3.53,0,0,0,90,false,stim,false,2,332.90000009536743,1,0,1,85316,task1,264553,false,false,325,image-keyboard-response,28
true,2,2,1,1,false,z,false,false,0.0-2.0-0.6-0.54-3.54,0,0,0,68,false,stim,true,2,1029.7000000476837,1,0,0,85316,task1,267101,false,false,328,image-keyboard-response,29
true,2,1,1,1,true,z,false,true,0.0-2.0-0.6-0.55-3.55,0,0,0,90,false,stim,false,2,421.89999985694885,1,0,1,85316,task1,269042,false,false,331,image-keyboard-response,30
true,2,1,1,1,true,z,false,true,0.0-2.0-0.6-0.56-3.56,0,0,0,90,false,stim,false,2,296.60000014305115,1,0,0,85316,task1,270865,false,false,334,image-keyboard-response,31
true,2,2,1,2,true,d,false,true,0.0-2.0-0.6-0.57-3.57,0,0,0,68,false,stim,false,0,550.5,1,0,2,85316,task1,272935,false,false,337,image-keyboard-response,32
true,2,2,1,2,true,d,false,true,0.0-2.0-0.6-0.58-3.58,0,0,0,68,false,stim,false,0,481.0,1,0,2,85316,task1,274948,false,false,340,image-keyboard-response,33
true,2,1,1,1,true,z,false,true,0.0-2.0-0.6-0.59-3.59,0,0,0,90,false,stim,false,2,813.7000000476837,1,0,1,85316,task1,277279,false,false,343,image-keyboard-response,34
true,2,1,1,1,true,z,false,true,0.0-2.0-0.6-0.60-3.60,0,0,0,90,false,stim,false,2,294.0,1,0,1,85316,task1,279093,false,false,346,image-keyboard-response,35
true,2,1,1,1,true,z,false,true,0.0-2.0-0.6-0.61-3.61,0,0,0,90,false,stim,false,2,532.5,1,0,0,85316,task1,281145,false,false,349,image-keyboard-response,36
true,2,1,1,2,false,d,true,false,0.0-2.0-0.6-0.62-3.62,0,0,0,90,false,stim,false,0,349.60000014305115,1,0,2,85316,task1,283030,false,false,352,image-keyboard-response,37
true,2,1,1,1,true,z,false,false,0.0-2.0-0.7-0.63-3.63,0,0,0,90,false,stim,false,2,453.0,1,0,0,85316,task1,285018,false,true,355,image-keyboard-response,38
true,2,1,1,1,true,z,false,true,0.0-2.0-0.7-0.64-3.64,0,0,0,90,false,stim,false,2,520.4000000953674,1,0,1,85316,task1,287067,false,false,358,image-keyboard-response,39
true,3,2,1,1,false,z,false,true,0.0-2.0-0.7-0.65-3.65,0,0,0,68,true,stim,true,2,565.3999998569489,1,0,2,85316,task1,289145,false,true,361,image-keyboard-response,1
true,3,2,1,1,false,z,false,false,0.0-2.0-0.7-0.66-3.66,0,0,0,68,false,stim,true,2,411.30000019073486,1,0,2,85316,task1,291087,false,false,364,image-keyboard-response,2
true,3,1,1,0,false,q,false,false,0.0-2.0-0.7-0.67-3.67,0,0,0,90,false,stim,true,1,492.7999999523163,1,0,1,85316,task1,293104,false,false,367,image-keyboard-response,3
true,3,0,1,2,false,d,true,false,0.0-2.0-0.7-0.68-3.68,0,0,0,81,false,stim,false,1,510.2999999523163,1,0,0,85316,task1,295121,false,false,370,image-keyboard-response,4
true,3,0,1,1,false,z,true,false,0.0-2.0-0.7-0.69-3.69,0,0,0,81,false,stim,false,2,300.10000014305115,1,0,2,85316,task1,296943,false,false,373,image-keyboard-response,5
true,3,0,1,2,false,d,true,false,0.0-2.0-0.7-0.70-3.70,0,0,0,81,false,stim,false,1,368.7000000476837,1,0,0,85316,task1,298844,false,false,376,image-keyboard-response,6
true,3,1,1,0,false,q,false,false,0.0-2.0-0.7-0.71-3.71,0,0,0,90,false,stim,true,1,1546.7999999523163,1,0,1,85316,task1,301920,false,false,379,image-keyboard-response,7
true,3,1,1,1,true,z,false,true,0.0-2.0-0.8-0.72-3.72,0,0,0,90,false,stim,false,2,890.2999999523163,1,0,2,85316,task1,304331,false,false,382,image-keyboard-response,8
true,3,1,1,2,false,d,false,true,0.0-2.0-0.8-0.73-3.73,0,0,0,90,false,stim,true,1,891.4000000953674,1,0,0,85316,task1,306747,false,true,385,image-keyboard-response,9
true,3,1,1,1,true,z,false,true,0.0-2.0-0.8-0.74-3.74,0,0,0,90,false,stim,false,2,757.2999999523163,1,0,2,85316,task1,309029,false,false,388,image-keyboard-response,10
true,3,1,1,0,false,q,false,false,0.0-2.0-0.8-0.75-3.75,0,0,0,90,false,stim,true,1,314.7000000476837,1,0,1,85316,task1,310876,false,false,391,image-keyboard-response,11
true,3,2,1,0,false,q,true,false,0.0-2.0-0.8-0.76-3.76,0,0,0,68,false,stim,false,1,476.09999990463257,1,0,1,85316,task1,312869,false,false,394,image-keyboard-response,12
true,3,0,1,0,true,q,false,true,0.0-2.0-0.8-0.77-3.77,0,0,0,81,false,stim,false,1,288.19999980926514,1,0,1,85316,task1,314680,false,false,397,image-keyboard-response,13
true,3,1,1,2,false,d,false,false,0.0-2.0-0.8-0.78-3.78,0,0,0,90,false,stim,true,1,319.2000000476837,1,0,0,85316,task1,316526,false,false,400,image-keyboard-response,14
true,3,1,1,1,true,z,false,true,0.0-2.0-0.8-0.79-3.79,0,0,0,90,false,stim,false,2,462.7999999523163,1,0,2,85316,task1,318514,false,false,403,image-keyboard-response,15
true,3,2,1,2,true,d,false,false,0.0-2.0-0.8-0.80-3.80,0,0,0,68,false,stim,false,1,691.0999999046326,1,0,0,85316,task1,320729,false,true,406,image-keyboard-response,16
true,3,0,1,0,true,q,false,false,0.0-2.0-0.9-0.81-3.81,0,0,0,81,false,stim,false,1,482.2000000476837,1,0,1,85316,task1,322738,false,true,409,image-keyboard-response,17
true,3,1,1,1,true,z,false,true,0.0-2.0-0.9-0.82-3.82,0,0,0,90,false,stim,false,2,321.09999990463257,1,0,2,85316,task1,324577,false,false,412,image-keyboard-response,18
true,3,0,1,0,true,q,false,true,0.0-2.0-0.9-0.83-3.83,0,0,0,81,false,stim,false,1,774.7999999523163,1,0,1,85316,task1,326865,false,false,415,image-keyboard-response,19
true,3,0,1,0,true,q,false,true,0.0-2.0-0.9-0.84-3.84,0,0,0,81,false,stim,false,1,481.0,1,0,1,85316,task1,328868,false,false,418,image-keyboard-response,20
true,3,1,1,1,true,z,false,true,0.0-2.0-0.9-0.85-3.85,0,0,0,90,false,stim,false,2,411.40000009536743,1,0,2,85316,task1,330813,false,false,421,image-keyboard-response,21
true,3,1,1,2,false,d,false,true,0.0-2.0-0.9-0.86-3.86,0,0,0,90,false,stim,true,1,851.2000000476837,1,0,0,85316,task1,333187,false,true,424,image-keyboard-response,22
true,3,1,1,2,false,d,false,false,0.0-2.0-0.9-0.87-3.87,0,0,0,90,false,stim,true,1,444.2000000476837,1,0,0,85316,task1,335162,false,false,427,image-keyboard-response,23
true,3,1,1,1,true,z,false,true,0.0-2.0-0.9-0.88-3.88,0,0,0,90,false,stim,false,2,2222.7000000476837,1,0,2,85316,task1,338908,false,false,430,image-keyboard-response,24
true,3,0,1,2,false,d,true,false,0.0-2.0-0.9-0.89-3.89,0,0,0,81,false,stim,false,1,329.10000014305115,1,0,0,85316,task1,340762,false,false,433,image-keyboard-response,25
true,3,1,1,0,false,q,false,false,0.0-2.0-0.10-0.90-3.90,0,0,0,90,false,stim,true,1,339.90000009536743,1,0,1,85316,task1,342623,false,false,436,image-keyboard-response,26
true,3,2,1,1,false,z,false,false,0.0-2.0-0.10-0.91-3.91,0,0,0,68,false,stim,true,2,269.10000014305115,1,0,2,85316,task1,344417,false,false,439,image-keyboard-response,27
true,3,2,1,0,false,q,true,false,0.0-2.0-0.10-0.92-3.92,0,0,0,68,false,stim,false,1,912.2999999523163,1,0,1,85316,task1,346861,false,false,442,image-keyboard-response,28
true,3,1,1,1,true,z,false,true,0.0-2.0-0.10-0.93-3.93,0,0,0,90,false,stim,false,2,256.40000009536743,1,0,2,85316,task1,348637,false,false,445,image-keyboard-response,29
true,3,0,1,2,false,d,true,false,0.0-2.0-0.10-0.94-3.94,0,0,0,81,false,stim,false,1,1175.1999998092651,1,0,0,85316,task1,351338,false,false,448,image-keyboard-response,30
true,3,1,1,1,true,z,false,true,0.0-2.0-0.10-0.95-3.95,0,0,0,90,false,stim,false,2,360.7999999523163,1,0,2,85316,task1,353222,false,false,451,image-keyboard-response,31
true,3,1,1,2,false,d,false,false,0.0-2.0-0.10-0.96-3.96,0,0,0,90,false,stim,true,1,451.09999990463257,1,0,0,85316,task1,355196,false,false,454,image-keyboard-response,32
true,3,2,1,2,true,d,false,true,0.0-2.0-0.10-0.97-3.97,0,0,0,68,false,stim,false,1,365.7000000476837,1,0,0,85316,task1,357093,false,false,457,image-keyboard-response,33
true,3,2,1,0,false,q,true,false,0.0-2.0-0.10-0.98-3.98,0,0,0,68,false,stim,false,1,682.2999999523163,1,0,1,85316,task1,359309,false,false,460,image-keyboard-response,34
true,3,1,1,2,false,d,false,false,0.0-2.0-0.11-0.99-3.99,0,0,0,90,false,stim,true,1,289.5,1,0,0,85316,task1,361131,false,false,463,image-keyboard-response,35
true,3,1,1,0,false,q,false,false,0.0-2.0-0.11-0.100-3.100,0,0,0,90,false,stim,true,1,1013.8999998569489,1,0,1,85316,task1,363673,false,false,466,image-keyboard-response,36
true,3,2,1,1,false,z,false,true,0.0-2.0-0.11-0.101-3.101,0,0,0,68,false,stim,true,2,613.3000001907349,1,0,2,85316,task1,365804,false,true,469,image-keyboard-response,37
true,3,2,1,1,false,z,false,false,0.0-2.0-0.11-0.102-3.102,0,0,0,68,false,stim,true,2,742.2999999523163,1,0,2,85316,task1,368066,false,false,472,image-keyboard-response,38
true,3,0,1,1,false,z,true,false,0.0-2.0-0.11-0.103-3.103,0,0,0,81,false,stim,false,2,607.5999999046326,1,0,2,85316,task1,370197,false,false,475,image-keyboard-response,39
true,3,0,1,2,false,d,true,false,0.0-2.0-0.11-0.104-3.104,0,0,0,81,false,stim,false,1,803.5999999046326,1,0,0,85316,task1,372512,false,false,478,image-keyboard-response,40
true,4,1,1,1,true,z,false,true,0.0-2.0-0.11-0.105-3.105,0,0,0,90,true,stim,false,0,521.2999999523163,1,0,1,85316,task1,374559,false,false,481,image-keyboard-response,1
true,4,1,1,0,false,q,true,false,0.0-2.0-0.11-0.106-3.106,0,0,0,90,false,stim,false,2,828.8999998569489,1,0,0,85316,task1,376916,false,false,484,image-keyboard-response,2
true,4,2,1,1,false,z,true,false,0.0-2.0-0.11-0.107-3.107,0,0,0,68,false,stim,false,0,342.5,1,0,1,85316,task1,378779,false,false,487,image-keyboard-response,3
true,4,1,1,1,true,z,false,true,0.0-2.0-0.12-0.108-3.108,0,0,0,90,false,stim,false,0,386.30000019073486,1,0,1,85316,task1,380689,false,false,490,image-keyboard-response,4
true,4,2,1,0,false,q,false,false,0.0-2.0-0.12-0.109-3.109,0,0,0,68,false,stim,true,2,805.3999998569489,1,0,0,85316,task1,383010,false,false,493,image-keyboard-response,5
true,4,1,1,0,false,q,false,false,0.0-2.0-0.12-0.110-3.110,0,0,0,90,false,stim,true,1,633.1999998092651,1,0,2,85316,task1,385166,false,false,496,image-keyboard-response,6
true,4,0,1,0,true,q,false,true,0.0-2.0-0.12-0.111-3.111,0,0,0,81,false,stim,false,2,459.7000000476837,1,0,0,85316,task1,387143,false,false,499,image-keyboard-response,7
true,4,2,1,1,false,z,true,false,0.0-2.0-0.12-0.112-3.112,0,0,0,68,false,stim,false,0,701.7000000476837,1,0,1,85316,task1,389369,false,false,502,image-keyboard-response,8
true,4,1,1,1,true,z,false,true,0.0-2.0-0.12-0.113-3.113,0,0,0,90,false,stim,false,0,610.5,1,0,1,85316,task1,391490,false,false,505,image-keyboard-response,9
true,4,2,1,0,false,q,true,false,0.0-2.0-0.12-0.114-3.114,0,0,0,68,false,stim,false,1,1136.2999999523163,1,0,2,85316,task1,394156,false,false,508,image-keyboard-response,10
true,4,0,1,0,true,q,false,true,0.0-2.0-0.12-0.115-3.115,0,0,0,81,false,stim,false,2,610.3999998569489,1,0,0,85316,task1,396293,false,false,511,image-keyboard-response,11
true,4,1,1,0,false,q,false,false,0.0-2.0-0.12-0.116-3.116,0,0,0,90,false,stim,true,1,451.5,1,0,2,85316,task1,398274,false,false,514,image-keyboard-response,12
true,4,0,1,0,true,q,false,true,0.0-2.0-0.13-0.117-3.117,0,0,0,81,false,stim,false,2,423.09999990463257,1,0,0,85316,task1,400203,false,false,517,image-keyboard-response,13
true,4,0,1,0,true,q,false,true,0.0-2.0-0.13-0.118-3.118,0,0,0,81,false,stim,false,2,401.89999985694885,1,0,0,85316,task1,402134,false,false,520,image-keyboard-response,14
true,4,1,1,1,true,z,false,true,0.0-2.0-0.13-0.119-3.119,0,0,0,90,false,stim,false,0,437.0,1,0,1,85316,task1,404100,false,false,523,image-keyboard-response,15
true,4,0,1,0,true,q,false,true,0.0-2.0-0.13-0.120-3.120,0,0,0,81,false,stim,false,1,590.2000000476837,1,0,2,85316,task1,406216,false,false,526,image-keyboard-response,16
true,4,1,1,1,true,z,false,true,0.0-2.0-0.13-0.121-3.121,0,0,0,90,false,stim,false,0,406.90000009536743,1,0,1,85316,task1,408150,false,false,529,image-keyboard-response,17
true,4,0,1,0,true,q,false,false,0.0-2.0-0.13-0.122-3.122,0,0,0,81,false,stim,false,1,382.80000019073486,1,0,2,85316,task1,410059,false,true,532,image-keyboard-response,18
true,4,1,1,0,false,q,false,false,0.0-2.0-0.13-0.123-3.123,0,0,0,90,false,stim,true,1,314.7999999523163,1,0,2,85316,task1,411908,false,false,535,image-keyboard-response,19
true,4,0,1,0,true,q,false,true,0.0-2.0-0.13-0.124-3.124,0,0,0,81,false,stim,false,2,826.0999999046326,1,0,0,85316,task1,414269,false,false,538,image-keyboard-response,20
true,4,1,1,1,true,z,false,true,0.0-2.0-0.13-0.125-3.125,0,0,0,90,false,stim,false,0,462.7999999523163,1,0,1,85316,task1,416255,false,false,541,image-keyboard-response,21
true,4,0,1,0,true,q,false,true,0.0-2.0-0.14-0.126-3.126,0,0,0,81,false,stim,false,2,530.5,1,0,0,85316,task1,418304,false,false,544,image-keyboard-response,22
true,4,1,1,0,false,q,false,false,0.0-2.0-0.14-0.127-3.127,0,0,0,90,false,stim,true,1,336.60000014305115,1,0,2,85316,task1,420159,false,false,547,image-keyboard-response,23
true,4,1,1,1,true,z,false,true,0.0-2.0-0.14-0.128-3.128,0,0,0,90,false,stim,false,0,531.0,1,0,1,85316,task1,422220,false,false,550,image-keyboard-response,24
true,4,1,1,1,true,z,false,true,0.0-2.0-0.14-0.129-3.129,0,0,0,90,false,stim,false,0,554.0,1,0,1,85316,task1,424291,false,false,553,image-keyboard-response,25
true,4,0,1,0,true,q,false,false,0.0-2.0-0.14-0.130-3.130,0,0,0,81,false,stim,false,2,604.1999998092651,1,0,0,85316,task1,426425,false,true,556,image-keyboard-response,26
true,4,2,1,0,false,q,false,false,0.0-2.0-0.14-0.131-3.131,0,0,0,68,false,stim,true,2,526.5,1,0,0,85316,task1,428480,false,false,559,image-keyboard-response,27
true,4,1,1,0,false,q,false,false,0.0-2.0-0.14-0.132-3.132,0,0,0,90,false,stim,true,1,303.89999985694885,1,0,2,85316,task1,430308,false,false,562,image-keyboard-response,28
true,4,2,1,0,false,q,true,false,0.0-2.0-0.14-0.133-3.133,0,0,0,68,false,stim,false,1,336.2999999523163,1,0,2,85316,task1,432173,false,false,565,image-keyboard-response,29
true,4,1,1,1,true,z,false,true,0.0-2.0-0.14-0.134-3.134,0,0,0,90,false,stim,false,0,805.6000001430511,1,0,1,85316,task1,434507,false,false,568,image-keyboard-response,30
true,4,1,1,1,true,z,false,true,0.0-2.0-0.15-0.135-3.135,0,0,0,90,false,stim,false,0,534.1000001430511,1,0,1,85316,task1,436568,false,false,571,image-keyboard-response,31
true,4,1,1,1,true,z,false,true,0.0-2.0-0.15-0.136-3.136,0,0,0,90,false,stim,false,0,370.10000014305115,1,0,1,85316,task1,438470,false,false,574,image-keyboard-response,32
true,4,1,1,0,false,q,true,true,0.0-2.0-0.15-0.137-3.137,0,0,0,90,false,stim,false,2,360.09999990463257,1,0,0,85316,task1,440344,false,true,577,image-keyboard-response,33
true,4,1,1,1,true,z,false,false,0.0-2.0-0.15-0.138-3.138,0,0,0,90,false,stim,false,0,285.90000009536743,1,0,1,85316,task1,442151,false,true,580,image-keyboard-response,34
true,4,1,1,0,false,q,true,false,0.0-2.0-0.15-0.139-3.139,0,0,0,90,false,stim,false,2,392.09999990463257,1,0,0,85316,task1,444072,false,false,583,image-keyboard-response,35
true,4,2,1,0,false,q,true,false,0.0-2.0-0.15-0.140-3.140,0,0,0,68,false,stim,false,1,471.80000019073486,1,0,2,85316,task1,446070,false,false,586,image-keyboard-response,36
true,4,0,1,0,true,q,false,true,0.0-2.0-0.15-0.141-3.141,0,0,0,81,false,stim,false,1,855.7999999523163,1,0,2,85316,task1,448437,false,false,589,image-keyboard-response,37
true,4,2,1,0,false,q,false,false,0.0-2.0-0.15-0.142-3.142,0,0,0,68,false,stim,true,2,478.60000014305115,1,0,0,85316,task1,450442,false,false,592,image-keyboard-response,38
true,4,0,1,0,true,q,false,true,0.0-2.0-0.15-0.143-3.143,0,0,0,81,false,stim,false,1,507.0,1,0,2,85316,task1,452470,false,false,595,image-keyboard-response,39
true,4,0,1,0,true,q,false,false,0.0-2.0-0.16-0.144-3.144,0,0,0,81,false,stim,false,1,695.3999998569489,1,0,2,85316,task1,454691,false,true,598,image-keyboard-response,40
true,4,0,1,1,false,z,false,false,0.0-2.0-0.16-0.145-3.145,0,0,0,81,false,stim,true,0,758.0,1,0,1,85316,task1,456975,false,false,601,image-keyboard-response,41
true,5,1,2,1,true,z,false,false,0.0-2.0-0.16-0.146-3.146,0,0,0,90,true,stim,false,0,383.30000019073486,1,0,2,85316,task1,458893,false,true,604,image-keyboard-response,1
true,5,2,2,0,false,q,true,false,0.0-2.0-0.16-0.147-3.147,0,0,0,68,false,stim,false,1,247.0,1,0,1,85316,task1,460655,false,false,607,image-keyboard-response,2
true,5,1,2,2,false,d,true,false,0.0-2.0-0.16-0.148-3.148,0,0,0,90,false,stim,false,0,492.60000014305115,1,0,0,85316,task1,462668,false,false,610,image-keyboard-response,3
true,5,0,2,0,true,q,false,true,0.0-2.0-0.16-0.149-3.149,0,0,0,81,false,stim,false,1,231.60000014305115,1,0,1,85316,task1,464426,false,false,613,image-keyboard-response,4
true,5,0,2,1,false,z,false,false,0.0-2.0-0.16-0.150-3.150,0,0,0,81,false,stim,true,0,813.3999998569489,1,0,2,85316,task1,466772,false,false,616,image-keyboard-response,5
true,5,2,2,2,true,d,false,true,0.0-2.0-0.16-0.151-3.151,0,0,0,68,false,stim,false,0,556.1000001430511,1,0,0,85316,task1,468846,false,false,619,image-keyboard-response,6
true,5,2,2,2,true,d,false,true,0.0-2.0-0.16-0.152-3.152,0,0,0,68,false,stim,false,0,373.30000019073486,1,0,0,85316,task1,470745,false,false,622,image-keyboard-response,7
true,5,2,2,0,false,q,true,false,0.0-2.0-0.17-0.153-3.153,0,0,0,68,false,stim,false,1,590.5,1,0,1,85316,task1,472863,false,false,625,image-keyboard-response,8
true,5,1,2,1,true,z,false,true,0.0-2.0-0.17-0.154-3.154,0,0,0,90,false,stim,false,0,448.80000019073486,1,0,2,85316,task1,474839,false,false,628,image-keyboard-response,9
true,5,2,2,2,true,d,false,true,0.0-2.0-0.17-0.155-3.155,0,0,0,68,false,stim,false,0,489.0,1,0,0,85316,task1,476860,false,false,631,image-keyboard-response,10
true,5,2,2,1,false,z,true,false,0.0-2.0-0.17-0.156-3.156,0,0,0,68,false,stim,false,0,414.2000000476837,1,0,2,85316,task1,478802,false,false,634,image-keyboard-response,11
true,5,0,2,2,false,d,false,false,0.0-2.0-0.17-0.157-3.157,0,0,0,81,false,stim,true,0,297.2000000476837,1,0,0,85316,task1,480634,false,false,637,image-keyboard-response,12
true,5,1,2,1,true,z,false,true,0.0-2.0-0.17-0.158-3.158,0,0,0,90,false,stim,false,0,247.79999995231628,1,0,2,85316,task1,482401,false,false,640,image-keyboard-response,13
true,5,1,2,0,false,q,false,false,0.0-2.0-0.17-0.159-3.159,0,0,0,90,false,stim,true,1,349.5,1,0,1,85316,task1,484268,false,false,643,image-keyboard-response,14
true,5,2,2,2,true,d,false,true,0.0-2.0-0.17-0.160-3.160,0,0,0,68,false,stim,false,0,189.5,1,0,0,85316,task1,485991,false,false,646,image-keyboard-response,15
true,5,2,2,0,false,q,true,false,0.0-2.0-0.17-0.161-3.161,0,0,0,68,false,stim,false,1,371.5,1,0,1,85316,task1,487889,false,false,649,image-keyboard-response,16
true,5,0,2,1,false,z,false,false,0.0-2.0-0.18-0.162-3.162,0,0,0,81,false,stim,true,0,555.8999998569489,1,0,2,85316,task1,489973,false,false,652,image-keyboard-response,17
true,5,1,2,2,false,d,true,false,0.0-2.0-0.18-0.163-3.163,0,0,0,90,false,stim,false,0,184.69999980926514,1,0,0,85316,task1,491684,false,false,655,image-keyboard-response,18
true,5,2,2,2,true,d,false,true,0.0-2.0-0.18-0.164-3.164,0,0,0,68,false,stim,false,0,232.90000009536743,1,0,0,85316,task1,493448,false,false,658,image-keyboard-response,19
true,5,2,2,0,false,q,true,false,0.0-2.0-0.18-0.165-3.165,0,0,0,68,false,stim,false,1,445.09999990463257,1,0,1,85316,task1,495425,false,false,661,image-keyboard-response,20
true,5,0,2,0,true,q,false,true,0.0-2.0-0.18-0.166-3.166,0,0,0,81,false,stim,false,1,387.10000014305115,1,0,1,85316,task1,497335,false,false,664,image-keyboard-response,21
true,5,0,2,1,false,z,false,false,0.0-2.0-0.18-0.167-3.167,0,0,0,81,false,stim,true,0,262.19999980926514,1,0,2,85316,task1,499123,false,false,667,image-keyboard-response,22
true,5,1,2,2,false,d,true,false,0.0-2.0-0.18-0.168-3.168,0,0,0,90,false,stim,false,0,218.20000004768372,1,0,0,85316,task1,500864,false,false,670,image-keyboard-response,23
true,5,2,2,0,false,q,true,false,0.0-2.0-0.18-0.169-3.169,0,0,0,68,false,stim,false,1,382.7000000476837,1,0,1,85316,task1,502763,false,false,673,image-keyboard-response,24
true,5,0,2,1,false,z,false,false,0.0-2.0-0.18-0.170-3.170,0,0,0,81,false,stim,true,0,309.2000000476837,1,0,2,85316,task1,504604,false,false,676,image-keyboard-response,25
true,5,1,2,1,true,z,false,true,0.0-2.0-0.19-0.171-3.171,0,0,0,90,false,stim,false,0,252.69999980926514,1,0,2,85316,task1,506382,false,false,679,image-keyboard-response,26
true,5,1,2,2,false,d,true,false,0.0-2.0-0.19-0.172-3.172,0,0,0,90,false,stim,false,0,272.89999985694885,1,0,0,85316,task1,508180,false,false,682,image-keyboard-response,27
true,5,2,2,0,false,q,true,false,0.0-2.0-0.19-0.173-3.173,0,0,0,68,false,stim,false,1,287.39999985694885,1,0,1,85316,task1,509997,false,false,685,image-keyboard-response,28
true,5,1,2,1,true,z,false,true,0.0-2.0-0.19-0.174-3.174,0,0,0,90,false,stim,false,0,598.3999998569489,1,0,2,85316,task1,512124,false,false,688,image-keyboard-response,29
true,5,0,2,0,true,q,false,true,0.0-2.0-0.19-0.175-3.175,0,0,0,81,false,stim,false,1,810.3000001907349,1,0,1,85316,task1,514469,false,false,691,image-keyboard-response,30
true,5,1,2,2,false,d,true,false,0.0-2.0-0.19-0.176-3.176,0,0,0,90,false,stim,false,0,1078.7000000476837,1,0,0,85316,task1,517071,false,false,694,image-keyboard-response,31
true,5,0,2,1,false,z,false,false,0.0-2.0-0.19-0.177-3.177,0,0,0,81,false,stim,true,0,334.0,1,0,2,85316,task1,518941,false,false,697,image-keyboard-response,32
true,5,2,2,2,true,d,false,true,0.0-2.0-0.19-0.178-3.178,0,0,0,68,false,stim,false,0,327.39999985694885,1,0,0,85316,task1,520784,false,false,700,image-keyboard-response,33
true,5,2,2,0,false,q,true,false,0.0-2.0-0.19-0.179-3.179,0,0,0,68,false,stim,false,1,725.5,1,0,1,85316,task1,523030,false,false,703,image-keyboard-response,34
true,5,1,2,0,false,q,false,false,0.0-2.0-0.20-0.180-3.180,0,0,0,90,false,stim,true,1,547.1999998092651,1,0,1,85316,task1,525102,false,false,706,image-keyboard-response,35
true,5,2,2,1,false,z,true,false,0.0-2.0-0.20-0.181-3.181,0,0,0,68,false,stim,false,0,302.5,1,0,2,85316,task1,526922,false,false,709,image-keyboard-response,36
true,5,1,2,2,false,d,true,false,0.0-2.0-0.20-0.182-3.182,0,0,0,90,false,stim,false,0,875.5999999046326,1,0,0,85316,task1,529328,false,false,712,image-keyboard-response,37
true,5,0,2,1,false,z,false,true,0.0-2.0-0.20-0.183-3.183,0,0,0,81,false,stim,true,0,213.20000004768372,1,0,2,85316,task1,531066,false,true,715,image-keyboard-response,38
true,5,0,2,1,false,z,false,false,0.0-2.0-0.20-0.184-3.184,0,0,0,81,false,stim,true,0,452.5,1,0,2,85316,task1,533037,false,false,718,image-keyboard-response,39
true,6,2,2,1,false,z,false,false,0.0-2.0-0.20-0.185-3.185,0,0,0,68,true,stim,true,2,277.0,1,0,0,85316,task1,534829,false,false,721,image-keyboard-response,1
true,6,2,2,1,false,z,true,false,0.0-2.0-0.20-0.186-3.186,0,0,0,68,false,stim,false,0,378.0,1,0,1,85316,task1,536728,false,false,724,image-keyboard-response,2
true,6,1,2,1,true,z,false,true,0.0-2.0-0.20-0.187-3.187,0,0,0,90,false,stim,false,2,320.59999990463257,1,0,0,85316,task1,538569,false,false,727,image-keyboard-response,3
true,6,1,2,1,true,z,false,true,0.0-2.0-0.20-0.188-3.188,0,0,0,90,false,stim,false,0,765.2999999523163,1,0,1,85316,task1,540864,false,false,730,image-keyboard-response,4
true,6,1,2,1,true,z,false,true,0.0-2.0-0.21-0.189-3.189,0,0,0,90,false,stim,false,0,385.5,1,0,1,85316,task1,542766,false,false,733,image-keyboard-response,5
true,6,1,2,2,false,d,false,false,0.0-2.0-0.21-0.190-3.190,0,0,0,90,false,stim,true,1,261.59999990463257,1,0,2,85316,task1,544544,false,false,736,image-keyboard-response,6
true,6,0,2,2,false,d,true,false,0.0-2.0-0.21-0.191-3.191,0,0,0,81,false,stim,false,1,245.29999995231628,1,0,2,85316,task1,546310,false,false,739,image-keyboard-response,7
true,6,1,2,1,true,z,false,true,0.0-2.0-0.21-0.192-3.192,0,0,0,90,false,stim,false,2,659.2000000476837,1,0,0,85316,task1,548490,false,false,742,image-keyboard-response,8
true,6,1,2,1,true,z,false,true,0.0-2.0-0.21-0.193-3.193,0,0,0,90,false,stim,false,2,936.0,1,0,0,85316,task1,550948,false,false,745,image-keyboard-response,9
true,6,1,2,2,false,d,false,false,0.0-2.0-0.21-0.194-3.194,0,0,0,90,false,stim,true,1,525.2000000476837,1,0,2,85316,task1,553003,false,false,748,image-keyboard-response,10
true,6,2,2,1,false,z,true,false,0.0-2.0-0.21-0.195-3.195,0,0,0,68,false,stim,false,0,245.30000019073486,1,0,1,85316,task1,554773,false,false,751,image-keyboard-response,11
true,6,0,2,1,false,z,true,false,0.0-2.0-0.21-0.196-3.196,0,0,0,81,false,stim,false,2,233.70000004768372,1,0,0,85316,task1,556528,false,false,754,image-keyboard-response,12
true,6,1,2,1,true,z,false,true,0.0-2.0-0.21-0.197-3.197,0,0,0,90,false,stim,false,0,390.7000000476837,1,0,1,85316,task1,558451,false,false,757,image-keyboard-response,13
true,6,1,2,1,true,z,false,true,0.0-2.0-0.22-0.198-3.198,0,0,0,90,false,stim,false,0,346.2999999523163,1,0,1,85316,task1,560324,false,false,760,image-keyboard-response,14
true,6,0,2,1,false,z,true,false,0.0-2.0-0.22-0.199-3.199,0,0,0,81,false,stim,false,2,759.0,1,0,0,85316,task1,562619,false,false,763,image-keyboard-response,15
true,6,1,2,1,true,z,false,false,0.0-2.0-0.22-0.200-3.200,0,0,0,90,false,stim,false,2,453.30000019073486,1,0,0,85316,task1,564594,false,true,766,image-keyboard-response,16
true,6,2,2,2,true,d,false,true,0.0-2.0-0.22-0.201-3.201,0,0,0,68,false,stim,false,1,348.0,1,0,2,85316,task1,566472,false,false,769,image-keyboard-response,17
true,6,2,2,2,true,d,false,true,0.0-2.0-0.22-0.202-3.202,0,0,0,68,false,stim,false,1,576.5999999046326,1,0,2,85316,task1,568569,false,false,772,image-keyboard-response,18
true,6,2,2,1,false,z,false,false,0.0-2.0-0.22-0.203-3.203,0,0,0,68,false,stim,true,2,676.5999999046326,1,0,0,85316,task1,570767,false,false,775,image-keyboard-response,19
true,6,1,2,1,true,z,false,true,0.0-2.0-0.22-0.204-3.204,0,0,0,90,false,stim,false,0,343.2000000476837,1,0,1,85316,task1,572647,false,false,778,image-keyboard-response,20
true,6,2,2,2,true,d,false,true,0.0-2.0-0.22-0.205-3.205,0,0,0,68,false,stim,false,1,596.5,1,0,2,85316,task1,574769,false,false,781,image-keyboard-response,21
true,6,0,2,1,false,z,false,false,0.0-2.0-0.22-0.206-3.206,0,0,0,81,false,stim,true,0,586.2000000476837,1,0,1,85316,task1,576890,false,false,784,image-keyboard-response,22
true,6,2,2,2,true,d,false,true,0.0-2.0-0.23-0.207-3.207,0,0,0,68,false,stim,false,1,331.59999990463257,1,0,2,85316,task1,578753,false,false,787,image-keyboard-response,23
true,6,1,2,2,false,d,false,true,0.0-2.0-0.23-0.208-3.208,0,0,0,90,false,stim,true,1,306.2000000476837,1,0,2,85316,task1,580594,false,true,790,image-keyboard-response,24
true,6,1,2,1,true,z,false,true,0.0-2.0-0.23-0.209-3.209,0,0,0,90,false,stim,false,2,310.7000000476837,1,0,0,85316,task1,582430,false,false,793,image-keyboard-response,25
true,6,1,2,1,true,z,false,true,0.0-2.0-0.23-0.210-3.210,0,0,0,90,false,stim,false,2,601.6000001430511,1,0,0,85316,task1,584538,false,false,796,image-keyboard-response,26
true,6,1,2,1,true,z,false,true,0.0-2.0-0.23-0.211-3.211,0,0,0,90,false,stim,false,0,387.5,1,0,1,85316,task1,586456,false,false,799,image-keyboard-response,27
true,6,1,2,1,true,z,false,true,0.0-2.0-0.23-0.212-3.212,0,0,0,90,false,stim,false,2,217.60000014305115,1,0,0,85316,task1,588203,false,false,802,image-keyboard-response,28
true,6,1,2,1,true,z,false,true,0.0-2.0-0.23-0.213-3.213,0,0,0,90,false,stim,false,0,176.29999995231628,1,0,1,85316,task1,589908,false,false,805,image-keyboard-response,29
true,6,1,2,1,true,z,false,true,0.0-2.0-0.23-0.214-3.214,0,0,0,90,false,stim,false,0,229.29999995231628,1,0,1,85316,task1,591662,false,false,808,image-keyboard-response,30
true,6,1,2,2,false,d,false,false,0.0-2.0-0.23-0.215-3.215,0,0,0,90,false,stim,true,1,264.60000014305115,1,0,2,85316,task1,593446,false,false,811,image-keyboard-response,31
true,6,2,2,2,true,d,false,true,0.0-2.0-0.24-0.216-3.216,0,0,0,68,false,stim,false,1,479.2999999523163,1,0,2,85316,task1,595444,false,false,814,image-keyboard-response,32
true,6,1,2,1,true,z,false,false,0.0-2.0-0.24-0.217-3.217,0,0,0,90,false,stim,false,2,691.8999998569489,1,0,0,85316,task1,597656,false,true,817,image-keyboard-response,33
true,6,0,2,1,false,z,false,false,0.0-2.0-0.24-0.218-3.218,0,0,0,81,false,stim,true,0,582.5,1,0,1,85316,task1,599763,false,false,820,image-keyboard-response,34
true,6,2,2,2,true,d,false,true,0.0-2.0-0.24-0.219-3.219,0,0,0,68,false,stim,false,1,482.89999985694885,1,0,2,85316,task1,601778,false,false,823,image-keyboard-response,35
true,6,2,2,2,true,d,false,true,0.0-2.0-0.24-0.220-3.220,0,0,0,68,false,stim,false,1,413.2000000476837,1,0,2,85316,task1,603724,false,false,826,image-keyboard-response,36
true,6,0,2,1,false,z,true,false,0.0-2.0-0.24-0.221-3.221,0,0,0,81,false,stim,false,2,1229.5,1,0,0,85316,task1,606475,false,false,829,image-keyboard-response,37
true,6,1,2,1,true,z,false,false,0.0-2.0-0.24-0.222-3.222,0,0,0,90,false,stim,false,0,439.10000014305115,1,0,1,85316,task1,608433,false,true,832,image-keyboard-response,38
true,6,2,2,1,false,z,false,false,0.0-2.0-0.24-0.223-3.223,0,0,0,68,false,stim,true,2,276.59999990463257,1,0,0,85316,task1,610234,false,false,835,image-keyboard-response,39
true,6,0,2,1,false,z,false,false,0.0-2.0-0.24-0.224-3.224,0,0,0,81,false,stim,true,0,778.0,1,0,1,85316,task1,612520,false,false,838,image-keyboard-response,40
true,6,1,2,1,true,z,false,true,0.0-2.0-0.25-0.225-3.225,0,0,0,90,false,stim,false,0,443.2000000476837,1,0,1,85316,task1,614467,false,false,841,image-keyboard-response,41
true,6,1,2,2,false,d,false,false,0.0-2.0-0.25-0.226-3.226,0,0,0,90,false,stim,true,1,914.8999998569489,1,0,2,85316,task1,616903,false,false,844,image-keyboard-response,42
true,7,2,2,2,true,d,false,true,0.0-2.0-0.25-0.227-3.227,0,0,0,68,true,stim,false,1,650.4000000953674,1,0,0,85316,task1,619073,false,false,847,image-keyboard-response,1
true,7,2,2,1,false,z,false,false,0.0-2.0-0.25-0.228-3.228,0,0,0,68,false,stim,true,2,744.2000000476837,1,0,2,85316,task1,621350,false,false,850,image-keyboard-response,2
true,7,1,2,2,false,d,false,false,0.0-2.0-0.25-0.229-3.229,0,0,0,90,false,stim,true,1,370.59999990463257,1,0,0,85316,task1,623242,false,false,853,image-keyboard-response,3
true,7,2,2,2,true,d,false,true,0.0-2.0-0.25-0.230-3.230,0,0,0,68,false,stim,false,1,565.7000000476837,1,0,0,85316,task1,625335,false,false,856,image-keyboard-response,4
true,7,1,2,0,false,q,false,false,0.0-2.0-0.25-0.231-3.231,0,0,0,90,false,stim,true,1,826.6000001430511,1,0,1,85316,task1,627696,false,false,859,image-keyboard-response,5
true,7,2,2,1,false,z,false,false,0.0-2.0-0.25-0.232-3.232,0,0,0,68,false,stim,true,2,301.90000009536743,1,0,2,85316,task1,629521,false,false,862,image-keyboard-response,6
true,7,0,2,0,true,q,false,true,0.0-2.0-0.25-0.233-3.233,0,0,0,81,false,stim,false,1,410.09999990463257,1,0,1,85316,task1,631460,false,false,865,image-keyboard-response,7
true,7,0,2,1,false,z,true,false,0.0-2.0-0.26-0.234-3.234,0,0,0,81,false,stim,false,2,541.0999999046326,1,0,2,85316,task1,633525,false,false,868,image-keyboard-response,8
true,7,1,2,0,false,q,false,true,0.0-2.0-0.26-0.235-3.235,0,0,0,90,false,stim,true,1,230.70000004768372,1,0,1,85316,task1,635280,false,true,871,image-keyboard-response,9
true,7,2,2,1,false,z,false,false,0.0-2.0-0.26-0.236-3.236,0,0,0,68,false,stim,true,2,358.0,1,0,2,85316,task1,637159,false,false,874,image-keyboard-response,10
true,7,1,2,0,false,q,false,false,0.0-2.0-0.26-0.237-3.237,0,0,0,90,false,stim,true,1,577.8000001907349,1,0,1,85316,task1,639261,false,false,877,image-keyboard-response,11
true,7,0,2,0,true,q,false,true,0.0-2.0-0.26-0.238-3.238,0,0,0,81,false,stim,false,1,1186.8999998569489,1,0,1,85316,task1,641966,false,false,880,image-keyboard-response,12
true,7,2,2,1,false,z,false,false,0.0-2.0-0.26-0.239-3.239,0,0,0,68,false,stim,true,2,593.7999999523163,1,0,2,85316,task1,644091,false,false,883,image-keyboard-response,13
true,7,0,2,2,false,d,true,false,0.0-2.0-0.26-0.240-3.240,0,0,0,81,false,stim,false,1,589.5,1,0,0,85316,task1,646204,false,false,886,image-keyboard-response,14
true,7,2,2,2,true,d,false,true,0.0-2.0-0.26-0.241-3.241,0,0,0,68,false,stim,false,1,558.5,1,0,0,85316,task1,648287,false,false,889,image-keyboard-response,15
true,7,1,2,2,false,d,false,false,0.0-2.0-0.26-0.242-3.242,0,0,0,90,false,stim,true,1,589.2000000476837,1,0,0,85316,task1,650401,false,false,892,image-keyboard-response,16
true,7,2,2,0,false,q,true,false,0.0-2.0-0.27-0.243-3.243,0,0,0,68,false,stim,false,1,961.7999999523163,1,0,1,85316,task1,652891,false,false,895,image-keyboard-response,17
true,7,1,2,0,false,q,false,false,0.0-2.0-0.27-0.244-3.244,0,0,0,90,false,stim,true,1,308.7999999523163,1,0,1,85316,task1,654720,false,false,898,image-keyboard-response,18
true,7,0,2,2,false,d,true,false,0.0-2.0-0.27-0.245-3.245,0,0,0,81,false,stim,false,1,162.5,1,0,0,85316,task1,656408,false,false,901,image-keyboard-response,19
true,7,1,2,1,true,z,false,true,0.0-2.0-0.27-0.246-3.246,0,0,0,90,false,stim,false,2,265.59999990463257,1,0,2,85316,task1,658208,false,false,904,image-keyboard-response,20
true,7,1,2,2,false,d,false,false,0.0-2.0-0.27-0.247-3.247,0,0,0,90,false,stim,true,1,772.0999999046326,1,0,0,85316,task1,660497,false,false,907,image-keyboard-response,21
true,7,1,2,0,false,q,false,true,0.0-2.0-0.27-0.248-3.248,0,0,0,90,false,stim,true,1,427.7999999523163,1,0,1,85316,task1,662436,false,true,910,image-keyboard-response,22
true,7,0,2,2,false,d,true,false,0.0-2.0-0.27-0.249-3.249,0,0,0,81,false,stim,false,1,546.5,1,0,0,85316,task1,664502,false,false,913,image-keyboard-response,23
true,7,1,2,1,true,z,false,true,0.0-2.0-0.27-0.250-3.250,0,0,0,90,false,stim,false,2,382.2000000476837,1,0,2,85316,task1,666405,false,false,916,image-keyboard-response,24
true,7,1,2,1,true,z,false,true,0.0-2.0-0.27-0.251-3.251,0,0,0,90,false,stim,false,2,368.30000019073486,1,0,2,85316,task1,668307,false,false,919,image-keyboard-response,25
true,7,1,2,1,true,z,false,false,0.0-2.0-0.28-0.252-3.252,0,0,0,90,false,stim,false,2,403.40000009536743,1,0,2,85316,task1,670239,false,true,922,image-keyboard-response,26
true,7,2,2,2,true,d,false,true,0.0-2.0-0.28-0.253-3.253,0,0,0,68,false,stim,false,1,891.0,1,0,0,85316,task1,672661,false,false,925,image-keyboard-response,27
true,7,2,2,0,false,q,true,false,0.0-2.0-0.28-0.254-3.254,0,0,0,68,false,stim,false,1,628.6000001430511,1,0,1,85316,task1,674815,false,false,928,image-keyboard-response,28
true,7,2,2,1,false,z,false,false,0.0-2.0-0.28-0.255-3.255,0,0,0,68,false,stim,true,2,522.4000000953674,1,0,2,85316,task1,676858,false,false,931,image-keyboard-response,29
true,7,1,2,0,false,q,false,false,0.0-2.0-0.28-0.256-3.256,0,0,0,90,false,stim,true,1,491.7000000476837,1,0,1,85316,task1,678878,false,false,934,image-keyboard-response,30
true,7,0,2,1,false,z,true,false,0.0-2.0-0.28-0.257-3.257,0,0,0,81,false,stim,false,2,963.0,1,0,2,85316,task1,681364,false,false,937,image-keyboard-response,31
true,7,0,2,2,false,d,true,false,0.0-2.0-0.28-0.258-3.258,0,0,0,81,false,stim,false,1,781.6000001430511,1,0,0,85316,task1,683665,false,false,940,image-keyboard-response,32
true,7,1,2,0,false,q,false,false,0.0-2.0-0.28-0.259-3.259,0,0,0,90,false,stim,true,1,369.0,1,0,1,85316,task1,685569,false,false,943,image-keyboard-response,33
true,7,2,2,2,true,d,false,true,0.0-2.0-0.28-0.260-3.260,0,0,0,68,false,stim,false,1,595.5999999046326,1,0,0,85316,task1,687694,false,false,946,image-keyboard-response,34
true,7,2,2,0,false,q,true,false,0.0-2.0-0.29-0.261-3.261,0,0,0,68,false,stim,false,1,656.0,1,0,1,85316,task1,689872,false,false,949,image-keyboard-response,35
true,7,1,2,1,true,z,false,true,0.0-2.0-0.29-0.262-3.262,0,0,0,90,false,stim,false,2,748.8000001907349,1,0,2,85316,task1,692147,false,false,952,image-keyboard-response,36
true,7,1,2,0,false,q,false,false,0.0-2.0-0.29-0.263-3.263,0,0,0,90,false,stim,true,1,328.90000009536743,1,0,1,85316,task1,694009,false,false,955,image-keyboard-response,37
true,7,0,2,1,false,z,true,false,0.0-2.0-0.29-0.264-3.264,0,0,0,81,false,stim,false,2,505.39999985694885,1,0,2,85316,task1,696035,false,false,958,image-keyboard-response,38
true,7,2,2,2,true,d,false,true,0.0-2.0-0.29-0.265-3.265,0,0,0,68,false,stim,false,1,385.39999985694885,1,0,0,85316,task1,697947,false,false,961,image-keyboard-response,39
true,7,2,2,2,true,d,false,true,0.0-2.0-0.29-0.266-3.266,0,0,0,68,false,stim,false,1,439.10000014305115,1,0,0,85316,task1,699918,false,false,964,image-keyboard-response,40
true,7,2,2,2,true,d,false,true,0.0-2.0-0.29-0.267-3.267,0,0,0,68,false,stim,false,1,388.2999999523163,1,0,0,85316,task1,701817,false,false,967,image-keyboard-response,41
true,7,1,2,1,true,z,false,true,0.0-2.0-0.29-0.268-3.268,0,0,0,90,false,stim,false,2,472.09999990463257,1,0,2,85316,task1,703817,false,false,970,image-keyboard-response,42
true,8,1,2,1,true,z,false,true,0.0-2.0-0.29-0.269-3.269,0,0,0,90,true,stim,false,0,532.7000000476837,1,0,1,85316,task1,705876,false,false,973,image-keyboard-response,1
true,8,1,2,1,true,z,false,true,0.0-2.0-0.30-0.270-3.270,0,0,0,90,false,stim,false,2,479.0,1,0,0,85316,task1,707873,false,false,976,image-keyboard-response,2
true,8,2,2,2,true,d,false,true,0.0-2.0-0.30-0.271-3.271,0,0,0,68,false,stim,false,1,371.5,1,0,2,85316,task1,709763,false,false,979,image-keyboard-response,3
true,8,0,2,1,false,z,false,false,0.0-2.0-0.30-0.272-3.272,0,0,0,81,false,stim,true,0,288.7999999523163,1,0,1,85316,task1,711581,false,false,982,image-keyboard-response,4
true,8,2,2,1,false,z,true,false,0.0-2.0-0.30-0.273-3.273,0,0,0,68,false,stim,false,0,258.60000014305115,1,0,1,85316,task1,713366,false,false,985,image-keyboard-response,5
true,8,1,2,1,true,z,false,true,0.0-2.0-0.30-0.274-3.274,0,0,0,90,false,stim,false,2,1867.5,1,0,0,85316,task1,716758,false,false,988,image-keyboard-response,6
true,8,1,2,2,false,d,false,false,0.0-2.0-0.30-0.275-3.275,0,0,0,90,false,stim,true,1,618.5,1,0,2,85316,task1,718908,false,false,991,image-keyboard-response,7
true,8,2,2,1,false,z,true,false,0.0-2.0-0.30-0.276-3.276,0,0,0,68,false,stim,false,0,763.2000000476837,1,0,1,85316,task1,721201,false,false,994,image-keyboard-response,8
true,8,0,2,2,false,d,true,false,0.0-2.0-0.30-0.277-3.277,0,0,0,81,false,stim,false,1,446.7999999523163,1,0,2,85316,task1,723170,false,false,997,image-keyboard-response,9
true,8,1,2,1,true,z,false,true,0.0-2.0-0.30-0.278-3.278,0,0,0,90,false,stim,false,2,189.29999995231628,1,0,0,85316,task1,724891,false,false,1000,image-keyboard-response,10
true,8,1,2,1,true,z,false,true,0.0-2.0-0.31-0.279-3.279,0,0,0,90,false,stim,false,0,645.5,1,0,1,85316,task1,727065,false,false,1003,image-keyboard-response,11
true,8,1,2,2,false,d,false,false,0.0-2.0-0.31-0.280-3.280,0,0,0,90,false,stim,true,1,339.2000000476837,1,0,2,85316,task1,728925,false,false,1006,image-keyboard-response,12
true,8,2,2,2,true,d,false,true,0.0-2.0-0.31-0.281-3.281,0,0,0,68,false,stim,false,1,322.2999999523163,1,0,2,85316,task1,730772,false,false,1009,image-keyboard-response,13
true,8,0,2,1,false,z,true,false,0.0-2.0-0.31-0.282-3.282,0,0,0,81,false,stim,false,2,434.2999999523163,1,0,0,85316,task1,732721,false,false,1012,image-keyboard-response,14
true,8,2,2,1,false,z,false,false,0.0-2.0-0.31-0.283-3.283,0,0,0,68,false,stim,true,2,896.8999998569489,1,0,0,85316,task1,735152,false,false,1015,image-keyboard-response,15
true,8,1,2,1,true,z,false,true,0.0-2.0-0.31-0.284-3.284,0,0,0,90,false,stim,false,0,289.90000009536743,1,0,1,85316,task1,736975,false,false,1018,image-keyboard-response,16
true,8,2,2,1,false,z,false,false,0.0-2.0-0.31-0.285-3.285,0,0,0,68,false,stim,true,2,989.1000001430511,1,0,0,85316,task1,739490,false,false,1021,image-keyboard-response,17
true,8,1,2,1,true,z,false,true,0.0-2.0-0.31-0.286-3.286,0,0,0,90,false,stim,false,0,896.3000001907349,1,0,1,85316,task1,741915,false,false,1024,image-keyboard-response,18
true,8,0,2,2,false,d,true,false,0.0-2.0-0.31-0.287-3.287,0,0,0,81,false,stim,false,1,2164.2000000476837,1,0,2,85316,task1,745599,false,false,1027,image-keyboard-response,19
true,8,2,2,1,false,z,false,false,0.0-2.0-0.32-0.288-3.288,0,0,0,68,false,stim,true,2,1719.5,1,0,0,85316,task1,748854,false,false,1030,image-keyboard-response,20
true,8,1,2,2,false,d,false,false,0.0-2.0-0.32-0.289-3.289,0,0,0,90,false,stim,true,1,594.4000000953674,1,0,2,85316,task1,750962,false,false,1033,image-keyboard-response,21
true,8,2,2,1,false,z,false,false,0.0-2.0-0.32-0.290-3.290,0,0,0,68,false,stim,true,2,210.89999985694885,1,0,0,85316,task1,752692,false,false,1036,image-keyboard-response,22
true,8,0,2,2,false,d,true,false,0.0-2.0-0.32-0.291-3.291,0,0,0,81,false,stim,false,1,258.2000000476837,1,0,2,85316,task1,754471,false,false,1039,image-keyboard-response,23
true,8,2,2,1,false,z,true,false,0.0-2.0-0.32-0.292-3.292,0,0,0,68,false,stim,false,0,525.5,1,0,1,85316,task1,756522,false,false,1042,image-keyboard-response,24
true,8,1,2,1,true,z,false,true,0.0-2.0-0.32-0.293-3.293,0,0,0,90,false,stim,false,0,204.40000009536743,1,0,1,85316,task1,758252,false,false,1045,image-keyboard-response,25
true,8,1,2,1,true,z,false,true,0.0-2.0-0.32-0.294-3.294,0,0,0,90,false,stim,false,0,294.7999999523163,1,0,1,85316,task1,760074,false,false,1048,image-keyboard-response,26
true,8,0,2,1,false,z,true,false,0.0-2.0-0.32-0.295-3.295,0,0,0,81,false,stim,false,2,451.7999999523163,1,0,0,85316,task1,762047,false,false,1051,image-keyboard-response,27
true,8,2,2,2,true,d,false,true,0.0-2.0-0.32-0.296-3.296,0,0,0,68,false,stim,false,1,485.10000014305115,1,0,2,85316,task1,764062,false,false,1054,image-keyboard-response,28
true,8,1,2,2,false,d,false,false,0.0-2.0-0.33-0.297-3.297,0,0,0,90,false,stim,true,1,488.90000009536743,1,0,2,85316,task1,766098,false,false,1057,image-keyboard-response,29
true,8,2,2,2,true,d,false,true,0.0-2.0-0.33-0.298-3.298,0,0,0,68,false,stim,false,1,233.29999995231628,1,0,2,85316,task1,767860,false,false,1060,image-keyboard-response,30
true,8,1,2,1,true,z,false,true,0.0-2.0-0.33-0.299-3.299,0,0,0,90,false,stim,false,0,465.40000009536743,1,0,1,85316,task1,769872,false,false,1063,image-keyboard-response,31
true,8,2,2,1,false,z,false,false,0.0-2.0-0.33-0.300-3.300,0,0,0,68,false,stim,true,2,439.40000009536743,1,0,0,85316,task1,771830,false,false,1066,image-keyboard-response,32
true,8,1,2,1,true,z,false,false,0.0-2.0-0.33-0.301-3.301,0,0,0,90,false,stim,false,0,491.2000000476837,1,0,1,85316,task1,773851,false,true,1069,image-keyboard-response,33
true,8,2,2,1,false,z,false,false,0.0-2.0-0.33-0.302-3.302,0,0,0,68,false,stim,true,2,528.7999999523163,1,0,0,85316,task1,775902,false,false,1072,image-keyboard-response,34
true,8,1,2,1,true,z,false,true,0.0-2.0-0.33-0.303-3.303,0,0,0,90,false,stim,false,0,329.10000014305115,1,0,1,85316,task1,777751,false,false,1075,image-keyboard-response,35
true,8,1,2,1,true,z,false,true,0.0-2.0-0.33-0.304-3.304,0,0,0,90,false,stim,false,2,692.6999998092651,1,0,0,85316,task1,779965,false,false,1078,image-keyboard-response,36
true,8,0,2,2,false,d,true,true,0.0-2.0-0.33-0.305-3.305,0,0,0,81,false,stim,false,1,861.0,1,0,2,85316,task1,782348,false,true,1081,image-keyboard-response,37
true,8,1,2,1,true,z,false,true,0.0-2.0-0.34-0.306-3.306,0,0,0,90,false,stim,false,2,313.10000014305115,1,0,0,85316,task1,784181,false,false,1084,image-keyboard-response,38
true,8,1,2,1,true,z,false,false,0.0-2.0-0.34-0.307-3.307,0,0,0,90,false,stim,false,0,327.89999985694885,1,0,1,85316,task1,786032,false,true,1087,image-keyboard-response,39
true,8,0,2,2,false,d,true,false,0.0-2.0-0.34-0.308-3.308,0,0,0,81,false,stim,false,1,314.7999999523163,1,0,2,85316,task1,787869,false,false,1090,image-keyboard-response,40
true,9,0,2,2,false,d,true,true,0.0-2.0-0.34-0.309-3.309,0,0,0,81,true,stim,false,1,502.90000009536743,1,0,0,85316,task1,789903,false,true,1093,image-keyboard-response,1
true,9,0,2,2,false,d,true,false,0.0-2.0-0.34-0.310-3.310,0,0,0,81,false,stim,false,1,569.9000000953674,1,0,0,85316,task1,792006,false,false,1096,image-keyboard-response,2
true,9,1,2,0,false,q,false,false,0.0-2.0-0.34-0.311-3.311,0,0,0,90,false,stim,true,1,1226.5,1,0,1,85316,task1,794774,false,false,1099,image-keyboard-response,3
true,9,1,2,1,true,z,false,true,0.0-2.0-0.34-0.312-3.312,0,0,0,90,false,stim,false,2,794.9000000953674,1,0,2,85316,task1,797089,false,false,1102,image-keyboard-response,4
true,9,1,2,1,true,z,false,true,0.0-2.0-0.34-0.313-3.313,0,0,0,90,false,stim,false,2,465.39999985694885,1,0,2,85316,task1,799076,false,false,1105,image-keyboard-response,5
true,9,1,2,0,false,q,false,false,0.0-2.0-0.34-0.314-3.314,0,0,0,90,false,stim,true,1,353.10000014305115,1,0,1,85316,task1,800948,false,false,1108,image-keyboard-response,6
true,9,2,2,1,false,z,false,false,0.0-2.0-0.35-0.315-3.315,0,0,0,68,false,stim,true,2,222.19999980926514,1,0,2,85316,task1,802699,false,false,1111,image-keyboard-response,7
true,9,0,2,0,true,q,false,true,0.0-2.0-0.35-0.316-3.316,0,0,0,81,false,stim,false,1,590.2999999523163,1,0,1,85316,task1,804816,false,false,1114,image-keyboard-response,8
true,9,0,2,1,false,z,true,false,0.0-2.0-0.35-0.317-3.317,0,0,0,81,false,stim,false,2,671.9000000953674,1,0,2,85316,task1,806998,false,false,1117,image-keyboard-response,9
true,9,1,2,2,false,d,false,false,0.0-2.0-0.35-0.318-3.318,0,0,0,90,false,stim,true,1,574.0999999046326,1,0,0,85316,task1,809099,false,false,1120,image-keyboard-response,10
true,9,0,2,0,true,q,false,true,0.0-2.0-0.35-0.319-3.319,0,0,0,81,false,stim,false,1,737.1999998092651,1,0,1,85316,task1,811346,false,false,1123,image-keyboard-response,11
true,9,2,2,1,false,z,false,false,0.0-2.0-0.35-0.320-3.320,0,0,0,68,false,stim,true,2,478.90000009536743,1,0,2,85316,task1,813353,false,false,1126,image-keyboard-response,12
true,9,1,2,2,false,d,false,false,0.0-2.0-0.35-0.321-3.321,0,0,0,90,false,stim,true,1,721.0999999046326,1,0,0,85316,task1,815595,false,false,1129,image-keyboard-response,13
true,9,1,2,0,false,q,false,false,0.0-2.0-0.35-0.322-3.322,0,0,0,90,false,stim,true,1,936.0999999046326,1,0,1,85316,task1,818061,false,false,1132,image-keyboard-response,14
true,9,0,2,2,false,d,true,false,0.0-2.0-0.35-0.323-3.323,0,0,0,81,false,stim,false,1,482.10000014305115,1,0,0,85316,task1,820071,false,false,1135,image-keyboard-response,15
true,9,1,2,2,false,d,false,false,0.0-2.0-0.36-0.324-3.324,0,0,0,90,false,stim,true,1,914.1000001430511,1,0,0,85316,task1,822519,false,false,1138,image-keyboard-response,16
true,9,1,2,1,true,z,false,true,0.0-2.0-0.36-0.325-3.325,0,0,0,90,false,stim,false,2,905.7999999523163,1,0,2,85316,task1,824960,false,false,1141,image-keyboard-response,17
true,9,1,2,1,true,z,false,true,0.0-2.0-0.36-0.326-3.326,0,0,0,90,false,stim,false,2,568.0,1,0,2,85316,task1,827056,false,false,1144,image-keyboard-response,18
true,9,1,2,0,false,q,false,false,0.0-2.0-0.36-0.327-3.327,0,0,0,90,false,stim,true,1,985.4000000953674,1,0,1,85316,task1,829572,false,false,1147,image-keyboard-response,19
true,9,2,2,0,false,q,true,false,0.0-2.0-0.36-0.328-3.328,0,0,0,68,false,stim,false,1,485.89999985694885,1,0,1,85316,task1,831587,false,false,1150,image-keyboard-response,20
true,9,1,2,1,true,z,false,true,0.0-2.0-0.36-0.329-3.329,0,0,0,90,false,stim,false,2,816.3000001907349,1,0,2,85316,task1,833934,false,false,1153,image-keyboard-response,21
true,9,2,2,2,true,d,false,true,0.0-2.0-0.36-0.330-3.330,0,0,0,68,false,stim,false,1,763.5,1,0,0,85316,task1,836231,false,false,1156,image-keyboard-response,22
true,9,0,2,0,true,q,false,true,0.0-2.0-0.36-0.331-3.331,0,0,0,81,false,stim,false,1,903.7999999523163,1,0,1,85316,task1,838670,false,false,1159,image-keyboard-response,23
true,9,2,2,2,true,d,false,true,0.0-2.0-0.36-0.332-3.332,0,0,0,68,false,stim,false,1,874.7000000476837,1,0,0,85316,task1,841073,false,false,1162,image-keyboard-response,24
true,9,1,2,1,true,z,false,false,0.0-2.0-0.37-0.333-3.333,0,0,0,90,false,stim,false,2,351.5,1,0,2,85316,task1,842951,false,true,1165,image-keyboard-response,25
true,9,0,2,2,false,d,true,false,0.0-2.0-0.37-0.334-3.334,0,0,0,81,false,stim,false,1,376.69999980926514,1,0,0,85316,task1,844856,false,false,1168,image-keyboard-response,26
true,9,2,2,0,false,q,true,false,0.0-2.0-0.37-0.335-3.335,0,0,0,68,false,stim,false,1,689.0,1,0,1,85316,task1,847069,false,false,1171,image-keyboard-response,27
true,9,1,2,1,true,z,false,true,0.0-2.0-0.37-0.336-3.336,0,0,0,90,false,stim,false,2,503.10000014305115,1,0,2,85316,task1,849102,false,false,1174,image-keyboard-response,28
true,9,1,2,0,false,q,false,false,0.0-2.0-0.37-0.337-3.337,0,0,0,90,false,stim,true,1,615.2000000476837,1,0,1,85316,task1,851242,false,false,1177,image-keyboard-response,29
true,9,2,2,2,true,d,false,true,0.0-2.0-0.37-0.338-3.338,0,0,0,68,false,stim,false,1,943.8000001907349,1,0,0,85316,task1,853713,false,false,1180,image-keyboard-response,30
true,9,2,2,1,false,z,false,false,0.0-2.0-0.37-0.339-3.339,0,0,0,68,false,stim,true,2,1125.9000000953674,1,0,2,85316,task1,856361,false,false,1183,image-keyboard-response,31
true,9,1,2,2,false,d,false,true,0.0-2.0-0.37-0.340-3.340,0,0,0,90,false,stim,true,1,376.7999999523163,1,0,0,85316,task1,858261,false,true,1186,image-keyboard-response,32
true,9,0,2,0,true,q,false,true,0.0-2.0-0.37-0.341-3.341,0,0,0,81,false,stim,false,1,730.7999999523163,1,0,1,85316,task1,860513,false,false,1189,image-keyboard-response,33
true,9,1,2,2,false,d,false,false,0.0-2.0-0.38-0.342-3.342,0,0,0,90,false,stim,true,1,530.4000000953674,1,0,0,85316,task1,862564,false,false,1192,image-keyboard-response,34
true,9,2,2,2,true,d,false,true,0.0-2.0-0.38-0.343-3.343,0,0,0,68,false,stim,false,1,615.2999999523163,1,0,0,85316,task1,864714,false,false,1195,image-keyboard-response,35
true,9,0,2,1,false,z,true,false,0.0-2.0-0.38-0.344-3.344,0,0,0,81,false,stim,false,2,499.09999990463257,1,0,2,85316,task1,866747,false,false,1198,image-keyboard-response,36
true,9,0,2,0,true,q,false,true,0.0-2.0-0.38-0.345-3.345,0,0,0,81,false,stim,false,1,538.5999999046326,1,0,1,85316,task1,868823,false,false,1201,image-keyboard-response,37
true,9,1,2,1,true,z,false,true,0.0-2.0-0.38-0.346-3.346,0,0,0,90,false,stim,false,2,225.40000009536743,1,0,2,85316,task1,870572,false,false,1204,image-keyboard-response,38
true,9,2,2,2,true,d,false,true,0.0-2.0-0.38-0.347-3.347,0,0,0,68,false,stim,false,1,577.6999998092651,1,0,0,85316,task1,872672,false,false,1207,image-keyboard-response,39
true,9,2,2,0,false,q,true,false,0.0-2.0-0.38-0.348-3.348,0,0,0,68,false,stim,false,1,505.30000019073486,1,0,1,85316,task1,874700,false,false,1210,image-keyboard-response,40
true,9,0,2,0,true,q,false,false,0.0-2.0-0.38-0.349-3.349,0,0,0,81,false,stim,false,1,269.7999999523163,1,0,1,85316,task1,876497,false,true,1213,image-keyboard-response,41
true,9,2,2,1,false,z,false,false,0.0-2.0-0.38-0.350-3.350,0,0,0,68,false,stim,true,2,486.0,1,0,2,85316,task1,878513,false,false,1216,image-keyboard-response,42
true,9,0,2,0,true,q,false,true,0.0-2.0-0.39-0.351-3.351,0,0,0,81,false,stim,false,1,245.70000004768372,1,0,1,85316,task1,880290,false,false,1219,image-keyboard-response,43
true,10,1,2,1,true,z,false,true,0.0-2.0-0.39-0.352-3.352,0,0,0,90,true,stim,false,2,297.19999980926514,1,0,0,85316,task1,882105,false,false,1222,image-keyboard-response,1
true,10,0,2,1,false,z,true,false,0.0-2.0-0.39-0.353-3.353,0,0,0,81,false,stim,false,2,293.5,1,0,0,85316,task1,883918,false,false,1225,image-keyboard-response,2
true,10,1,2,1,true,z,false,true,0.0-2.0-0.39-0.354-3.354,0,0,0,90,false,stim,false,2,418.0,1,0,0,85316,task1,885860,false,false,1228,image-keyboard-response,3
true,10,0,2,1,false,z,false,false,0.0-2.0-0.39-0.355-3.355,0,0,0,81,false,stim,true,0,895.5,1,0,1,85316,task1,888286,false,false,1231,image-keyboard-response,4
true,10,1,2,2,false,d,false,false,0.0-2.0-0.39-0.356-3.356,0,0,0,90,false,stim,true,1,308.5,1,0,2,85316,task1,890117,false,false,1234,image-keyboard-response,5
true,10,2,2,2,true,d,false,true,0.0-2.0-0.39-0.357-3.357,0,0,0,68,false,stim,false,1,333.7999999523163,1,0,2,85316,task1,891975,false,false,1237,image-keyboard-response,6
true,10,2,2,2,true,d,false,true,0.0-2.0-0.39-0.358-3.358,0,0,0,68,false,stim,false,1,424.2000000476837,1,0,2,85316,task1,893928,false,false,1240,image-keyboard-response,7
true,10,2,2,1,false,z,true,false,0.0-2.0-0.39-0.359-3.359,0,0,0,68,false,stim,false,0,913.7999999523163,1,0,1,85316,task1,896353,false,false,1243,image-keyboard-response,8
true,10,1,2,1,true,z,false,true,0.0-2.0-0.40-0.360-3.360,0,0,0,90,false,stim,false,0,273.2999999523163,1,0,1,85316,task1,898161,false,false,1246,image-keyboard-response,9
true,10,0,2,1,false,z,true,false,0.0-2.0-0.40-0.361-3.361,0,0,0,81,false,stim,false,2,369.30000019073486,1,0,0,85316,task1,900057,false,false,1249,image-keyboard-response,10
true,10,1,2,2,false,d,false,false,0.0-2.0-0.40-0.362-3.362,0,0,0,90,false,stim,true,1,402.2000000476837,1,0,2,85316,task1,901988,false,false,1252,image-keyboard-response,11
true,10,2,2,1,false,z,false,false,0.0-2.0-0.40-0.363-3.363,0,0,0,68,false,stim,true,2,240.5,1,0,0,85316,task1,903759,false,false,1255,image-keyboard-response,12
true,10,0,2,2,false,d,true,false,0.0-2.0-0.40-0.364-3.364,0,0,0,81,false,stim,false,1,222.20000004768372,1,0,2,85316,task1,905508,false,false,1258,image-keyboard-response,13
true,10,1,2,2,false,d,false,false,0.0-2.0-0.40-0.365-3.365,0,0,0,90,false,stim,true,1,295.19999980926514,1,0,2,85316,task1,907331,false,false,1261,image-keyboard-response,14
true,10,2,2,1,false,z,true,true,0.0-2.0-0.40-0.366-3.366,0,0,0,68,false,stim,false,0,244.5,1,0,1,85316,task1,909113,false,true,1264,image-keyboard-response,15
true,10,2,2,1,false,z,false,false,0.0-2.0-0.40-0.367-3.367,0,0,0,68,false,stim,true,2,536.2000000476837,1,0,0,85316,task1,911169,false,false,1267,image-keyboard-response,16
true,10,1,2,1,true,z,false,true,0.0-2.0-0.40-0.368-3.368,0,0,0,90,false,stim,false,0,206.5,1,0,1,85316,task1,912905,false,false,1270,image-keyboard-response,17
true,10,0,2,1,false,z,true,false,0.0-2.0-0.41-0.369-3.369,0,0,0,81,false,stim,false,2,482.5,1,0,0,85316,task1,914921,false,false,1273,image-keyboard-response,18
true,10,1,2,1,true,z,false,true,0.0-2.0-0.41-0.370-3.370,0,0,0,90,false,stim,false,0,261.2999999523163,1,0,1,85316,task1,916704,false,false,1276,image-keyboard-response,19
true,10,1,2,1,true,z,false,false,0.0-2.0-0.41-0.371-3.371,0,0,0,90,false,stim,false,0,265.59999990463257,1,0,1,85316,task1,918505,false,true,1279,image-keyboard-response,20
true,10,2,2,1,false,z,true,false,0.0-2.0-0.41-0.372-3.372,0,0,0,68,false,stim,false,0,229.69999980926514,1,0,1,85316,task1,920268,false,false,1282,image-keyboard-response,21
true,10,0,2,2,false,d,true,false,0.0-2.0-0.41-0.373-3.373,0,0,0,81,false,stim,false,1,261.60000014305115,1,0,2,85316,task1,922049,false,false,1285,image-keyboard-response,22
true,10,1,2,1,true,z,false,true,0.0-2.0-0.41-0.374-3.374,0,0,0,90,false,stim,false,2,343.90000009536743,1,0,0,85316,task1,923916,false,false,1288,image-keyboard-response,23
true,10,1,2,1,true,z,false,true,0.0-2.0-0.41-0.375-3.375,0,0,0,90,false,stim,false,2,477.7000000476837,1,0,0,85316,task1,925912,false,false,1291,image-keyboard-response,24
true,10,1,2,2,false,d,false,false,0.0-2.0-0.41-0.376-3.376,0,0,0,90,false,stim,true,1,269.5,1,0,2,85316,task1,927705,false,false,1294,image-keyboard-response,25
true,10,0,2,2,false,d,true,false,0.0-2.0-0.41-0.377-3.377,0,0,0,81,false,stim,false,1,96.70000004768372,1,0,2,85316,task1,929332,false,false,1297,image-keyboard-response,26
true,10,0,2,2,false,d,true,false,0.0-2.0-0.42-0.378-3.378,0,0,0,81,false,stim,false,1,401.2999999523163,1,0,2,85316,task1,931254,false,false,1300,image-keyboard-response,27
true,10,1,2,1,true,z,false,false,0.0-2.0-0.42-0.379-3.379,0,0,0,90,false,stim,false,0,322.59999990463257,1,0,1,85316,task1,933107,false,true,1303,image-keyboard-response,28
true,10,2,2,1,false,z,true,false,0.0-2.0-0.42-0.380-3.380,0,0,0,68,false,stim,false,0,221.5,1,0,1,85316,task1,934854,false,false,1306,image-keyboard-response,29
true,10,1,2,1,true,z,false,true,0.0-2.0-0.42-0.381-3.381,0,0,0,90,false,stim,false,0,746.4000000953674,1,0,1,85316,task1,937128,false,false,1309,image-keyboard-response,30
true,10,1,2,1,true,z,false,true,0.0-2.0-0.42-0.382-3.382,0,0,0,90,false,stim,false,2,327.40000009536743,1,0,0,85316,task1,938975,false,false,1312,image-keyboard-response,31
true,10,1,2,2,false,d,false,false,0.0-2.0-0.42-0.383-3.383,0,0,0,90,false,stim,true,1,325.40000009536743,1,0,2,85316,task1,940829,false,false,1315,image-keyboard-response,32
true,10,0,2,1,false,z,true,false,0.0-2.0-0.42-0.384-3.384,0,0,0,81,false,stim,false,2,217.79999995231628,1,0,0,85316,task1,942564,false,false,1318,image-keyboard-response,33
true,10,2,2,1,false,z,false,false,0.0-2.0-0.42-0.385-3.385,0,0,0,68,false,stim,true,2,217.09999990463257,1,0,0,85316,task1,944301,false,false,1321,image-keyboard-response,34
true,10,1,2,2,false,d,false,false,0.0-2.0-0.42-0.386-3.386,0,0,0,90,false,stim,true,1,349.60000014305115,1,0,2,85316,task1,946161,false,false,1324,image-keyboard-response,35
true,10,0,2,1,false,z,false,false,0.0-2.0-0.43-0.387-3.387,0,0,0,81,false,stim,true,0,243.30000019073486,1,0,1,85316,task1,947939,false,false,1327,image-keyboard-response,36
true,10,1,2,1,true,z,false,true,0.0-2.0-0.43-0.388-3.388,0,0,0,90,false,stim,false,0,374.2000000476837,1,0,1,85316,task1,949835,false,false,1330,image-keyboard-response,37
true,10,1,2,2,false,d,false,false,0.0-2.0-0.43-0.389-3.389,0,0,0,90,false,stim,true,1,641.9000000953674,1,0,2,85316,task1,952005,false,false,1333,image-keyboard-response,38
true,10,1,2,1,true,z,false,true,0.0-2.0-0.43-0.390-3.390,0,0,0,90,false,stim,false,2,438.7999999523163,1,0,0,85316,task1,953966,false,false,1336,image-keyboard-response,39
true,10,1,2,1,true,z,false,true,0.0-2.0-0.43-0.391-3.391,0,0,0,90,false,stim,false,2,634.4000000953674,1,0,0,85316,task1,956128,false,false,1339,image-keyboard-response,40
true,11,2,1,0,false,q,false,true,0.0-2.0-0.43-0.392-3.392,0,0,0,68,true,stim,true,2,579.5,1,0,2,85316,task1,958237,false,true,1342,image-keyboard-response,1
true,11,1,1,2,false,d,false,false,0.0-2.0-0.43-0.393-3.393,0,0,0,90,false,stim,true,1,266.40000009536743,1,0,1,85316,task1,960025,false,false,1345,image-keyboard-response,2
true,11,1,1,0,false,q,false,false,0.0-2.0-0.43-0.394-3.394,0,0,0,90,false,stim,true,1,662.6000001430511,1,0,0,85316,task1,962221,false,false,1348,image-keyboard-response,3
true,11,2,1,0,false,q,false,false,0.0-2.0-0.43-0.395-3.395,0,0,0,68,false,stim,true,2,257.09999990463257,1,0,2,85316,task1,964014,false,false,1351,image-keyboard-response,4
true,11,1,1,0,false,q,false,false,0.0-2.0-0.44-0.396-3.396,0,0,0,90,false,stim,true,1,300.10000014305115,1,0,0,85316,task1,965840,false,false,1354,image-keyboard-response,5
true,11,0,1,0,true,q,false,true,0.0-2.0-0.44-0.397-3.397,0,0,0,81,false,stim,false,2,259.09999990463257,1,0,2,85316,task1,967633,false,false,1357,image-keyboard-response,6
true,11,0,1,2,false,d,true,true,0.0-2.0-0.44-0.398-3.398,0,0,0,81,false,stim,false,1,323.59999990463257,1,0,1,85316,task1,969481,false,true,1360,image-keyboard-response,7
true,11,0,1,0,true,q,false,true,0.0-2.0-0.44-0.399-3.399,0,0,0,81,false,stim,false,1,276.0,1,0,0,85316,task1,971282,false,false,1363,image-keyboard-response,8
true,11,0,1,2,false,d,true,false,0.0-2.0-0.44-0.400-3.400,0,0,0,81,false,stim,false,1,374.19999980926514,1,0,1,85316,task1,973178,false,false,1366,image-keyboard-response,9
true,11,2,1,0,false,q,true,false,0.0-2.0-0.44-0.401-3.401,0,0,0,68,false,stim,false,1,320.2000000476837,1,0,0,85316,task1,975007,false,false,1369,image-keyboard-response,10
true,11,1,1,0,false,q,true,false,0.0-2.0-0.44-0.402-3.402,0,0,0,90,false,stim,false,2,245.5,1,0,2,85316,task1,976781,false,false,1372,image-keyboard-response,11
true,11,0,1,2,false,d,true,false,0.0-2.0-0.44-0.403-3.403,0,0,0,81,false,stim,false,1,516.7999999523163,1,0,1,85316,task1,978819,false,false,1375,image-keyboard-response,12
true,11,2,1,0,false,q,false,false,0.0-2.0-0.44-0.404-3.404,0,0,0,68,false,stim,true,2,417.39999985694885,1,0,2,85316,task1,980767,false,false,1378,image-keyboard-response,13
true,11,1,1,0,false,q,true,false,0.0-2.0-0.45-0.405-3.405,0,0,0,90,false,stim,false,2,268.7999999523163,1,0,2,85316,task1,982570,false,false,1381,image-keyboard-response,14
true,11,0,1,0,true,q,false,true,0.0-2.0-0.45-0.406-3.406,0,0,0,81,false,stim,false,1,259.89999985694885,1,0,0,85316,task1,984360,false,false,1384,image-keyboard-response,15
true,11,1,1,0,false,q,true,false,0.0-2.0-0.45-0.407-3.407,0,0,0,90,false,stim,false,2,277.2000000476837,1,0,2,85316,task1,986161,false,false,1387,image-keyboard-response,16
true,11,0,1,0,true,q,false,true,0.0-2.0-0.45-0.408-3.408,0,0,0,81,false,stim,false,1,136.09999990463257,1,0,0,85316,task1,987819,false,false,1390,image-keyboard-response,17
true,11,0,1,0,true,q,false,true,0.0-2.0-0.45-0.409-3.409,0,0,0,81,false,stim,false,1,273.89999985694885,1,0,0,85316,task1,989622,false,false,1393,image-keyboard-response,18
true,11,0,1,2,false,d,true,false,0.0-2.0-0.45-0.410-3.410,0,0,0,81,false,stim,false,1,338.2000000476837,1,0,1,85316,task1,991488,false,false,1396,image-keyboard-response,19
true,11,2,1,0,false,q,false,false,0.0-2.0-0.45-0.411-3.411,0,0,0,68,false,stim,true,2,61.60000014305115,1,0,2,85316,task1,993077,false,false,1399,image-keyboard-response,20
true,11,0,1,2,false,d,true,false,0.0-2.0-0.45-0.412-3.412,0,0,0,81,false,stim,false,1,369.0,1,0,1,85316,task1,994967,false,false,1402,image-keyboard-response,21
true,11,1,1,2,false,d,false,false,0.0-2.0-0.45-0.413-3.413,0,0,0,90,false,stim,true,1,506.19999980926514,1,0,1,85316,task1,997003,false,false,1405,image-keyboard-response,22
true,11,0,1,0,true,q,false,true,0.0-2.0-0.46-0.414-3.414,0,0,0,81,false,stim,false,2,474.7999999523163,1,0,2,85316,task1,999004,false,false,1408,image-keyboard-response,23
true,11,0,1,0,true,q,false,false,0.0-2.0-0.46-0.415-3.415,0,0,0,81,false,stim,false,2,362.80000019073486,1,0,2,85316,task1,1000892,false,true,1411,image-keyboard-response,24
true,11,2,1,0,false,q,true,false,0.0-2.0-0.46-0.416-3.416,0,0,0,68,false,stim,false,1,590.5,1,0,0,85316,task1,1003018,false,false,1414,image-keyboard-response,25
true,11,1,1,2,false,d,false,true,0.0-2.0-0.46-0.417-3.417,0,0,0,90,false,stim,true,1,296.2999999523163,1,0,1,85316,task1,1004841,false,true,1417,image-keyboard-response,26
true,11,1,1,2,false,d,false,false,0.0-2.0-0.46-0.418-3.418,0,0,0,90,false,stim,true,1,287.39999985694885,1,0,1,85316,task1,1006663,false,false,1420,image-keyboard-response,27
true,11,2,1,2,true,d,false,false,0.0-2.0-0.46-0.419-3.419,0,0,0,68,false,stim,false,1,575.7999999523163,1,0,1,85316,task1,1008768,false,true,1423,image-keyboard-response,28
true,11,2,1,0,false,q,true,false,0.0-2.0-0.46-0.420-3.420,0,0,0,68,false,stim,false,1,1336.2000000476837,1,0,0,85316,task1,1011629,false,false,1426,image-keyboard-response,29
true,11,1,1,0,false,q,true,false,0.0-2.0-0.46-0.421-3.421,0,0,0,90,false,stim,false,2,1167.9000000953674,1,0,2,85316,task1,1014326,false,false,1429,image-keyboard-response,30
true,11,0,1,0,true,q,false,true,0.0-2.0-0.46-0.422-3.422,0,0,0,81,false,stim,false,1,955.8999998569489,1,0,0,85316,task1,1016813,false,false,1432,image-keyboard-response,31
true,11,0,1,2,false,d,true,false,0.0-2.0-0.47-0.423-3.423,0,0,0,81,false,stim,false,1,523.7000000476837,1,0,1,85316,task1,1018863,false,false,1435,image-keyboard-response,32
true,11,0,1,0,true,q,false,true,0.0-2.0-0.47-0.424-3.424,0,0,0,81,false,stim,false,2,676.0999999046326,1,0,2,85316,task1,1021064,false,false,1438,image-keyboard-response,33
true,11,2,1,2,true,d,false,true,0.0-2.0-0.47-0.425-3.425,0,0,0,68,false,stim,false,1,572.1000001430511,1,0,1,85316,task1,1023160,false,false,1441,image-keyboard-response,34
true,11,0,1,0,true,q,false,true,0.0-2.0-0.47-0.426-3.426,0,0,0,81,false,stim,false,2,584.6999998092651,1,0,2,85316,task1,1025272,false,false,1444,image-keyboard-response,35
true,11,0,1,0,true,q,false,true,0.0-2.0-0.47-0.427-3.427,0,0,0,81,false,stim,false,1,292.09999990463257,1,0,0,85316,task1,1027095,false,false,1447,image-keyboard-response,36
true,11,0,1,0,true,q,false,true,0.0-2.0-0.47-0.428-3.428,0,0,0,81,false,stim,false,1,518.8000001907349,1,0,0,85316,task1,1029136,false,false,1450,image-keyboard-response,37
true,11,0,1,0,true,q,false,true,0.0-2.0-0.47-0.429-3.429,0,0,0,81,false,stim,false,1,377.7000000476837,1,0,0,85316,task1,1031046,false,false,1453,image-keyboard-response,38
true,11,2,1,2,true,d,false,true,0.0-2.0-0.47-0.430-3.430,0,0,0,68,false,stim,false,1,773.6999998092651,1,0,1,85316,task1,1033342,false,false,1456,image-keyboard-response,39
true,11,0,1,0,true,q,false,true,0.0-2.0-0.47-0.431-3.431,0,0,0,81,false,stim,false,2,618.0,1,0,2,85316,task1,1035484,false,false,1459,image-keyboard-response,40
true,11,2,1,2,true,d,false,true,0.0-2.0-0.48-0.432-3.432,0,0,0,68,false,stim,false,1,711.3000001907349,1,0,1,85316,task1,1037727,false,false,1462,image-keyboard-response,41
true,11,0,1,0,true,q,false,true,0.0-2.0-0.48-0.433-3.433,0,0,0,81,false,stim,false,2,480.2999999523163,1,0,2,85316,task1,1039730,false,false,1465,image-keyboard-response,42
true,12,0,1,0,true,q,false,true,0.0-2.0-0.48-0.434-3.434,0,0,0,81,true,stim,false,2,337.0,1,0,1,85316,task1,1041603,false,false,1468,image-keyboard-response,1
true,12,0,1,0,true,q,false,true,0.0-2.0-0.48-0.435-3.435,0,0,0,81,false,stim,false,2,386.30000019073486,1,0,1,85316,task1,1043516,false,false,1471,image-keyboard-response,2
true,12,0,1,1,false,z,false,false,0.0-2.0-0.48-0.436-3.436,0,0,0,81,false,stim,true,0,900.7999999523163,1,0,0,85316,task1,1045946,false,false,1474,image-keyboard-response,3
true,12,2,1,2,true,d,false,true,0.0-2.0-0.48-0.437-3.437,0,0,0,68,false,stim,false,0,598.5,1,0,2,85316,task1,1048079,false,false,1477,image-keyboard-response,4
true,12,1,1,1,true,z,false,true,0.0-2.0-0.48-0.438-3.438,0,0,0,90,false,stim,false,0,455.89999985694885,1,0,0,85316,task1,1050068,false,false,1480,image-keyboard-response,5
true,12,1,1,1,true,z,false,true,0.0-2.0-0.48-0.439-3.439,0,0,0,90,false,stim,false,0,422.5,1,0,0,85316,task1,1052020,false,false,1483,image-keyboard-response,6
true,12,2,1,2,true,d,false,true,0.0-2.0-0.48-0.440-3.440,0,0,0,68,false,stim,false,0,577.4000000953674,1,0,2,85316,task1,1054122,false,false,1486,image-keyboard-response,7
true,12,1,1,1,true,z,false,true,0.0-2.0-0.49-0.441-3.441,0,0,0,90,false,stim,false,0,302.7000000476837,1,0,0,85316,task1,1055948,false,false,1489,image-keyboard-response,8
true,12,2,1,2,true,d,false,true,0.0-2.0-0.49-0.442-3.442,0,0,0,68,false,stim,false,0,579.7000000476837,1,0,2,85316,task1,1058041,false,false,1492,image-keyboard-response,9
true,12,1,1,1,true,z,false,false,0.0-2.0-0.49-0.443-3.443,0,0,0,90,false,stim,false,0,378.7000000476837,1,0,0,85316,task1,1059954,false,true,1495,image-keyboard-response,10
true,12,2,1,2,true,d,false,true,0.0-2.0-0.49-0.444-3.444,0,0,0,68,false,stim,false,0,409.09999990463257,1,0,2,85316,task1,1061901,false,false,1498,image-keyboard-response,11
true,12,2,1,2,true,d,false,true,0.0-2.0-0.49-0.445-3.445,0,0,0,68,false,stim,false,0,434.0,1,0,2,85316,task1,1063867,false,false,1501,image-keyboard-response,12
true,12,2,1,1,false,z,true,false,0.0-2.0-0.49-0.446-3.446,0,0,0,68,false,stim,false,0,1141.5999999046326,1,0,0,85316,task1,1066531,false,false,1504,image-keyboard-response,13
true,12,0,1,0,true,q,false,true,0.0-2.0-0.49-0.447-3.447,0,0,0,81,false,stim,false,2,738.5999999046326,1,0,1,85316,task1,1068793,false,false,1507,image-keyboard-response,14
true,12,0,1,0,true,q,false,true,0.0-2.0-0.49-0.448-3.448,0,0,0,81,false,stim,false,2,1229.5,1,0,1,85316,task1,1071550,false,false,1510,image-keyboard-response,15
true,12,0,1,0,true,q,false,true,0.0-2.0-0.49-0.449-3.449,0,0,0,81,false,stim,false,2,478.2000000476837,1,0,1,85316,task1,1073549,false,false,1513,image-keyboard-response,16
true,12,2,1,2,true,d,false,true,0.0-2.0-0.50-0.450-3.450,0,0,0,68,false,stim,false,0,415.2999999523163,1,0,2,85316,task1,1075486,false,false,1516,image-keyboard-response,17
true,12,0,1,1,false,z,false,false,0.0-2.0-0.50-0.451-3.451,0,0,0,81,false,stim,true,0,652.2999999523163,1,0,0,85316,task1,1077671,false,false,1519,image-keyboard-response,18
true,12,0,1,0,true,q,false,true,0.0-2.0-0.50-0.452-3.452,0,0,0,81,false,stim,false,2,495.60000014305115,1,0,1,85316,task1,1079698,false,false,1522,image-keyboard-response,19
true,12,0,1,0,true,q,false,true,0.0-2.0-0.50-0.453-3.453,0,0,0,81,false,stim,false,2,412.2999999523163,1,0,1,85316,task1,1081646,false,false,1525,image-keyboard-response,20
true,12,2,1,2,true,d,false,true,0.0-2.0-0.50-0.454-3.454,0,0,0,68,false,stim,false,0,403.19999980926514,1,0,2,85316,task1,1083572,false,false,1528,image-keyboard-response,21
true,12,1,1,1,true,z,false,true,0.0-2.0-0.50-0.455-3.455,0,0,0,90,false,stim,false,0,288.5,1,0,0,85316,task1,1085387,false,false,1531,image-keyboard-response,22
true,12,0,1,0,true,q,false,true,0.0-2.0-0.50-0.456-3.456,0,0,0,81,false,stim,false,2,545.2000000476837,1,0,1,85316,task1,1087461,false,false,1534,image-keyboard-response,23
true,12,1,1,1,true,z,false,false,0.0-2.0-0.50-0.457-3.457,0,0,0,90,false,stim,false,0,544.9000000953674,1,0,0,85316,task1,1089527,false,true,1537,image-keyboard-response,24
true,12,2,1,2,true,d,false,true,0.0-2.0-0.50-0.458-3.458,0,0,0,68,false,stim,false,0,329.2000000476837,1,0,2,85316,task1,1091394,false,false,1540,image-keyboard-response,25
true,12,0,1,0,true,q,false,false,0.0-2.0-0.51-0.459-3.459,0,0,0,81,false,stim,false,2,484.30000019073486,1,0,1,85316,task1,1093402,false,true,1543,image-keyboard-response,26
true,12,0,1,0,true,q,false,true,0.0-2.0-0.51-0.460-3.460,0,0,0,81,false,stim,false,2,442.59999990463257,1,0,1,85316,task1,1095372,false,false,1546,image-keyboard-response,27
true,12,2,1,2,true,d,false,true,0.0-2.0-0.51-0.461-3.461,0,0,0,68,false,stim,false,0,503.2000000476837,1,0,2,85316,task1,1097398,false,false,1549,image-keyboard-response,28
true,12,2,1,1,false,z,true,false,0.0-2.0-0.51-0.462-3.462,0,0,0,68,false,stim,false,0,866.0999999046326,1,0,0,85316,task1,1099793,false,false,1552,image-keyboard-response,29
true,12,0,1,1,false,z,false,false,0.0-2.0-0.51-0.463-3.463,0,0,0,81,false,stim,true,0,651.7999999523163,1,0,0,85316,task1,1101980,false,false,1555,image-keyboard-response,30
true,12,0,1,0,true,q,false,false,0.0-2.0-0.51-0.464-3.464,0,0,0,81,false,stim,false,2,658.5,1,0,1,85316,task1,1104167,false,true,1558,image-keyboard-response,31
true,12,1,1,1,true,z,false,true,0.0-2.0-0.51-0.465-3.465,0,0,0,90,false,stim,false,0,692.8999998569489,1,0,0,85316,task1,1106386,false,false,1561,image-keyboard-response,32
true,12,2,1,2,true,d,false,true,0.0-2.0-0.51-0.466-3.466,0,0,0,68,false,stim,false,0,470.0,1,0,2,85316,task1,1108379,false,false,1564,image-keyboard-response,33
true,12,2,1,2,true,d,false,true,0.0-2.0-0.51-0.467-3.467,0,0,0,68,false,stim,false,0,453.5,1,0,2,85316,task1,1110360,false,false,1567,image-keyboard-response,34
true,12,2,1,2,true,d,false,true,0.0-2.0-0.52-0.468-3.468,0,0,0,68,false,stim,false,0,402.7000000476837,1,0,2,85316,task1,1112293,false,false,1570,image-keyboard-response,35
true,12,2,1,2,true,d,false,true,0.0-2.0-0.52-0.469-3.469,0,0,0,68,false,stim,false,0,386.89999985694885,1,0,2,85316,task1,1114210,false,false,1573,image-keyboard-response,36
true,12,2,1,2,true,d,false,true,0.0-2.0-0.52-0.470-3.470,0,0,0,68,false,stim,false,0,336.7000000476837,1,0,2,85316,task1,1116076,false,false,1576,image-keyboard-response,37
true,12,1,1,1,true,z,false,true,0.0-2.0-0.52-0.471-3.471,0,0,0,90,false,stim,false,0,726.9000000953674,1,0,0,85316,task1,1118332,false,false,1579,image-keyboard-response,38
true,12,1,1,1,true,z,false,false,0.0-2.0-0.52-0.472-3.472,0,0,0,90,false,stim,false,0,327.2999999523163,1,0,0,85316,task1,1120184,false,true,1582,image-keyboard-response,39
true,12,2,1,0,false,q,false,false,0.0-2.0-0.52-0.473-3.473,0,0,0,68,false,stim,true,2,479.60000014305115,1,0,1,85316,task1,1122184,false,false,1585,image-keyboard-response,40
true,12,0,1,1,false,z,false,false,0.0-2.0-0.52-0.474-3.474,0,0,0,81,false,stim,true,0,509.0,1,0,0,85316,task1,1124228,false,false,1588,image-keyboard-response,41
true,12,2,1,0,false,q,false,false,0.0-2.0-0.52-0.475-3.475,0,0,0,68,false,stim,true,2,989.9000000953674,1,0,1,85316,task1,1126742,false,false,1591,image-keyboard-response,42
true,12,1,1,0,false,q,true,false,0.0-2.0-0.52-0.476-3.476,0,0,0,90,false,stim,false,2,547.4000000953674,1,0,1,85316,task1,1128817,false,false,1594,image-keyboard-response,43
true,12,0,1,0,true,q,false,true,0.0-2.0-0.53-0.477-3.477,0,0,0,81,false,stim,false,2,424.0,1,0,1,85316,task1,1130775,false,false,1597,image-keyboard-response,44
true,13,2,1,0,false,q,true,true,0.0-2.0-0.53-0.478-3.478,0,0,0,68,true,stim,false,1,665.7999999523163,1,0,0,85316,task1,1132967,false,true,1600,image-keyboard-response,1
true,13,0,1,0,true,q,false,true,0.0-2.0-0.53-0.479-3.479,0,0,0,81,false,stim,false,1,487.7000000476837,1,0,0,85316,task1,1134989,false,false,1603,image-keyboard-response,2
true,13,0,1,0,true,q,false,true,0.0-2.0-0.53-0.480-3.480,0,0,0,81,false,stim,false,1,394.2999999523163,1,0,0,85316,task1,1136909,false,false,1606,image-keyboard-response,3
true,13,2,1,1,false,z,false,false,0.0-2.0-0.53-0.481-3.481,0,0,0,68,false,stim,true,2,410.19999980926514,1,0,2,85316,task1,1138842,false,false,1609,image-keyboard-response,4
true,13,1,1,1,true,z,false,true,0.0-2.0-0.53-0.482-3.482,0,0,0,90,false,stim,false,0,644.2999999523163,1,0,1,85316,task1,1141008,false,false,1612,image-keyboard-response,5
true,13,1,1,1,true,z,false,true,0.0-2.0-0.53-0.483-3.483,0,0,0,90,false,stim,false,0,349.40000009536743,1,0,1,85316,task1,1142879,false,false,1615,image-keyboard-response,6
true,13,2,1,1,false,z,false,false,0.0-2.0-0.53-0.484-3.484,0,0,0,68,false,stim,true,2,462.2999999523163,1,0,2,85316,task1,1144875,false,false,1618,image-keyboard-response,7
true,13,1,1,1,true,z,false,true,0.0-2.0-0.53-0.485-3.485,0,0,0,90,false,stim,false,2,356.80000019073486,1,0,2,85316,task1,1146753,false,false,1621,image-keyboard-response,8
true,13,1,1,1,true,z,false,true,0.0-2.0-0.54-0.486-3.486,0,0,0,90,false,stim,false,0,249.60000014305115,1,0,1,85316,task1,1148528,false,false,1624,image-keyboard-response,9
true,13,1,1,1,true,z,false,true,0.0-2.0-0.54-0.487-3.487,0,0,0,90,false,stim,false,2,343.39999985694885,1,0,2,85316,task1,1150406,false,false,1627,image-keyboard-response,10
true,13,1,1,1,true,z,false,true,0.0-2.0-0.54-0.488-3.488,0,0,0,90,false,stim,false,0,195.09999990463257,1,0,1,85316,task1,1152137,false,false,1630,image-keyboard-response,11
true,13,0,1,0,true,q,false,true,0.0-2.0-0.54-0.489-3.489,0,0,0,81,false,stim,false,1,498.2999999523163,1,0,0,85316,task1,1154158,false,false,1633,image-keyboard-response,12
true,13,1,1,0,false,q,false,false,0.0-2.0-0.54-0.490-3.490,0,0,0,90,false,stim,true,1,233.0,1,0,0,85316,task1,1155911,false,false,1636,image-keyboard-response,13
true,13,1,1,1,true,z,false,true,0.0-2.0-0.54-0.491-3.491,0,0,0,90,false,stim,false,0,464.39999985694885,1,0,1,85316,task1,1157906,false,false,1639,image-keyboard-response,14
true,13,0,1,0,true,q,false,true,0.0-2.0-0.54-0.492-3.492,0,0,0,81,false,stim,false,1,536.7999999523163,1,0,0,85316,task1,1159979,false,false,1642,image-keyboard-response,15
true,13,1,1,1,true,z,false,true,0.0-2.0-0.54-0.493-3.493,0,0,0,90,false,stim,false,2,379.7999999523163,1,0,2,85316,task1,1161887,false,false,1645,image-keyboard-response,16
true,13,1,1,1,true,z,false,true,0.0-2.0-0.54-0.494-3.494,0,0,0,90,false,stim,false,2,319.59999990463257,1,0,2,85316,task1,1163743,false,false,1648,image-keyboard-response,17
true,13,1,1,0,false,q,false,false,0.0-2.0-0.55-0.495-3.495,0,0,0,90,false,stim,true,1,365.7000000476837,1,0,0,85316,task1,1165639,false,false,1651,image-keyboard-response,18
true,13,1,1,1,true,z,false,true,0.0-2.0-0.55-0.496-3.496,0,0,0,90,false,stim,false,2,412.10000014305115,1,0,2,85316,task1,1167584,false,false,1654,image-keyboard-response,19
true,13,1,1,1,true,z,false,true,0.0-2.0-0.55-0.497-3.497,0,0,0,90,false,stim,false,0,403.60000014305115,1,0,1,85316,task1,1169509,false,false,1657,image-keyboard-response,20
true,13,0,1,0,true,q,false,true,0.0-2.0-0.55-0.498-3.498,0,0,0,81,false,stim,false,1,262.09999990463257,1,0,0,85316,task1,1171299,false,false,1660,image-keyboard-response,21
true,13,1,1,1,true,z,false,true,0.0-2.0-0.55-0.499-3.499,0,0,0,90,false,stim,false,2,235.19999980926514,1,0,2,85316,task1,1173056,false,false,1663,image-keyboard-response,22
true,13,0,1,0,true,q,false,true,0.0-2.0-0.55-0.500-3.500,0,0,0,81,false,stim,false,1,393.5,1,0,0,85316,task1,1174979,false,false,1666,image-keyboard-response,23
true,13,1,1,1,true,z,false,true,0.0-2.0-0.55-0.501-3.501,0,0,0,90,false,stim,false,0,395.59999990463257,1,0,1,85316,task1,1176899,false,false,1669,image-keyboard-response,24
true,13,1,1,1,true,z,false,true,0.0-2.0-0.55-0.502-3.502,0,0,0,90,false,stim,false,0,297.10000014305115,1,0,1,85316,task1,1178715,false,false,1672,image-keyboard-response,25
true,13,1,1,1,true,z,false,true,0.0-2.0-0.55-0.503-3.503,0,0,0,90,false,stim,false,2,306.2000000476837,1,0,2,85316,task1,1180540,false,false,1675,image-keyboard-response,26
true,13,0,1,0,true,q,false,true,0.0-2.0-0.56-0.504-3.504,0,0,0,81,false,stim,false,1,316.89999985694885,1,0,0,85316,task1,1182385,false,false,1678,image-keyboard-response,27
true,13,1,1,1,true,z,false,true,0.0-2.0-0.56-0.505-3.505,0,0,0,90,false,stim,false,2,365.39999985694885,1,0,2,85316,task1,1184282,false,false,1681,image-keyboard-response,28
true,13,1,1,1,true,z,false,true,0.0-2.0-0.56-0.506-3.506,0,0,0,90,false,stim,false,2,322.90000009536743,1,0,2,85316,task1,1186139,false,false,1684,image-keyboard-response,29
true,13,1,1,1,true,z,false,true,0.0-2.0-0.56-0.507-3.507,0,0,0,90,false,stim,false,2,363.60000014305115,1,0,2,85316,task1,1188029,false,false,1687,image-keyboard-response,30
true,13,0,1,0,true,q,false,true,0.0-2.0-0.56-0.508-3.508,0,0,0,81,false,stim,false,1,358.0,1,0,0,85316,task1,1189905,false,false,1690,image-keyboard-response,31
true,13,0,1,0,true,q,false,true,0.0-2.0-0.56-0.509-3.509,0,0,0,81,false,stim,false,1,969.0,1,0,0,85316,task1,1192397,false,false,1693,image-keyboard-response,32
true,13,1,1,1,true,z,false,true,0.0-2.0-0.56-0.510-3.510,0,0,0,90,false,stim,false,0,517.8999998569489,1,0,1,85316,task1,1194448,false,false,1696,image-keyboard-response,33
true,13,1,1,1,true,z,false,false,0.0-2.0-0.56-0.511-3.511,0,0,0,90,false,stim,false,0,435.2999999523163,1,0,1,85316,task1,1196414,false,true,1699,image-keyboard-response,34
true,13,2,1,1,false,z,true,false,0.0-2.0-0.56-0.512-3.512,0,0,0,68,false,stim,false,0,791.6000001430511,1,0,1,85316,task1,1198737,false,false,1702,image-keyboard-response,35
true,13,0,1,0,true,q,false,true,0.0-2.0-0.57-0.513-3.513,0,0,0,81,false,stim,false,1,631.0,1,0,0,85316,task1,1200892,false,false,1705,image-keyboard-response,36
true,13,0,1,0,true,q,false,true,0.0-2.0-0.57-0.514-3.514,0,0,0,81,false,stim,false,1,675.7000000476837,1,0,0,85316,task1,1203103,false,false,1708,image-keyboard-response,37
true,13,0,1,1,false,z,true,true,0.0-2.0-0.57-0.515-3.515,0,0,0,81,false,stim,false,2,360.09999990463257,1,0,2,85316,task1,1204985,false,true,1711,image-keyboard-response,38
true,13,0,1,1,false,z,true,false,0.0-2.0-0.57-0.516-3.516,0,0,0,81,false,stim,false,2,398.7999999523163,1,0,2,85316,task1,1206913,false,false,1714,image-keyboard-response,39
true,13,0,1,1,false,z,false,false,0.0-2.0-0.57-0.517-3.517,0,0,0,81,false,stim,true,0,481.2999999523163,1,1,1,85316,task1,1208923,false,false,1717,image-keyboard-response,40
true,13,1,1,1,true,z,false,true,0.0-2.0-0.57-0.518-3.518,0,0,0,90,false,stim,false,0,522.2000000476837,1,1,1,85316,task1,1210979,false,false,1720,image-keyboard-response,41
true,13,1,1,1,true,z,false,true,0.0-2.0-0.57-0.519-3.519,0,0,0,90,false,stim,false,2,337.80000019073486,1,1,2,85316,task1,1212846,false,false,1723,image-keyboard-response,42
true,13,0,1,0,true,q,false,true,0.0-2.0-0.57-0.520-3.520,0,0,0,81,false,stim,false,1,482.59999990463257,1,1,0,85316,task1,1214855,false,false,1726,image-keyboard-response,43
true,13,1,1,1,true,z,false,true,0.0-2.0-0.57-0.521-3.521,0,0,0,90,false,stim,false,0,393.7999999523163,1,1,1,85316,task1,1216783,false,false,1729,image-keyboard-response,44
true,14,0,0,1,false,z,true,false,0.0-2.0-0.58-0.522-3.522,1,1,1,81,true,stim,false,1,624.5999999046326,1,1,2,85316,task1,1225543,false,false,1739,image-keyboard-response,1
true,14,2,0,0,false,q,true,false,0.0-2.0-0.58-0.523-3.523,1,1,1,68,false,stim,false,0,288.60000014305115,1,1,0,85316,task1,1227356,false,false,1742,image-keyboard-response,2
true,14,1,0,1,true,z,false,true,0.0-2.0-0.58-0.524-3.524,1,1,1,90,false,stim,false,1,228.29999995231628,1,1,1,85316,task1,1229110,false,false,1745,image-keyboard-response,3
true,14,1,0,0,false,q,true,false,0.0-2.0-0.58-0.525-3.525,1,1,1,90,false,stim,false,0,1133.2000000476837,1,1,0,85316,task1,1231766,false,false,1748,image-keyboard-response,4
true,14,1,0,1,true,z,false,true,0.0-2.0-0.58-0.526-3.526,1,1,1,90,false,stim,false,1,890.9000000953674,1,1,2,85316,task1,1234190,false,false,1751,image-keyboard-response,5
true,14,1,0,1,true,z,false,true,0.0-2.0-0.58-0.527-3.527,1,1,1,90,false,stim,false,1,232.0,1,1,1,85316,task1,1235949,false,false,1754,image-keyboard-response,6
true,14,0,0,0,true,q,false,true,0.0-2.0-0.58-0.528-3.528,1,1,1,81,false,stim,false,0,556.2000000476837,1,1,0,85316,task1,1238040,false,false,1757,image-keyboard-response,7
true,14,1,0,1,true,z,false,true,0.0-2.0-0.58-0.529-3.529,1,1,1,90,false,stim,false,1,400.60000014305115,1,1,2,85316,task1,1239966,false,false,1760,image-keyboard-response,8
true,14,1,0,1,true,z,false,true,0.0-2.0-0.58-0.530-3.530,1,1,1,90,false,stim,false,1,359.30000019073486,1,0,1,85316,task1,1241855,false,false,1763,image-keyboard-response,9
true,14,1,0,1,true,z,false,true,0.0-2.0-0.59-0.531-3.531,1,1,1,90,false,stim,false,1,393.5,1,0,1,85316,task1,1243775,false,false,1766,image-keyboard-response,10
true,14,1,0,1,true,z,false,true,0.0-2.0-0.59-0.532-3.532,1,1,1,90,false,stim,false,1,588.7000000476837,1,0,2,85316,task1,1245886,false,false,1769,image-keyboard-response,11
true,14,1,0,1,true,z,false,true,0.0-2.0-0.59-0.533-3.533,1,1,1,90,false,stim,false,1,373.59999990463257,1,0,2,85316,task1,1247786,false,false,1772,image-keyboard-response,12
true,14,1,0,0,false,q,true,false,0.0-2.0-0.59-0.534-3.534,1,1,1,90,false,stim,false,0,318.30000019073486,1,0,0,85316,task1,1249630,false,false,1775,image-keyboard-response,13
true,15,1,1,2,false,d,false,false,0.0-2.0-0.59-0.535-3.535,0,0,0,90,true,stim,true,1,417.09999990463257,1,0,1,85316,task1,1251577,false,false,1778,image-keyboard-response,1
true,15,0,1,1,false,z,false,false,0.0-2.0-0.59-0.536-3.536,0,0,0,81,false,stim,true,0,484.59999990463257,1,0,0,85316,task1,1253594,false,false,1781,image-keyboard-response,2
true,15,2,1,1,false,z,true,false,0.0-2.0-0.59-0.537-3.537,0,0,0,68,false,stim,false,0,643.5999999046326,1,0,0,85316,task1,1255769,false,false,1784,image-keyboard-response,3
true,15,1,1,0,false,q,false,true,0.0-2.0-0.59-0.538-3.538,0,0,0,90,false,stim,true,1,466.89999985694885,1,0,2,85316,task1,1257757,false,true,1787,image-keyboard-response,4
true,15,1,1,2,false,d,false,false,0.0-2.0-0.59-0.539-3.539,0,0,0,90,false,stim,true,1,712.5999999046326,1,0,1,85316,task1,1260003,false,false,1790,image-keyboard-response,5
true,15,0,1,0,true,q,false,true,0.0-2.0-0.60-0.540-3.540,0,0,0,81,false,stim,false,1,592.6000001430511,1,0,2,85316,task1,1262118,false,false,1793,image-keyboard-response,6
true,15,1,1,1,true,z,false,true,0.0-2.0-0.60-0.541-3.541,0,0,0,90,false,stim,false,0,917.8999998569489,1,0,0,85316,task1,1264559,false,false,1796,image-keyboard-response,7
true,15,0,1,0,true,q,false,true,0.0-2.0-0.60-0.542-3.542,0,0,0,81,false,stim,false,1,552.4000000953674,1,0,2,85316,task1,1266642,false,false,1799,image-keyboard-response,8
true,15,1,1,0,false,q,false,false,0.0-2.0-0.60-0.543-3.543,0,0,0,90,false,stim,true,1,389.39999985694885,1,0,2,85316,task1,1268562,false,false,1802,image-keyboard-response,9
true,15,0,1,1,false,z,false,false,0.0-2.0-0.60-0.544-3.544,0,0,0,81,false,stim,true,0,743.5,1,0,0,85316,task1,1270817,false,false,1805,image-keyboard-response,10
true,15,1,1,2,false,d,false,false,0.0-2.0-0.60-0.545-3.545,0,0,0,90,false,stim,true,1,596.0999999046326,1,0,1,85316,task1,1272949,false,false,1808,image-keyboard-response,11
true,15,0,1,2,false,d,true,false,0.0-2.0-0.60-0.546-3.546,0,0,0,81,false,stim,false,1,325.0,1,0,1,85316,task1,1274795,false,false,1811,image-keyboard-response,12
true,15,1,1,2,false,d,false,false,0.0-2.0-0.60-0.547-3.547,0,0,0,90,false,stim,true,1,619.8000001907349,1,0,1,85316,task1,1276938,false,false,1814,image-keyboard-response,13
true,15,2,1,1,false,z,true,false,0.0-2.0-0.60-0.548-3.548,0,0,0,68,false,stim,false,0,448.0,1,0,0,85316,task1,1278916,false,false,1817,image-keyboard-response,14
true,15,0,1,0,true,q,false,true,0.0-2.0-0.61-0.549-3.549,0,0,0,81,false,stim,false,1,631.1000001430511,1,0,2,85316,task1,1281081,false,false,1820,image-keyboard-response,15
true,15,0,1,1,false,z,false,false,0.0-2.0-0.61-0.550-3.550,0,0,0,81,false,stim,true,0,291.2999999523163,1,0,0,85316,task1,1282908,false,false,1823,image-keyboard-response,16
true,15,0,1,1,false,z,false,false,0.0-2.0-0.61-0.551-3.551,0,0,0,81,false,stim,true,0,437.90000009536743,1,0,0,85316,task1,1284870,false,false,1826,image-keyboard-response,17
true,15,1,1,0,false,q,false,false,0.0-2.0-0.61-0.552-3.552,0,0,0,90,false,stim,true,1,548.7999999523163,1,0,2,85316,task1,1286947,false,false,1829,image-keyboard-response,18
true,15,2,1,0,false,q,true,false,0.0-2.0-0.61-0.553-3.553,0,0,0,68,false,stim,false,1,784.5,1,0,2,85316,task1,1289268,false,false,1832,image-keyboard-response,19
true,15,0,1,1,false,z,false,false,0.0-2.0-0.61-0.554-3.554,0,0,0,81,false,stim,true,0,336.5,1,0,0,85316,task1,1291135,false,false,1835,image-keyboard-response,20
true,15,2,1,2,true,d,false,true,0.0-2.0-0.61-0.555-3.555,0,0,0,68,false,stim,false,1,639.6999998092651,1,0,1,85316,task1,1293303,false,false,1838,image-keyboard-response,21
true,15,2,1,2,true,d,false,true,0.0-2.0-0.61-0.556-3.556,0,0,0,68,false,stim,false,1,400.60000014305115,1,0,1,85316,task1,1295229,false,false,1841,image-keyboard-response,22
true,15,2,1,2,true,d,false,true,0.0-2.0-0.61-0.557-3.557,0,0,0,68,false,stim,false,1,870.2000000476837,1,0,1,85316,task1,1297632,false,false,1844,image-keyboard-response,23
true,15,0,1,1,false,z,false,false,0.0-2.0-0.62-0.558-3.558,0,0,0,81,false,stim,true,0,1100.5999999046326,1,0,0,85316,task1,1300263,false,false,1847,image-keyboard-response,24
true,15,2,1,1,false,z,true,false,0.0-2.0-0.62-0.559-3.559,0,0,0,68,false,stim,false,0,606.9000000953674,1,0,0,85316,task1,1302401,false,false,1850,image-keyboard-response,25
true,15,1,1,0,false,q,false,false,0.0-2.0-0.62-0.560-3.560,0,0,0,90,false,stim,true,1,1017.0999999046326,1,0,2,85316,task1,1304943,false,false,1853,image-keyboard-response,26
true,15,1,1,2,false,d,false,false,0.0-2.0-0.62-0.561-3.561,0,0,0,90,false,stim,true,1,492.09999990463257,1,0,1,85316,task1,1306966,false,false,1856,image-keyboard-response,27
true,15,1,1,0,false,q,false,false,0.0-2.0-0.62-0.562-3.562,0,0,0,90,false,stim,true,1,758.5,1,0,2,85316,task1,1309250,false,false,1859,image-keyboard-response,28
true,15,2,1,2,true,d,false,true,0.0-2.0-0.62-0.563-3.563,0,0,0,68,false,stim,false,1,531.0999999046326,1,0,1,85316,task1,1311303,false,false,1862,image-keyboard-response,29
true,15,2,1,2,true,d,false,true,0.0-2.0-0.62-0.564-3.564,0,0,0,68,false,stim,false,1,371.59999990463257,1,0,1,85316,task1,1313212,false,false,1865,image-keyboard-response,30
true,15,0,1,1,false,z,false,false,0.0-2.0-0.62-0.565-3.565,0,0,0,81,false,stim,true,0,827.0999999046326,1,0,0,85316,task1,1315566,false,false,1868,image-keyboard-response,31
true,15,1,1,0,false,q,false,false,0.0-2.0-0.62-0.566-3.566,0,0,0,90,false,stim,true,1,458.90000009536743,1,0,2,85316,task1,1317547,false,false,1871,image-keyboard-response,32
true,15,2,1,2,true,d,false,true,0.0-2.0-0.63-0.567-3.567,0,0,0,68,false,stim,false,1,230.30000019073486,1,0,1,85316,task1,1319300,false,false,1874,image-keyboard-response,33
true,15,1,1,1,true,z,false,true,0.0-2.0-0.63-0.568-3.568,0,0,0,90,false,stim,false,0,360.0,1,0,0,85316,task1,1321182,false,false,1877,image-keyboard-response,34
true,15,1,1,0,false,q,false,false,0.0-2.0-0.63-0.569-3.569,0,0,0,90,false,stim,true,1,230.40000009536743,1,0,2,85316,task1,1322935,false,false,1880,image-keyboard-response,35
true,15,2,1,0,false,q,true,false,0.0-2.0-0.63-0.570-3.570,0,0,0,68,false,stim,false,1,387.2999999523163,1,0,2,85316,task1,1324854,false,false,1883,image-keyboard-response,36
true,15,0,1,2,false,d,true,false,0.0-2.0-0.63-0.571-3.571,0,0,0,81,false,stim,false,1,663.6000001430511,1,0,1,85316,task1,1327047,false,false,1886,image-keyboard-response,37
true,15,2,1,1,false,z,true,false,0.0-2.0-0.63-0.572-3.572,0,0,0,68,false,stim,false,0,502.0,1,0,0,85316,task1,1329070,false,false,1889,image-keyboard-response,38
true,15,2,1,1,false,z,true,false,0.0-2.0-0.63-0.573-3.573,0,0,0,68,false,stim,false,0,237.40000009536743,1,0,0,85316,task1,1330837,false,false,1892,image-keyboard-response,39
true,16,1,2,0,false,q,true,true,0.0-2.0-0.63-0.574-3.574,0,0,0,90,true,stim,false,2,307.2000000476837,1,0,1,85316,task1,1332674,false,true,1895,image-keyboard-response,1
true,16,1,2,1,true,z,false,true,0.0-2.0-0.63-0.575-3.575,0,0,0,90,false,stim,false,0,550.2000000476837,1,0,2,85316,task1,1334750,false,false,1898,image-keyboard-response,2
true,16,1,2,1,true,z,false,true,0.0-2.0-0.64-0.576-3.576,0,0,0,90,false,stim,false,0,263.09999990463257,1,0,2,85316,task1,1336544,false,false,1901,image-keyboard-response,3
true,16,1,2,2,false,d,false,false,0.0-2.0-0.64-0.577-3.577,0,0,0,90,false,stim,true,1,746.7999999523163,1,0,0,85316,task1,1338819,false,false,1904,image-keyboard-response,4
true,16,2,2,2,true,d,false,true,0.0-2.0-0.64-0.578-3.578,0,0,0,68,false,stim,false,1,224.79999995231628,1,0,0,85316,task1,1340581,false,false,1907,image-keyboard-response,5
true,16,0,2,0,true,q,false,true,0.0-2.0-0.64-0.579-3.579,0,0,0,81,false,stim,false,2,821.4000000953674,1,0,1,85316,task1,1342928,false,false,1910,image-keyboard-response,6
true,16,0,2,0,true,q,false,true,0.0-2.0-0.64-0.580-3.580,0,0,0,81,false,stim,false,2,693.7000000476837,1,0,1,85316,task1,1345147,false,false,1913,image-keyboard-response,7
true,16,2,2,1,false,z,true,false,0.0-2.0-0.64-0.581-3.581,0,0,0,68,false,stim,false,0,536.5999999046326,1,0,2,85316,task1,1347206,false,false,1916,image-keyboard-response,8
true,16,1,2,1,true,z,false,true,0.0-2.0-0.64-0.582-3.582,0,0,0,90,false,stim,false,0,663.5999999046326,1,0,2,85316,task1,1349401,false,false,1919,image-keyboard-response,9
true,16,0,2,0,true,q,false,true,0.0-2.0-0.64-0.583-3.583,0,0,0,81,false,stim,false,2,377.7999999523163,1,0,1,85316,task1,1351299,false,false,1922,image-keyboard-response,10
true,16,1,2,2,false,d,false,false,0.0-2.0-0.64-0.584-3.584,0,0,0,90,false,stim,true,1,526.2999999523163,1,0,0,85316,task1,1353361,false,false,1925,image-keyboard-response,11
true,16,0,2,0,true,q,false,true,0.0-2.0-0.65-0.585-3.585,0,0,0,81,false,stim,false,2,631.9000000953674,1,0,1,85316,task1,1355516,false,false,1928,image-keyboard-response,12
true,16,2,2,2,true,d,false,true,0.0-2.0-0.65-0.586-3.586,0,0,0,68,false,stim,false,1,608.8999998569489,1,0,0,85316,task1,1357658,false,false,1931,image-keyboard-response,13
true,16,0,2,0,true,q,false,true,0.0-2.0-0.65-0.587-3.587,0,0,0,81,false,stim,false,2,496.89999985694885,1,0,1,85316,task1,1359677,false,false,1934,image-keyboard-response,14
true,16,2,2,2,true,d,false,true,0.0-2.0-0.65-0.588-3.588,0,0,0,68,false,stim,false,1,603.3999998569489,1,0,0,85316,task1,1361801,false,false,1937,image-keyboard-response,15
true,16,1,2,1,true,z,false,true,0.0-2.0-0.65-0.589-3.589,0,0,0,90,false,stim,false,0,538.1000001430511,1,0,2,85316,task1,1363868,false,false,1940,image-keyboard-response,16
