answered,blockNum,choice,condition,corResp,correct,correct_response,explo,fb,internal_node_id,isStable_1,isStable_2,isStable_3,key_press,newBlock,part,persev,persevResp,rt,sessNum,stableAS,stimulus,subject,task,time_elapsed,training,trap,trial_index,trial_type,trialsInBlock
true,1,1,0,0,false,q,true,false,0.0-2.0-0.0-0.0-3.0,0,0,0,90,true,stim,false,-1,1355,2,0,0,85316,task3,103640,false,false,103,image-keyboard-response,1
true,1,1,0,1,true,z,false,true,0.0-2.0-0.0-0.1-3.1,0,0,0,90,false,stim,false,-1,1064,2,0,2,85316,task3,106225,false,false,106,image-keyboard-response,2
true,1,0,0,2,false,d,true,false,0.0-2.0-0.0-0.2-3.2,0,0,0,81,false,stim,false,-1,566,2,0,1,85316,task3,108313,false,false,109,image-keyboard-response,3
true,1,2,0,0,false,q,true,false,0.0-2.0-0.0-0.3-3.3,0,0,0,68,false,stim,false,-1,863,2,0,0,85316,task3,110694,false,false,112,image-keyboard-response,4
true,1,1,0,1,true,z,false,true,0.0-2.0-0.0-0.4-3.4,0,0,0,90,false,stim,false,-1,362,2,0,2,85316,task3,112576,false,false,115,image-keyboard-response,5
true,1,0,0,2,false,d,true,false,0.0-2.0-0.0-0.5-3.5,0,0,0,81,false,stim,false,-1,369,2,0,1,85316,task3,114456,false,false,118,image-keyboard-response,6
true,1,1,0,0,false,q,true,false,0.0-2.0-0.0-0.6-3.6,0,0,0,90,false,stim,false,-1,927,2,0,0,85316,task3,116901,false,false,121,image-keyboard-response,7
true,1,1,0,1,true,z,false,true,0.0-2.0-0.0-0.7-3.7,0,0,0,90,false,stim,false,-1,903,2,0,2,85316,task3,119320,false,false,124,image-keyboard-response,8
true,1,1,0,2,false,d,true,false,0.0-2.0-0.0-0.8-3.8,0,0,0,90,false,stim,false,-1,684,2,0,1,85316,task3,121521,false,false,127,image-keyboard-response,9
true,1,0,0,0,true,q,false,true,0.0-2.0-0.1-0.9-3.9,0,0,0,81,false,stim,false,-1,1417,2,0,0,85316,task3,124464,false,false,130,image-keyboard-response,10
true,1,1,0,2,false,d,true,false,0.0-2.0-0.1-0.10-3.10,0,0,0,90,false,stim,false,-1,724,2,0,1,85316,task3,126705,false,false,133,image-keyboard-response,11
true,1,2,0,2,true,d,false,true,0.0-2.0-0.1-0.11-3.11,0,0,0,68,false,stim,false,-1,707,2,0,1,85316,task3,128936,false,false,136,image-keyboard-response,12
true,1,1,0,1,true,z,false,true,0.0-2.0-0.1-0.12-3.12,0,0,0,90,false,stim,false,-1,626,2,0,2,85316,task3,131089,false,false,139,image-keyboard-response,13
true,1,1,0,1,true,z,false,true,0.0-2.0-0.1-0.13-3.13,0,0,0,90,false,stim,false,-1,674,2,0,2,85316,task3,133280,false,false,142,image-keyboard-response,14
true,1,1,0,1,true,z,false,true,0.0-2.0-0.1-0.14-3.14,0,0,0,90,false,stim,false,-1,660,2,0,2,85316,task3,135456,false,false,145,image-keyboard-response,15
true,1,0,0,0,true,q,false,true,0.0-2.0-0.1-0.15-3.15,0,0,0,81,false,stim,false,-1,544,2,0,0,85316,task3,137521,false,false,148,image-keyboard-response,16
true,1,0,0,0,true,q,false,true,0.0-2.0-0.1-0.16-3.16,0,0,0,81,false,stim,false,-1,570,2,0,0,85316,task3,139608,false,false,151,image-keyboard-response,17
true,1,2,0,2,true,d,false,true,0.0-2.0-0.1-0.17-3.17,0,0,0,68,false,stim,false,-1,468,2,0,1,85316,task3,141590,false,false,154,image-keyboard-response,18
true,1,0,0,0,true,q,false,true,0.0-2.0-0.2-0.18-3.18,0,0,0,81,false,stim,false,-1,559,2,0,0,85316,task3,143673,false,false,157,image-keyboard-response,19
true,1,0,0,0,true,q,false,false,0.0-2.0-0.2-0.19-3.19,0,0,0,81,false,stim,false,-1,489,2,0,0,85316,task3,145673,false,true,160,image-keyboard-response,20
true,1,1,0,1,true,z,false,true,0.0-2.0-0.2-0.20-3.20,0,0,0,90,false,stim,false,-1,805,2,0,2,85316,task3,147992,false,false,163,image-keyboard-response,21
true,1,2,0,2,true,d,false,true,0.0-2.0-0.2-0.21-3.21,0,0,0,68,false,stim,false,-1,779,2,0,1,85316,task3,150296,false,false,166,image-keyboard-response,22
true,1,2,0,1,false,z,true,true,0.0-2.0-0.2-0.22-3.22,0,0,0,68,false,stim,false,-1,571,2,0,2,85316,task3,152390,false,true,169,image-keyboard-response,23
true,1,1,0,2,false,d,true,false,0.0-2.0-0.2-0.23-3.23,0,0,0,90,false,stim,false,-1,792,2,0,1,85316,task3,154702,false,false,172,image-keyboard-response,24
true,1,2,0,0,false,q,true,false,0.0-2.0-0.2-0.24-3.24,0,0,0,68,false,stim,false,-1,1790,2,1,0,85316,task3,158016,false,false,175,image-keyboard-response,25
true,1,2,0,1,false,z,true,false,0.0-2.0-0.2-0.25-3.25,0,0,0,68,false,stim,false,-1,887,2,0,2,85316,task3,160417,false,false,178,image-keyboard-response,26
true,2,1,1,1,true,z,false,true,0.0-2.0-0.2-0.26-3.26,1,0,0,90,true,stim,false,2,443,2,0,1,85316,task3,162377,false,false,181,image-keyboard-response,1
true,2,1,1,2,false,d,false,false,0.0-2.0-0.3-0.27-3.27,1,0,0,90,false,stim,true,1,553,2,0,2,85316,task3,164448,false,false,184,image-keyboard-response,2
true,2,1,1,0,false,q,true,false,0.0-2.0-0.3-0.28-3.28,1,0,0,90,false,stim,false,0,690,2,1,0,85316,task3,166653,false,false,187,image-keyboard-response,3
true,2,0,1,2,false,d,true,false,0.0-2.0-0.3-0.29-3.29,1,0,0,81,false,stim,false,1,1096,2,0,2,85316,task3,169272,false,false,190,image-keyboard-response,4
true,2,1,1,1,true,z,false,true,0.0-2.0-0.3-0.30-3.30,1,0,0,90,false,stim,false,2,328,2,0,1,85316,task3,171112,false,false,193,image-keyboard-response,5
true,2,1,1,0,false,q,true,false,0.0-2.0-0.3-0.31-3.31,1,0,0,90,false,stim,false,0,1463,2,1,0,85316,task3,174097,false,false,196,image-keyboard-response,6
true,2,1,1,2,false,d,false,true,0.0-2.0-0.3-0.32-3.32,1,0,0,90,false,stim,true,1,581,2,0,2,85316,task3,176208,false,true,199,image-keyboard-response,7
true,2,2,1,1,false,z,false,false,0.0-2.0-0.3-0.33-3.33,1,0,0,68,false,stim,true,2,1030,2,0,1,85316,task3,178752,false,false,202,image-keyboard-response,8
true,2,0,1,0,true,q,false,true,0.0-2.0-0.3-0.34-3.34,1,0,0,81,false,stim,false,0,945,2,1,0,85316,task3,181225,false,false,205,image-keyboard-response,9
true,2,0,1,1,false,z,true,false,0.0-2.0-0.3-0.35-3.35,1,0,0,81,false,stim,false,2,463,2,0,1,85316,task3,183208,false,false,208,image-keyboard-response,10
true,2,0,1,0,true,q,false,true,0.0-2.0-0.4-0.36-3.36,1,0,0,81,false,stim,false,0,540,2,1,0,85316,task3,185272,false,false,211,image-keyboard-response,11
true,2,1,1,2,false,d,false,false,0.0-2.0-0.4-0.37-3.37,1,0,0,90,false,stim,true,1,573,2,0,2,85316,task3,187360,false,false,214,image-keyboard-response,12
true,2,1,1,1,true,z,false,true,0.0-2.0-0.4-0.38-3.38,1,0,0,90,false,stim,false,2,644,2,0,1,85316,task3,189520,false,false,217,image-keyboard-response,13
true,2,2,1,2,true,d,false,true,0.0-2.0-0.4-0.39-3.39,1,0,0,68,false,stim,false,1,1221,2,0,2,85316,task3,192264,false,false,220,image-keyboard-response,14
true,2,1,1,1,true,z,false,true,0.0-2.0-0.4-0.40-3.40,1,0,0,90,false,stim,false,2,804,2,0,1,85316,task3,194592,false,false,223,image-keyboard-response,15
true,2,1,1,1,true,z,false,true,0.0-2.0-0.4-0.41-3.41,1,0,0,90,false,stim,false,2,545,2,0,1,85316,task3,196656,false,false,226,image-keyboard-response,16
true,2,2,1,2,true,d,false,false,0.0-2.0-0.4-0.42-3.42,1,0,0,68,false,stim,false,1,583,2,0,2,85316,task3,198760,false,true,229,image-keyboard-response,17
true,2,0,1,0,true,q,false,true,0.0-2.0-0.4-0.43-3.43,1,0,0,81,false,stim,false,0,807,2,1,0,85316,task3,201080,false,false,232,image-keyboard-response,18
true,2,0,1,0,true,q,false,true,0.0-2.0-0.4-0.44-3.44,1,0,0,81,false,stim,false,0,714,2,1,0,85316,task3,203311,false,false,235,image-keyboard-response,19
true,2,0,1,0,true,q,false,true,0.0-2.0-0.5-0.45-3.45,1,0,0,81,false,stim,false,0,519,2,1,0,85316,task3,205352,false,false,238,image-keyboard-response,20
true,2,2,1,1,false,z,false,false,0.0-2.0-0.5-0.46-3.46,1,0,0,68,false,stim,true,2,1173,2,0,1,85316,task3,208041,false,false,241,image-keyboard-response,21
true,2,1,1,0,false,q,true,false,0.0-2.0-0.5-0.47-3.47,1,0,0,90,false,stim,false,0,437,2,1,0,85316,task3,210008,false,false,244,image-keyboard-response,22
true,2,1,1,1,true,z,false,true,0.0-2.0-0.5-0.48-3.48,1,0,0,90,false,stim,false,2,650,2,0,1,85316,task3,212174,false,false,247,image-keyboard-response,23
true,2,0,1,0,true,q,false,false,0.0-2.0-0.5-0.49-3.49,1,0,0,81,false,stim,false,0,560,2,1,0,85316,task3,214255,false,true,250,image-keyboard-response,24
true,3,1,2,0,false,q,false,false,0.0-2.0-0.5-0.50-3.50,1,0,1,90,true,stim,true,1,420,2,0,1,85316,task3,216193,false,false,253,image-keyboard-response,1
true,3,2,2,2,true,d,false,true,0.0-2.0-0.5-0.51-3.51,1,0,1,68,false,stim,false,2,2385,2,1,2,85316,task3,220102,false,false,256,image-keyboard-response,2
true,3,2,2,2,true,d,false,true,0.0-2.0-0.5-0.52-3.52,1,0,1,68,false,stim,false,2,437,2,1,2,85316,task3,222057,false,false,259,image-keyboard-response,3
true,3,2,2,2,true,d,false,true,0.0-2.0-0.5-0.53-3.53,1,0,1,68,false,stim,false,2,455,2,1,2,85316,task3,224031,false,false,262,image-keyboard-response,4
true,3,0,2,0,true,q,false,true,0.0-2.0-0.6-0.54-3.54,1,0,1,81,false,stim,false,1,1405,2,0,1,85316,task3,226952,false,false,265,image-keyboard-response,5
true,3,1,2,0,false,q,true,false,0.0-2.0-0.6-0.55-3.55,1,0,1,90,false,stim,false,0,1437,2,1,0,85316,task3,229897,false,false,268,image-keyboard-response,6
true,3,2,2,2,true,d,false,true,0.0-2.0-0.6-0.56-3.56,1,0,1,68,false,stim,false,2,621,2,1,2,85316,task3,232032,false,false,271,image-keyboard-response,7
true,3,2,2,2,true,d,false,true,0.0-2.0-0.6-0.57-3.57,1,0,1,68,false,stim,false,2,468,2,1,2,85316,task3,234032,false,false,274,image-keyboard-response,8
true,3,2,2,0,false,q,true,false,0.0-2.0-0.6-0.58-3.58,1,0,1,68,false,stim,false,0,1142,2,1,0,85316,task3,236689,false,false,277,image-keyboard-response,9
true,3,2,2,2,true,d,false,true,0.0-2.0-0.6-0.59-3.59,1,0,1,68,false,stim,false,2,478,2,1,2,85316,task3,238689,false,false,280,image-keyboard-response,10
true,3,1,2,0,false,q,true,false,0.0-2.0-0.6-0.60-3.60,1,0,1,90,false,stim,false,0,839,2,0,0,85316,task3,241056,false,false,283,image-keyboard-response,11
true,3,0,2,0,true,q,false,true,0.0-2.0-0.6-0.61-3.61,1,0,1,81,false,stim,false,1,373,2,1,1,85316,task3,242952,false,false,286,image-keyboard-response,12
true,3,0,2,0,true,q,false,true,0.0-2.0-0.6-0.62-3.62,1,0,1,81,false,stim,false,1,458,2,1,1,85316,task3,244920,false,false,289,image-keyboard-response,13
true,3,0,2,0,true,q,false,true,0.0-2.0-0.7-0.63-3.63,1,0,1,81,false,stim,false,1,451,2,1,1,85316,task3,246888,false,false,292,image-keyboard-response,14
true,4,1,2,2,false,d,true,false,0.0-2.0-0.7-0.64-3.64,0,1,1,90,true,stim,false,0,523,2,0,0,85316,task3,248926,false,false,295,image-keyboard-response,1
true,4,2,2,2,true,d,false,true,0.0-2.0-0.7-0.65-3.65,0,1,1,68,false,stim,false,2,617,2,1,2,85316,task3,251062,false,false,298,image-keyboard-response,2
true,4,0,2,0,true,q,false,true,0.0-2.0-0.7-0.66-3.66,0,1,1,81,false,stim,false,0,508,2,1,1,85316,task3,253088,false,false,301,image-keyboard-response,3
true,4,0,2,0,true,q,false,true,0.0-2.0-0.7-0.67-3.67,0,1,1,81,false,stim,false,0,461,2,1,1,85316,task3,255064,false,false,304,image-keyboard-response,4
true,4,2,2,2,true,d,false,true,0.0-2.0-0.7-0.68-3.68,0,1,1,68,false,stim,false,2,629,2,1,2,85316,task3,257224,false,false,307,image-keyboard-response,5
true,4,0,2,2,false,d,false,false,0.0-2.0-0.7-0.69-3.69,0,1,1,81,false,stim,true,0,392,2,0,0,85316,task3,259144,false,false,310,image-keyboard-response,6
true,4,2,2,2,true,d,false,true,0.0-2.0-0.7-0.70-3.70,0,1,1,68,false,stim,false,2,559,2,1,2,85316,task3,261217,false,false,313,image-keyboard-response,7
true,4,2,2,2,true,d,false,true,0.0-2.0-0.7-0.71-3.71,0,1,1,68,false,stim,false,0,564,2,0,0,85316,task3,263301,false,false,316,image-keyboard-response,8
true,4,2,2,2,true,d,false,true,0.0-2.0-0.8-0.72-3.72,0,1,1,68,false,stim,false,0,486,2,1,0,85316,task3,265296,false,false,319,image-keyboard-response,9
true,4,2,2,2,true,d,false,true,0.0-2.0-0.8-0.73-3.73,0,1,1,68,false,stim,false,0,460,2,1,0,85316,task3,267288,false,false,322,image-keyboard-response,10
true,4,2,2,2,true,d,false,true,0.0-2.0-0.8-0.74-3.74,0,1,1,68,false,stim,false,2,576,2,0,2,85316,task3,269385,false,false,325,image-keyboard-response,11
true,4,0,2,0,true,q,false,true,0.0-2.0-0.8-0.75-3.75,0,1,1,81,false,stim,false,0,409,2,0,1,85316,task3,271320,false,false,328,image-keyboard-response,12
true,4,2,2,2,true,d,false,true,0.0-2.0-0.8-0.76-3.76,0,1,1,68,false,stim,false,2,397,2,0,2,85316,task3,273233,false,false,331,image-keyboard-response,13
true,5,2,1,2,true,d,false,true,0.0-2.0-0.8-0.77-3.77,1,0,0,68,true,stim,false,0,509,2,0,1,85316,task3,275257,false,false,334,image-keyboard-response,1
true,5,2,1,1,false,z,false,false,0.0-2.0-0.8-0.78-3.78,1,0,0,68,false,stim,true,2,575,2,0,2,85316,task3,277352,false,false,337,image-keyboard-response,2
true,5,2,1,2,true,d,false,true,0.0-2.0-0.8-0.79-3.79,1,0,0,68,false,stim,false,2,912,2,1,0,85316,task3,279784,false,false,340,image-keyboard-response,3
true,5,2,1,2,true,d,false,true,0.0-2.0-0.8-0.80-3.80,1,0,0,68,false,stim,false,0,412,2,0,1,85316,task3,281704,false,false,343,image-keyboard-response,4
true,5,1,1,1,true,z,false,true,0.0-2.0-0.9-0.81-3.81,1,0,0,90,false,stim,false,2,1089,2,0,2,85316,task3,284304,false,false,346,image-keyboard-response,5
true,5,1,1,1,true,z,false,true,0.0-2.0-0.9-0.82-3.82,1,0,0,90,false,stim,false,2,638,2,0,2,85316,task3,286457,false,false,349,image-keyboard-response,6
true,5,2,1,2,true,d,false,true,0.0-2.0-0.9-0.83-3.83,1,0,0,68,false,stim,false,2,536,2,1,0,85316,task3,288513,false,false,352,image-keyboard-response,7
true,5,1,1,2,false,d,true,false,0.0-2.0-0.9-0.84-3.84,1,0,0,90,false,stim,false,0,808,2,0,1,85316,task3,290829,false,false,355,image-keyboard-response,8
true,5,2,1,2,true,d,false,true,0.0-2.0-0.9-0.85-3.85,1,0,0,68,false,stim,false,0,322,2,0,1,85316,task3,292664,false,false,358,image-keyboard-response,9
true,5,1,1,1,true,z,false,true,0.0-2.0-0.9-0.86-3.86,1,0,0,90,false,stim,false,2,543,2,0,2,85316,task3,294728,false,false,361,image-keyboard-response,10
true,5,2,1,2,true,d,false,true,0.0-2.0-0.9-0.87-3.87,1,0,0,68,false,stim,false,2,430,2,1,0,85316,task3,296673,false,false,364,image-keyboard-response,11
true,5,2,1,2,true,d,false,true,0.0-2.0-0.9-0.88-3.88,1,0,0,68,false,stim,false,0,486,2,0,1,85316,task3,298672,false,false,367,image-keyboard-response,12
true,5,2,1,2,true,d,false,false,0.0-2.0-0.9-0.89-3.89,1,0,0,68,false,stim,false,2,505,2,1,0,85316,task3,300702,false,true,370,image-keyboard-response,13
true,5,2,1,2,true,d,false,true,0.0-2.0-0.10-0.90-3.90,1,0,0,68,false,stim,false,0,692,2,0,1,85316,task3,302911,false,false,373,image-keyboard-response,14
true,5,0,1,2,false,d,true,false,0.0-2.0-0.10-0.91-3.91,1,0,0,81,false,stim,false,2,883,2,1,0,85316,task3,305320,false,false,376,image-keyboard-response,15
true,5,2,1,2,true,d,false,true,0.0-2.0-0.10-0.92-3.92,1,0,0,68,false,stim,false,0,698,2,0,1,85316,task3,307544,false,false,379,image-keyboard-response,16
true,5,1,1,1,true,z,false,true,0.0-2.0-0.10-0.93-3.93,1,0,0,90,false,stim,false,2,1423,2,0,2,85316,task3,310480,false,false,382,image-keyboard-response,17
true,5,1,1,1,true,z,false,true,0.0-2.0-0.10-0.94-3.94,1,0,0,90,false,stim,false,2,517,2,0,2,85316,task3,312503,false,false,385,image-keyboard-response,18
true,5,1,1,2,false,d,true,false,0.0-2.0-0.10-0.95-3.95,1,0,0,90,false,stim,false,2,388,2,1,0,85316,task3,314405,false,false,388,image-keyboard-response,19
true,5,2,1,2,true,d,false,true,0.0-2.0-0.10-0.96-3.96,1,0,0,68,false,stim,false,2,552,2,1,0,85316,task3,316479,false,false,391,image-keyboard-response,20
true,5,1,1,1,true,z,false,true,0.0-2.0-0.10-0.97-3.97,1,0,0,90,false,stim,false,2,757,2,0,2,85316,task3,318753,false,false,394,image-keyboard-response,21
true,5,2,1,2,true,d,false,true,0.0-2.0-0.10-0.98-3.98,1,0,0,68,false,stim,false,0,310,2,0,1,85316,task3,320576,false,false,397,image-keyboard-response,22
true,5,2,1,2,true,d,false,true,0.0-2.0-0.11-0.99-3.99,1,0,0,68,false,stim,false,2,373,2,1,0,85316,task3,322479,false,false,400,image-keyboard-response,23
true,5,1,1,1,true,z,false,true,0.0-2.0-0.11-0.100-3.100,1,0,0,90,false,stim,false,2,692,2,1,2,85316,task3,324695,false,false,403,image-keyboard-response,24
true,5,2,1,2,true,d,false,true,0.0-2.0-0.11-0.101-3.101,1,0,0,68,false,stim,false,0,435,2,0,1,85316,task3,326654,false,false,406,image-keyboard-response,25
true,5,2,1,2,true,d,false,true,0.0-2.0-0.11-0.102-3.102,1,0,0,68,false,stim,false,2,380,2,1,0,85316,task3,328552,false,false,409,image-keyboard-response,26
true,5,1,1,1,true,z,false,true,0.0-2.0-0.11-0.103-3.103,1,0,0,90,false,stim,false,2,344,2,1,2,85316,task3,330408,false,false,412,image-keyboard-response,27
true,5,2,1,2,true,d,false,true,0.0-2.0-0.11-0.104-3.104,1,0,0,68,false,stim,false,2,580,2,1,0,85316,task3,332504,false,false,415,image-keyboard-response,28
true,6,2,2,1,false,z,false,false,0.0-2.0-0.11-0.105-3.105,1,0,1,68,true,stim,true,2,428,2,0,1,85316,task3,334448,false,false,418,image-keyboard-response,1
true,6,1,2,1,true,z,false,true,0.0-2.0-0.11-0.106-3.106,1,0,1,90,false,stim,false,2,2100,2,0,1,85316,task3,338065,false,false,421,image-keyboard-response,2
true,6,1,2,1,true,z,false,true,0.0-2.0-0.11-0.107-3.107,1,0,1,90,false,stim,false,1,1537,2,1,2,85316,task3,341111,false,false,424,image-keyboard-response,3
true,6,2,2,2,true,d,false,true,0.0-2.0-0.12-0.108-3.108,1,0,1,68,false,stim,false,2,705,2,1,0,85316,task3,343345,false,false,427,image-keyboard-response,4
true,6,1,2,1,true,z,false,false,0.0-2.0-0.12-0.109-3.109,1,0,1,90,false,stim,false,2,618,2,0,1,85316,task3,345472,false,true,430,image-keyboard-response,5
true,6,2,2,1,false,z,false,true,0.0-2.0-0.12-0.110-3.110,1,0,1,68,false,stim,true,2,1068,2,0,1,85316,task3,348057,false,true,433,image-keyboard-response,6
true,6,2,2,1,false,z,false,false,0.0-2.0-0.12-0.111-3.111,1,0,1,68,false,stim,true,2,485,2,0,1,85316,task3,350064,false,false,436,image-keyboard-response,7
true,6,2,2,1,false,z,true,false,0.0-2.0-0.12-0.112-3.112,1,0,1,68,false,stim,false,1,592,2,1,2,85316,task3,352174,false,false,439,image-keyboard-response,8
true,6,1,2,1,true,z,false,true,0.0-2.0-0.12-0.113-3.113,1,0,1,90,false,stim,false,1,693,2,1,2,85316,task3,354389,false,false,442,image-keyboard-response,9
true,6,2,2,2,true,d,false,true,0.0-2.0-0.12-0.114-3.114,1,0,1,68,false,stim,false,2,565,2,1,0,85316,task3,356472,false,false,445,image-keyboard-response,10
true,6,2,2,2,true,d,false,true,0.0-2.0-0.12-0.115-3.115,1,0,1,68,false,stim,false,2,496,2,1,0,85316,task3,358489,false,false,448,image-keyboard-response,11
true,6,1,2,1,true,z,false,true,0.0-2.0-0.12-0.116-3.116,1,0,1,90,false,stim,false,1,698,2,0,2,85316,task3,360711,false,false,451,image-keyboard-response,12
true,6,1,2,1,true,z,false,true,0.0-2.0-0.13-0.117-3.117,1,0,1,90,false,stim,false,1,592,2,0,2,85316,task3,362824,false,false,454,image-keyboard-response,13
true,6,1,2,1,true,z,false,true,0.0-2.0-0.13-0.118-3.118,1,0,1,90,false,stim,false,2,370,2,1,1,85316,task3,364712,false,false,457,image-keyboard-response,14
true,7,2,2,2,true,d,false,true,0.0-2.0-0.13-0.119-3.119,1,1,0,68,true,stim,false,2,631,2,1,0,85316,task3,366848,false,false,460,image-keyboard-response,1
true,7,1,2,1,true,z,false,true,0.0-2.0-0.13-0.120-3.120,1,1,0,90,false,stim,false,1,495,2,1,1,85316,task3,368857,false,false,463,image-keyboard-response,2
true,7,1,2,1,true,z,false,true,0.0-2.0-0.13-0.121-3.121,1,1,0,90,false,stim,false,1,353,2,1,1,85316,task3,370726,false,false,466,image-keyboard-response,3
true,7,1,2,0,false,q,false,false,0.0-2.0-0.13-0.122-3.122,1,1,0,90,false,stim,true,1,812,2,0,2,85316,task3,373069,false,false,469,image-keyboard-response,4
true,7,2,2,2,true,d,false,true,0.0-2.0-0.13-0.123-3.123,1,1,0,68,false,stim,false,2,383,2,1,0,85316,task3,374957,false,false,472,image-keyboard-response,5
true,7,2,2,0,false,q,true,false,0.0-2.0-0.13-0.124-3.124,1,1,0,68,false,stim,false,1,698,2,0,2,85316,task3,377167,false,false,475,image-keyboard-response,6
true,7,2,2,2,true,d,false,true,0.0-2.0-0.13-0.125-3.125,1,1,0,68,false,stim,false,2,600,2,1,0,85316,task3,379286,false,false,478,image-keyboard-response,7
true,7,1,2,0,false,q,false,false,0.0-2.0-0.14-0.126-3.126,1,1,0,90,false,stim,true,1,604,2,0,2,85316,task3,381407,false,false,481,image-keyboard-response,8
true,7,0,2,0,true,q,false,true,0.0-2.0-0.14-0.127-3.127,1,1,0,81,false,stim,false,1,363,2,0,2,85316,task3,383295,false,false,484,image-keyboard-response,9
true,7,2,2,2,true,d,false,true,0.0-2.0-0.14-0.128-3.128,1,1,0,68,false,stim,false,2,576,2,1,0,85316,task3,385399,false,false,487,image-keyboard-response,10
true,7,2,2,2,true,d,false,true,0.0-2.0-0.14-0.129-3.129,1,1,0,68,false,stim,false,2,582,2,1,0,85316,task3,387512,false,false,490,image-keyboard-response,11
true,7,0,2,0,true,q,false,true,0.0-2.0-0.14-0.130-3.130,1,1,0,81,false,stim,false,1,430,2,1,2,85316,task3,389465,false,false,493,image-keyboard-response,12
true,7,1,2,1,true,z,false,true,0.0-2.0-0.14-0.131-3.131,1,1,0,90,false,stim,false,1,578,2,0,1,85316,task3,391552,false,false,496,image-keyboard-response,13
true,7,1,2,1,true,z,false,true,0.0-2.0-0.14-0.132-3.132,1,1,0,90,false,stim,false,1,605,2,0,1,85316,task3,393672,false,false,499,image-keyboard-response,14
true,7,2,2,2,true,d,false,true,0.0-2.0-0.14-0.133-3.133,1,1,0,68,false,stim,false,2,509,2,1,0,85316,task3,395696,false,false,502,image-keyboard-response,15
true,8,1,2,0,false,q,false,false,0.0-2.0-0.14-0.134-3.134,1,0,1,90,true,stim,true,1,1077,2,0,1,85316,task3,398293,false,false,505,image-keyboard-response,1
true,8,0,2,0,true,q,false,false,0.0-2.0-0.15-0.135-3.135,1,0,1,81,false,stim,false,0,455,2,1,2,85316,task3,400270,false,true,508,image-keyboard-response,2
true,8,2,2,2,true,d,false,false,0.0-2.0-0.15-0.136-3.136,1,0,1,68,false,stim,false,2,966,2,1,0,85316,task3,402752,false,true,511,image-keyboard-response,3
true,8,0,2,0,true,q,false,true,0.0-2.0-0.15-0.137-3.137,1,0,1,81,false,stim,false,1,1448,2,0,1,85316,task3,405725,false,false,514,image-keyboard-response,4
true,8,0,2,0,true,q,false,true,0.0-2.0-0.15-0.138-3.138,1,0,1,81,false,stim,false,1,372,2,0,1,85316,task3,407616,false,false,517,image-keyboard-response,5
true,8,0,2,0,true,q,false,false,0.0-2.0-0.15-0.139-3.139,1,0,1,81,false,stim,false,1,295,2,0,1,85316,task3,409432,false,true,520,image-keyboard-response,6
true,8,1,2,2,false,d,true,false,0.0-2.0-0.15-0.140-3.140,1,0,1,90,false,stim,false,2,1009,2,1,0,85316,task3,411960,false,false,523,image-keyboard-response,7
true,8,0,2,2,false,d,true,false,0.0-2.0-0.15-0.141-3.141,1,0,1,81,false,stim,false,2,580,2,0,0,85316,task3,414057,false,false,526,image-keyboard-response,8
true,8,2,2,0,false,q,true,false,0.0-2.0-0.15-0.142-3.142,1,0,1,68,false,stim,false,0,835,2,0,2,85316,task3,416423,false,false,529,image-keyboard-response,9
true,8,1,2,0,false,q,true,false,0.0-2.0-0.15-0.143-3.143,1,0,1,90,false,stim,false,0,707,2,0,2,85316,task3,418648,false,false,532,image-keyboard-response,10
true,8,0,2,0,true,q,false,true,0.0-2.0-0.16-0.144-3.144,1,0,1,81,false,stim,false,0,394,2,0,2,85316,task3,420568,false,false,535,image-keyboard-response,11
true,8,0,2,2,false,d,true,false,0.0-2.0-0.16-0.145-3.145,1,0,1,81,false,stim,false,2,1597,2,0,0,85316,task3,423688,false,false,538,image-keyboard-response,12
true,9,0,1,1,false,z,false,false,0.0-2.0-0.16-0.146-3.146,0,1,0,81,true,stim,true,0,632,2,0,2,85316,task3,425837,false,false,541,image-keyboard-response,1
true,9,2,1,0,false,q,true,false,0.0-2.0-0.16-0.147-3.147,0,1,0,68,false,stim,false,0,763,2,1,1,85316,task3,428110,false,false,544,image-keyboard-response,2
true,9,2,1,1,false,z,true,false,0.0-2.0-0.16-0.148-3.148,0,1,0,68,false,stim,false,0,761,2,0,2,85316,task3,430384,false,false,547,image-keyboard-response,3
true,9,1,1,0,false,q,true,false,0.0-2.0-0.16-0.149-3.149,0,1,0,90,false,stim,false,0,542,2,1,1,85316,task3,432441,false,false,550,image-keyboard-response,4
true,9,0,1,0,true,q,false,true,0.0-2.0-0.16-0.150-3.150,0,1,0,81,false,stim,false,0,361,2,1,1,85316,task3,434320,false,false,553,image-keyboard-response,5
true,9,0,1,0,true,q,false,true,0.0-2.0-0.16-0.151-3.151,0,1,0,81,false,stim,false,2,1112,2,0,0,85316,task3,436952,false,false,556,image-keyboard-response,6
true,9,0,1,0,true,q,false,false,0.0-2.0-0.16-0.152-3.152,0,1,0,81,false,stim,false,2,407,2,0,0,85316,task3,438872,false,true,559,image-keyboard-response,7
true,9,0,1,1,false,z,false,false,0.0-2.0-0.17-0.153-3.153,0,1,0,81,false,stim,true,0,452,2,0,2,85316,task3,440848,false,false,562,image-keyboard-response,8
true,9,1,1,0,false,q,true,false,0.0-2.0-0.17-0.154-3.154,0,1,0,90,false,stim,false,2,1177,2,0,0,85316,task3,443544,false,false,565,image-keyboard-response,9
true,9,2,1,1,false,z,true,false,0.0-2.0-0.17-0.155-3.155,0,1,0,68,false,stim,false,0,891,2,0,2,85316,task3,445952,false,false,568,image-keyboard-response,10
true,9,0,1,1,false,z,false,true,0.0-2.0-0.17-0.156-3.156,0,1,0,81,false,stim,true,0,974,2,0,2,85316,task3,448440,false,true,571,image-keyboard-response,11
true,9,0,1,0,true,q,false,true,0.0-2.0-0.17-0.157-3.157,0,1,0,81,false,stim,false,0,998,2,1,1,85316,task3,450968,false,false,574,image-keyboard-response,12
true,9,1,1,0,false,q,true,false,0.0-2.0-0.17-0.158-3.158,0,1,0,90,false,stim,false,2,578,2,0,0,85316,task3,453064,false,false,577,image-keyboard-response,13
true,9,0,1,0,true,q,false,false,0.0-2.0-0.17-0.159-3.159,0,1,0,81,false,stim,false,2,699,2,0,0,85316,task3,455296,false,true,580,image-keyboard-response,14
true,9,0,1,0,true,q,false,true,0.0-2.0-0.17-0.160-3.160,0,1,0,81,false,stim,false,0,598,2,1,1,85316,task3,457408,false,false,583,image-keyboard-response,15
true,9,0,1,0,true,q,false,false,0.0-2.0-0.17-0.161-3.161,0,1,0,81,false,stim,false,0,338,2,1,1,85316,task3,459272,false,true,586,image-keyboard-response,16
true,9,2,1,0,false,q,false,false,0.0-2.0-0.18-0.162-3.162,0,1,0,68,false,stim,true,2,676,2,0,0,85316,task3,461464,false,false,589,image-keyboard-response,17
true,9,0,1,1,false,z,false,false,0.0-2.0-0.18-0.163-3.163,0,1,0,81,false,stim,true,0,606,2,0,2,85316,task3,463600,false,false,592,image-keyboard-response,18
true,9,1,1,0,false,q,true,false,0.0-2.0-0.18-0.164-3.164,0,1,0,90,false,stim,false,0,1065,2,1,1,85316,task3,466184,false,false,595,image-keyboard-response,19
true,9,0,1,1,false,z,false,false,0.0-2.0-0.18-0.165-3.165,0,1,0,81,false,stim,true,0,601,2,0,2,85316,task3,468303,false,false,598,image-keyboard-response,20
true,9,0,1,0,true,q,false,true,0.0-2.0-0.18-0.166-3.166,0,1,0,81,false,stim,false,2,337,2,0,0,85316,task3,470159,false,false,601,image-keyboard-response,21
true,9,2,1,0,false,q,true,false,0.0-2.0-0.18-0.167-3.167,0,1,0,68,false,stim,false,0,1068,2,1,1,85316,task3,472744,false,false,604,image-keyboard-response,22
true,9,0,1,0,true,q,false,true,0.0-2.0-0.18-0.168-3.168,0,1,0,81,false,stim,false,0,505,2,1,1,85316,task3,474768,false,false,607,image-keyboard-response,23
true,9,2,1,1,false,z,true,false,0.0-2.0-0.18-0.169-3.169,0,1,0,68,false,stim,false,0,1908,2,1,2,85316,task3,478199,false,false,610,image-keyboard-response,24
true,9,0,1,0,true,q,false,true,0.0-2.0-0.18-0.170-3.170,0,1,0,81,false,stim,false,2,603,2,0,0,85316,task3,480328,false,false,613,image-keyboard-response,25
true,9,0,1,1,false,z,false,false,0.0-2.0-0.19-0.171-3.171,0,1,0,81,false,stim,true,0,420,2,1,2,85316,task3,482263,false,false,616,image-keyboard-response,26
true,9,0,1,0,true,q,false,true,0.0-2.0-0.19-0.172-3.172,0,1,0,81,false,stim,false,0,384,2,1,1,85316,task3,484176,false,false,619,image-keyboard-response,27
true,10,0,2,2,false,d,false,true,0.0-2.0-0.19-0.173-3.173,0,1,1,81,true,stim,true,0,470,2,0,0,85316,task3,486168,false,true,622,image-keyboard-response,1
true,10,1,2,1,true,z,false,true,0.0-2.0-0.19-0.174-3.174,0,1,1,90,false,stim,false,1,667,2,1,2,85316,task3,488344,false,false,625,image-keyboard-response,2
true,10,0,2,0,true,q,false,true,0.0-2.0-0.19-0.175-3.175,0,1,1,81,false,stim,false,0,609,2,1,1,85316,task3,490481,false,false,628,image-keyboard-response,3
true,10,0,2,2,false,d,false,false,0.0-2.0-0.19-0.176-3.176,0,1,1,81,false,stim,true,0,335,2,0,0,85316,task3,492328,false,false,631,image-keyboard-response,4
true,10,0,2,2,false,d,false,false,0.0-2.0-0.19-0.177-3.177,0,1,1,81,false,stim,true,0,425,2,0,0,85316,task3,494271,false,false,634,image-keyboard-response,5
true,10,0,2,0,true,q,false,true,0.0-2.0-0.19-0.178-3.178,0,1,1,81,false,stim,false,0,946,2,1,1,85316,task3,496744,false,false,637,image-keyboard-response,6
true,10,1,2,1,true,z,false,true,0.0-2.0-0.19-0.179-3.179,0,1,1,90,false,stim,false,1,1872,2,1,2,85316,task3,500128,false,false,640,image-keyboard-response,7
true,10,1,2,2,false,d,true,true,0.0-2.0-0.20-0.180-3.180,0,1,1,90,false,stim,false,0,473,2,0,0,85316,task3,502112,false,true,643,image-keyboard-response,8
true,10,0,2,0,true,q,false,true,0.0-2.0-0.20-0.181-3.181,0,1,1,81,false,stim,false,0,945,2,1,1,85316,task3,504567,false,false,646,image-keyboard-response,9
true,10,1,2,1,true,z,false,true,0.0-2.0-0.20-0.182-3.182,0,1,1,90,false,stim,false,1,512,2,1,2,85316,task3,506591,false,false,649,image-keyboard-response,10
true,10,1,2,1,true,z,false,true,0.0-2.0-0.20-0.183-3.183,0,1,1,90,false,stim,false,1,476,2,1,2,85316,task3,508584,false,false,652,image-keyboard-response,11
true,10,1,2,2,false,d,true,false,0.0-2.0-0.20-0.184-3.184,0,1,1,90,false,stim,false,0,475,2,1,0,85316,task3,510575,false,false,655,image-keyboard-response,12
true,10,0,2,0,true,q,false,true,0.0-2.0-0.20-0.185-3.185,0,1,1,81,false,stim,false,0,738,2,0,1,85316,task3,512839,false,false,658,image-keyboard-response,13
true,10,0,2,0,true,q,false,true,0.0-2.0-0.20-0.186-3.186,0,1,1,81,false,stim,false,0,581,2,0,1,85316,task3,514944,false,false,661,image-keyboard-response,14
true,10,0,2,2,false,d,false,false,0.0-2.0-0.20-0.187-3.187,0,1,1,81,false,stim,true,0,433,2,1,0,85316,task3,516895,false,false,664,image-keyboard-response,15
true,10,1,2,1,true,z,false,true,0.0-2.0-0.20-0.188-3.188,0,1,1,90,false,stim,false,1,988,2,0,2,85316,task3,519391,false,false,667,image-keyboard-response,16
true,11,0,1,2,false,d,false,false,0.0-2.0-0.21-0.189-3.189,1,0,0,81,true,stim,true,0,510,2,0,1,85316,task3,521415,false,false,670,image-keyboard-response,1
true,11,2,1,0,false,q,true,false,0.0-2.0-0.21-0.190-3.190,1,0,0,68,false,stim,false,1,1056,2,0,2,85316,task3,523998,false,false,673,image-keyboard-response,2
true,11,1,1,0,false,q,false,false,0.0-2.0-0.21-0.191-3.191,1,0,0,90,false,stim,true,1,1081,2,0,2,85316,task3,526592,false,false,676,image-keyboard-response,3
true,11,0,1,2,false,d,false,false,0.0-2.0-0.21-0.192-3.192,1,0,0,81,false,stim,true,0,778,2,0,1,85316,task3,528885,false,false,679,image-keyboard-response,4
true,11,1,1,0,false,q,false,false,0.0-2.0-0.21-0.193-3.193,1,0,0,90,false,stim,true,1,393,2,0,2,85316,task3,530800,false,false,682,image-keyboard-response,5
true,11,1,1,2,false,d,true,false,0.0-2.0-0.21-0.194-3.194,1,0,0,90,false,stim,false,2,300,2,1,0,85316,task3,532616,false,false,685,image-keyboard-response,6
true,11,0,1,2,false,d,true,false,0.0-2.0-0.21-0.195-3.195,1,0,0,81,false,stim,false,2,942,2,1,0,85316,task3,535072,false,false,688,image-keyboard-response,7
true,11,0,1,2,false,d,false,false,0.0-2.0-0.21-0.196-3.196,1,0,0,81,false,stim,true,0,1136,2,0,1,85316,task3,537720,false,false,691,image-keyboard-response,8
true,11,0,1,2,false,d,true,false,0.0-2.0-0.21-0.197-3.197,1,0,0,81,false,stim,false,2,888,2,1,0,85316,task3,540119,false,false,694,image-keyboard-response,9
true,11,2,1,0,false,q,true,false,0.0-2.0-0.22-0.198-3.198,1,0,0,68,false,stim,false,1,841,2,0,2,85316,task3,542470,false,false,697,image-keyboard-response,10
true,11,1,1,2,false,d,true,false,0.0-2.0-0.22-0.199-3.199,1,0,0,90,false,stim,false,2,985,2,1,0,85316,task3,544975,false,false,700,image-keyboard-response,11
true,11,2,1,2,true,d,false,true,0.0-2.0-0.22-0.200-3.200,1,0,0,68,false,stim,false,2,444,2,1,0,85316,task3,546960,false,false,703,image-keyboard-response,12
true,11,2,1,2,true,d,false,true,0.0-2.0-0.22-0.201-3.201,1,0,0,68,false,stim,false,0,1641,2,0,1,85316,task3,550119,false,false,706,image-keyboard-response,13
true,11,2,1,0,false,q,true,true,0.0-2.0-0.22-0.202-3.202,1,0,0,68,false,stim,false,1,518,2,0,2,85316,task3,552159,false,true,709,image-keyboard-response,14
true,11,2,1,2,true,d,false,true,0.0-2.0-0.22-0.203-3.203,1,0,0,68,false,stim,false,2,281,2,1,0,85316,task3,553959,false,false,712,image-keyboard-response,15
true,11,2,1,0,false,q,true,false,0.0-2.0-0.22-0.204-3.204,1,0,0,68,false,stim,false,1,283,2,0,2,85316,task3,555765,false,false,715,image-keyboard-response,16
true,11,2,1,2,true,d,false,true,0.0-2.0-0.22-0.205-3.205,1,0,0,68,false,stim,false,0,335,2,0,1,85316,task3,557623,false,false,718,image-keyboard-response,17
true,11,2,1,2,true,d,false,true,0.0-2.0-0.22-0.206-3.206,1,0,0,68,false,stim,false,0,529,2,0,1,85316,task3,559668,false,false,721,image-keyboard-response,18
true,11,2,1,2,true,d,false,true,0.0-2.0-0.23-0.207-3.207,1,0,0,68,false,stim,false,2,635,2,1,0,85316,task3,561824,false,false,724,image-keyboard-response,19
true,11,1,1,0,false,q,false,false,0.0-2.0-0.23-0.208-3.208,1,0,0,90,false,stim,true,1,1424,2,0,2,85316,task3,564775,false,false,727,image-keyboard-response,20
true,11,2,1,2,true,d,false,true,0.0-2.0-0.23-0.209-3.209,1,0,0,68,false,stim,false,0,374,2,1,1,85316,task3,566671,false,false,730,image-keyboard-response,21
true,11,2,1,2,true,d,false,true,0.0-2.0-0.23-0.210-3.210,1,0,0,68,false,stim,false,0,605,2,1,1,85316,task3,568796,false,false,733,image-keyboard-response,22
true,11,2,1,2,true,d,false,true,0.0-2.0-0.23-0.211-3.211,1,0,0,68,false,stim,false,2,555,2,0,0,85316,task3,570876,false,false,736,image-keyboard-response,23
true,11,2,1,2,true,d,false,true,0.0-2.0-0.23-0.212-3.212,1,0,0,68,false,stim,false,0,845,2,1,1,85316,task3,573231,false,false,739,image-keyboard-response,24
true,11,0,1,0,true,q,false,true,0.0-2.0-0.23-0.213-3.213,1,0,0,81,false,stim,false,1,612,2,0,2,85316,task3,575359,false,false,742,image-keyboard-response,25
true,12,2,1,0,false,q,false,false,0.0-2.0-0.23-0.214-3.214,0,1,0,68,true,stim,true,2,497,2,0,0,85316,task3,577376,false,false,745,image-keyboard-response,1
true,12,0,1,2,false,d,false,false,0.0-2.0-0.23-0.215-3.215,0,1,0,81,false,stim,true,0,601,2,0,2,85316,task3,579496,false,false,748,image-keyboard-response,2
true,12,1,1,2,false,d,true,false,0.0-2.0-0.24-0.216-3.216,0,1,0,90,false,stim,false,0,839,2,0,2,85316,task3,581855,false,false,751,image-keyboard-response,3
true,12,0,1,2,false,d,false,false,0.0-2.0-0.24-0.217-3.217,0,1,0,81,false,stim,true,0,1214,2,0,2,85316,task3,584583,false,false,754,image-keyboard-response,4
true,12,2,1,2,true,d,false,true,0.0-2.0-0.24-0.218-3.218,0,1,0,68,false,stim,false,2,826,2,1,1,85316,task3,586927,false,false,757,image-keyboard-response,5
true,12,2,1,2,true,d,false,true,0.0-2.0-0.24-0.219-3.219,0,1,0,68,false,stim,false,2,538,2,1,1,85316,task3,588983,false,false,760,image-keyboard-response,6
true,12,2,1,2,true,d,false,true,0.0-2.0-0.24-0.220-3.220,0,1,0,68,false,stim,false,2,528,2,1,1,85316,task3,591032,false,false,763,image-keyboard-response,7
true,12,1,1,0,false,q,true,false,0.0-2.0-0.24-0.221-3.221,0,1,0,90,false,stim,false,2,982,2,0,0,85316,task3,593528,false,false,766,image-keyboard-response,8
true,12,0,1,0,true,q,false,true,0.0-2.0-0.24-0.222-3.222,0,1,0,81,false,stim,false,2,416,2,0,0,85316,task3,595464,false,false,769,image-keyboard-response,9
true,12,2,1,2,true,d,false,true,0.0-2.0-0.24-0.223-3.223,0,1,0,68,false,stim,false,0,1102,2,0,2,85316,task3,598079,false,false,772,image-keyboard-response,10
true,12,0,1,0,true,q,false,true,0.0-2.0-0.24-0.224-3.224,0,1,0,81,false,stim,false,2,438,2,0,0,85316,task3,600040,false,false,775,image-keyboard-response,11
true,12,2,1,2,true,d,false,true,0.0-2.0-0.25-0.225-3.225,0,1,0,68,false,stim,false,0,397,2,0,2,85316,task3,601951,false,false,778,image-keyboard-response,12
true,12,2,1,2,true,d,false,true,0.0-2.0-0.25-0.226-3.226,0,1,0,68,false,stim,false,0,397,2,0,2,85316,task3,603871,false,false,781,image-keyboard-response,13
true,12,2,1,2,true,d,false,true,0.0-2.0-0.25-0.227-3.227,0,1,0,68,false,stim,false,2,589,2,1,1,85316,task3,605991,false,false,784,image-keyboard-response,14
true,12,0,1,0,true,q,false,true,0.0-2.0-0.25-0.228-3.228,0,1,0,81,false,stim,false,2,533,2,0,0,85316,task3,608047,false,false,787,image-keyboard-response,15
true,12,2,1,2,true,d,false,true,0.0-2.0-0.25-0.229-3.229,0,1,0,68,false,stim,false,2,941,2,1,1,85316,task3,610503,false,false,790,image-keyboard-response,16
true,12,0,1,0,true,q,false,true,0.0-2.0-0.25-0.230-3.230,0,1,0,81,false,stim,false,2,552,2,0,0,85316,task3,612576,false,false,793,image-keyboard-response,17
true,12,0,1,0,true,q,false,true,0.0-2.0-0.25-0.231-3.231,0,1,0,81,false,stim,false,2,449,2,0,0,85316,task3,614551,false,false,796,image-keyboard-response,18
true,12,2,1,2,true,d,false,true,0.0-2.0-0.25-0.232-3.232,0,1,0,68,false,stim,false,2,484,2,1,1,85316,task3,616568,false,false,799,image-keyboard-response,19
true,12,2,1,2,true,d,false,true,0.0-2.0-0.25-0.233-3.233,0,1,0,68,false,stim,false,0,1544,2,0,2,85316,task3,619647,false,false,802,image-keyboard-response,20
true,12,0,1,2,false,d,true,false,0.0-2.0-0.26-0.234-3.234,0,1,0,81,false,stim,false,2,441,2,1,1,85316,task3,621615,false,false,805,image-keyboard-response,21
true,12,2,1,2,true,d,false,true,0.0-2.0-0.26-0.235-3.235,0,1,0,68,false,stim,false,2,316,2,1,1,85316,task3,623445,false,false,808,image-keyboard-response,22
true,12,2,1,2,true,d,false,true,0.0-2.0-0.26-0.236-3.236,0,1,0,68,false,stim,false,2,617,2,1,1,85316,task3,625583,false,false,811,image-keyboard-response,23
true,13,0,2,0,true,q,false,true,0.0-2.0-0.26-0.237-3.237,1,1,0,81,true,stim,false,0,537,2,1,0,85316,task3,627655,false,false,814,image-keyboard-response,1
true,13,2,2,0,false,q,false,false,0.0-2.0-0.26-0.238-3.238,1,1,0,68,false,stim,true,2,404,2,0,2,85316,task3,629583,false,false,817,image-keyboard-response,2
true,13,0,2,0,true,q,false,true,0.0-2.0-0.26-0.239-3.239,1,1,0,81,false,stim,false,0,513,2,1,0,85316,task3,631616,false,false,820,image-keyboard-response,3
true,13,2,2,0,false,q,true,false,0.0-2.0-0.26-0.240-3.240,1,1,0,68,false,stim,false,0,520,2,1,0,85316,task3,633655,false,false,823,image-keyboard-response,4
true,13,1,2,0,false,q,true,false,0.0-2.0-0.26-0.241-3.241,1,1,0,90,false,stim,false,2,1036,2,0,2,85316,task3,636207,false,false,826,image-keyboard-response,5
true,13,0,2,0,true,q,false,true,0.0-2.0-0.26-0.242-3.242,1,1,0,81,false,stim,false,2,698,2,0,2,85316,task3,638423,false,false,829,image-keyboard-response,6
true,13,0,2,0,true,q,false,true,0.0-2.0-0.27-0.243-3.243,1,1,0,81,false,stim,false,0,390,2,1,0,85316,task3,640343,false,false,832,image-keyboard-response,7
true,13,0,2,0,true,q,false,true,0.0-2.0-0.27-0.244-3.244,1,1,0,81,false,stim,false,2,356,2,0,2,85316,task3,642230,false,false,835,image-keyboard-response,8
true,13,0,2,0,true,q,false,true,0.0-2.0-0.27-0.245-3.245,1,1,0,81,false,stim,false,2,372,2,0,2,85316,task3,644136,false,false,838,image-keyboard-response,9
true,13,0,2,0,true,q,false,true,0.0-2.0-0.27-0.246-3.246,1,1,0,81,false,stim,false,0,547,2,1,0,85316,task3,646188,false,false,841,image-keyboard-response,10
true,13,0,2,2,false,d,true,false,0.0-2.0-0.27-0.247-3.247,1,1,0,81,false,stim,false,2,463,2,1,1,85316,task3,648167,false,false,844,image-keyboard-response,11
true,13,0,2,0,true,q,false,true,0.0-2.0-0.27-0.248-3.248,1,1,0,81,false,stim,false,2,561,2,0,2,85316,task3,650246,false,false,847,image-keyboard-response,12
true,13,0,2,0,true,q,false,true,0.0-2.0-0.27-0.249-3.249,1,1,0,81,false,stim,false,0,419,2,1,0,85316,task3,652183,false,false,850,image-keyboard-response,13
true,13,2,2,2,true,d,false,true,0.0-2.0-0.27-0.250-3.250,1,1,0,68,false,stim,false,2,485,2,1,1,85316,task3,654191,false,false,853,image-keyboard-response,14
true,13,0,2,2,false,d,true,false,0.0-2.0-0.27-0.251-3.251,1,1,0,81,false,stim,false,2,266,2,1,1,85316,task3,655975,false,false,856,image-keyboard-response,15
true,13,0,2,0,true,q,false,true,0.0-2.0-0.28-0.252-3.252,1,1,0,81,false,stim,false,2,735,2,0,2,85316,task3,658231,false,false,859,image-keyboard-response,16
true,13,0,2,0,true,q,false,true,0.0-2.0-0.28-0.253-3.253,1,1,0,81,false,stim,false,2,721,2,0,2,85316,task3,660479,false,false,862,image-keyboard-response,17
true,13,0,2,0,true,q,false,true,0.0-2.0-0.28-0.254-3.254,1,1,0,81,false,stim,false,2,428,2,0,2,85316,task3,662431,false,false,865,image-keyboard-response,18
true,13,2,2,2,true,d,false,true,0.0-2.0-0.28-0.255-3.255,1,1,0,68,false,stim,false,2,411,2,1,1,85316,task3,664365,false,false,868,image-keyboard-response,19
true,13,2,2,2,true,d,false,true,0.0-2.0-0.28-0.256-3.256,1,1,0,68,false,stim,false,2,366,2,1,1,85316,task3,666247,false,false,871,image-keyboard-response,20
true,13,0,2,0,true,q,false,true,0.0-2.0-0.28-0.257-3.257,1,1,0,81,false,stim,false,0,1525,2,1,0,85316,task3,669280,false,false,874,image-keyboard-response,21
true,13,0,2,0,true,q,false,true,0.0-2.0-0.28-0.258-3.258,1,1,0,81,false,stim,false,0,482,2,1,0,85316,task3,671288,false,false,877,image-keyboard-response,22
true,13,2,2,2,true,d,false,true,0.0-2.0-0.28-0.259-3.259,1,1,0,68,false,stim,false,2,783,2,1,1,85316,task3,673599,false,false,880,image-keyboard-response,23
true,13,0,2,0,true,q,false,true,0.0-2.0-0.28-0.260-3.260,1,1,0,81,false,stim,false,0,645,2,0,0,85316,task3,675751,false,false,883,image-keyboard-response,24
true,13,2,2,0,false,q,false,false,0.0-2.0-0.29-0.261-3.261,1,1,0,68,false,stim,true,2,685,2,0,2,85316,task3,677967,false,false,886,image-keyboard-response,25
true,13,0,2,0,true,q,false,false,0.0-2.0-0.29-0.262-3.262,1,1,0,81,false,stim,false,0,554,2,0,0,85316,task3,680031,false,true,889,image-keyboard-response,26
true,13,2,2,2,true,d,false,true,0.0-2.0-0.29-0.263-3.263,1,1,0,68,false,stim,false,2,1854,2,1,1,85316,task3,683406,false,false,892,image-keyboard-response,27
true,13,1,2,0,false,q,true,false,0.0-2.0-0.29-0.264-3.264,1,1,0,90,false,stim,false,0,1372,2,0,0,85316,task3,686293,false,false,895,image-keyboard-response,28
true,14,1,1,1,true,z,false,true,0.0-2.0-0.29-0.265-3.265,0,1,0,90,true,stim,false,0,757,2,0,2,85316,task3,688566,false,false,898,image-keyboard-response,1
true,14,2,1,1,false,z,true,false,0.0-2.0-0.29-0.266-3.266,0,1,0,68,false,stim,false,0,851,2,0,0,85316,task3,690950,false,false,901,image-keyboard-response,2
true,14,2,1,2,true,d,false,true,0.0-2.0-0.29-0.267-3.267,0,1,0,68,false,stim,false,2,346,2,1,1,85316,task3,692823,false,false,904,image-keyboard-response,3
true,14,2,1,2,true,d,false,true,0.0-2.0-0.29-0.268-3.268,0,1,0,68,false,stim,false,2,565,2,1,1,85316,task3,694918,false,false,907,image-keyboard-response,4
true,14,1,1,1,true,z,false,true,0.0-2.0-0.29-0.269-3.269,0,1,0,90,false,stim,false,0,431,2,0,2,85316,task3,696863,false,false,910,image-keyboard-response,5
true,14,1,1,1,true,z,false,true,0.0-2.0-0.30-0.270-3.270,0,1,0,90,false,stim,false,0,545,2,0,2,85316,task3,698927,false,false,913,image-keyboard-response,6
true,14,2,1,2,true,d,false,true,0.0-2.0-0.30-0.271-3.271,0,1,0,68,false,stim,false,2,600,2,1,1,85316,task3,701055,false,false,916,image-keyboard-response,7
true,14,2,1,2,true,d,false,true,0.0-2.0-0.30-0.272-3.272,0,1,0,68,false,stim,false,2,366,2,1,1,85316,task3,702940,false,false,919,image-keyboard-response,8
true,14,0,1,1,false,z,false,false,0.0-2.0-0.30-0.273-3.273,0,1,0,81,false,stim,true,0,594,2,0,0,85316,task3,705039,false,false,922,image-keyboard-response,9
true,14,2,1,2,true,d,false,true,0.0-2.0-0.30-0.274-3.274,0,1,0,68,false,stim,false,2,431,2,1,1,85316,task3,706983,false,false,925,image-keyboard-response,10
true,14,1,1,1,true,z,false,true,0.0-2.0-0.30-0.275-3.275,0,1,0,90,false,stim,false,0,627,2,0,2,85316,task3,709117,false,false,928,image-keyboard-response,11
true,14,2,1,1,false,z,true,true,0.0-2.0-0.30-0.276-3.276,0,1,0,68,false,stim,false,0,538,2,0,2,85316,task3,711175,false,true,931,image-keyboard-response,12
true,14,2,1,1,false,z,true,true,0.0-2.0-0.30-0.277-3.277,0,1,0,68,false,stim,false,0,547,2,0,0,85316,task3,713230,false,true,934,image-keyboard-response,13
true,14,2,1,1,false,z,true,false,0.0-2.0-0.30-0.278-3.278,0,1,0,68,false,stim,false,0,538,2,0,0,85316,task3,715303,false,false,937,image-keyboard-response,14
true,14,0,1,1,false,z,false,false,0.0-2.0-0.31-0.279-3.279,0,1,0,81,false,stim,true,0,1977,2,0,0,85316,task3,718806,false,false,940,image-keyboard-response,15
true,14,2,1,2,true,d,false,true,0.0-2.0-0.31-0.280-3.280,0,1,0,68,false,stim,false,2,902,2,1,1,85316,task3,721239,false,false,943,image-keyboard-response,16
true,14,2,1,1,false,z,true,false,0.0-2.0-0.31-0.281-3.281,0,1,0,68,false,stim,false,0,562,2,0,2,85316,task3,723310,false,false,946,image-keyboard-response,17
true,14,1,1,2,false,d,true,false,0.0-2.0-0.31-0.282-3.282,0,1,0,90,false,stim,false,2,726,2,1,1,85316,task3,725551,false,false,949,image-keyboard-response,18
true,14,1,1,1,true,z,false,true,0.0-2.0-0.31-0.283-3.283,0,1,0,90,false,stim,false,0,1466,2,0,2,85316,task3,728526,false,false,952,image-keyboard-response,19
true,14,1,1,1,true,z,false,true,0.0-2.0-0.31-0.284-3.284,0,1,0,90,false,stim,false,0,457,2,0,2,85316,task3,730503,false,false,955,image-keyboard-response,20
true,14,0,1,1,false,z,false,false,0.0-2.0-0.31-0.285-3.285,0,1,0,81,false,stim,true,0,571,2,0,0,85316,task3,732599,false,false,958,image-keyboard-response,21
true,14,1,1,1,true,z,false,true,0.0-2.0-0.31-0.286-3.286,0,1,0,90,false,stim,false,0,369,2,0,0,85316,task3,734503,false,false,961,image-keyboard-response,22
true,14,1,1,2,false,d,true,false,0.0-2.0-0.31-0.287-3.287,0,1,0,90,false,stim,false,2,967,2,1,1,85316,task3,736983,false,false,964,image-keyboard-response,23
true,14,1,1,1,true,z,false,true,0.0-2.0-0.32-0.288-3.288,0,1,0,90,false,stim,false,0,701,2,0,2,85316,task3,739198,false,false,967,image-keyboard-response,24
true,14,1,1,1,true,z,false,true,0.0-2.0-0.32-0.289-3.289,0,1,0,90,false,stim,false,0,502,2,0,2,85316,task3,741230,false,false,970,image-keyboard-response,25
true,14,0,1,2,false,d,true,false,0.0-2.0-0.32-0.290-3.290,0,1,0,81,false,stim,false,2,728,2,1,1,85316,task3,743478,false,false,973,image-keyboard-response,26
true,14,1,1,1,true,z,false,true,0.0-2.0-0.32-0.291-3.291,0,1,0,90,false,stim,false,0,508,2,1,0,85316,task3,745510,false,false,976,image-keyboard-response,27
true,14,1,1,1,true,z,false,true,0.0-2.0-0.32-0.292-3.292,0,1,0,90,false,stim,false,0,468,2,1,0,85316,task3,747486,false,false,979,image-keyboard-response,28
true,14,1,1,1,true,z,false,true,0.0-2.0-0.32-0.293-3.293,0,1,0,90,false,stim,false,0,1063,2,0,2,85316,task3,750062,false,false,982,image-keyboard-response,29
true,15,1,2,1,true,z,false,true,0.0-2.0-0.32-0.294-3.294,1,1,0,90,true,stim,false,1,738,2,1,0,85316,task3,752310,false,false,985,image-keyboard-response,1
true,15,2,2,2,true,d,false,true,0.0-2.0-0.32-0.295-3.295,1,1,0,68,false,stim,false,2,570,2,1,1,85316,task3,754390,false,false,988,image-keyboard-response,2
true,15,2,2,2,true,d,false,true,0.0-2.0-0.32-0.296-3.296,1,1,0,68,false,stim,false,2,563,2,1,1,85316,task3,756486,false,false,991,image-keyboard-response,3
true,15,1,2,1,true,z,false,true,0.0-2.0-0.33-0.297-3.297,1,1,0,90,false,stim,false,1,457,2,1,0,85316,task3,758478,false,false,994,image-keyboard-response,4
true,15,1,2,1,true,z,false,true,0.0-2.0-0.33-0.298-3.298,1,1,0,90,false,stim,false,1,436,2,1,0,85316,task3,760439,false,false,997,image-keyboard-response,5
true,15,1,2,2,false,d,false,false,0.0-2.0-0.33-0.299-3.299,1,1,0,90,false,stim,true,1,1166,2,0,2,85316,task3,763134,false,false,1000,image-keyboard-response,6
true,15,2,2,2,true,d,false,true,0.0-2.0-0.33-0.300-3.300,1,1,0,68,false,stim,false,1,886,2,0,2,85316,task3,765559,false,false,1003,image-keyboard-response,7
true,15,2,2,2,true,d,false,true,0.0-2.0-0.33-0.301-3.301,1,1,0,68,false,stim,false,2,375,2,1,1,85316,task3,767446,false,false,1006,image-keyboard-response,8
true,15,2,2,2,true,d,false,true,0.0-2.0-0.33-0.302-3.302,1,1,0,68,false,stim,false,2,428,2,1,1,85316,task3,769383,false,false,1009,image-keyboard-response,9
true,15,1,2,1,true,z,false,true,0.0-2.0-0.33-0.303-3.303,1,1,0,90,false,stim,false,1,725,2,1,0,85316,task3,771623,false,false,1012,image-keyboard-response,10
true,15,2,2,2,true,d,false,true,0.0-2.0-0.33-0.304-3.304,1,1,0,68,false,stim,false,1,365,2,0,2,85316,task3,773502,false,false,1015,image-keyboard-response,11
true,15,2,2,2,true,d,false,true,0.0-2.0-0.33-0.305-3.305,1,1,0,68,false,stim,false,2,381,2,1,1,85316,task3,775407,false,false,1018,image-keyboard-response,12
true,15,2,2,2,true,d,false,true,0.0-2.0-0.34-0.306-3.306,1,1,0,68,false,stim,false,2,468,2,1,1,85316,task3,777407,false,false,1021,image-keyboard-response,13
true,15,1,2,2,false,d,false,false,0.0-2.0-0.34-0.307-3.307,1,1,0,90,false,stim,true,1,664,2,0,2,85316,task3,779590,false,false,1024,image-keyboard-response,14
true,15,2,2,1,false,z,true,false,0.0-2.0-0.34-0.308-3.308,1,1,0,68,false,stim,false,1,611,2,1,0,85316,task3,781727,false,false,1027,image-keyboard-response,15
true,15,1,2,1,true,z,false,true,0.0-2.0-0.34-0.309-3.309,1,1,0,90,false,stim,false,1,317,2,1,0,85316,task3,783564,false,false,1030,image-keyboard-response,16
true,15,1,2,1,true,z,false,true,0.0-2.0-0.34-0.310-3.310,1,1,0,90,false,stim,false,1,497,2,1,0,85316,task3,785582,false,false,1033,image-keyboard-response,17
true,15,2,2,2,true,d,false,true,0.0-2.0-0.34-0.311-3.311,1,1,0,68,false,stim,false,2,694,2,1,1,85316,task3,787798,false,false,1036,image-keyboard-response,18
true,15,2,2,2,true,d,false,true,0.0-2.0-0.34-0.312-3.312,1,1,0,68,false,stim,false,2,545,2,1,1,85316,task3,789870,false,false,1039,image-keyboard-response,19
true,15,2,2,2,true,d,false,true,0.0-2.0-0.34-0.313-3.313,1,1,0,68,false,stim,false,1,539,2,0,2,85316,task3,791926,false,false,1042,image-keyboard-response,20
true,15,2,2,2,true,d,false,true,0.0-2.0-0.34-0.314-3.314,1,1,0,68,false,stim,false,1,446,2,0,2,85316,task3,793902,false,false,1045,image-keyboard-response,21
true,15,1,2,1,true,z,false,true,0.0-2.0-0.35-0.315-3.315,1,1,0,90,false,stim,false,1,439,2,1,0,85316,task3,795860,false,false,1048,image-keyboard-response,22
true,15,2,2,2,true,d,false,true,0.0-2.0-0.35-0.316-3.316,1,1,0,68,false,stim,false,1,554,2,0,2,85316,task3,797935,false,false,1051,image-keyboard-response,23
true,15,1,2,2,false,d,true,false,0.0-2.0-0.35-0.317-3.317,1,1,0,90,false,stim,false,2,507,2,0,1,85316,task3,799966,false,false,1054,image-keyboard-response,24
true,15,2,2,2,true,d,false,true,0.0-2.0-0.35-0.318-3.318,1,1,0,68,false,stim,false,1,599,2,0,2,85316,task3,802086,false,false,1057,image-keyboard-response,25
true,15,1,2,1,true,z,false,true,0.0-2.0-0.35-0.319-3.319,1,1,0,90,false,stim,false,1,598,2,1,0,85316,task3,804197,false,false,1060,image-keyboard-response,26
true,15,1,2,1,true,z,false,true,0.0-2.0-0.35-0.320-3.320,1,1,0,90,false,stim,false,1,478,2,1,0,85316,task3,806196,false,false,1063,image-keyboard-response,27
true,16,2,1,0,false,q,false,false,0.0-2.0-0.35-0.321-3.321,1,0,0,68,true,stim,true,2,365,2,0,1,85316,task3,808094,false,false,1066,image-keyboard-response,1
true,16,2,1,1,false,z,false,false,0.0-2.0-0.35-0.322-3.322,1,0,0,68,false,stim,true,2,812,2,0,2,85316,task3,810430,false,false,1069,image-keyboard-response,2
true,16,0,1,0,true,q,false,true,0.0-2.0-0.35-0.323-3.323,1,0,0,81,false,stim,false,2,676,2,0,1,85316,task3,812630,false,false,1072,image-keyboard-response,3
true,16,0,1,1,false,z,true,false,0.0-2.0-0.36-0.324-3.324,1,0,0,81,false,stim,false,2,446,2,0,2,85316,task3,814590,false,false,1075,image-keyboard-response,4
true,16,1,1,1,true,z,false,true,0.0-2.0-0.36-0.325-3.325,1,0,0,90,false,stim,false,1,784,2,1,0,85316,task3,816895,false,false,1078,image-keyboard-response,5
true,16,0,1,0,true,q,false,true,0.0-2.0-0.36-0.326-3.326,1,0,0,81,false,stim,false,2,526,2,0,1,85316,task3,818943,false,false,1081,image-keyboard-response,6
true,16,1,1,1,true,z,false,true,0.0-2.0-0.36-0.327-3.327,1,0,0,90,false,stim,false,2,597,2,0,2,85316,task3,821062,false,false,1084,image-keyboard-response,7
true,16,0,1,0,true,q,false,true,0.0-2.0-0.36-0.328-3.328,1,0,0,81,false,stim,false,2,661,2,0,1,85316,task3,823238,false,false,1087,image-keyboard-response,8
true,16,2,1,1,false,z,false,false,0.0-2.0-0.36-0.329-3.329,1,0,0,68,false,stim,true,2,556,2,0,2,85316,task3,825319,false,false,1090,image-keyboard-response,9
true,16,1,1,1,true,z,false,true,0.0-2.0-0.36-0.330-3.330,1,0,0,90,false,stim,false,1,365,2,1,0,85316,task3,827207,false,false,1093,image-keyboard-response,10
true,16,1,1,1,true,z,false,true,0.0-2.0-0.36-0.331-3.331,1,0,0,90,false,stim,false,1,478,2,1,0,85316,task3,829206,false,false,1096,image-keyboard-response,11
true,16,0,1,0,true,q,false,true,0.0-2.0-0.36-0.332-3.332,1,0,0,81,false,stim,false,2,940,2,0,1,85316,task3,831671,false,false,1099,image-keyboard-response,12
true,16,1,1,1,true,z,false,true,0.0-2.0-0.37-0.333-3.333,1,0,0,90,false,stim,false,1,470,2,1,0,85316,task3,833686,false,false,1102,image-keyboard-response,13
true,16,0,1,0,true,q,false,true,0.0-2.0-0.37-0.334-3.334,1,0,0,81,false,stim,false,2,750,2,0,1,85316,task3,835957,false,false,1105,image-keyboard-response,14
true,16,0,1,0,true,q,false,true,0.0-2.0-0.37-0.335-3.335,1,0,0,81,false,stim,false,2,567,2,0,1,85316,task3,838046,false,false,1108,image-keyboard-response,15
true,16,1,1,1,true,z,false,true,0.0-2.0-0.37-0.336-3.336,1,0,0,90,false,stim,false,1,570,2,1,0,85316,task3,840143,false,false,1111,image-keyboard-response,16
true,16,1,1,1,true,z,false,true,0.0-2.0-0.37-0.337-3.337,1,0,0,90,false,stim,false,2,386,2,0,2,85316,task3,842062,false,false,1114,image-keyboard-response,17
true,16,1,1,1,true,z,false,true,0.0-2.0-0.37-0.338-3.338,1,0,0,90,false,stim,false,2,635,2,0,2,85316,task3,844214,false,false,1117,image-keyboard-response,18
true,16,1,1,1,true,z,false,false,0.0-2.0-0.37-0.339-3.339,1,0,0,90,false,stim,false,2,408,2,0,2,85316,task3,846141,false,true,1120,image-keyboard-response,19
true,16,0,1,0,true,q,false,false,0.0-2.0-0.37-0.340-3.340,1,0,0,81,false,stim,false,2,471,2,0,1,85316,task3,848126,false,true,1123,image-keyboard-response,20
true,16,1,1,1,true,z,false,true,0.0-2.0-0.37-0.341-3.341,1,0,0,90,false,stim,false,1,891,2,1,0,85316,task3,850542,false,false,1126,image-keyboard-response,21
true,16,1,1,1,true,z,false,true,0.0-2.0-0.38-0.342-3.342,1,0,0,90,false,stim,false,1,778,2,1,0,85316,task3,852846,false,false,1129,image-keyboard-response,22
true,16,2,1,0,false,q,false,false,0.0-2.0-0.38-0.343-3.343,1,0,0,68,false,stim,true,2,770,2,0,1,85316,task3,855134,false,false,1132,image-keyboard-response,23
true,16,1,1,1,true,z,false,true,0.0-2.0-0.38-0.344-3.344,1,0,0,90,false,stim,false,1,665,2,1,0,85316,task3,857326,false,false,1135,image-keyboard-response,24
true,16,1,1,1,true,z,false,true,0.0-2.0-0.38-0.345-3.345,1,0,0,90,false,stim,false,1,501,2,1,0,85316,task3,859342,false,false,1138,image-keyboard-response,25
true,16,2,1,1,false,z,false,false,0.0-2.0-0.38-0.346-3.346,1,0,0,68,false,stim,true,2,1012,2,0,2,85316,task3,861868,false,false,1141,image-keyboard-response,26
true,16,1,1,0,false,q,true,false,0.0-2.0-0.38-0.347-3.347,1,0,0,90,false,stim,false,2,327,2,1,1,85316,task3,863709,false,false,1144,image-keyboard-response,27
true,16,1,1,1,true,z,false,false,0.0-2.0-0.38-0.348-3.348,1,0,0,90,false,stim,false,2,536,2,0,2,85316,task3,865771,false,true,1147,image-keyboard-response,28
true,16,0,1,1,false,z,true,false,0.0-2.0-0.38-0.349-3.349,1,0,0,81,false,stim,false,2,647,2,0,2,85316,task3,867951,false,false,1150,image-keyboard-response,29
true,17,0,2,0,true,q,false,true,0.0-2.0-0.38-0.350-3.350,1,1,0,81,true,stim,false,0,1175,2,1,1,85316,task3,870638,false,false,1153,image-keyboard-response,1
true,17,0,2,0,true,q,false,true,0.0-2.0-0.39-0.351-3.351,1,1,0,81,false,stim,false,0,552,2,1,1,85316,task3,872718,false,false,1156,image-keyboard-response,2
true,17,2,2,0,false,q,true,false,0.0-2.0-0.39-0.352-3.352,1,1,0,68,false,stim,false,1,1009,2,0,2,85316,task3,875246,false,false,1159,image-keyboard-response,3
true,17,1,2,1,true,z,false,true,0.0-2.0-0.39-0.353-3.353,1,1,0,90,false,stim,false,1,627,2,1,0,85316,task3,877399,false,false,1162,image-keyboard-response,4
true,17,0,2,0,true,q,false,true,0.0-2.0-0.39-0.354-3.354,1,1,0,81,false,stim,false,1,659,2,0,2,85316,task3,879587,false,false,1165,image-keyboard-response,5
true,17,1,2,1,true,z,false,true,0.0-2.0-0.39-0.355-3.355,1,1,0,90,false,stim,false,1,676,2,1,0,85316,task3,881782,false,false,1168,image-keyboard-response,6
true,17,1,2,1,true,z,false,true,0.0-2.0-0.39-0.356-3.356,1,1,0,90,false,stim,false,1,478,2,1,0,85316,task3,883779,false,false,1171,image-keyboard-response,7
true,17,1,2,0,false,q,false,false,0.0-2.0-0.39-0.357-3.357,1,1,0,90,false,stim,true,1,1138,2,0,2,85316,task3,886431,false,false,1174,image-keyboard-response,8
true,17,0,2,0,true,q,false,true,0.0-2.0-0.39-0.358-3.358,1,1,0,81,false,stim,false,0,623,2,1,1,85316,task3,888582,false,false,1177,image-keyboard-response,9
true,17,0,2,0,true,q,false,true,0.0-2.0-0.39-0.359-3.359,1,1,0,81,false,stim,false,0,501,2,1,1,85316,task3,890614,false,false,1180,image-keyboard-response,10
true,17,0,2,0,true,q,false,true,0.0-2.0-0.40-0.360-3.360,1,1,0,81,false,stim,false,1,486,2,1,2,85316,task3,892622,false,false,1183,image-keyboard-response,11
true,17,0,2,0,true,q,false,true,0.0-2.0-0.40-0.361-3.361,1,1,0,81,false,stim,false,1,408,2,1,2,85316,task3,894563,false,false,1186,image-keyboard-response,12
true,17,0,2,0,true,q,false,false,0.0-2.0-0.40-0.362-3.362,1,1,0,81,false,stim,false,0,842,2,0,1,85316,task3,896934,false,true,1189,image-keyboard-response,13
true,17,1,2,0,false,q,true,false,0.0-2.0-0.40-0.363-3.363,1,1,0,90,false,stim,false,0,638,2,0,1,85316,task3,899086,false,false,1192,image-keyboard-response,14
true,17,1,2,1,true,z,false,false,0.0-2.0-0.40-0.364-3.364,1,1,0,90,false,stim,false,1,778,2,1,0,85316,task3,901381,false,true,1195,image-keyboard-response,15
true,18,2,2,1,false,z,true,false,0.0-2.0-0.40-0.365-3.365,1,0,1,68,true,stim,false,0,547,2,0,1,85316,task3,903454,false,false,1198,image-keyboard-response,1
true,18,1,2,0,false,q,true,false,0.0-2.0-0.40-0.366-3.366,1,0,1,90,false,stim,false,0,1562,2,1,2,85316,task3,906556,false,false,1201,image-keyboard-response,2
true,18,0,2,1,false,z,true,false,0.0-2.0-0.40-0.367-3.367,1,0,1,81,false,stim,false,1,811,2,1,0,85316,task3,908886,false,false,1204,image-keyboard-response,3
true,18,1,2,1,true,z,false,true,0.0-2.0-0.40-0.368-3.368,1,0,1,90,false,stim,false,1,443,2,1,0,85316,task3,910842,false,false,1207,image-keyboard-response,4
true,18,1,2,1,true,z,false,true,0.0-2.0-0.41-0.369-3.369,1,0,1,90,false,stim,false,1,571,2,1,0,85316,task3,912926,false,false,1210,image-keyboard-response,5
true,18,1,2,1,true,z,false,true,0.0-2.0-0.41-0.370-3.370,1,0,1,90,false,stim,false,1,479,2,1,0,85316,task3,914925,false,false,1213,image-keyboard-response,6
true,18,1,2,1,true,z,false,true,0.0-2.0-0.41-0.371-3.371,1,0,1,90,false,stim,false,1,507,2,1,0,85316,task3,916958,false,false,1216,image-keyboard-response,7
true,18,0,2,1,false,z,false,false,0.0-2.0-0.41-0.372-3.372,1,0,1,81,false,stim,true,0,446,2,1,1,85316,task3,918933,false,false,1219,image-keyboard-response,8
true,18,0,2,0,true,q,false,true,0.0-2.0-0.41-0.373-3.373,1,0,1,81,false,stim,false,0,729,2,0,2,85316,task3,921180,false,false,1222,image-keyboard-response,9
true,18,0,2,0,true,q,false,true,0.0-2.0-0.41-0.374-3.374,1,0,1,81,false,stim,false,0,431,2,0,2,85316,task3,923133,false,false,1225,image-keyboard-response,10
true,18,0,2,0,true,q,false,true,0.0-2.0-0.41-0.375-3.375,1,0,1,81,false,stim,false,0,478,2,0,2,85316,task3,925142,false,false,1228,image-keyboard-response,11
true,18,1,2,1,true,z,false,true,0.0-2.0-0.41-0.376-3.376,1,0,1,90,false,stim,false,0,398,2,1,1,85316,task3,927061,false,false,1231,image-keyboard-response,12
true,19,1,1,1,true,z,false,true,0.0-2.0-0.41-0.377-3.377,0,1,0,90,true,stim,false,1,428,2,1,1,85316,task3,929014,false,false,1234,image-keyboard-response,1
true,19,0,1,1,false,z,false,false,0.0-2.0-0.42-0.378-3.378,0,1,0,81,false,stim,true,0,789,2,0,2,85316,task3,931324,false,false,1237,image-keyboard-response,2
true,19,1,1,1,true,z,false,true,0.0-2.0-0.42-0.379-3.379,0,1,0,90,false,stim,false,1,377,2,1,1,85316,task3,933222,false,false,1240,image-keyboard-response,3
true,19,1,1,1,true,z,false,true,0.0-2.0-0.42-0.380-3.380,0,1,0,90,false,stim,false,1,420,2,1,1,85316,task3,935166,false,false,1243,image-keyboard-response,4
true,19,1,1,0,false,q,false,false,0.0-2.0-0.42-0.381-3.381,0,1,0,90,false,stim,true,1,513,2,0,0,85316,task3,937206,false,false,1246,image-keyboard-response,5
true,19,0,1,0,true,q,false,true,0.0-2.0-0.42-0.382-3.382,0,1,0,81,false,stim,false,1,417,2,0,0,85316,task3,939134,false,false,1249,image-keyboard-response,6
true,19,1,1,1,true,z,false,true,0.0-2.0-0.42-0.383-3.383,0,1,0,90,false,stim,false,1,526,2,1,1,85316,task3,941174,false,false,1252,image-keyboard-response,7
true,19,0,1,0,true,q,false,false,0.0-2.0-0.42-0.384-3.384,0,1,0,81,false,stim,false,1,603,2,0,0,85316,task3,943301,false,true,1255,image-keyboard-response,8
true,19,1,1,1,true,z,false,true,0.0-2.0-0.42-0.385-3.385,0,1,0,90,false,stim,false,0,556,2,0,2,85316,task3,945381,false,false,1258,image-keyboard-response,9
true,19,1,1,1,true,z,false,false,0.0-2.0-0.42-0.386-3.386,0,1,0,90,false,stim,false,0,440,2,0,2,85316,task3,947349,false,true,1261,image-keyboard-response,10
true,19,1,1,1,true,z,false,true,0.0-2.0-0.43-0.387-3.387,0,1,0,90,false,stim,false,1,482,2,1,1,85316,task3,949349,false,false,1264,image-keyboard-response,11
true,19,2,1,0,false,q,true,false,0.0-2.0-0.43-0.388-3.388,0,1,0,68,false,stim,false,1,1319,2,0,0,85316,task3,952190,false,false,1267,image-keyboard-response,12
true,19,1,1,1,true,z,false,true,0.0-2.0-0.43-0.389-3.389,0,1,0,90,false,stim,false,1,778,2,1,1,85316,task3,954494,false,false,1270,image-keyboard-response,13
true,19,0,1,1,false,z,false,false,0.0-2.0-0.43-0.390-3.390,0,1,0,81,false,stim,true,0,900,2,0,2,85316,task3,956918,false,false,1273,image-keyboard-response,14
true,19,1,1,1,true,z,false,true,0.0-2.0-0.43-0.391-3.391,0,1,0,90,false,stim,false,0,534,2,0,2,85316,task3,958974,false,false,1276,image-keyboard-response,15
true,19,1,1,0,false,q,false,false,0.0-2.0-0.43-0.392-3.392,0,1,0,90,false,stim,true,1,426,2,0,0,85316,task3,960926,false,false,1279,image-keyboard-response,16
true,19,1,1,1,true,z,false,true,0.0-2.0-0.43-0.393-3.393,0,1,0,90,false,stim,false,1,256,2,1,1,85316,task3,962708,false,false,1282,image-keyboard-response,17
true,19,0,1,0,true,q,false,true,0.0-2.0-0.43-0.394-3.394,0,1,0,81,false,stim,false,1,576,2,0,0,85316,task3,964806,false,false,1285,image-keyboard-response,18
true,19,1,1,1,true,z,false,false,0.0-2.0-0.43-0.395-3.395,0,1,0,90,false,stim,false,0,432,2,0,2,85316,task3,966749,false,true,1288,image-keyboard-response,19
true,19,1,1,1,true,z,false,true,0.0-2.0-0.44-0.396-3.396,0,1,0,90,false,stim,false,1,468,2,1,1,85316,task3,968733,false,false,1291,image-keyboard-response,20
true,19,1,1,1,true,z,false,true,0.0-2.0-0.44-0.397-3.397,0,1,0,90,false,stim,false,0,1095,2,0,2,85316,task3,971350,false,false,1294,image-keyboard-response,21
true,19,0,1,0,true,q,false,true,0.0-2.0-0.44-0.398-3.398,0,1,0,81,false,stim,false,1,484,2,0,0,85316,task3,973365,false,false,1297,image-keyboard-response,22
true,19,0,1,0,true,q,false,true,0.0-2.0-0.44-0.399-3.399,0,1,0,81,false,stim,false,1,813,2,0,0,85316,task3,975708,false,false,1300,image-keyboard-response,23
true,19,1,1,1,true,z,false,true,0.0-2.0-0.44-0.400-3.400,0,1,0,90,false,stim,false,1,609,2,1,1,85316,task3,977854,false,false,1303,image-keyboard-response,24
true,19,1,1,1,true,z,false,true,0.0-2.0-0.44-0.401-3.401,0,1,0,90,false,stim,false,0,770,2,0,2,85316,task3,980134,false,false,1306,image-keyboard-response,25
true,19,0,1,0,true,q,false,true,0.0-2.0-0.44-0.402-3.402,0,1,0,81,false,stim,false,1,589,2,0,0,85316,task3,982238,false,false,1309,image-keyboard-response,26
true,19,1,1,1,true,z,false,true,0.0-2.0-0.44-0.403-3.403,0,1,0,90,false,stim,false,0,510,2,0,2,85316,task3,984270,false,false,1312,image-keyboard-response,27
true,19,1,1,1,true,z,false,true,0.0-2.0-0.44-0.404-3.404,0,1,0,90,false,stim,false,1,825,2,1,1,85316,task3,986606,false,false,1315,image-keyboard-response,28
true,19,1,1,1,true,z,false,true,0.0-2.0-0.45-0.405-3.405,0,1,0,90,false,stim,false,1,817,2,1,1,85316,task3,988950,false,false,1318,image-keyboard-response,29
true,20,0,1,2,false,d,false,false,0.0-2.0-0.45-0.406-3.406,0,1,0,81,true,stim,true,0,610,2,0,0,85316,task3,991085,false,false,1321,image-keyboard-response,1
true,20,1,1,2,false,d,false,false,0.0-2.0-0.45-0.407-3.407,0,1,0,90,false,stim,true,1,792,2,0,2,85316,task3,993405,false,false,1324,image-keyboard-response,2
true,20,1,1,1,true,z,false,true,0.0-2.0-0.45-0.408-3.408,0,1,0,90,false,stim,false,1,1235,2,1,1,85316,task3,996164,false,false,1327,image-keyboard-response,3
true,20,0,1,2,false,d,false,false,0.0-2.0-0.45-0.409-3.409,0,1,0,81,false,stim,true,0,608,2,0,0,85316,task3,998292,false,false,1330,image-keyboard-response,4
true,20,1,1,1,true,z,false,true,0.0-2.0-0.45-0.410-3.410,0,1,0,90,false,stim,false,1,492,2,1,1,85316,task3,1000299,false,false,1333,image-keyboard-response,5
true,20,0,1,2,false,d,true,false,0.0-2.0-0.45-0.411-3.411,0,1,0,81,false,stim,false,1,1274,2,0,2,85316,task3,1003093,false,false,1336,image-keyboard-response,6
true,20,2,1,2,true,d,false,true,0.0-2.0-0.45-0.412-3.412,0,1,0,68,false,stim,false,0,715,2,0,0,85316,task3,1005340,false,false,1339,image-keyboard-response,7
true,20,1,1,2,false,d,false,false,0.0-2.0-0.45-0.413-3.413,0,1,0,90,false,stim,true,1,474,2,0,2,85316,task3,1007334,false,false,1342,image-keyboard-response,8
true,20,1,1,1,true,z,false,false,0.0-2.0-0.46-0.414-3.414,0,1,0,90,false,stim,false,1,329,2,1,1,85316,task3,1009182,false,true,1345,image-keyboard-response,9
true,20,2,1,2,true,d,false,true,0.0-2.0-0.46-0.415-3.415,0,1,0,68,false,stim,false,0,350,2,0,0,85316,task3,1011051,false,false,1348,image-keyboard-response,10
true,20,2,1,1,false,z,true,true,0.0-2.0-0.46-0.416-3.416,0,1,0,68,false,stim,false,1,392,2,1,1,85316,task3,1012956,false,true,1351,image-keyboard-response,11
true,20,2,1,2,true,d,false,true,0.0-2.0-0.46-0.417-3.417,0,1,0,68,false,stim,false,0,492,2,0,0,85316,task3,1014965,false,false,1354,image-keyboard-response,12
true,20,2,1,2,true,d,false,true,0.0-2.0-0.46-0.418-3.418,0,1,0,68,false,stim,false,1,599,2,0,2,85316,task3,1017083,false,false,1357,image-keyboard-response,13
true,20,2,1,2,true,d,false,true,0.0-2.0-0.46-0.419-3.419,0,1,0,68,false,stim,false,1,369,2,0,2,85316,task3,1018974,false,false,1360,image-keyboard-response,14
true,20,2,1,2,true,d,false,true,0.0-2.0-0.46-0.420-3.420,0,1,0,68,false,stim,false,0,351,2,0,0,85316,task3,1020845,false,false,1363,image-keyboard-response,15
true,20,2,1,2,true,d,false,true,0.0-2.0-0.46-0.421-3.421,0,1,0,68,false,stim,false,1,254,2,0,2,85316,task3,1022622,false,false,1366,image-keyboard-response,16
true,20,2,1,1,false,z,true,false,0.0-2.0-0.46-0.422-3.422,0,1,0,68,false,stim,false,1,434,2,1,1,85316,task3,1024574,false,false,1369,image-keyboard-response,17
true,20,2,1,1,false,z,true,false,0.0-2.0-0.47-0.423-3.423,0,1,0,68,false,stim,false,1,262,2,1,1,85316,task3,1026355,false,false,1372,image-keyboard-response,18
true,20,2,1,2,true,d,false,true,0.0-2.0-0.47-0.424-3.424,0,1,0,68,false,stim,false,1,613,2,0,2,85316,task3,1028485,false,false,1375,image-keyboard-response,19
true,20,2,1,1,false,z,true,false,0.0-2.0-0.47-0.425-3.425,0,1,0,68,false,stim,false,1,494,2,0,1,85316,task3,1030506,false,false,1378,image-keyboard-response,20
true,20,2,1,2,true,d,false,false,0.0-2.0-0.47-0.426-3.426,0,1,0,68,false,stim,false,1,507,2,1,2,85316,task3,1032532,false,true,1381,image-keyboard-response,21
true,20,2,1,2,true,d,false,true,0.0-2.0-0.47-0.427-3.427,0,1,0,68,false,stim,false,0,392,2,0,0,85316,task3,1034437,false,false,1384,image-keyboard-response,22
true,20,1,1,1,true,z,false,true,0.0-2.0-0.47-0.428-3.428,0,1,0,90,false,stim,false,1,810,2,0,1,85316,task3,1036765,false,false,1387,image-keyboard-response,23
true,20,2,1,2,true,d,false,true,0.0-2.0-0.47-0.429-3.429,0,1,0,68,false,stim,false,0,521,2,0,0,85316,task3,1038813,false,false,1390,image-keyboard-response,24
true,21,2,1,1,false,z,false,false,0.0-2.0-0.47-0.430-3.430,0,0,1,68,true,stim,true,2,443,2,0,0,85316,task3,1040778,false,false,1393,image-keyboard-response,1
true,21,1,1,2,false,d,true,true,0.0-2.0-0.47-0.431-3.431,0,0,1,90,false,stim,false,2,868,2,1,2,85316,task3,1043165,false,true,1396,image-keyboard-response,2
true,21,1,1,2,false,d,true,false,0.0-2.0-0.48-0.432-3.432,0,0,1,90,false,stim,false,2,365,2,1,2,85316,task3,1045054,false,false,1399,image-keyboard-response,3
true,21,1,1,1,true,z,false,true,0.0-2.0-0.48-0.433-3.433,0,0,1,90,false,stim,false,2,838,2,0,0,85316,task3,1047437,false,false,1402,image-keyboard-response,4
true,21,1,1,1,true,z,false,true,0.0-2.0-0.48-0.434-3.434,0,0,1,90,false,stim,false,2,519,2,0,0,85316,task3,1049478,false,false,1405,image-keyboard-response,5
true,21,1,1,0,false,q,false,false,0.0-2.0-0.48-0.435-3.435,0,0,1,90,false,stim,true,1,378,2,0,1,85316,task3,1051365,false,false,1408,image-keyboard-response,6
true,21,0,1,0,true,q,false,true,0.0-2.0-0.48-0.436-3.436,0,0,1,81,false,stim,false,1,448,2,0,1,85316,task3,1053342,false,false,1411,image-keyboard-response,7
true,21,0,1,2,false,d,true,false,0.0-2.0-0.48-0.437-3.437,0,0,1,81,false,stim,false,2,943,2,1,2,85316,task3,1055804,false,false,1414,image-keyboard-response,8
true,21,2,1,2,true,d,false,true,0.0-2.0-0.48-0.438-3.438,0,0,1,68,false,stim,false,2,905,2,1,2,85316,task3,1058237,false,false,1417,image-keyboard-response,9
true,21,0,1,0,true,q,false,true,0.0-2.0-0.48-0.439-3.439,0,0,1,81,false,stim,false,1,832,2,0,1,85316,task3,1060590,false,false,1420,image-keyboard-response,10
true,21,1,1,1,true,z,false,true,0.0-2.0-0.48-0.440-3.440,0,0,1,90,false,stim,false,2,487,2,0,0,85316,task3,1062604,false,false,1423,image-keyboard-response,11
true,21,2,1,2,true,d,false,true,0.0-2.0-0.49-0.441-3.441,0,0,1,68,false,stim,false,2,542,2,1,2,85316,task3,1064675,false,false,1426,image-keyboard-response,12
true,21,2,1,2,true,d,false,false,0.0-2.0-0.49-0.442-3.442,0,0,1,68,false,stim,false,2,526,2,1,2,85316,task3,1066722,false,true,1429,image-keyboard-response,13
true,21,0,1,0,true,q,false,true,0.0-2.0-0.49-0.443-3.443,0,0,1,81,false,stim,false,1,999,2,0,1,85316,task3,1069254,false,false,1432,image-keyboard-response,14
true,21,1,1,1,true,z,false,true,0.0-2.0-0.49-0.444-3.444,0,0,1,90,false,stim,false,2,379,2,0,0,85316,task3,1071165,false,false,1435,image-keyboard-response,15
true,21,0,1,0,true,q,false,true,0.0-2.0-0.49-0.445-3.445,0,0,1,81,false,stim,false,1,800,2,0,1,85316,task3,1073486,false,false,1438,image-keyboard-response,16
true,21,1,1,1,true,z,false,true,0.0-2.0-0.49-0.446-3.446,0,0,1,90,false,stim,false,2,611,2,0,0,85316,task3,1075613,false,false,1441,image-keyboard-response,17
true,21,1,1,1,true,z,false,true,0.0-2.0-0.49-0.447-3.447,0,0,1,90,false,stim,false,2,799,2,0,0,85316,task3,1077933,false,false,1444,image-keyboard-response,18
true,21,2,1,2,true,d,false,true,0.0-2.0-0.49-0.448-3.448,0,0,1,68,false,stim,false,2,700,2,1,2,85316,task3,1080149,false,false,1447,image-keyboard-response,19
true,21,1,1,0,false,q,false,false,0.0-2.0-0.49-0.449-3.449,0,0,1,90,false,stim,true,1,587,2,0,1,85316,task3,1082245,false,false,1450,image-keyboard-response,20
true,21,0,1,0,true,q,false,true,0.0-2.0-0.50-0.450-3.450,0,0,1,81,false,stim,false,1,483,2,0,1,85316,task3,1084245,false,false,1453,image-keyboard-response,21
true,21,1,1,1,true,z,false,true,0.0-2.0-0.50-0.451-3.451,0,0,1,90,false,stim,false,2,1050,2,1,0,85316,task3,1086822,false,false,1456,image-keyboard-response,22
true,21,0,1,0,true,q,false,true,0.0-2.0-0.50-0.452-3.452,0,0,1,81,false,stim,false,1,536,2,0,1,85316,task3,1088869,false,false,1459,image-keyboard-response,23
true,21,1,1,1,true,z,false,false,0.0-2.0-0.50-0.453-3.453,0,0,1,90,false,stim,false,2,847,2,1,0,85316,task3,1091230,false,true,1462,image-keyboard-response,24
true,21,0,1,0,true,q,false,true,0.0-2.0-0.50-0.454-3.454,0,0,1,81,false,stim,false,1,696,2,0,1,85316,task3,1093445,false,false,1465,image-keyboard-response,25
true,22,2,1,0,false,q,false,false,0.0-2.0-0.50-0.455-3.455,1,0,0,68,true,stim,true,2,600,2,0,2,85316,task3,1095573,false,false,1468,image-keyboard-response,1
true,22,1,1,0,false,q,true,false,0.0-2.0-0.50-0.456-3.456,1,0,0,90,false,stim,false,2,725,2,0,2,85316,task3,1097820,false,false,1471,image-keyboard-response,2
true,22,2,1,1,false,z,true,false,0.0-2.0-0.50-0.457-3.457,1,0,0,68,false,stim,false,1,806,2,1,0,85316,task3,1100140,false,false,1474,image-keyboard-response,3
true,22,0,1,0,true,q,false,true,0.0-2.0-0.50-0.458-3.458,1,0,0,81,false,stim,false,2,872,2,0,2,85316,task3,1102533,false,false,1477,image-keyboard-response,4
true,22,0,1,2,false,d,false,false,0.0-2.0-0.51-0.459-3.459,1,0,0,81,false,stim,true,0,322,2,0,1,85316,task3,1104365,false,false,1480,image-keyboard-response,5
true,22,0,1,1,false,z,true,false,0.0-2.0-0.51-0.460-3.460,1,0,0,81,false,stim,false,1,413,2,1,0,85316,task3,1106302,false,false,1483,image-keyboard-response,6
true,22,1,1,2,false,d,true,false,0.0-2.0-0.51-0.461-3.461,1,0,0,90,false,stim,false,0,932,2,0,1,85316,task3,1108757,false,false,1486,image-keyboard-response,7
true,22,0,1,0,true,q,false,true,0.0-2.0-0.51-0.462-3.462,1,0,0,81,false,stim,false,2,399,2,0,2,85316,task3,1110677,false,false,1489,image-keyboard-response,8
true,22,2,1,1,false,z,true,false,0.0-2.0-0.51-0.463-3.463,1,0,0,68,false,stim,false,1,588,2,1,0,85316,task3,1112791,false,false,1492,image-keyboard-response,9
true,22,0,1,0,true,q,false,true,0.0-2.0-0.51-0.464-3.464,1,0,0,81,false,stim,false,2,681,2,0,2,85316,task3,1115005,false,false,1495,image-keyboard-response,10
true,22,2,1,2,true,d,false,true,0.0-2.0-0.51-0.465-3.465,1,0,0,68,false,stim,false,0,689,2,0,1,85316,task3,1117213,false,false,1498,image-keyboard-response,11
true,22,0,1,0,true,q,false,false,0.0-2.0-0.51-0.466-3.466,1,0,0,81,false,stim,false,2,607,2,0,2,85316,task3,1119366,false,true,1501,image-keyboard-response,12
true,22,0,1,1,false,z,true,false,0.0-2.0-0.51-0.467-3.467,1,0,0,81,false,stim,false,1,972,2,1,0,85316,task3,1121861,false,false,1504,image-keyboard-response,13
true,22,2,1,2,true,d,false,true,0.0-2.0-0.52-0.468-3.468,1,0,0,68,false,stim,false,0,685,2,0,1,85316,task3,1124069,false,false,1507,image-keyboard-response,14
true,22,2,1,2,true,d,false,true,0.0-2.0-0.52-0.469-3.469,1,0,0,68,false,stim,false,0,529,2,0,1,85316,task3,1126117,false,false,1510,image-keyboard-response,15
true,22,1,1,1,true,z,false,true,0.0-2.0-0.52-0.470-3.470,1,0,0,90,false,stim,false,1,1024,2,1,0,85316,task3,1128677,false,false,1513,image-keyboard-response,16
true,22,1,1,1,true,z,false,true,0.0-2.0-0.52-0.471-3.471,1,0,0,90,false,stim,false,1,541,2,1,0,85316,task3,1130749,false,false,1516,image-keyboard-response,17
true,22,2,1,0,false,q,false,false,0.0-2.0-0.52-0.472-3.472,1,0,0,68,false,stim,true,2,1125,2,0,2,85316,task3,1133389,false,false,1519,image-keyboard-response,18
true,22,2,1,2,true,d,false,true,0.0-2.0-0.52-0.473-3.473,1,0,0,68,false,stim,false,0,324,2,0,1,85316,task3,1135235,false,false,1522,image-keyboard-response,19
true,22,1,1,0,false,q,true,false,0.0-2.0-0.52-0.474-3.474,1,0,0,90,false,stim,false,2,351,2,0,2,85316,task3,1137109,false,false,1525,image-keyboard-response,20
true,22,0,1,0,true,q,false,true,0.0-2.0-0.52-0.475-3.475,1,0,0,81,false,stim,false,2,502,2,0,2,85316,task3,1139133,false,false,1528,image-keyboard-response,21
true,22,1,1,1,true,z,false,true,0.0-2.0-0.52-0.476-3.476,1,0,0,90,false,stim,false,1,536,2,1,0,85316,task3,1141187,false,false,1531,image-keyboard-response,22
true,22,2,1,2,true,d,false,true,0.0-2.0-0.53-0.477-3.477,1,0,0,68,false,stim,false,0,476,2,0,1,85316,task3,1143197,false,false,1534,image-keyboard-response,23
true,22,1,1,1,true,z,false,true,0.0-2.0-0.53-0.478-3.478,1,0,0,90,false,stim,false,1,653,2,1,0,85316,task3,1145374,false,false,1537,image-keyboard-response,24
true,22,1,1,1,true,z,false,true,0.0-2.0-0.53-0.479-3.479,1,0,0,90,false,stim,false,1,518,2,1,0,85316,task3,1147413,false,false,1540,image-keyboard-response,25
true,22,0,1,0,true,q,false,true,0.0-2.0-0.53-0.480-3.480,1,0,0,81,false,stim,false,2,607,2,0,2,85316,task3,1149541,false,false,1543,image-keyboard-response,26
true,22,0,1,0,true,q,false,true,0.0-2.0-0.53-0.481-3.481,1,0,0,81,false,stim,false,2,571,2,0,2,85316,task3,1151629,false,false,1546,image-keyboard-response,27
true,22,0,1,0,true,q,false,true,0.0-2.0-0.53-0.482-3.482,1,0,0,81,false,stim,false,2,755,2,0,2,85316,task3,1153918,false,false,1549,image-keyboard-response,28
true,23,2,1,1,false,z,false,true,0.0-2.0-0.53-0.483-3.483,1,0,0,68,true,stim,true,2,601,2,0,1,85316,task3,1156045,false,true,1552,image-keyboard-response,1
true,23,1,1,1,true,z,false,true,0.0-2.0-0.53-0.484-3.484,1,0,0,90,false,stim,false,1,520,2,1,0,85316,task3,1158078,false,false,1555,image-keyboard-response,2
true,23,0,1,1,false,z,true,false,0.0-2.0-0.53-0.485-3.485,1,0,0,81,false,stim,false,2,657,2,0,1,85316,task3,1160262,false,false,1558,image-keyboard-response,3
true,23,2,1,1,false,z,false,false,0.0-2.0-0.54-0.486-3.486,1,0,0,68,false,stim,true,2,504,2,0,1,85316,task3,1162293,false,false,1561,image-keyboard-response,4
true,23,1,1,1,true,z,false,true,0.0-2.0-0.54-0.487-3.487,1,0,0,90,false,stim,false,2,354,2,0,1,85316,task3,1164165,false,false,1564,image-keyboard-response,5
true,23,0,1,2,false,d,false,false,0.0-2.0-0.54-0.488-3.488,1,0,0,81,false,stim,true,0,708,2,0,2,85316,task3,1166389,false,false,1567,image-keyboard-response,6
true,23,1,1,1,true,z,false,true,0.0-2.0-0.54-0.489-3.489,1,0,0,90,false,stim,false,2,582,2,1,1,85316,task3,1168493,false,false,1570,image-keyboard-response,7
true,23,1,1,2,false,d,true,true,0.0-2.0-0.54-0.490-3.490,1,0,0,90,false,stim,false,0,499,2,1,2,85316,task3,1170517,false,true,1573,image-keyboard-response,8
true,23,1,1,2,false,d,true,false,0.0-2.0-0.54-0.491-3.491,1,0,0,90,false,stim,false,0,363,2,1,2,85316,task3,1172397,false,false,1576,image-keyboard-response,9
true,23,1,1,1,true,z,false,true,0.0-2.0-0.54-0.492-3.492,1,0,0,90,false,stim,false,1,683,2,0,0,85316,task3,1174605,false,false,1579,image-keyboard-response,10
true,23,1,1,1,true,z,false,false,0.0-2.0-0.54-0.493-3.493,1,0,0,90,false,stim,false,1,494,2,0,0,85316,task3,1176629,false,true,1582,image-keyboard-response,11
true,24,0,2,0,true,q,false,true,0.0-2.0-0.54-0.494-3.494,0,1,1,81,true,stim,false,1,1045,2,0,0,85316,task3,1179202,false,false,1585,image-keyboard-response,1
true,24,1,2,1,true,z,false,false,0.0-2.0-0.55-0.495-3.495,0,1,1,90,false,stim,false,1,1017,2,1,1,85316,task3,1181741,false,true,1588,image-keyboard-response,2
true,24,2,2,0,false,q,true,false,0.0-2.0-0.55-0.496-3.496,0,1,1,68,false,stim,false,1,597,2,0,0,85316,task3,1183869,false,false,1591,image-keyboard-response,3
true,24,0,2,0,true,q,false,true,0.0-2.0-0.55-0.497-3.497,0,1,1,81,false,stim,false,1,297,2,0,0,85316,task3,1185693,false,false,1594,image-keyboard-response,4
true,24,0,2,2,false,d,true,false,0.0-2.0-0.55-0.498-3.498,0,1,1,81,false,stim,false,2,687,2,1,2,85316,task3,1187902,false,false,1597,image-keyboard-response,5
true,24,2,2,2,true,d,false,true,0.0-2.0-0.55-0.499-3.499,0,1,1,68,false,stim,false,2,448,2,1,2,85316,task3,1189875,false,false,1600,image-keyboard-response,6
true,24,1,2,1,true,z,false,true,0.0-2.0-0.55-0.500-3.500,0,1,1,90,false,stim,false,1,1248,2,1,1,85316,task3,1192653,false,false,1603,image-keyboard-response,7
true,24,1,2,1,true,z,false,true,0.0-2.0-0.55-0.501-3.501,0,1,1,90,false,stim,false,1,538,2,1,1,85316,task3,1194709,false,false,1606,image-keyboard-response,8
true,24,2,2,2,true,d,false,true,0.0-2.0-0.55-0.502-3.502,0,1,1,68,false,stim,false,2,589,2,1,2,85316,task3,1196822,false,false,1609,image-keyboard-response,9
true,24,0,2,0,true,q,false,true,0.0-2.0-0.55-0.503-3.503,0,1,1,81,false,stim,false,1,351,2,0,0,85316,task3,1198693,false,false,1612,image-keyboard-response,10
true,24,1,2,1,true,z,false,true,0.0-2.0-0.56-0.504-3.504,0,1,1,90,false,stim,false,1,1033,2,0,1,85316,task3,1201253,false,false,1615,image-keyboard-response,11
true,24,2,2,2,true,d,false,true,0.0-2.0-0.56-0.505-3.505,0,1,1,68,false,stim,false,2,592,2,1,2,85316,task3,1203373,false,false,1618,image-keyboard-response,12
true,24,0,2,0,true,q,false,true,0.0-2.0-0.56-0.506-3.506,0,1,1,81,false,stim,false,1,1175,2,1,0,85316,task3,1206069,false,false,1621,image-keyboard-response,13
true,24,1,2,1,true,z,false,true,0.0-2.0-0.56-0.507-3.507,0,1,1,90,false,stim,false,1,854,2,0,1,85316,task3,1208445,false,false,1624,image-keyboard-response,14
true,24,0,2,0,true,q,false,true,0.0-2.0-0.56-0.508-3.508,0,1,1,81,false,stim,false,1,649,2,1,0,85316,task3,1210622,false,false,1627,image-keyboard-response,15
true,25,2,2,2,true,d,false,false,0.0-2.0-0.56-0.509-3.509,1,0,1,68,true,stim,false,2,919,2,1,2,85316,task3,1213061,false,true,1630,image-keyboard-response,1
true,25,1,2,2,false,d,true,false,0.0-2.0-0.56-0.510-3.510,1,0,1,90,false,stim,false,2,703,2,1,2,85316,task3,1215285,false,false,1633,image-keyboard-response,2
true,25,1,2,0,false,q,false,false,0.0-2.0-0.56-0.511-3.511,1,0,1,90,false,stim,true,1,1218,2,0,1,85316,task3,1218021,false,false,1636,image-keyboard-response,3
true,25,0,2,0,true,q,false,true,0.0-2.0-0.56-0.512-3.512,1,0,1,81,false,stim,false,0,534,2,1,0,85316,task3,1220077,false,false,1639,image-keyboard-response,4
true,25,0,2,0,true,q,false,false,0.0-2.0-0.57-0.513-3.513,1,0,1,81,false,stim,false,0,400,2,1,0,85316,task3,1221996,false,true,1642,image-keyboard-response,5
true,25,0,2,2,false,d,true,false,0.0-2.0-0.57-0.514-3.514,1,0,1,81,false,stim,false,2,797,2,1,2,85316,task3,1224318,false,false,1645,image-keyboard-response,6
true,25,1,2,2,false,d,true,false,0.0-2.0-0.57-0.515-3.515,1,0,1,90,false,stim,false,2,415,2,1,2,85316,task3,1226249,false,false,1648,image-keyboard-response,7
true,25,1,2,2,false,d,true,false,0.0-2.0-0.57-0.516-3.516,1,0,1,90,false,stim,false,2,379,2,1,2,85316,task3,1228157,false,false,1651,image-keyboard-response,8
true,25,0,2,0,true,q,false,true,0.0-2.0-0.57-0.517-3.517,1,0,1,81,false,stim,false,0,1118,2,1,0,85316,task3,1230797,false,false,1654,image-keyboard-response,9
true,25,1,2,0,false,q,false,false,0.0-2.0-0.57-0.518-3.518,1,0,1,90,false,stim,true,1,756,2,1,1,85316,task3,1233077,false,false,1657,image-keyboard-response,10
true,25,2,2,0,false,q,true,false,0.0-2.0-0.57-0.519-3.519,1,0,1,68,false,stim,false,1,658,2,1,1,85316,task3,1235270,false,false,1660,image-keyboard-response,11
true,25,0,2,0,true,q,false,true,0.0-2.0-0.57-0.520-3.520,1,0,1,81,false,stim,false,0,395,2,1,0,85316,task3,1237180,false,false,1663,image-keyboard-response,12
true,26,0,0,0,true,q,false,false,0.0-2.0-0.57-0.521-3.521,1,1,1,81,true,stim,false,0,746,2,1,1,85316,task3,1360630,false,true,1786,image-keyboard-response,1
true,26,0,0,2,false,d,true,false,0.0-2.0-0.58-0.522-3.522,1,1,1,81,false,stim,false,2,917,2,1,2,85316,task3,1363061,false,false,1789,image-keyboard-response,2
true,26,0,0,0,true,q,false,true,0.0-2.0-0.58-0.523-3.523,1,1,1,81,false,stim,false,0,486,2,1,0,85316,task3,1365061,false,false,1792,image-keyboard-response,3
true,26,0,0,0,true,q,false,true,0.0-2.0-0.58-0.524-3.524,1,1,1,81,false,stim,false,0,849,2,1,0,85316,task3,1367445,false,false,1795,image-keyboard-response,4
true,26,1,0,2,false,d,true,false,0.0-2.0-0.58-0.525-3.525,1,1,1,90,false,stim,false,2,866,2,1,2,85316,task3,1369835,false,false,1798,image-keyboard-response,5
true,26,2,0,2,true,d,false,false,0.0-2.0-0.58-0.526-3.526,1,1,1,68,false,stim,false,2,410,2,1,2,85316,task3,1371788,false,true,1801,image-keyboard-response,6
true,26,0,0,0,true,q,false,true,0.0-2.0-0.58-0.527-3.527,1,1,1,81,false,stim,false,0,412,2,0,0,85316,task3,1373724,false,false,1804,image-keyboard-response,7
true,26,0,0,0,true,q,false,true,0.0-2.0-0.58-0.528-3.528,1,1,1,81,false,stim,false,0,747,2,1,1,85316,task3,1375988,false,false,1807,image-keyboard-response,8
true,26,0,0,0,true,q,false,true,0.0-2.0-0.58-0.529-3.529,1,1,1,81,false,stim,false,0,501,2,1,1,85316,task3,1378012,false,false,1810,image-keyboard-response,9
true,26,0,0,0,true,q,false,true,0.0-2.0-0.58-0.530-3.530,1,1,1,81,false,stim,false,0,651,2,1,1,85316,task3,1380181,false,false,1813,image-keyboard-response,10
true,26,0,0,0,true,q,false,false,0.0-2.0-0.59-0.531-3.531,1,1,1,81,false,stim,false,0,517,2,1,1,85316,task3,1382228,false,true,1816,image-keyboard-response,11
true,27,0,2,2,false,d,true,false,0.0-2.0-0.59-0.532-3.532,0,1,1,81,true,stim,false,2,1129,2,1,2,85316,task3,1384893,false,false,1819,image-keyboard-response,1
true,27,0,2,2,false,d,false,false,0.0-2.0-0.59-0.533-3.533,0,1,1,81,false,stim,true,0,569,2,0,0,85316,task3,1386981,false,false,1822,image-keyboard-response,2
true,27,1,2,2,false,d,true,false,0.0-2.0-0.59-0.534-3.534,0,1,1,90,false,stim,false,2,600,2,1,2,85316,task3,1389106,false,false,1825,image-keyboard-response,3
true,27,1,2,0,false,q,true,false,0.0-2.0-0.59-0.535-3.535,0,1,1,90,false,stim,false,0,821,2,1,1,85316,task3,1391445,false,false,1828,image-keyboard-response,4
true,27,2,2,2,true,d,false,true,0.0-2.0-0.59-0.536-3.536,0,1,1,68,false,stim,false,0,633,2,0,0,85316,task3,1393596,false,false,1831,image-keyboard-response,5
true,27,2,2,2,true,d,false,true,0.0-2.0-0.59-0.537-3.537,0,1,1,68,false,stim,false,2,347,2,1,2,85316,task3,1395469,false,false,1834,image-keyboard-response,6
true,27,2,2,0,false,q,true,false,0.0-2.0-0.59-0.538-3.538,0,1,1,68,false,stim,false,0,315,2,1,1,85316,task3,1397306,false,false,1837,image-keyboard-response,7
true,27,2,2,2,true,d,false,true,0.0-2.0-0.59-0.539-3.539,0,1,1,68,false,stim,false,0,518,2,1,0,85316,task3,1399348,false,false,1840,image-keyboard-response,8
true,27,2,2,0,false,q,true,false,0.0-2.0-0.60-0.540-3.540,0,1,1,68,false,stim,false,0,813,2,0,1,85316,task3,1401685,false,false,1843,image-keyboard-response,9
true,27,1,2,0,false,q,true,true,0.0-2.0-0.60-0.541-3.541,0,1,1,90,false,stim,false,0,2284,2,0,1,85316,task3,1405484,false,true,1846,image-keyboard-response,10
true,27,2,2,2,true,d,false,true,0.0-2.0-0.60-0.542-3.542,0,1,1,68,false,stim,false,0,624,2,1,0,85316,task3,1407629,false,false,1849,image-keyboard-response,11
true,27,2,2,2,true,d,false,true,0.0-2.0-0.60-0.543-3.543,0,1,1,68,false,stim,false,0,616,2,1,0,85316,task3,1409765,false,false,1852,image-keyboard-response,12
true,28,2,1,1,false,z,false,false,0.0-2.0-0.60-0.544-3.544,1,0,0,68,true,stim,true,2,539,2,0,2,85316,task3,1411828,false,false,1855,image-keyboard-response,1
true,28,1,1,2,false,d,true,false,0.0-2.0-0.60-0.545-3.545,1,0,0,90,false,stim,false,0,396,2,0,1,85316,task3,1413748,false,false,1858,image-keyboard-response,2
true,28,2,1,2,true,d,false,true,0.0-2.0-0.60-0.546-3.546,1,0,0,68,false,stim,false,2,1090,2,1,0,85316,task3,1416370,false,false,1861,image-keyboard-response,3
true,28,0,1,1,false,z,true,false,0.0-2.0-0.60-0.547-3.547,1,0,0,81,false,stim,false,2,1126,2,0,2,85316,task3,1419013,false,false,1864,image-keyboard-response,4
true,28,1,1,1,true,z,false,true,0.0-2.0-0.60-0.548-3.548,1,0,0,90,false,stim,false,2,731,2,0,2,85316,task3,1421276,false,false,1867,image-keyboard-response,5
true,28,2,1,2,true,d,false,true,0.0-2.0-0.61-0.549-3.549,1,0,0,68,false,stim,false,0,832,2,0,1,85316,task3,1423636,false,false,1870,image-keyboard-response,6
true,28,2,1,1,false,z,false,false,0.0-2.0-0.61-0.550-3.550,1,0,0,68,false,stim,true,2,1150,2,0,2,85316,task3,1426308,false,false,1873,image-keyboard-response,7
true,28,1,1,2,false,d,true,false,0.0-2.0-0.61-0.551-3.551,1,0,0,90,false,stim,false,0,1121,2,0,1,85316,task3,1428965,false,false,1876,image-keyboard-response,8
true,28,2,1,1,false,z,false,false,0.0-2.0-0.61-0.552-3.552,1,0,0,68,false,stim,true,2,600,2,0,2,85316,task3,1431083,false,false,1879,image-keyboard-response,9
true,28,0,1,2,false,d,false,false,0.0-2.0-0.61-0.553-3.553,1,0,0,81,false,stim,true,0,640,2,0,1,85316,task3,1433245,false,false,1882,image-keyboard-response,10
true,28,0,1,2,false,d,true,false,0.0-2.0-0.61-0.554-3.554,1,0,0,81,false,stim,false,2,630,2,1,0,85316,task3,1435397,false,false,1885,image-keyboard-response,11
true,28,2,1,2,true,d,false,true,0.0-2.0-0.61-0.555-3.555,1,0,0,68,false,stim,false,2,792,2,1,0,85316,task3,1437714,false,false,1888,image-keyboard-response,12
true,28,2,1,1,false,z,false,true,0.0-2.0-0.61-0.556-3.556,1,0,0,68,false,stim,true,2,357,2,0,2,85316,task3,1439589,false,true,1891,image-keyboard-response,13
true,28,2,1,2,true,d,false,true,0.0-2.0-0.61-0.557-3.557,1,0,0,68,false,stim,false,2,376,2,1,0,85316,task3,1441485,false,false,1894,image-keyboard-response,14
true,28,2,1,2,true,d,false,true,0.0-2.0-0.62-0.558-3.558,1,0,0,68,false,stim,false,2,407,2,1,0,85316,task3,1443420,false,false,1897,image-keyboard-response,15
true,28,2,1,2,true,d,false,true,0.0-2.0-0.62-0.559-3.559,1,0,0,68,false,stim,false,0,386,2,0,1,85316,task3,1445331,false,false,1900,image-keyboard-response,16
true,28,2,1,2,true,d,false,true,0.0-2.0-0.62-0.560-3.560,1,0,0,68,false,stim,false,0,481,2,0,1,85316,task3,1447349,false,false,1903,image-keyboard-response,17
true,28,2,1,2,true,d,false,true,0.0-2.0-0.62-0.561-3.561,1,0,0,68,false,stim,false,0,305,2,0,1,85316,task3,1449179,false,false,1906,image-keyboard-response,18
true,28,2,1,1,false,z,false,false,0.0-2.0-0.62-0.562-3.562,1,0,0,68,false,stim,true,2,279,2,0,2,85316,task3,1450979,false,false,1909,image-keyboard-response,19
true,28,1,1,1,true,z,false,true,0.0-2.0-0.62-0.563-3.563,1,0,0,90,false,stim,false,2,788,2,0,2,85316,task3,1453277,false,false,1912,image-keyboard-response,20
true,28,1,1,1,true,z,false,true,0.0-2.0-0.62-0.564-3.564,1,0,0,90,false,stim,false,2,601,2,0,2,85316,task3,1455413,false,false,1915,image-keyboard-response,21
true,28,1,1,2,false,d,true,false,0.0-2.0-0.62-0.565-3.565,1,0,0,90,false,stim,false,2,1179,2,1,0,85316,task3,1458116,false,false,1918,image-keyboard-response,22
true,28,2,1,2,true,d,false,true,0.0-2.0-0.62-0.566-3.566,1,0,0,68,false,stim,false,2,664,2,1,0,85316,task3,1460317,false,false,1921,image-keyboard-response,23
true,28,1,1,1,true,z,false,true,0.0-2.0-0.63-0.567-3.567,1,0,0,90,false,stim,false,2,677,2,0,2,85316,task3,1462517,false,false,1924,image-keyboard-response,24
true,28,2,1,2,true,d,false,true,0.0-2.0-0.63-0.568-3.568,1,0,0,68,false,stim,false,2,540,2,1,0,85316,task3,1464588,false,false,1927,image-keyboard-response,25
true,28,2,1,2,true,d,false,true,0.0-2.0-0.63-0.569-3.569,1,0,0,68,false,stim,false,2,440,2,1,0,85316,task3,1466549,false,false,1930,image-keyboard-response,26
true,28,2,1,2,true,d,false,true,0.0-2.0-0.63-0.570-3.570,1,0,0,68,false,stim,false,0,742,2,0,1,85316,task3,1468812,false,false,1933,image-keyboard-response,27
true,28,1,1,1,true,z,false,true,0.0-2.0-0.63-0.571-3.571,1,0,0,90,false,stim,false,2,614,2,0,2,85316,task3,1470949,false,false,1936,image-keyboard-response,28
true,28,2,1,2,true,d,false,true,0.0-2.0-0.63-0.572-3.572,1,0,0,68,false,stim,false,0,396,2,0,1,85316,task3,1472866,false,false,1939,image-keyboard-response,29
true,29,2,1,2,true,d,false,true,0.0-2.0-0.63-0.573-3.573,1,0,0,68,true,stim,false,2,495,2,1,0,85316,task3,1474884,false,false,1942,image-keyboard-response,1
true,29,2,1,0,false,q,true,false,0.0-2.0-0.63-0.574-3.574,1,0,0,68,false,stim,false,1,739,2,0,2,85316,task3,1477141,false,false,1945,image-keyboard-response,2
true,29,1,1,0,false,q,true,false,0.0-2.0-0.63-0.575-3.575,1,0,0,90,false,stim,false,2,864,2,0,1,85316,task3,1479532,false,false,1948,image-keyboard-response,3
true,29,0,1,0,true,q,false,true,0.0-2.0-0.64-0.576-3.576,1,0,0,81,false,stim,false,1,1192,2,0,2,85316,task3,1482245,false,false,1951,image-keyboard-response,4
true,29,0,1,0,true,q,false,true,0.0-2.0-0.64-0.577-3.577,1,0,0,81,false,stim,false,1,456,2,0,2,85316,task3,1484221,false,false,1954,image-keyboard-response,5
true,29,0,1,0,true,q,false,true,0.0-2.0-0.64-0.578-3.578,1,0,0,81,false,stim,false,2,705,2,0,1,85316,task3,1486436,false,false,1957,image-keyboard-response,6
true,29,0,1,0,true,q,false,true,0.0-2.0-0.64-0.579-3.579,1,0,0,81,false,stim,false,1,624,2,0,2,85316,task3,1488589,false,false,1960,image-keyboard-response,7
true,29,1,1,2,false,d,true,false,0.0-2.0-0.64-0.580-3.580,1,0,0,90,false,stim,false,2,437,2,1,0,85316,task3,1490557,false,false,1963,image-keyboard-response,8
true,29,2,1,2,true,d,false,true,0.0-2.0-0.64-0.581-3.581,1,0,0,68,false,stim,false,2,411,2,1,0,85316,task3,1492493,false,false,1966,image-keyboard-response,9
true,29,0,1,0,true,q,false,true,0.0-2.0-0.64-0.582-3.582,1,0,0,81,false,stim,false,2,453,2,0,1,85316,task3,1494476,false,false,1969,image-keyboard-response,10
true,29,0,1,2,false,d,true,false,0.0-2.0-0.64-0.583-3.583,1,0,0,81,false,stim,false,2,383,2,1,0,85316,task3,1496381,false,false,1972,image-keyboard-response,11
true,29,0,1,0,true,q,false,true,0.0-2.0-0.64-0.584-3.584,1,0,0,81,false,stim,false,2,451,2,0,1,85316,task3,1498341,false,false,1975,image-keyboard-response,12
true,29,0,1,0,true,q,false,true,0.0-2.0-0.65-0.585-3.585,1,0,0,81,false,stim,false,2,1015,2,0,1,85316,task3,1500874,false,false,1978,image-keyboard-response,13
true,29,0,1,0,true,q,false,true,0.0-2.0-0.65-0.586-3.586,1,0,0,81,false,stim,false,2,501,2,0,1,85316,task3,1502893,false,false,1981,image-keyboard-response,14
true,29,2,1,2,true,d,false,true,0.0-2.0-0.65-0.587-3.587,1,0,0,68,false,stim,false,2,432,2,1,0,85316,task3,1504844,false,false,1984,image-keyboard-response,15
true,29,2,1,2,true,d,false,true,0.0-2.0-0.65-0.588-3.588,1,0,0,68,false,stim,false,2,607,2,1,0,85316,task3,1506972,false,false,1987,image-keyboard-response,16
true,29,0,1,0,true,q,false,true,0.0-2.0-0.65-0.589-3.589,1,0,0,81,false,stim,false,1,976,2,0,2,85316,task3,1509468,false,false,1990,image-keyboard-response,17
true,29,0,1,0,true,q,false,true,0.0-2.0-0.65-0.590-3.590,1,0,0,81,false,stim,false,2,918,2,0,1,85316,task3,1511909,false,false,1993,image-keyboard-response,18
true,29,0,1,0,true,q,false,false,0.0-2.0-0.65-0.591-3.591,1,0,0,81,false,stim,false,1,1002,2,0,2,85316,task3,1514437,false,true,1996,image-keyboard-response,19
true,29,1,1,0,false,q,false,false,0.0-2.0-0.65-0.592-3.592,1,0,0,90,false,stim,true,1,1384,2,0,2,85316,task3,1517340,false,false,1999,image-keyboard-response,20
true,29,2,1,2,true,d,false,true,0.0-2.0-0.65-0.593-3.593,1,0,0,68,false,stim,false,2,827,2,1,0,85316,task3,1519724,false,false,2002,image-keyboard-response,21
true,29,2,1,2,true,d,false,true,0.0-2.0-0.66-0.594-3.594,1,0,0,68,false,stim,false,2,622,2,1,0,85316,task3,1521868,false,false,2005,image-keyboard-response,22
true,29,0,1,0,true,q,false,true,0.0-2.0-0.66-0.595-3.595,1,0,0,81,false,stim,false,2,639,2,0,1,85316,task3,1524037,false,false,2008,image-keyboard-response,23
true,29,0,1,0,true,q,false,true,0.0-2.0-0.66-0.596-3.596,1,0,0,81,false,stim,false,2,553,2,0,1,85316,task3,1526115,false,false,2011,image-keyboard-response,24
true,29,2,1,2,true,d,false,true,0.0-2.0-0.66-0.597-3.597,1,0,0,68,false,stim,false,2,798,2,1,0,85316,task3,1528444,false,false,2014,image-keyboard-response,25
true,29,2,1,0,false,q,true,false,0.0-2.0-0.66-0.598-3.598,1,0,0,68,false,stim,false,1,872,2,1,2,85316,task3,1530844,false,false,2017,image-keyboard-response,26
true,29,0,1,0,true,q,false,true,0.0-2.0-0.66-0.599-3.599,1,0,0,81,false,stim,false,1,567,2,1,2,85316,task3,1532938,false,false,2020,image-keyboard-response,27
true,29,2,1,2,true,d,false,true,0.0-2.0-0.66-0.600-3.600,1,0,0,68,false,stim,false,2,569,2,1,0,85316,task3,1535037,false,false,2023,image-keyboard-response,28
true,29,0,1,0,true,q,false,true,0.0-2.0-0.66-0.601-3.601,1,0,0,81,false,stim,false,2,601,2,0,1,85316,task3,1537164,false,false,2026,image-keyboard-response,29
true,29,0,1,0,true,q,false,true,0.0-2.0-0.66-0.602-3.602,1,0,0,81,false,stim,false,1,351,2,1,2,85316,task3,1539044,false,false,2029,image-keyboard-response,30
true,30,0,2,0,true,q,false,true,0.0-2.0-0.67-0.603-3.603,1,0,1,81,true,stim,false,0,478,2,1,2,85316,task3,1541052,false,false,2032,image-keyboard-response,1
true,30,2,2,2,true,d,false,false,0.0-2.0-0.67-0.604-3.604,1,0,1,68,false,stim,false,2,828,2,1,0,85316,task3,1543412,false,true,2035,image-keyboard-response,2
true,30,0,2,1,false,z,false,false,0.0-2.0-0.67-0.605-3.605,1,0,1,81,false,stim,true,0,559,2,0,1,85316,task3,1545493,false,false,2038,image-keyboard-response,3
true,30,1,2,1,true,z,false,true,0.0-2.0-0.67-0.606-3.606,1,0,1,90,false,stim,false,0,701,2,0,1,85316,task3,1547717,false,false,2041,image-keyboard-response,4
true,30,1,2,2,false,d,true,false,0.0-2.0-0.67-0.607-3.607,1,0,1,90,false,stim,false,2,599,2,1,0,85316,task3,1549835,false,false,2044,image-keyboard-response,5
true,30,0,2,1,false,z,false,false,0.0-2.0-0.67-0.608-3.608,1,0,1,81,false,stim,true,0,579,2,0,1,85316,task3,1551933,false,false,2047,image-keyboard-response,6
true,30,0,2,0,true,q,false,true,0.0-2.0-0.67-0.609-3.609,1,0,1,81,false,stim,false,0,1185,2,1,2,85316,task3,1554636,false,false,2050,image-keyboard-response,7
true,30,0,2,0,true,q,false,true,0.0-2.0-0.67-0.610-3.610,1,0,1,81,false,stim,false,0,392,2,1,2,85316,task3,1556540,false,false,2053,image-keyboard-response,8
true,30,1,2,2,false,d,true,false,0.0-2.0-0.67-0.611-3.611,1,0,1,90,false,stim,false,2,754,2,1,0,85316,task3,1558820,false,false,2056,image-keyboard-response,9
true,30,0,2,0,true,q,false,true,0.0-2.0-0.68-0.612-3.612,1,0,1,81,false,stim,false,0,572,2,1,2,85316,task3,1560925,false,false,2059,image-keyboard-response,10
true,30,1,2,0,false,q,true,false,0.0-2.0-0.68-0.613-3.613,1,0,1,90,false,stim,false,0,630,2,1,2,85316,task3,1563084,false,false,2062,image-keyboard-response,11
true,30,0,2,2,false,d,true,false,0.0-2.0-0.68-0.614-3.614,1,0,1,81,false,stim,false,2,651,2,1,0,85316,task3,1565261,false,false,2065,image-keyboard-response,12
true,30,1,2,1,true,z,false,true,0.0-2.0-0.68-0.615-3.615,1,0,1,90,false,stim,false,0,949,2,0,1,85316,task3,1567741,false,false,2068,image-keyboard-response,13
true,30,0,2,2,false,d,true,true,0.0-2.0-0.68-0.616-3.616,1,0,1,81,false,stim,false,2,596,2,1,0,85316,task3,1569861,false,true,2071,image-keyboard-response,14
true,30,1,2,1,true,z,false,true,0.0-2.0-0.68-0.617-3.617,1,0,1,90,false,stim,false,0,936,2,0,1,85316,task3,1572324,false,false,2074,image-keyboard-response,15
true,30,0,2,1,false,z,false,false,0.0-2.0-0.68-0.618-3.618,1,0,1,81,false,stim,true,0,564,2,0,1,85316,task3,1574412,false,false,2077,image-keyboard-response,16
true,30,0,2,2,false,d,true,false,0.0-2.0-0.68-0.619-3.619,1,0,1,81,false,stim,false,2,692,2,1,0,85316,task3,1576629,false,false,2080,image-keyboard-response,17
true,30,1,2,0,false,q,true,false,0.0-2.0-0.68-0.620-3.620,1,0,1,90,false,stim,false,0,620,2,1,2,85316,task3,1578771,false,false,2083,image-keyboard-response,18
true,30,2,2,1,false,z,true,false,0.0-2.0-0.69-0.621-3.621,1,0,1,68,false,stim,false,0,923,2,0,1,85316,task3,1581220,false,false,2086,image-keyboard-response,19
true,30,1,2,0,false,q,true,false,0.0-2.0-0.69-0.622-3.622,1,0,1,90,false,stim,false,0,542,2,0,2,85316,task3,1583284,false,false,2089,image-keyboard-response,20
true,30,1,2,2,false,d,true,false,0.0-2.0-0.69-0.623-3.623,1,0,1,90,false,stim,false,2,1463,2,1,0,85316,task3,1586277,false,false,2092,image-keyboard-response,21
true,30,0,2,0,true,q,false,true,0.0-2.0-0.69-0.624-3.624,1,0,1,81,false,stim,false,0,1618,2,0,2,85316,task3,1589413,false,false,2095,image-keyboard-response,22
true,30,1,2,1,true,z,false,true,0.0-2.0-0.69-0.625-3.625,1,0,1,90,false,stim,false,0,1505,2,0,1,85316,task3,1592437,false,false,2098,image-keyboard-response,23
true,31,0,1,2,false,d,true,false,0.0-2.0-0.69-0.626-3.626,1,0,0,81,true,stim,false,2,438,2,1,0,85316,task3,1594428,false,false,2101,image-keyboard-response,1
true,31,2,1,2,true,d,false,true,0.0-2.0-0.69-0.627-3.627,1,0,0,68,false,stim,false,2,499,2,1,0,85316,task3,1596451,false,false,2104,image-keyboard-response,2
true,31,0,1,1,false,z,false,false,0.0-2.0-0.69-0.628-3.628,1,0,0,81,false,stim,true,0,442,2,0,2,85316,task3,1598413,false,false,2107,image-keyboard-response,3
true,31,1,1,0,false,q,false,false,0.0-2.0-0.69-0.629-3.629,1,0,0,90,false,stim,true,1,334,2,0,1,85316,task3,1600277,false,false,2110,image-keyboard-response,4
true,31,2,1,2,true,d,false,true,0.0-2.0-0.70-0.630-3.630,1,0,0,68,false,stim,false,2,653,2,1,0,85316,task3,1602445,false,false,2113,image-keyboard-response,5
true,31,0,1,0,true,q,false,false,0.0-2.0-0.70-0.631-3.631,1,0,0,81,false,stim,false,1,1110,2,0,1,85316,task3,1605076,false,true,2116,image-keyboard-response,6
true,31,2,1,2,true,d,false,true,0.0-2.0-0.70-0.632-3.632,1,0,0,68,false,stim,false,2,643,2,1,0,85316,task3,1607236,false,false,2119,image-keyboard-response,7
true,31,1,1,0,false,q,false,false,0.0-2.0-0.70-0.633-3.633,1,0,0,90,false,stim,true,1,1020,2,0,1,85316,task3,1609772,false,false,2122,image-keyboard-response,8
