answered,blockNum,choice,condition,corResp,correct,correct_response,explo,fb,internal_node_id,isStable_1,isStable_2,isStable_3,key_press,newBlock,part,persev,persevResp,rt,sessNum,stableAS,stimulus,subject,task,time_elapsed,training,trap,trial_index,trial_type,trialsInBlock
true,1,2,0,1,false,z,true,false,0.0-2.0-0.0-0.0-3.0,0,0,0,68,true,stim,false,-1,1055.1999999999534,1,0,2,86720,task1,221642,false,false,184,image-keyboard-response,1
true,1,1,0,2,false,d,true,false,0.0-2.0-0.0-0.1-3.1,0,0,0,90,false,stim,false,-1,1051.0999999999767,1,0,0,86720,task1,224200,false,false,187,image-keyboard-response,2
true,1,0,0,2,false,d,true,false,0.0-2.0-0.0-0.2-3.2,0,0,0,81,false,stim,false,-1,1001.3000000000466,1,0,0,86720,task1,226707,false,false,190,image-keyboard-response,3
true,1,0,0,2,false,d,true,false,0.0-2.0-0.0-0.3-3.3,0,0,0,81,false,stim,false,-1,1014.0999999999767,1,0,1,86720,task1,229227,false,false,193,image-keyboard-response,4
true,1,1,0,2,false,d,true,false,0.0-2.0-0.0-0.4-3.4,0,0,0,90,false,stim,false,-1,659.1999999999534,1,0,1,86720,task1,231393,false,false,196,image-keyboard-response,5
true,1,1,0,1,true,z,false,true,0.0-2.0-0.0-0.5-3.5,0,0,0,90,false,stim,false,-1,922.8000000000466,1,0,2,86720,task1,233822,false,false,199,image-keyboard-response,6
true,1,2,0,2,true,d,false,true,0.0-2.0-0.0-0.6-3.6,0,0,0,68,false,stim,false,-1,440.5,1,0,1,86720,task1,235771,false,false,202,image-keyboard-response,7
true,1,1,0,1,true,z,false,true,0.0-2.0-0.0-0.7-3.7,0,0,0,90,false,stim,false,-1,1118.0999999999767,1,0,2,86720,task1,238395,false,false,205,image-keyboard-response,8
true,1,0,0,2,false,d,true,false,0.0-2.0-0.0-0.8-3.8,0,0,0,81,false,stim,false,-1,1099.1999999999534,1,0,0,86720,task1,241000,false,false,208,image-keyboard-response,9
true,1,1,0,2,false,d,true,false,0.0-2.0-0.1-0.9-3.9,0,0,0,90,false,stim,false,-1,487.29999999993015,1,0,0,86720,task1,242993,false,false,211,image-keyboard-response,10
true,1,2,0,2,true,d,false,true,0.0-2.0-0.1-0.10-3.10,0,0,0,68,false,stim,false,-1,1089.0999999999767,1,0,0,86720,task1,245588,false,false,214,image-keyboard-response,11
true,1,1,0,1,true,z,false,true,0.0-2.0-0.1-0.11-3.11,0,0,0,90,false,stim,false,-1,769.5,1,0,2,86720,task1,247863,false,false,217,image-keyboard-response,12
true,1,2,0,2,true,d,false,true,0.0-2.0-0.1-0.12-3.12,0,0,0,68,false,stim,false,-1,554.9000000000233,1,0,1,86720,task1,249924,false,false,220,image-keyboard-response,13
true,1,2,0,2,true,d,false,true,0.0-2.0-0.1-0.13-3.13,0,0,0,68,false,stim,false,-1,1210.7999999999302,1,0,0,86720,task1,252640,false,false,223,image-keyboard-response,14
true,1,2,0,2,true,d,false,true,0.0-2.0-0.1-0.14-3.14,0,0,0,68,false,stim,false,-1,1345.8999999999069,1,0,1,86720,task1,255491,false,false,226,image-keyboard-response,15
true,1,1,0,1,true,z,false,true,0.0-2.0-0.1-0.15-3.15,0,0,0,90,false,stim,false,-1,437.70000000006985,1,0,2,86720,task1,257435,false,false,229,image-keyboard-response,16
true,1,1,0,1,true,z,false,true,0.0-2.0-0.1-0.16-3.16,0,0,0,90,false,stim,false,-1,569.0999999999767,1,0,2,86720,task1,259509,false,false,232,image-keyboard-response,17
true,1,2,0,2,true,d,false,false,0.0-2.0-0.1-0.17-3.17,0,0,0,68,false,stim,false,-1,588.4000000000233,1,0,1,86720,task1,261603,false,true,235,image-keyboard-response,18
true,1,1,0,1,true,z,false,true,0.0-2.0-0.2-0.18-3.18,0,0,0,90,false,stim,false,-1,710.5,1,0,2,86720,task1,263820,false,false,238,image-keyboard-response,19
true,1,2,0,2,true,d,false,true,0.0-2.0-0.2-0.19-3.19,0,0,0,68,false,stim,false,-1,407.0,1,0,1,86720,task1,265732,false,false,241,image-keyboard-response,20
true,1,2,0,2,true,d,false,true,0.0-2.0-0.2-0.20-3.20,0,0,0,68,false,stim,false,-1,603.3999999999069,1,0,1,86720,task1,267841,false,false,244,image-keyboard-response,21
true,1,2,0,2,true,d,false,true,0.0-2.0-0.2-0.21-3.21,0,0,0,68,false,stim,false,-1,646.1999999999534,1,0,0,86720,task1,269993,false,false,247,image-keyboard-response,22
true,1,1,0,1,true,z,false,true,0.0-2.0-0.2-0.22-3.22,0,0,0,90,false,stim,false,-1,1520.5,1,0,2,86720,task1,273019,false,false,250,image-keyboard-response,23
true,1,1,0,1,true,z,false,true,0.0-2.0-0.2-0.23-3.23,0,0,0,90,false,stim,false,-1,611.0999999999767,1,0,2,86720,task1,275136,false,false,253,image-keyboard-response,24
true,1,2,0,2,true,d,false,true,0.0-2.0-0.2-0.24-3.24,0,0,0,68,false,stim,false,-1,915.5999999999767,1,0,0,86720,task1,277558,false,false,256,image-keyboard-response,25
true,1,2,0,2,true,d,false,true,0.0-2.0-0.2-0.25-3.25,0,0,0,68,false,stim,false,-1,859.5,1,0,1,86720,task1,279924,false,false,259,image-keyboard-response,26
true,2,1,1,0,false,q,true,false,0.0-2.0-0.2-0.26-3.26,0,0,0,90,true,stim,false,2,2147.1999999999534,1,0,0,86720,task1,283576,false,false,262,image-keyboard-response,1
true,2,2,1,0,false,q,false,false,0.0-2.0-0.3-0.27-3.27,0,0,0,68,false,stim,true,2,866.0,1,0,1,86720,task1,285949,false,false,265,image-keyboard-response,2
true,2,2,1,2,true,d,false,true,0.0-2.0-0.3-0.28-3.28,0,0,0,68,false,stim,false,1,1296.1999999999534,1,0,2,86720,task1,288751,false,false,268,image-keyboard-response,3
true,2,2,1,0,false,q,false,false,0.0-2.0-0.3-0.29-3.29,0,0,0,68,false,stim,true,2,926.0,1,0,1,86720,task1,291183,false,false,271,image-keyboard-response,4
true,2,2,1,0,false,q,false,false,0.0-2.0-0.3-0.30-3.30,0,0,0,68,false,stim,true,2,1609.7000000000698,1,0,1,86720,task1,294298,false,false,274,image-keyboard-response,5
true,2,1,1,0,false,q,true,false,0.0-2.0-0.3-0.31-3.31,0,0,0,90,false,stim,false,2,1415.4000000000233,1,0,0,86720,task1,297219,false,false,277,image-keyboard-response,6
true,2,1,1,2,false,d,false,false,0.0-2.0-0.3-0.32-3.32,0,0,0,90,false,stim,true,1,2340.9000000000233,1,0,2,86720,task1,301137,false,false,280,image-keyboard-response,7
true,2,0,1,2,false,d,true,false,0.0-2.0-0.3-0.33-3.33,0,0,0,81,false,stim,false,1,585.3000000000466,1,0,2,86720,task1,303229,false,false,283,image-keyboard-response,8
true,2,0,1,0,true,q,false,true,0.0-2.0-0.3-0.34-3.34,0,0,0,81,false,stim,false,2,1091.5,1,0,0,86720,task1,305827,false,false,286,image-keyboard-response,9
true,2,0,1,0,true,q,false,true,0.0-2.0-0.3-0.35-3.35,0,0,0,81,false,stim,false,2,486.0999999999767,1,0,0,86720,task1,307818,false,false,289,image-keyboard-response,10
true,2,1,1,0,false,q,true,false,0.0-2.0-0.4-0.36-3.36,0,0,0,90,false,stim,false,2,1439.7000000000698,1,0,1,86720,task1,310763,false,false,292,image-keyboard-response,11
true,2,0,1,0,true,q,false,false,0.0-2.0-0.4-0.37-3.37,0,0,0,81,false,stim,false,2,551.4000000000233,1,0,1,86720,task1,312821,false,true,295,image-keyboard-response,12
true,2,0,1,2,false,d,true,false,0.0-2.0-0.4-0.38-3.38,0,0,0,81,false,stim,false,1,1415.5999999999767,1,0,2,86720,task1,315742,false,false,298,image-keyboard-response,13
true,2,0,1,0,true,q,false,true,0.0-2.0-0.4-0.39-3.39,0,0,0,81,false,stim,false,2,780.0999999999767,1,0,0,86720,task1,318033,false,false,301,image-keyboard-response,14
true,2,0,1,0,true,q,false,true,0.0-2.0-0.4-0.40-3.40,0,0,0,81,false,stim,false,2,541.0999999999767,1,0,0,86720,task1,320080,false,false,304,image-keyboard-response,15
true,2,0,1,0,true,q,false,true,0.0-2.0-0.4-0.41-3.41,0,0,0,81,false,stim,false,2,482.70000000006985,1,0,0,86720,task1,322068,false,false,307,image-keyboard-response,16
true,2,2,1,2,true,d,false,true,0.0-2.0-0.4-0.42-3.42,0,0,0,68,false,stim,false,1,505.0,1,0,2,86720,task1,324079,false,false,310,image-keyboard-response,17
true,2,1,1,0,false,q,true,false,0.0-2.0-0.4-0.43-3.43,0,0,0,90,false,stim,false,2,843.2999999999302,1,0,1,86720,task1,326428,false,false,313,image-keyboard-response,18
true,2,2,1,2,true,d,false,true,0.0-2.0-0.4-0.44-3.44,0,0,0,68,false,stim,false,1,620.0999999999767,1,0,2,86720,task1,328554,false,false,316,image-keyboard-response,19
true,2,2,1,0,false,q,false,false,0.0-2.0-0.5-0.45-3.45,0,0,0,68,false,stim,true,2,431.5,1,0,1,86720,task1,330491,false,false,319,image-keyboard-response,20
true,2,0,1,0,true,q,false,true,0.0-2.0-0.5-0.46-3.46,0,0,0,81,false,stim,false,2,928.5999999999767,1,0,0,86720,task1,332926,false,false,322,image-keyboard-response,21
true,2,0,1,0,true,q,false,true,0.0-2.0-0.5-0.47-3.47,0,0,0,81,false,stim,false,2,615.7000000000698,1,0,0,86720,task1,335047,false,false,325,image-keyboard-response,22
true,2,2,1,2,true,d,false,true,0.0-2.0-0.5-0.48-3.48,0,0,0,68,false,stim,false,1,664.1999999999534,1,0,2,86720,task1,337217,false,false,328,image-keyboard-response,23
true,2,2,1,2,true,d,false,true,0.0-2.0-0.5-0.49-3.49,0,0,0,68,false,stim,false,1,1158.8000000000466,1,0,2,86720,task1,339882,false,false,331,image-keyboard-response,24
true,2,0,1,0,true,q,false,true,0.0-2.0-0.5-0.50-3.50,0,0,0,81,false,stim,false,2,838.4000000000233,1,0,0,86720,task1,342226,false,false,334,image-keyboard-response,25
true,2,0,1,0,true,q,false,true,0.0-2.0-0.5-0.51-3.51,0,0,0,81,false,stim,false,2,478.0999999999767,1,0,1,86720,task1,344210,false,false,337,image-keyboard-response,26
true,2,0,1,0,true,q,false,false,0.0-2.0-0.5-0.52-3.52,0,0,0,81,false,stim,false,2,439.0999999999767,1,0,1,86720,task1,346155,false,true,340,image-keyboard-response,27
true,2,2,1,2,true,d,false,true,0.0-2.0-0.5-0.53-3.53,0,0,0,68,false,stim,false,1,918.0,1,0,2,86720,task1,348579,false,false,343,image-keyboard-response,28
true,2,0,1,0,true,q,false,true,0.0-2.0-0.6-0.54-3.54,0,0,0,81,false,stim,false,2,554.0,1,0,1,86720,task1,350639,false,false,346,image-keyboard-response,29
true,2,0,1,0,true,q,false,true,0.0-2.0-0.6-0.55-3.55,0,0,0,81,false,stim,false,2,564.5,1,0,0,86720,task1,352709,false,false,349,image-keyboard-response,30
true,2,2,1,2,true,d,false,false,0.0-2.0-0.6-0.56-3.56,0,0,0,68,false,stim,false,1,709.9000000000233,1,0,2,86720,task1,354925,false,true,352,image-keyboard-response,31
true,2,0,1,0,true,q,false,true,0.0-2.0-0.6-0.57-3.57,0,0,0,81,false,stim,false,2,692.5999999999767,1,0,0,86720,task1,357123,false,false,355,image-keyboard-response,32
true,2,2,1,2,true,d,false,true,0.0-2.0-0.6-0.58-3.58,0,0,0,68,false,stim,false,1,688.3999999999069,1,0,2,86720,task1,359319,false,false,358,image-keyboard-response,33
true,2,0,1,0,true,q,false,true,0.0-2.0-0.6-0.59-3.59,0,0,0,81,false,stim,false,2,472.9000000000233,1,0,1,86720,task1,361298,false,false,361,image-keyboard-response,34
true,2,2,1,2,true,d,false,true,0.0-2.0-0.6-0.60-3.60,0,0,0,68,false,stim,false,1,599.2999999999302,1,0,2,86720,task1,363403,false,false,364,image-keyboard-response,35
true,2,0,1,0,true,q,false,true,0.0-2.0-0.6-0.61-3.61,0,0,0,81,false,stim,false,2,521.3000000000466,1,0,0,86720,task1,365430,false,false,367,image-keyboard-response,36
true,2,2,1,0,false,q,false,true,0.0-2.0-0.6-0.62-3.62,0,0,0,68,false,stim,true,2,1944.8000000000466,1,0,1,86720,task1,368880,false,true,370,image-keyboard-response,37
true,2,0,1,0,true,q,false,true,0.0-2.0-0.7-0.63-3.63,0,0,0,81,false,stim,false,2,499.80000000004657,1,0,0,86720,task1,370887,false,false,373,image-keyboard-response,38
true,2,0,1,0,true,q,false,true,0.0-2.0-0.7-0.64-3.64,0,0,0,81,false,stim,false,2,466.30000000004657,1,0,0,86720,task1,372858,false,false,376,image-keyboard-response,39
true,2,2,1,2,true,d,false,true,0.0-2.0-0.7-0.65-3.65,0,0,0,68,false,stim,false,1,628.9000000000233,1,0,2,86720,task1,374994,false,false,379,image-keyboard-response,40
true,2,2,1,0,false,q,false,false,0.0-2.0-0.7-0.66-3.66,0,0,0,68,false,stim,true,2,1565.0999999999767,1,0,1,86720,task1,378064,false,false,382,image-keyboard-response,41
true,3,0,1,2,false,d,false,false,0.0-2.0-0.7-0.67-3.67,0,0,0,81,true,stim,true,0,726.4000000000233,1,0,0,86720,task1,380298,false,false,385,image-keyboard-response,1
true,3,2,1,0,false,q,false,false,0.0-2.0-0.7-0.68-3.68,0,0,0,68,false,stim,true,2,747.9000000000233,1,0,2,86720,task1,382551,false,false,388,image-keyboard-response,2
true,3,0,1,2,false,d,false,false,0.0-2.0-0.7-0.69-3.69,0,0,0,81,false,stim,true,0,596.5,1,0,1,86720,task1,384653,false,false,391,image-keyboard-response,3
true,3,0,1,2,false,d,false,false,0.0-2.0-0.7-0.70-3.70,0,0,0,81,false,stim,true,0,658.5,1,0,1,86720,task1,386817,false,false,394,image-keyboard-response,4
true,3,1,1,0,false,q,true,false,0.0-2.0-0.7-0.71-3.71,0,0,0,90,false,stim,false,2,1264.1999999999534,1,0,2,86720,task1,389588,false,false,397,image-keyboard-response,5
true,3,1,1,2,false,d,true,true,0.0-2.0-0.8-0.72-3.72,0,0,0,90,false,stim,false,0,718.0,1,0,1,86720,task1,391813,false,true,400,image-keyboard-response,6
true,3,1,1,2,false,d,true,false,0.0-2.0-0.8-0.73-3.73,0,0,0,90,false,stim,false,0,1037.3000000000466,1,0,0,86720,task1,394361,false,false,403,image-keyboard-response,7
true,3,1,1,2,false,d,true,false,0.0-2.0-0.8-0.74-3.74,0,0,0,90,false,stim,false,0,897.0,1,0,1,86720,task1,396764,false,false,406,image-keyboard-response,8
true,3,0,1,0,true,q,false,true,0.0-2.0-0.8-0.75-3.75,0,0,0,81,false,stim,false,2,1950.5,1,0,2,86720,task1,400220,false,false,409,image-keyboard-response,9
true,3,2,1,2,true,d,false,true,0.0-2.0-0.8-0.76-3.76,0,0,0,68,false,stim,false,0,751.7000000001863,1,0,0,86720,task1,402478,false,false,412,image-keyboard-response,10
true,3,1,1,2,false,d,true,false,0.0-2.0-0.8-0.77-3.77,0,0,0,90,false,stim,false,0,538.1999999999534,1,0,1,86720,task1,404522,false,false,415,image-keyboard-response,11
true,3,0,1,0,true,q,false,true,0.0-2.0-0.8-0.78-3.78,0,0,0,81,false,stim,false,2,932.1999999999534,1,0,2,86720,task1,406961,false,false,418,image-keyboard-response,12
true,3,0,1,0,true,q,false,true,0.0-2.0-0.8-0.79-3.79,0,0,0,81,false,stim,false,2,941.1999999999534,1,0,2,86720,task1,409409,false,false,421,image-keyboard-response,13
true,3,2,1,2,true,d,false,true,0.0-2.0-0.8-0.80-3.80,0,0,0,68,false,stim,false,0,619.8000000000466,1,0,0,86720,task1,411535,false,false,424,image-keyboard-response,14
true,3,0,1,0,true,q,false,true,0.0-2.0-0.9-0.81-3.81,0,0,0,81,false,stim,false,2,614.1000000000931,1,0,2,86720,task1,413656,false,false,427,image-keyboard-response,15
true,3,0,1,0,true,q,false,true,0.0-2.0-0.9-0.82-3.82,0,0,0,81,false,stim,false,2,577.6000000000931,1,0,2,86720,task1,415739,false,false,430,image-keyboard-response,16
true,3,0,1,2,false,d,false,false,0.0-2.0-0.9-0.83-3.83,0,0,0,81,false,stim,true,0,385.69999999995343,1,0,1,86720,task1,417630,false,false,433,image-keyboard-response,17
true,3,2,1,2,true,d,false,true,0.0-2.0-0.9-0.84-3.84,0,0,0,68,false,stim,false,0,865.5,1,0,1,86720,task1,420003,false,false,436,image-keyboard-response,18
true,3,2,1,2,true,d,false,true,0.0-2.0-0.9-0.85-3.85,0,0,0,68,false,stim,false,0,547.5,1,0,1,86720,task1,422056,false,false,439,image-keyboard-response,19
true,3,2,1,2,true,d,false,true,0.0-2.0-0.9-0.86-3.86,0,0,0,68,false,stim,false,0,399.39999999990687,1,0,0,86720,task1,423961,false,false,442,image-keyboard-response,20
true,3,0,1,0,true,q,false,true,0.0-2.0-0.9-0.87-3.87,0,0,0,81,false,stim,false,2,659.0999999998603,1,0,2,86720,task1,426126,false,false,445,image-keyboard-response,21
true,3,2,1,2,true,d,false,true,0.0-2.0-0.9-0.88-3.88,0,0,0,68,false,stim,false,0,676.7999999998137,1,0,0,86720,task1,428309,false,false,448,image-keyboard-response,22
true,3,2,1,2,true,d,false,true,0.0-2.0-0.9-0.89-3.89,0,0,0,68,false,stim,false,0,590.5,1,0,0,86720,task1,430406,false,false,451,image-keyboard-response,23
true,3,2,1,2,true,d,false,true,0.0-2.0-0.10-0.90-3.90,0,0,0,68,false,stim,false,0,1602.3999999999069,1,0,0,86720,task1,433518,false,false,454,image-keyboard-response,24
true,3,0,1,0,true,q,false,false,0.0-2.0-0.10-0.91-3.91,0,0,0,81,false,stim,false,2,563.0,1,0,2,86720,task1,435588,false,true,457,image-keyboard-response,25
true,3,2,1,2,true,d,false,true,0.0-2.0-0.10-0.92-3.92,0,0,0,68,false,stim,false,0,635.8000000000466,1,0,1,86720,task1,437729,false,false,460,image-keyboard-response,26
true,3,2,1,2,true,d,false,true,0.0-2.0-0.10-0.93-3.93,0,0,0,68,false,stim,false,0,613.1000000000931,1,0,0,86720,task1,439849,false,false,463,image-keyboard-response,27
true,3,2,1,2,true,d,false,true,0.0-2.0-0.10-0.94-3.94,0,0,0,68,false,stim,false,0,1292.3999999999069,1,0,1,86720,task1,442647,false,false,466,image-keyboard-response,28
true,3,0,1,0,true,q,false,true,0.0-2.0-0.10-0.95-3.95,0,0,0,81,false,stim,false,2,812.5,1,0,2,86720,task1,444965,false,false,469,image-keyboard-response,29
true,3,2,1,2,true,d,false,true,0.0-2.0-0.10-0.96-3.96,0,0,0,68,false,stim,false,0,628.8000000000466,1,0,1,86720,task1,447100,false,false,472,image-keyboard-response,30
true,3,0,1,0,true,q,false,true,0.0-2.0-0.10-0.97-3.97,0,0,0,81,false,stim,false,2,807.6999999999534,1,0,2,86720,task1,449414,false,false,475,image-keyboard-response,31
true,3,2,1,2,true,d,false,true,0.0-2.0-0.10-0.98-3.98,0,0,0,68,false,stim,false,0,718.7999999998137,1,0,0,86720,task1,451639,false,false,478,image-keyboard-response,32
true,3,2,1,2,true,d,false,true,0.0-2.0-0.11-0.99-3.99,0,0,0,68,false,stim,false,0,472.79999999981374,1,0,0,86720,task1,453618,false,false,481,image-keyboard-response,33
true,3,2,1,2,true,d,false,true,0.0-2.0-0.11-0.100-3.100,0,0,0,68,false,stim,false,0,1254.9000000001397,1,0,1,86720,task1,456379,false,false,484,image-keyboard-response,34
true,3,2,1,2,true,d,false,true,0.0-2.0-0.11-0.101-3.101,0,0,0,68,false,stim,false,0,771.1999999999534,1,0,1,86720,task1,458656,false,false,487,image-keyboard-response,35
true,3,2,1,2,true,d,false,true,0.0-2.0-0.11-0.102-3.102,0,0,0,68,false,stim,false,0,888.5,1,0,0,86720,task1,461050,false,false,490,image-keyboard-response,36
true,3,0,1,0,true,q,false,false,0.0-2.0-0.11-0.103-3.103,0,0,0,81,false,stim,false,2,696.0,1,0,2,86720,task1,463253,false,true,493,image-keyboard-response,37
true,3,2,1,2,true,d,false,true,0.0-2.0-0.11-0.104-3.104,0,0,0,68,false,stim,false,0,620.6999999999534,1,0,0,86720,task1,465380,false,false,496,image-keyboard-response,38
true,3,0,1,0,true,q,false,true,0.0-2.0-0.11-0.105-3.105,0,0,0,81,false,stim,false,2,612.6000000000931,1,0,2,86720,task1,467498,false,false,499,image-keyboard-response,39
true,3,2,1,2,true,d,false,true,0.0-2.0-0.11-0.106-3.106,0,0,0,68,false,stim,false,0,631.5999999998603,1,0,1,86720,task1,469712,false,false,502,image-keyboard-response,40
true,3,0,1,0,true,q,false,true,0.0-2.0-0.11-0.107-3.107,0,0,0,81,false,stim,false,2,901.8000000000466,1,0,2,86720,task1,472120,false,false,505,image-keyboard-response,41
true,3,0,1,0,true,q,false,true,0.0-2.0-0.12-0.108-3.108,0,0,0,81,false,stim,false,2,664.0,1,0,2,86720,task1,474289,false,false,508,image-keyboard-response,42
true,3,2,1,2,true,d,false,true,0.0-2.0-0.12-0.109-3.109,0,0,0,68,false,stim,false,0,816.1999999999534,1,0,1,86720,task1,476611,false,false,511,image-keyboard-response,43
true,3,2,1,2,true,d,false,false,0.0-2.0-0.12-0.110-3.110,0,0,0,68,false,stim,false,0,1545.3999999999069,1,0,0,86720,task1,479663,false,true,514,image-keyboard-response,44
true,4,2,2,0,false,q,false,false,0.0-2.0-0.12-0.111-3.111,0,0,0,68,true,stim,true,2,673.0,1,0,0,86720,task1,481845,false,false,517,image-keyboard-response,1
true,4,0,2,2,false,d,false,true,0.0-2.0-0.12-0.112-3.112,0,0,0,81,false,stim,true,0,979.1000000000931,1,0,2,86720,task1,484329,false,true,520,image-keyboard-response,2
true,4,2,2,0,false,q,false,false,0.0-2.0-0.12-0.113-3.113,0,0,0,68,false,stim,true,2,1633.0999999998603,1,0,1,86720,task1,487468,false,false,523,image-keyboard-response,3
true,4,1,2,0,false,q,true,false,0.0-2.0-0.12-0.114-3.114,0,0,0,90,false,stim,false,2,852.4000000001397,1,0,0,86720,task1,489828,false,false,526,image-keyboard-response,4
true,4,0,2,2,false,d,false,false,0.0-2.0-0.12-0.115-3.115,0,0,0,81,false,stim,true,0,798.1999999999534,1,0,2,86720,task1,492133,false,false,529,image-keyboard-response,5
true,4,0,2,0,true,q,false,false,0.0-2.0-0.12-0.116-3.116,0,0,0,81,false,stim,false,2,830.8000000000466,1,0,1,86720,task1,494469,false,true,532,image-keyboard-response,6
true,4,0,2,2,false,d,false,true,0.0-2.0-0.13-0.117-3.117,0,0,0,81,false,stim,true,0,944.0999999998603,1,0,2,86720,task1,496919,false,true,535,image-keyboard-response,7
true,4,0,2,0,true,q,false,true,0.0-2.0-0.13-0.118-3.118,0,0,0,81,false,stim,false,2,522.0,1,0,1,86720,task1,498947,false,false,538,image-keyboard-response,8
true,4,0,2,0,true,q,false,true,0.0-2.0-0.13-0.119-3.119,0,0,0,81,false,stim,false,2,512.3999999999069,1,0,1,86720,task1,500966,false,false,541,image-keyboard-response,9
true,4,0,2,0,true,q,false,true,0.0-2.0-0.13-0.120-3.120,0,0,0,81,false,stim,false,2,601.1999999999534,1,0,1,86720,task1,503073,false,false,544,image-keyboard-response,10
true,4,1,2,0,false,q,true,false,0.0-2.0-0.13-0.121-3.121,0,0,0,90,false,stim,false,2,751.5,1,0,0,86720,task1,505331,false,false,547,image-keyboard-response,11
true,4,0,2,0,true,q,false,true,0.0-2.0-0.13-0.122-3.122,0,0,0,81,false,stim,false,2,682.7000000001863,1,0,0,86720,task1,507520,false,false,550,image-keyboard-response,12
true,4,0,2,0,true,q,false,true,0.0-2.0-0.13-0.123-3.123,0,0,0,81,false,stim,false,2,395.39999999990687,1,0,0,86720,task1,509422,false,false,553,image-keyboard-response,13
true,4,0,2,2,false,d,false,false,0.0-2.0-0.13-0.124-3.124,0,0,0,81,false,stim,true,0,714.8000000000466,1,0,2,86720,task1,511643,false,false,556,image-keyboard-response,14
true,4,0,2,2,false,d,false,false,0.0-2.0-0.13-0.125-3.125,0,0,0,81,false,stim,true,0,1133.5,1,0,2,86720,task1,514282,false,false,559,image-keyboard-response,15
true,4,0,2,0,true,q,false,true,0.0-2.0-0.14-0.126-3.126,0,0,0,81,false,stim,false,2,448.69999999995343,1,0,1,86720,task1,516236,false,false,562,image-keyboard-response,16
true,4,0,2,0,true,q,false,true,0.0-2.0-0.14-0.127-3.127,0,0,0,81,false,stim,false,2,693.5,1,0,0,86720,task1,518435,false,false,565,image-keyboard-response,17
true,4,0,2,0,true,q,false,true,0.0-2.0-0.14-0.128-3.128,0,0,0,81,false,stim,false,2,713.3999999999069,1,0,1,86720,task1,520655,false,false,568,image-keyboard-response,18
true,4,1,2,2,false,d,true,false,0.0-2.0-0.14-0.129-3.129,0,0,0,90,false,stim,false,0,891.6999999999534,1,0,2,86720,task1,523052,false,false,571,image-keyboard-response,19
true,4,0,2,0,true,q,false,true,0.0-2.0-0.14-0.130-3.130,0,0,0,81,false,stim,false,2,712.0,1,0,1,86720,task1,525270,false,false,574,image-keyboard-response,20
true,4,0,2,0,true,q,false,true,0.0-2.0-0.14-0.131-3.131,0,0,0,81,false,stim,false,2,966.1999999999534,1,0,0,86720,task1,527743,false,false,577,image-keyboard-response,21
true,4,2,2,2,true,d,false,true,0.0-2.0-0.14-0.132-3.132,0,0,0,68,false,stim,false,0,715.6999999999534,1,0,2,86720,task1,529966,false,false,580,image-keyboard-response,22
true,4,2,2,2,true,d,false,true,0.0-2.0-0.14-0.133-3.133,0,0,0,68,false,stim,false,0,579.3000000000466,1,0,2,86720,task1,532050,false,false,583,image-keyboard-response,23
true,4,0,2,0,true,q,false,true,0.0-2.0-0.14-0.134-3.134,0,0,0,81,false,stim,false,2,680.5,1,0,0,86720,task1,534237,false,false,586,image-keyboard-response,24
true,4,0,2,0,true,q,false,true,0.0-2.0-0.15-0.135-3.135,0,0,0,81,false,stim,false,2,470.60000000009313,1,0,1,86720,task1,536214,false,false,589,image-keyboard-response,25
true,4,0,2,0,true,q,false,false,0.0-2.0-0.15-0.136-3.136,0,0,0,81,false,stim,false,2,1175.8999999999069,1,0,0,86720,task1,538895,false,true,592,image-keyboard-response,26
true,4,0,2,0,true,q,false,true,0.0-2.0-0.15-0.137-3.137,0,0,0,81,false,stim,false,2,567.2999999998137,1,0,1,86720,task1,540970,false,false,595,image-keyboard-response,27
true,4,2,2,2,true,d,false,true,0.0-2.0-0.15-0.138-3.138,0,0,0,68,false,stim,false,0,1069.3000000000466,1,0,2,86720,task1,543545,false,false,598,image-keyboard-response,28
true,4,2,2,2,true,d,false,true,0.0-2.0-0.15-0.139-3.139,0,0,0,68,false,stim,false,0,596.9000000001397,1,0,2,86720,task1,545655,false,false,601,image-keyboard-response,29
true,4,0,2,0,true,q,false,true,0.0-2.0-0.15-0.140-3.140,0,0,0,81,false,stim,false,2,682.0,1,0,0,86720,task1,547844,false,false,604,image-keyboard-response,30
true,4,2,2,2,true,d,false,true,0.0-2.0-0.15-0.141-3.141,0,0,0,68,false,stim,false,0,1090.1999999999534,1,0,2,86720,task1,550440,false,false,607,image-keyboard-response,31
true,4,0,2,0,true,q,false,true,0.0-2.0-0.15-0.142-3.142,0,0,0,81,false,stim,false,2,661.0,1,0,1,86720,task1,552607,false,false,610,image-keyboard-response,32
true,4,0,2,0,true,q,false,true,0.0-2.0-0.15-0.143-3.143,0,0,0,81,false,stim,false,2,738.1999999999534,1,0,0,86720,task1,554851,false,false,613,image-keyboard-response,33
true,4,0,2,0,true,q,false,true,0.0-2.0-0.16-0.144-3.144,0,0,0,81,false,stim,false,2,684.8000000000466,1,0,1,86720,task1,557044,false,false,616,image-keyboard-response,34
true,4,0,2,0,true,q,false,true,0.0-2.0-0.16-0.145-3.145,0,0,0,81,false,stim,false,2,833.1000000000931,1,0,0,86720,task1,559383,false,false,619,image-keyboard-response,35
true,4,0,2,0,true,q,false,true,0.0-2.0-0.16-0.146-3.146,0,0,0,81,false,stim,false,2,481.5,1,0,0,86720,task1,561371,false,false,622,image-keyboard-response,36
true,4,0,2,0,true,q,false,true,0.0-2.0-0.16-0.147-3.147,0,0,0,81,false,stim,false,2,661.0,1,0,1,86720,task1,563538,false,false,625,image-keyboard-response,37
true,4,0,2,0,true,q,false,true,0.0-2.0-0.16-0.148-3.148,0,0,0,81,false,stim,false,2,1099.0,1,0,0,86720,task1,566143,false,false,628,image-keyboard-response,38
true,4,2,2,2,true,d,false,true,0.0-2.0-0.16-0.149-3.149,0,0,0,68,false,stim,false,0,779.0,1,0,2,86720,task1,568428,false,false,631,image-keyboard-response,39
true,5,0,2,2,false,d,false,false,0.0-2.0-0.16-0.150-3.150,0,0,0,81,true,stim,true,0,789.5,1,0,1,86720,task1,570724,false,false,634,image-keyboard-response,1
true,5,2,2,0,false,q,false,false,0.0-2.0-0.16-0.151-3.151,0,0,0,68,false,stim,true,2,776.1999999999534,1,0,2,86720,task1,573006,false,false,637,image-keyboard-response,2
true,5,2,2,0,false,q,false,false,0.0-2.0-0.16-0.152-3.152,0,0,0,68,false,stim,true,2,549.3000000000466,1,0,2,86720,task1,575061,false,false,640,image-keyboard-response,3
true,5,0,2,2,false,d,false,false,0.0-2.0-0.17-0.153-3.153,0,0,0,81,false,stim,true,0,924.6999999999534,1,0,0,86720,task1,577492,false,false,643,image-keyboard-response,4
true,5,1,2,0,false,q,true,true,0.0-2.0-0.17-0.154-3.154,0,0,0,90,false,stim,false,2,681.3000000000466,1,0,2,86720,task1,579681,false,true,646,image-keyboard-response,5
true,5,1,2,2,false,d,true,false,0.0-2.0-0.17-0.155-3.155,0,0,0,90,false,stim,false,0,1073.0,1,0,1,86720,task1,582259,false,false,649,image-keyboard-response,6
true,5,1,2,2,false,d,true,false,0.0-2.0-0.17-0.156-3.156,0,0,0,90,false,stim,false,0,744.9000000001397,1,0,0,86720,task1,584510,false,false,652,image-keyboard-response,7
true,5,2,2,2,true,d,false,true,0.0-2.0-0.17-0.157-3.157,0,0,0,68,false,stim,false,0,1489.2999999998137,1,0,1,86720,task1,587506,false,false,655,image-keyboard-response,8
true,5,1,2,0,false,q,true,false,0.0-2.0-0.17-0.158-3.158,0,0,0,90,false,stim,false,2,503.0,1,0,2,86720,task1,589516,false,false,658,image-keyboard-response,9
true,5,1,2,0,false,q,true,false,0.0-2.0-0.17-0.159-3.159,0,0,0,90,false,stim,false,2,491.19999999995343,1,0,2,86720,task1,591513,false,false,661,image-keyboard-response,10
true,5,2,2,2,true,d,false,true,0.0-2.0-0.17-0.160-3.160,0,0,0,68,false,stim,false,0,727.3000000000466,1,0,1,86720,task1,593746,false,false,664,image-keyboard-response,11
true,5,1,2,2,false,d,true,false,0.0-2.0-0.17-0.161-3.161,0,0,0,90,false,stim,false,0,1772.8000000000466,1,0,0,86720,task1,597027,false,false,667,image-keyboard-response,12
true,5,2,2,2,true,d,false,true,0.0-2.0-0.18-0.162-3.162,0,0,0,68,false,stim,false,0,737.1999999999534,1,0,1,86720,task1,599270,false,false,670,image-keyboard-response,13
true,5,2,2,2,true,d,false,true,0.0-2.0-0.18-0.163-3.163,0,0,0,68,false,stim,false,0,561.5999999998603,1,0,1,86720,task1,601337,false,false,673,image-keyboard-response,14
true,5,2,2,2,true,d,false,true,0.0-2.0-0.18-0.164-3.164,0,0,0,68,false,stim,false,0,448.69999999995343,1,0,1,86720,task1,603293,false,false,676,image-keyboard-response,15
true,5,0,2,0,true,q,false,true,0.0-2.0-0.18-0.165-3.165,0,0,0,81,false,stim,false,2,1368.9000000001397,1,0,2,86720,task1,606168,false,false,679,image-keyboard-response,16
true,5,2,2,2,true,d,false,true,0.0-2.0-0.18-0.166-3.166,0,0,0,68,false,stim,false,0,602.3000000000466,1,0,0,86720,task1,608278,false,false,682,image-keyboard-response,17
true,5,2,2,2,true,d,false,true,0.0-2.0-0.18-0.167-3.167,0,0,0,68,false,stim,false,0,503.10000000009313,1,0,0,86720,task1,610287,false,false,685,image-keyboard-response,18
true,5,2,2,2,true,d,false,true,0.0-2.0-0.18-0.168-3.168,0,0,0,68,false,stim,false,0,412.89999999990687,1,0,0,86720,task1,612206,false,false,688,image-keyboard-response,19
true,5,0,2,0,true,q,false,true,0.0-2.0-0.18-0.169-3.169,0,0,0,81,false,stim,false,2,1071.1999999999534,1,0,2,86720,task1,614785,false,false,691,image-keyboard-response,20
true,5,0,2,0,true,q,false,true,0.0-2.0-0.18-0.170-3.170,0,0,0,81,false,stim,false,2,418.30000000004657,1,0,2,86720,task1,616709,false,false,694,image-keyboard-response,21
true,5,2,2,2,true,d,false,true,0.0-2.0-0.19-0.171-3.171,0,0,0,68,false,stim,false,0,733.9000000001397,1,0,1,86720,task1,618950,false,false,697,image-keyboard-response,22
true,5,0,2,2,false,d,false,false,0.0-2.0-0.19-0.172-3.172,0,0,0,81,false,stim,true,0,1986.2000000001863,1,0,0,86720,task1,622443,false,false,700,image-keyboard-response,23
true,5,0,2,0,true,q,false,true,0.0-2.0-0.19-0.173-3.173,0,0,0,81,false,stim,false,2,439.69999999995343,1,0,2,86720,task1,624399,false,false,703,image-keyboard-response,24
true,5,2,2,2,true,d,false,false,0.0-2.0-0.19-0.174-3.174,0,0,0,68,false,stim,false,0,478.79999999981374,1,0,1,86720,task1,626384,false,true,706,image-keyboard-response,25
true,5,2,2,2,true,d,false,true,0.0-2.0-0.19-0.175-3.175,0,0,0,68,false,stim,false,0,391.9000000001397,1,0,1,86720,task1,628283,false,false,709,image-keyboard-response,26
true,5,2,2,2,true,d,false,false,0.0-2.0-0.19-0.176-3.176,0,0,0,68,false,stim,false,0,1121.2000000001863,1,0,0,86720,task1,630911,false,true,712,image-keyboard-response,27
true,5,2,2,2,true,d,false,true,0.0-2.0-0.19-0.177-3.177,0,0,0,68,false,stim,false,0,419.60000000009313,1,0,0,86720,task1,632837,false,false,715,image-keyboard-response,28
true,5,0,2,0,true,q,false,true,0.0-2.0-0.19-0.178-3.178,0,0,0,81,false,stim,false,2,837.8999999999069,1,0,2,86720,task1,635181,false,false,718,image-keyboard-response,29
true,5,0,2,0,true,q,false,true,0.0-2.0-0.19-0.179-3.179,0,0,0,81,false,stim,false,2,459.30000000004657,1,0,2,86720,task1,637148,false,false,721,image-keyboard-response,30
true,5,0,2,0,true,q,false,true,0.0-2.0-0.20-0.180-3.180,0,0,0,81,false,stim,false,2,455.69999999995343,1,0,2,86720,task1,639110,false,false,724,image-keyboard-response,31
true,5,0,2,0,true,q,false,true,0.0-2.0-0.20-0.181-3.181,0,0,0,81,false,stim,false,2,426.80000000004657,1,0,2,86720,task1,641044,false,false,727,image-keyboard-response,32
true,5,2,2,2,true,d,false,true,0.0-2.0-0.20-0.182-3.182,0,0,0,68,false,stim,false,0,840.3000000000466,1,0,1,86720,task1,643390,false,false,730,image-keyboard-response,33
true,5,2,2,2,true,d,false,true,0.0-2.0-0.20-0.183-3.183,0,0,0,68,false,stim,false,0,780.1000000000931,1,0,0,86720,task1,645677,false,false,733,image-keyboard-response,34
true,5,0,2,0,true,q,false,true,0.0-2.0-0.20-0.184-3.184,0,0,0,81,false,stim,false,2,1662.6000000000931,1,0,2,86720,task1,648846,false,false,736,image-keyboard-response,35
true,5,0,2,2,false,d,false,false,0.0-2.0-0.20-0.185-3.185,0,0,0,81,false,stim,true,0,706.5999999998603,1,0,0,86720,task1,651059,false,false,739,image-keyboard-response,36
true,5,2,2,2,true,d,false,true,0.0-2.0-0.20-0.186-3.186,0,0,0,68,false,stim,false,0,1092.0,1,0,1,86720,task1,653656,false,false,742,image-keyboard-response,37
true,5,2,2,2,true,d,false,true,0.0-2.0-0.20-0.187-3.187,0,0,0,68,false,stim,false,0,861.3999999999069,1,0,0,86720,task1,656025,false,false,745,image-keyboard-response,38
true,5,2,2,2,true,d,false,true,0.0-2.0-0.20-0.188-3.188,0,0,0,68,false,stim,false,0,727.3000000000466,1,0,1,86720,task1,658259,false,false,748,image-keyboard-response,39
true,5,2,2,2,true,d,false,true,0.0-2.0-0.21-0.189-3.189,0,0,0,68,false,stim,false,0,461.0,1,0,1,86720,task1,660227,false,false,751,image-keyboard-response,40
true,5,2,2,2,true,d,false,true,0.0-2.0-0.21-0.190-3.190,0,0,0,68,false,stim,false,0,1400.9000000001397,1,0,0,86720,task1,663135,false,false,754,image-keyboard-response,41
true,5,0,2,0,true,q,false,true,0.0-2.0-0.21-0.191-3.191,0,0,0,81,false,stim,false,2,722.3000000000466,1,0,2,86720,task1,665364,false,false,757,image-keyboard-response,42
true,5,0,2,0,true,q,false,true,0.0-2.0-0.21-0.192-3.192,0,0,0,81,false,stim,false,2,465.5999999998603,1,0,2,86720,task1,667335,false,false,760,image-keyboard-response,43
true,6,2,2,0,false,q,false,true,0.0-2.0-0.21-0.193-3.193,0,0,0,68,true,stim,true,2,846.0,1,0,1,86720,task1,669688,false,true,763,image-keyboard-response,1
true,6,0,2,2,false,d,false,false,0.0-2.0-0.21-0.194-3.194,0,0,0,81,false,stim,true,0,622.6999999999534,1,0,2,86720,task1,671817,false,false,766,image-keyboard-response,2
true,6,2,2,0,false,q,false,false,0.0-2.0-0.21-0.195-3.195,0,0,0,68,false,stim,true,2,557.3999999999069,1,0,1,86720,task1,673881,false,false,769,image-keyboard-response,3
true,6,2,2,0,false,q,false,true,0.0-2.0-0.21-0.196-3.196,0,0,0,68,false,stim,true,2,965.3000000000466,1,0,0,86720,task1,676352,false,true,772,image-keyboard-response,4
true,6,2,2,0,false,q,false,false,0.0-2.0-0.21-0.197-3.197,0,0,0,68,false,stim,true,2,583.8000000000466,1,0,0,86720,task1,678442,false,false,775,image-keyboard-response,5
true,6,2,2,0,false,q,false,false,0.0-2.0-0.22-0.198-3.198,0,0,0,68,false,stim,true,2,683.4000000001397,1,0,1,86720,task1,680633,false,false,778,image-keyboard-response,6
true,6,0,2,2,false,d,false,false,0.0-2.0-0.22-0.199-3.199,0,0,0,81,false,stim,true,0,805.5,1,0,2,86720,task1,682945,false,false,781,image-keyboard-response,7
true,6,1,2,0,false,q,true,false,0.0-2.0-0.22-0.200-3.200,0,0,0,90,false,stim,false,2,706.1000000000931,1,0,1,86720,task1,685158,false,false,784,image-keyboard-response,8
true,6,1,2,2,false,d,true,false,0.0-2.0-0.22-0.201-3.201,0,0,0,90,false,stim,false,0,963.5999999998603,1,0,2,86720,task1,687630,false,false,787,image-keyboard-response,9
true,6,2,2,2,true,d,false,true,0.0-2.0-0.22-0.202-3.202,0,0,0,68,false,stim,false,0,459.5999999998603,1,0,2,86720,task1,689597,false,false,790,image-keyboard-response,10
true,6,1,2,0,false,q,true,false,0.0-2.0-0.22-0.203-3.203,0,0,0,90,false,stim,false,2,1345.1999999999534,1,0,0,86720,task1,692449,false,false,793,image-keyboard-response,11
true,6,0,2,0,true,q,false,true,0.0-2.0-0.22-0.204-3.204,0,0,0,81,false,stim,false,2,476.0,1,0,1,86720,task1,694432,false,false,796,image-keyboard-response,12
true,6,0,2,0,true,q,false,true,0.0-2.0-0.22-0.205-3.205,0,0,0,81,false,stim,false,2,412.60000000009313,1,0,0,86720,task1,696352,false,false,799,image-keyboard-response,13
true,6,0,2,0,true,q,false,true,0.0-2.0-0.22-0.206-3.206,0,0,0,81,false,stim,false,2,440.89999999990687,1,0,0,86720,task1,698310,false,false,802,image-keyboard-response,14
true,6,2,2,2,true,d,false,true,0.0-2.0-0.23-0.207-3.207,0,0,0,68,false,stim,false,0,635.8000000000466,1,0,2,86720,task1,700453,false,false,805,image-keyboard-response,15
true,6,0,2,0,true,q,false,true,0.0-2.0-0.23-0.208-3.208,0,0,0,81,false,stim,false,2,542.6000000000931,1,0,1,86720,task1,702503,false,false,808,image-keyboard-response,16
true,6,2,2,2,true,d,false,true,0.0-2.0-0.23-0.209-3.209,0,0,0,68,false,stim,false,0,887.1000000000931,1,0,2,86720,task1,704899,false,false,811,image-keyboard-response,17
true,6,0,2,0,true,q,false,true,0.0-2.0-0.23-0.210-3.210,0,0,0,81,false,stim,false,2,706.1000000000931,1,0,0,86720,task1,707112,false,false,814,image-keyboard-response,18
true,6,2,2,2,true,d,false,true,0.0-2.0-0.23-0.211-3.211,0,0,0,68,false,stim,false,0,743.3000000000466,1,0,2,86720,task1,709363,false,false,817,image-keyboard-response,19
true,6,0,2,0,true,q,false,true,0.0-2.0-0.23-0.212-3.212,0,0,0,81,false,stim,false,2,695.1999999999534,1,0,0,86720,task1,711568,false,false,820,image-keyboard-response,20
true,6,0,2,0,true,q,false,true,0.0-2.0-0.23-0.213-3.213,0,0,0,81,false,stim,false,2,721.8000000000466,1,0,1,86720,task1,713797,false,false,823,image-keyboard-response,21
true,6,0,2,0,true,q,false,false,0.0-2.0-0.23-0.214-3.214,0,0,0,81,false,stim,false,2,567.3000000000466,1,0,1,86720,task1,715871,false,true,826,image-keyboard-response,22
true,6,0,2,0,true,q,false,true,0.0-2.0-0.23-0.215-3.215,0,0,0,81,false,stim,false,2,693.0,1,0,0,86720,task1,718070,false,false,829,image-keyboard-response,23
true,6,2,2,2,true,d,false,true,0.0-2.0-0.24-0.216-3.216,0,0,0,68,false,stim,false,0,1220.8000000000466,1,0,2,86720,task1,720799,false,false,832,image-keyboard-response,24
true,6,0,2,0,true,q,false,true,0.0-2.0-0.24-0.217-3.217,0,0,0,81,false,stim,false,2,692.0,1,0,1,86720,task1,722999,false,false,835,image-keyboard-response,25
true,6,0,2,0,true,q,false,true,0.0-2.0-0.24-0.218-3.218,0,0,0,81,false,stim,false,2,588.8000000000466,1,0,1,86720,task1,725096,false,false,838,image-keyboard-response,26
true,6,0,2,0,true,q,false,true,0.0-2.0-0.24-0.219-3.219,0,0,0,81,false,stim,false,2,550.0999999998603,1,0,0,86720,task1,727152,false,false,841,image-keyboard-response,27
true,6,2,2,2,true,d,false,true,0.0-2.0-0.24-0.220-3.220,0,0,0,68,false,stim,false,0,1364.3999999999069,1,0,2,86720,task1,730025,false,false,844,image-keyboard-response,28
true,6,0,2,0,true,q,false,true,0.0-2.0-0.24-0.221-3.221,0,0,0,81,false,stim,false,2,625.3999999999069,1,0,0,86720,task1,732158,false,false,847,image-keyboard-response,29
true,6,0,2,0,true,q,false,true,0.0-2.0-0.24-0.222-3.222,0,0,0,81,false,stim,false,2,509.30000000004657,1,0,0,86720,task1,734174,false,false,850,image-keyboard-response,30
true,6,2,2,2,true,d,false,true,0.0-2.0-0.24-0.223-3.223,0,0,0,68,false,stim,false,0,814.5999999998603,1,0,2,86720,task1,736494,false,false,853,image-keyboard-response,31
true,6,0,2,0,true,q,false,true,0.0-2.0-0.24-0.224-3.224,0,0,0,81,false,stim,false,2,649.1999999999534,1,0,1,86720,task1,738650,false,false,856,image-keyboard-response,32
true,6,2,2,0,false,q,false,false,0.0-2.0-0.25-0.225-3.225,0,0,0,68,false,stim,true,2,1066.1999999999534,1,0,0,86720,task1,741223,false,false,859,image-keyboard-response,33
true,6,2,2,2,true,d,false,false,0.0-2.0-0.25-0.226-3.226,0,0,0,68,false,stim,false,0,892.7999999998137,1,0,2,86720,task1,743624,false,true,862,image-keyboard-response,34
true,6,0,2,0,true,q,false,true,0.0-2.0-0.25-0.227-3.227,0,0,0,81,false,stim,false,2,655.1000000000931,1,0,1,86720,task1,745786,false,false,865,image-keyboard-response,35
true,6,0,2,0,true,q,false,true,0.0-2.0-0.25-0.228-3.228,0,0,0,81,false,stim,false,2,454.69999999995343,1,0,0,86720,task1,747748,false,false,868,image-keyboard-response,36
true,6,2,2,2,true,d,false,true,0.0-2.0-0.25-0.229-3.229,0,0,0,68,false,stim,false,0,1335.5999999998603,1,0,2,86720,task1,750591,false,false,871,image-keyboard-response,37
true,6,0,2,0,true,q,false,true,0.0-2.0-0.25-0.230-3.230,0,0,0,81,false,stim,false,2,607.7000000001863,1,0,0,86720,task1,752706,false,false,874,image-keyboard-response,38
true,6,0,2,0,true,q,false,false,0.0-2.0-0.25-0.231-3.231,0,0,0,81,false,stim,false,2,810.6000000000931,1,0,1,86720,task1,755024,false,true,877,image-keyboard-response,39
true,7,0,2,2,false,d,false,false,0.0-2.0-0.25-0.232-3.232,0,0,0,81,true,stim,true,0,503.39999999990687,1,0,1,86720,task1,757034,false,false,880,image-keyboard-response,1
true,7,2,2,0,false,q,false,false,0.0-2.0-0.25-0.233-3.233,0,0,0,68,false,stim,true,2,937.5999999998603,1,0,2,86720,task1,759478,false,false,883,image-keyboard-response,2
true,7,1,2,2,false,d,true,false,0.0-2.0-0.26-0.234-3.234,0,0,0,90,false,stim,false,0,792.8000000000466,1,0,1,86720,task1,761779,false,false,886,image-keyboard-response,3
true,7,2,2,0,false,q,false,false,0.0-2.0-0.26-0.235-3.235,0,0,0,68,false,stim,true,2,723.8000000000466,1,0,2,86720,task1,764010,false,false,889,image-keyboard-response,4
true,7,0,2,2,false,d,false,true,0.0-2.0-0.26-0.236-3.236,0,0,0,81,false,stim,true,0,1514.7000000001863,1,0,0,86720,task1,767032,false,true,892,image-keyboard-response,5
true,7,0,2,2,false,d,false,false,0.0-2.0-0.26-0.237-3.237,0,0,0,81,false,stim,true,0,608.1000000000931,1,0,0,86720,task1,769147,false,false,895,image-keyboard-response,6
true,7,0,2,0,true,q,false,true,0.0-2.0-0.26-0.238-3.238,0,0,0,81,false,stim,false,2,1194.8000000000466,1,0,2,86720,task1,771850,false,false,898,image-keyboard-response,7
true,7,0,2,0,true,q,false,true,0.0-2.0-0.26-0.239-3.239,0,0,0,81,false,stim,false,2,551.4000000001397,1,0,2,86720,task1,773920,false,false,901,image-keyboard-response,8
true,7,2,2,2,true,d,false,true,0.0-2.0-0.26-0.240-3.240,0,0,0,68,false,stim,false,0,778.0,1,0,0,86720,task1,776204,false,false,904,image-keyboard-response,9
true,7,2,2,2,true,d,false,true,0.0-2.0-0.26-0.241-3.241,0,0,0,68,false,stim,false,0,492.4000000001397,1,0,1,86720,task1,778204,false,false,907,image-keyboard-response,10
true,7,2,2,2,true,d,false,true,0.0-2.0-0.26-0.242-3.242,0,0,0,68,false,stim,false,0,526.0,1,0,1,86720,task1,780238,false,false,910,image-keyboard-response,11
true,7,2,2,2,true,d,false,true,0.0-2.0-0.27-0.243-3.243,0,0,0,68,false,stim,false,0,559.0,1,0,1,86720,task1,782304,false,false,913,image-keyboard-response,12
true,7,2,2,0,false,q,false,false,0.0-2.0-0.27-0.244-3.244,0,0,0,68,false,stim,true,2,1659.1000000000931,1,0,2,86720,task1,785470,false,false,916,image-keyboard-response,13
true,7,2,2,2,true,d,false,true,0.0-2.0-0.27-0.245-3.245,0,0,0,68,false,stim,false,0,646.6000000000931,1,0,0,86720,task1,787625,false,false,919,image-keyboard-response,14
true,7,2,2,2,true,d,false,true,0.0-2.0-0.27-0.246-3.246,0,0,0,68,false,stim,false,0,471.30000000004657,1,0,0,86720,task1,789604,false,false,922,image-keyboard-response,15
true,7,0,2,0,true,q,false,true,0.0-2.0-0.27-0.247-3.247,0,0,0,81,false,stim,false,2,658.1000000000931,1,0,2,86720,task1,791770,false,false,925,image-keyboard-response,16
true,7,0,2,0,true,q,false,true,0.0-2.0-0.27-0.248-3.248,0,0,0,81,false,stim,false,2,532.2999999998137,1,0,2,86720,task1,793809,false,false,928,image-keyboard-response,17
true,7,2,2,2,true,d,false,true,0.0-2.0-0.27-0.249-3.249,0,0,0,68,false,stim,false,0,891.3000000000466,1,0,1,86720,task1,796207,false,false,931,image-keyboard-response,18
true,7,0,2,2,false,d,false,false,0.0-2.0-0.27-0.250-3.250,0,0,0,81,false,stim,true,0,610.1999999999534,1,0,0,86720,task1,798324,false,false,934,image-keyboard-response,19
true,7,2,2,2,true,d,false,true,0.0-2.0-0.27-0.251-3.251,0,0,0,68,false,stim,false,0,890.5,1,0,1,86720,task1,800721,false,false,937,image-keyboard-response,20
true,7,2,2,2,true,d,false,true,0.0-2.0-0.28-0.252-3.252,0,0,0,68,false,stim,false,0,653.6000000000931,1,0,0,86720,task1,802884,false,false,940,image-keyboard-response,21
true,7,2,2,2,true,d,false,false,0.0-2.0-0.28-0.253-3.253,0,0,0,68,false,stim,false,0,529.8000000000466,1,0,0,86720,task1,804921,false,true,943,image-keyboard-response,22
true,7,2,2,2,true,d,false,true,0.0-2.0-0.28-0.254-3.254,0,0,0,68,false,stim,false,0,764.7999999998137,1,0,1,86720,task1,807193,false,false,946,image-keyboard-response,23
true,7,2,2,2,true,d,false,true,0.0-2.0-0.28-0.255-3.255,0,0,0,68,false,stim,false,0,738.5,1,0,1,86720,task1,809440,false,false,949,image-keyboard-response,24
true,7,0,2,0,true,q,false,true,0.0-2.0-0.28-0.256-3.256,0,0,0,81,false,stim,false,2,1116.6000000000931,1,0,2,86720,task1,812064,false,false,952,image-keyboard-response,25
true,7,2,2,2,true,d,false,true,0.0-2.0-0.28-0.257-3.257,0,0,0,68,false,stim,false,0,1646.8000000000466,1,0,1,86720,task1,815218,false,false,955,image-keyboard-response,26
true,7,2,2,2,true,d,false,true,0.0-2.0-0.28-0.258-3.258,0,0,0,68,false,stim,false,0,806.8000000000466,1,0,0,86720,task1,817534,false,false,958,image-keyboard-response,27
true,7,0,2,0,true,q,false,true,0.0-2.0-0.28-0.259-3.259,0,0,0,81,false,stim,false,2,804.5,1,0,2,86720,task1,819845,false,false,961,image-keyboard-response,28
true,7,0,2,0,true,q,false,true,0.0-2.0-0.28-0.260-3.260,0,0,0,81,false,stim,false,2,1462.8000000000466,1,0,2,86720,task1,822816,false,false,964,image-keyboard-response,29
true,7,0,2,0,true,q,false,true,0.0-2.0-0.29-0.261-3.261,0,0,0,81,false,stim,false,2,995.3000000000466,1,0,2,86720,task1,825318,false,false,967,image-keyboard-response,30
true,7,0,2,2,false,d,false,false,0.0-2.0-0.29-0.262-3.262,0,0,0,81,false,stim,true,0,1061.1999999999534,1,0,0,86720,task1,827889,false,false,970,image-keyboard-response,31
true,7,2,2,2,true,d,false,true,0.0-2.0-0.29-0.263-3.263,0,0,0,68,false,stim,false,0,478.5,1,0,0,86720,task1,829874,false,false,973,image-keyboard-response,32
true,7,0,2,0,true,q,false,true,0.0-2.0-0.29-0.264-3.264,0,0,0,81,false,stim,false,2,861.7999999998137,1,0,2,86720,task1,832244,false,false,976,image-keyboard-response,33
true,7,2,2,2,true,d,false,true,0.0-2.0-0.29-0.265-3.265,0,0,0,68,false,stim,false,0,620.5999999998603,1,0,0,86720,task1,834372,false,false,979,image-keyboard-response,34
true,7,0,2,0,true,q,false,true,0.0-2.0-0.29-0.266-3.266,0,0,0,81,false,stim,false,2,662.5,1,0,2,86720,task1,836542,false,false,982,image-keyboard-response,35
true,7,2,2,2,true,d,false,true,0.0-2.0-0.29-0.267-3.267,0,0,0,68,false,stim,false,0,1176.6000000000931,1,0,1,86720,task1,839226,false,false,985,image-keyboard-response,36
true,7,2,2,2,true,d,false,true,0.0-2.0-0.29-0.268-3.268,0,0,0,68,false,stim,false,0,563.1999999999534,1,0,1,86720,task1,841298,false,false,988,image-keyboard-response,37
true,7,2,2,2,true,d,false,false,0.0-2.0-0.29-0.269-3.269,0,0,0,68,false,stim,false,0,2794.0,1,0,1,86720,task1,845600,false,true,991,image-keyboard-response,38
true,7,0,2,0,true,q,false,true,0.0-2.0-0.30-0.270-3.270,0,0,0,81,false,stim,false,2,662.7999999998137,1,0,2,86720,task1,847773,false,false,994,image-keyboard-response,39
true,7,0,2,2,false,d,false,true,0.0-2.0-0.30-0.271-3.271,0,0,0,81,false,stim,true,0,434.4000000001397,1,0,1,86720,task1,849714,false,true,997,image-keyboard-response,40
true,7,0,2,0,true,q,false,true,0.0-2.0-0.30-0.272-3.272,0,0,0,81,false,stim,false,2,1611.8999999999069,1,0,2,86720,task1,852833,false,false,1000,image-keyboard-response,41
true,7,2,2,2,true,d,false,true,0.0-2.0-0.30-0.273-3.273,0,0,0,68,false,stim,false,0,723.0,1,0,0,86720,task1,855075,false,false,1003,image-keyboard-response,42
true,7,2,2,2,true,d,false,true,0.0-2.0-0.30-0.274-3.274,0,0,0,68,false,stim,false,0,807.3000000000466,1,0,0,86720,task1,857389,false,false,1006,image-keyboard-response,43
true,7,0,2,2,false,d,false,false,0.0-2.0-0.30-0.275-3.275,0,0,0,81,false,stim,true,0,661.0,1,0,1,86720,task1,859559,false,false,1009,image-keyboard-response,44
true,8,2,2,0,false,q,false,false,0.0-2.0-0.30-0.276-3.276,0,0,0,68,true,stim,true,2,805.7000000001863,1,0,0,86720,task1,861872,false,false,1012,image-keyboard-response,1
true,8,0,2,0,true,q,false,true,0.0-2.0-0.30-0.277-3.277,0,0,0,81,false,stim,false,2,1049.7000000001863,1,0,1,86720,task1,864429,false,false,1015,image-keyboard-response,2
true,8,0,2,2,false,d,false,false,0.0-2.0-0.30-0.278-3.278,0,0,0,81,false,stim,true,0,526.5999999998603,1,0,2,86720,task1,866463,false,false,1018,image-keyboard-response,3
true,8,2,2,0,false,q,false,false,0.0-2.0-0.31-0.279-3.279,0,0,0,68,false,stim,true,2,865.1000000000931,1,0,0,86720,task1,868837,false,false,1021,image-keyboard-response,4
true,8,0,2,0,true,q,false,true,0.0-2.0-0.31-0.280-3.280,0,0,0,81,false,stim,false,2,738.8999999999069,1,0,1,86720,task1,871084,false,false,1024,image-keyboard-response,5
true,8,2,2,2,true,d,false,true,0.0-2.0-0.31-0.281-3.281,0,0,0,68,false,stim,false,0,1404.0,1,0,2,86720,task1,873995,false,false,1027,image-keyboard-response,6
true,8,0,2,0,true,q,false,true,0.0-2.0-0.31-0.282-3.282,0,0,0,81,false,stim,false,2,508.19999999995343,1,0,0,86720,task1,876012,false,false,1030,image-keyboard-response,7
true,8,0,2,0,true,q,false,true,0.0-2.0-0.31-0.283-3.283,0,0,0,81,false,stim,false,2,524.1999999999534,1,0,0,86720,task1,878043,false,false,1033,image-keyboard-response,8
true,8,0,2,0,true,q,false,true,0.0-2.0-0.31-0.284-3.284,0,0,0,81,false,stim,false,2,970.4000000001397,1,0,1,86720,task1,880522,false,false,1036,image-keyboard-response,9
true,8,2,2,2,true,d,false,true,0.0-2.0-0.31-0.285-3.285,0,0,0,68,false,stim,false,0,1008.8999999999069,1,0,2,86720,task1,883039,false,false,1039,image-keyboard-response,10
true,8,2,2,2,true,d,false,true,0.0-2.0-0.31-0.286-3.286,0,0,0,68,false,stim,false,0,566.8999999999069,1,0,2,86720,task1,885113,false,false,1042,image-keyboard-response,11
true,8,0,2,0,true,q,false,true,0.0-2.0-0.31-0.287-3.287,0,0,0,81,false,stim,false,2,594.0,1,0,1,86720,task1,887214,false,false,1045,image-keyboard-response,12
true,8,0,2,2,false,d,false,true,0.0-2.0-0.32-0.288-3.288,0,0,0,81,false,stim,true,0,1455.8000000000466,1,0,2,86720,task1,890181,false,true,1048,image-keyboard-response,13
true,8,0,2,0,true,q,false,true,0.0-2.0-0.32-0.289-3.289,0,0,0,81,false,stim,false,2,764.0,1,0,1,86720,task1,892452,false,false,1051,image-keyboard-response,14
true,8,0,2,2,false,d,false,false,0.0-2.0-0.32-0.290-3.290,0,0,0,81,false,stim,true,0,629.0,1,0,2,86720,task1,894589,false,false,1054,image-keyboard-response,15
true,8,0,2,0,true,q,false,false,0.0-2.0-0.32-0.291-3.291,0,0,0,81,false,stim,false,2,786.0,1,0,0,86720,task1,896883,false,true,1057,image-keyboard-response,16
true,8,0,2,0,true,q,false,true,0.0-2.0-0.32-0.292-3.292,0,0,0,81,false,stim,false,2,1869.0,1,0,1,86720,task1,900259,false,false,1060,image-keyboard-response,17
true,8,0,2,0,true,q,false,true,0.0-2.0-0.32-0.293-3.293,0,0,0,81,false,stim,false,2,781.6999999999534,1,0,0,86720,task1,902553,false,false,1063,image-keyboard-response,18
true,8,0,2,0,true,q,false,true,0.0-2.0-0.32-0.294-3.294,0,0,0,81,false,stim,false,2,491.5,1,0,0,86720,task1,904551,false,false,1066,image-keyboard-response,19
true,8,2,2,2,true,d,false,true,0.0-2.0-0.32-0.295-3.295,0,0,0,68,false,stim,false,0,1008.1999999999534,1,0,2,86720,task1,907067,false,false,1069,image-keyboard-response,20
true,8,0,2,0,true,q,false,true,0.0-2.0-0.32-0.296-3.296,0,0,0,81,false,stim,false,2,842.6999999999534,1,0,1,86720,task1,909420,false,false,1072,image-keyboard-response,21
true,8,0,2,0,true,q,false,true,0.0-2.0-0.33-0.297-3.297,0,0,0,81,false,stim,false,2,1055.7999999998137,1,0,1,86720,task1,911984,false,false,1075,image-keyboard-response,22
true,8,0,2,0,true,q,false,true,0.0-2.0-0.33-0.298-3.298,0,0,0,81,false,stim,false,2,588.1999999999534,1,0,1,86720,task1,914079,false,false,1078,image-keyboard-response,23
true,8,2,2,2,true,d,false,true,0.0-2.0-0.33-0.299-3.299,0,0,0,68,false,stim,false,0,978.2999999998137,1,0,2,86720,task1,916565,false,false,1081,image-keyboard-response,24
false,8,-1,2,2,false,d,true,false,0.0-2.0-0.33-0.300-3.300,0,0,0,,false,stim,false,0,,1,0,2,86720,task1,921073,false,false,1084,image-keyboard-response,25
true,8,0,2,0,true,q,false,true,0.0-2.0-0.33-0.301-3.301,0,0,0,81,false,stim,false,2,1562.8000000000466,1,0,0,86720,task1,924144,false,false,1087,image-keyboard-response,26
true,8,0,2,0,true,q,false,true,0.0-2.0-0.33-0.302-3.302,0,0,0,81,false,stim,false,2,749.6999999999534,1,0,1,86720,task1,926402,false,false,1090,image-keyboard-response,27
true,8,2,2,2,true,d,false,true,0.0-2.0-0.33-0.303-3.303,0,0,0,68,false,stim,false,0,805.0999999998603,1,0,2,86720,task1,928715,false,false,1093,image-keyboard-response,28
true,8,0,2,0,true,q,false,false,0.0-2.0-0.33-0.304-3.304,0,0,0,81,false,stim,false,2,697.4000000001397,1,0,0,86720,task1,930920,false,true,1096,image-keyboard-response,29
true,8,0,2,0,true,q,false,true,0.0-2.0-0.33-0.305-3.305,0,0,0,81,false,stim,false,2,533.0999999998603,1,0,0,86720,task1,932961,false,false,1099,image-keyboard-response,30
true,8,2,2,2,true,d,false,true,0.0-2.0-0.34-0.306-3.306,0,0,0,68,false,stim,false,0,711.5,1,0,2,86720,task1,935197,false,false,1102,image-keyboard-response,31
true,8,0,2,0,true,q,false,true,0.0-2.0-0.34-0.307-3.307,0,0,0,81,false,stim,false,2,1195.4000000001397,1,0,1,86720,task1,937902,false,false,1105,image-keyboard-response,32
true,8,0,2,0,true,q,false,true,0.0-2.0-0.34-0.308-3.308,0,0,0,81,false,stim,false,2,527.3999999999069,1,0,1,86720,task1,939937,false,false,1108,image-keyboard-response,33
true,8,2,2,0,false,q,false,false,0.0-2.0-0.34-0.309-3.309,0,0,0,68,false,stim,true,2,642.4000000001397,1,0,0,86720,task1,942088,false,false,1111,image-keyboard-response,34
true,8,0,2,2,false,d,false,false,0.0-2.0-0.34-0.310-3.310,0,0,0,81,false,stim,true,0,632.0,1,0,2,86720,task1,944228,false,false,1114,image-keyboard-response,35
true,8,2,2,2,true,d,false,true,0.0-2.0-0.34-0.311-3.311,0,0,0,68,false,stim,false,0,951.7999999998137,1,0,2,86720,task1,946687,false,false,1117,image-keyboard-response,36
true,8,0,2,0,true,q,false,true,0.0-2.0-0.34-0.312-3.312,0,0,0,81,false,stim,false,2,748.5,1,0,0,86720,task1,948943,false,false,1120,image-keyboard-response,37
true,8,0,2,0,true,q,false,false,0.0-2.0-0.34-0.313-3.313,0,0,0,81,false,stim,false,2,470.30000000004657,1,0,0,86720,task1,950921,false,true,1123,image-keyboard-response,38
true,8,0,2,0,true,q,false,true,0.0-2.0-0.34-0.314-3.314,0,0,0,81,false,stim,false,2,1132.5999999998603,1,0,1,86720,task1,953563,false,false,1126,image-keyboard-response,39
true,8,2,2,2,true,d,false,true,0.0-2.0-0.35-0.315-3.315,0,0,0,68,false,stim,false,0,501.69999999995343,1,0,2,86720,task1,955574,false,false,1129,image-keyboard-response,40
true,8,0,2,0,true,q,false,true,0.0-2.0-0.35-0.316-3.316,0,0,0,81,false,stim,false,2,793.8999999999069,1,0,0,86720,task1,957876,false,false,1132,image-keyboard-response,41
true,8,2,2,2,true,d,false,true,0.0-2.0-0.35-0.317-3.317,0,0,0,68,false,stim,false,0,903.5,1,0,2,86720,task1,960287,false,false,1135,image-keyboard-response,42
true,8,0,2,0,true,q,false,true,0.0-2.0-0.35-0.318-3.318,0,0,0,81,false,stim,false,2,1118.1999999999534,1,0,1,86720,task1,962913,false,false,1138,image-keyboard-response,43
true,9,2,1,0,false,q,false,false,0.0-2.0-0.35-0.319-3.319,0,0,0,68,true,stim,true,2,1603.0,1,0,2,86720,task1,966024,false,false,1141,image-keyboard-response,1
true,9,0,1,1,false,z,false,false,0.0-2.0-0.35-0.320-3.320,0,0,0,81,false,stim,true,0,832.3999999999069,1,0,0,86720,task1,968365,false,false,1144,image-keyboard-response,2
true,9,0,1,1,false,z,false,false,0.0-2.0-0.35-0.321-3.321,0,0,0,81,false,stim,true,0,1332.8999999999069,1,0,1,86720,task1,971206,false,false,1147,image-keyboard-response,3
true,9,2,1,1,false,z,true,true,0.0-2.0-0.35-0.322-3.322,0,0,0,68,false,stim,false,0,470.19999999995343,1,0,1,86720,task1,973184,false,true,1150,image-keyboard-response,4
true,9,0,1,1,false,z,false,false,0.0-2.0-0.35-0.323-3.323,0,0,0,81,false,stim,true,0,562.0,1,0,0,86720,task1,975254,false,false,1153,image-keyboard-response,5
true,9,2,1,1,false,z,true,false,0.0-2.0-0.36-0.324-3.324,0,0,0,68,false,stim,false,0,711.0999999998603,1,0,0,86720,task1,977473,false,false,1156,image-keyboard-response,6
true,9,2,1,1,false,z,true,false,0.0-2.0-0.36-0.325-3.325,0,0,0,68,false,stim,false,0,739.3000000000466,1,0,1,86720,task1,979722,false,false,1159,image-keyboard-response,7
true,9,2,1,1,false,z,true,false,0.0-2.0-0.36-0.326-3.326,0,0,0,68,false,stim,false,0,1519.3999999999069,1,0,0,86720,task1,982748,false,false,1162,image-keyboard-response,8
true,9,0,1,0,true,q,false,true,0.0-2.0-0.36-0.327-3.327,0,0,0,81,false,stim,false,2,1300.8999999999069,1,0,2,86720,task1,985557,false,false,1165,image-keyboard-response,9
true,9,2,1,1,false,z,true,false,0.0-2.0-0.36-0.328-3.328,0,0,0,68,false,stim,false,0,783.1000000000931,1,0,1,86720,task1,987849,false,false,1168,image-keyboard-response,10
true,9,0,1,0,true,q,false,true,0.0-2.0-0.36-0.329-3.329,0,0,0,81,false,stim,false,2,1061.5999999998603,1,0,2,86720,task1,990419,false,false,1171,image-keyboard-response,11
true,9,0,1,1,false,z,false,false,0.0-2.0-0.36-0.330-3.330,0,0,0,81,false,stim,true,0,482.19999999995343,1,0,0,86720,task1,992408,false,false,1174,image-keyboard-response,12
true,9,0,1,1,false,z,false,false,0.0-2.0-0.36-0.331-3.331,0,0,0,81,false,stim,true,0,396.0,1,0,1,86720,task1,994311,false,false,1177,image-keyboard-response,13
true,9,0,1,0,true,q,false,true,0.0-2.0-0.36-0.332-3.332,0,0,0,81,false,stim,false,2,1587.1000000000931,1,0,2,86720,task1,997406,false,false,1180,image-keyboard-response,14
true,9,0,1,0,true,q,false,false,0.0-2.0-0.37-0.333-3.333,0,0,0,81,false,stim,false,2,626.5999999998603,1,0,2,86720,task1,999541,false,true,1183,image-keyboard-response,15
true,9,0,1,0,true,q,false,true,0.0-2.0-0.37-0.334-3.334,0,0,0,81,false,stim,false,2,626.3999999999069,1,0,2,86720,task1,1001675,false,false,1186,image-keyboard-response,16
true,9,1,1,1,true,z,false,true,0.0-2.0-0.37-0.335-3.335,0,0,0,90,false,stim,false,0,1953.3000000000466,1,0,0,86720,task1,1005137,false,false,1189,image-keyboard-response,17
true,9,1,1,1,true,z,false,false,0.0-2.0-0.37-0.336-3.336,0,0,0,90,false,stim,false,0,496.9000000001397,1,0,0,86720,task1,1007142,false,true,1192,image-keyboard-response,18
true,9,1,1,1,true,z,false,true,0.0-2.0-0.37-0.337-3.337,0,0,0,90,false,stim,false,0,838.0,1,0,0,86720,task1,1009487,false,false,1195,image-keyboard-response,19
true,9,1,1,1,true,z,false,true,0.0-2.0-0.37-0.338-3.338,0,0,0,90,false,stim,false,0,852.5,1,0,1,86720,task1,1011849,false,false,1198,image-keyboard-response,20
true,9,1,1,1,true,z,false,true,0.0-2.0-0.37-0.339-3.339,0,0,0,90,false,stim,false,0,826.0999999998603,1,0,1,86720,task1,1014196,false,false,1201,image-keyboard-response,21
true,9,1,1,1,true,z,false,true,0.0-2.0-0.37-0.340-3.340,0,0,0,90,false,stim,false,0,486.80000000004657,1,0,1,86720,task1,1016191,false,false,1204,image-keyboard-response,22
true,9,0,1,0,true,q,false,true,0.0-2.0-0.37-0.341-3.341,0,0,0,81,false,stim,false,2,463.5999999998603,1,0,2,86720,task1,1018162,false,false,1207,image-keyboard-response,23
true,9,0,1,0,true,q,false,true,0.0-2.0-0.38-0.342-3.342,0,0,0,81,false,stim,false,2,500.80000000004657,1,0,2,86720,task1,1020174,false,false,1210,image-keyboard-response,24
true,9,1,1,1,true,z,false,false,0.0-2.0-0.38-0.343-3.343,0,0,0,90,false,stim,false,0,684.3999999999069,1,0,0,86720,task1,1022365,false,true,1213,image-keyboard-response,25
true,9,1,1,1,true,z,false,true,0.0-2.0-0.38-0.344-3.344,0,0,0,90,false,stim,false,0,414.5,1,0,1,86720,task1,1024290,false,false,1216,image-keyboard-response,26
true,9,1,1,1,true,z,false,false,0.0-2.0-0.38-0.345-3.345,0,0,0,90,false,stim,false,0,437.0,1,0,1,86720,task1,1026235,false,true,1219,image-keyboard-response,27
true,9,1,1,0,false,q,true,false,0.0-2.0-0.38-0.346-3.346,0,0,0,90,false,stim,false,2,509.0,1,0,2,86720,task1,1028252,false,false,1222,image-keyboard-response,28
true,9,0,1,0,true,q,false,true,0.0-2.0-0.38-0.347-3.347,0,0,0,81,false,stim,false,2,406.19999999995343,1,0,2,86720,task1,1030165,false,false,1225,image-keyboard-response,29
true,9,1,1,1,true,z,false,true,0.0-2.0-0.38-0.348-3.348,0,0,0,90,false,stim,false,0,635.2000000001863,1,0,0,86720,task1,1032308,false,false,1228,image-keyboard-response,30
true,9,1,1,1,true,z,false,true,0.0-2.0-0.38-0.349-3.349,0,0,0,90,false,stim,false,0,627.6999999999534,1,0,1,86720,task1,1034443,false,false,1231,image-keyboard-response,31
true,9,1,1,1,true,z,false,true,0.0-2.0-0.38-0.350-3.350,0,0,0,90,false,stim,false,0,700.8999999999069,1,0,0,86720,task1,1036651,false,false,1234,image-keyboard-response,32
true,9,1,1,1,true,z,false,true,0.0-2.0-0.39-0.351-3.351,0,0,0,90,false,stim,false,0,560.1999999999534,1,0,0,86720,task1,1038720,false,false,1237,image-keyboard-response,33
true,9,1,1,0,false,q,true,false,0.0-2.0-0.39-0.352-3.352,0,0,0,90,false,stim,false,2,715.5999999996275,1,0,2,86720,task1,1040945,false,false,1240,image-keyboard-response,34
true,9,1,1,1,true,z,false,false,0.0-2.0-0.39-0.353-3.353,0,0,0,90,false,stim,false,0,637.8999999999069,1,0,0,86720,task1,1043091,false,true,1243,image-keyboard-response,35
true,9,0,1,0,true,q,false,true,0.0-2.0-0.39-0.354-3.354,0,0,0,81,false,stim,false,2,637.2000000001863,1,0,2,86720,task1,1045237,false,false,1246,image-keyboard-response,36
true,9,0,1,0,true,q,false,true,0.0-2.0-0.39-0.355-3.355,0,0,0,81,false,stim,false,2,541.6000000000931,1,0,2,86720,task1,1047288,false,false,1249,image-keyboard-response,37
true,9,1,1,1,true,z,false,true,0.0-2.0-0.39-0.356-3.356,0,0,0,90,false,stim,false,0,1264.3999999999069,1,0,1,86720,task1,1050060,false,false,1252,image-keyboard-response,38
true,9,0,1,1,false,z,false,false,0.0-2.0-0.39-0.357-3.357,0,0,0,81,false,stim,true,0,755.0,1,0,0,86720,task1,1052323,false,false,1255,image-keyboard-response,39
true,9,1,1,1,true,z,false,true,0.0-2.0-0.39-0.358-3.358,0,0,0,90,false,stim,false,0,1096.3999999999069,1,0,1,86720,task1,1054926,false,false,1258,image-keyboard-response,40
true,10,1,1,0,false,q,false,false,0.0-2.0-0.39-0.359-3.359,0,0,0,90,true,stim,true,1,427.3000000002794,1,0,1,86720,task1,1056862,false,false,1261,image-keyboard-response,1
true,10,0,1,1,false,z,false,false,0.0-2.0-0.40-0.360-3.360,0,0,0,81,false,stim,true,0,761.6000000000931,1,0,2,86720,task1,1059133,false,false,1264,image-keyboard-response,2
true,10,1,1,0,false,q,false,false,0.0-2.0-0.40-0.361-3.361,0,0,0,90,false,stim,true,1,727.6000000000931,1,0,0,86720,task1,1061369,false,false,1267,image-keyboard-response,3
true,10,0,1,0,true,q,false,true,0.0-2.0-0.40-0.362-3.362,0,0,0,81,false,stim,false,1,1191.2000000001863,1,0,1,86720,task1,1064069,false,false,1270,image-keyboard-response,4
true,10,0,1,0,true,q,false,true,0.0-2.0-0.40-0.363-3.363,0,0,0,81,false,stim,false,1,523.6999999997206,1,0,1,86720,task1,1066101,false,false,1273,image-keyboard-response,5
true,10,2,1,1,false,z,true,false,0.0-2.0-0.40-0.364-3.364,0,0,0,68,false,stim,false,0,1179.3000000002794,1,0,2,86720,task1,1068788,false,false,1276,image-keyboard-response,6
true,10,0,1,0,true,q,false,true,0.0-2.0-0.40-0.365-3.365,0,0,0,81,false,stim,false,1,776.0,1,0,0,86720,task1,1071073,false,false,1279,image-keyboard-response,7
true,10,1,1,1,true,z,false,true,0.0-2.0-0.40-0.366-3.366,0,0,0,90,false,stim,false,0,962.2999999998137,1,0,2,86720,task1,1073542,false,false,1282,image-keyboard-response,8
true,10,0,1,0,true,q,false,true,0.0-2.0-0.40-0.367-3.367,0,0,0,81,false,stim,false,1,944.1000000000931,1,0,1,86720,task1,1075996,false,false,1285,image-keyboard-response,9
true,10,0,1,0,true,q,false,true,0.0-2.0-0.40-0.368-3.368,0,0,0,81,false,stim,false,1,963.5,1,0,0,86720,task1,1078467,false,false,1288,image-keyboard-response,10
true,10,1,1,1,true,z,false,true,0.0-2.0-0.41-0.369-3.369,0,0,0,90,false,stim,false,0,715.5,1,0,2,86720,task1,1080693,false,false,1291,image-keyboard-response,11
true,10,1,1,0,false,q,false,false,0.0-2.0-0.41-0.370-3.370,0,0,0,90,false,stim,true,1,796.3000000002794,1,0,0,86720,task1,1082996,false,false,1294,image-keyboard-response,12
true,10,1,1,1,true,z,false,true,0.0-2.0-0.41-0.371-3.371,0,0,0,90,false,stim,false,0,945.7999999998137,1,0,2,86720,task1,1085452,false,false,1297,image-keyboard-response,13
true,10,1,1,1,true,z,false,true,0.0-2.0-0.41-0.372-3.372,0,0,0,90,false,stim,false,0,653.5,1,0,2,86720,task1,1087614,false,false,1300,image-keyboard-response,14
true,10,0,1,0,true,q,false,true,0.0-2.0-0.41-0.373-3.373,0,0,0,81,false,stim,false,1,999.1999999997206,1,0,1,86720,task1,1090138,false,false,1303,image-keyboard-response,15
true,10,0,1,0,true,q,false,true,0.0-2.0-0.41-0.374-3.374,0,0,0,81,false,stim,false,1,930.5,1,0,1,86720,task1,1092576,false,false,1306,image-keyboard-response,16
true,10,1,1,0,false,q,false,false,0.0-2.0-0.41-0.375-3.375,0,0,0,90,false,stim,true,1,889.8999999999069,1,0,1,86720,task1,1094973,false,false,1309,image-keyboard-response,17
true,10,1,1,0,false,q,false,false,0.0-2.0-0.41-0.376-3.376,0,0,0,90,false,stim,true,1,1670.1000000000931,1,0,0,86720,task1,1098152,false,false,1312,image-keyboard-response,18
true,10,0,1,0,true,q,false,true,0.0-2.0-0.41-0.377-3.377,0,0,0,81,false,stim,false,1,653.3999999999069,1,0,0,86720,task1,1100314,false,false,1315,image-keyboard-response,19
true,10,0,1,0,true,q,false,true,0.0-2.0-0.42-0.378-3.378,0,0,0,81,false,stim,false,1,1018.0,1,0,1,86720,task1,1102841,false,false,1318,image-keyboard-response,20
true,10,1,1,1,true,z,false,true,0.0-2.0-0.42-0.379-3.379,0,0,0,90,false,stim,false,0,1693.3000000002794,1,0,2,86720,task1,1106042,false,false,1321,image-keyboard-response,21
true,10,0,1,0,true,q,false,true,0.0-2.0-0.42-0.380-3.380,0,0,0,81,false,stim,false,1,954.2999999998137,1,0,0,86720,task1,1108506,false,false,1324,image-keyboard-response,22
true,10,0,1,0,true,q,false,true,0.0-2.0-0.42-0.381-3.381,0,0,0,81,false,stim,false,1,903.1999999997206,1,0,0,86720,task1,1110918,false,false,1327,image-keyboard-response,23
true,10,1,1,1,true,z,false,false,0.0-2.0-0.42-0.382-3.382,0,0,0,90,false,stim,false,0,803.1000000000931,1,0,2,86720,task1,1113229,false,true,1330,image-keyboard-response,24
true,10,0,1,0,true,q,false,true,0.0-2.0-0.42-0.383-3.383,0,0,0,81,false,stim,false,1,1006.6000000000931,1,0,1,86720,task1,1115745,false,false,1333,image-keyboard-response,25
true,10,0,1,0,true,q,false,true,0.0-2.0-0.42-0.384-3.384,0,0,0,81,false,stim,false,1,812.0,1,0,0,86720,task1,1118065,false,false,1336,image-keyboard-response,26
true,10,0,1,0,true,q,false,true,0.0-2.0-0.42-0.385-3.385,0,0,0,81,false,stim,false,1,1000.8000000002794,1,0,1,86720,task1,1120573,false,false,1339,image-keyboard-response,27
true,10,1,1,1,true,z,false,true,0.0-2.0-0.42-0.386-3.386,0,0,0,90,false,stim,false,0,1187.6000000000931,1,0,2,86720,task1,1123269,false,false,1342,image-keyboard-response,28
true,10,1,1,1,true,z,false,true,0.0-2.0-0.43-0.387-3.387,0,0,0,90,false,stim,false,0,433.90000000037253,1,0,2,86720,task1,1125213,false,false,1345,image-keyboard-response,29
true,10,1,1,1,true,z,false,true,0.0-2.0-0.43-0.388-3.388,0,0,0,90,false,stim,false,0,576.8999999999069,1,0,2,86720,task1,1127298,false,false,1348,image-keyboard-response,30
true,10,0,1,0,true,q,false,true,0.0-2.0-0.43-0.389-3.389,0,0,0,81,false,stim,false,1,1391.8999999999069,1,0,0,86720,task1,1130197,false,false,1351,image-keyboard-response,31
true,10,0,1,0,true,q,false,true,0.0-2.0-0.43-0.390-3.390,0,0,0,81,false,stim,false,1,697.8000000002794,1,0,1,86720,task1,1132403,false,false,1354,image-keyboard-response,32
true,10,0,1,0,true,q,false,false,0.0-2.0-0.43-0.391-3.391,0,0,0,81,false,stim,false,1,687.2999999998137,1,0,1,86720,task1,1134597,false,true,1357,image-keyboard-response,33
true,10,1,1,1,true,z,false,true,0.0-2.0-0.43-0.392-3.392,0,0,0,90,false,stim,false,0,704.5,1,0,2,86720,task1,1136811,false,false,1360,image-keyboard-response,34
false,10,-1,1,0,false,q,true,false,0.0-2.0-0.43-0.393-3.393,0,0,0,,false,stim,false,1,,1,0,0,86720,task1,1141320,false,false,1363,image-keyboard-response,35
true,10,0,1,0,true,q,false,true,0.0-2.0-0.43-0.394-3.394,0,0,0,81,false,stim,false,1,758.9000000003725,1,0,0,86720,task1,1143588,false,false,1366,image-keyboard-response,36
true,10,0,1,0,true,q,false,true,0.0-2.0-0.43-0.395-3.395,0,0,0,81,false,stim,false,1,1468.8999999999069,1,0,1,86720,task1,1146566,false,false,1369,image-keyboard-response,37
true,10,2,1,1,false,z,true,false,0.0-2.0-0.44-0.396-3.396,0,0,0,68,false,stim,false,0,885.7999999998137,1,0,2,86720,task1,1148961,false,false,1372,image-keyboard-response,38
true,10,0,1,0,true,q,false,true,0.0-2.0-0.44-0.397-3.397,0,0,0,81,false,stim,false,1,796.9000000003725,1,0,0,86720,task1,1151267,false,false,1375,image-keyboard-response,39
true,11,0,2,2,false,d,false,false,0.0-2.0-0.44-0.398-3.398,0,0,0,81,true,stim,true,0,869.6999999997206,1,0,1,86720,task1,1153646,false,false,1378,image-keyboard-response,1
true,11,0,2,2,false,d,false,false,0.0-2.0-0.44-0.399-3.399,0,0,0,81,false,stim,true,0,546.0,1,0,0,86720,task1,1155700,false,false,1381,image-keyboard-response,2
true,11,0,2,2,false,d,false,false,0.0-2.0-0.44-0.400-3.400,0,0,0,81,false,stim,true,0,674.6000000000931,1,0,1,86720,task1,1157883,false,false,1384,image-keyboard-response,3
true,11,2,2,2,true,d,false,true,0.0-2.0-0.44-0.401-3.401,0,0,0,68,false,stim,false,0,650.3999999999069,1,0,1,86720,task1,1160040,false,false,1387,image-keyboard-response,4
true,11,0,2,0,true,q,false,true,0.0-2.0-0.44-0.402-3.402,0,0,0,81,false,stim,false,1,1347.5,1,0,2,86720,task1,1162897,false,false,1390,image-keyboard-response,5
true,11,2,2,2,true,d,false,true,0.0-2.0-0.44-0.403-3.403,0,0,0,68,false,stim,false,0,518.5,1,0,0,86720,task1,1164924,false,false,1393,image-keyboard-response,6
true,11,0,2,0,true,q,false,true,0.0-2.0-0.44-0.404-3.404,0,0,0,81,false,stim,false,1,1002.1000000000931,1,0,2,86720,task1,1167435,false,false,1396,image-keyboard-response,7
true,11,2,2,0,false,q,true,false,0.0-2.0-0.45-0.405-3.405,0,0,0,68,false,stim,false,1,976.0,1,0,2,86720,task1,1169922,false,false,1399,image-keyboard-response,8
true,11,2,2,2,true,d,false,true,0.0-2.0-0.45-0.406-3.406,0,0,0,68,false,stim,false,0,802.6999999997206,1,0,0,86720,task1,1172254,false,false,1402,image-keyboard-response,9
true,11,2,2,2,true,d,false,true,0.0-2.0-0.45-0.407-3.407,0,0,0,68,false,stim,false,0,649.7999999998137,1,0,1,86720,task1,1174412,false,false,1405,image-keyboard-response,10
true,11,2,2,2,true,d,false,true,0.0-2.0-0.45-0.408-3.408,0,0,0,68,false,stim,false,0,471.40000000037253,1,0,1,86720,task1,1176392,false,false,1408,image-keyboard-response,11
true,11,0,2,0,true,q,false,true,0.0-2.0-0.45-0.409-3.409,0,0,0,81,false,stim,false,1,777.6000000000931,1,0,2,86720,task1,1178678,false,false,1411,image-keyboard-response,12
true,11,2,2,2,true,d,false,true,0.0-2.0-0.45-0.410-3.410,0,0,0,68,false,stim,false,0,605.6000000000931,1,0,1,86720,task1,1180793,false,false,1414,image-keyboard-response,13
true,11,2,2,2,true,d,false,true,0.0-2.0-0.45-0.411-3.411,0,0,0,68,false,stim,false,0,956.3999999999069,1,0,0,86720,task1,1183256,false,false,1417,image-keyboard-response,14
true,11,0,2,0,true,q,false,true,0.0-2.0-0.45-0.412-3.412,0,0,0,81,false,stim,false,1,689.1999999997206,1,0,2,86720,task1,1185456,false,false,1420,image-keyboard-response,15
true,11,2,2,2,true,d,false,true,0.0-2.0-0.45-0.413-3.413,0,0,0,68,false,stim,false,0,641.5999999996275,1,0,0,86720,task1,1187606,false,false,1423,image-keyboard-response,16
true,11,2,2,2,true,d,false,true,0.0-2.0-0.46-0.414-3.414,0,0,0,68,false,stim,false,0,866.2999999998137,1,0,1,86720,task1,1189981,false,false,1426,image-keyboard-response,17
true,11,2,2,2,true,d,false,true,0.0-2.0-0.46-0.415-3.415,0,0,0,68,false,stim,false,0,590.3999999999069,1,0,1,86720,task1,1192080,false,false,1429,image-keyboard-response,18
true,11,0,2,2,false,d,false,false,0.0-2.0-0.46-0.416-3.416,0,0,0,81,false,stim,true,0,1100.2000000001863,1,0,0,86720,task1,1194689,false,false,1432,image-keyboard-response,19
true,11,0,2,0,true,q,false,true,0.0-2.0-0.46-0.417-3.417,0,0,0,81,false,stim,false,1,746.8999999999069,1,0,2,86720,task1,1196945,false,false,1435,image-keyboard-response,20
true,11,2,2,2,true,d,false,true,0.0-2.0-0.46-0.418-3.418,0,0,0,68,false,stim,false,0,689.3999999999069,1,0,1,86720,task1,1199142,false,false,1438,image-keyboard-response,21
true,11,0,2,0,true,q,false,false,0.0-2.0-0.46-0.419-3.419,0,0,0,81,false,stim,false,1,978.8999999999069,1,0,2,86720,task1,1201630,false,true,1441,image-keyboard-response,22
true,11,0,2,0,true,q,false,true,0.0-2.0-0.46-0.420-3.420,0,0,0,81,false,stim,false,1,1470.7000000001863,1,0,2,86720,task1,1204612,false,false,1444,image-keyboard-response,23
true,11,2,2,2,true,d,false,true,0.0-2.0-0.46-0.421-3.421,0,0,0,68,false,stim,false,0,1933.3999999999069,1,0,0,86720,task1,1208055,false,false,1447,image-keyboard-response,24
true,11,2,2,2,true,d,false,true,0.0-2.0-0.46-0.422-3.422,0,0,0,68,false,stim,false,0,510.10000000009313,1,0,0,86720,task1,1210075,false,false,1450,image-keyboard-response,25
true,11,2,2,2,true,d,false,true,0.0-2.0-0.47-0.423-3.423,0,0,0,68,false,stim,false,0,870.8999999999069,1,0,1,86720,task1,1212455,false,false,1453,image-keyboard-response,26
true,11,2,2,2,true,d,false,true,0.0-2.0-0.47-0.424-3.424,0,0,0,68,false,stim,false,0,763.4000000003725,1,0,0,86720,task1,1214727,false,false,1456,image-keyboard-response,27
true,11,2,2,2,true,d,false,true,0.0-2.0-0.47-0.425-3.425,0,0,0,68,false,stim,false,0,443.89999999990687,1,0,0,86720,task1,1216679,false,false,1459,image-keyboard-response,28
true,11,2,2,2,true,d,false,true,0.0-2.0-0.47-0.426-3.426,0,0,0,68,false,stim,false,0,1042.1000000000931,1,0,1,86720,task1,1219231,false,false,1462,image-keyboard-response,29
true,11,2,2,2,true,d,false,true,0.0-2.0-0.47-0.427-3.427,0,0,0,68,false,stim,false,0,616.3999999999069,1,0,0,86720,task1,1221358,false,false,1465,image-keyboard-response,30
true,11,0,2,0,true,q,false,true,0.0-2.0-0.47-0.428-3.428,0,0,0,81,false,stim,false,1,683.0,1,0,2,86720,task1,1223550,false,false,1468,image-keyboard-response,31
true,11,0,2,0,true,q,false,true,0.0-2.0-0.47-0.429-3.429,0,0,0,81,false,stim,false,1,512.3000000002794,1,0,2,86720,task1,1225571,false,false,1471,image-keyboard-response,32
true,11,0,2,0,true,q,false,false,0.0-2.0-0.47-0.430-3.430,0,0,0,81,false,stim,false,1,620.7000000001863,1,0,2,86720,task1,1227701,false,true,1474,image-keyboard-response,33
true,11,2,2,2,true,d,false,true,0.0-2.0-0.47-0.431-3.431,0,0,0,68,false,stim,false,0,816.1000000000931,1,0,1,86720,task1,1230025,false,false,1477,image-keyboard-response,34
true,11,2,2,2,true,d,false,true,0.0-2.0-0.48-0.432-3.432,0,0,0,68,false,stim,false,0,543.2000000001863,1,0,1,86720,task1,1232079,false,false,1480,image-keyboard-response,35
true,11,2,2,2,true,d,false,true,0.0-2.0-0.48-0.433-3.433,0,0,0,68,false,stim,false,0,529.7999999998137,1,0,1,86720,task1,1234118,false,false,1483,image-keyboard-response,36
true,11,2,2,2,true,d,false,true,0.0-2.0-0.48-0.434-3.434,0,0,0,68,false,stim,false,0,859.5,1,0,1,86720,task1,1236486,false,false,1486,image-keyboard-response,37
true,11,2,2,2,true,d,false,true,0.0-2.0-0.48-0.435-3.435,0,0,0,68,false,stim,false,0,2748.100000000093,1,0,0,86720,task1,1240743,false,false,1489,image-keyboard-response,38
true,11,0,2,0,true,q,false,true,0.0-2.0-0.48-0.436-3.436,0,0,0,81,false,stim,false,1,1422.7000000001863,1,0,2,86720,task1,1243675,false,false,1492,image-keyboard-response,39
true,11,0,2,0,true,q,false,true,0.0-2.0-0.48-0.437-3.437,0,0,0,81,false,stim,false,1,439.89999999990687,1,0,2,86720,task1,1245625,false,false,1495,image-keyboard-response,40
true,12,2,1,0,false,q,false,false,0.0-2.0-0.48-0.438-3.438,0,0,0,68,true,stim,true,2,710.6999999997206,1,0,0,86720,task1,1247843,false,false,1498,image-keyboard-response,1
true,12,0,1,2,false,d,false,true,0.0-2.0-0.48-0.439-3.439,0,0,0,81,false,stim,true,0,1227.1000000000931,1,0,2,86720,task1,1250597,false,true,1501,image-keyboard-response,2
true,12,2,1,0,false,q,false,true,0.0-2.0-0.48-0.440-3.440,0,0,0,68,false,stim,true,2,798.9000000003725,1,0,0,86720,task1,1252905,false,true,1504,image-keyboard-response,3
true,12,0,1,2,false,d,false,false,0.0-2.0-0.49-0.441-3.441,0,0,0,81,false,stim,true,0,622.6000000000931,1,0,2,86720,task1,1255038,false,false,1507,image-keyboard-response,4
true,12,2,1,1,false,z,false,false,0.0-2.0-0.49-0.442-3.442,0,0,0,68,false,stim,true,2,755.3999999999069,1,0,1,86720,task1,1257302,false,false,1510,image-keyboard-response,5
true,12,0,1,0,true,q,false,true,0.0-2.0-0.49-0.443-3.443,0,0,0,81,false,stim,false,2,1075.2999999998137,1,0,0,86720,task1,1259887,false,false,1513,image-keyboard-response,6
true,12,1,1,1,true,z,false,true,0.0-2.0-0.49-0.444-3.444,0,0,0,90,false,stim,false,2,714.3999999999069,1,0,1,86720,task1,1262111,false,false,1516,image-keyboard-response,7
true,12,1,1,0,false,q,true,false,0.0-2.0-0.49-0.445-3.445,0,0,0,90,false,stim,false,2,913.6999999997206,1,0,0,86720,task1,1264534,false,false,1519,image-keyboard-response,8
true,12,1,1,1,true,z,false,true,0.0-2.0-0.49-0.446-3.446,0,0,0,90,false,stim,false,2,1139.3999999999069,1,0,1,86720,task1,1267184,false,false,1522,image-keyboard-response,9
true,12,0,1,2,false,d,false,false,0.0-2.0-0.49-0.447-3.447,0,0,0,81,false,stim,true,0,1187.8999999999069,1,0,2,86720,task1,1269882,false,false,1525,image-keyboard-response,10
true,12,0,1,2,false,d,false,false,0.0-2.0-0.49-0.448-3.448,0,0,0,81,false,stim,true,0,549.8999999999069,1,0,2,86720,task1,1271941,false,false,1528,image-keyboard-response,11
true,12,1,1,0,false,q,true,false,0.0-2.0-0.49-0.449-3.449,0,0,0,90,false,stim,false,2,763.2999999998137,1,0,0,86720,task1,1274215,false,false,1531,image-keyboard-response,12
true,12,2,1,2,true,d,false,true,0.0-2.0-0.50-0.450-3.450,0,0,0,68,false,stim,false,0,601.1000000000931,1,0,2,86720,task1,1276324,false,false,1534,image-keyboard-response,13
true,12,2,1,2,true,d,false,true,0.0-2.0-0.50-0.451-3.451,0,0,0,68,false,stim,false,0,545.6000000000931,1,0,2,86720,task1,1278379,false,false,1537,image-keyboard-response,14
true,12,0,1,0,true,q,false,true,0.0-2.0-0.50-0.452-3.452,0,0,0,81,false,stim,false,2,555.0,1,0,0,86720,task1,1280444,false,false,1540,image-keyboard-response,15
true,12,2,1,2,true,d,false,true,0.0-2.0-0.50-0.453-3.453,0,0,0,68,false,stim,false,0,1253.7999999998137,1,0,2,86720,task1,1283208,false,false,1543,image-keyboard-response,16
true,12,0,1,1,false,z,true,false,0.0-2.0-0.50-0.454-3.454,0,0,0,81,false,stim,false,2,679.1000000000931,1,0,1,86720,task1,1285398,false,false,1546,image-keyboard-response,17
true,12,0,1,1,false,z,true,false,0.0-2.0-0.50-0.455-3.455,0,0,0,81,false,stim,false,2,595.5999999996275,1,0,1,86720,task1,1287502,false,false,1549,image-keyboard-response,18
true,12,1,1,1,true,z,false,true,0.0-2.0-0.50-0.456-3.456,0,0,0,90,false,stim,false,2,606.3999999999069,1,0,1,86720,task1,1289618,false,false,1552,image-keyboard-response,19
true,12,0,1,0,true,q,false,true,0.0-2.0-0.50-0.457-3.457,0,0,0,81,false,stim,false,2,647.3999999999069,1,0,0,86720,task1,1291775,false,false,1555,image-keyboard-response,20
true,12,0,1,0,true,q,false,true,0.0-2.0-0.50-0.458-3.458,0,0,0,81,false,stim,false,2,1445.2999999998137,1,0,0,86720,task1,1294729,false,false,1558,image-keyboard-response,21
true,12,2,1,2,true,d,false,true,0.0-2.0-0.51-0.459-3.459,0,0,0,68,false,stim,false,0,929.2999999998137,1,0,2,86720,task1,1297169,false,false,1561,image-keyboard-response,22
true,12,1,1,0,false,q,true,true,0.0-2.0-0.51-0.460-3.460,0,0,0,90,false,stim,false,2,764.7000000001863,1,0,0,86720,task1,1299442,false,true,1564,image-keyboard-response,23
true,12,0,1,1,false,z,true,false,0.0-2.0-0.51-0.461-3.461,0,0,0,81,false,stim,false,2,459.0,1,0,1,86720,task1,1301412,false,false,1567,image-keyboard-response,24
true,12,2,1,2,true,d,false,true,0.0-2.0-0.51-0.462-3.462,0,0,0,68,false,stim,false,0,710.0,1,0,2,86720,task1,1303631,false,false,1570,image-keyboard-response,25
true,12,0,1,1,false,z,true,false,0.0-2.0-0.51-0.463-3.463,0,0,0,81,false,stim,false,2,602.7999999998137,1,0,1,86720,task1,1305744,false,false,1573,image-keyboard-response,26
true,12,1,1,1,true,z,false,true,0.0-2.0-0.51-0.464-3.464,0,0,0,90,false,stim,false,2,624.0,1,0,1,86720,task1,1307877,false,false,1576,image-keyboard-response,27
true,12,1,1,0,false,q,true,false,0.0-2.0-0.51-0.465-3.465,0,0,0,90,false,stim,false,2,603.1000000000931,1,0,0,86720,task1,1309989,false,false,1579,image-keyboard-response,28
true,12,2,1,2,true,d,false,true,0.0-2.0-0.51-0.466-3.466,0,0,0,68,false,stim,false,0,745.3000000002794,1,0,2,86720,task1,1312243,false,false,1582,image-keyboard-response,29
true,12,0,1,0,true,q,false,true,0.0-2.0-0.51-0.467-3.467,0,0,0,81,false,stim,false,2,469.79999999981374,1,0,0,86720,task1,1314221,false,false,1585,image-keyboard-response,30
true,12,1,1,1,true,z,false,true,0.0-2.0-0.52-0.468-3.468,0,0,0,90,false,stim,false,2,503.5,1,0,1,86720,task1,1316237,false,false,1588,image-keyboard-response,31
true,12,1,1,1,true,z,false,true,0.0-2.0-0.52-0.469-3.469,0,0,0,90,false,stim,false,2,501.0,1,0,1,86720,task1,1318247,false,false,1591,image-keyboard-response,32
true,12,0,1,0,true,q,false,true,0.0-2.0-0.52-0.470-3.470,0,0,0,81,false,stim,false,2,773.6999999997206,1,0,0,86720,task1,1320530,false,false,1594,image-keyboard-response,33
true,12,2,1,2,true,d,false,true,0.0-2.0-0.52-0.471-3.471,0,0,0,68,false,stim,false,0,774.8000000002794,1,0,2,86720,task1,1322814,false,false,1597,image-keyboard-response,34
true,12,0,1,0,true,q,false,true,0.0-2.0-0.52-0.472-3.472,0,0,0,81,false,stim,false,2,966.0,1,0,0,86720,task1,1325289,false,false,1600,image-keyboard-response,35
true,12,0,1,0,true,q,false,true,0.0-2.0-0.52-0.473-3.473,0,0,0,81,false,stim,false,2,541.1999999997206,1,0,0,86720,task1,1327364,false,false,1603,image-keyboard-response,36
true,12,2,1,2,true,d,false,true,0.0-2.0-0.52-0.474-3.474,0,0,0,68,false,stim,false,0,823.0,1,0,2,86720,task1,1329695,false,false,1606,image-keyboard-response,37
true,12,1,1,1,true,z,false,true,0.0-2.0-0.52-0.475-3.475,0,0,0,90,false,stim,false,2,893.7999999998137,1,0,1,86720,task1,1332099,false,false,1609,image-keyboard-response,38
true,12,2,1,2,true,d,false,true,0.0-2.0-0.52-0.476-3.476,0,0,0,68,false,stim,false,0,919.6000000000931,1,0,2,86720,task1,1334527,false,false,1612,image-keyboard-response,39
true,12,0,1,0,true,q,false,true,0.0-2.0-0.53-0.477-3.477,0,0,0,81,false,stim,false,2,887.8000000002794,1,0,0,86720,task1,1336925,false,false,1615,image-keyboard-response,40
true,12,0,1,0,true,q,false,true,0.0-2.0-0.53-0.478-3.478,0,0,0,81,false,stim,false,2,577.7999999998137,1,0,0,86720,task1,1339013,false,false,1618,image-keyboard-response,41
true,12,2,1,2,true,d,false,true,0.0-2.0-0.53-0.479-3.479,0,0,0,68,false,stim,false,0,782.2999999998137,1,0,2,86720,task1,1341304,false,false,1621,image-keyboard-response,42
true,13,0,1,1,false,z,false,false,0.0-2.0-0.53-0.480-3.480,0,0,0,81,true,stim,true,0,1057.7999999998137,1,0,0,86720,task1,1343873,false,false,1624,image-keyboard-response,1
true,13,1,1,2,false,d,false,false,0.0-2.0-0.53-0.481-3.481,0,0,0,90,false,stim,true,1,961.1000000000931,1,0,1,86720,task1,1346343,false,false,1627,image-keyboard-response,2
true,13,2,1,0,false,q,false,true,0.0-2.0-0.53-0.482-3.482,0,0,0,68,false,stim,true,2,832.2999999998137,1,0,2,86720,task1,1348685,false,true,1630,image-keyboard-response,3
true,13,0,1,2,false,d,true,false,0.0-2.0-0.53-0.483-3.483,0,0,0,81,false,stim,false,1,620.2000000001863,1,0,1,86720,task1,1350815,false,false,1633,image-keyboard-response,4
true,13,2,1,0,false,q,false,false,0.0-2.0-0.53-0.484-3.484,0,0,0,68,false,stim,true,2,809.7000000001863,1,0,2,86720,task1,1353135,false,false,1636,image-keyboard-response,5
true,13,2,1,2,true,d,false,true,0.0-2.0-0.53-0.485-3.485,0,0,0,68,false,stim,false,1,515.6999999997206,1,0,1,86720,task1,1355161,false,false,1639,image-keyboard-response,6
true,13,2,1,1,false,z,true,false,0.0-2.0-0.54-0.486-3.486,0,0,0,68,false,stim,false,0,1348.6999999997206,1,0,0,86720,task1,1358019,false,false,1642,image-keyboard-response,7
true,13,1,1,1,true,z,false,true,0.0-2.0-0.54-0.487-3.487,0,0,0,90,false,stim,false,0,596.0,1,0,0,86720,task1,1360126,false,false,1645,image-keyboard-response,8
true,13,1,1,1,true,z,false,true,0.0-2.0-0.54-0.488-3.488,0,0,0,90,false,stim,false,0,679.2000000001863,1,0,0,86720,task1,1362315,false,false,1648,image-keyboard-response,9
true,13,2,1,2,true,d,false,false,0.0-2.0-0.54-0.489-3.489,0,0,0,68,false,stim,false,1,1079.7999999998137,1,0,1,86720,task1,1364904,false,true,1651,image-keyboard-response,10
true,13,2,1,2,true,d,false,true,0.0-2.0-0.54-0.490-3.490,0,0,0,68,false,stim,false,1,1026.7999999998137,1,0,1,86720,task1,1367440,false,false,1654,image-keyboard-response,11
true,13,0,1,0,true,q,false,true,0.0-2.0-0.54-0.491-3.491,0,0,0,81,false,stim,false,2,947.8999999999069,1,0,2,86720,task1,1369898,false,false,1657,image-keyboard-response,12
true,13,0,1,0,true,q,false,true,0.0-2.0-0.54-0.492-3.492,0,0,0,81,false,stim,false,2,452.3000000002794,1,0,2,86720,task1,1371860,false,false,1660,image-keyboard-response,13
true,13,0,1,0,true,q,false,false,0.0-2.0-0.54-0.493-3.493,0,0,0,81,false,stim,false,2,433.3000000002794,1,0,2,86720,task1,1373804,false,true,1663,image-keyboard-response,14
true,13,2,1,2,true,d,false,true,0.0-2.0-0.54-0.494-3.494,0,0,0,68,false,stim,false,1,739.7000000001863,1,0,1,86720,task1,1376053,false,false,1666,image-keyboard-response,15
true,13,1,1,1,true,z,false,true,0.0-2.0-0.55-0.495-3.495,0,0,0,90,false,stim,false,0,764.6999999997206,1,0,0,86720,task1,1378327,false,false,1669,image-keyboard-response,16
true,13,2,1,2,true,d,false,true,0.0-2.0-0.55-0.496-3.496,0,0,0,68,false,stim,false,1,787.3999999999069,1,0,1,86720,task1,1380625,false,false,1672,image-keyboard-response,17
true,13,2,1,2,true,d,false,true,0.0-2.0-0.55-0.497-3.497,0,0,0,68,false,stim,false,1,610.5999999996275,1,0,1,86720,task1,1382744,false,false,1675,image-keyboard-response,18
true,13,0,1,0,true,q,false,true,0.0-2.0-0.55-0.498-3.498,0,0,0,81,false,stim,false,2,1014.7000000001863,1,0,2,86720,task1,1385269,false,false,1678,image-keyboard-response,19
true,13,0,1,0,true,q,false,true,0.0-2.0-0.55-0.499-3.499,0,0,0,81,false,stim,false,2,415.70000000018626,1,0,2,86720,task1,1387198,false,false,1681,image-keyboard-response,20
true,13,2,1,1,false,z,true,true,0.0-2.0-0.55-0.500-3.500,0,0,0,68,false,stim,false,0,1184.1000000000931,1,0,0,86720,task1,1389892,false,true,1684,image-keyboard-response,21
true,13,2,1,1,false,z,true,false,0.0-2.0-0.55-0.501-3.501,0,0,0,68,false,stim,false,0,539.6000000000931,1,0,0,86720,task1,1391941,false,false,1687,image-keyboard-response,22
true,13,0,1,0,true,q,false,true,0.0-2.0-0.55-0.502-3.502,0,0,0,81,false,stim,false,2,683.9000000003725,1,0,2,86720,task1,1394135,false,false,1690,image-keyboard-response,23
true,13,1,1,2,false,d,false,false,0.0-2.0-0.55-0.503-3.503,0,0,0,90,false,stim,true,1,1927.6000000000931,1,0,1,86720,task1,1397571,false,false,1693,image-keyboard-response,24
true,13,0,1,0,true,q,false,true,0.0-2.0-0.56-0.504-3.504,0,0,0,81,false,stim,false,2,1810.0,1,0,2,86720,task1,1400893,false,false,1696,image-keyboard-response,25
true,13,2,1,2,true,d,false,true,0.0-2.0-0.56-0.505-3.505,0,0,0,68,false,stim,false,1,758.9000000003725,1,0,1,86720,task1,1403161,false,false,1699,image-keyboard-response,26
true,13,0,1,0,true,q,false,true,0.0-2.0-0.56-0.506-3.506,0,0,0,81,false,stim,false,2,1893.7000000001863,1,0,2,86720,task1,1406591,false,false,1702,image-keyboard-response,27
true,13,2,1,2,true,d,false,true,0.0-2.0-0.56-0.507-3.507,0,0,0,68,false,stim,false,1,788.5,1,0,1,86720,task1,1408889,false,false,1705,image-keyboard-response,28
true,13,0,1,1,false,z,false,false,0.0-2.0-0.56-0.508-3.508,0,0,0,81,false,stim,true,0,512.2999999998137,1,0,0,86720,task1,1410912,false,false,1708,image-keyboard-response,29
true,13,2,1,2,true,d,false,true,0.0-2.0-0.56-0.509-3.509,0,0,0,68,false,stim,false,1,1474.8999999999069,1,0,1,86720,task1,1413896,false,false,1711,image-keyboard-response,30
true,13,1,1,1,true,z,false,true,0.0-2.0-0.56-0.510-3.510,0,0,0,90,false,stim,false,0,1120.8999999999069,1,0,0,86720,task1,1416528,false,false,1714,image-keyboard-response,31
true,13,1,1,1,true,z,false,true,0.0-2.0-0.56-0.511-3.511,0,0,0,90,false,stim,false,0,509.5,1,0,0,86720,task1,1418546,false,false,1717,image-keyboard-response,32
true,13,2,1,0,false,q,false,false,0.0-2.0-0.56-0.512-3.512,0,0,0,68,false,stim,true,2,1194.8999999999069,1,0,2,86720,task1,1421251,false,false,1720,image-keyboard-response,33
true,13,2,1,2,true,d,false,true,0.0-2.0-0.57-0.513-3.513,0,0,0,68,false,stim,false,1,701.3000000002794,1,0,1,86720,task1,1423464,false,false,1723,image-keyboard-response,34
true,13,0,1,0,true,q,false,true,0.0-2.0-0.57-0.514-3.514,0,0,0,81,false,stim,false,2,565.0,1,0,2,86720,task1,1425538,false,false,1726,image-keyboard-response,35
true,13,1,1,1,true,z,false,false,0.0-2.0-0.57-0.515-3.515,0,0,0,90,false,stim,false,0,853.8999999999069,1,0,0,86720,task1,1427901,false,true,1729,image-keyboard-response,36
true,13,1,1,1,true,z,false,true,0.0-2.0-0.57-0.516-3.516,0,0,0,90,false,stim,false,0,427.39999999990687,1,0,0,86720,task1,1429839,false,false,1732,image-keyboard-response,37
true,13,2,1,2,true,d,false,true,0.0-2.0-0.57-0.517-3.517,0,0,0,68,false,stim,false,1,717.2000000001863,1,1,1,86720,task1,1432065,false,false,1735,image-keyboard-response,38
true,13,2,1,2,true,d,false,true,0.0-2.0-0.57-0.518-3.518,0,0,0,68,false,stim,false,1,408.10000000009313,1,1,1,86720,task1,1433985,false,false,1738,image-keyboard-response,39
true,13,1,1,1,true,z,false,true,0.0-2.0-0.57-0.519-3.519,0,0,0,90,false,stim,false,0,1507.6000000000931,1,1,0,86720,task1,1437003,false,false,1741,image-keyboard-response,40
true,13,0,1,0,true,q,false,true,0.0-2.0-0.57-0.520-3.520,0,0,0,81,false,stim,false,2,1163.1999999997206,1,1,2,86720,task1,1439676,false,false,1744,image-keyboard-response,41
true,13,0,1,0,true,q,false,true,0.0-2.0-0.57-0.521-3.521,0,0,0,81,false,stim,false,2,417.29999999981374,1,1,2,86720,task1,1441604,false,false,1747,image-keyboard-response,42
true,14,1,0,1,true,z,false,true,0.0-2.0-0.58-0.522-3.522,1,1,1,90,true,stim,false,1,1241.7999999998137,1,1,0,86720,task1,1509782,false,false,1816,image-keyboard-response,1
true,14,1,0,1,true,z,false,true,0.0-2.0-0.58-0.523-3.523,1,1,1,90,false,stim,false,1,537.6999999997206,1,1,0,86720,task1,1511832,false,false,1819,image-keyboard-response,2
true,14,0,0,0,true,q,false,true,0.0-2.0-0.58-0.524-3.524,1,1,1,81,false,stim,false,0,744.1000000000931,1,1,2,86720,task1,1514086,false,false,1822,image-keyboard-response,3
true,14,2,0,2,true,d,false,true,0.0-2.0-0.58-0.525-3.525,1,1,1,68,false,stim,false,2,532.8999999999069,1,1,1,86720,task1,1516129,false,false,1825,image-keyboard-response,4
true,14,0,0,0,true,q,false,true,0.0-2.0-0.58-0.526-3.526,1,1,1,81,false,stim,false,0,763.2000000001863,1,1,2,86720,task1,1518402,false,false,1828,image-keyboard-response,5
true,14,2,0,2,true,d,false,true,0.0-2.0-0.58-0.527-3.527,1,1,1,68,false,stim,false,2,580.6999999997206,1,1,1,86720,task1,1520493,false,false,1831,image-keyboard-response,6
true,14,2,0,2,true,d,false,true,0.0-2.0-0.58-0.528-3.528,1,1,1,68,false,stim,false,2,472.10000000009313,1,1,1,86720,task1,1522475,false,false,1834,image-keyboard-response,7
true,14,0,0,0,true,q,false,true,0.0-2.0-0.58-0.529-3.529,1,1,1,81,false,stim,false,0,643.0999999996275,1,1,2,86720,task1,1524628,false,false,1837,image-keyboard-response,8
true,14,1,0,1,true,z,false,true,0.0-2.0-0.58-0.530-3.530,1,1,1,90,false,stim,false,1,637.6000000000931,1,0,0,86720,task1,1526776,false,false,1840,image-keyboard-response,9
true,14,2,0,2,true,d,false,true,0.0-2.0-0.59-0.531-3.531,1,1,1,68,false,stim,false,2,721.0,1,0,1,86720,task1,1529008,false,false,1843,image-keyboard-response,10
true,14,2,0,2,true,d,false,false,0.0-2.0-0.59-0.532-3.532,1,1,1,68,false,stim,false,2,529.2999999998137,1,0,1,86720,task1,1531047,false,true,1846,image-keyboard-response,11
true,14,1,0,1,true,z,false,true,0.0-2.0-0.59-0.533-3.533,1,1,1,90,false,stim,false,1,1153.8999999999069,1,0,0,86720,task1,1533710,false,false,1849,image-keyboard-response,12
true,14,1,0,1,true,z,false,true,0.0-2.0-0.59-0.534-3.534,1,1,1,90,false,stim,false,1,467.1999999997206,1,0,0,86720,task1,1535688,false,false,1852,image-keyboard-response,13
true,15,0,1,1,false,z,true,false,0.0-2.0-0.59-0.535-3.535,0,0,0,81,true,stim,false,2,1127.0,1,0,1,86720,task1,1538326,false,false,1855,image-keyboard-response,1
true,15,0,1,1,false,z,false,false,0.0-2.0-0.59-0.536-3.536,0,0,0,81,false,stim,true,0,520.6000000000931,1,0,2,86720,task1,1540356,false,false,1858,image-keyboard-response,2
true,15,1,1,0,false,q,false,false,0.0-2.0-0.59-0.537-3.537,0,0,0,90,false,stim,true,1,730.3000000002794,1,0,0,86720,task1,1542597,false,false,1861,image-keyboard-response,3
true,15,2,1,1,false,z,true,false,0.0-2.0-0.59-0.538-3.538,0,0,0,68,false,stim,false,0,958.3999999999069,1,0,2,86720,task1,1545068,false,false,1864,image-keyboard-response,4
true,15,1,1,1,true,z,false,true,0.0-2.0-0.59-0.539-3.539,0,0,0,90,false,stim,false,0,547.9000000003725,1,0,2,86720,task1,1547127,false,false,1867,image-keyboard-response,5
true,15,0,1,0,true,q,false,true,0.0-2.0-0.60-0.540-3.540,0,0,0,81,false,stim,false,1,1326.6999999997206,1,0,0,86720,task1,1549965,false,false,1870,image-keyboard-response,6
true,15,0,1,1,false,z,true,false,0.0-2.0-0.60-0.541-3.541,0,0,0,81,false,stim,false,2,1809.7000000001863,1,0,1,86720,task1,1553286,false,false,1873,image-keyboard-response,7
true,15,1,1,1,true,z,false,true,0.0-2.0-0.60-0.542-3.542,0,0,0,90,false,stim,false,2,669.3000000002794,1,0,1,86720,task1,1555467,false,false,1876,image-keyboard-response,8
true,15,0,1,0,true,q,false,true,0.0-2.0-0.60-0.543-3.543,0,0,0,81,false,stim,false,1,673.2999999998137,1,0,0,86720,task1,1557650,false,false,1879,image-keyboard-response,9
true,15,0,1,0,true,q,false,false,0.0-2.0-0.60-0.544-3.544,0,0,0,81,false,stim,false,1,470.6999999997206,1,0,0,86720,task1,1559631,false,true,1882,image-keyboard-response,10
true,15,1,1,1,true,z,false,true,0.0-2.0-0.60-0.545-3.545,0,0,0,90,false,stim,false,0,589.2000000001863,1,0,2,86720,task1,1561731,false,false,1885,image-keyboard-response,11
true,15,1,1,1,true,z,false,true,0.0-2.0-0.60-0.546-3.546,0,0,0,90,false,stim,false,0,451.8000000002794,1,0,2,86720,task1,1563692,false,false,1888,image-keyboard-response,12
true,15,1,1,1,true,z,false,true,0.0-2.0-0.60-0.547-3.547,0,0,0,90,false,stim,false,2,622.7999999998137,1,0,1,86720,task1,1565826,false,false,1891,image-keyboard-response,13
true,15,1,1,1,true,z,false,true,0.0-2.0-0.60-0.548-3.548,0,0,0,90,false,stim,false,0,1687.5,1,0,2,86720,task1,1569025,false,false,1894,image-keyboard-response,14
true,15,0,1,0,true,q,false,true,0.0-2.0-0.61-0.549-3.549,0,0,0,81,false,stim,false,1,709.0,1,0,0,86720,task1,1571246,false,false,1897,image-keyboard-response,15
true,15,0,1,0,true,q,false,true,0.0-2.0-0.61-0.550-3.550,0,0,0,81,false,stim,false,1,436.5,1,0,0,86720,task1,1573194,false,false,1900,image-keyboard-response,16
true,15,1,1,1,true,z,false,true,0.0-2.0-0.61-0.551-3.551,0,0,0,90,false,stim,false,0,838.3000000002794,1,0,2,86720,task1,1575561,false,false,1903,image-keyboard-response,17
true,15,1,1,1,true,z,false,true,0.0-2.0-0.61-0.552-3.552,0,0,0,90,false,stim,false,0,417.10000000009313,1,0,2,86720,task1,1577492,false,false,1906,image-keyboard-response,18
true,15,1,1,1,true,z,false,true,0.0-2.0-0.61-0.553-3.553,0,0,0,90,false,stim,false,2,1424.8999999999069,1,0,1,86720,task1,1580428,false,false,1909,image-keyboard-response,19
true,15,1,1,1,true,z,false,false,0.0-2.0-0.61-0.554-3.554,0,0,0,90,false,stim,false,2,435.39999999990687,1,0,1,86720,task1,1582375,false,true,1912,image-keyboard-response,20
true,15,1,1,1,true,z,false,true,0.0-2.0-0.61-0.555-3.555,0,0,0,90,false,stim,false,2,453.70000000018626,1,0,1,86720,task1,1584340,false,false,1915,image-keyboard-response,21
true,15,1,1,1,true,z,false,false,0.0-2.0-0.61-0.556-3.556,0,0,0,90,false,stim,false,0,746.2999999998137,1,0,2,86720,task1,1586596,false,true,1918,image-keyboard-response,22
true,15,0,1,0,true,q,false,true,0.0-2.0-0.61-0.557-3.557,0,0,0,81,false,stim,false,1,614.8000000002794,1,0,0,86720,task1,1588722,false,false,1921,image-keyboard-response,23
true,15,0,1,0,true,q,false,true,0.0-2.0-0.62-0.558-3.558,0,0,0,81,false,stim,false,1,404.0,1,0,0,86720,task1,1590638,false,false,1924,image-keyboard-response,24
true,15,0,1,0,true,q,false,false,0.0-2.0-0.62-0.559-3.559,0,0,0,81,false,stim,false,1,451.79999999981374,1,0,0,86720,task1,1592603,false,true,1927,image-keyboard-response,25
true,15,0,1,0,true,q,false,true,0.0-2.0-0.62-0.560-3.560,0,0,0,81,false,stim,false,1,582.2000000001863,1,0,0,86720,task1,1594696,false,false,1930,image-keyboard-response,26
true,15,1,1,1,true,z,false,true,0.0-2.0-0.62-0.561-3.561,0,0,0,90,false,stim,false,2,612.5,1,0,1,86720,task1,1596819,false,false,1933,image-keyboard-response,27
true,15,1,1,1,true,z,false,true,0.0-2.0-0.62-0.562-3.562,0,0,0,90,false,stim,false,0,519.7000000001863,1,0,2,86720,task1,1598849,false,false,1936,image-keyboard-response,28
true,15,1,1,1,true,z,false,true,0.0-2.0-0.62-0.563-3.563,0,0,0,90,false,stim,false,0,560.8999999999069,1,0,2,86720,task1,1600921,false,false,1939,image-keyboard-response,29
true,15,1,1,1,true,z,false,true,0.0-2.0-0.62-0.564-3.564,0,0,0,90,false,stim,false,2,616.1000000000931,1,0,1,86720,task1,1603047,false,false,1942,image-keyboard-response,30
true,15,1,1,1,true,z,false,true,0.0-2.0-0.62-0.565-3.565,0,0,0,90,false,stim,false,0,596.7000000001863,1,0,2,86720,task1,1605156,false,false,1945,image-keyboard-response,31
true,15,1,1,1,true,z,false,true,0.0-2.0-0.62-0.566-3.566,0,0,0,90,false,stim,false,2,903.6999999997206,1,0,1,86720,task1,1607569,false,false,1948,image-keyboard-response,32
true,15,1,1,1,true,z,false,true,0.0-2.0-0.63-0.567-3.567,0,0,0,90,false,stim,false,0,706.7999999998137,1,0,2,86720,task1,1609791,false,false,1951,image-keyboard-response,33
true,15,0,1,0,true,q,false,false,0.0-2.0-0.63-0.568-3.568,0,0,0,81,false,stim,false,1,723.7000000001863,1,0,0,86720,task1,1612026,false,true,1954,image-keyboard-response,34
true,15,1,1,1,true,z,false,true,0.0-2.0-0.63-0.569-3.569,0,0,0,90,false,stim,false,2,670.0,1,0,1,86720,task1,1614208,false,false,1957,image-keyboard-response,35
true,15,1,1,1,true,z,false,true,0.0-2.0-0.63-0.570-3.570,0,0,0,90,false,stim,false,2,518.0,1,0,1,86720,task1,1616236,false,false,1960,image-keyboard-response,36
true,15,1,1,1,true,z,false,true,0.0-2.0-0.63-0.571-3.571,0,0,0,90,false,stim,false,2,496.39999999990687,1,0,1,86720,task1,1618243,false,false,1963,image-keyboard-response,37
true,15,1,1,1,true,z,false,true,0.0-2.0-0.63-0.572-3.572,0,0,0,90,false,stim,false,0,1223.6000000000931,1,0,2,86720,task1,1620977,false,false,1966,image-keyboard-response,38
true,15,1,1,1,true,z,false,true,0.0-2.0-0.63-0.573-3.573,0,0,0,90,false,stim,false,0,550.5,1,0,2,86720,task1,1623039,false,false,1969,image-keyboard-response,39
true,15,0,1,0,true,q,false,true,0.0-2.0-0.63-0.574-3.574,0,0,0,81,false,stim,false,1,748.2000000001863,1,0,0,86720,task1,1625303,false,false,1972,image-keyboard-response,40
true,15,0,1,0,true,q,false,true,0.0-2.0-0.63-0.575-3.575,0,0,0,81,false,stim,false,1,428.5,1,0,0,86720,task1,1627244,false,false,1975,image-keyboard-response,41
true,16,0,2,2,false,d,false,false,0.0-2.0-0.64-0.576-3.576,0,0,0,81,true,stim,true,0,469.70000000018626,1,0,0,86720,task1,1629226,false,false,1978,image-keyboard-response,1
true,16,0,2,2,false,d,false,false,0.0-2.0-0.64-0.577-3.577,0,0,0,81,false,stim,true,0,468.39999999990687,1,0,0,86720,task1,1631205,false,false,1981,image-keyboard-response,2
true,16,1,2,2,false,d,false,false,0.0-2.0-0.64-0.578-3.578,0,0,0,90,false,stim,true,1,728.2999999998137,1,0,1,86720,task1,1633445,false,false,1984,image-keyboard-response,3
true,16,2,2,2,true,d,false,false,0.0-2.0-0.64-0.579-3.579,0,0,0,68,false,stim,false,0,1444.6000000000931,1,0,0,86720,task1,1636402,false,true,1987,image-keyboard-response,4
true,16,2,2,2,true,d,false,false,0.0-2.0-0.64-0.580-3.580,0,0,0,68,false,stim,false,1,859.3000000002794,1,0,1,86720,task1,1638772,false,true,1990,image-keyboard-response,5
true,16,0,2,0,true,q,false,true,0.0-2.0-0.64-0.581-3.581,0,0,0,81,false,stim,false,1,551.3999999999069,1,0,2,86720,task1,1640834,false,false,1993,image-keyboard-response,6
true,16,0,2,0,true,q,false,true,0.0-2.0-0.64-0.582-3.582,0,0,0,81,false,stim,false,1,470.0,1,0,2,86720,task1,1642816,false,false,1996,image-keyboard-response,7
true,16,0,2,0,true,q,false,true,0.0-2.0-0.64-0.583-3.583,0,0,0,81,false,stim,false,1,469.3000000002794,1,0,2,86720,task1,1644796,false,false,1999,image-keyboard-response,8
true,16,0,2,2,false,d,true,false,0.0-2.0-0.64-0.584-3.584,0,0,0,81,false,stim,false,1,368.70000000018626,1,0,1,86720,task1,1646698,false,false,2002,image-keyboard-response,9
true,16,0,2,0,true,q,false,true,0.0-2.0-0.65-0.585-3.585,0,0,0,81,false,stim,false,1,524.7999999998137,1,0,2,86720,task1,1648734,false,false,2005,image-keyboard-response,10
true,16,1,2,2,false,d,true,false,0.0-2.0-0.65-0.586-3.586,0,0,0,90,false,stim,false,0,1000.8999999999069,1,0,0,86720,task1,1651245,false,false,2008,image-keyboard-response,11
true,16,0,2,0,true,q,false,true,0.0-2.0-0.65-0.587-3.587,0,0,0,81,false,stim,false,1,1023.7000000001863,1,0,2,86720,task1,1653782,false,false,2011,image-keyboard-response,12
true,16,0,2,2,false,d,true,false,0.0-2.0-0.65-0.588-3.588,0,0,0,81,false,stim,false,1,1050.0,1,0,1,86720,task1,1656342,false,false,2014,image-keyboard-response,13
true,16,0,2,2,false,d,false,false,0.0-2.0-0.65-0.589-3.589,0,0,0,81,false,stim,true,0,1128.0,1,0,0,86720,task1,1658980,false,false,2017,image-keyboard-response,14
true,16,2,2,2,true,d,false,true,0.0-2.0-0.65-0.590-3.590,0,0,0,68,false,stim,false,1,1189.1000000000931,1,0,1,86720,task1,1661680,false,false,2020,image-keyboard-response,15
