answered,blockNum,choice,condition,corResp,correct,correct_response,explo,fb,internal_node_id,isStable_1,isStable_2,isStable_3,key_press,newBlock,part,persev,persevResp,rt,sessNum,stableAS,stimulus,subject,task,time_elapsed,training,trap,trial_index,trial_type,trialsInBlock
true,1,1,0,2,false,d,true,false,0.0-2.0-0.0-0.0-3.0,0,0,0,90,true,stim,false,-1,877.1000000000349,2,0,2,86720,task3,101143,false,false,79,image-keyboard-response,1
true,1,2,0,2,true,d,false,true,0.0-2.0-0.0-0.1-3.1,0,0,0,68,false,stim,false,-1,457.4000000000233,2,0,2,86720,task3,103107,false,false,82,image-keyboard-response,2
true,1,0,0,1,false,z,true,false,0.0-2.0-0.0-0.2-3.2,0,0,0,81,false,stim,false,-1,460.5,2,0,0,86720,task3,105073,false,false,85,image-keyboard-response,3
true,1,0,0,2,false,d,true,false,0.0-2.0-0.0-0.3-3.3,0,0,0,81,false,stim,false,-1,721.0,2,0,1,86720,task3,107299,false,false,88,image-keyboard-response,4
true,1,1,0,1,true,z,false,true,0.0-2.0-0.0-0.4-3.4,0,0,0,90,false,stim,false,-1,501.0999999999767,2,0,0,86720,task3,109305,false,false,91,image-keyboard-response,5
true,1,1,0,1,true,z,false,true,0.0-2.0-0.0-0.5-3.5,0,0,0,90,false,stim,false,-1,412.70000000001164,2,0,0,86720,task3,111223,false,false,94,image-keyboard-response,6
true,1,1,0,2,false,d,true,false,0.0-2.0-0.0-0.6-3.6,0,0,0,90,false,stim,false,-1,546.6000000000349,2,0,1,86720,task3,113275,false,false,97,image-keyboard-response,7
true,1,2,0,2,true,d,false,true,0.0-2.0-0.0-0.7-3.7,0,0,0,68,false,stim,false,-1,386.5,2,0,1,86720,task3,115167,false,false,100,image-keyboard-response,8
true,1,2,0,2,true,d,false,true,0.0-2.0-0.0-0.8-3.8,0,0,0,68,false,stim,false,-1,479.79999999998836,2,0,2,86720,task3,117154,false,false,103,image-keyboard-response,9
true,1,2,0,2,true,d,false,true,0.0-2.0-0.1-0.9-3.9,0,0,0,68,false,stim,false,-1,389.6000000000349,2,0,2,86720,task3,119065,false,false,106,image-keyboard-response,10
true,1,1,0,2,false,d,true,false,0.0-2.0-0.1-0.10-3.10,0,0,0,90,false,stim,false,-1,483.79999999998836,2,0,1,86720,task3,121054,false,false,109,image-keyboard-response,11
true,1,2,0,2,true,d,false,true,0.0-2.0-0.1-0.11-3.11,0,0,0,68,false,stim,false,-1,412.0,2,0,1,86720,task3,122972,false,false,112,image-keyboard-response,12
true,1,1,0,1,true,z,false,true,0.0-2.0-0.1-0.12-3.12,0,0,0,90,false,stim,false,-1,643.0,2,0,0,86720,task3,125122,false,false,115,image-keyboard-response,13
true,1,1,0,1,true,z,false,true,0.0-2.0-0.1-0.13-3.13,0,0,0,90,false,stim,false,-1,429.79999999998836,2,0,0,86720,task3,127058,false,false,118,image-keyboard-response,14
true,1,2,0,2,true,d,false,false,0.0-2.0-0.1-0.14-3.14,0,0,0,68,false,stim,false,-1,556.2000000000116,2,0,2,86720,task3,129120,false,true,121,image-keyboard-response,15
true,1,2,0,2,true,d,false,true,0.0-2.0-0.1-0.15-3.15,0,0,0,68,false,stim,false,-1,365.80000000004657,2,0,2,86720,task3,130992,false,false,124,image-keyboard-response,16
true,1,2,0,2,true,d,false,true,0.0-2.0-0.1-0.16-3.16,0,0,0,68,false,stim,false,-1,433.79999999998836,2,0,1,86720,task3,132931,false,false,127,image-keyboard-response,17
true,1,1,0,1,true,z,false,true,0.0-2.0-0.1-0.17-3.17,0,0,0,90,false,stim,false,-1,538.2000000000116,2,0,0,86720,task3,134974,false,false,130,image-keyboard-response,18
true,1,2,0,2,true,d,false,true,0.0-2.0-0.2-0.18-3.18,0,0,0,68,false,stim,false,-1,498.79999999998836,2,0,2,86720,task3,136978,false,false,133,image-keyboard-response,19
true,1,1,0,1,true,z,false,true,0.0-2.0-0.2-0.19-3.19,0,0,0,90,false,stim,false,-1,518.0,2,0,0,86720,task3,139002,false,false,136,image-keyboard-response,20
true,1,2,0,2,true,d,false,true,0.0-2.0-0.2-0.20-3.20,0,0,0,68,false,stim,false,-1,546.6000000000349,2,0,1,86720,task3,141054,false,false,139,image-keyboard-response,21
true,1,1,0,1,true,z,false,true,0.0-2.0-0.2-0.21-3.21,0,0,0,90,false,stim,false,-1,419.0,2,0,0,86720,task3,142980,false,false,142,image-keyboard-response,22
true,1,2,0,2,true,d,false,true,0.0-2.0-0.2-0.22-3.22,0,0,0,68,false,stim,false,-1,520.1000000000349,2,0,1,86720,task3,145006,false,false,145,image-keyboard-response,23
true,1,2,0,2,true,d,false,true,0.0-2.0-0.2-0.23-3.23,0,0,0,68,false,stim,false,-1,436.5,2,0,1,86720,task3,146947,false,false,148,image-keyboard-response,24
true,1,2,0,2,true,d,false,true,0.0-2.0-0.2-0.24-3.24,0,0,0,68,false,stim,false,-1,325.8999999999651,2,1,2,86720,task3,148779,false,false,151,image-keyboard-response,25
true,1,2,0,2,true,d,false,false,0.0-2.0-0.2-0.25-3.25,0,0,0,68,false,stim,false,-1,424.79999999998836,2,1,2,86720,task3,150710,false,true,154,image-keyboard-response,26
true,1,1,0,1,true,z,false,true,0.0-2.0-0.2-0.26-3.26,0,0,0,90,false,stim,false,-1,346.79999999998836,2,1,0,86720,task3,152562,false,false,157,image-keyboard-response,27
true,1,2,0,2,true,d,false,true,0.0-2.0-0.3-0.27-3.27,0,0,0,68,false,stim,false,-1,434.20000000001164,2,1,2,86720,task3,154501,false,false,160,image-keyboard-response,28
true,1,1,0,1,true,z,false,true,0.0-2.0-0.3-0.28-3.28,0,0,0,90,false,stim,false,-1,527.0,2,1,0,86720,task3,156533,false,false,163,image-keyboard-response,29
true,2,2,2,2,true,d,false,true,0.0-2.0-0.3-0.29-3.29,1,0,1,68,true,stim,false,2,476.79999999998836,2,1,2,86720,task3,158515,false,false,166,image-keyboard-response,1
true,2,2,2,0,false,q,false,false,0.0-2.0-0.3-0.30-3.30,1,0,1,68,false,stim,true,2,516.7999999999884,2,0,1,86720,task3,160538,false,false,169,image-keyboard-response,2
true,2,1,2,1,true,z,false,true,0.0-2.0-0.3-0.31-3.31,1,0,1,90,false,stim,false,1,705.3999999999651,2,1,0,86720,task3,162750,false,false,172,image-keyboard-response,3
true,2,1,2,1,true,z,false,false,0.0-2.0-0.3-0.32-3.32,1,0,1,90,false,stim,false,1,536.3999999999651,2,1,0,86720,task3,164792,false,true,175,image-keyboard-response,4
true,2,2,2,2,true,d,false,true,0.0-2.0-0.3-0.33-3.33,1,0,1,68,false,stim,false,2,1095.7999999999884,2,1,2,86720,task3,167394,false,false,178,image-keyboard-response,5
true,2,2,2,0,false,q,false,false,0.0-2.0-0.3-0.34-3.34,1,0,1,68,false,stim,true,2,846.9000000000233,2,0,1,86720,task3,169746,false,false,181,image-keyboard-response,6
true,2,1,2,0,false,q,true,false,0.0-2.0-0.3-0.35-3.35,1,0,1,90,false,stim,false,2,748.2000000000116,2,0,1,86720,task3,172000,false,false,184,image-keyboard-response,7
true,2,1,2,1,true,z,false,true,0.0-2.0-0.4-0.36-3.36,1,0,1,90,false,stim,false,1,649.3999999999651,2,1,0,86720,task3,174154,false,false,187,image-keyboard-response,8
true,2,2,2,2,true,d,false,true,0.0-2.0-0.4-0.37-3.37,1,0,1,68,false,stim,false,2,670.2999999999884,2,1,2,86720,task3,176330,false,false,190,image-keyboard-response,9
true,2,0,2,0,true,q,false,true,0.0-2.0-0.4-0.38-3.38,1,0,1,81,false,stim,false,2,381.0999999999767,2,0,1,86720,task3,178218,false,false,193,image-keyboard-response,10
true,2,0,2,0,true,q,false,true,0.0-2.0-0.4-0.39-3.39,1,0,1,81,false,stim,false,2,490.5,2,0,1,86720,task3,180214,false,false,196,image-keyboard-response,11
true,2,1,2,1,true,z,false,true,0.0-2.0-0.4-0.40-3.40,1,0,1,90,false,stim,false,1,515.4000000000233,2,1,0,86720,task3,182235,false,false,199,image-keyboard-response,12
true,2,1,2,1,true,z,false,true,0.0-2.0-0.4-0.41-3.41,1,0,1,90,false,stim,false,1,558.2000000000116,2,1,0,86720,task3,184302,false,false,202,image-keyboard-response,13
true,2,2,2,2,true,d,false,true,0.0-2.0-0.4-0.42-3.42,1,0,1,68,false,stim,false,2,553.1999999999534,2,1,2,86720,task3,186361,false,false,205,image-keyboard-response,14
true,2,2,2,2,true,d,false,true,0.0-2.0-0.4-0.43-3.43,1,0,1,68,false,stim,false,2,406.19999999995343,2,1,2,86720,task3,188273,false,false,208,image-keyboard-response,15
true,2,0,2,0,true,q,false,true,0.0-2.0-0.4-0.44-3.44,1,0,1,81,false,stim,false,2,857.1999999999534,2,0,1,86720,task3,190636,false,false,211,image-keyboard-response,16
true,2,2,2,2,true,d,false,true,0.0-2.0-0.5-0.45-3.45,1,0,1,68,false,stim,false,2,599.7000000000698,2,1,2,86720,task3,192743,false,false,214,image-keyboard-response,17
true,2,2,2,2,true,d,false,true,0.0-2.0-0.5-0.46-3.46,1,0,1,68,false,stim,false,2,822.3000000000466,2,1,2,86720,task3,195071,false,false,217,image-keyboard-response,18
true,2,1,2,1,true,z,false,true,0.0-2.0-0.5-0.47-3.47,1,0,1,90,false,stim,false,1,971.6000000000931,2,1,0,86720,task3,197548,false,false,220,image-keyboard-response,19
true,2,1,2,1,true,z,false,true,0.0-2.0-0.5-0.48-3.48,1,0,1,90,false,stim,false,1,492.9000000000233,2,1,0,86720,task3,199546,false,false,223,image-keyboard-response,20
true,2,0,2,0,true,q,false,true,0.0-2.0-0.5-0.49-3.49,1,0,1,81,false,stim,false,2,813.7000000000698,2,0,1,86720,task3,201866,false,false,226,image-keyboard-response,21
true,2,2,2,2,true,d,false,true,0.0-2.0-0.5-0.50-3.50,1,0,1,68,false,stim,false,2,677.0,2,0,2,86720,task3,204050,false,false,229,image-keyboard-response,22
true,2,1,2,1,true,z,false,true,0.0-2.0-0.5-0.51-3.51,1,0,1,90,false,stim,false,1,1032.5,2,1,0,86720,task3,206588,false,false,232,image-keyboard-response,23
true,3,0,1,2,false,d,false,false,0.0-2.0-0.5-0.52-3.52,1,0,0,81,true,stim,true,0,790.5999999999767,2,0,1,86720,task3,208885,false,false,235,image-keyboard-response,1
true,3,0,1,2,false,d,false,false,0.0-2.0-0.5-0.53-3.53,1,0,0,81,false,stim,true,0,647.0,2,0,1,86720,task3,211038,false,false,238,image-keyboard-response,2
true,3,1,1,1,true,z,false,true,0.0-2.0-0.6-0.54-3.54,1,0,0,90,false,stim,false,1,730.0999999999767,2,1,0,86720,task3,213273,false,false,241,image-keyboard-response,3
true,3,2,1,0,false,q,false,false,0.0-2.0-0.6-0.55-3.55,1,0,0,68,false,stim,true,2,540.0,2,0,2,86720,task3,215320,false,false,244,image-keyboard-response,4
true,3,1,1,2,false,d,true,false,0.0-2.0-0.6-0.56-3.56,1,0,0,90,false,stim,false,0,820.5,2,0,1,86720,task3,217646,false,false,247,image-keyboard-response,5
true,3,1,1,1,true,z,false,true,0.0-2.0-0.6-0.57-3.57,1,0,0,90,false,stim,false,1,598.6000000000931,2,1,0,86720,task3,219750,false,false,250,image-keyboard-response,6
true,3,2,1,0,false,q,false,false,0.0-2.0-0.6-0.58-3.58,1,0,0,68,false,stim,true,2,444.29999999993015,2,1,2,86720,task3,221700,false,false,253,image-keyboard-response,7
true,3,1,1,1,true,z,false,true,0.0-2.0-0.6-0.59-3.59,1,0,0,90,false,stim,false,1,731.6000000000931,2,0,0,86720,task3,223938,false,false,256,image-keyboard-response,8
true,3,2,1,2,true,d,false,true,0.0-2.0-0.6-0.60-3.60,1,0,0,68,false,stim,false,0,540.0,2,1,1,86720,task3,225983,false,false,259,image-keyboard-response,9
true,3,0,1,0,true,q,false,false,0.0-2.0-0.6-0.61-3.61,1,0,0,81,false,stim,false,2,460.5,2,1,2,86720,task3,227949,false,true,262,image-keyboard-response,10
true,3,2,1,2,true,d,false,true,0.0-2.0-0.6-0.62-3.62,1,0,0,68,false,stim,false,0,895.5,2,1,1,86720,task3,230350,false,false,265,image-keyboard-response,11
true,4,1,2,0,false,q,true,false,0.0-2.0-0.7-0.63-3.63,0,1,1,90,true,stim,false,0,435.30000000004657,2,1,2,86720,task3,232293,false,false,268,image-keyboard-response,1
true,4,2,2,2,true,d,false,true,0.0-2.0-0.7-0.64-3.64,0,1,1,68,false,stim,false,2,718.3000000000466,2,1,1,86720,task3,234518,false,false,271,image-keyboard-response,2
true,4,1,2,0,false,q,true,false,0.0-2.0-0.7-0.65-3.65,0,1,1,90,false,stim,false,0,368.5,2,1,2,86720,task3,236392,false,false,274,image-keyboard-response,3
true,4,2,2,2,true,d,false,false,0.0-2.0-0.7-0.66-3.66,0,1,1,68,false,stim,false,2,664.5,2,1,1,86720,task3,238564,false,true,277,image-keyboard-response,4
true,4,2,2,2,true,d,false,true,0.0-2.0-0.7-0.67-3.67,0,1,1,68,false,stim,false,2,439.0,2,1,1,86720,task3,240511,false,false,280,image-keyboard-response,5
true,4,1,2,2,false,d,false,false,0.0-2.0-0.7-0.68-3.68,0,1,1,90,false,stim,true,1,936.6999999999534,2,0,0,86720,task3,242955,false,false,283,image-keyboard-response,6
true,4,1,2,2,false,d,false,false,0.0-2.0-0.7-0.69-3.69,0,1,1,90,false,stim,true,1,760.1999999999534,2,0,0,86720,task3,245220,false,false,286,image-keyboard-response,7
true,4,0,2,2,false,d,true,false,0.0-2.0-0.7-0.70-3.70,0,1,1,81,false,stim,false,1,485.10000000009313,2,0,0,86720,task3,247211,false,false,289,image-keyboard-response,8
true,4,0,2,0,true,q,false,true,0.0-2.0-0.7-0.71-3.71,0,1,1,81,false,stim,false,0,880.7000000000698,2,1,2,86720,task3,249599,false,false,292,image-keyboard-response,9
true,4,0,2,0,true,q,false,true,0.0-2.0-0.8-0.72-3.72,0,1,1,81,false,stim,false,0,609.5999999999767,2,1,2,86720,task3,251715,false,false,295,image-keyboard-response,10
true,4,0,2,0,true,q,false,true,0.0-2.0-0.8-0.73-3.73,0,1,1,81,false,stim,false,0,548.0,2,1,2,86720,task3,253768,false,false,298,image-keyboard-response,11
true,4,2,2,2,true,d,false,true,0.0-2.0-0.8-0.74-3.74,0,1,1,68,false,stim,false,1,473.60000000009313,2,0,0,86720,task3,255752,false,false,301,image-keyboard-response,12
true,4,2,2,2,true,d,false,true,0.0-2.0-0.8-0.75-3.75,0,1,1,68,false,stim,false,2,374.5999999999767,2,1,1,86720,task3,257633,false,false,304,image-keyboard-response,13
true,4,2,2,2,true,d,false,true,0.0-2.0-0.8-0.76-3.76,0,1,1,68,false,stim,false,1,560.1999999999534,2,0,0,86720,task3,259699,false,false,307,image-keyboard-response,14
true,4,2,2,2,true,d,false,true,0.0-2.0-0.8-0.77-3.77,0,1,1,68,false,stim,false,2,933.2999999999302,2,1,1,86720,task3,262138,false,false,310,image-keyboard-response,15
true,4,2,2,2,true,d,false,true,0.0-2.0-0.8-0.78-3.78,0,1,1,68,false,stim,false,1,432.0999999999767,2,0,0,86720,task3,264076,false,false,313,image-keyboard-response,16
true,4,0,2,0,true,q,false,true,0.0-2.0-0.8-0.79-3.79,0,1,1,81,false,stim,false,0,596.2000000000698,2,1,2,86720,task3,266178,false,false,316,image-keyboard-response,17
true,4,2,2,2,true,d,false,true,0.0-2.0-0.8-0.80-3.80,0,1,1,68,false,stim,false,2,530.2999999999302,2,1,1,86720,task3,268214,false,false,319,image-keyboard-response,18
true,4,0,2,0,true,q,false,true,0.0-2.0-0.9-0.81-3.81,0,1,1,81,false,stim,false,0,1207.3999999999069,2,1,2,86720,task3,270928,false,false,322,image-keyboard-response,19
true,4,2,2,2,true,d,false,true,0.0-2.0-0.9-0.82-3.82,0,1,1,68,false,stim,false,2,636.1000000000931,2,1,1,86720,task3,273072,false,false,325,image-keyboard-response,20
true,4,0,2,0,true,q,false,true,0.0-2.0-0.9-0.83-3.83,0,1,1,81,false,stim,false,0,680.0,2,1,2,86720,task3,275258,false,false,328,image-keyboard-response,21
true,4,2,2,2,true,d,false,true,0.0-2.0-0.9-0.84-3.84,0,1,1,68,false,stim,false,2,533.1000000000931,2,1,1,86720,task3,277298,false,false,331,image-keyboard-response,22
true,4,2,2,2,true,d,false,true,0.0-2.0-0.9-0.85-3.85,0,1,1,68,false,stim,false,2,443.19999999995343,2,1,1,86720,task3,279246,false,false,334,image-keyboard-response,23
true,4,2,2,2,true,d,false,true,0.0-2.0-0.9-0.86-3.86,0,1,1,68,false,stim,false,1,895.5999999999767,2,0,0,86720,task3,281648,false,false,337,image-keyboard-response,24
true,4,2,2,2,true,d,false,true,0.0-2.0-0.9-0.87-3.87,0,1,1,68,false,stim,false,1,596.1000000000931,2,0,0,86720,task3,283750,false,false,340,image-keyboard-response,25
true,4,2,2,0,false,q,true,false,0.0-2.0-0.9-0.88-3.88,0,1,1,68,false,stim,false,0,871.9000000000233,2,1,2,86720,task3,286128,false,false,343,image-keyboard-response,26
true,4,2,2,2,true,d,false,true,0.0-2.0-0.9-0.89-3.89,0,1,1,68,false,stim,false,1,539.5,2,0,0,86720,task3,288174,false,false,346,image-keyboard-response,27
true,5,0,2,0,true,q,false,true,0.0-2.0-0.10-0.90-3.90,0,1,1,81,true,stim,false,0,571.8000000000466,2,1,2,86720,task3,290252,false,false,349,image-keyboard-response,1
true,5,0,2,0,true,q,false,false,0.0-2.0-0.10-0.91-3.91,0,1,1,81,false,stim,false,0,386.30000000004657,2,1,2,86720,task3,292145,false,true,352,image-keyboard-response,2
true,5,0,2,0,true,q,false,true,0.0-2.0-0.10-0.92-3.92,0,1,1,81,false,stim,false,0,412.20000000006985,2,1,2,86720,task3,294063,false,false,355,image-keyboard-response,3
true,5,2,2,2,true,d,false,true,0.0-2.0-0.10-0.93-3.93,0,1,1,68,false,stim,false,2,331.80000000004657,2,1,1,86720,task3,295900,false,false,358,image-keyboard-response,4
true,5,2,2,0,false,q,false,false,0.0-2.0-0.10-0.94-3.94,0,1,1,68,false,stim,true,2,411.70000000006985,2,0,0,86720,task3,297818,false,false,361,image-keyboard-response,5
true,5,2,2,0,false,q,false,false,0.0-2.0-0.10-0.95-3.95,0,1,1,68,false,stim,true,2,359.0999999999767,2,0,0,86720,task3,299684,false,false,364,image-keyboard-response,6
true,5,2,2,2,true,d,false,true,0.0-2.0-0.10-0.96-3.96,0,1,1,68,false,stim,false,2,800.0999999999767,2,0,1,86720,task3,301991,false,false,367,image-keyboard-response,7
true,5,0,2,0,true,q,false,true,0.0-2.0-0.10-0.97-3.97,0,1,1,81,false,stim,false,2,402.4000000000233,2,1,0,86720,task3,303899,false,false,370,image-keyboard-response,8
true,5,2,2,2,true,d,false,true,0.0-2.0-0.10-0.98-3.98,0,1,1,68,false,stim,false,2,710.9000000000233,2,0,1,86720,task3,306115,false,false,373,image-keyboard-response,9
true,5,0,2,0,true,q,false,true,0.0-2.0-0.11-0.99-3.99,0,1,1,81,false,stim,false,0,661.3999999999069,2,1,2,86720,task3,308282,false,false,376,image-keyboard-response,10
true,5,0,2,0,true,q,false,true,0.0-2.0-0.11-0.100-3.100,0,1,1,81,false,stim,false,2,419.4000000000233,2,1,0,86720,task3,310207,false,false,379,image-keyboard-response,11
true,6,0,2,0,true,q,false,true,0.0-2.0-0.11-0.101-3.101,1,0,1,81,true,stim,false,0,333.0999999999767,2,1,0,86720,task3,312046,false,false,382,image-keyboard-response,1
true,6,2,2,1,false,z,false,false,0.0-2.0-0.11-0.102-3.102,1,0,1,68,false,stim,true,2,486.30000000004657,2,0,1,86720,task3,314039,false,false,385,image-keyboard-response,2
true,6,2,2,1,false,z,false,false,0.0-2.0-0.11-0.103-3.103,1,0,1,68,false,stim,true,2,796.3000000000466,2,0,1,86720,task3,316341,false,false,388,image-keyboard-response,3
true,6,0,2,0,true,q,false,true,0.0-2.0-0.11-0.104-3.104,1,0,1,81,false,stim,false,0,556.9000000000233,2,1,0,86720,task3,318405,false,false,391,image-keyboard-response,4
true,6,0,2,0,true,q,false,true,0.0-2.0-0.11-0.105-3.105,1,0,1,81,false,stim,false,0,1211.7000000000698,2,1,2,86720,task3,321123,false,false,394,image-keyboard-response,5
true,6,1,2,1,true,z,false,true,0.0-2.0-0.11-0.106-3.106,1,0,1,90,false,stim,false,2,888.3000000000466,2,0,1,86720,task3,323516,false,false,397,image-keyboard-response,6
true,6,0,2,0,true,q,false,true,0.0-2.0-0.11-0.107-3.107,1,0,1,81,false,stim,false,0,623.0,2,1,2,86720,task3,325645,false,false,400,image-keyboard-response,7
true,6,1,2,1,true,z,false,true,0.0-2.0-0.12-0.108-3.108,1,0,1,90,false,stim,false,2,628.9000000000233,2,1,1,86720,task3,327784,false,false,403,image-keyboard-response,8
true,6,1,2,1,true,z,false,true,0.0-2.0-0.12-0.109-3.109,1,0,1,90,false,stim,false,2,636.9000000000233,2,1,1,86720,task3,329927,false,false,406,image-keyboard-response,9
true,6,1,2,1,true,z,false,true,0.0-2.0-0.12-0.110-3.110,1,0,1,90,false,stim,false,2,415.70000000006985,2,1,1,86720,task3,331848,false,false,409,image-keyboard-response,10
true,6,0,2,0,true,q,false,true,0.0-2.0-0.12-0.111-3.111,1,0,1,81,false,stim,false,0,525.5999999999767,2,0,0,86720,task3,333880,false,false,412,image-keyboard-response,11
true,7,0,2,1,false,z,false,false,0.0-2.0-0.12-0.112-3.112,0,1,1,81,true,stim,true,0,396.80000000004657,2,0,0,86720,task3,335782,false,false,415,image-keyboard-response,1
true,7,0,2,0,true,q,false,false,0.0-2.0-0.12-0.113-3.113,0,1,1,81,false,stim,false,0,1328.7000000000698,2,1,2,86720,task3,338616,false,true,418,image-keyboard-response,2
true,7,0,2,1,false,z,false,false,0.0-2.0-0.12-0.114-3.114,0,1,1,81,false,stim,true,0,611.4000000000233,2,0,0,86720,task3,340734,false,false,421,image-keyboard-response,3
true,7,1,2,0,false,q,true,false,0.0-2.0-0.12-0.115-3.115,0,1,1,90,false,stim,false,0,1027.0,2,1,2,86720,task3,343268,false,false,424,image-keyboard-response,4
true,7,0,2,0,true,q,false,true,0.0-2.0-0.12-0.116-3.116,0,1,1,81,false,stim,false,0,519.4000000000233,2,1,2,86720,task3,345293,false,false,427,image-keyboard-response,5
true,7,0,2,0,true,q,false,true,0.0-2.0-0.13-0.117-3.117,0,1,1,81,false,stim,false,0,707.9000000000233,2,1,2,86720,task3,347507,false,false,430,image-keyboard-response,6
true,7,1,2,1,true,z,false,true,0.0-2.0-0.13-0.118-3.118,0,1,1,90,false,stim,false,1,545.1999999999534,2,1,1,86720,task3,349558,false,false,433,image-keyboard-response,7
true,7,2,2,1,false,z,true,false,0.0-2.0-0.13-0.119-3.119,0,1,1,68,false,stim,false,0,465.19999999995343,2,0,0,86720,task3,351529,false,false,436,image-keyboard-response,8
true,7,1,2,1,true,z,false,true,0.0-2.0-0.13-0.120-3.120,0,1,1,90,false,stim,false,1,1223.0999999999767,2,0,1,86720,task3,354259,false,false,439,image-keyboard-response,9
true,7,1,2,1,true,z,false,true,0.0-2.0-0.13-0.121-3.121,0,1,1,90,false,stim,false,0,476.5,2,1,0,86720,task3,356242,false,false,442,image-keyboard-response,10
true,7,1,2,1,true,z,false,true,0.0-2.0-0.13-0.122-3.122,0,1,1,90,false,stim,false,0,622.5,2,1,0,86720,task3,358371,false,false,445,image-keyboard-response,11
true,7,0,2,0,true,q,false,true,0.0-2.0-0.13-0.123-3.123,0,1,1,81,false,stim,false,0,457.4000000000233,2,0,2,86720,task3,360338,false,false,448,image-keyboard-response,12
true,7,0,2,0,true,q,false,true,0.0-2.0-0.13-0.124-3.124,0,1,1,81,false,stim,false,0,370.79999999993015,2,0,2,86720,task3,362215,false,false,451,image-keyboard-response,13
true,8,1,1,2,false,d,false,false,0.0-2.0-0.13-0.125-3.125,1,0,0,90,true,stim,true,1,497.30000000004657,2,0,1,86720,task3,364219,false,false,454,image-keyboard-response,1
true,8,1,1,1,true,z,false,true,0.0-2.0-0.14-0.126-3.126,1,0,0,90,false,stim,false,1,427.5999999999767,2,1,0,86720,task3,366153,false,false,457,image-keyboard-response,2
true,8,1,1,2,false,d,false,false,0.0-2.0-0.14-0.127-3.127,1,0,0,90,false,stim,true,1,422.0999999999767,2,0,1,86720,task3,368080,false,false,460,image-keyboard-response,3
true,8,0,1,1,false,z,false,false,0.0-2.0-0.14-0.128-3.128,1,0,0,81,false,stim,true,0,634.2000000000698,2,0,2,86720,task3,370220,false,false,463,image-keyboard-response,4
true,8,0,1,2,false,d,true,false,0.0-2.0-0.14-0.129-3.129,1,0,0,81,false,stim,false,1,391.30000000004657,2,0,1,86720,task3,372117,false,false,466,image-keyboard-response,5
true,8,2,1,2,true,d,false,true,0.0-2.0-0.14-0.130-3.130,1,0,0,68,false,stim,false,1,420.0,2,0,1,86720,task3,374043,false,false,469,image-keyboard-response,6
true,8,0,1,1,false,z,false,false,0.0-2.0-0.14-0.131-3.131,1,0,0,81,false,stim,true,0,759.4000000000233,2,0,2,86720,task3,376309,false,false,472,image-keyboard-response,7
true,8,1,1,1,true,z,false,true,0.0-2.0-0.14-0.132-3.132,1,0,0,90,false,stim,false,1,850.0,2,1,0,86720,task3,378664,false,false,475,image-keyboard-response,8
true,8,1,1,1,true,z,false,true,0.0-2.0-0.14-0.133-3.133,1,0,0,90,false,stim,false,0,575.3000000000466,2,0,2,86720,task3,380747,false,false,478,image-keyboard-response,9
true,8,1,1,1,true,z,false,true,0.0-2.0-0.14-0.134-3.134,1,0,0,90,false,stim,false,1,683.2999999999302,2,1,0,86720,task3,382937,false,false,481,image-keyboard-response,10
true,8,1,1,1,true,z,false,true,0.0-2.0-0.15-0.135-3.135,1,0,0,90,false,stim,false,1,648.1999999999534,2,0,0,86720,task3,385092,false,false,484,image-keyboard-response,11
true,8,1,1,1,true,z,false,true,0.0-2.0-0.15-0.136-3.136,1,0,0,90,false,stim,false,0,783.8000000000466,2,1,2,86720,task3,387381,false,false,487,image-keyboard-response,12
true,8,1,1,1,true,z,false,true,0.0-2.0-0.15-0.137-3.137,1,0,0,90,false,stim,false,0,457.5,2,1,2,86720,task3,389344,false,false,490,image-keyboard-response,13
true,8,1,1,1,true,z,false,true,0.0-2.0-0.15-0.138-3.138,1,0,0,90,false,stim,false,1,827.2000000000698,2,0,0,86720,task3,391678,false,false,493,image-keyboard-response,14
true,8,1,1,1,true,z,false,true,0.0-2.0-0.15-0.139-3.139,1,0,0,90,false,stim,false,0,920.8000000000466,2,1,2,86720,task3,394105,false,false,496,image-keyboard-response,15
true,9,2,2,2,true,d,false,true,0.0-2.0-0.15-0.140-3.140,0,1,1,68,true,stim,false,2,693.4000000000233,2,1,1,86720,task3,396304,false,false,499,image-keyboard-response,1
true,9,2,2,2,true,d,false,true,0.0-2.0-0.15-0.141-3.141,0,1,1,68,false,stim,false,2,534.3999999999069,2,1,1,86720,task3,398350,false,false,502,image-keyboard-response,2
true,9,1,2,2,false,d,false,false,0.0-2.0-0.15-0.142-3.142,0,1,1,90,false,stim,true,1,566.9000000000233,2,0,0,86720,task3,400424,false,false,505,image-keyboard-response,3
true,9,1,2,2,false,d,true,false,0.0-2.0-0.15-0.143-3.143,0,1,1,90,false,stim,false,2,445.5999999999767,2,1,1,86720,task3,402376,false,false,508,image-keyboard-response,4
true,9,1,2,2,false,d,false,false,0.0-2.0-0.16-0.144-3.144,0,1,1,90,false,stim,true,1,543.9000000000233,2,0,0,86720,task3,404426,false,false,511,image-keyboard-response,5
true,9,2,2,2,true,d,false,false,0.0-2.0-0.16-0.145-3.145,0,1,1,68,false,stim,false,2,584.2000000000698,2,1,1,86720,task3,406516,false,true,514,image-keyboard-response,6
true,9,2,2,2,true,d,false,true,0.0-2.0-0.16-0.146-3.146,0,1,1,68,false,stim,false,2,422.0,2,1,1,86720,task3,408445,false,false,517,image-keyboard-response,7
true,9,0,2,2,false,d,true,false,0.0-2.0-0.16-0.147-3.147,0,1,1,81,false,stim,false,1,631.0,2,0,0,86720,task3,410582,false,false,520,image-keyboard-response,8
true,9,2,2,2,true,d,false,true,0.0-2.0-0.16-0.148-3.148,0,1,1,68,false,stim,false,1,677.0,2,0,0,86720,task3,412765,false,false,523,image-keyboard-response,9
true,9,1,2,1,true,z,false,true,0.0-2.0-0.16-0.149-3.149,0,1,1,90,false,stim,false,1,969.5,2,1,2,86720,task3,415241,false,false,526,image-keyboard-response,10
true,9,2,2,2,true,d,false,true,0.0-2.0-0.16-0.150-3.150,0,1,1,68,false,stim,false,2,550.0999999999767,2,1,1,86720,task3,417298,false,false,529,image-keyboard-response,11
true,9,1,2,1,true,z,false,true,0.0-2.0-0.16-0.151-3.151,0,1,1,90,false,stim,false,1,574.1999999999534,2,1,2,86720,task3,419380,false,false,532,image-keyboard-response,12
true,9,1,2,1,true,z,false,true,0.0-2.0-0.16-0.152-3.152,0,1,1,90,false,stim,false,1,525.5,2,1,2,86720,task3,421411,false,false,535,image-keyboard-response,13
true,9,1,2,1,true,z,false,false,0.0-2.0-0.17-0.153-3.153,0,1,1,90,false,stim,false,1,439.10000000009313,2,1,2,86720,task3,423357,false,true,538,image-keyboard-response,14
true,9,2,2,2,true,d,false,true,0.0-2.0-0.17-0.154-3.154,0,1,1,68,false,stim,false,1,675.5,2,0,0,86720,task3,425539,false,false,541,image-keyboard-response,15
true,9,2,2,2,true,d,false,true,0.0-2.0-0.17-0.155-3.155,0,1,1,68,false,stim,false,2,619.8000000000466,2,1,1,86720,task3,427665,false,false,544,image-keyboard-response,16
true,9,1,2,1,true,z,false,false,0.0-2.0-0.17-0.156-3.156,0,1,1,90,false,stim,false,1,695.4000000000233,2,1,2,86720,task3,429866,false,true,547,image-keyboard-response,17
true,9,1,2,1,true,z,false,true,0.0-2.0-0.17-0.157-3.157,0,1,1,90,false,stim,false,1,734.9000000000233,2,1,2,86720,task3,432107,false,false,550,image-keyboard-response,18
true,9,2,2,2,true,d,false,true,0.0-2.0-0.17-0.158-3.158,0,1,1,68,false,stim,false,1,745.4000000000233,2,0,0,86720,task3,434357,false,false,553,image-keyboard-response,19
true,9,2,2,2,true,d,false,true,0.0-2.0-0.17-0.159-3.159,0,1,1,68,false,stim,false,2,742.1999999999534,2,1,1,86720,task3,436610,false,false,556,image-keyboard-response,20
true,9,2,2,2,true,d,false,true,0.0-2.0-0.17-0.160-3.160,0,1,1,68,false,stim,false,2,649.8000000000466,2,0,1,86720,task3,438766,false,false,559,image-keyboard-response,21
true,9,1,2,2,false,d,false,true,0.0-2.0-0.17-0.161-3.161,0,1,1,90,false,stim,true,1,1154.0999999999767,2,0,0,86720,task3,441426,false,true,562,image-keyboard-response,22
true,9,2,2,2,true,d,false,false,0.0-2.0-0.18-0.162-3.162,0,1,1,68,false,stim,false,2,591.7000000000698,2,0,1,86720,task3,443524,false,true,565,image-keyboard-response,23
true,9,2,2,2,true,d,false,true,0.0-2.0-0.18-0.163-3.163,0,1,1,68,false,stim,false,2,550.2000000000698,2,0,1,86720,task3,445580,false,false,568,image-keyboard-response,24
true,9,1,2,2,false,d,false,false,0.0-2.0-0.18-0.164-3.164,0,1,1,90,false,stim,true,1,701.2999999999302,2,0,0,86720,task3,447788,false,false,571,image-keyboard-response,25
true,10,1,1,0,false,q,true,false,0.0-2.0-0.18-0.165-3.165,0,0,1,90,true,stim,false,2,1451.5999999999767,2,0,0,86720,task3,450745,false,false,574,image-keyboard-response,1
true,10,1,1,1,true,z,false,false,0.0-2.0-0.18-0.166-3.166,0,0,1,90,false,stim,false,1,1255.5,2,1,2,86720,task3,453508,false,true,577,image-keyboard-response,2
true,10,2,1,1,false,z,true,false,0.0-2.0-0.18-0.167-3.167,0,0,1,68,false,stim,false,1,906.0999999999767,2,1,2,86720,task3,455920,false,false,580,image-keyboard-response,3
true,10,2,1,0,false,q,false,true,0.0-2.0-0.18-0.168-3.168,0,0,1,68,false,stim,true,2,817.4000000000233,2,0,1,86720,task3,458243,false,true,583,image-keyboard-response,4
true,10,2,1,1,false,z,true,true,0.0-2.0-0.18-0.169-3.169,0,0,1,68,false,stim,false,1,1035.4000000000233,2,1,2,86720,task3,460784,false,true,586,image-keyboard-response,5
true,10,0,1,0,true,q,false,true,0.0-2.0-0.18-0.170-3.170,0,0,1,81,false,stim,false,2,970.3000000000466,2,0,0,86720,task3,463261,false,false,589,image-keyboard-response,6
true,10,2,1,0,false,q,false,false,0.0-2.0-0.19-0.171-3.171,0,0,1,68,false,stim,true,2,1073.5,2,0,1,86720,task3,465841,false,false,592,image-keyboard-response,7
true,10,2,1,0,false,q,false,false,0.0-2.0-0.19-0.172-3.172,0,0,1,68,false,stim,true,2,654.7999999999302,2,0,1,86720,task3,468002,false,false,595,image-keyboard-response,8
true,10,1,1,1,true,z,false,true,0.0-2.0-0.19-0.173-3.173,0,0,1,90,false,stim,false,1,651.4000000000233,2,1,2,86720,task3,470159,false,false,598,image-keyboard-response,9
true,10,1,1,1,true,z,false,true,0.0-2.0-0.19-0.174-3.174,0,0,1,90,false,stim,false,1,497.4000000000233,2,1,2,86720,task3,472169,false,false,601,image-keyboard-response,10
true,10,0,1,0,true,q,false,true,0.0-2.0-0.19-0.175-3.175,0,0,1,81,false,stim,false,2,680.7000000000698,2,0,0,86720,task3,474356,false,false,604,image-keyboard-response,11
true,10,0,1,0,true,q,false,true,0.0-2.0-0.19-0.176-3.176,0,0,1,81,false,stim,false,2,550.9000000000233,2,0,0,86720,task3,476413,false,false,607,image-keyboard-response,12
true,10,0,1,0,true,q,false,true,0.0-2.0-0.19-0.177-3.177,0,0,1,81,false,stim,false,2,679.5999999999767,2,0,0,86720,task3,478598,false,false,610,image-keyboard-response,13
true,10,2,1,0,false,q,false,false,0.0-2.0-0.19-0.178-3.178,0,0,1,68,false,stim,true,2,855.4000000000233,2,0,1,86720,task3,480960,false,false,613,image-keyboard-response,14
true,10,1,1,1,true,z,false,true,0.0-2.0-0.19-0.179-3.179,0,0,1,90,false,stim,false,1,622.7999999999302,2,1,2,86720,task3,483092,false,false,616,image-keyboard-response,15
true,10,1,1,1,true,z,false,true,0.0-2.0-0.20-0.180-3.180,0,0,1,90,false,stim,false,1,491.39999999990687,2,1,2,86720,task3,485090,false,false,619,image-keyboard-response,16
true,10,0,1,0,true,q,false,true,0.0-2.0-0.20-0.181-3.181,0,0,1,81,false,stim,false,2,557.0,2,0,0,86720,task3,487153,false,false,622,image-keyboard-response,17
true,10,1,1,1,true,z,false,true,0.0-2.0-0.20-0.182-3.182,0,0,1,90,false,stim,false,1,692.8000000000466,2,1,2,86720,task3,489353,false,false,625,image-keyboard-response,18
true,10,0,1,0,true,q,false,true,0.0-2.0-0.20-0.183-3.183,0,0,1,81,false,stim,false,2,600.3000000000466,2,0,0,86720,task3,491460,false,false,628,image-keyboard-response,19
true,10,0,1,0,true,q,false,true,0.0-2.0-0.20-0.184-3.184,0,0,1,81,false,stim,false,2,599.5,2,0,0,86720,task3,493565,false,false,631,image-keyboard-response,20
true,10,0,1,0,true,q,false,true,0.0-2.0-0.20-0.185-3.185,0,0,1,81,false,stim,false,2,717.8000000000466,2,0,1,86720,task3,495789,false,false,634,image-keyboard-response,21
true,10,1,1,1,true,z,false,false,0.0-2.0-0.20-0.186-3.186,0,0,1,90,false,stim,false,1,587.2999999999302,2,1,2,86720,task3,497883,false,true,637,image-keyboard-response,22
true,10,0,1,0,true,q,false,true,0.0-2.0-0.20-0.187-3.187,0,0,1,81,false,stim,false,2,562.6999999999534,2,0,1,86720,task3,499951,false,false,640,image-keyboard-response,23
true,10,0,1,0,true,q,false,true,0.0-2.0-0.20-0.188-3.188,0,0,1,81,false,stim,false,2,601.8000000000466,2,0,1,86720,task3,502059,false,false,643,image-keyboard-response,24
true,10,0,1,0,true,q,false,true,0.0-2.0-0.21-0.189-3.189,0,0,1,81,false,stim,false,2,1079.9000000000233,2,0,1,86720,task3,504647,false,false,646,image-keyboard-response,25
true,10,0,1,0,true,q,false,true,0.0-2.0-0.21-0.190-3.190,0,0,1,81,false,stim,false,2,626.0999999999767,2,0,1,86720,task3,506780,false,false,649,image-keyboard-response,26
true,10,2,1,1,false,z,true,false,0.0-2.0-0.21-0.191-3.191,0,0,1,68,false,stim,false,1,883.8000000000466,2,1,2,86720,task3,509170,false,false,652,image-keyboard-response,27
true,10,0,1,0,true,q,false,true,0.0-2.0-0.21-0.192-3.192,0,0,1,81,false,stim,false,2,1260.0,2,1,0,86720,task3,511936,false,false,655,image-keyboard-response,28
true,10,0,1,0,true,q,false,true,0.0-2.0-0.21-0.193-3.193,0,0,1,81,false,stim,false,2,608.5,2,1,0,86720,task3,514053,false,false,658,image-keyboard-response,29
true,11,0,2,2,false,d,false,false,0.0-2.0-0.21-0.194-3.194,1,0,1,81,true,stim,true,0,642.6999999999534,2,0,1,86720,task3,516201,false,false,661,image-keyboard-response,1
true,11,1,2,1,true,z,false,true,0.0-2.0-0.21-0.195-3.195,1,0,1,90,false,stim,false,1,404.1999999998952,2,1,2,86720,task3,518113,false,false,664,image-keyboard-response,2
true,11,0,2,0,true,q,false,true,0.0-2.0-0.21-0.196-3.196,1,0,1,81,false,stim,false,0,614.7999999998137,2,1,0,86720,task3,520234,false,false,667,image-keyboard-response,3
true,11,1,2,1,true,z,false,true,0.0-2.0-0.21-0.197-3.197,1,0,1,90,false,stim,false,1,738.6000000000931,2,1,2,86720,task3,522479,false,false,670,image-keyboard-response,4
true,11,0,2,0,true,q,false,true,0.0-2.0-0.22-0.198-3.198,1,0,1,81,false,stim,false,0,937.3999999999069,2,1,0,86720,task3,524925,false,false,673,image-keyboard-response,5
true,11,0,2,0,true,q,false,true,0.0-2.0-0.22-0.199-3.199,1,0,1,81,false,stim,false,0,464.69999999995343,2,1,0,86720,task3,526895,false,false,676,image-keyboard-response,6
true,11,0,2,0,true,q,false,true,0.0-2.0-0.22-0.200-3.200,1,0,1,81,false,stim,false,0,587.8000000000466,2,1,0,86720,task3,528990,false,false,679,image-keyboard-response,7
true,11,0,2,2,false,d,false,false,0.0-2.0-0.22-0.201-3.201,1,0,1,81,false,stim,true,0,753.8000000000466,2,0,1,86720,task3,531250,false,false,682,image-keyboard-response,8
true,11,1,2,1,true,z,false,true,0.0-2.0-0.22-0.202-3.202,1,0,1,90,false,stim,false,1,424.39999999990687,2,1,2,86720,task3,533181,false,false,685,image-keyboard-response,9
true,11,0,2,2,false,d,false,false,0.0-2.0-0.22-0.203-3.203,1,0,1,81,false,stim,true,0,629.1000000000931,2,0,1,86720,task3,535316,false,false,688,image-keyboard-response,10
true,11,1,2,1,true,z,false,false,0.0-2.0-0.22-0.204-3.204,1,0,1,90,false,stim,false,1,667.6999999999534,2,1,2,86720,task3,537491,false,true,691,image-keyboard-response,11
true,11,1,2,1,true,z,false,true,0.0-2.0-0.22-0.205-3.205,1,0,1,90,false,stim,false,1,559.8000000000466,2,1,2,86720,task3,539558,false,false,694,image-keyboard-response,12
true,11,0,2,2,false,d,false,true,0.0-2.0-0.22-0.206-3.206,1,0,1,81,false,stim,true,0,1500.8000000000466,2,0,1,86720,task3,542565,false,true,697,image-keyboard-response,13
true,11,0,2,2,false,d,false,false,0.0-2.0-0.23-0.207-3.207,1,0,1,81,false,stim,true,0,477.5999999998603,2,0,1,86720,task3,544551,false,false,700,image-keyboard-response,14
true,11,1,2,1,true,z,false,true,0.0-2.0-0.23-0.208-3.208,1,0,1,90,false,stim,false,1,1316.0,2,1,2,86720,task3,547384,false,false,703,image-keyboard-response,15
true,11,0,2,0,true,q,false,true,0.0-2.0-0.23-0.209-3.209,1,0,1,81,false,stim,false,0,623.7999999998137,2,1,0,86720,task3,549514,false,false,706,image-keyboard-response,16
true,11,0,2,2,false,d,false,false,0.0-2.0-0.23-0.210-3.210,1,0,1,81,false,stim,true,0,1138.6999999999534,2,0,1,86720,task3,552159,false,false,709,image-keyboard-response,17
true,11,1,2,1,true,z,false,true,0.0-2.0-0.23-0.211-3.211,1,0,1,90,false,stim,false,1,604.6999999999534,2,1,2,86720,task3,554270,false,false,712,image-keyboard-response,18
true,11,0,2,0,true,q,false,true,0.0-2.0-0.23-0.212-3.212,1,0,1,81,false,stim,false,0,718.5,2,1,0,86720,task3,556495,false,false,715,image-keyboard-response,19
true,11,0,2,2,false,d,false,false,0.0-2.0-0.23-0.213-3.213,1,0,1,81,false,stim,true,0,1384.7999999998137,2,0,1,86720,task3,559386,false,false,718,image-keyboard-response,20
true,11,0,2,0,true,q,false,true,0.0-2.0-0.23-0.214-3.214,1,0,1,81,false,stim,false,0,1357.3000000000466,2,1,0,86720,task3,562252,false,false,721,image-keyboard-response,21
true,11,1,2,1,true,z,false,true,0.0-2.0-0.23-0.215-3.215,1,0,1,90,false,stim,false,1,599.3999999999069,2,0,2,86720,task3,564361,false,false,724,image-keyboard-response,22
true,11,0,2,2,false,d,false,false,0.0-2.0-0.24-0.216-3.216,1,0,1,81,false,stim,true,0,573.0999999998603,2,0,1,86720,task3,566443,false,false,727,image-keyboard-response,23
true,12,0,1,0,true,q,false,true,0.0-2.0-0.24-0.217-3.217,1,0,0,81,true,stim,false,2,409.89999999990687,2,0,1,86720,task3,568359,false,false,730,image-keyboard-response,1
true,12,1,1,2,false,d,false,false,0.0-2.0-0.24-0.218-3.218,1,0,0,90,false,stim,true,1,720.3999999999069,2,0,2,86720,task3,570585,false,false,733,image-keyboard-response,2
true,12,1,1,2,false,d,false,false,0.0-2.0-0.24-0.219-3.219,1,0,0,90,false,stim,true,1,600.6999999999534,2,0,2,86720,task3,572692,false,false,736,image-keyboard-response,3
true,12,0,1,0,true,q,false,false,0.0-2.0-0.24-0.220-3.220,1,0,0,81,false,stim,false,0,1236.4000000001397,2,1,0,86720,task3,575434,false,true,739,image-keyboard-response,4
true,12,2,1,0,false,q,true,false,0.0-2.0-0.24-0.221-3.221,1,0,0,68,false,stim,false,0,1571.7000000001863,2,1,0,86720,task3,578512,false,false,742,image-keyboard-response,5
true,12,2,1,2,true,d,false,true,0.0-2.0-0.24-0.222-3.222,1,0,0,68,false,stim,false,1,1770.3999999999069,2,0,2,86720,task3,581790,false,false,745,image-keyboard-response,6
true,12,0,1,0,true,q,false,true,0.0-2.0-0.24-0.223-3.223,1,0,0,81,false,stim,false,2,2442.0999999998603,2,0,1,86720,task3,585739,false,false,748,image-keyboard-response,7
true,12,1,1,0,false,q,true,false,0.0-2.0-0.24-0.224-3.224,1,0,0,90,false,stim,false,0,794.1999999999534,2,1,0,86720,task3,588043,false,false,751,image-keyboard-response,8
true,12,2,1,2,true,d,false,true,0.0-2.0-0.25-0.225-3.225,1,0,0,68,false,stim,false,1,688.0,2,0,2,86720,task3,590237,false,false,754,image-keyboard-response,9
true,12,0,1,0,true,q,false,true,0.0-2.0-0.25-0.226-3.226,1,0,0,81,false,stim,false,2,564.6999999999534,2,0,1,86720,task3,592308,false,false,757,image-keyboard-response,10
true,12,0,1,0,true,q,false,true,0.0-2.0-0.25-0.227-3.227,1,0,0,81,false,stim,false,2,558.5,2,0,1,86720,task3,594374,false,false,760,image-keyboard-response,11
true,12,2,1,0,false,q,true,false,0.0-2.0-0.25-0.228-3.228,1,0,0,68,false,stim,false,0,801.0999999998603,2,1,0,86720,task3,596683,false,false,763,image-keyboard-response,12
true,12,1,1,0,false,q,true,false,0.0-2.0-0.25-0.229-3.229,1,0,0,90,false,stim,false,0,1486.4000000001397,2,1,0,86720,task3,599679,false,false,766,image-keyboard-response,13
true,12,2,1,2,true,d,false,true,0.0-2.0-0.25-0.230-3.230,1,0,0,68,false,stim,false,1,2485.1999999999534,2,0,2,86720,task3,603671,false,false,769,image-keyboard-response,14
true,12,0,1,0,true,q,false,true,0.0-2.0-0.25-0.231-3.231,1,0,0,81,false,stim,false,2,1145.8000000000466,2,0,1,86720,task3,606325,false,false,772,image-keyboard-response,15
true,12,2,1,2,true,d,false,true,0.0-2.0-0.25-0.232-3.232,1,0,0,68,false,stim,false,1,769.1000000000931,2,0,2,86720,task3,608600,false,false,775,image-keyboard-response,16
true,12,2,1,0,false,q,true,false,0.0-2.0-0.25-0.233-3.233,1,0,0,68,false,stim,false,0,1020.0,2,1,0,86720,task3,611129,false,false,778,image-keyboard-response,17
true,12,0,1,0,true,q,false,true,0.0-2.0-0.26-0.234-3.234,1,0,0,81,false,stim,false,2,1245.5,2,0,1,86720,task3,613881,false,false,781,image-keyboard-response,18
true,12,0,1,2,false,d,true,false,0.0-2.0-0.26-0.235-3.235,1,0,0,81,false,stim,false,1,2633.399999999907,2,0,2,86720,task3,618022,false,false,784,image-keyboard-response,19
true,12,1,1,0,false,q,true,false,0.0-2.0-0.26-0.236-3.236,1,0,0,90,false,stim,false,0,2066.2000000001863,2,1,0,86720,task3,621597,false,false,787,image-keyboard-response,20
true,12,0,1,2,false,d,true,true,0.0-2.0-0.26-0.237-3.237,1,0,0,81,false,stim,false,1,572.6000000000931,2,0,2,86720,task3,623679,false,true,790,image-keyboard-response,21
true,12,0,1,0,true,q,false,false,0.0-2.0-0.26-0.238-3.238,1,0,0,81,false,stim,false,0,1439.8000000000466,2,1,0,86720,task3,626626,false,true,793,image-keyboard-response,22
true,12,0,1,0,true,q,false,true,0.0-2.0-0.26-0.239-3.239,1,0,0,81,false,stim,false,2,727.2000000001863,2,0,1,86720,task3,628862,false,false,796,image-keyboard-response,23
true,12,0,1,0,true,q,false,true,0.0-2.0-0.26-0.240-3.240,1,0,0,81,false,stim,false,2,499.30000000004657,2,1,1,86720,task3,630868,false,false,799,image-keyboard-response,24
true,12,2,1,2,true,d,false,true,0.0-2.0-0.26-0.241-3.241,1,0,0,68,false,stim,false,1,1234.5999999998603,2,0,2,86720,task3,633623,false,false,802,image-keyboard-response,25
true,12,0,1,0,true,q,false,false,0.0-2.0-0.26-0.242-3.242,1,0,0,81,false,stim,false,0,751.0,2,0,0,86720,task3,635883,false,true,805,image-keyboard-response,26
true,12,0,1,0,true,q,false,true,0.0-2.0-0.27-0.243-3.243,1,0,0,81,false,stim,false,2,678.5,2,1,1,86720,task3,638069,false,false,808,image-keyboard-response,27
true,12,0,1,0,true,q,false,true,0.0-2.0-0.27-0.244-3.244,1,0,0,81,false,stim,false,2,837.8999999999069,2,1,1,86720,task3,640413,false,false,811,image-keyboard-response,28
true,13,0,1,2,false,d,false,false,0.0-2.0-0.27-0.245-3.245,0,1,0,81,true,stim,true,0,1641.6999999999534,2,0,0,86720,task3,643566,false,false,814,image-keyboard-response,1
true,13,1,1,2,false,d,true,false,0.0-2.0-0.27-0.246-3.246,0,1,0,90,false,stim,false,0,1050.9000000001397,2,0,0,86720,task3,646125,false,false,817,image-keyboard-response,2
true,13,0,1,0,true,q,false,true,0.0-2.0-0.27-0.247-3.247,0,1,0,81,false,stim,false,0,1270.0,2,1,1,86720,task3,648902,false,false,820,image-keyboard-response,3
true,13,2,1,1,false,z,false,false,0.0-2.0-0.27-0.248-3.248,0,1,0,68,false,stim,true,2,744.3999999999069,2,0,2,86720,task3,651155,false,false,823,image-keyboard-response,4
true,13,1,1,1,true,z,false,true,0.0-2.0-0.27-0.249-3.249,0,1,0,90,false,stim,false,2,636.8000000000466,2,0,2,86720,task3,653299,false,false,826,image-keyboard-response,5
true,13,2,1,2,true,d,false,true,0.0-2.0-0.27-0.250-3.250,0,1,0,68,false,stim,false,0,443.29999999981374,2,0,0,86720,task3,655249,false,false,829,image-keyboard-response,6
true,13,1,1,1,true,z,false,true,0.0-2.0-0.27-0.251-3.251,0,1,0,90,false,stim,false,2,569.1000000000931,2,0,2,86720,task3,657325,false,false,832,image-keyboard-response,7
true,13,0,1,0,true,q,false,true,0.0-2.0-0.28-0.252-3.252,0,1,0,81,false,stim,false,0,688.0,2,1,1,86720,task3,659520,false,false,835,image-keyboard-response,8
true,13,0,1,0,true,q,false,false,0.0-2.0-0.28-0.253-3.253,0,1,0,81,false,stim,false,0,489.80000000004657,2,1,1,86720,task3,661519,false,true,838,image-keyboard-response,9
true,13,0,1,0,true,q,false,true,0.0-2.0-0.28-0.254-3.254,0,1,0,81,false,stim,false,0,417.39999999990687,2,1,1,86720,task3,663444,false,false,841,image-keyboard-response,10
true,13,1,1,2,false,d,true,false,0.0-2.0-0.28-0.255-3.255,0,1,0,90,false,stim,false,0,944.0,2,0,0,86720,task3,665895,false,false,844,image-keyboard-response,11
true,13,2,1,1,false,z,false,false,0.0-2.0-0.28-0.256-3.256,0,1,0,68,false,stim,true,2,789.8999999999069,2,0,2,86720,task3,668192,false,false,847,image-keyboard-response,12
true,13,1,1,1,true,z,false,true,0.0-2.0-0.28-0.257-3.257,0,1,0,90,false,stim,false,2,696.1000000000931,2,0,2,86720,task3,670395,false,false,850,image-keyboard-response,13
true,13,2,1,2,true,d,false,false,0.0-2.0-0.28-0.258-3.258,0,1,0,68,false,stim,false,0,428.4000000001397,2,0,0,86720,task3,672332,false,true,853,image-keyboard-response,14
true,13,2,1,2,true,d,false,true,0.0-2.0-0.28-0.259-3.259,0,1,0,68,false,stim,false,0,398.9000000001397,2,0,0,86720,task3,674238,false,false,856,image-keyboard-response,15
true,13,1,1,1,true,z,false,true,0.0-2.0-0.28-0.260-3.260,0,1,0,90,false,stim,false,2,465.5,2,0,2,86720,task3,676211,false,false,859,image-keyboard-response,16
true,13,0,1,0,true,q,false,true,0.0-2.0-0.29-0.261-3.261,0,1,0,81,false,stim,false,0,696.3000000000466,2,1,1,86720,task3,678414,false,false,862,image-keyboard-response,17
true,13,2,1,2,true,d,false,true,0.0-2.0-0.29-0.262-3.262,0,1,0,68,false,stim,false,0,708.3999999999069,2,1,0,86720,task3,680632,false,false,865,image-keyboard-response,18
true,13,2,1,2,true,d,false,true,0.0-2.0-0.29-0.263-3.263,0,1,0,68,false,stim,false,0,1070.4000000001397,2,1,0,86720,task3,683210,false,false,868,image-keyboard-response,19
true,13,1,1,1,true,z,false,true,0.0-2.0-0.29-0.264-3.264,0,1,0,90,false,stim,false,2,657.1999999999534,2,0,2,86720,task3,685374,false,false,871,image-keyboard-response,20
true,13,1,1,1,true,z,false,true,0.0-2.0-0.29-0.265-3.265,0,1,0,90,false,stim,false,2,432.10000000009313,2,0,2,86720,task3,687313,false,false,874,image-keyboard-response,21
true,13,0,1,0,true,q,false,false,0.0-2.0-0.29-0.266-3.266,0,1,0,81,false,stim,false,0,361.5999999998603,2,1,1,86720,task3,689182,false,true,877,image-keyboard-response,22
true,14,0,2,0,true,q,false,true,0.0-2.0-0.29-0.267-3.267,1,1,0,81,true,stim,false,0,373.39999999990687,2,1,1,86720,task3,691069,false,false,880,image-keyboard-response,1
true,14,1,2,2,false,d,false,false,0.0-2.0-0.29-0.268-3.268,1,1,0,90,false,stim,true,1,1098.4000000001397,2,0,2,86720,task3,693675,false,false,883,image-keyboard-response,2
true,14,2,2,2,true,d,false,true,0.0-2.0-0.29-0.269-3.269,1,1,0,68,false,stim,false,2,1457.0,2,1,0,86720,task3,696638,false,false,886,image-keyboard-response,3
true,14,0,2,0,true,q,false,true,0.0-2.0-0.30-0.270-3.270,1,1,0,81,false,stim,false,0,659.1000000000931,2,1,1,86720,task3,698806,false,false,889,image-keyboard-response,4
true,14,1,2,2,false,d,false,false,0.0-2.0-0.30-0.271-3.271,1,1,0,90,false,stim,true,1,494.60000000009313,2,0,2,86720,task3,700808,false,false,892,image-keyboard-response,5
true,14,2,2,2,true,d,false,true,0.0-2.0-0.30-0.272-3.272,1,1,0,68,false,stim,false,2,874.6000000000931,2,1,0,86720,task3,703190,false,false,895,image-keyboard-response,6
true,14,0,2,0,true,q,false,true,0.0-2.0-0.30-0.273-3.273,1,1,0,81,false,stim,false,0,643.4000000001397,2,1,1,86720,task3,705343,false,false,898,image-keyboard-response,7
true,14,0,2,2,false,d,true,false,0.0-2.0-0.30-0.274-3.274,1,1,0,81,false,stim,false,1,1158.0,2,0,2,86720,task3,708018,false,false,901,image-keyboard-response,8
true,14,2,2,2,true,d,false,true,0.0-2.0-0.30-0.275-3.275,1,1,0,68,false,stim,false,2,1297.1999999999534,2,1,0,86720,task3,710824,false,false,904,image-keyboard-response,9
true,14,2,2,0,false,q,true,false,0.0-2.0-0.30-0.276-3.276,1,1,0,68,false,stim,false,0,1039.8999999999069,2,1,1,86720,task3,713373,false,false,907,image-keyboard-response,10
true,14,2,2,2,true,d,false,false,0.0-2.0-0.30-0.277-3.277,1,1,0,68,false,stim,false,2,769.6999999999534,2,1,0,86720,task3,715649,false,true,910,image-keyboard-response,11
true,14,2,2,2,true,d,false,false,0.0-2.0-0.30-0.278-3.278,1,1,0,68,false,stim,false,1,1767.7000000001863,2,0,2,86720,task3,718989,false,true,913,image-keyboard-response,12
true,14,0,2,0,true,q,false,true,0.0-2.0-0.31-0.279-3.279,1,1,0,81,false,stim,false,0,1074.2000000001863,2,1,1,86720,task3,721574,false,false,916,image-keyboard-response,13
true,14,1,2,2,false,d,false,false,0.0-2.0-0.31-0.280-3.280,1,1,0,90,false,stim,true,1,601.6999999999534,2,0,2,86720,task3,723684,false,false,919,image-keyboard-response,14
true,14,0,2,0,true,q,false,true,0.0-2.0-0.31-0.281-3.281,1,1,0,81,false,stim,false,0,722.1999999999534,2,1,1,86720,task3,725914,false,false,922,image-keyboard-response,15
true,14,1,2,2,false,d,true,false,0.0-2.0-0.31-0.282-3.282,1,1,0,90,false,stim,false,2,1537.6000000000931,2,1,0,86720,task3,728959,false,false,925,image-keyboard-response,16
true,14,0,2,0,true,q,false,true,0.0-2.0-0.31-0.283-3.283,1,1,0,81,false,stim,false,0,626.0999999998603,2,1,1,86720,task3,731093,false,false,928,image-keyboard-response,17
true,14,2,2,2,true,d,false,true,0.0-2.0-0.31-0.284-3.284,1,1,0,68,false,stim,false,2,485.19999999995343,2,1,0,86720,task3,733086,false,false,931,image-keyboard-response,18
true,14,2,2,2,true,d,false,true,0.0-2.0-0.31-0.285-3.285,1,1,0,68,false,stim,false,2,462.0999999998603,2,1,0,86720,task3,735056,false,false,934,image-keyboard-response,19
true,14,0,2,2,false,d,true,false,0.0-2.0-0.31-0.286-3.286,1,1,0,81,false,stim,false,1,856.6000000000931,2,0,2,86720,task3,737420,false,false,937,image-keyboard-response,20
true,14,0,2,2,false,d,true,false,0.0-2.0-0.31-0.287-3.287,1,1,0,81,false,stim,false,1,621.4000000001397,2,0,2,86720,task3,739549,false,false,940,image-keyboard-response,21
true,14,2,2,2,true,d,false,true,0.0-2.0-0.32-0.288-3.288,1,1,0,68,false,stim,false,2,771.5,2,0,0,86720,task3,741828,false,false,943,image-keyboard-response,22
true,14,2,2,2,true,d,false,true,0.0-2.0-0.32-0.289-3.289,1,1,0,68,false,stim,false,1,419.5,2,0,2,86720,task3,743755,false,false,946,image-keyboard-response,23
true,14,2,2,2,true,d,false,true,0.0-2.0-0.32-0.290-3.290,1,1,0,68,false,stim,false,2,735.3000000000466,2,0,0,86720,task3,745998,false,false,949,image-keyboard-response,24
true,14,0,2,0,true,q,false,true,0.0-2.0-0.32-0.291-3.291,1,1,0,81,false,stim,false,0,582.0,2,1,1,86720,task3,748088,false,false,952,image-keyboard-response,25
true,14,2,2,2,true,d,false,false,0.0-2.0-0.32-0.292-3.292,1,1,0,68,false,stim,false,1,580.1999999999534,2,0,2,86720,task3,750175,false,true,955,image-keyboard-response,26
true,15,2,1,1,false,z,false,true,0.0-2.0-0.32-0.293-3.293,0,1,0,68,true,stim,true,2,1316.3000000000466,2,0,0,86720,task3,753001,false,true,958,image-keyboard-response,1
true,15,0,1,0,true,q,false,true,0.0-2.0-0.32-0.294-3.294,0,1,0,81,false,stim,false,0,946.5,2,1,1,86720,task3,755456,false,false,961,image-keyboard-response,2
true,15,0,1,0,true,q,false,true,0.0-2.0-0.32-0.295-3.295,0,1,0,81,false,stim,false,0,478.30000000004657,2,1,1,86720,task3,757442,false,false,964,image-keyboard-response,3
true,15,2,1,1,false,z,false,false,0.0-2.0-0.32-0.296-3.296,0,1,0,68,false,stim,true,2,537.5,2,0,2,86720,task3,759487,false,false,967,image-keyboard-response,4
true,15,2,1,1,false,z,false,false,0.0-2.0-0.33-0.297-3.297,0,1,0,68,false,stim,true,2,1069.3000000000466,2,0,0,86720,task3,762065,false,false,970,image-keyboard-response,5
true,15,2,1,1,false,z,false,false,0.0-2.0-0.33-0.298-3.298,0,1,0,68,false,stim,true,2,428.19999999995343,2,0,0,86720,task3,764001,false,false,973,image-keyboard-response,6
true,15,2,1,1,false,z,false,true,0.0-2.0-0.33-0.299-3.299,0,1,0,68,false,stim,true,2,1143.3000000000466,2,0,2,86720,task3,766651,false,true,976,image-keyboard-response,7
true,15,1,1,1,true,z,false,true,0.0-2.0-0.33-0.300-3.300,0,1,0,90,false,stim,false,2,443.0,2,0,0,86720,task3,768603,false,false,979,image-keyboard-response,8
true,15,0,1,0,true,q,false,true,0.0-2.0-0.33-0.301-3.301,0,1,0,81,false,stim,false,0,426.29999999981374,2,1,1,86720,task3,770537,false,false,982,image-keyboard-response,9
true,15,2,1,1,false,z,false,false,0.0-2.0-0.33-0.302-3.302,0,1,0,68,false,stim,true,2,617.3999999999069,2,0,2,86720,task3,772662,false,false,985,image-keyboard-response,10
true,15,0,1,0,true,q,false,false,0.0-2.0-0.33-0.303-3.303,0,1,0,81,false,stim,false,0,667.8000000000466,2,1,1,86720,task3,774837,false,true,988,image-keyboard-response,11
true,15,2,1,1,false,z,false,false,0.0-2.0-0.33-0.304-3.304,0,1,0,68,false,stim,true,2,405.80000000004657,2,0,2,86720,task3,776751,false,false,991,image-keyboard-response,12
true,15,0,1,0,true,q,false,true,0.0-2.0-0.33-0.305-3.305,0,1,0,81,false,stim,false,0,637.0,2,1,1,86720,task3,778895,false,false,994,image-keyboard-response,13
true,15,1,1,1,true,z,false,true,0.0-2.0-0.34-0.306-3.306,0,1,0,90,false,stim,false,2,906.0,2,0,2,86720,task3,781308,false,false,997,image-keyboard-response,14
true,15,1,1,1,true,z,false,true,0.0-2.0-0.34-0.307-3.307,0,1,0,90,false,stim,false,2,434.39999999990687,2,0,0,86720,task3,783253,false,false,1000,image-keyboard-response,15
true,15,1,1,1,true,z,false,true,0.0-2.0-0.34-0.308-3.308,0,1,0,90,false,stim,false,2,651.1000000000931,2,0,2,86720,task3,785460,false,false,1003,image-keyboard-response,16
true,15,0,1,0,true,q,false,true,0.0-2.0-0.34-0.309-3.309,0,1,0,81,false,stim,false,0,648.0,2,1,1,86720,task3,787616,false,false,1006,image-keyboard-response,17
true,15,1,1,1,true,z,false,true,0.0-2.0-0.34-0.310-3.310,0,1,0,90,false,stim,false,2,697.4000000001397,2,0,2,86720,task3,789820,false,false,1009,image-keyboard-response,18
true,15,0,1,0,true,q,false,false,0.0-2.0-0.34-0.311-3.311,0,1,0,81,false,stim,false,0,789.5,2,1,1,86720,task3,792117,false,true,1012,image-keyboard-response,19
true,15,1,1,1,true,z,false,true,0.0-2.0-0.34-0.312-3.312,0,1,0,90,false,stim,false,2,534.5999999998603,2,0,0,86720,task3,794159,false,false,1015,image-keyboard-response,20
true,15,1,1,1,true,z,false,false,0.0-2.0-0.34-0.313-3.313,0,1,0,90,false,stim,false,2,588.5999999998603,2,1,0,86720,task3,796256,false,true,1018,image-keyboard-response,21
true,15,0,1,0,true,q,false,true,0.0-2.0-0.34-0.314-3.314,0,1,0,81,false,stim,false,0,625.6000000000931,2,1,1,86720,task3,798389,false,false,1021,image-keyboard-response,22
true,15,1,1,1,true,z,false,true,0.0-2.0-0.35-0.315-3.315,0,1,0,90,false,stim,false,2,590.5999999998603,2,0,2,86720,task3,800490,false,false,1024,image-keyboard-response,23
true,15,1,1,1,true,z,false,true,0.0-2.0-0.35-0.316-3.316,0,1,0,90,false,stim,false,2,440.19999999995343,2,0,2,86720,task3,802437,false,false,1027,image-keyboard-response,24
true,15,0,1,0,true,q,false,true,0.0-2.0-0.35-0.317-3.317,0,1,0,81,false,stim,false,0,511.39999999990687,2,1,1,86720,task3,804455,false,false,1030,image-keyboard-response,25
true,16,1,2,1,true,z,false,true,0.0-2.0-0.35-0.318-3.318,1,1,0,90,true,stim,false,1,616.1999999999534,2,1,0,86720,task3,806580,false,false,1033,image-keyboard-response,1
true,16,0,2,0,true,q,false,true,0.0-2.0-0.35-0.319-3.319,1,1,0,81,false,stim,false,0,618.6000000000931,2,1,1,86720,task3,808706,false,false,1036,image-keyboard-response,2
true,16,0,2,0,true,q,false,true,0.0-2.0-0.35-0.320-3.320,1,1,0,81,false,stim,false,0,452.4000000001397,2,1,1,86720,task3,810666,false,false,1039,image-keyboard-response,3
true,16,1,2,1,true,z,false,true,0.0-2.0-0.35-0.321-3.321,1,1,0,90,false,stim,false,1,610.6999999999534,2,1,0,86720,task3,812784,false,false,1042,image-keyboard-response,4
true,16,1,2,0,false,q,false,false,0.0-2.0-0.35-0.322-3.322,1,1,0,90,false,stim,true,1,1168.8000000000466,2,0,2,86720,task3,815460,false,false,1045,image-keyboard-response,5
true,16,1,2,1,true,z,false,true,0.0-2.0-0.35-0.323-3.323,1,1,0,90,false,stim,false,1,562.8999999999069,2,1,0,86720,task3,817531,false,false,1048,image-keyboard-response,6
true,16,1,2,1,true,z,false,true,0.0-2.0-0.36-0.324-3.324,1,1,0,90,false,stim,false,1,515.1999999999534,2,1,0,86720,task3,819554,false,false,1051,image-keyboard-response,7
true,16,1,2,0,false,q,false,true,0.0-2.0-0.36-0.325-3.325,1,1,0,90,false,stim,true,1,1053.5,2,0,2,86720,task3,822115,false,true,1054,image-keyboard-response,8
true,16,0,2,0,true,q,false,true,0.0-2.0-0.36-0.326-3.326,1,1,0,81,false,stim,false,0,750.4000000001397,2,1,1,86720,task3,824374,false,false,1057,image-keyboard-response,9
true,16,0,2,0,true,q,false,true,0.0-2.0-0.36-0.327-3.327,1,1,0,81,false,stim,false,0,426.5999999998603,2,1,1,86720,task3,826310,false,false,1060,image-keyboard-response,10
true,16,1,2,0,false,q,false,false,0.0-2.0-0.36-0.328-3.328,1,1,0,90,false,stim,true,1,620.8000000000466,2,1,2,86720,task3,828438,false,false,1063,image-keyboard-response,11
true,16,1,2,0,false,q,false,false,0.0-2.0-0.36-0.329-3.329,1,1,0,90,false,stim,true,1,443.69999999995343,2,1,2,86720,task3,830391,false,false,1066,image-keyboard-response,12
true,16,1,2,1,true,z,false,true,0.0-2.0-0.36-0.330-3.330,1,1,0,90,false,stim,false,1,1024.7000000001863,2,0,0,86720,task3,832923,false,false,1069,image-keyboard-response,13
true,16,0,2,0,true,q,false,true,0.0-2.0-0.36-0.331-3.331,1,1,0,81,false,stim,false,0,737.8000000000466,2,1,1,86720,task3,835169,false,false,1072,image-keyboard-response,14
true,17,2,2,2,true,d,false,true,0.0-2.0-0.36-0.332-3.332,0,1,1,68,true,stim,false,1,734.5999999998603,2,0,0,86720,task3,837410,false,false,1075,image-keyboard-response,1
true,17,1,2,0,false,q,true,false,0.0-2.0-0.37-0.333-3.333,0,1,1,90,false,stim,false,0,884.1999999999534,2,1,2,86720,task3,839802,false,false,1078,image-keyboard-response,2
true,17,2,2,2,true,d,false,true,0.0-2.0-0.37-0.334-3.334,0,1,1,68,false,stim,false,1,508.69999999995343,2,0,0,86720,task3,841818,false,false,1081,image-keyboard-response,3
true,17,2,2,2,true,d,false,true,0.0-2.0-0.37-0.335-3.335,0,1,1,68,false,stim,false,1,661.4000000001397,2,0,0,86720,task3,843989,false,false,1084,image-keyboard-response,4
true,17,2,2,2,true,d,false,true,0.0-2.0-0.37-0.336-3.336,0,1,1,68,false,stim,false,1,498.5999999998603,2,0,0,86720,task3,845995,false,false,1087,image-keyboard-response,5
true,17,0,2,0,true,q,false,true,0.0-2.0-0.37-0.337-3.337,0,1,1,81,false,stim,false,0,607.1000000000931,2,1,1,86720,task3,848111,false,false,1090,image-keyboard-response,6
true,17,0,2,0,true,q,false,true,0.0-2.0-0.37-0.338-3.338,0,1,1,81,false,stim,false,0,754.8999999999069,2,1,2,86720,task3,850374,false,false,1093,image-keyboard-response,7
true,17,0,2,0,true,q,false,true,0.0-2.0-0.37-0.339-3.339,0,1,1,81,false,stim,false,0,523.9000000001397,2,1,1,86720,task3,852408,false,false,1096,image-keyboard-response,8
true,17,0,2,0,true,q,false,true,0.0-2.0-0.37-0.340-3.340,0,1,1,81,false,stim,false,0,587.8999999999069,2,1,2,86720,task3,854504,false,false,1099,image-keyboard-response,9
true,17,0,2,0,true,q,false,false,0.0-2.0-0.37-0.341-3.341,0,1,1,81,false,stim,false,0,675.5,2,1,1,86720,task3,856705,false,true,1102,image-keyboard-response,10
true,17,0,2,0,true,q,false,true,0.0-2.0-0.38-0.342-3.342,0,1,1,81,false,stim,false,0,423.0999999998603,2,0,1,86720,task3,858673,false,false,1105,image-keyboard-response,11
true,17,2,2,2,true,d,false,true,0.0-2.0-0.38-0.343-3.343,0,1,1,68,false,stim,false,1,725.8999999999069,2,1,0,86720,task3,860907,false,false,1108,image-keyboard-response,12
true,17,0,2,0,true,q,false,true,0.0-2.0-0.38-0.344-3.344,0,1,1,81,false,stim,false,0,605.2999999998137,2,1,2,86720,task3,863059,false,false,1111,image-keyboard-response,13
true,17,2,2,2,true,d,false,true,0.0-2.0-0.38-0.345-3.345,0,1,1,68,false,stim,false,1,1036.0999999998603,2,1,0,86720,task3,865603,false,false,1114,image-keyboard-response,14
true,17,0,2,0,true,q,false,true,0.0-2.0-0.38-0.346-3.346,0,1,1,81,false,stim,false,0,595.6000000000931,2,0,1,86720,task3,867706,false,false,1117,image-keyboard-response,15
true,18,2,2,0,false,q,true,false,0.0-2.0-0.38-0.347-3.347,1,0,1,68,true,stim,false,0,949.1000000000931,2,1,2,86720,task3,870162,false,false,1120,image-keyboard-response,1
true,18,0,2,1,false,z,false,false,0.0-2.0-0.38-0.348-3.348,1,0,1,81,false,stim,true,0,607.6999999999534,2,0,1,86720,task3,872277,false,false,1123,image-keyboard-response,2
true,18,2,2,2,true,d,false,true,0.0-2.0-0.38-0.349-3.349,1,0,1,68,false,stim,false,2,908.0,2,1,0,86720,task3,874694,false,false,1126,image-keyboard-response,3
true,18,2,2,0,false,q,true,false,0.0-2.0-0.38-0.350-3.350,1,0,1,68,false,stim,false,0,452.10000000009313,2,1,2,86720,task3,876655,false,false,1129,image-keyboard-response,4
true,18,2,2,2,true,d,false,true,0.0-2.0-0.39-0.351-3.351,1,0,1,68,false,stim,false,2,1005.1999999999534,2,1,0,86720,task3,879170,false,false,1132,image-keyboard-response,5
true,18,1,2,0,false,q,true,false,0.0-2.0-0.39-0.352-3.352,1,0,1,90,false,stim,false,0,647.3000000000466,2,1,2,86720,task3,881325,false,false,1135,image-keyboard-response,6
true,18,1,2,0,false,q,true,false,0.0-2.0-0.39-0.353-3.353,1,0,1,90,false,stim,false,0,541.9000000001397,2,1,2,86720,task3,883375,false,false,1138,image-keyboard-response,7
true,18,2,2,2,true,d,false,true,0.0-2.0-0.39-0.354-3.354,1,0,1,68,false,stim,false,2,713.5,2,1,0,86720,task3,885597,false,false,1141,image-keyboard-response,8
true,18,1,2,1,true,z,false,true,0.0-2.0-0.39-0.355-3.355,1,0,1,90,false,stim,false,0,881.5,2,0,1,86720,task3,887986,false,false,1144,image-keyboard-response,9
true,18,1,2,1,true,z,false,true,0.0-2.0-0.39-0.356-3.356,1,0,1,90,false,stim,false,0,456.30000000004657,2,1,1,86720,task3,889950,false,false,1147,image-keyboard-response,10
true,18,2,2,2,true,d,false,true,0.0-2.0-0.39-0.357-3.357,1,0,1,68,false,stim,false,2,597.6999999999534,2,0,0,86720,task3,892056,false,false,1150,image-keyboard-response,11
true,18,1,2,1,true,z,false,true,0.0-2.0-0.39-0.358-3.358,1,0,1,90,false,stim,false,0,1318.5999999998603,2,1,1,86720,task3,894883,false,false,1153,image-keyboard-response,12
true,18,0,2,0,true,q,false,true,0.0-2.0-0.39-0.359-3.359,1,0,1,81,false,stim,false,0,586.6000000000931,2,0,2,86720,task3,896978,false,false,1156,image-keyboard-response,13
true,18,0,2,0,true,q,false,true,0.0-2.0-0.40-0.360-3.360,1,0,1,81,false,stim,false,0,386.30000000004657,2,0,2,86720,task3,898874,false,false,1159,image-keyboard-response,14
true,19,0,1,2,false,d,false,false,0.0-2.0-0.40-0.361-3.361,0,1,0,81,true,stim,true,0,393.5,2,0,2,86720,task3,900775,false,false,1162,image-keyboard-response,1
true,19,1,1,1,true,z,false,false,0.0-2.0-0.40-0.362-3.362,0,1,0,90,false,stim,false,1,682.5,2,1,1,86720,task3,902967,false,true,1165,image-keyboard-response,2
true,19,2,1,1,false,z,false,false,0.0-2.0-0.40-0.363-3.363,0,1,0,68,false,stim,true,2,568.5,2,0,0,86720,task3,905044,false,false,1168,image-keyboard-response,3
true,19,1,1,1,true,z,false,true,0.0-2.0-0.40-0.364-3.364,0,1,0,90,false,stim,false,1,729.5,2,1,1,86720,task3,907281,false,false,1171,image-keyboard-response,4
true,19,1,1,1,true,z,false,true,0.0-2.0-0.40-0.365-3.365,0,1,0,90,false,stim,false,1,530.5,2,1,1,86720,task3,909320,false,false,1174,image-keyboard-response,5
true,19,2,1,1,false,z,false,false,0.0-2.0-0.40-0.366-3.366,0,1,0,68,false,stim,true,2,783.1999999999534,2,0,0,86720,task3,911611,false,false,1177,image-keyboard-response,6
true,19,0,1,2,false,d,false,false,0.0-2.0-0.40-0.367-3.367,0,1,0,81,false,stim,true,0,1343.3000000000466,2,0,2,86720,task3,914463,false,false,1180,image-keyboard-response,7
true,19,1,1,1,true,z,false,true,0.0-2.0-0.40-0.368-3.368,0,1,0,90,false,stim,false,2,1421.6999999999534,2,0,0,86720,task3,917394,false,false,1183,image-keyboard-response,8
true,19,1,1,1,true,z,false,true,0.0-2.0-0.41-0.369-3.369,0,1,0,90,false,stim,false,1,672.0,2,1,1,86720,task3,919574,false,false,1186,image-keyboard-response,9
true,19,1,1,1,true,z,false,true,0.0-2.0-0.41-0.370-3.370,0,1,0,90,false,stim,false,1,484.69999999995343,2,1,1,86720,task3,921566,false,false,1189,image-keyboard-response,10
true,19,0,1,2,false,d,false,false,0.0-2.0-0.41-0.371-3.371,0,1,0,81,false,stim,true,0,446.60000000009313,2,0,2,86720,task3,923521,false,false,1192,image-keyboard-response,11
true,19,1,1,1,true,z,false,true,0.0-2.0-0.41-0.372-3.372,0,1,0,90,false,stim,false,1,753.8999999999069,2,1,1,86720,task3,925783,false,false,1195,image-keyboard-response,12
true,19,2,1,2,true,d,false,true,0.0-2.0-0.41-0.373-3.373,0,1,0,68,false,stim,false,0,884.4000000001397,2,0,2,86720,task3,928175,false,false,1198,image-keyboard-response,13
true,19,1,1,1,true,z,false,true,0.0-2.0-0.41-0.374-3.374,0,1,0,90,false,stim,false,2,668.3000000000466,2,0,0,86720,task3,930366,false,false,1201,image-keyboard-response,14
true,19,2,1,2,true,d,false,true,0.0-2.0-0.41-0.375-3.375,0,1,0,68,false,stim,false,0,808.5,2,0,2,86720,task3,932719,false,false,1204,image-keyboard-response,15
true,19,1,1,1,true,z,false,true,0.0-2.0-0.41-0.376-3.376,0,1,0,90,false,stim,false,2,568.6000000000931,2,0,0,86720,task3,934796,false,false,1207,image-keyboard-response,16
true,19,1,1,1,true,z,false,true,0.0-2.0-0.41-0.377-3.377,0,1,0,90,false,stim,false,2,449.89999999990687,2,0,0,86720,task3,936753,false,false,1210,image-keyboard-response,17
true,19,2,1,2,true,d,false,false,0.0-2.0-0.42-0.378-3.378,0,1,0,68,false,stim,false,0,658.6000000000931,2,0,2,86720,task3,938954,false,true,1213,image-keyboard-response,18
true,19,1,1,1,true,z,false,true,0.0-2.0-0.42-0.379-3.379,0,1,0,90,false,stim,false,1,494.39999999990687,2,1,1,86720,task3,940956,false,false,1216,image-keyboard-response,19
true,19,1,1,1,true,z,false,true,0.0-2.0-0.42-0.380-3.380,0,1,0,90,false,stim,false,1,386.5,2,1,1,86720,task3,942851,false,false,1219,image-keyboard-response,20
true,19,1,1,1,true,z,false,true,0.0-2.0-0.42-0.381-3.381,0,1,0,90,false,stim,false,1,425.9000000001397,2,1,1,86720,task3,944784,false,false,1222,image-keyboard-response,21
true,19,2,1,2,true,d,false,true,0.0-2.0-0.42-0.382-3.382,0,1,0,68,false,stim,false,0,726.7999999998137,2,0,2,86720,task3,947020,false,false,1225,image-keyboard-response,22
true,19,2,1,2,true,d,false,true,0.0-2.0-0.42-0.383-3.383,0,1,0,68,false,stim,false,0,431.5999999998603,2,0,2,86720,task3,948959,false,false,1228,image-keyboard-response,23
true,20,1,1,2,false,d,false,false,0.0-2.0-0.42-0.384-3.384,0,1,0,90,true,stim,true,1,645.3999999999069,2,0,0,86720,task3,951123,false,false,1231,image-keyboard-response,1
true,20,2,1,2,true,d,false,true,0.0-2.0-0.42-0.385-3.385,0,1,0,68,false,stim,false,1,384.20000000018626,2,0,0,86720,task3,953015,false,false,1234,image-keyboard-response,2
true,20,2,1,2,true,d,false,true,0.0-2.0-0.42-0.386-3.386,0,1,0,68,false,stim,false,1,373.89999999990687,2,0,0,86720,task3,954897,false,false,1237,image-keyboard-response,3
true,20,2,1,1,false,z,false,false,0.0-2.0-0.43-0.387-3.387,0,1,0,68,false,stim,true,2,719.3000000000466,2,0,2,86720,task3,957125,false,false,1240,image-keyboard-response,4
true,20,2,1,2,true,d,false,true,0.0-2.0-0.43-0.388-3.388,0,1,0,68,false,stim,false,1,771.0,2,0,0,86720,task3,959404,false,false,1243,image-keyboard-response,5
true,20,1,1,1,true,z,false,false,0.0-2.0-0.43-0.389-3.389,0,1,0,90,false,stim,false,1,849.3000000000466,2,1,1,86720,task3,961761,false,true,1246,image-keyboard-response,6
true,20,2,1,1,false,z,false,false,0.0-2.0-0.43-0.390-3.390,0,1,0,68,false,stim,true,2,698.0,2,0,2,86720,task3,963969,false,false,1249,image-keyboard-response,7
true,20,1,1,1,true,z,false,true,0.0-2.0-0.43-0.391-3.391,0,1,0,90,false,stim,false,1,1062.0999999998603,2,1,1,86720,task3,966540,false,false,1252,image-keyboard-response,8
true,20,1,1,1,true,z,false,true,0.0-2.0-0.43-0.392-3.392,0,1,0,90,false,stim,false,1,446.70000000018626,2,1,1,86720,task3,968497,false,false,1255,image-keyboard-response,9
true,20,2,1,1,false,z,false,false,0.0-2.0-0.43-0.393-3.393,0,1,0,68,false,stim,true,2,729.3000000000466,2,0,2,86720,task3,970735,false,false,1258,image-keyboard-response,10
true,20,2,1,2,true,d,false,true,0.0-2.0-0.43-0.394-3.394,0,1,0,68,false,stim,false,1,2179.899999999907,2,0,0,86720,task3,974423,false,false,1261,image-keyboard-response,11
true,20,2,1,2,true,d,false,true,0.0-2.0-0.43-0.395-3.395,0,1,0,68,false,stim,false,1,357.5,2,0,0,86720,task3,976291,false,false,1264,image-keyboard-response,12
true,20,0,1,1,false,z,true,false,0.0-2.0-0.44-0.396-3.396,0,1,0,81,false,stim,false,1,1024.6000000000931,2,1,1,86720,task3,978824,false,false,1267,image-keyboard-response,13
true,20,2,1,2,true,d,false,true,0.0-2.0-0.44-0.397-3.397,0,1,0,68,false,stim,false,1,708.3999999999069,2,0,0,86720,task3,981042,false,false,1270,image-keyboard-response,14
true,20,1,1,1,true,z,false,true,0.0-2.0-0.44-0.398-3.398,0,1,0,90,false,stim,false,1,370.0,2,1,1,86720,task3,982920,false,false,1273,image-keyboard-response,15
true,20,2,1,1,false,z,false,false,0.0-2.0-0.44-0.399-3.399,0,1,0,68,false,stim,true,2,647.1999999999534,2,0,2,86720,task3,985076,false,false,1276,image-keyboard-response,16
true,20,2,1,2,true,d,false,true,0.0-2.0-0.44-0.400-3.400,0,1,0,68,false,stim,false,1,865.7000000001863,2,0,0,86720,task3,987449,false,false,1279,image-keyboard-response,17
true,20,1,1,1,true,z,false,true,0.0-2.0-0.44-0.401-3.401,0,1,0,90,false,stim,false,2,1058.6999999999534,2,0,2,86720,task3,990015,false,false,1282,image-keyboard-response,18
true,20,1,1,1,true,z,false,true,0.0-2.0-0.44-0.402-3.402,0,1,0,90,false,stim,false,1,1442.8999999999069,2,1,1,86720,task3,992966,false,false,1285,image-keyboard-response,19
true,20,2,1,2,true,d,false,true,0.0-2.0-0.44-0.403-3.403,0,1,0,68,false,stim,false,1,1106.8000000000466,2,0,0,86720,task3,995583,false,false,1288,image-keyboard-response,20
true,20,2,1,1,false,z,false,false,0.0-2.0-0.44-0.404-3.404,0,1,0,68,false,stim,true,2,1569.5999999998603,2,0,2,86720,task3,998661,false,false,1291,image-keyboard-response,21
true,20,2,1,2,true,d,false,true,0.0-2.0-0.45-0.405-3.405,0,1,0,68,false,stim,false,1,637.6999999999534,2,0,0,86720,task3,1000811,false,false,1294,image-keyboard-response,22
true,20,1,1,1,true,z,false,true,0.0-2.0-0.45-0.406-3.406,0,1,0,90,false,stim,false,2,441.80000000004657,2,0,2,86720,task3,1002762,false,false,1297,image-keyboard-response,23
true,20,1,1,1,true,z,false,true,0.0-2.0-0.45-0.407-3.407,0,1,0,90,false,stim,false,2,480.30000000004657,2,1,2,86720,task3,1004750,false,false,1300,image-keyboard-response,24
true,20,2,1,2,true,d,false,false,0.0-2.0-0.45-0.408-3.408,0,1,0,68,false,stim,false,1,607.8999999999069,2,0,0,86720,task3,1006927,false,true,1303,image-keyboard-response,25
true,20,2,1,2,true,d,false,false,0.0-2.0-0.45-0.409-3.409,0,1,0,68,false,stim,false,1,368.89999999990687,2,0,0,86720,task3,1008803,false,true,1306,image-keyboard-response,26
true,20,2,1,1,false,z,true,false,0.0-2.0-0.45-0.410-3.410,0,1,0,68,false,stim,false,1,1289.3000000000466,2,1,1,86720,task3,1011599,false,false,1309,image-keyboard-response,27
true,20,0,1,1,false,z,true,false,0.0-2.0-0.45-0.411-3.411,0,1,0,81,false,stim,false,1,714.0999999998603,2,1,1,86720,task3,1013821,false,false,1312,image-keyboard-response,28
true,21,1,2,1,true,z,false,true,0.0-2.0-0.45-0.412-3.412,0,1,1,90,true,stim,false,1,378.30000000004657,2,1,1,86720,task3,1015706,false,false,1315,image-keyboard-response,1
true,21,1,2,1,true,z,false,true,0.0-2.0-0.45-0.413-3.413,0,1,1,90,false,stim,false,1,394.30000000004657,2,1,2,86720,task3,1017609,false,false,1318,image-keyboard-response,2
true,21,1,2,1,true,z,false,true,0.0-2.0-0.46-0.414-3.414,0,1,1,90,false,stim,false,1,592.8999999999069,2,1,1,86720,task3,1019711,false,false,1321,image-keyboard-response,3
true,21,0,2,0,true,q,false,true,0.0-2.0-0.46-0.415-3.415,0,1,1,81,false,stim,false,2,445.30000000004657,2,0,0,86720,task3,1021664,false,false,1324,image-keyboard-response,4
true,21,1,2,1,true,z,false,true,0.0-2.0-0.46-0.416-3.416,0,1,1,90,false,stim,false,1,591.0,2,1,2,86720,task3,1023765,false,false,1327,image-keyboard-response,5
true,21,1,2,1,true,z,false,true,0.0-2.0-0.46-0.417-3.417,0,1,1,90,false,stim,false,1,657.0,2,1,1,86720,task3,1025930,false,false,1330,image-keyboard-response,6
true,21,1,2,1,true,z,false,true,0.0-2.0-0.46-0.418-3.418,0,1,1,90,false,stim,false,1,485.19999999995343,2,1,2,86720,task3,1027924,false,false,1333,image-keyboard-response,7
true,21,1,2,1,true,z,false,true,0.0-2.0-0.46-0.419-3.419,0,1,1,90,false,stim,false,1,514.3999999999069,2,1,1,86720,task3,1029947,false,false,1336,image-keyboard-response,8
true,21,0,2,0,true,q,false,true,0.0-2.0-0.46-0.420-3.420,0,1,1,81,false,stim,false,2,580.0999999998603,2,0,0,86720,task3,1032035,false,false,1339,image-keyboard-response,9
true,21,0,2,0,true,q,false,true,0.0-2.0-0.46-0.421-3.421,0,1,1,81,false,stim,false,2,359.80000000004657,2,1,0,86720,task3,1033903,false,false,1342,image-keyboard-response,10
true,21,1,2,1,true,z,false,true,0.0-2.0-0.46-0.422-3.422,0,1,1,90,false,stim,false,1,955.5,2,0,2,86720,task3,1036367,false,false,1345,image-keyboard-response,11
true,21,1,2,1,true,z,false,true,0.0-2.0-0.47-0.423-3.423,0,1,1,90,false,stim,false,1,425.89999999990687,2,0,2,86720,task3,1038302,false,false,1348,image-keyboard-response,12
true,21,1,2,1,true,z,false,true,0.0-2.0-0.47-0.424-3.424,0,1,1,90,false,stim,false,1,409.0,2,0,2,86720,task3,1040219,false,false,1351,image-keyboard-response,13
true,21,1,2,1,true,z,false,true,0.0-2.0-0.47-0.425-3.425,0,1,1,90,false,stim,false,1,413.4000000001397,2,0,2,86720,task3,1042140,false,false,1354,image-keyboard-response,14
true,22,0,1,0,true,q,false,true,0.0-2.0-0.47-0.426-3.426,1,0,0,81,true,stim,false,0,1111.0,2,1,0,86720,task3,1044796,false,false,1357,image-keyboard-response,1
true,22,0,1,0,true,q,false,true,0.0-2.0-0.47-0.427-3.427,1,0,0,81,false,stim,false,0,422.4000000001397,2,1,0,86720,task3,1046727,false,false,1360,image-keyboard-response,2
true,22,1,1,2,false,d,false,false,0.0-2.0-0.47-0.428-3.428,1,0,0,90,false,stim,true,1,682.0,2,0,1,86720,task3,1048917,false,false,1363,image-keyboard-response,3
true,22,0,1,0,true,q,false,true,0.0-2.0-0.47-0.429-3.429,1,0,0,81,false,stim,false,0,597.5,2,1,0,86720,task3,1051023,false,false,1366,image-keyboard-response,4
true,22,1,1,2,false,d,false,false,0.0-2.0-0.47-0.430-3.430,1,0,0,90,false,stim,true,1,664.8000000000466,2,0,1,86720,task3,1053196,false,false,1369,image-keyboard-response,5
true,22,1,1,2,false,d,false,false,0.0-2.0-0.47-0.431-3.431,1,0,0,90,false,stim,true,1,510.5999999998603,2,0,1,86720,task3,1055215,false,false,1372,image-keyboard-response,6
true,22,0,1,0,true,q,false,true,0.0-2.0-0.48-0.432-3.432,1,0,0,81,false,stim,false,0,603.8000000000466,2,1,0,86720,task3,1057328,false,false,1375,image-keyboard-response,7
true,22,1,1,2,false,d,false,false,0.0-2.0-0.48-0.433-3.433,1,0,0,90,false,stim,true,1,552.8000000000466,2,0,2,86720,task3,1059389,false,false,1378,image-keyboard-response,8
true,22,0,1,2,false,d,true,false,0.0-2.0-0.48-0.434-3.434,1,0,0,81,false,stim,false,1,718.6999999999534,2,0,1,86720,task3,1061616,false,false,1381,image-keyboard-response,9
true,22,1,1,2,false,d,false,false,0.0-2.0-0.48-0.435-3.435,1,0,0,90,false,stim,true,1,663.3999999999069,2,0,1,86720,task3,1063787,false,false,1384,image-keyboard-response,10
true,22,2,1,0,false,q,true,false,0.0-2.0-0.48-0.436-3.436,1,0,0,68,false,stim,false,0,986.7999999998137,2,1,0,86720,task3,1066282,false,false,1387,image-keyboard-response,11
true,22,2,1,2,true,d,false,true,0.0-2.0-0.48-0.437-3.437,1,0,0,68,false,stim,false,1,715.6999999999534,2,0,1,86720,task3,1068507,false,false,1390,image-keyboard-response,12
true,22,0,1,0,true,q,false,true,0.0-2.0-0.48-0.438-3.438,1,0,0,81,false,stim,false,0,907.0999999998603,2,1,0,86720,task3,1070925,false,false,1393,image-keyboard-response,13
true,22,1,1,2,false,d,false,false,0.0-2.0-0.48-0.439-3.439,1,0,0,90,false,stim,true,1,1060.6999999999534,2,0,2,86720,task3,1073494,false,false,1396,image-keyboard-response,14
true,22,2,1,2,true,d,false,true,0.0-2.0-0.48-0.440-3.440,1,0,0,68,false,stim,false,1,580.3000000000466,2,0,2,86720,task3,1075584,false,false,1399,image-keyboard-response,15
true,22,2,1,2,true,d,false,true,0.0-2.0-0.49-0.441-3.441,1,0,0,68,false,stim,false,1,567.2999999998137,2,0,2,86720,task3,1077677,false,false,1402,image-keyboard-response,16
true,22,2,1,2,true,d,false,true,0.0-2.0-0.49-0.442-3.442,1,0,0,68,false,stim,false,1,438.89999999990687,2,0,1,86720,task3,1079656,false,false,1405,image-keyboard-response,17
true,22,2,1,2,true,d,false,true,0.0-2.0-0.49-0.443-3.443,1,0,0,68,false,stim,false,1,862.1000000000931,2,0,2,86720,task3,1082027,false,false,1408,image-keyboard-response,18
true,22,2,1,2,true,d,false,true,0.0-2.0-0.49-0.444-3.444,1,0,0,68,false,stim,false,1,641.1999999999534,2,0,1,86720,task3,1084179,false,false,1411,image-keyboard-response,19
true,22,0,1,0,true,q,false,true,0.0-2.0-0.49-0.445-3.445,1,0,0,81,false,stim,false,0,423.60000000009313,2,1,0,86720,task3,1086111,false,false,1414,image-keyboard-response,20
true,22,0,1,0,true,q,false,true,0.0-2.0-0.49-0.446-3.446,1,0,0,81,false,stim,false,0,413.10000000009313,2,1,0,86720,task3,1088033,false,false,1417,image-keyboard-response,21
true,22,0,1,0,true,q,false,true,0.0-2.0-0.49-0.447-3.447,1,0,0,81,false,stim,false,0,434.80000000004657,2,1,0,86720,task3,1089978,false,false,1420,image-keyboard-response,22
true,22,2,1,2,true,d,false,true,0.0-2.0-0.49-0.448-3.448,1,0,0,68,false,stim,false,1,1756.3000000000466,2,0,1,86720,task3,1093243,false,false,1423,image-keyboard-response,23
true,22,2,1,2,true,d,false,true,0.0-2.0-0.49-0.449-3.449,1,0,0,68,false,stim,false,1,1020.1999999999534,2,0,2,86720,task3,1095773,false,false,1426,image-keyboard-response,24
true,22,0,1,0,true,q,false,true,0.0-2.0-0.50-0.450-3.450,1,0,0,81,false,stim,false,0,649.8999999999069,2,0,0,86720,task3,1097932,false,false,1429,image-keyboard-response,25
true,22,2,1,2,true,d,false,false,0.0-2.0-0.50-0.451-3.451,1,0,0,68,false,stim,false,1,528.0999999998603,2,0,1,86720,task3,1099968,false,true,1432,image-keyboard-response,26
true,22,2,1,2,true,d,false,true,0.0-2.0-0.50-0.452-3.452,1,0,0,68,false,stim,false,1,1730.1999999999534,2,0,1,86720,task3,1103207,false,false,1435,image-keyboard-response,27
true,22,2,1,2,true,d,false,true,0.0-2.0-0.50-0.453-3.453,1,0,0,68,false,stim,false,1,506.39999999990687,2,0,1,86720,task3,1105224,false,false,1438,image-keyboard-response,28
true,22,0,1,0,true,q,false,false,0.0-2.0-0.50-0.454-3.454,1,0,0,81,false,stim,false,0,1152.5,2,0,0,86720,task3,1107886,false,true,1441,image-keyboard-response,29
true,23,2,1,2,true,d,false,true,0.0-2.0-0.50-0.455-3.455,0,0,1,68,true,stim,false,2,1854.2000000001863,2,1,2,86720,task3,1111248,false,false,1444,image-keyboard-response,1
true,23,2,1,2,true,d,false,true,0.0-2.0-0.50-0.456-3.456,0,0,1,68,false,stim,false,2,566.6000000000931,2,1,2,86720,task3,1113325,false,false,1447,image-keyboard-response,2
true,23,0,1,1,false,z,false,false,0.0-2.0-0.50-0.457-3.457,0,0,1,81,false,stim,true,0,894.5,2,0,0,86720,task3,1115729,false,false,1450,image-keyboard-response,3
true,23,2,1,2,true,d,false,true,0.0-2.0-0.50-0.458-3.458,0,0,1,68,false,stim,false,2,594.7999999998137,2,1,2,86720,task3,1117833,false,false,1453,image-keyboard-response,4
true,23,0,1,1,false,z,false,false,0.0-2.0-0.51-0.459-3.459,0,0,1,81,false,stim,true,0,2142.600000000093,2,0,0,86720,task3,1121485,false,false,1456,image-keyboard-response,5
true,23,2,1,2,true,d,false,false,0.0-2.0-0.51-0.460-3.460,0,0,1,68,false,stim,false,2,647.2999999998137,2,1,2,86720,task3,1123643,false,true,1459,image-keyboard-response,6
true,23,2,1,0,false,q,false,false,0.0-2.0-0.51-0.461-3.461,0,0,1,68,false,stim,true,2,1839.5999999998603,2,0,1,86720,task3,1127021,false,false,1462,image-keyboard-response,7
true,23,1,1,1,true,z,false,true,0.0-2.0-0.51-0.462-3.462,0,0,1,90,false,stim,false,0,1229.0,2,0,0,86720,task3,1129760,false,false,1465,image-keyboard-response,8
true,23,1,1,1,true,z,false,true,0.0-2.0-0.51-0.463-3.463,0,0,1,90,false,stim,false,0,433.60000000009313,2,0,0,86720,task3,1131703,false,false,1468,image-keyboard-response,9
true,23,2,1,2,true,d,false,true,0.0-2.0-0.51-0.464-3.464,0,0,1,68,false,stim,false,2,1902.7999999998137,2,1,2,86720,task3,1135115,false,false,1471,image-keyboard-response,10
true,23,2,1,0,false,q,false,false,0.0-2.0-0.51-0.465-3.465,0,0,1,68,false,stim,true,2,1511.5,2,0,1,86720,task3,1138138,false,false,1474,image-keyboard-response,11
true,23,0,1,0,true,q,false,true,0.0-2.0-0.51-0.466-3.466,0,0,1,81,false,stim,false,2,2222.899999999907,2,0,1,86720,task3,1141869,false,false,1477,image-keyboard-response,12
true,23,2,1,2,true,d,false,true,0.0-2.0-0.51-0.467-3.467,0,0,1,68,false,stim,false,2,1239.6000000000931,2,1,2,86720,task3,1144621,false,false,1480,image-keyboard-response,13
true,23,2,1,2,true,d,false,true,0.0-2.0-0.52-0.468-3.468,0,0,1,68,false,stim,false,2,1212.6999999999534,2,1,2,86720,task3,1147344,false,false,1483,image-keyboard-response,14
true,23,1,1,1,true,z,false,true,0.0-2.0-0.52-0.469-3.469,0,0,1,90,false,stim,false,0,860.1999999999534,2,0,0,86720,task3,1149714,false,false,1486,image-keyboard-response,15
true,23,1,1,1,true,z,false,true,0.0-2.0-0.52-0.470-3.470,0,0,1,90,false,stim,false,0,1029.1999999999534,2,0,0,86720,task3,1152253,false,false,1489,image-keyboard-response,16
true,23,0,1,0,true,q,false,true,0.0-2.0-0.52-0.471-3.471,0,0,1,81,false,stim,false,2,884.6999999999534,2,0,1,86720,task3,1154646,false,false,1492,image-keyboard-response,17
true,23,1,1,1,true,z,false,false,0.0-2.0-0.52-0.472-3.472,0,0,1,90,false,stim,false,0,816.6999999999534,2,0,0,86720,task3,1156973,false,true,1495,image-keyboard-response,18
true,23,0,1,0,true,q,false,true,0.0-2.0-0.52-0.473-3.473,0,0,1,81,false,stim,false,2,688.3999999999069,2,0,1,86720,task3,1159171,false,false,1498,image-keyboard-response,19
true,23,1,1,0,false,q,true,true,0.0-2.0-0.52-0.474-3.474,0,0,1,90,false,stim,false,2,976.8999999999069,2,0,1,86720,task3,1161674,false,true,1501,image-keyboard-response,20
true,23,2,1,2,true,d,false,true,0.0-2.0-0.52-0.475-3.475,0,0,1,68,false,stim,false,2,810.7000000001863,2,1,2,86720,task3,1164030,false,false,1504,image-keyboard-response,21
true,23,2,1,2,true,d,false,true,0.0-2.0-0.52-0.476-3.476,0,0,1,68,false,stim,false,2,1474.9000000001397,2,1,2,86720,task3,1167015,false,false,1507,image-keyboard-response,22
true,23,2,1,1,false,z,true,false,0.0-2.0-0.53-0.477-3.477,0,0,1,68,false,stim,false,0,896.3000000000466,2,0,0,86720,task3,1169422,false,false,1510,image-keyboard-response,23
true,23,2,1,0,false,q,false,false,0.0-2.0-0.53-0.478-3.478,0,0,1,68,false,stim,true,2,742.8999999999069,2,0,1,86720,task3,1171675,false,false,1513,image-keyboard-response,24
true,23,1,1,1,true,z,false,true,0.0-2.0-0.53-0.479-3.479,0,0,1,90,false,stim,false,0,589.3000000000466,2,0,0,86720,task3,1173772,false,false,1516,image-keyboard-response,25
true,23,2,1,2,true,d,false,true,0.0-2.0-0.53-0.480-3.480,0,0,1,68,false,stim,false,2,1823.5999999998603,2,1,2,86720,task3,1177105,false,false,1519,image-keyboard-response,26
true,24,2,1,2,true,d,false,true,0.0-2.0-0.53-0.481-3.481,0,0,1,68,true,stim,false,2,863.8000000000466,2,1,2,86720,task3,1179479,false,false,1522,image-keyboard-response,1
true,24,1,1,1,true,z,false,true,0.0-2.0-0.53-0.482-3.482,0,0,1,90,false,stim,false,0,1491.0,2,0,1,86720,task3,1182480,false,false,1525,image-keyboard-response,2
true,24,1,1,1,true,z,false,true,0.0-2.0-0.53-0.483-3.483,0,0,1,90,false,stim,false,0,615.5,2,0,1,86720,task3,1184610,false,false,1528,image-keyboard-response,3
true,24,1,1,2,false,d,false,false,0.0-2.0-0.53-0.484-3.484,0,0,1,90,false,stim,true,1,770.8999999999069,2,0,0,86720,task3,1186891,false,false,1531,image-keyboard-response,4
true,24,2,1,2,true,d,false,true,0.0-2.0-0.53-0.485-3.485,0,0,1,68,false,stim,false,2,1117.5,2,1,2,86720,task3,1189519,false,false,1534,image-keyboard-response,5
true,24,1,1,2,false,d,false,false,0.0-2.0-0.54-0.486-3.486,0,0,1,90,false,stim,true,1,621.0,2,0,0,86720,task3,1191649,false,false,1537,image-keyboard-response,6
true,24,1,1,1,true,z,false,true,0.0-2.0-0.54-0.487-3.487,0,0,1,90,false,stim,false,0,911.8000000000466,2,0,1,86720,task3,1194069,false,false,1540,image-keyboard-response,7
true,24,1,1,1,true,z,false,true,0.0-2.0-0.54-0.488-3.488,0,0,1,90,false,stim,false,0,709.7000000001863,2,0,1,86720,task3,1196288,false,false,1543,image-keyboard-response,8
true,24,1,1,2,false,d,false,false,0.0-2.0-0.54-0.489-3.489,0,0,1,90,false,stim,true,1,1117.0,2,0,0,86720,task3,1198915,false,false,1546,image-keyboard-response,9
true,24,2,1,2,true,d,false,true,0.0-2.0-0.54-0.490-3.490,0,0,1,68,false,stim,false,2,652.3999999999069,2,1,2,86720,task3,1201078,false,false,1549,image-keyboard-response,10
true,24,1,1,2,false,d,false,false,0.0-2.0-0.54-0.491-3.491,0,0,1,90,false,stim,true,1,949.8999999999069,2,0,0,86720,task3,1203539,false,false,1552,image-keyboard-response,11
true,24,2,1,2,true,d,false,true,0.0-2.0-0.54-0.492-3.492,0,0,1,68,false,stim,false,2,524.4000000001397,2,1,2,86720,task3,1205574,false,false,1555,image-keyboard-response,12
true,24,0,1,1,false,z,false,false,0.0-2.0-0.54-0.493-3.493,0,0,1,81,false,stim,true,0,1564.0,2,0,1,86720,task3,1208647,false,false,1558,image-keyboard-response,13
true,24,2,1,2,true,d,false,true,0.0-2.0-0.54-0.494-3.494,0,0,1,68,false,stim,false,2,613.5999999998603,2,1,2,86720,task3,1210804,false,false,1561,image-keyboard-response,14
true,24,1,1,1,true,z,false,true,0.0-2.0-0.55-0.495-3.495,0,0,1,90,false,stim,false,0,720.8000000000466,2,0,1,86720,task3,1213034,false,false,1564,image-keyboard-response,15
true,24,1,1,1,true,z,false,true,0.0-2.0-0.55-0.496-3.496,0,0,1,90,false,stim,false,0,564.9000000001397,2,0,1,86720,task3,1215108,false,false,1567,image-keyboard-response,16
true,24,0,1,2,false,d,true,false,0.0-2.0-0.55-0.497-3.497,0,0,1,81,false,stim,false,1,549.1000000000931,2,0,0,86720,task3,1217166,false,false,1570,image-keyboard-response,17
true,24,2,1,2,true,d,false,true,0.0-2.0-0.55-0.498-3.498,0,0,1,68,false,stim,false,2,617.7999999998137,2,1,2,86720,task3,1219293,false,false,1573,image-keyboard-response,18
true,24,2,1,2,true,d,false,true,0.0-2.0-0.55-0.499-3.499,0,0,1,68,false,stim,false,1,820.8000000000466,2,0,0,86720,task3,1221624,false,false,1576,image-keyboard-response,19
true,24,1,1,1,true,z,false,true,0.0-2.0-0.55-0.500-3.500,0,0,1,90,false,stim,false,0,577.0,2,0,1,86720,task3,1223710,false,false,1579,image-keyboard-response,20
true,24,2,1,2,true,d,false,true,0.0-2.0-0.55-0.501-3.501,0,0,1,68,false,stim,false,2,730.6000000000931,2,1,2,86720,task3,1225951,false,false,1582,image-keyboard-response,21
true,24,2,1,2,true,d,false,true,0.0-2.0-0.55-0.502-3.502,0,0,1,68,false,stim,false,2,440.0,2,1,2,86720,task3,1227900,false,false,1585,image-keyboard-response,22
true,24,1,1,2,false,d,false,false,0.0-2.0-0.55-0.503-3.503,0,0,1,90,false,stim,true,1,1109.5999999998603,2,0,0,86720,task3,1230518,false,false,1588,image-keyboard-response,23
true,24,2,1,2,true,d,false,true,0.0-2.0-0.56-0.504-3.504,0,0,1,68,false,stim,false,2,637.0,2,1,2,86720,task3,1232666,false,false,1591,image-keyboard-response,24
true,24,1,1,1,true,z,false,true,0.0-2.0-0.56-0.505-3.505,0,0,1,90,false,stim,false,0,660.0,2,0,1,86720,task3,1234835,false,false,1594,image-keyboard-response,25
true,25,2,1,1,false,z,false,false,0.0-2.0-0.56-0.506-3.506,0,0,1,68,true,stim,true,2,566.0,2,0,0,86720,task3,1236912,false,false,1597,image-keyboard-response,1
true,25,2,1,1,false,z,false,false,0.0-2.0-0.56-0.507-3.507,0,0,1,68,false,stim,true,2,434.79999999981374,2,0,0,86720,task3,1238855,false,false,1600,image-keyboard-response,2
true,25,1,1,1,true,z,false,true,0.0-2.0-0.56-0.508-3.508,0,0,1,90,false,stim,false,2,644.8999999999069,2,0,0,86720,task3,1241080,false,false,1603,image-keyboard-response,3
true,25,2,1,2,true,d,false,true,0.0-2.0-0.56-0.509-3.509,0,0,1,68,false,stim,false,1,1005.5999999998603,2,0,1,86720,task3,1243594,false,false,1606,image-keyboard-response,4
true,25,2,1,2,true,d,false,true,0.0-2.0-0.56-0.510-3.510,0,0,1,68,false,stim,false,2,363.4000000001397,2,1,2,86720,task3,1245467,false,false,1609,image-keyboard-response,5
true,25,2,1,2,true,d,false,true,0.0-2.0-0.56-0.511-3.511,0,0,1,68,false,stim,false,2,484.60000000009313,2,1,2,86720,task3,1247462,false,false,1612,image-keyboard-response,6
true,25,2,1,2,true,d,false,true,0.0-2.0-0.56-0.512-3.512,0,0,1,68,false,stim,false,1,432.20000000018626,2,1,1,86720,task3,1249404,false,false,1615,image-keyboard-response,7
true,25,2,1,2,true,d,false,true,0.0-2.0-0.57-0.513-3.513,0,0,1,68,false,stim,false,1,332.89999999990687,2,1,1,86720,task3,1251247,false,false,1618,image-keyboard-response,8
true,25,1,1,1,true,z,false,true,0.0-2.0-0.57-0.514-3.514,0,0,1,90,false,stim,false,2,869.6999999999534,2,1,0,86720,task3,1253626,false,false,1621,image-keyboard-response,9
true,25,2,1,2,true,d,false,true,0.0-2.0-0.57-0.515-3.515,0,0,1,68,false,stim,false,1,533.1999999999534,2,1,1,86720,task3,1255668,false,false,1624,image-keyboard-response,10
true,25,2,1,2,true,d,false,true,0.0-2.0-0.57-0.516-3.516,0,0,1,68,false,stim,false,1,406.89999999990687,2,1,1,86720,task3,1257585,false,false,1627,image-keyboard-response,11
true,26,2,0,1,false,z,true,false,0.0-2.0-0.57-0.517-3.517,1,1,1,68,true,stim,false,1,979.6999999999534,2,1,0,86720,task3,1380454,false,false,1750,image-keyboard-response,1
true,26,2,0,2,true,d,false,true,0.0-2.0-0.57-0.518-3.518,1,1,1,68,false,stim,false,2,584.3000000000466,2,1,2,86720,task3,1382548,false,false,1753,image-keyboard-response,2
true,26,2,0,2,true,d,false,true,0.0-2.0-0.57-0.519-3.519,1,1,1,68,false,stim,false,2,676.8000000000466,2,1,2,86720,task3,1384736,false,false,1756,image-keyboard-response,3
true,26,2,0,2,true,d,false,true,0.0-2.0-0.57-0.520-3.520,1,1,1,68,false,stim,false,2,574.3000000000466,2,1,2,86720,task3,1386819,false,false,1759,image-keyboard-response,4
true,26,1,0,1,true,z,false,true,0.0-2.0-0.57-0.521-3.521,1,1,1,90,false,stim,false,1,837.8000000000466,2,1,0,86720,task3,1389166,false,false,1762,image-keyboard-response,5
true,26,2,0,2,true,d,false,true,0.0-2.0-0.58-0.522-3.522,1,1,1,68,false,stim,false,2,706.6000000000931,2,1,1,86720,task3,1391386,false,false,1765,image-keyboard-response,6
true,26,2,0,2,true,d,false,true,0.0-2.0-0.58-0.523-3.523,1,1,1,68,false,stim,false,2,677.5,2,1,2,86720,task3,1393573,false,false,1768,image-keyboard-response,7
true,26,1,0,1,true,z,false,true,0.0-2.0-0.58-0.524-3.524,1,1,1,90,false,stim,false,1,638.6999999999534,2,0,0,86720,task3,1395722,false,false,1771,image-keyboard-response,8
true,26,2,0,2,true,d,false,true,0.0-2.0-0.58-0.525-3.525,1,1,1,68,false,stim,false,2,599.3000000000466,2,0,1,86720,task3,1397832,false,false,1774,image-keyboard-response,9
true,26,1,0,1,true,z,false,true,0.0-2.0-0.58-0.526-3.526,1,1,1,90,false,stim,false,1,1633.4000000001397,2,0,0,86720,task3,1400974,false,false,1777,image-keyboard-response,10
true,26,2,0,2,true,d,false,false,0.0-2.0-0.58-0.527-3.527,1,1,1,68,false,stim,false,2,660.3000000000466,2,1,2,86720,task3,1403147,false,true,1780,image-keyboard-response,11
true,26,2,0,2,true,d,false,true,0.0-2.0-0.58-0.528-3.528,1,1,1,68,false,stim,false,2,845.8000000000466,2,1,2,86720,task3,1405503,false,false,1783,image-keyboard-response,12
true,27,1,1,1,true,z,false,false,0.0-2.0-0.58-0.529-3.529,0,0,1,90,true,stim,false,2,632.0999999998603,2,0,1,86720,task3,1407677,false,true,1786,image-keyboard-response,1
true,27,0,1,0,true,q,false,true,0.0-2.0-0.58-0.530-3.530,0,0,1,81,false,stim,false,1,1106.5,2,0,0,86720,task3,1410293,false,false,1789,image-keyboard-response,2
true,27,2,1,2,true,d,false,true,0.0-2.0-0.59-0.531-3.531,0,0,1,68,false,stim,false,2,684.1999999999534,2,1,2,86720,task3,1412489,false,false,1792,image-keyboard-response,3
true,27,0,1,1,false,z,true,false,0.0-2.0-0.59-0.532-3.532,0,0,1,81,false,stim,false,2,957.0,2,0,1,86720,task3,1414961,false,false,1795,image-keyboard-response,4
true,27,0,1,1,false,z,true,false,0.0-2.0-0.59-0.533-3.533,0,0,1,81,false,stim,false,2,696.8000000000466,2,0,1,86720,task3,1417170,false,false,1798,image-keyboard-response,5
true,27,0,1,0,true,q,false,true,0.0-2.0-0.59-0.534-3.534,0,0,1,81,false,stim,false,1,742.6000000000931,2,0,0,86720,task3,1419442,false,false,1801,image-keyboard-response,6
true,27,0,1,0,true,q,false,true,0.0-2.0-0.59-0.535-3.535,0,0,1,81,false,stim,false,1,482.89999999990687,2,0,0,86720,task3,1421474,false,false,1804,image-keyboard-response,7
true,27,2,1,2,true,d,false,false,0.0-2.0-0.59-0.536-3.536,0,0,1,68,false,stim,false,2,528.3999999999069,2,0,2,86720,task3,1423546,false,true,1807,image-keyboard-response,8
true,27,0,1,0,true,q,false,true,0.0-2.0-0.59-0.537-3.537,0,0,1,81,false,stim,false,1,679.6000000000931,2,1,0,86720,task3,1425739,false,false,1810,image-keyboard-response,9
true,27,1,1,2,false,d,true,false,0.0-2.0-0.59-0.538-3.538,0,0,1,90,false,stim,false,2,782.9000000001397,2,0,2,86720,task3,1428032,false,false,1813,image-keyboard-response,10
true,27,1,1,1,true,z,false,true,0.0-2.0-0.59-0.539-3.539,0,0,1,90,false,stim,false,2,811.5,2,1,1,86720,task3,1430354,false,false,1816,image-keyboard-response,11
true,27,0,1,0,true,q,false,true,0.0-2.0-0.60-0.540-3.540,0,0,1,81,false,stim,false,1,711.9000000001397,2,1,0,86720,task3,1432575,false,false,1819,image-keyboard-response,12
true,28,2,2,0,false,q,false,false,0.0-2.0-0.60-0.541-3.541,1,1,0,68,true,stim,true,2,652.5999999998603,2,0,2,86720,task3,1434739,false,false,1822,image-keyboard-response,1
true,28,1,2,0,false,q,true,false,0.0-2.0-0.60-0.542-3.542,1,1,0,90,false,stim,false,2,991.9000000001397,2,0,2,86720,task3,1437241,false,false,1825,image-keyboard-response,2
true,28,1,2,1,true,z,false,false,0.0-2.0-0.60-0.543-3.543,1,1,0,90,false,stim,false,1,731.3000000000466,2,1,1,86720,task3,1439483,false,true,1828,image-keyboard-response,3
true,28,0,2,0,true,q,false,true,0.0-2.0-0.60-0.544-3.544,1,1,0,81,false,stim,false,0,536.1999999999534,2,1,0,86720,task3,1441530,false,false,1831,image-keyboard-response,4
true,28,2,2,1,false,z,true,false,0.0-2.0-0.60-0.545-3.545,1,1,0,68,false,stim,false,1,735.0,2,1,1,86720,task3,1443775,false,false,1834,image-keyboard-response,5
true,28,1,2,1,true,z,false,true,0.0-2.0-0.60-0.546-3.546,1,1,0,90,false,stim,false,1,662.8999999999069,2,1,1,86720,task3,1445947,false,false,1837,image-keyboard-response,6
true,28,2,2,0,false,q,false,false,0.0-2.0-0.60-0.547-3.547,1,1,0,68,false,stim,true,2,831.5,2,0,2,86720,task3,1448291,false,false,1840,image-keyboard-response,7
true,28,0,2,0,true,q,false,true,0.0-2.0-0.60-0.548-3.548,1,1,0,81,false,stim,false,0,561.8000000000466,2,0,0,86720,task3,1450365,false,false,1843,image-keyboard-response,8
true,28,1,2,0,false,q,true,false,0.0-2.0-0.61-0.549-3.549,1,1,0,90,false,stim,false,2,834.5999999998603,2,1,2,86720,task3,1452710,false,false,1846,image-keyboard-response,9
true,28,0,2,0,true,q,false,true,0.0-2.0-0.61-0.550-3.550,1,1,0,81,false,stim,false,2,904.0999999998603,2,1,2,86720,task3,1455125,false,false,1849,image-keyboard-response,10
true,28,1,2,1,true,z,false,true,0.0-2.0-0.61-0.551-3.551,1,1,0,90,false,stim,false,1,747.8999999999069,2,0,1,86720,task3,1457383,false,false,1852,image-keyboard-response,11
true,28,0,2,0,true,q,false,true,0.0-2.0-0.61-0.552-3.552,1,1,0,81,false,stim,false,0,632.6000000000931,2,0,0,86720,task3,1459526,false,false,1855,image-keyboard-response,12
true,29,0,1,1,false,z,false,false,0.0-2.0-0.61-0.553-3.553,0,0,1,81,true,stim,true,0,692.5,2,0,0,86720,task3,1461728,false,false,1858,image-keyboard-response,1
true,29,0,1,1,false,z,false,false,0.0-2.0-0.61-0.554-3.554,0,0,1,81,false,stim,true,0,761.3999999999069,2,0,0,86720,task3,1463998,false,false,1861,image-keyboard-response,2
true,29,1,1,2,false,d,false,true,0.0-2.0-0.61-0.555-3.555,0,0,1,90,false,stim,true,1,1041.0,2,0,1,86720,task3,1466550,false,true,1864,image-keyboard-response,3
true,29,1,1,2,false,d,false,false,0.0-2.0-0.61-0.556-3.556,0,0,1,90,false,stim,true,1,589.5,2,0,1,86720,task3,1468650,false,false,1867,image-keyboard-response,4
true,29,0,1,0,true,q,false,true,0.0-2.0-0.61-0.557-3.557,0,0,1,81,false,stim,false,0,803.3000000000466,2,1,2,86720,task3,1470963,false,false,1870,image-keyboard-response,5
true,29,0,1,1,false,z,false,false,0.0-2.0-0.62-0.558-3.558,0,0,1,81,false,stim,true,0,500.89999999990687,2,0,0,86720,task3,1472979,false,false,1873,image-keyboard-response,6
true,29,0,1,0,true,q,false,true,0.0-2.0-0.62-0.559-3.559,0,0,1,81,false,stim,false,0,1381.1000000000931,2,1,2,86720,task3,1475871,false,false,1876,image-keyboard-response,7
true,29,0,1,0,true,q,false,true,0.0-2.0-0.62-0.560-3.560,0,0,1,81,false,stim,false,0,1795.3000000000466,2,1,2,86720,task3,1479175,false,false,1879,image-keyboard-response,8
true,29,2,1,1,false,z,true,false,0.0-2.0-0.62-0.561-3.561,0,0,1,68,false,stim,false,0,979.7000000001863,2,0,0,86720,task3,1481667,false,false,1882,image-keyboard-response,9
true,29,1,1,2,false,d,false,false,0.0-2.0-0.62-0.562-3.562,0,0,1,90,false,stim,true,1,832.6999999999534,2,0,1,86720,task3,1484009,false,false,1885,image-keyboard-response,10
true,29,0,1,0,true,q,false,true,0.0-2.0-0.62-0.563-3.563,0,0,1,81,false,stim,false,0,854.6999999999534,2,1,2,86720,task3,1486373,false,false,1888,image-keyboard-response,11
true,29,1,1,2,false,d,false,false,0.0-2.0-0.62-0.564-3.564,0,0,1,90,false,stim,true,1,873.1000000000931,2,0,1,86720,task3,1488757,false,false,1891,image-keyboard-response,12
true,29,1,1,1,true,z,false,true,0.0-2.0-0.62-0.565-3.565,0,0,1,90,false,stim,false,0,1413.1000000000931,2,0,0,86720,task3,1491681,false,false,1894,image-keyboard-response,13
true,29,1,1,2,false,d,false,false,0.0-2.0-0.62-0.566-3.566,0,0,1,90,false,stim,true,1,1393.1999999999534,2,0,1,86720,task3,1494585,false,false,1897,image-keyboard-response,14
true,29,1,1,2,false,d,false,false,0.0-2.0-0.63-0.567-3.567,0,0,1,90,false,stim,true,1,1617.5,2,0,1,86720,task3,1497714,false,false,1900,image-keyboard-response,15
true,29,2,1,0,false,q,true,false,0.0-2.0-0.63-0.568-3.568,0,0,1,68,false,stim,false,0,1211.9000000001397,2,1,2,86720,task3,1500495,false,false,1903,image-keyboard-response,16
true,29,1,1,0,false,q,true,false,0.0-2.0-0.63-0.569-3.569,0,0,1,90,false,stim,false,0,633.3000000000466,2,1,2,86720,task3,1502641,false,false,1906,image-keyboard-response,17
true,29,0,1,1,false,z,false,false,0.0-2.0-0.63-0.570-3.570,0,0,1,81,false,stim,true,0,588.5,2,0,0,86720,task3,1504740,false,false,1909,image-keyboard-response,18
true,29,1,1,1,true,z,false,true,0.0-2.0-0.63-0.571-3.571,0,0,1,90,false,stim,false,0,732.4000000001397,2,0,0,86720,task3,1506984,false,false,1912,image-keyboard-response,19
true,29,1,1,1,true,z,false,true,0.0-2.0-0.63-0.572-3.572,0,0,1,90,false,stim,false,0,618.0,2,0,0,86720,task3,1509112,false,false,1915,image-keyboard-response,20
true,29,2,1,0,false,q,true,false,0.0-2.0-0.63-0.573-3.573,0,0,1,68,false,stim,false,0,672.0,2,1,2,86720,task3,1511294,false,false,1918,image-keyboard-response,21
true,29,1,1,2,false,d,false,false,0.0-2.0-0.63-0.574-3.574,0,0,1,90,false,stim,true,1,714.3000000000466,2,0,1,86720,task3,1513518,false,false,1921,image-keyboard-response,22
true,29,0,1,2,false,d,true,false,0.0-2.0-0.63-0.575-3.575,0,0,1,81,false,stim,false,1,806.0,2,0,1,86720,task3,1515835,false,false,1924,image-keyboard-response,23
true,29,2,1,0,false,q,true,false,0.0-2.0-0.64-0.576-3.576,0,0,1,68,false,stim,false,0,1661.8999999999069,2,1,2,86720,task3,1519008,false,false,1927,image-keyboard-response,24
true,29,1,1,2,false,d,false,false,0.0-2.0-0.64-0.577-3.577,0,0,1,90,false,stim,true,1,771.3999999999069,2,0,1,86720,task3,1521292,false,false,1930,image-keyboard-response,25
true,29,0,1,1,false,z,false,false,0.0-2.0-0.64-0.578-3.578,0,0,1,81,false,stim,true,0,1257.5999999998603,2,1,0,86720,task3,1524059,false,false,1933,image-keyboard-response,26
true,29,1,1,0,false,q,true,false,0.0-2.0-0.64-0.579-3.579,0,0,1,90,false,stim,false,0,613.0,2,1,2,86720,task3,1526182,false,false,1936,image-keyboard-response,27
true,30,2,2,1,false,z,true,false,0.0-2.0-0.64-0.580-3.580,1,0,1,68,true,stim,false,1,609.8999999999069,2,1,0,86720,task3,1528303,false,false,1939,image-keyboard-response,1
true,30,1,2,1,true,z,false,true,0.0-2.0-0.64-0.581-3.581,1,0,1,90,false,stim,false,1,1075.6999999999534,2,1,0,86720,task3,1530889,false,false,1942,image-keyboard-response,2
true,30,0,2,1,false,z,true,false,0.0-2.0-0.64-0.582-3.582,1,0,1,81,false,stim,false,2,885.8000000000466,2,0,1,86720,task3,1533287,false,false,1945,image-keyboard-response,3
true,30,0,2,1,false,z,true,false,0.0-2.0-0.64-0.583-3.583,1,0,1,81,false,stim,false,2,643.1999999999534,2,0,1,86720,task3,1535441,false,false,1948,image-keyboard-response,4
true,30,1,2,0,false,q,true,false,0.0-2.0-0.64-0.584-3.584,1,0,1,90,false,stim,false,0,966.5,2,1,2,86720,task3,1537918,false,false,1951,image-keyboard-response,5
true,30,0,2,1,false,z,true,false,0.0-2.0-0.65-0.585-3.585,1,0,1,81,false,stim,false,2,962.3999999999069,2,0,1,86720,task3,1540392,false,false,1954,image-keyboard-response,6
true,30,1,2,0,false,q,true,false,0.0-2.0-0.65-0.586-3.586,1,0,1,90,false,stim,false,0,847.3999999999069,2,1,2,86720,task3,1542785,false,false,1957,image-keyboard-response,7
true,30,2,2,1,false,z,false,false,0.0-2.0-0.65-0.587-3.587,1,0,1,68,false,stim,true,2,630.8000000000466,2,0,1,86720,task3,1544928,false,false,1960,image-keyboard-response,8
true,30,1,2,1,true,z,false,true,0.0-2.0-0.65-0.588-3.588,1,0,1,90,false,stim,false,2,794.1000000000931,2,0,1,86720,task3,1547232,false,false,1963,image-keyboard-response,9
true,30,0,2,1,false,z,true,false,0.0-2.0-0.65-0.589-3.589,1,0,1,81,false,stim,false,1,676.3000000000466,2,1,0,86720,task3,1549418,false,false,1966,image-keyboard-response,10
true,30,1,2,1,true,z,false,true,0.0-2.0-0.65-0.590-3.590,1,0,1,90,false,stim,false,1,413.80000000004657,2,1,0,86720,task3,1551343,false,false,1969,image-keyboard-response,11
