answered,blockNum,choice,condition,corResp,correct,correct_response,explo,fb,internal_node_id,isStable_1,isStable_2,isStable_3,key_press,newBlock,part,persev,persevResp,rt,sessNum,stableAS,stimulus,subject,task,time_elapsed,training,trap,trial_index,trial_type,trialsInBlock
true,1,1,0,2,false,d,true,false,0.0-2.0-0.0-0.0-3.0,0,0,0,90,true,stim,false,-1,868.5999999999767,0,0,0,86720,task2,253758,false,false,79,image-keyboard-response,1
true,1,1,0,1,true,z,false,true,0.0-2.0-0.0-0.1-3.1,0,0,0,90,false,stim,false,-1,645.9000000000233,0,0,1,86720,task2,255910,false,false,82,image-keyboard-response,2
true,1,1,0,1,true,z,false,true,0.0-2.0-0.0-0.2-3.2,0,0,0,90,false,stim,false,-1,782.0999999999767,0,0,1,86720,task2,258197,false,false,85,image-keyboard-response,3
true,1,2,0,1,false,z,true,false,0.0-2.0-0.0-0.3-3.3,0,0,0,68,false,stim,false,-1,1223.1999999999534,0,0,2,86720,task2,260926,false,false,88,image-keyboard-response,4
true,1,1,0,1,true,z,false,true,0.0-2.0-0.0-0.4-3.4,0,0,0,90,false,stim,false,-1,414.4000000000233,0,0,2,86720,task2,262847,false,false,91,image-keyboard-response,5
true,1,0,0,2,false,d,true,false,0.0-2.0-0.0-0.5-3.5,0,0,0,81,false,stim,false,-1,391.9000000000233,0,0,0,86720,task2,264746,false,false,94,image-keyboard-response,6
true,1,2,0,2,true,d,false,true,0.0-2.0-0.0-0.6-3.6,0,0,0,68,false,stim,false,-1,411.20000000006985,0,0,0,86720,task2,266662,false,false,97,image-keyboard-response,7
true,1,1,0,1,true,z,false,false,0.0-2.0-0.0-0.7-3.7,0,0,0,90,false,stim,false,-1,610.9000000000233,0,0,1,86720,task2,268779,false,true,100,image-keyboard-response,8
true,1,1,0,1,true,z,false,true,0.0-2.0-0.0-0.8-3.8,0,0,0,90,false,stim,false,-1,335.70000000006985,0,0,2,86720,task2,270622,false,false,103,image-keyboard-response,9
true,1,1,0,1,true,z,false,true,0.0-2.0-0.1-0.9-3.9,0,0,0,90,false,stim,false,-1,454.0,0,0,2,86720,task2,272581,false,false,106,image-keyboard-response,10
true,1,1,0,1,true,z,false,true,0.0-2.0-0.1-0.10-3.10,0,0,0,90,false,stim,false,-1,769.3000000000466,0,0,2,86720,task2,274856,false,false,109,image-keyboard-response,11
true,1,1,0,1,true,z,false,false,0.0-2.0-0.1-0.11-3.11,0,0,0,90,false,stim,false,-1,556.5999999999767,0,0,1,86720,task2,276920,false,true,112,image-keyboard-response,12
true,1,1,0,1,true,z,false,true,0.0-2.0-0.1-0.12-3.12,0,0,0,90,false,stim,false,-1,878.5,0,0,1,86720,task2,279305,false,false,115,image-keyboard-response,13
true,1,2,0,2,true,d,false,true,0.0-2.0-0.1-0.13-3.13,0,0,0,68,false,stim,false,-1,533.5,0,0,0,86720,task2,281344,false,false,118,image-keyboard-response,14
true,1,1,0,1,true,z,false,false,0.0-2.0-0.1-0.14-3.14,0,0,0,90,false,stim,false,-1,387.19999999995343,0,0,2,86720,task2,283236,false,true,121,image-keyboard-response,15
true,1,2,0,2,true,d,false,true,0.0-2.0-0.1-0.15-3.15,0,0,0,68,false,stim,false,-1,591.4000000000233,0,0,0,86720,task2,285334,false,false,124,image-keyboard-response,16
true,1,2,0,2,true,d,false,true,0.0-2.0-0.1-0.16-3.16,0,0,0,68,false,stim,false,-1,629.3000000000466,0,0,0,86720,task2,287469,false,false,127,image-keyboard-response,17
true,1,1,0,1,true,z,false,true,0.0-2.0-0.1-0.17-3.17,0,0,0,90,false,stim,false,-1,686.7000000000698,0,0,1,86720,task2,289661,false,false,130,image-keyboard-response,18
true,1,0,0,1,false,z,true,false,0.0-2.0-0.2-0.18-3.18,0,0,0,81,false,stim,false,-1,621.8000000000466,0,0,2,86720,task2,291788,false,false,133,image-keyboard-response,19
true,1,2,0,2,true,d,false,false,0.0-2.0-0.2-0.19-3.19,0,0,0,68,false,stim,false,-1,416.30000000004657,0,0,0,86720,task2,293710,false,true,136,image-keyboard-response,20
true,1,1,0,1,true,z,false,true,0.0-2.0-0.2-0.20-3.20,0,0,0,90,false,stim,false,-1,765.9000000000233,0,0,1,86720,task2,295981,false,false,139,image-keyboard-response,21
true,1,2,0,2,true,d,false,true,0.0-2.0-0.2-0.21-3.21,0,0,0,68,false,stim,false,-1,777.7000000000698,0,0,0,86720,task2,298264,false,false,142,image-keyboard-response,22
true,1,2,0,1,false,z,true,false,0.0-2.0-0.2-0.22-3.22,0,0,0,68,false,stim,false,-1,468.5,0,0,2,86720,task2,300238,false,false,145,image-keyboard-response,23
true,1,1,0,1,true,z,false,true,0.0-2.0-0.2-0.23-3.23,0,0,0,90,false,stim,false,-1,640.5999999999767,0,0,2,86720,task2,302384,false,false,148,image-keyboard-response,24
true,1,2,0,2,true,d,false,true,0.0-2.0-0.2-0.24-3.24,0,0,0,68,false,stim,false,-1,670.2999999999302,0,0,0,86720,task2,304562,false,false,151,image-keyboard-response,25
true,1,1,0,1,true,z,false,true,0.0-2.0-0.2-0.25-3.25,0,0,0,90,false,stim,false,-1,415.19999999995343,0,0,1,86720,task2,306483,false,false,154,image-keyboard-response,26
true,2,1,1,2,false,d,false,false,0.0-2.0-0.2-0.26-3.26,0,0,0,90,true,stim,true,1,366.5999999999767,0,0,1,86720,task2,308356,false,false,157,image-keyboard-response,1
true,2,2,1,1,false,z,false,false,0.0-2.0-0.3-0.27-3.27,0,0,0,68,false,stim,true,2,409.4000000000233,0,0,0,86720,task2,310271,false,false,160,image-keyboard-response,2
true,2,1,1,2,false,d,false,true,0.0-2.0-0.3-0.28-3.28,0,0,0,90,false,stim,true,1,769.4000000000233,0,0,1,86720,task2,312546,false,true,163,image-keyboard-response,3
true,2,1,1,2,false,d,false,false,0.0-2.0-0.3-0.29-3.29,0,0,0,90,false,stim,true,1,422.0999999999767,0,0,1,86720,task2,314473,false,false,166,image-keyboard-response,4
true,2,1,1,2,false,d,false,false,0.0-2.0-0.3-0.30-3.30,0,0,0,90,false,stim,true,1,602.0,0,0,2,86720,task2,316581,false,false,169,image-keyboard-response,5
true,2,1,1,2,false,d,false,true,0.0-2.0-0.3-0.31-3.31,0,0,0,90,false,stim,true,1,400.80000000004657,0,0,2,86720,task2,318488,false,true,172,image-keyboard-response,6
true,2,2,1,1,false,z,false,false,0.0-2.0-0.3-0.32-3.32,0,0,0,68,false,stim,true,2,544.2000000000698,0,0,0,86720,task2,320537,false,false,175,image-keyboard-response,7
true,2,1,1,2,false,d,false,false,0.0-2.0-0.3-0.33-3.33,0,0,0,90,false,stim,true,1,557.5,0,0,1,86720,task2,322601,false,false,178,image-keyboard-response,8
true,2,1,1,2,false,d,false,false,0.0-2.0-0.3-0.34-3.34,0,0,0,90,false,stim,true,1,568.0,0,0,2,86720,task2,324674,false,false,181,image-keyboard-response,9
true,2,0,1,1,false,z,true,false,0.0-2.0-0.3-0.35-3.35,0,0,0,81,false,stim,false,2,797.0999999999767,0,0,0,86720,task2,326978,false,false,184,image-keyboard-response,10
true,2,0,1,2,false,d,true,false,0.0-2.0-0.4-0.36-3.36,0,0,0,81,false,stim,false,1,837.6999999999534,0,0,1,86720,task2,329321,false,false,187,image-keyboard-response,11
true,2,2,1,2,true,d,false,true,0.0-2.0-0.4-0.37-3.37,0,0,0,68,false,stim,false,1,1074.4000000000233,0,0,1,86720,task2,331901,false,false,190,image-keyboard-response,12
true,2,2,1,2,true,d,false,true,0.0-2.0-0.4-0.38-3.38,0,0,0,68,false,stim,false,1,1320.2999999999302,0,0,2,86720,task2,334727,false,false,193,image-keyboard-response,13
true,2,2,1,2,true,d,false,true,0.0-2.0-0.4-0.39-3.39,0,0,0,68,false,stim,false,1,937.8000000000466,0,0,1,86720,task2,337172,false,false,196,image-keyboard-response,14
true,2,0,1,1,false,z,true,false,0.0-2.0-0.4-0.40-3.40,0,0,0,81,false,stim,false,2,532.3000000000466,0,0,0,86720,task2,339210,false,false,199,image-keyboard-response,15
true,2,1,1,1,true,z,false,true,0.0-2.0-0.4-0.41-3.41,0,0,0,90,false,stim,false,2,499.5,0,0,0,86720,task2,341218,false,false,202,image-keyboard-response,16
true,2,1,1,1,true,z,false,true,0.0-2.0-0.4-0.42-3.42,0,0,0,90,false,stim,false,2,417.80000000004657,0,0,0,86720,task2,343142,false,false,205,image-keyboard-response,17
true,2,2,1,2,true,d,false,true,0.0-2.0-0.4-0.43-3.43,0,0,0,68,false,stim,false,1,577.5,0,0,2,86720,task2,345224,false,false,208,image-keyboard-response,18
true,2,2,1,2,true,d,false,true,0.0-2.0-0.4-0.44-3.44,0,0,0,68,false,stim,false,1,448.39999999990687,0,0,2,86720,task2,347178,false,false,211,image-keyboard-response,19
true,2,1,1,1,true,z,false,true,0.0-2.0-0.5-0.45-3.45,0,0,0,90,false,stim,false,2,561.7000000000698,0,0,0,86720,task2,349246,false,false,214,image-keyboard-response,20
true,2,2,1,2,true,d,false,true,0.0-2.0-0.5-0.46-3.46,0,0,0,68,false,stim,false,1,748.5,0,0,2,86720,task2,351500,false,false,217,image-keyboard-response,21
true,2,1,1,1,true,z,false,true,0.0-2.0-0.5-0.47-3.47,0,0,0,90,false,stim,false,2,643.4000000000233,0,0,0,86720,task2,353648,false,false,220,image-keyboard-response,22
true,2,2,1,2,true,d,false,true,0.0-2.0-0.5-0.48-3.48,0,0,0,68,false,stim,false,1,884.4000000000233,0,0,1,86720,task2,356039,false,false,223,image-keyboard-response,23
true,2,1,1,1,true,z,false,true,0.0-2.0-0.5-0.49-3.49,0,0,0,90,false,stim,false,2,721.9000000000233,0,0,0,86720,task2,358266,false,false,226,image-keyboard-response,24
true,2,2,1,2,true,d,false,true,0.0-2.0-0.5-0.50-3.50,0,0,0,68,false,stim,false,1,1100.8000000000466,0,0,1,86720,task2,360873,false,false,229,image-keyboard-response,25
true,2,2,1,2,true,d,false,true,0.0-2.0-0.5-0.51-3.51,0,0,0,68,false,stim,false,1,743.5999999999767,0,0,2,86720,task2,363124,false,false,232,image-keyboard-response,26
true,2,2,1,2,true,d,false,true,0.0-2.0-0.5-0.52-3.52,0,0,0,68,false,stim,false,1,685.0,0,0,2,86720,task2,365317,false,false,235,image-keyboard-response,27
true,2,2,1,2,true,d,false,true,0.0-2.0-0.5-0.53-3.53,0,0,0,68,false,stim,false,1,695.3000000000466,0,0,1,86720,task2,367517,false,false,238,image-keyboard-response,28
true,2,2,1,2,true,d,false,true,0.0-2.0-0.6-0.54-3.54,0,0,0,68,false,stim,false,1,489.60000000009313,0,0,1,86720,task2,369513,false,false,241,image-keyboard-response,29
true,2,2,1,2,true,d,false,true,0.0-2.0-0.6-0.55-3.55,0,0,0,68,false,stim,false,1,538.5,0,0,1,86720,task2,371557,false,false,244,image-keyboard-response,30
true,2,2,1,2,true,d,false,true,0.0-2.0-0.6-0.56-3.56,0,0,0,68,false,stim,false,1,577.5,0,0,2,86720,task2,373640,false,false,247,image-keyboard-response,31
true,2,2,1,2,true,d,false,true,0.0-2.0-0.6-0.57-3.57,0,0,0,68,false,stim,false,1,549.3999999999069,0,0,2,86720,task2,375695,false,false,250,image-keyboard-response,32
true,2,1,1,1,true,z,false,true,0.0-2.0-0.6-0.58-3.58,0,0,0,90,false,stim,false,2,759.0999999999767,0,1,0,86720,task2,377960,false,false,253,image-keyboard-response,33
true,2,1,1,1,true,z,false,true,0.0-2.0-0.6-0.59-3.59,0,0,0,90,false,stim,false,2,748.0999999999767,0,1,0,86720,task2,380214,false,false,256,image-keyboard-response,34
true,2,2,1,2,true,d,false,true,0.0-2.0-0.6-0.60-3.60,0,0,0,68,false,stim,false,1,575.2999999999302,0,0,1,86720,task2,382295,false,false,259,image-keyboard-response,35
true,3,1,2,1,true,z,false,true,0.0-2.0-0.6-0.61-3.61,1,0,0,90,true,stim,false,1,575.4000000000233,0,1,0,86720,task2,384376,false,false,262,image-keyboard-response,1
true,3,2,2,0,false,q,false,false,0.0-2.0-0.6-0.62-3.62,1,0,0,68,false,stim,true,2,1084.0999999999767,0,0,2,86720,task2,386966,false,false,265,image-keyboard-response,2
true,3,1,2,1,true,z,false,true,0.0-2.0-0.7-0.63-3.63,1,0,0,90,false,stim,false,1,800.5,0,1,0,86720,task2,389274,false,false,268,image-keyboard-response,3
true,3,2,2,1,false,z,false,false,0.0-2.0-0.7-0.64-3.64,1,0,0,68,false,stim,true,2,507.80000000004657,0,0,1,86720,task2,391287,false,false,271,image-keyboard-response,4
true,3,1,2,1,true,z,false,true,0.0-2.0-0.7-0.65-3.65,1,0,0,90,false,stim,false,1,638.8000000000466,0,1,0,86720,task2,393431,false,false,274,image-keyboard-response,5
true,3,2,2,0,false,q,false,false,0.0-2.0-0.7-0.66-3.66,1,0,0,68,false,stim,true,2,436.70000000006985,0,0,2,86720,task2,395374,false,false,277,image-keyboard-response,6
true,3,1,2,1,true,z,false,true,0.0-2.0-0.7-0.67-3.67,1,0,0,90,false,stim,false,1,711.0,0,1,0,86720,task2,397591,false,false,280,image-keyboard-response,7
true,3,0,2,0,true,q,false,true,0.0-2.0-0.7-0.68-3.68,1,0,0,81,false,stim,false,2,455.80000000004657,0,0,2,86720,task2,399552,false,false,283,image-keyboard-response,8
true,3,2,2,1,false,z,false,false,0.0-2.0-0.7-0.69-3.69,1,0,0,68,false,stim,true,2,1213.1000000000931,0,0,1,86720,task2,402270,false,false,286,image-keyboard-response,9
true,3,1,2,1,true,z,false,true,0.0-2.0-0.7-0.70-3.70,1,0,0,90,false,stim,false,2,830.0,0,0,1,86720,task2,404606,false,false,289,image-keyboard-response,10
true,3,0,2,0,true,q,false,false,0.0-2.0-0.7-0.71-3.71,1,0,0,81,false,stim,false,2,678.5,0,0,2,86720,task2,406791,false,true,292,image-keyboard-response,11
true,3,0,2,0,true,q,false,true,0.0-2.0-0.8-0.72-3.72,1,0,0,81,false,stim,false,2,484.0,0,0,2,86720,task2,408782,false,false,295,image-keyboard-response,12
true,3,1,2,1,true,z,false,true,0.0-2.0-0.8-0.73-3.73,1,0,0,90,false,stim,false,1,399.30000000004657,0,1,0,86720,task2,410687,false,false,298,image-keyboard-response,13
true,3,1,2,1,true,z,false,true,0.0-2.0-0.8-0.74-3.74,1,0,0,90,false,stim,false,2,434.5,0,0,1,86720,task2,412631,false,false,301,image-keyboard-response,14
true,3,1,2,1,true,z,false,true,0.0-2.0-0.8-0.75-3.75,1,0,0,90,false,stim,false,2,868.9000000000233,0,0,1,86720,task2,415005,false,false,304,image-keyboard-response,15
true,3,0,2,0,true,q,false,true,0.0-2.0-0.8-0.76-3.76,1,0,0,81,false,stim,false,2,615.2999999999302,0,0,2,86720,task2,417127,false,false,307,image-keyboard-response,16
true,3,0,2,0,true,q,false,true,0.0-2.0-0.8-0.77-3.77,1,0,0,81,false,stim,false,2,1037.1000000000931,0,0,2,86720,task2,419670,false,false,310,image-keyboard-response,17
true,3,1,2,1,true,z,false,true,0.0-2.0-0.8-0.78-3.78,1,0,0,90,false,stim,false,1,1485.5999999999767,0,1,0,86720,task2,422661,false,false,313,image-keyboard-response,18
true,3,1,2,1,true,z,false,true,0.0-2.0-0.8-0.79-3.79,1,0,0,90,false,stim,false,1,915.9000000000233,0,1,0,86720,task2,425085,false,false,316,image-keyboard-response,19
true,3,1,2,1,true,z,false,false,0.0-2.0-0.8-0.80-3.80,1,0,0,90,false,stim,false,2,1284.2000000000698,0,0,1,86720,task2,427876,false,true,319,image-keyboard-response,20
true,3,1,2,1,true,z,false,false,0.0-2.0-0.9-0.81-3.81,1,0,0,90,false,stim,false,2,564.5999999999767,0,0,1,86720,task2,429946,false,true,322,image-keyboard-response,21
true,3,0,2,1,false,z,true,true,0.0-2.0-0.9-0.82-3.82,1,0,0,81,false,stim,false,2,671.9000000000233,0,0,1,86720,task2,432123,false,true,325,image-keyboard-response,22
true,3,1,2,1,true,z,false,true,0.0-2.0-0.9-0.83-3.83,1,0,0,90,false,stim,false,1,1218.4000000000233,0,1,0,86720,task2,434848,false,false,328,image-keyboard-response,23
true,3,1,2,1,true,z,false,true,0.0-2.0-0.9-0.84-3.84,1,0,0,90,false,stim,false,1,784.6999999999534,0,1,0,86720,task2,437139,false,false,331,image-keyboard-response,24
true,3,0,2,1,false,z,true,false,0.0-2.0-0.9-0.85-3.85,1,0,0,81,false,stim,false,2,794.0,0,0,1,86720,task2,439438,false,false,334,image-keyboard-response,25
true,3,0,2,0,true,q,false,true,0.0-2.0-0.9-0.86-3.86,1,0,0,81,false,stim,false,2,554.8000000000466,0,0,2,86720,task2,441499,false,false,337,image-keyboard-response,26
true,3,1,2,1,true,z,false,false,0.0-2.0-0.9-0.87-3.87,1,0,0,90,false,stim,false,1,768.1999999999534,0,1,0,86720,task2,443773,false,true,340,image-keyboard-response,27
true,3,0,2,0,true,q,false,false,0.0-2.0-0.9-0.88-3.88,1,0,0,81,false,stim,false,2,659.1000000000931,0,0,2,86720,task2,445938,false,true,343,image-keyboard-response,28
true,3,2,2,0,false,q,false,false,0.0-2.0-0.9-0.89-3.89,1,0,0,68,false,stim,true,2,1381.8000000000466,0,0,2,86720,task2,448826,false,false,346,image-keyboard-response,29
true,3,1,2,0,false,q,true,false,0.0-2.0-0.10-0.90-3.90,1,0,0,90,false,stim,false,2,472.5,0,0,2,86720,task2,450805,false,false,349,image-keyboard-response,30
true,3,0,2,0,true,q,false,true,0.0-2.0-0.10-0.91-3.91,1,0,0,81,false,stim,false,2,445.19999999995343,0,0,2,86720,task2,452756,false,false,352,image-keyboard-response,31
true,3,1,2,1,true,z,false,true,0.0-2.0-0.10-0.92-3.92,1,0,0,90,false,stim,false,1,928.0999999999767,0,0,0,86720,task2,455190,false,false,355,image-keyboard-response,32
true,3,1,2,1,true,z,false,true,0.0-2.0-0.10-0.93-3.93,1,0,0,90,false,stim,false,1,535.5999999999767,0,0,0,86720,task2,457231,false,false,358,image-keyboard-response,33
true,3,0,2,1,false,z,true,false,0.0-2.0-0.10-0.94-3.94,1,0,0,81,false,stim,false,2,720.8000000000466,0,0,1,86720,task2,459457,false,false,361,image-keyboard-response,34
true,4,0,1,2,false,d,true,false,0.0-2.0-0.10-0.95-3.95,0,0,0,81,true,stim,false,1,423.30000000004657,0,0,1,86720,task2,461386,false,false,364,image-keyboard-response,1
true,4,1,1,0,false,q,false,false,0.0-2.0-0.10-0.96-3.96,0,0,0,90,false,stim,true,1,771.3000000000466,0,0,0,86720,task2,463663,false,false,367,image-keyboard-response,2
true,4,0,1,1,false,z,false,false,0.0-2.0-0.10-0.97-3.97,0,0,0,81,false,stim,true,0,1306.5999999999767,0,0,2,86720,task2,466475,false,false,370,image-keyboard-response,3
true,4,1,1,2,false,d,false,false,0.0-2.0-0.10-0.98-3.98,0,0,0,90,false,stim,true,1,799.2000000000698,0,0,1,86720,task2,468780,false,false,373,image-keyboard-response,4
true,4,0,1,1,false,z,false,true,0.0-2.0-0.11-0.99-3.99,0,0,0,81,false,stim,true,0,860.2999999999302,0,0,2,86720,task2,471147,false,true,376,image-keyboard-response,5
true,4,2,1,0,false,q,true,false,0.0-2.0-0.11-0.100-3.100,0,0,0,68,false,stim,false,1,1333.0999999999767,0,0,0,86720,task2,473987,false,false,379,image-keyboard-response,6
true,4,2,1,2,true,d,false,true,0.0-2.0-0.11-0.101-3.101,0,0,0,68,false,stim,false,1,610.0,0,0,1,86720,task2,476103,false,false,382,image-keyboard-response,7
true,4,2,1,2,true,d,false,true,0.0-2.0-0.11-0.102-3.102,0,0,0,68,false,stim,false,1,616.8999999999069,0,0,1,86720,task2,478225,false,false,385,image-keyboard-response,8
true,4,1,1,0,false,q,false,false,0.0-2.0-0.11-0.103-3.103,0,0,0,90,false,stim,true,1,766.4000000000233,0,0,0,86720,task2,480498,false,false,388,image-keyboard-response,9
true,4,0,1,0,true,q,false,true,0.0-2.0-0.11-0.104-3.104,0,0,0,81,false,stim,false,1,550.0999999999767,0,0,0,86720,task2,482553,false,false,391,image-keyboard-response,10
true,4,2,1,2,true,d,false,true,0.0-2.0-0.11-0.105-3.105,0,0,0,68,false,stim,false,1,694.4000000000233,0,0,1,86720,task2,484756,false,false,394,image-keyboard-response,11
true,4,0,1,1,false,z,false,false,0.0-2.0-0.11-0.106-3.106,0,0,0,81,false,stim,true,0,581.8999999999069,0,0,2,86720,task2,486936,false,false,397,image-keyboard-response,12
true,4,0,1,1,false,z,false,false,0.0-2.0-0.11-0.107-3.107,0,0,0,81,false,stim,true,0,468.4000000000233,0,0,2,86720,task2,488911,false,false,400,image-keyboard-response,13
true,4,2,1,2,true,d,false,true,0.0-2.0-0.12-0.108-3.108,0,0,0,68,false,stim,false,1,744.2000000000698,0,0,1,86720,task2,491166,false,false,403,image-keyboard-response,14
true,4,2,1,2,true,d,false,false,0.0-2.0-0.12-0.109-3.109,0,0,0,68,false,stim,false,1,541.3000000000466,0,0,1,86720,task2,493213,false,true,406,image-keyboard-response,15
true,4,0,1,0,true,q,false,true,0.0-2.0-0.12-0.110-3.110,0,0,0,81,false,stim,false,1,1170.5,0,0,0,86720,task2,495889,false,false,409,image-keyboard-response,16
true,4,0,1,0,true,q,false,true,0.0-2.0-0.12-0.111-3.111,0,0,0,81,false,stim,false,1,948.6000000000931,0,0,0,86720,task2,498343,false,false,412,image-keyboard-response,17
true,4,2,1,2,true,d,false,true,0.0-2.0-0.12-0.112-3.112,0,0,0,68,false,stim,false,1,779.6999999999534,0,0,1,86720,task2,500629,false,false,415,image-keyboard-response,18
true,4,1,1,1,true,z,false,true,0.0-2.0-0.12-0.113-3.113,0,0,0,90,false,stim,false,0,707.0999999999767,0,0,2,86720,task2,502841,false,false,418,image-keyboard-response,19
true,4,0,1,0,true,q,false,false,0.0-2.0-0.12-0.114-3.114,0,0,0,81,false,stim,false,1,884.5,0,0,0,86720,task2,505233,false,true,421,image-keyboard-response,20
true,4,1,1,1,true,z,false,true,0.0-2.0-0.12-0.115-3.115,0,0,0,90,false,stim,false,0,566.0,0,0,2,86720,task2,507304,false,false,424,image-keyboard-response,21
true,4,1,1,1,true,z,false,true,0.0-2.0-0.12-0.116-3.116,0,0,0,90,false,stim,false,0,653.6999999999534,0,0,2,86720,task2,509464,false,false,427,image-keyboard-response,22
true,4,1,1,1,true,z,false,true,0.0-2.0-0.13-0.117-3.117,0,0,0,90,false,stim,false,0,1065.5999999999185,0,0,2,86720,task2,512036,false,false,430,image-keyboard-response,23
true,4,0,1,0,true,q,false,true,0.0-2.0-0.13-0.118-3.118,0,0,0,81,false,stim,false,1,1027.0,0,0,0,86720,task2,514569,false,false,433,image-keyboard-response,24
true,4,2,1,2,true,d,false,true,0.0-2.0-0.13-0.119-3.119,0,0,0,68,false,stim,false,1,859.5,0,0,1,86720,task2,516936,false,false,436,image-keyboard-response,25
true,4,0,1,0,true,q,false,true,0.0-2.0-0.13-0.120-3.120,0,0,0,81,false,stim,false,1,867.6999999999534,0,0,0,86720,task2,519310,false,false,439,image-keyboard-response,26
true,4,1,1,1,true,z,false,true,0.0-2.0-0.13-0.121-3.121,0,0,0,90,false,stim,false,0,834.8999999999069,0,0,2,86720,task2,521650,false,false,442,image-keyboard-response,27
true,4,2,1,2,true,d,false,true,0.0-2.0-0.13-0.122-3.122,0,0,0,68,false,stim,false,1,1436.3000000000466,0,0,1,86720,task2,524591,false,false,445,image-keyboard-response,28
true,4,0,1,0,true,q,false,true,0.0-2.0-0.13-0.123-3.123,0,0,0,81,false,stim,false,1,1108.0,0,0,0,86720,task2,527205,false,false,448,image-keyboard-response,29
true,4,1,1,1,true,z,false,true,0.0-2.0-0.13-0.124-3.124,0,0,0,90,false,stim,false,0,712.4000000001397,0,0,2,86720,task2,529426,false,false,451,image-keyboard-response,30
true,4,2,1,2,true,d,false,true,0.0-2.0-0.13-0.125-3.125,0,0,0,68,false,stim,false,1,1656.0,0,0,1,86720,task2,532588,false,false,454,image-keyboard-response,31
true,4,2,1,2,true,d,false,true,0.0-2.0-0.14-0.126-3.126,0,0,0,68,false,stim,false,1,566.9000000001397,0,0,1,86720,task2,534662,false,false,457,image-keyboard-response,32
true,4,0,1,0,true,q,false,true,0.0-2.0-0.14-0.127-3.127,0,0,0,81,false,stim,false,1,718.6999999999534,0,0,0,86720,task2,536886,false,false,460,image-keyboard-response,33
true,4,2,1,2,true,d,false,true,0.0-2.0-0.14-0.128-3.128,0,0,0,68,false,stim,false,1,1378.3000000000466,0,0,1,86720,task2,539771,false,false,463,image-keyboard-response,34
true,4,0,1,0,true,q,false,true,0.0-2.0-0.14-0.129-3.129,0,0,0,81,false,stim,false,1,530.9000000001397,0,0,0,86720,task2,541809,false,false,466,image-keyboard-response,35
true,4,1,1,1,true,z,false,true,0.0-2.0-0.14-0.130-3.130,0,0,0,90,false,stim,false,0,643.9000000001397,0,0,2,86720,task2,543959,false,false,469,image-keyboard-response,36
true,4,2,1,2,true,d,false,true,0.0-2.0-0.14-0.131-3.131,0,0,0,68,false,stim,false,1,585.1000000000931,0,0,1,86720,task2,546051,false,false,472,image-keyboard-response,37
true,4,1,1,1,true,z,false,true,0.0-2.0-0.14-0.132-3.132,0,0,0,90,false,stim,false,0,870.8999999999069,0,0,2,86720,task2,548428,false,false,475,image-keyboard-response,38
true,5,0,1,1,false,z,false,false,0.0-2.0-0.14-0.133-3.133,0,0,0,81,true,stim,true,0,599.6999999999534,0,0,0,86720,task2,550534,false,false,478,image-keyboard-response,1
true,5,1,1,2,false,d,false,false,0.0-2.0-0.14-0.134-3.134,0,0,0,90,false,stim,true,1,1219.0,0,0,2,86720,task2,553258,false,false,481,image-keyboard-response,2
true,5,2,1,0,false,q,false,false,0.0-2.0-0.15-0.135-3.135,0,0,0,68,false,stim,true,2,600.1000000000931,0,0,1,86720,task2,555366,false,false,484,image-keyboard-response,3
true,5,2,1,0,false,q,false,false,0.0-2.0-0.15-0.136-3.136,0,0,0,68,false,stim,true,2,699.3000000000466,0,0,1,86720,task2,557571,false,false,487,image-keyboard-response,4
true,5,1,1,1,true,z,false,true,0.0-2.0-0.15-0.137-3.137,0,0,0,90,false,stim,false,0,1117.1999999999534,0,0,0,86720,task2,560194,false,false,490,image-keyboard-response,5
true,5,0,1,2,false,d,true,true,0.0-2.0-0.15-0.138-3.138,0,0,0,81,false,stim,false,1,1398.6999999999534,0,0,2,86720,task2,563100,false,true,493,image-keyboard-response,6
true,5,1,1,1,true,z,false,true,0.0-2.0-0.15-0.139-3.139,0,0,0,90,false,stim,false,0,729.8999999999069,0,0,0,86720,task2,565337,false,false,496,image-keyboard-response,7
true,5,1,1,1,true,z,false,true,0.0-2.0-0.15-0.140-3.140,0,0,0,90,false,stim,false,0,684.3000000000466,0,0,0,86720,task2,567528,false,false,499,image-keyboard-response,8
true,5,1,1,0,false,q,true,false,0.0-2.0-0.15-0.141-3.141,0,0,0,90,false,stim,false,2,1108.8000000000466,0,0,1,86720,task2,570215,false,false,502,image-keyboard-response,9
true,5,0,1,2,false,d,true,false,0.0-2.0-0.15-0.142-3.142,0,0,0,81,false,stim,false,1,738.8999999999069,0,0,2,86720,task2,572460,false,false,505,image-keyboard-response,10
true,5,0,1,2,false,d,true,false,0.0-2.0-0.15-0.143-3.143,0,0,0,81,false,stim,false,1,481.5,0,0,2,86720,task2,574448,false,false,508,image-keyboard-response,11
true,5,0,1,0,true,q,false,true,0.0-2.0-0.16-0.144-3.144,0,0,0,81,false,stim,false,2,504.19999999995343,0,0,1,86720,task2,576458,false,false,511,image-keyboard-response,12
true,5,2,1,2,true,d,false,true,0.0-2.0-0.16-0.145-3.145,0,0,0,68,false,stim,false,1,544.9000000001397,0,0,2,86720,task2,578509,false,false,514,image-keyboard-response,13
true,5,2,1,2,true,d,false,true,0.0-2.0-0.16-0.146-3.146,0,0,0,68,false,stim,false,1,540.5999999998603,0,0,2,86720,task2,580555,false,false,517,image-keyboard-response,14
true,5,1,1,1,true,z,false,true,0.0-2.0-0.16-0.147-3.147,0,0,0,90,false,stim,false,0,878.8000000000466,0,0,0,86720,task2,582940,false,false,520,image-keyboard-response,15
true,5,1,1,1,true,z,false,true,0.0-2.0-0.16-0.148-3.148,0,0,0,90,false,stim,false,0,703.1999999999534,0,0,0,86720,task2,585149,false,false,523,image-keyboard-response,16
true,5,0,1,0,true,q,false,true,0.0-2.0-0.16-0.149-3.149,0,0,0,81,false,stim,false,2,686.5,0,0,1,86720,task2,587341,false,false,526,image-keyboard-response,17
true,5,2,1,2,true,d,false,true,0.0-2.0-0.16-0.150-3.150,0,0,0,68,false,stim,false,1,1157.1000000000931,0,0,2,86720,task2,590004,false,false,529,image-keyboard-response,18
true,5,1,1,1,true,z,false,true,0.0-2.0-0.16-0.151-3.151,0,0,0,90,false,stim,false,0,865.1000000000931,0,0,0,86720,task2,592375,false,false,532,image-keyboard-response,19
true,5,0,1,0,true,q,false,true,0.0-2.0-0.16-0.152-3.152,0,0,0,81,false,stim,false,2,1047.6000000000931,0,0,1,86720,task2,594929,false,false,535,image-keyboard-response,20
true,5,0,1,0,true,q,false,true,0.0-2.0-0.17-0.153-3.153,0,0,0,81,false,stim,false,2,764.3000000000466,0,0,1,86720,task2,597199,false,false,538,image-keyboard-response,21
true,5,1,1,1,true,z,false,true,0.0-2.0-0.17-0.154-3.154,0,0,0,90,false,stim,false,0,873.0,0,0,0,86720,task2,599579,false,false,541,image-keyboard-response,22
true,5,1,1,1,true,z,false,true,0.0-2.0-0.17-0.155-3.155,0,0,0,90,false,stim,false,0,941.3000000000466,0,0,0,86720,task2,602026,false,false,544,image-keyboard-response,23
true,5,2,1,2,true,d,false,true,0.0-2.0-0.17-0.156-3.156,0,0,0,68,false,stim,false,1,1051.4000000001397,0,0,2,86720,task2,604583,false,false,547,image-keyboard-response,24
true,5,0,1,0,true,q,false,false,0.0-2.0-0.17-0.157-3.157,0,0,0,81,false,stim,false,2,1449.6000000000931,0,0,1,86720,task2,607541,false,true,550,image-keyboard-response,25
true,5,1,1,1,true,z,false,true,0.0-2.0-0.17-0.158-3.158,0,0,0,90,false,stim,false,0,830.6999999999534,0,0,0,86720,task2,609879,false,false,553,image-keyboard-response,26
true,5,2,1,2,true,d,false,true,0.0-2.0-0.17-0.159-3.159,0,0,0,68,false,stim,false,1,1267.3999999999069,0,0,2,86720,task2,612653,false,false,556,image-keyboard-response,27
true,5,0,1,0,true,q,false,true,0.0-2.0-0.17-0.160-3.160,0,0,0,81,false,stim,false,2,914.3999999999069,0,0,1,86720,task2,615073,false,false,559,image-keyboard-response,28
true,5,2,1,2,true,d,false,false,0.0-2.0-0.17-0.161-3.161,0,0,0,68,false,stim,false,1,1240.3000000000466,0,0,2,86720,task2,617820,false,true,562,image-keyboard-response,29
true,5,2,1,2,true,d,false,true,0.0-2.0-0.18-0.162-3.162,0,0,0,68,false,stim,false,1,577.0,0,0,2,86720,task2,619904,false,false,565,image-keyboard-response,30
true,5,1,1,1,true,z,false,true,0.0-2.0-0.18-0.163-3.163,0,0,0,90,false,stim,false,0,781.9000000001397,0,0,0,86720,task2,622192,false,false,568,image-keyboard-response,31
true,5,0,1,0,true,q,false,true,0.0-2.0-0.18-0.164-3.164,0,0,0,81,false,stim,false,2,1470.0,0,1,1,86720,task2,625168,false,false,571,image-keyboard-response,32
true,5,1,1,1,true,z,false,true,0.0-2.0-0.18-0.165-3.165,0,0,0,90,false,stim,false,0,547.1999999999534,0,0,0,86720,task2,627222,false,false,574,image-keyboard-response,33
true,5,2,1,2,true,d,false,true,0.0-2.0-0.18-0.166-3.166,0,0,0,68,false,stim,false,1,830.9000000001397,0,0,2,86720,task2,629559,false,false,577,image-keyboard-response,34
true,6,0,2,0,true,q,false,true,0.0-2.0-0.18-0.167-3.167,0,1,0,81,true,stim,false,0,1442.1000000000931,0,1,1,86720,task2,632507,false,false,580,image-keyboard-response,1
true,6,1,2,2,false,d,false,false,0.0-2.0-0.18-0.168-3.168,0,1,0,90,false,stim,true,1,800.3000000000466,0,0,0,86720,task2,634813,false,false,583,image-keyboard-response,2
true,6,2,2,1,false,z,false,true,0.0-2.0-0.18-0.169-3.169,0,1,0,68,false,stim,true,2,705.8000000000466,0,0,2,86720,task2,637026,false,true,586,image-keyboard-response,3
true,6,0,2,0,true,q,false,true,0.0-2.0-0.18-0.170-3.170,0,1,0,81,false,stim,false,0,1354.5,0,1,1,86720,task2,639887,false,false,589,image-keyboard-response,4
true,6,1,2,2,false,d,false,false,0.0-2.0-0.19-0.171-3.171,0,1,0,90,false,stim,true,1,806.5999999998603,0,0,0,86720,task2,642200,false,false,592,image-keyboard-response,5
true,6,0,2,0,true,q,false,true,0.0-2.0-0.19-0.172-3.172,0,1,0,81,false,stim,false,0,1164.2000000001863,0,1,1,86720,task2,644870,false,false,595,image-keyboard-response,6
true,6,1,2,2,false,d,false,false,0.0-2.0-0.19-0.173-3.173,0,1,0,90,false,stim,true,1,566.6000000000931,0,0,0,86720,task2,646943,false,false,598,image-keyboard-response,7
true,6,2,2,2,true,d,false,true,0.0-2.0-0.19-0.174-3.174,0,1,0,68,false,stim,false,1,710.2000000001863,0,0,0,86720,task2,649165,false,false,601,image-keyboard-response,8
true,6,0,2,0,true,q,false,true,0.0-2.0-0.19-0.175-3.175,0,1,0,81,false,stim,false,0,1070.5,0,1,1,86720,task2,651742,false,false,604,image-keyboard-response,9
true,6,0,2,0,true,q,false,true,0.0-2.0-0.19-0.176-3.176,0,1,0,81,false,stim,false,0,520.6000000000931,0,1,1,86720,task2,653768,false,false,607,image-keyboard-response,10
true,6,2,2,1,false,z,false,false,0.0-2.0-0.19-0.177-3.177,0,1,0,68,false,stim,true,2,512.7000000001863,0,0,2,86720,task2,655786,false,false,610,image-keyboard-response,11
true,6,2,2,1,false,z,false,false,0.0-2.0-0.19-0.178-3.178,0,1,0,68,false,stim,true,2,398.69999999995343,0,0,2,86720,task2,657691,false,false,613,image-keyboard-response,12
true,6,1,2,1,true,z,false,true,0.0-2.0-0.19-0.179-3.179,0,1,0,90,false,stim,false,2,874.5999999998603,0,0,2,86720,task2,660074,false,false,616,image-keyboard-response,13
true,6,1,2,1,true,z,false,true,0.0-2.0-0.20-0.180-3.180,0,1,0,90,false,stim,false,2,534.5999999998603,0,0,2,86720,task2,662116,false,false,619,image-keyboard-response,14
true,6,2,2,2,true,d,false,true,0.0-2.0-0.20-0.181-3.181,0,1,0,68,false,stim,false,1,724.3999999999069,0,0,0,86720,task2,664346,false,false,622,image-keyboard-response,15
true,6,2,2,2,true,d,false,true,0.0-2.0-0.20-0.182-3.182,0,1,0,68,false,stim,false,1,460.19999999995343,0,0,0,86720,task2,666315,false,false,625,image-keyboard-response,16
true,6,0,2,0,true,q,false,true,0.0-2.0-0.20-0.183-3.183,0,1,0,81,false,stim,false,0,826.5,0,1,1,86720,task2,668647,false,false,628,image-keyboard-response,17
true,6,2,2,2,true,d,false,true,0.0-2.0-0.20-0.184-3.184,0,1,0,68,false,stim,false,1,1033.6000000000931,0,0,0,86720,task2,671187,false,false,631,image-keyboard-response,18
true,6,0,2,0,true,q,false,true,0.0-2.0-0.20-0.185-3.185,0,1,0,81,false,stim,false,0,967.5,0,1,1,86720,task2,673662,false,false,634,image-keyboard-response,19
true,6,1,2,1,true,z,false,true,0.0-2.0-0.20-0.186-3.186,0,1,0,90,false,stim,false,2,675.8999999999069,0,0,2,86720,task2,675845,false,false,637,image-keyboard-response,20
true,6,0,2,0,true,q,false,true,0.0-2.0-0.20-0.187-3.187,0,1,0,81,false,stim,false,0,1430.1999999999534,0,1,1,86720,task2,678782,false,false,640,image-keyboard-response,21
true,6,2,2,1,false,z,false,false,0.0-2.0-0.20-0.188-3.188,0,1,0,68,false,stim,true,2,757.2999999998137,0,0,2,86720,task2,681047,false,false,643,image-keyboard-response,22
true,6,1,2,1,true,z,false,false,0.0-2.0-0.21-0.189-3.189,0,1,0,90,false,stim,false,2,970.6000000000931,0,0,2,86720,task2,683524,false,true,646,image-keyboard-response,23
true,6,2,2,2,true,d,false,true,0.0-2.0-0.21-0.190-3.190,0,1,0,68,false,stim,false,1,732.1999999999534,0,0,0,86720,task2,685763,false,false,649,image-keyboard-response,24
true,6,1,2,1,true,z,false,true,0.0-2.0-0.21-0.191-3.191,0,1,0,90,false,stim,false,2,563.3999999999069,0,0,2,86720,task2,687833,false,false,652,image-keyboard-response,25
true,6,2,2,2,true,d,false,true,0.0-2.0-0.21-0.192-3.192,0,1,0,68,false,stim,false,1,647.1999999999534,0,0,0,86720,task2,689985,false,false,655,image-keyboard-response,26
true,6,0,2,0,true,q,false,true,0.0-2.0-0.21-0.193-3.193,0,1,0,81,false,stim,false,0,794.5,0,1,1,86720,task2,692286,false,false,658,image-keyboard-response,27
true,6,0,2,0,true,q,false,true,0.0-2.0-0.21-0.194-3.194,0,1,0,81,false,stim,false,0,642.8000000000466,0,1,1,86720,task2,694435,false,false,661,image-keyboard-response,28
true,6,1,2,1,true,z,false,true,0.0-2.0-0.21-0.195-3.195,0,1,0,90,false,stim,false,2,1601.8999999999069,0,0,2,86720,task2,697544,false,false,664,image-keyboard-response,29
true,6,2,2,0,false,q,true,false,0.0-2.0-0.21-0.196-3.196,0,1,0,68,false,stim,false,0,1028.1999999999534,0,1,1,86720,task2,700079,false,false,667,image-keyboard-response,30
true,6,2,2,2,true,d,false,true,0.0-2.0-0.21-0.197-3.197,0,1,0,68,false,stim,false,1,1222.2000000001863,0,1,0,86720,task2,702807,false,false,670,image-keyboard-response,31
true,6,0,2,0,true,q,false,true,0.0-2.0-0.22-0.198-3.198,0,1,0,81,false,stim,false,0,705.3999999999069,0,0,1,86720,task2,705021,false,false,673,image-keyboard-response,32
true,6,0,2,0,true,q,false,true,0.0-2.0-0.22-0.199-3.199,0,1,0,81,false,stim,false,0,563.6000000000931,0,0,1,86720,task2,707090,false,false,676,image-keyboard-response,33
true,6,1,2,1,true,z,false,true,0.0-2.0-0.22-0.200-3.200,0,1,0,90,false,stim,false,2,670.7999999998137,0,0,2,86720,task2,709267,false,false,679,image-keyboard-response,34
true,6,2,2,2,true,d,false,true,0.0-2.0-0.22-0.201-3.201,0,1,0,68,false,stim,false,1,815.3999999999069,0,1,0,86720,task2,711589,false,false,682,image-keyboard-response,35
true,7,2,2,2,true,d,false,true,0.0-2.0-0.22-0.202-3.202,1,0,0,68,true,stim,false,2,785.0,0,1,0,86720,task2,713880,false,false,685,image-keyboard-response,1
true,7,2,2,2,true,d,false,true,0.0-2.0-0.22-0.203-3.203,1,0,0,68,false,stim,false,2,472.29999999981374,0,1,0,86720,task2,715859,false,false,688,image-keyboard-response,2
true,7,0,2,1,false,z,false,false,0.0-2.0-0.22-0.204-3.204,1,0,0,81,false,stim,true,0,962.6999999999534,0,0,1,86720,task2,718328,false,false,691,image-keyboard-response,3
true,7,1,2,2,false,d,false,true,0.0-2.0-0.22-0.205-3.205,1,0,0,90,false,stim,true,1,787.1999999999534,0,0,2,86720,task2,720621,false,true,694,image-keyboard-response,4
true,7,1,2,2,false,d,false,false,0.0-2.0-0.22-0.206-3.206,1,0,0,90,false,stim,true,1,545.1999999999534,0,0,2,86720,task2,722672,false,false,697,image-keyboard-response,5
true,7,1,2,2,false,d,false,false,0.0-2.0-0.23-0.207-3.207,1,0,0,90,false,stim,true,1,478.39999999990687,0,0,2,86720,task2,724657,false,false,700,image-keyboard-response,6
true,7,2,2,2,true,d,false,true,0.0-2.0-0.23-0.208-3.208,1,0,0,68,false,stim,false,2,699.1000000000931,0,1,0,86720,task2,726877,false,false,703,image-keyboard-response,7
true,7,0,2,2,false,d,true,false,0.0-2.0-0.23-0.209-3.209,1,0,0,81,false,stim,false,1,583.4000000001397,0,0,2,86720,task2,728968,false,false,706,image-keyboard-response,8
true,7,2,2,2,true,d,false,true,0.0-2.0-0.23-0.210-3.210,1,0,0,68,false,stim,false,2,832.3000000000466,0,1,0,86720,task2,731307,false,false,709,image-keyboard-response,9
true,7,1,2,1,true,z,false,true,0.0-2.0-0.23-0.211-3.211,1,0,0,90,false,stim,false,0,1443.5,0,0,1,86720,task2,734257,false,false,712,image-keyboard-response,10
true,7,1,2,1,true,z,false,true,0.0-2.0-0.23-0.212-3.212,1,0,0,90,false,stim,false,0,513.3000000000466,0,0,1,86720,task2,736277,false,false,715,image-keyboard-response,11
true,7,2,2,2,true,d,false,true,0.0-2.0-0.23-0.213-3.213,1,0,0,68,false,stim,false,2,578.1999999999534,0,1,0,86720,task2,738361,false,false,718,image-keyboard-response,12
true,7,1,2,1,true,z,false,false,0.0-2.0-0.23-0.214-3.214,1,0,0,90,false,stim,false,0,586.5,0,0,1,86720,task2,740454,false,true,721,image-keyboard-response,13
true,7,2,2,2,true,d,false,true,0.0-2.0-0.23-0.215-3.215,1,0,0,68,false,stim,false,1,571.3000000000466,0,0,2,86720,task2,742532,false,false,724,image-keyboard-response,14
true,7,2,2,2,true,d,false,true,0.0-2.0-0.24-0.216-3.216,1,0,0,68,false,stim,false,2,565.5,0,1,0,86720,task2,744604,false,false,727,image-keyboard-response,15
true,7,2,2,2,true,d,false,true,0.0-2.0-0.24-0.217-3.217,1,0,0,68,false,stim,false,1,500.89999999990687,0,0,2,86720,task2,746612,false,false,730,image-keyboard-response,16
true,7,1,2,1,true,z,false,true,0.0-2.0-0.24-0.218-3.218,1,0,0,90,false,stim,false,0,636.0,0,0,1,86720,task2,748754,false,false,733,image-keyboard-response,17
true,7,1,2,1,true,z,false,true,0.0-2.0-0.24-0.219-3.219,1,0,0,90,false,stim,false,0,808.6000000000931,0,0,1,86720,task2,751071,false,false,736,image-keyboard-response,18
true,7,2,2,2,true,d,false,true,0.0-2.0-0.24-0.220-3.220,1,0,0,68,false,stim,false,2,675.6999999999534,0,1,0,86720,task2,753254,false,false,739,image-keyboard-response,19
true,7,2,2,2,true,d,false,true,0.0-2.0-0.24-0.221-3.221,1,0,0,68,false,stim,false,2,568.5,0,1,0,86720,task2,755330,false,false,742,image-keyboard-response,20
true,7,2,2,2,true,d,false,true,0.0-2.0-0.24-0.222-3.222,1,0,0,68,false,stim,false,1,679.1000000000931,0,0,2,86720,task2,757515,false,false,745,image-keyboard-response,21
true,7,2,2,1,false,z,true,true,0.0-2.0-0.24-0.223-3.223,1,0,0,68,false,stim,false,0,558.3999999999069,0,0,1,86720,task2,759580,false,true,748,image-keyboard-response,22
true,7,2,2,2,true,d,false,true,0.0-2.0-0.24-0.224-3.224,1,0,0,68,false,stim,false,1,1107.5,0,0,2,86720,task2,762195,false,false,751,image-keyboard-response,23
true,7,2,2,2,true,d,false,true,0.0-2.0-0.25-0.225-3.225,1,0,0,68,false,stim,false,2,617.3999999999069,0,1,0,86720,task2,764318,false,false,754,image-keyboard-response,24
true,7,2,2,2,true,d,false,true,0.0-2.0-0.25-0.226-3.226,1,0,0,68,false,stim,false,2,479.5,0,1,0,86720,task2,766305,false,false,757,image-keyboard-response,25
true,7,1,2,1,true,z,false,true,0.0-2.0-0.25-0.227-3.227,1,0,0,90,false,stim,false,0,450.60000000009313,0,0,1,86720,task2,768264,false,false,760,image-keyboard-response,26
true,7,2,2,2,true,d,false,true,0.0-2.0-0.25-0.228-3.228,1,0,0,68,false,stim,false,2,767.1000000000931,0,1,0,86720,task2,770538,false,false,763,image-keyboard-response,27
true,7,1,2,2,false,d,false,false,0.0-2.0-0.25-0.229-3.229,1,0,0,90,false,stim,true,1,741.5,0,0,2,86720,task2,772787,false,false,766,image-keyboard-response,28
true,7,1,2,2,false,d,false,false,0.0-2.0-0.25-0.230-3.230,1,0,0,90,false,stim,true,1,480.39999999990687,0,0,2,86720,task2,774775,false,false,769,image-keyboard-response,29
true,7,1,2,1,true,z,false,true,0.0-2.0-0.25-0.231-3.231,1,0,0,90,false,stim,false,0,1069.0999999998603,0,0,1,86720,task2,777351,false,false,772,image-keyboard-response,30
true,7,1,2,1,true,z,false,true,0.0-2.0-0.25-0.232-3.232,1,0,0,90,false,stim,false,0,506.4000000001397,0,0,1,86720,task2,779365,false,false,775,image-keyboard-response,31
true,7,2,2,2,true,d,false,true,0.0-2.0-0.25-0.233-3.233,1,0,0,68,false,stim,false,1,512.0,0,0,2,86720,task2,781384,false,false,778,image-keyboard-response,32
true,7,1,2,1,true,z,false,true,0.0-2.0-0.26-0.234-3.234,1,0,0,90,false,stim,false,0,739.1999999999534,0,0,1,86720,task2,783631,false,false,781,image-keyboard-response,33
true,7,2,2,2,true,d,false,true,0.0-2.0-0.26-0.235-3.235,1,0,0,68,false,stim,false,2,608.1999999999534,0,0,0,86720,task2,785746,false,false,784,image-keyboard-response,34
true,8,2,1,1,false,z,false,false,0.0-2.0-0.26-0.236-3.236,0,0,0,68,true,stim,true,2,1040.8999999999069,0,0,0,86720,task2,788298,false,false,787,image-keyboard-response,1
true,8,1,1,0,false,q,false,false,0.0-2.0-0.26-0.237-3.237,0,0,0,90,false,stim,true,1,1092.8000000000466,0,0,1,86720,task2,790898,false,false,790,image-keyboard-response,2
true,8,2,1,1,false,z,false,false,0.0-2.0-0.26-0.238-3.238,0,0,0,68,false,stim,true,2,1039.0,0,0,0,86720,task2,793444,false,false,793,image-keyboard-response,3
true,8,2,1,1,false,z,false,false,0.0-2.0-0.26-0.239-3.239,0,0,0,68,false,stim,true,2,742.3999999999069,0,0,2,86720,task2,795694,false,false,796,image-keyboard-response,4
true,8,2,1,1,false,z,false,true,0.0-2.0-0.26-0.240-3.240,0,0,0,68,false,stim,true,2,508.4000000001397,0,0,2,86720,task2,797710,false,true,799,image-keyboard-response,5
true,8,1,1,0,false,q,false,false,0.0-2.0-0.26-0.241-3.241,0,0,0,90,false,stim,true,1,735.0,0,0,1,86720,task2,799966,false,false,802,image-keyboard-response,6
true,8,2,1,1,false,z,false,false,0.0-2.0-0.26-0.242-3.242,0,0,0,68,false,stim,true,2,685.5999999998603,0,0,2,86720,task2,802165,false,false,805,image-keyboard-response,7
true,8,1,1,0,false,q,false,false,0.0-2.0-0.27-0.243-3.243,0,0,0,90,false,stim,true,1,658.3000000000466,0,0,1,86720,task2,804330,false,false,808,image-keyboard-response,8
true,8,2,1,1,false,z,false,false,0.0-2.0-0.27-0.244-3.244,0,0,0,68,false,stim,true,2,704.1999999999534,0,0,0,86720,task2,806542,false,false,811,image-keyboard-response,9
true,8,2,1,1,false,z,false,true,0.0-2.0-0.27-0.245-3.245,0,0,0,68,false,stim,true,2,487.89999999990687,0,0,2,86720,task2,808536,false,true,814,image-keyboard-response,10
true,8,0,1,0,true,q,false,true,0.0-2.0-0.27-0.246-3.246,0,0,0,81,false,stim,false,1,924.9000000001397,0,0,1,86720,task2,810969,false,false,817,image-keyboard-response,11
true,8,0,1,1,false,z,true,true,0.0-2.0-0.27-0.247-3.247,0,0,0,81,false,stim,false,2,1181.3000000000466,0,0,0,86720,task2,813661,false,true,820,image-keyboard-response,12
true,8,0,1,1,false,z,true,false,0.0-2.0-0.27-0.248-3.248,0,0,0,81,false,stim,false,2,550.8000000000466,0,0,0,86720,task2,815719,false,false,823,image-keyboard-response,13
true,8,2,1,1,false,z,false,false,0.0-2.0-0.27-0.249-3.249,0,0,0,68,false,stim,true,2,908.1000000000931,0,0,2,86720,task2,818135,false,false,826,image-keyboard-response,14
true,8,0,1,0,true,q,false,false,0.0-2.0-0.27-0.250-3.250,0,0,0,81,false,stim,false,1,754.3000000000466,0,0,1,86720,task2,820396,false,true,829,image-keyboard-response,15
true,8,2,1,1,false,z,false,false,0.0-2.0-0.27-0.251-3.251,0,0,0,68,false,stim,true,2,769.0,0,0,2,86720,task2,822673,false,false,832,image-keyboard-response,16
true,8,0,1,0,true,q,false,true,0.0-2.0-0.28-0.252-3.252,0,0,0,81,false,stim,false,1,694.5999999998603,0,0,1,86720,task2,824875,false,false,835,image-keyboard-response,17
true,8,1,1,1,true,z,false,true,0.0-2.0-0.28-0.253-3.253,0,0,0,90,false,stim,false,2,884.2999999998137,0,0,2,86720,task2,827267,false,false,838,image-keyboard-response,18
true,8,0,1,0,true,q,false,true,0.0-2.0-0.28-0.254-3.254,0,0,0,81,false,stim,false,1,788.7999999998137,0,0,1,86720,task2,829574,false,false,841,image-keyboard-response,19
true,8,1,1,1,true,z,false,true,0.0-2.0-0.28-0.255-3.255,0,0,0,90,false,stim,false,2,706.1999999999534,0,0,2,86720,task2,831787,false,false,844,image-keyboard-response,20
true,8,0,1,1,false,z,true,false,0.0-2.0-0.28-0.256-3.256,0,0,0,81,false,stim,false,2,492.29999999981374,0,0,0,86720,task2,833786,false,false,847,image-keyboard-response,21
true,8,1,1,1,true,z,false,true,0.0-2.0-0.28-0.257-3.257,0,0,0,90,false,stim,false,2,545.1999999999534,0,0,0,86720,task2,835839,false,false,850,image-keyboard-response,22
true,8,1,1,1,true,z,false,true,0.0-2.0-0.28-0.258-3.258,0,0,0,90,false,stim,false,2,462.79999999981374,0,0,0,86720,task2,837809,false,false,853,image-keyboard-response,23
true,8,1,1,1,true,z,false,true,0.0-2.0-0.28-0.259-3.259,0,0,0,90,false,stim,false,2,928.6999999999534,0,0,2,86720,task2,840245,false,false,856,image-keyboard-response,24
true,8,0,1,0,true,q,false,true,0.0-2.0-0.28-0.260-3.260,0,0,0,81,false,stim,false,1,620.6000000000931,0,0,1,86720,task2,842373,false,false,859,image-keyboard-response,25
true,8,0,1,0,true,q,false,true,0.0-2.0-0.29-0.261-3.261,0,0,0,81,false,stim,false,1,1262.8000000000466,0,0,1,86720,task2,845144,false,false,862,image-keyboard-response,26
true,8,1,1,1,true,z,false,true,0.0-2.0-0.29-0.262-3.262,0,0,0,90,false,stim,false,2,923.7999999998137,0,0,0,86720,task2,847577,false,false,865,image-keyboard-response,27
true,8,0,1,0,true,q,false,true,0.0-2.0-0.29-0.263-3.263,0,0,0,81,false,stim,false,1,906.8000000000466,0,0,1,86720,task2,849991,false,false,868,image-keyboard-response,28
true,8,1,1,1,true,z,false,false,0.0-2.0-0.29-0.264-3.264,0,0,0,90,false,stim,false,2,1267.1999999999534,0,0,2,86720,task2,852765,false,true,871,image-keyboard-response,29
true,8,1,1,1,true,z,false,false,0.0-2.0-0.29-0.265-3.265,0,0,0,90,false,stim,false,2,626.5,0,0,0,86720,task2,854900,false,true,874,image-keyboard-response,30
true,8,1,1,1,true,z,false,false,0.0-2.0-0.29-0.266-3.266,0,0,0,90,false,stim,false,2,492.89999999990687,0,0,0,86720,task2,856900,false,true,877,image-keyboard-response,31
true,8,1,1,1,true,z,false,true,0.0-2.0-0.29-0.267-3.267,0,0,0,90,false,stim,false,2,694.1999999999534,0,0,2,86720,task2,859101,false,false,880,image-keyboard-response,32
true,8,1,1,1,true,z,false,true,0.0-2.0-0.29-0.268-3.268,0,0,0,90,false,stim,false,2,448.0999999998603,0,0,2,86720,task2,861056,false,false,883,image-keyboard-response,33
true,8,0,1,0,true,q,false,true,0.0-2.0-0.29-0.269-3.269,0,0,0,81,false,stim,false,1,825.1000000000931,0,0,1,86720,task2,863388,false,false,886,image-keyboard-response,34
true,9,0,1,2,false,d,true,false,0.0-2.0-0.30-0.270-3.270,0,0,0,81,true,stim,false,1,473.69999999995343,0,0,0,86720,task2,865369,false,false,889,image-keyboard-response,1
true,9,0,1,2,false,d,true,false,0.0-2.0-0.30-0.271-3.271,0,0,0,81,false,stim,false,1,437.39999999990687,0,0,0,86720,task2,867314,false,false,892,image-keyboard-response,2
true,9,0,1,1,false,z,false,false,0.0-2.0-0.30-0.272-3.272,0,0,0,81,false,stim,true,0,885.1000000000931,0,0,1,86720,task2,869705,false,false,895,image-keyboard-response,3
true,9,0,1,1,false,z,false,false,0.0-2.0-0.30-0.273-3.273,0,0,0,81,false,stim,true,0,441.0999999998603,0,0,1,86720,task2,871653,false,false,898,image-keyboard-response,4
true,9,1,1,0,false,q,false,false,0.0-2.0-0.30-0.274-3.274,0,0,0,90,false,stim,true,1,611.6999999999534,0,0,2,86720,task2,873784,false,false,901,image-keyboard-response,5
true,9,1,1,0,false,q,false,false,0.0-2.0-0.30-0.275-3.275,0,0,0,90,false,stim,true,1,386.30000000004657,0,0,2,86720,task2,875729,false,false,904,image-keyboard-response,6
true,9,2,1,2,true,d,false,true,0.0-2.0-0.30-0.276-3.276,0,0,0,68,false,stim,false,1,837.6000000000931,0,0,0,86720,task2,878074,false,false,907,image-keyboard-response,7
true,9,2,1,0,false,q,true,false,0.0-2.0-0.30-0.277-3.277,0,0,0,68,false,stim,false,1,560.1000000000931,0,0,2,86720,task2,880141,false,false,910,image-keyboard-response,8
true,9,2,1,1,false,z,true,false,0.0-2.0-0.30-0.278-3.278,0,0,0,68,false,stim,false,0,1015.3000000000466,0,0,1,86720,task2,882664,false,false,913,image-keyboard-response,9
true,9,1,1,1,true,z,false,true,0.0-2.0-0.31-0.279-3.279,0,0,0,90,false,stim,false,0,658.0,0,0,1,86720,task2,884864,false,false,916,image-keyboard-response,10
true,9,1,1,1,true,z,false,true,0.0-2.0-0.31-0.280-3.280,0,0,0,90,false,stim,false,0,589.5,0,0,1,86720,task2,886962,false,false,919,image-keyboard-response,11
true,9,0,1,0,true,q,false,true,0.0-2.0-0.31-0.281-3.281,0,0,0,81,false,stim,false,1,609.1000000000931,0,0,2,86720,task2,889079,false,false,922,image-keyboard-response,12
true,9,2,1,2,true,d,false,true,0.0-2.0-0.31-0.282-3.282,0,0,0,68,false,stim,false,1,800.4000000001397,0,0,0,86720,task2,891387,false,false,925,image-keyboard-response,13
true,9,0,1,0,true,q,false,true,0.0-2.0-0.31-0.283-3.283,0,0,0,81,false,stim,false,1,577.5999999998603,0,0,2,86720,task2,893471,false,false,928,image-keyboard-response,14
true,9,0,1,0,true,q,false,true,0.0-2.0-0.31-0.284-3.284,0,0,0,81,false,stim,false,1,832.5999999998603,0,0,2,86720,task2,895811,false,false,931,image-keyboard-response,15
true,9,2,1,2,true,d,false,true,0.0-2.0-0.31-0.285-3.285,0,0,0,68,false,stim,false,1,735.1000000000931,0,0,0,86720,task2,898054,false,false,934,image-keyboard-response,16
true,9,1,1,1,true,z,false,true,0.0-2.0-0.31-0.286-3.286,0,0,0,90,false,stim,false,0,637.1999999999534,0,0,1,86720,task2,900198,false,false,937,image-keyboard-response,17
true,9,2,1,2,true,d,false,true,0.0-2.0-0.31-0.287-3.287,0,0,0,68,false,stim,false,1,1105.1999999999534,0,0,0,86720,task2,902811,false,false,940,image-keyboard-response,18
true,9,2,1,2,true,d,false,true,0.0-2.0-0.32-0.288-3.288,0,0,0,68,false,stim,false,1,529.6000000000931,0,0,0,86720,task2,904850,false,false,943,image-keyboard-response,19
true,9,1,1,1,true,z,false,true,0.0-2.0-0.32-0.289-3.289,0,0,0,90,false,stim,false,0,1292.3999999999069,0,0,1,86720,task2,907652,false,false,946,image-keyboard-response,20
true,9,0,1,0,true,q,false,true,0.0-2.0-0.32-0.290-3.290,0,0,0,81,false,stim,false,1,539.1999999999534,0,0,2,86720,task2,909699,false,false,949,image-keyboard-response,21
true,9,1,1,1,true,z,false,true,0.0-2.0-0.32-0.291-3.291,0,0,0,90,false,stim,false,0,979.7999999998137,0,0,1,86720,task2,912186,false,false,952,image-keyboard-response,22
true,9,2,1,2,true,d,false,false,0.0-2.0-0.32-0.292-3.292,0,0,0,68,false,stim,false,1,650.6999999999534,0,0,0,86720,task2,914344,false,true,955,image-keyboard-response,23
true,9,1,1,1,true,z,false,true,0.0-2.0-0.32-0.293-3.293,0,0,0,90,false,stim,false,0,1373.8000000000466,0,0,1,86720,task2,917226,false,false,958,image-keyboard-response,24
true,9,0,1,0,true,q,false,false,0.0-2.0-0.32-0.294-3.294,0,0,0,81,false,stim,false,1,784.9000000001397,0,0,2,86720,task2,919519,false,true,961,image-keyboard-response,25
true,9,0,1,0,true,q,false,true,0.0-2.0-0.32-0.295-3.295,0,0,0,81,false,stim,false,1,463.80000000004657,0,0,2,86720,task2,921492,false,false,964,image-keyboard-response,26
true,9,2,1,2,true,d,false,true,0.0-2.0-0.32-0.296-3.296,0,0,0,68,false,stim,false,1,626.5,0,0,0,86720,task2,923626,false,false,967,image-keyboard-response,27
true,9,2,1,2,true,d,false,false,0.0-2.0-0.33-0.297-3.297,0,0,0,68,false,stim,false,1,789.8000000000466,0,0,0,86720,task2,925923,false,true,970,image-keyboard-response,28
true,9,2,1,2,true,d,false,true,0.0-2.0-0.33-0.298-3.298,0,0,0,68,false,stim,false,1,553.8000000000466,0,0,0,86720,task2,927985,false,false,973,image-keyboard-response,29
true,9,0,1,0,true,q,false,true,0.0-2.0-0.33-0.299-3.299,0,0,0,81,false,stim,false,1,996.6000000000931,0,0,2,86720,task2,930489,false,false,976,image-keyboard-response,30
true,9,1,1,1,true,z,false,true,0.0-2.0-0.33-0.300-3.300,0,0,0,90,false,stim,false,0,604.8999999999069,0,0,1,86720,task2,932602,false,false,979,image-keyboard-response,31
true,9,0,1,0,true,q,false,true,0.0-2.0-0.33-0.301-3.301,0,0,0,81,false,stim,false,1,1210.5,0,0,2,86720,task2,935319,false,false,982,image-keyboard-response,32
true,9,2,1,2,true,d,false,true,0.0-2.0-0.33-0.302-3.302,0,0,0,68,false,stim,false,1,666.0,0,0,0,86720,task2,937494,false,false,985,image-keyboard-response,33
true,9,0,1,0,true,q,false,true,0.0-2.0-0.33-0.303-3.303,0,0,0,81,false,stim,false,1,1191.6999999999534,0,0,2,86720,task2,940194,false,false,988,image-keyboard-response,34
true,9,1,1,1,true,z,false,true,0.0-2.0-0.33-0.304-3.304,0,0,0,90,false,stim,false,0,625.3000000000466,0,0,1,86720,task2,942327,false,false,991,image-keyboard-response,35
true,10,1,1,0,false,q,false,false,0.0-2.0-0.33-0.305-3.305,0,0,0,90,true,stim,true,1,883.7000000001863,0,0,1,86720,task2,944718,false,false,994,image-keyboard-response,1
true,10,1,1,0,false,q,false,false,0.0-2.0-0.34-0.306-3.306,0,0,0,90,false,stim,true,1,543.1000000000931,0,0,1,86720,task2,946770,false,false,997,image-keyboard-response,2
true,10,0,1,2,false,d,false,true,0.0-2.0-0.34-0.307-3.307,0,0,0,81,false,stim,true,0,746.2000000001863,0,0,2,86720,task2,949023,false,true,1000,image-keyboard-response,3
true,10,0,1,2,false,d,false,false,0.0-2.0-0.34-0.308-3.308,0,0,0,81,false,stim,true,0,520.3999999999069,0,0,2,86720,task2,951103,false,false,1003,image-keyboard-response,4
true,10,2,1,0,false,q,false,false,0.0-2.0-0.34-0.309-3.309,0,0,0,68,false,stim,true,2,520.8999999999069,0,0,0,86720,task2,953133,false,false,1006,image-keyboard-response,5
true,10,0,1,0,true,q,false,true,0.0-2.0-0.34-0.310-3.310,0,0,0,81,false,stim,false,1,770.8999999999069,0,0,1,86720,task2,955411,false,false,1009,image-keyboard-response,6
true,10,0,1,0,true,q,false,true,0.0-2.0-0.34-0.311-3.311,0,0,0,81,false,stim,false,1,585.1000000000931,0,0,1,86720,task2,957505,false,false,1012,image-keyboard-response,7
true,10,2,1,0,false,q,false,false,0.0-2.0-0.34-0.312-3.312,0,0,0,68,false,stim,true,2,517.5999999998603,0,0,0,86720,task2,959562,false,false,1015,image-keyboard-response,8
true,10,0,1,2,false,d,false,false,0.0-2.0-0.34-0.313-3.313,0,0,0,81,false,stim,true,0,802.3999999999069,0,0,2,86720,task2,961872,false,false,1018,image-keyboard-response,9
true,10,0,1,0,true,q,false,true,0.0-2.0-0.34-0.314-3.314,0,0,0,81,false,stim,false,2,994.5,0,0,0,86720,task2,964375,false,false,1021,image-keyboard-response,10
true,10,0,1,0,true,q,false,true,0.0-2.0-0.35-0.315-3.315,0,0,0,81,false,stim,false,1,633.1999999999534,0,0,1,86720,task2,966516,false,false,1024,image-keyboard-response,11
true,10,0,1,2,false,d,false,false,0.0-2.0-0.35-0.316-3.316,0,0,0,81,false,stim,true,0,859.0,0,0,2,86720,task2,968884,false,false,1027,image-keyboard-response,12
true,10,0,1,0,true,q,false,true,0.0-2.0-0.35-0.317-3.317,0,0,0,81,false,stim,false,2,606.0999999998603,0,0,0,86720,task2,970999,false,false,1030,image-keyboard-response,13
true,10,1,1,2,false,d,true,false,0.0-2.0-0.35-0.318-3.318,0,0,0,90,false,stim,false,0,527.9000000001397,0,0,2,86720,task2,973034,false,false,1033,image-keyboard-response,14
true,10,0,1,0,true,q,false,true,0.0-2.0-0.35-0.319-3.319,0,0,0,81,false,stim,false,1,996.2000000001863,0,0,1,86720,task2,975539,false,false,1036,image-keyboard-response,15
true,10,0,1,0,true,q,false,true,0.0-2.0-0.35-0.320-3.320,0,0,0,81,false,stim,false,1,677.5,0,0,1,86720,task2,977723,false,false,1039,image-keyboard-response,16
true,10,0,1,0,true,q,false,false,0.0-2.0-0.35-0.321-3.321,0,0,0,81,false,stim,false,2,584.6000000000931,0,0,0,86720,task2,979815,false,true,1042,image-keyboard-response,17
true,10,2,1,2,true,d,false,true,0.0-2.0-0.35-0.322-3.322,0,0,0,68,false,stim,false,0,588.7999999998137,0,0,2,86720,task2,981910,false,false,1045,image-keyboard-response,18
true,10,0,1,0,true,q,false,true,0.0-2.0-0.35-0.323-3.323,0,0,0,81,false,stim,false,2,681.6999999999534,0,0,0,86720,task2,984099,false,false,1048,image-keyboard-response,19
true,10,0,1,0,true,q,false,true,0.0-2.0-0.36-0.324-3.324,0,0,0,81,false,stim,false,1,618.8000000000466,0,0,1,86720,task2,986226,false,false,1051,image-keyboard-response,20
true,10,2,1,2,true,d,false,true,0.0-2.0-0.36-0.325-3.325,0,0,0,68,false,stim,false,0,529.0,0,0,2,86720,task2,988263,false,false,1054,image-keyboard-response,21
true,10,2,1,2,true,d,false,true,0.0-2.0-0.36-0.326-3.326,0,0,0,68,false,stim,false,0,724.5,0,0,2,86720,task2,990494,false,false,1057,image-keyboard-response,22
true,10,0,1,0,true,q,false,true,0.0-2.0-0.36-0.327-3.327,0,0,0,81,false,stim,false,2,570.0999999998603,0,0,0,86720,task2,992572,false,false,1060,image-keyboard-response,23
true,10,2,1,0,false,q,false,false,0.0-2.0-0.36-0.328-3.328,0,0,0,68,false,stim,true,2,589.3000000000466,0,0,0,86720,task2,994668,false,false,1063,image-keyboard-response,24
true,10,2,1,2,true,d,false,true,0.0-2.0-0.36-0.329-3.329,0,0,0,68,false,stim,false,0,950.1999999999534,0,0,2,86720,task2,997128,false,false,1066,image-keyboard-response,25
true,10,0,1,0,true,q,false,true,0.0-2.0-0.36-0.330-3.330,0,0,0,81,false,stim,false,1,485.69999999995343,0,0,1,86720,task2,999122,false,false,1069,image-keyboard-response,26
true,10,0,1,0,true,q,false,true,0.0-2.0-0.36-0.331-3.331,0,0,0,81,false,stim,false,2,573.9000000001397,0,0,0,86720,task2,1001203,false,false,1072,image-keyboard-response,27
true,10,0,1,0,true,q,false,true,0.0-2.0-0.36-0.332-3.332,0,0,0,81,false,stim,false,1,599.0,0,0,1,86720,task2,1003310,false,false,1075,image-keyboard-response,28
true,10,0,1,0,true,q,false,false,0.0-2.0-0.37-0.333-3.333,0,0,0,81,false,stim,false,1,486.39999999990687,0,0,1,86720,task2,1005303,false,true,1078,image-keyboard-response,29
true,10,0,1,0,true,q,false,true,0.0-2.0-0.37-0.334-3.334,0,0,0,81,false,stim,false,1,481.10000000009313,0,0,1,86720,task2,1007292,false,false,1081,image-keyboard-response,30
true,10,2,1,2,true,d,false,true,0.0-2.0-0.37-0.335-3.335,0,0,0,68,false,stim,false,0,789.0,0,1,2,86720,task2,1009588,false,false,1084,image-keyboard-response,31
true,10,0,1,0,true,q,false,true,0.0-2.0-0.37-0.336-3.336,0,0,0,81,false,stim,false,1,605.8000000000466,0,0,1,86720,task2,1011702,false,false,1087,image-keyboard-response,32
true,10,0,1,0,true,q,false,true,0.0-2.0-0.37-0.337-3.337,0,0,0,81,false,stim,false,2,1054.5,0,0,0,86720,task2,1014264,false,false,1090,image-keyboard-response,33
true,10,0,1,0,true,q,false,true,0.0-2.0-0.37-0.338-3.338,0,0,0,81,false,stim,false,2,778.8999999999069,0,0,0,86720,task2,1016550,false,false,1093,image-keyboard-response,34
true,10,2,1,2,true,d,false,true,0.0-2.0-0.37-0.339-3.339,0,0,0,68,false,stim,false,0,725.5,0,1,2,86720,task2,1018784,false,false,1096,image-keyboard-response,35
true,11,0,2,1,false,z,false,true,0.0-2.0-0.37-0.340-3.340,0,0,1,81,true,stim,true,0,650.4000000001397,0,0,0,86720,task2,1020942,false,true,1099,image-keyboard-response,1
true,11,2,2,2,true,d,false,true,0.0-2.0-0.37-0.341-3.341,0,0,1,68,false,stim,false,2,764.9000000001397,0,1,2,86720,task2,1023233,false,false,1102,image-keyboard-response,2
true,11,0,2,1,false,z,false,false,0.0-2.0-0.38-0.342-3.342,0,0,1,81,false,stim,true,0,760.3000000000466,0,0,1,86720,task2,1025533,false,false,1105,image-keyboard-response,3
true,11,0,2,1,false,z,false,true,0.0-2.0-0.38-0.343-3.343,0,0,1,81,false,stim,true,0,536.1000000000931,0,0,0,86720,task2,1027577,false,true,1108,image-keyboard-response,4
true,11,2,2,2,true,d,false,false,0.0-2.0-0.38-0.344-3.344,0,0,1,68,false,stim,false,2,624.5,0,1,2,86720,task2,1029750,false,true,1111,image-keyboard-response,5
true,11,2,2,2,true,d,false,true,0.0-2.0-0.38-0.345-3.345,0,0,1,68,false,stim,false,2,512.6999999999534,0,1,2,86720,task2,1031770,false,false,1114,image-keyboard-response,6
true,11,0,2,1,false,z,false,true,0.0-2.0-0.38-0.346-3.346,0,0,1,81,false,stim,true,0,667.9000000001397,0,0,0,86720,task2,1033946,false,true,1117,image-keyboard-response,7
true,11,0,2,1,false,z,false,false,0.0-2.0-0.38-0.347-3.347,0,0,1,81,false,stim,true,0,449.60000000009313,0,0,0,86720,task2,1035903,false,false,1120,image-keyboard-response,8
true,11,0,2,1,false,z,false,false,0.0-2.0-0.38-0.348-3.348,0,0,1,81,false,stim,true,0,605.8000000000466,0,0,1,86720,task2,1038016,false,false,1123,image-keyboard-response,9
true,11,0,2,1,false,z,false,false,0.0-2.0-0.38-0.349-3.349,0,0,1,81,false,stim,true,0,404.10000000009313,0,0,1,86720,task2,1039928,false,false,1126,image-keyboard-response,10
true,11,2,2,2,true,d,false,false,0.0-2.0-0.38-0.350-3.350,0,0,1,68,false,stim,false,2,959.1999999999534,0,1,2,86720,task2,1042394,false,true,1129,image-keyboard-response,11
true,11,1,2,1,true,z,false,true,0.0-2.0-0.39-0.351-3.351,0,0,1,90,false,stim,false,0,777.3000000000466,0,0,1,86720,task2,1044680,false,false,1132,image-keyboard-response,12
true,11,0,2,1,false,z,false,false,0.0-2.0-0.39-0.352-3.352,0,0,1,81,false,stim,true,0,823.5,0,0,0,86720,task2,1047012,false,false,1135,image-keyboard-response,13
true,11,1,2,1,true,z,false,true,0.0-2.0-0.39-0.353-3.353,0,0,1,90,false,stim,false,0,710.9000000001397,0,0,1,86720,task2,1049233,false,false,1138,image-keyboard-response,14
true,11,2,2,2,true,d,false,true,0.0-2.0-0.39-0.354-3.354,0,0,1,68,false,stim,false,2,765.6000000000931,0,1,2,86720,task2,1051506,false,false,1141,image-keyboard-response,15
true,11,2,2,2,true,d,false,true,0.0-2.0-0.39-0.355-3.355,0,0,1,68,false,stim,false,2,572.7999999998137,0,1,2,86720,task2,1053587,false,false,1144,image-keyboard-response,16
true,11,1,2,1,true,z,false,true,0.0-2.0-0.39-0.356-3.356,0,0,1,90,false,stim,false,0,548.0,0,0,1,86720,task2,1055642,false,false,1147,image-keyboard-response,17
true,11,1,2,1,true,z,false,true,0.0-2.0-0.39-0.357-3.357,0,0,1,90,false,stim,false,0,490.80000000004657,0,0,0,86720,task2,1057640,false,false,1150,image-keyboard-response,18
true,11,1,2,1,true,z,false,false,0.0-2.0-0.39-0.358-3.358,0,0,1,90,false,stim,false,0,460.5999999998603,0,0,0,86720,task2,1059609,false,true,1153,image-keyboard-response,19
true,11,2,2,2,true,d,false,true,0.0-2.0-0.39-0.359-3.359,0,0,1,68,false,stim,false,2,529.0,0,1,2,86720,task2,1061645,false,false,1156,image-keyboard-response,20
true,11,1,2,1,true,z,false,true,0.0-2.0-0.40-0.360-3.360,0,0,1,90,false,stim,false,0,627.8000000000466,0,0,0,86720,task2,1063781,false,false,1159,image-keyboard-response,21
true,11,1,2,2,false,d,true,false,0.0-2.0-0.40-0.361-3.361,0,0,1,90,false,stim,false,2,490.0999999998603,0,1,2,86720,task2,1065779,false,false,1162,image-keyboard-response,22
true,11,1,2,1,true,z,false,true,0.0-2.0-0.40-0.362-3.362,0,0,1,90,false,stim,false,0,771.2000000001863,0,0,1,86720,task2,1068058,false,false,1165,image-keyboard-response,23
true,11,1,2,1,true,z,false,true,0.0-2.0-0.40-0.363-3.363,0,0,1,90,false,stim,false,0,457.70000000018626,0,0,1,86720,task2,1070023,false,false,1168,image-keyboard-response,24
true,11,2,2,2,true,d,false,true,0.0-2.0-0.40-0.364-3.364,0,0,1,68,false,stim,false,2,390.80000000004657,0,1,2,86720,task2,1071922,false,false,1171,image-keyboard-response,25
true,11,1,2,1,true,z,false,true,0.0-2.0-0.40-0.365-3.365,0,0,1,90,false,stim,false,0,653.2000000001863,0,0,1,86720,task2,1074082,false,false,1174,image-keyboard-response,26
true,11,1,2,1,true,z,false,true,0.0-2.0-0.40-0.366-3.366,0,0,1,90,false,stim,false,0,755.1999999999534,0,0,0,86720,task2,1076345,false,false,1177,image-keyboard-response,27
true,11,1,2,1,true,z,false,true,0.0-2.0-0.40-0.367-3.367,0,0,1,90,false,stim,false,0,485.39999999990687,0,0,0,86720,task2,1078338,false,false,1180,image-keyboard-response,28
true,11,2,2,2,true,d,false,true,0.0-2.0-0.40-0.368-3.368,0,0,1,68,false,stim,false,2,1062.1999999999534,0,0,2,86720,task2,1080908,false,false,1183,image-keyboard-response,29
true,11,2,2,2,true,d,false,true,0.0-2.0-0.41-0.369-3.369,0,0,1,68,false,stim,false,2,604.8999999999069,0,0,2,86720,task2,1083022,false,false,1186,image-keyboard-response,30
true,11,2,2,2,true,d,false,false,0.0-2.0-0.41-0.370-3.370,0,0,1,68,false,stim,false,2,469.80000000004657,0,0,2,86720,task2,1085000,false,true,1189,image-keyboard-response,31
true,11,1,2,1,true,z,false,true,0.0-2.0-0.41-0.371-3.371,0,0,1,90,false,stim,false,0,597.8000000000466,0,0,1,86720,task2,1087106,false,false,1192,image-keyboard-response,32
true,11,1,2,1,true,z,false,false,0.0-2.0-0.41-0.372-3.372,0,0,1,90,false,stim,false,0,705.5999999998603,0,0,0,86720,task2,1089321,false,true,1195,image-keyboard-response,33
true,12,1,1,0,false,q,false,true,0.0-2.0-0.41-0.373-3.373,0,0,0,90,true,stim,true,1,741.3999999999069,0,0,1,86720,task2,1091571,false,true,1198,image-keyboard-response,1
true,12,1,1,2,false,d,false,false,0.0-2.0-0.41-0.374-3.374,0,0,0,90,false,stim,true,1,698.4000000001397,0,0,0,86720,task2,1093791,false,false,1201,image-keyboard-response,2
true,12,0,1,2,false,d,true,false,0.0-2.0-0.41-0.375-3.375,0,0,0,81,false,stim,false,1,779.8000000000466,0,0,0,86720,task2,1096115,false,false,1204,image-keyboard-response,3
true,12,1,1,0,false,q,false,true,0.0-2.0-0.41-0.376-3.376,0,0,0,90,false,stim,true,1,842.2000000001863,0,0,1,86720,task2,1098465,false,true,1207,image-keyboard-response,4
true,12,2,1,0,false,q,false,false,0.0-2.0-0.41-0.377-3.377,0,0,0,68,false,stim,true,2,640.3999999999069,0,0,2,86720,task2,1100670,false,false,1210,image-keyboard-response,5
true,12,1,1,0,false,q,false,false,0.0-2.0-0.42-0.378-3.378,0,0,0,90,false,stim,true,1,984.6999999999534,0,0,1,86720,task2,1103163,false,false,1213,image-keyboard-response,6
true,12,1,1,2,false,d,false,false,0.0-2.0-0.42-0.379-3.379,0,0,0,90,false,stim,true,1,568.7999999998137,0,0,0,86720,task2,1105242,false,false,1216,image-keyboard-response,7
true,12,1,1,0,false,q,false,false,0.0-2.0-0.42-0.380-3.380,0,0,0,90,false,stim,true,1,638.8999999999069,0,0,1,86720,task2,1107388,false,false,1219,image-keyboard-response,8
true,12,0,1,2,false,d,true,false,0.0-2.0-0.42-0.381-3.381,0,0,0,81,false,stim,false,1,638.4000000001397,0,0,0,86720,task2,1109534,false,false,1222,image-keyboard-response,9
true,12,2,1,0,false,q,false,false,0.0-2.0-0.42-0.382-3.382,0,0,0,68,false,stim,true,2,807.6999999999534,0,0,2,86720,task2,1111851,false,false,1225,image-keyboard-response,10
true,12,1,1,0,false,q,true,false,0.0-2.0-0.42-0.383-3.383,0,0,0,90,false,stim,false,2,749.5,0,0,2,86720,task2,1114108,false,false,1228,image-keyboard-response,11
true,12,2,1,2,true,d,false,true,0.0-2.0-0.42-0.384-3.384,0,0,0,68,false,stim,false,1,1295.9000000001397,0,0,0,86720,task2,1116912,false,false,1231,image-keyboard-response,12
true,12,2,1,0,false,q,true,false,0.0-2.0-0.42-0.385-3.385,0,0,0,68,false,stim,false,1,937.3999999999069,0,0,1,86720,task2,1119358,false,false,1234,image-keyboard-response,13
true,12,0,1,0,true,q,false,true,0.0-2.0-0.42-0.386-3.386,0,0,0,81,false,stim,false,2,1108.9000000001397,0,0,2,86720,task2,1121975,false,false,1237,image-keyboard-response,14
true,12,0,1,0,true,q,false,true,0.0-2.0-0.43-0.387-3.387,0,0,0,81,false,stim,false,2,543.3000000000466,0,0,2,86720,task2,1124026,false,false,1240,image-keyboard-response,15
true,12,0,1,0,true,q,false,true,0.0-2.0-0.43-0.388-3.388,0,0,0,81,false,stim,false,2,735.7000000001863,0,0,2,86720,task2,1126270,false,false,1243,image-keyboard-response,16
true,12,2,1,2,true,d,false,true,0.0-2.0-0.43-0.389-3.389,0,0,0,68,false,stim,false,1,645.3000000000466,0,0,0,86720,task2,1128423,false,false,1246,image-keyboard-response,17
true,12,2,1,2,true,d,false,true,0.0-2.0-0.43-0.390-3.390,0,0,0,68,false,stim,false,1,580.8999999999069,0,0,0,86720,task2,1130511,false,false,1249,image-keyboard-response,18
true,12,2,1,2,true,d,false,true,0.0-2.0-0.43-0.391-3.391,0,0,0,68,false,stim,false,1,516.3000000000466,0,0,0,86720,task2,1132535,false,false,1252,image-keyboard-response,19
true,12,2,1,0,false,q,true,false,0.0-2.0-0.43-0.392-3.392,0,0,0,68,false,stim,false,1,463.19999999995343,0,0,1,86720,task2,1134505,false,false,1255,image-keyboard-response,20
true,12,0,1,0,true,q,false,true,0.0-2.0-0.43-0.393-3.393,0,0,0,81,false,stim,false,1,402.4000000001397,0,0,1,86720,task2,1136416,false,false,1258,image-keyboard-response,21
true,12,0,1,0,true,q,false,true,0.0-2.0-0.43-0.394-3.394,0,0,0,81,false,stim,false,2,664.5,0,0,2,86720,task2,1138590,false,false,1261,image-keyboard-response,22
true,12,0,1,0,true,q,false,true,0.0-2.0-0.43-0.395-3.395,0,0,0,81,false,stim,false,1,772.8000000000466,0,0,1,86720,task2,1140870,false,false,1264,image-keyboard-response,23
true,12,0,1,0,true,q,false,true,0.0-2.0-0.44-0.396-3.396,0,0,0,81,false,stim,false,2,475.69999999995343,0,0,2,86720,task2,1142856,false,false,1267,image-keyboard-response,24
true,12,0,1,0,true,q,false,true,0.0-2.0-0.44-0.397-3.397,0,0,0,81,false,stim,false,2,337.70000000018626,0,0,2,86720,task2,1144701,false,false,1270,image-keyboard-response,25
true,12,2,1,2,true,d,false,true,0.0-2.0-0.44-0.398-3.398,0,0,0,68,false,stim,false,1,487.39999999990687,0,0,0,86720,task2,1146697,false,false,1273,image-keyboard-response,26
true,12,0,1,0,true,q,false,true,0.0-2.0-0.44-0.399-3.399,0,0,0,81,false,stim,false,1,449.19999999995343,0,0,1,86720,task2,1148656,false,false,1276,image-keyboard-response,27
true,12,2,1,2,true,d,false,true,0.0-2.0-0.44-0.400-3.400,0,0,0,68,false,stim,false,1,490.0,0,0,0,86720,task2,1150655,false,false,1279,image-keyboard-response,28
true,12,0,1,0,true,q,false,true,0.0-2.0-0.44-0.401-3.401,0,0,0,81,false,stim,false,1,415.69999999995343,0,0,1,86720,task2,1152580,false,false,1282,image-keyboard-response,29
true,12,2,1,2,true,d,false,true,0.0-2.0-0.44-0.402-3.402,0,0,0,68,false,stim,false,1,475.69999999995343,0,0,0,86720,task2,1154565,false,false,1285,image-keyboard-response,30
true,12,0,1,0,true,q,false,true,0.0-2.0-0.44-0.403-3.403,0,0,0,81,false,stim,false,1,301.5999999998603,0,0,1,86720,task2,1156373,false,false,1288,image-keyboard-response,31
true,12,0,1,0,true,q,false,true,0.0-2.0-0.44-0.404-3.404,0,0,0,81,false,stim,false,2,388.89999999990687,0,1,2,86720,task2,1158271,false,false,1291,image-keyboard-response,32
true,12,0,1,0,true,q,false,true,0.0-2.0-0.45-0.405-3.405,0,0,0,81,false,stim,false,1,440.10000000009313,0,0,1,86720,task2,1160220,false,false,1294,image-keyboard-response,33
true,12,2,1,2,true,d,false,true,0.0-2.0-0.45-0.406-3.406,0,0,0,68,false,stim,false,1,531.1000000000931,0,0,0,86720,task2,1162260,false,false,1297,image-keyboard-response,34
true,12,2,1,2,true,d,false,true,0.0-2.0-0.45-0.407-3.407,0,0,0,68,false,stim,false,1,461.0999999998603,0,0,0,86720,task2,1164228,false,false,1300,image-keyboard-response,35
true,13,0,2,2,false,d,false,false,0.0-2.0-0.45-0.408-3.408,0,0,1,81,true,stim,true,0,1083.5999999998603,0,0,1,86720,task2,1166889,false,false,1303,image-keyboard-response,1
true,13,0,2,0,true,q,false,true,0.0-2.0-0.45-0.409-3.409,0,0,1,81,false,stim,false,0,369.80000000004657,0,1,2,86720,task2,1168768,false,false,1306,image-keyboard-response,2
true,13,2,2,1,false,z,false,true,0.0-2.0-0.45-0.410-3.410,0,0,1,68,false,stim,true,2,520.4000000001397,0,0,0,86720,task2,1170797,false,true,1309,image-keyboard-response,3
true,13,0,2,0,true,q,false,true,0.0-2.0-0.45-0.411-3.411,0,0,1,81,false,stim,false,0,412.5,0,1,2,86720,task2,1172719,false,false,1312,image-keyboard-response,4
true,13,0,2,2,false,d,false,false,0.0-2.0-0.45-0.412-3.412,0,0,1,81,false,stim,true,0,414.19999999995343,0,0,1,86720,task2,1174641,false,false,1315,image-keyboard-response,5
true,13,0,2,0,true,q,false,true,0.0-2.0-0.45-0.413-3.413,0,0,1,81,false,stim,false,0,522.8999999999069,0,1,2,86720,task2,1176673,false,false,1318,image-keyboard-response,6
true,13,0,2,1,false,z,true,false,0.0-2.0-0.46-0.414-3.414,0,0,1,81,false,stim,false,2,500.39999999990687,0,0,0,86720,task2,1178682,false,false,1321,image-keyboard-response,7
true,13,2,2,1,false,z,false,false,0.0-2.0-0.46-0.415-3.415,0,0,1,68,false,stim,true,2,411.80000000004657,0,0,0,86720,task2,1180602,false,false,1324,image-keyboard-response,8
true,13,0,2,0,true,q,false,true,0.0-2.0-0.46-0.416-3.416,0,0,1,81,false,stim,false,0,585.7999999998137,0,1,2,86720,task2,1182697,false,false,1327,image-keyboard-response,9
true,13,2,2,1,false,z,false,false,0.0-2.0-0.46-0.417-3.417,0,0,1,68,false,stim,true,2,564.5999999998603,0,0,0,86720,task2,1184770,false,false,1330,image-keyboard-response,10
true,13,0,2,0,true,q,false,true,0.0-2.0-0.46-0.418-3.418,0,0,1,81,false,stim,false,0,840.8000000000466,0,1,2,86720,task2,1187118,false,false,1333,image-keyboard-response,11
true,13,0,2,0,true,q,false,false,0.0-2.0-0.46-0.419-3.419,0,0,1,81,false,stim,false,0,520.5,0,1,2,86720,task2,1189149,false,true,1336,image-keyboard-response,12
true,13,1,2,2,false,d,true,false,0.0-2.0-0.46-0.420-3.420,0,0,1,90,false,stim,false,0,629.1999999999534,0,0,1,86720,task2,1191287,false,false,1339,image-keyboard-response,13
true,13,2,2,2,true,d,false,true,0.0-2.0-0.46-0.421-3.421,0,0,1,68,false,stim,false,0,473.30000000004657,0,0,1,86720,task2,1193269,false,false,1342,image-keyboard-response,14
true,13,2,2,2,true,d,false,true,0.0-2.0-0.46-0.422-3.422,0,0,1,68,false,stim,false,0,477.60000000009313,0,0,1,86720,task2,1195255,false,false,1345,image-keyboard-response,15
true,13,1,2,1,true,z,false,true,0.0-2.0-0.47-0.423-3.423,0,0,1,90,false,stim,false,2,477.39999999990687,0,0,0,86720,task2,1197242,false,false,1348,image-keyboard-response,16
true,13,0,2,0,true,q,false,true,0.0-2.0-0.47-0.424-3.424,0,0,1,81,false,stim,false,0,717.0,0,1,2,86720,task2,1199468,false,false,1351,image-keyboard-response,17
true,13,0,2,0,true,q,false,true,0.0-2.0-0.47-0.425-3.425,0,0,1,81,false,stim,false,0,642.9000000001397,0,1,2,86720,task2,1201620,false,false,1354,image-keyboard-response,18
true,13,1,2,1,true,z,false,true,0.0-2.0-0.47-0.426-3.426,0,0,1,90,false,stim,false,2,533.5,0,0,0,86720,task2,1203662,false,false,1357,image-keyboard-response,19
true,13,0,2,0,true,q,false,true,0.0-2.0-0.47-0.427-3.427,0,0,1,81,false,stim,false,0,682.6000000000931,0,1,2,86720,task2,1205854,false,false,1360,image-keyboard-response,20
true,13,2,2,2,true,d,false,true,0.0-2.0-0.47-0.428-3.428,0,0,1,68,false,stim,false,0,881.5,0,0,1,86720,task2,1208279,false,false,1363,image-keyboard-response,21
true,13,2,2,2,true,d,false,false,0.0-2.0-0.47-0.429-3.429,0,0,1,68,false,stim,false,0,553.0,0,0,1,86720,task2,1210343,false,true,1366,image-keyboard-response,22
true,13,2,2,2,true,d,false,true,0.0-2.0-0.47-0.430-3.430,0,0,1,68,false,stim,false,0,810.6999999999534,0,0,1,86720,task2,1212663,false,false,1369,image-keyboard-response,23
true,13,1,2,1,true,z,false,true,0.0-2.0-0.47-0.431-3.431,0,0,1,90,false,stim,false,2,863.8999999999069,0,0,0,86720,task2,1215035,false,false,1372,image-keyboard-response,24
true,13,1,2,1,true,z,false,true,0.0-2.0-0.48-0.432-3.432,0,0,1,90,false,stim,false,2,662.3999999999069,0,0,0,86720,task2,1217207,false,false,1375,image-keyboard-response,25
true,13,0,2,0,true,q,false,true,0.0-2.0-0.48-0.433-3.433,0,0,1,81,false,stim,false,0,529.8999999999069,0,1,2,86720,task2,1219245,false,false,1378,image-keyboard-response,26
true,13,2,2,2,true,d,false,false,0.0-2.0-0.48-0.434-3.434,0,0,1,68,false,stim,false,0,772.1000000000931,0,0,1,86720,task2,1221527,false,true,1381,image-keyboard-response,27
true,13,0,2,0,true,q,false,true,0.0-2.0-0.48-0.435-3.435,0,0,1,81,false,stim,false,0,796.9000000001397,0,1,2,86720,task2,1223832,false,false,1384,image-keyboard-response,28
true,13,1,2,1,true,z,false,true,0.0-2.0-0.48-0.436-3.436,0,0,1,90,false,stim,false,2,1467.3999999999069,0,0,0,86720,task2,1226808,false,false,1387,image-keyboard-response,29
true,13,1,2,1,true,z,false,true,0.0-2.0-0.48-0.437-3.437,0,0,1,90,false,stim,false,2,732.5,0,0,0,86720,task2,1229049,false,false,1390,image-keyboard-response,30
true,13,2,2,2,true,d,false,true,0.0-2.0-0.48-0.438-3.438,0,0,1,68,false,stim,false,0,978.8000000000466,0,1,1,86720,task2,1231538,false,false,1393,image-keyboard-response,31
true,13,2,2,2,true,d,false,true,0.0-2.0-0.48-0.439-3.439,0,0,1,68,false,stim,false,0,614.1000000000931,0,1,1,86720,task2,1233662,false,false,1396,image-keyboard-response,32
true,13,0,2,0,true,q,false,true,0.0-2.0-0.48-0.440-3.440,0,0,1,81,false,stim,false,0,595.1999999999534,0,0,2,86720,task2,1235766,false,false,1399,image-keyboard-response,33
true,13,0,2,0,true,q,false,false,0.0-2.0-0.49-0.441-3.441,0,0,1,81,false,stim,false,0,695.6999999999534,0,0,2,86720,task2,1237994,false,true,1402,image-keyboard-response,34
true,13,2,2,2,true,d,false,true,0.0-2.0-0.49-0.442-3.442,0,0,1,68,false,stim,false,0,1103.8000000000466,0,1,1,86720,task2,1240640,false,false,1405,image-keyboard-response,35
true,14,2,2,2,true,d,false,true,0.0-2.0-0.49-0.443-3.443,0,1,0,68,true,stim,false,2,619.3999999999069,0,1,1,86720,task2,1242767,false,false,1408,image-keyboard-response,1
true,14,0,2,2,false,d,false,false,0.0-2.0-0.49-0.444-3.444,0,1,0,81,false,stim,true,0,644.3000000000466,0,0,2,86720,task2,1244920,false,false,1411,image-keyboard-response,2
true,14,0,2,2,false,d,false,true,0.0-2.0-0.49-0.445-3.445,0,1,0,81,false,stim,true,0,595.0,0,0,2,86720,task2,1247025,false,true,1414,image-keyboard-response,3
true,14,1,2,0,false,q,false,false,0.0-2.0-0.49-0.446-3.446,0,1,0,90,false,stim,true,1,763.2000000001863,0,0,0,86720,task2,1249297,false,false,1417,image-keyboard-response,4
true,14,2,2,2,true,d,false,true,0.0-2.0-0.49-0.447-3.447,0,1,0,68,false,stim,false,2,695.6999999999534,0,1,1,86720,task2,1251502,false,false,1420,image-keyboard-response,5
true,14,1,2,0,false,q,false,false,0.0-2.0-0.49-0.448-3.448,0,1,0,90,false,stim,true,1,626.3999999999069,0,0,0,86720,task2,1253636,false,false,1423,image-keyboard-response,6
true,14,2,2,0,false,q,true,true,0.0-2.0-0.49-0.449-3.449,0,1,0,68,false,stim,false,1,628.1999999999534,0,0,0,86720,task2,1255773,false,true,1426,image-keyboard-response,7
true,14,2,2,0,false,q,true,false,0.0-2.0-0.50-0.450-3.450,0,1,0,68,false,stim,false,1,575.5,0,0,0,86720,task2,1257858,false,false,1429,image-keyboard-response,8
true,14,0,2,2,false,d,false,false,0.0-2.0-0.50-0.451-3.451,0,1,0,81,false,stim,true,0,666.3000000000466,0,0,2,86720,task2,1260034,false,false,1432,image-keyboard-response,9
true,14,2,2,2,true,d,false,false,0.0-2.0-0.50-0.452-3.452,0,1,0,68,false,stim,false,2,641.6999999999534,0,1,1,86720,task2,1262185,false,true,1435,image-keyboard-response,10
true,14,1,2,2,false,d,true,false,0.0-2.0-0.50-0.453-3.453,0,1,0,90,false,stim,false,2,1032.8000000000466,0,1,1,86720,task2,1264726,false,false,1438,image-keyboard-response,11
true,14,1,2,2,false,d,true,false,0.0-2.0-0.50-0.454-3.454,0,1,0,90,false,stim,false,0,866.3999999999069,0,0,2,86720,task2,1267102,false,false,1441,image-keyboard-response,12
true,14,2,2,0,false,q,true,false,0.0-2.0-0.50-0.455-3.455,0,1,0,68,false,stim,false,1,802.5,0,0,0,86720,task2,1269417,false,false,1444,image-keyboard-response,13
true,14,0,2,2,false,d,true,false,0.0-2.0-0.50-0.456-3.456,0,1,0,81,false,stim,false,2,1106.3000000000466,0,1,1,86720,task2,1272032,false,false,1447,image-keyboard-response,14
true,14,2,2,0,false,q,true,false,0.0-2.0-0.50-0.457-3.457,0,1,0,68,false,stim,false,1,642.6999999999534,0,0,0,86720,task2,1274184,false,false,1450,image-keyboard-response,15
true,14,1,2,2,false,d,true,false,0.0-2.0-0.50-0.458-3.458,0,1,0,90,false,stim,false,0,1319.6999999999534,0,0,2,86720,task2,1277058,false,false,1453,image-keyboard-response,16
true,14,0,2,0,true,q,false,true,0.0-2.0-0.51-0.459-3.459,0,1,0,81,false,stim,false,1,1143.3000000000466,0,0,0,86720,task2,1279712,false,false,1456,image-keyboard-response,17
true,14,0,2,2,false,d,true,true,0.0-2.0-0.51-0.460-3.460,0,1,0,81,false,stim,false,2,1158.5,0,1,1,86720,task2,1282379,false,true,1459,image-keyboard-response,18
true,14,0,2,0,true,q,false,true,0.0-2.0-0.51-0.461-3.461,0,1,0,81,false,stim,false,1,1036.1999999999534,0,0,0,86720,task2,1284924,false,false,1462,image-keyboard-response,19
true,14,0,2,0,true,q,false,false,0.0-2.0-0.51-0.462-3.462,0,1,0,81,false,stim,false,1,519.6000000000931,0,0,0,86720,task2,1286953,false,true,1465,image-keyboard-response,20
true,14,1,2,2,false,d,true,false,0.0-2.0-0.51-0.463-3.463,0,1,0,90,false,stim,false,0,930.8999999999069,0,0,2,86720,task2,1289392,false,false,1468,image-keyboard-response,21
true,14,0,2,2,false,d,true,false,0.0-2.0-0.51-0.464-3.464,0,1,0,81,false,stim,false,2,841.0999999998603,0,1,1,86720,task2,1291741,false,false,1471,image-keyboard-response,22
true,14,2,2,2,true,d,false,true,0.0-2.0-0.51-0.465-3.465,0,1,0,68,false,stim,false,2,529.1999999999534,0,1,1,86720,task2,1293781,false,false,1474,image-keyboard-response,23
true,14,1,2,2,false,d,true,false,0.0-2.0-0.51-0.466-3.466,0,1,0,90,false,stim,false,0,933.8000000000466,0,0,2,86720,task2,1296223,false,false,1477,image-keyboard-response,24
true,14,2,2,2,true,d,false,true,0.0-2.0-0.51-0.467-3.467,0,1,0,68,false,stim,false,0,949.0,0,0,2,86720,task2,1298681,false,false,1480,image-keyboard-response,25
true,14,2,2,0,false,q,true,false,0.0-2.0-0.52-0.468-3.468,0,1,0,68,false,stim,false,1,809.0,0,0,0,86720,task2,1300999,false,false,1483,image-keyboard-response,26
true,14,2,2,2,true,d,false,true,0.0-2.0-0.52-0.469-3.469,0,1,0,68,false,stim,false,0,820.8000000000466,0,0,2,86720,task2,1303330,false,false,1486,image-keyboard-response,27
true,14,0,2,2,false,d,true,false,0.0-2.0-0.52-0.470-3.470,0,1,0,81,false,stim,false,2,1042.3000000000466,0,1,1,86720,task2,1305882,false,false,1489,image-keyboard-response,28
true,14,1,2,2,false,d,true,false,0.0-2.0-0.52-0.471-3.471,0,1,0,90,false,stim,false,2,971.5999999998603,0,1,1,86720,task2,1308362,false,false,1492,image-keyboard-response,29
true,14,2,2,2,true,d,false,true,0.0-2.0-0.52-0.472-3.472,0,1,0,68,false,stim,false,0,386.69999999995343,0,0,2,86720,task2,1310258,false,false,1495,image-keyboard-response,30
true,14,1,2,0,false,q,false,false,0.0-2.0-0.52-0.473-3.473,0,1,0,90,false,stim,true,1,813.1000000000931,0,0,0,86720,task2,1312579,false,false,1498,image-keyboard-response,31
true,14,2,2,0,false,q,true,false,0.0-2.0-0.52-0.474-3.474,0,1,0,68,false,stim,false,1,602.3999999999069,0,0,0,86720,task2,1314709,false,false,1501,image-keyboard-response,32
true,15,2,2,0,false,q,false,false,0.0-2.0-0.52-0.475-3.475,0,1,0,68,true,stim,true,2,611.3000000000466,0,0,2,86720,task2,1316861,false,false,1504,image-keyboard-response,1
true,15,2,2,2,true,d,false,true,0.0-2.0-0.52-0.476-3.476,0,1,0,68,false,stim,false,2,1312.3000000000466,0,1,1,86720,task2,1319684,false,false,1507,image-keyboard-response,2
true,15,0,2,0,true,q,false,true,0.0-2.0-0.53-0.477-3.477,0,1,0,81,false,stim,false,2,1216.0,0,0,2,86720,task2,1322409,false,false,1510,image-keyboard-response,3
true,15,2,2,2,true,d,false,true,0.0-2.0-0.53-0.478-3.478,0,1,0,68,false,stim,false,2,513.3000000000466,0,1,1,86720,task2,1324432,false,false,1513,image-keyboard-response,4
true,15,0,2,2,false,d,false,false,0.0-2.0-0.53-0.479-3.479,0,1,0,81,false,stim,true,0,765.3000000000466,0,0,0,86720,task2,1326706,false,false,1516,image-keyboard-response,5
true,15,1,2,2,false,d,true,true,0.0-2.0-0.53-0.480-3.480,0,1,0,90,false,stim,false,0,645.6999999999534,0,0,0,86720,task2,1328861,false,true,1519,image-keyboard-response,6
true,15,2,2,2,true,d,false,false,0.0-2.0-0.53-0.481-3.481,0,1,0,68,false,stim,false,2,809.6000000000931,0,1,1,86720,task2,1331182,false,true,1522,image-keyboard-response,7
true,15,0,2,2,false,d,true,false,0.0-2.0-0.53-0.482-3.482,0,1,0,81,false,stim,false,2,598.5,0,1,1,86720,task2,1333288,false,false,1525,image-keyboard-response,8
true,15,1,2,0,false,q,true,false,0.0-2.0-0.53-0.483-3.483,0,1,0,90,false,stim,false,2,1229.4000000001397,0,0,2,86720,task2,1336027,false,false,1528,image-keyboard-response,9
true,15,2,2,0,false,q,false,false,0.0-2.0-0.53-0.484-3.484,0,1,0,68,false,stim,true,2,1416.8000000000466,0,0,2,86720,task2,1338952,false,false,1531,image-keyboard-response,10
true,15,0,2,2,false,d,false,false,0.0-2.0-0.53-0.485-3.485,0,1,0,81,false,stim,true,0,1075.9000000001397,0,0,0,86720,task2,1341539,false,false,1534,image-keyboard-response,11
true,15,2,2,0,false,q,false,false,0.0-2.0-0.54-0.486-3.486,0,1,0,68,false,stim,true,2,1680.1999999999534,0,0,2,86720,task2,1344728,false,false,1537,image-keyboard-response,12
true,15,1,2,2,false,d,true,false,0.0-2.0-0.54-0.487-3.487,0,1,0,90,false,stim,false,0,1030.1999999999534,0,0,0,86720,task2,1347268,false,false,1540,image-keyboard-response,13
true,15,2,2,2,true,d,false,true,0.0-2.0-0.54-0.488-3.488,0,1,0,68,false,stim,false,2,979.6999999999534,0,1,1,86720,task2,1349758,false,false,1543,image-keyboard-response,14
true,15,0,2,2,false,d,false,false,0.0-2.0-0.54-0.489-3.489,0,1,0,81,false,stim,true,0,850.5,0,0,0,86720,task2,1352117,false,false,1546,image-keyboard-response,15
true,15,2,2,2,true,d,false,true,0.0-2.0-0.54-0.490-3.490,0,1,0,68,false,stim,false,2,869.7999999998137,0,1,1,86720,task2,1354496,false,false,1549,image-keyboard-response,16
true,15,2,2,2,true,d,false,true,0.0-2.0-0.54-0.491-3.491,0,1,0,68,false,stim,false,2,638.6999999999534,0,1,1,86720,task2,1356644,false,false,1552,image-keyboard-response,17
true,15,2,2,2,true,d,false,false,0.0-2.0-0.54-0.492-3.492,0,1,0,68,false,stim,false,0,486.80000000004657,0,0,0,86720,task2,1358640,false,true,1555,image-keyboard-response,18
true,15,1,2,0,false,q,true,false,0.0-2.0-0.54-0.493-3.493,0,1,0,90,false,stim,false,2,1129.8000000000466,0,0,2,86720,task2,1361280,false,false,1558,image-keyboard-response,19
true,15,0,2,0,true,q,false,true,0.0-2.0-0.54-0.494-3.494,0,1,0,81,false,stim,false,2,855.6000000000931,0,0,2,86720,task2,1363681,false,false,1561,image-keyboard-response,20
true,15,2,2,2,true,d,false,true,0.0-2.0-0.55-0.495-3.495,0,1,0,68,false,stim,false,2,776.0,0,1,1,86720,task2,1365967,false,false,1564,image-keyboard-response,21
true,15,2,2,2,true,d,false,false,0.0-2.0-0.55-0.496-3.496,0,1,0,68,false,stim,false,2,536.1000000000931,0,1,1,86720,task2,1368012,false,true,1567,image-keyboard-response,22
true,15,1,2,2,false,d,true,false,0.0-2.0-0.55-0.497-3.497,0,1,0,90,false,stim,false,0,1253.7000000001863,0,0,0,86720,task2,1370775,false,false,1570,image-keyboard-response,23
true,15,1,2,0,false,q,true,false,0.0-2.0-0.55-0.498-3.498,0,1,0,90,false,stim,false,2,1782.8000000000466,0,0,2,86720,task2,1374069,false,false,1573,image-keyboard-response,24
false,15,-1,2,2,false,d,true,true,0.0-2.0-0.55-0.499-3.499,0,1,0,,false,stim,false,0,,0,0,0,86720,task2,1378581,false,true,1576,image-keyboard-response,25
true,15,2,2,2,true,d,false,true,0.0-2.0-0.55-0.500-3.500,0,1,0,68,false,stim,false,0,797.8999999999069,0,0,0,86720,task2,1380890,false,false,1579,image-keyboard-response,26
true,15,2,2,2,true,d,false,true,0.0-2.0-0.55-0.501-3.501,0,1,0,68,false,stim,false,2,585.5,0,1,1,86720,task2,1382986,false,false,1582,image-keyboard-response,27
false,15,-1,2,0,false,q,true,false,0.0-2.0-0.55-0.502-3.502,0,1,0,,false,stim,false,2,,0,0,2,86720,task2,1387496,false,false,1585,image-keyboard-response,28
true,15,0,2,0,true,q,false,true,0.0-2.0-0.55-0.503-3.503,0,1,0,81,false,stim,false,2,1411.3000000000466,0,0,2,86720,task2,1390421,false,false,1588,image-keyboard-response,29
true,15,0,2,2,false,d,false,false,0.0-2.0-0.56-0.504-3.504,0,1,0,81,false,stim,true,0,2696.2000000001863,0,0,0,86720,task2,1394627,false,false,1591,image-keyboard-response,30
false,15,-1,2,0,false,q,true,false,0.0-2.0-0.56-0.505-3.505,0,1,0,,false,stim,false,2,,0,0,2,86720,task2,1399138,false,false,1594,image-keyboard-response,31
true,15,0,2,0,true,q,false,true,0.0-2.0-0.56-0.506-3.506,0,1,0,81,false,stim,false,2,697.8999999999069,0,0,2,86720,task2,1401348,false,false,1597,image-keyboard-response,32
true,16,2,2,2,true,d,false,true,0.0-2.0-0.56-0.507-3.507,0,1,0,68,true,stim,false,2,800.0,0,1,1,86720,task2,1403657,false,false,1600,image-keyboard-response,1
true,16,0,2,1,false,z,false,false,0.0-2.0-0.56-0.508-3.508,0,1,0,81,false,stim,true,0,864.3999999999069,0,0,2,86720,task2,1406082,false,false,1603,image-keyboard-response,2
true,16,2,2,1,false,z,false,false,0.0-2.0-0.56-0.509-3.509,0,1,0,68,false,stim,true,2,1108.4000000001397,0,0,0,86720,task2,1408700,false,false,1606,image-keyboard-response,3
true,16,0,2,1,false,z,true,false,0.0-2.0-0.56-0.510-3.510,0,1,0,81,false,stim,false,2,1601.6999999999534,0,0,0,86720,task2,1411848,false,false,1609,image-keyboard-response,4
true,16,2,2,2,true,d,false,true,0.0-2.0-0.56-0.511-3.511,0,1,0,68,false,stim,false,2,1066.2000000001863,0,1,1,86720,task2,1414425,false,false,1612,image-keyboard-response,5
true,16,2,2,2,true,d,false,true,0.0-2.0-0.56-0.512-3.512,0,1,0,68,false,stim,false,2,519.0999999998603,0,1,1,86720,task2,1416454,false,false,1615,image-keyboard-response,6
true,16,0,2,1,false,z,false,false,0.0-2.0-0.57-0.513-3.513,0,1,0,81,false,stim,true,0,1456.6000000000931,0,0,2,86720,task2,1419421,false,false,1618,image-keyboard-response,7
true,16,1,2,1,true,z,false,false,0.0-2.0-0.57-0.514-3.514,0,1,0,90,false,stim,false,2,775.8000000000466,0,0,0,86720,task2,1421708,false,true,1621,image-keyboard-response,8
true,16,1,2,1,true,z,false,true,0.0-2.0-0.57-0.515-3.515,0,1,0,90,false,stim,false,2,696.8999999999069,0,0,0,86720,task2,1423914,false,false,1624,image-keyboard-response,9
true,16,2,2,2,true,d,false,true,0.0-2.0-0.57-0.516-3.516,0,1,0,68,false,stim,false,2,990.5999999998603,0,1,1,86720,task2,1426414,false,false,1627,image-keyboard-response,10
true,16,0,2,1,false,z,false,false,0.0-2.0-0.57-0.517-3.517,0,1,0,81,false,stim,true,0,880.6999999999534,0,0,2,86720,task2,1428803,false,false,1630,image-keyboard-response,11
true,16,1,2,1,true,z,false,false,0.0-2.0-0.57-0.518-3.518,0,1,0,90,false,stim,false,2,1154.5999999998603,0,0,0,86720,task2,1431467,false,true,1633,image-keyboard-response,12
true,16,2,2,2,true,d,false,true,0.0-2.0-0.57-0.519-3.519,0,1,0,68,false,stim,false,2,742.5,0,1,1,86720,task2,1433720,false,false,1636,image-keyboard-response,13
true,16,2,2,2,true,d,false,true,0.0-2.0-0.57-0.520-3.520,0,1,0,68,false,stim,false,2,420.0,0,1,1,86720,task2,1435650,false,false,1639,image-keyboard-response,14
true,16,0,2,1,false,z,false,false,0.0-2.0-0.57-0.521-3.521,0,1,0,81,false,stim,true,0,1516.0,0,0,2,86720,task2,1438676,false,false,1642,image-keyboard-response,15
true,16,1,2,1,true,z,false,true,0.0-2.0-0.58-0.522-3.522,0,1,0,90,false,stim,false,0,480.60000000009313,0,0,2,86720,task2,1440668,false,false,1645,image-keyboard-response,16
true,16,2,2,2,true,d,false,true,0.0-2.0-0.58-0.523-3.523,0,1,0,68,false,stim,false,2,625.6000000000931,0,1,1,86720,task2,1442803,false,false,1648,image-keyboard-response,17
true,16,0,2,1,false,z,true,false,0.0-2.0-0.58-0.524-3.524,0,1,0,81,false,stim,false,2,1043.8000000000466,0,0,0,86720,task2,1445357,false,false,1651,image-keyboard-response,18
true,16,2,2,2,true,d,false,true,0.0-2.0-0.58-0.525-3.525,0,1,0,68,false,stim,false,2,777.1999999999534,0,1,1,86720,task2,1447645,false,false,1654,image-keyboard-response,19
true,16,2,2,1,false,z,false,false,0.0-2.0-0.58-0.526-3.526,0,1,0,68,false,stim,true,2,1122.6999999999534,0,0,0,86720,task2,1450279,false,false,1657,image-keyboard-response,20
true,16,2,2,2,true,d,false,true,0.0-2.0-0.58-0.527-3.527,0,1,0,68,false,stim,false,2,562.5,0,1,1,86720,task2,1452352,false,false,1660,image-keyboard-response,21
true,16,1,2,1,true,z,false,true,0.0-2.0-0.58-0.528-3.528,0,1,0,90,false,stim,false,2,1127.4000000001397,0,0,0,86720,task2,1454989,false,false,1663,image-keyboard-response,22
true,16,1,2,1,true,z,false,true,0.0-2.0-0.58-0.529-3.529,0,1,0,90,false,stim,false,0,605.3000000000466,0,0,2,86720,task2,1457105,false,false,1666,image-keyboard-response,23
true,16,1,2,1,true,z,false,true,0.0-2.0-0.58-0.530-3.530,0,1,0,90,false,stim,false,0,483.69999999995343,0,0,2,86720,task2,1459101,false,false,1669,image-keyboard-response,24
true,16,2,2,2,true,d,false,true,0.0-2.0-0.59-0.531-3.531,0,1,0,68,false,stim,false,2,1078.8999999999069,0,1,1,86720,task2,1461690,false,false,1672,image-keyboard-response,25
true,16,1,2,1,true,z,false,false,0.0-2.0-0.59-0.532-3.532,0,1,0,90,false,stim,false,0,2961.899999999907,0,0,2,86720,task2,1466162,false,true,1675,image-keyboard-response,26
true,16,1,2,1,true,z,false,true,0.0-2.0-0.59-0.533-3.533,0,1,0,90,false,stim,false,2,1054.5,0,0,0,86720,task2,1468728,false,false,1678,image-keyboard-response,27
true,16,1,2,1,true,z,false,true,0.0-2.0-0.59-0.534-3.534,0,1,0,90,false,stim,false,0,1489.2000000001863,0,0,2,86720,task2,1471727,false,false,1681,image-keyboard-response,28
true,16,1,2,1,true,z,false,true,0.0-2.0-0.59-0.535-3.535,0,1,0,90,false,stim,false,2,1095.5,0,1,0,86720,task2,1474333,false,false,1684,image-keyboard-response,29
true,16,2,2,2,true,d,false,true,0.0-2.0-0.59-0.536-3.536,0,1,0,68,false,stim,false,2,865.5999999998603,0,1,1,86720,task2,1476708,false,false,1687,image-keyboard-response,30
true,16,2,2,1,false,z,true,false,0.0-2.0-0.59-0.537-3.537,0,1,0,68,false,stim,false,0,1616.3000000000466,0,1,2,86720,task2,1479834,false,false,1690,image-keyboard-response,31
true,16,1,2,1,true,z,false,true,0.0-2.0-0.59-0.538-3.538,0,1,0,90,false,stim,false,2,923.8000000000466,0,1,0,86720,task2,1482269,false,false,1693,image-keyboard-response,32
true,16,2,2,2,true,d,false,true,0.0-2.0-0.59-0.539-3.539,0,1,0,68,false,stim,false,2,912.5,0,1,1,86720,task2,1484691,false,false,1696,image-keyboard-response,33
false,17,-1,0,2,false,d,true,true,0.0-2.0-0.60-0.540-3.540,1,1,1,,true,stim,false,2,,0,1,1,86720,task2,1583292,false,true,1793,image-keyboard-response,1
true,17,1,0,1,true,z,false,true,0.0-2.0-0.60-0.541-3.541,1,1,1,90,false,stim,false,1,873.0999999998603,0,1,2,86720,task2,1585677,false,false,1796,image-keyboard-response,2
true,17,2,0,2,true,d,false,true,0.0-2.0-0.60-0.542-3.542,1,1,1,68,false,stim,false,2,439.20000000018626,0,1,1,86720,task2,1587625,false,false,1799,image-keyboard-response,3
true,17,1,0,1,true,z,false,true,0.0-2.0-0.60-0.543-3.543,1,1,1,90,false,stim,false,1,1234.8999999999069,0,1,0,86720,task2,1590389,false,false,1802,image-keyboard-response,4
true,17,1,0,1,true,z,false,false,0.0-2.0-0.60-0.544-3.544,1,1,1,90,false,stim,false,1,622.6000000000931,0,1,0,86720,task2,1592558,false,true,1805,image-keyboard-response,5
true,17,1,0,1,true,z,false,true,0.0-2.0-0.60-0.545-3.545,1,1,1,90,false,stim,false,1,395.80000000004657,0,1,0,86720,task2,1594464,false,false,1808,image-keyboard-response,6
true,17,2,0,1,false,z,true,false,0.0-2.0-0.60-0.546-3.546,1,1,1,68,false,stim,false,1,981.8000000000466,0,1,2,86720,task2,1596956,false,false,1811,image-keyboard-response,7
true,17,2,0,2,true,d,false,true,0.0-2.0-0.60-0.547-3.547,1,1,1,68,false,stim,false,2,483.69999999995343,0,1,1,86720,task2,1598950,false,false,1814,image-keyboard-response,8
true,17,1,0,1,true,z,false,true,0.0-2.0-0.60-0.548-3.548,1,1,1,90,false,stim,false,1,502.5999999998603,0,0,2,86720,task2,1600962,false,false,1817,image-keyboard-response,9
true,17,1,0,1,true,z,false,true,0.0-2.0-0.61-0.549-3.549,1,1,1,90,false,stim,false,1,396.39999999990687,0,0,2,86720,task2,1602870,false,false,1820,image-keyboard-response,10
true,17,1,0,1,true,z,false,true,0.0-2.0-0.61-0.550-3.550,1,1,1,90,false,stim,false,1,651.8000000000466,0,0,0,86720,task2,1605032,false,false,1823,image-keyboard-response,11
true,17,1,0,1,true,z,false,true,0.0-2.0-0.61-0.551-3.551,1,1,1,90,false,stim,false,1,436.10000000009313,0,0,0,86720,task2,1606979,false,false,1826,image-keyboard-response,12
true,17,1,0,1,true,z,false,true,0.0-2.0-0.61-0.552-3.552,1,1,1,90,false,stim,false,1,472.0999999998603,0,0,0,86720,task2,1608961,false,false,1829,image-keyboard-response,13
true,18,2,1,1,false,z,false,false,0.0-2.0-0.61-0.553-3.553,0,0,0,68,true,stim,true,2,638.3999999999069,0,0,1,86720,task2,1611109,false,false,1832,image-keyboard-response,1
true,18,1,1,0,false,q,false,false,0.0-2.0-0.61-0.554-3.554,0,0,0,90,false,stim,true,1,708.5999999998603,0,0,2,86720,task2,1613328,false,false,1835,image-keyboard-response,2
true,18,2,1,1,false,z,false,false,0.0-2.0-0.61-0.555-3.555,0,0,0,68,false,stim,true,2,874.3000000000466,0,0,1,86720,task2,1615711,false,false,1838,image-keyboard-response,3
true,18,1,1,0,false,q,false,true,0.0-2.0-0.61-0.556-3.556,0,0,0,90,false,stim,true,1,660.7000000001863,0,0,2,86720,task2,1617882,false,true,1841,image-keyboard-response,4
true,18,0,1,1,false,z,true,false,0.0-2.0-0.61-0.557-3.557,0,0,0,81,false,stim,false,2,1112.8000000000466,0,0,1,86720,task2,1620505,false,false,1844,image-keyboard-response,5
true,18,1,1,0,false,q,false,false,0.0-2.0-0.62-0.558-3.558,0,0,0,90,false,stim,true,1,631.0,0,0,2,86720,task2,1622647,false,false,1847,image-keyboard-response,6
true,18,1,1,0,false,q,false,false,0.0-2.0-0.62-0.559-3.559,0,0,0,90,false,stim,true,1,1054.1999999999534,0,0,0,86720,task2,1625211,false,false,1850,image-keyboard-response,7
true,18,2,1,0,false,q,true,false,0.0-2.0-0.62-0.560-3.560,0,0,0,68,false,stim,false,1,1268.6999999999534,0,0,2,86720,task2,1627990,false,false,1853,image-keyboard-response,8
true,18,0,1,1,false,z,true,false,0.0-2.0-0.62-0.561-3.561,0,0,0,81,false,stim,false,2,766.0,0,0,1,86720,task2,1630266,false,false,1856,image-keyboard-response,9
true,18,1,1,1,true,z,false,true,0.0-2.0-0.62-0.562-3.562,0,0,0,90,false,stim,false,2,379.5,0,0,1,86720,task2,1632156,false,false,1859,image-keyboard-response,10
true,18,1,1,1,true,z,false,true,0.0-2.0-0.62-0.563-3.563,0,0,0,90,false,stim,false,2,499.5999999998603,0,0,1,86720,task2,1634164,false,false,1862,image-keyboard-response,11
true,18,0,1,0,true,q,false,true,0.0-2.0-0.62-0.564-3.564,0,0,0,81,false,stim,false,1,859.5,0,0,0,86720,task2,1636535,false,false,1865,image-keyboard-response,12
true,18,2,1,0,false,q,true,false,0.0-2.0-0.62-0.565-3.565,0,0,0,68,false,stim,false,1,1122.4000000001397,0,0,2,86720,task2,1639168,false,false,1868,image-keyboard-response,13
true,18,0,1,0,true,q,false,true,0.0-2.0-0.62-0.566-3.566,0,0,0,81,false,stim,false,1,804.0,0,0,0,86720,task2,1641482,false,false,1871,image-keyboard-response,14
true,18,1,1,1,true,z,false,true,0.0-2.0-0.63-0.567-3.567,0,0,0,90,false,stim,false,2,529.3999999999069,0,0,1,86720,task2,1643524,false,false,1874,image-keyboard-response,15
true,18,0,1,0,true,q,false,true,0.0-2.0-0.63-0.568-3.568,0,0,0,81,false,stim,false,1,602.3999999999069,0,0,2,86720,task2,1645636,false,false,1877,image-keyboard-response,16
true,18,0,1,0,true,q,false,true,0.0-2.0-0.63-0.569-3.569,0,0,0,81,false,stim,false,1,506.0,0,0,0,86720,task2,1647652,false,false,1880,image-keyboard-response,17
true,18,0,1,0,true,q,false,true,0.0-2.0-0.63-0.570-3.570,0,0,0,81,false,stim,false,1,392.59999999962747,0,0,0,86720,task2,1649555,false,false,1883,image-keyboard-response,18
true,18,0,1,0,true,q,false,true,0.0-2.0-0.63-0.571-3.571,0,0,0,81,false,stim,false,1,804.5,0,0,2,86720,task2,1651870,false,false,1886,image-keyboard-response,19
true,18,0,1,0,true,q,false,true,0.0-2.0-0.63-0.572-3.572,0,0,0,81,false,stim,false,1,2734.5999999996275,0,0,0,86720,task2,1656114,false,false,1889,image-keyboard-response,20
true,18,1,1,0,false,q,false,false,0.0-2.0-0.63-0.573-3.573,0,0,0,90,false,stim,true,1,1655.9000000003725,0,0,2,86720,task2,1659281,false,false,1892,image-keyboard-response,21
true,18,1,1,1,true,z,false,true,0.0-2.0-0.63-0.574-3.574,0,0,0,90,false,stim,false,2,738.3999999999069,0,0,1,86720,task2,1661531,false,false,1895,image-keyboard-response,22
true,18,1,1,1,true,z,false,true,0.0-2.0-0.63-0.575-3.575,0,0,0,90,false,stim,false,2,702.2000000001863,0,0,1,86720,task2,1663744,false,false,1898,image-keyboard-response,23
true,18,0,1,0,true,q,false,true,0.0-2.0-0.64-0.576-3.576,0,0,0,81,false,stim,false,1,1787.7000000001863,0,0,2,86720,task2,1667067,false,false,1901,image-keyboard-response,24
true,18,0,1,0,true,q,false,true,0.0-2.0-0.64-0.577-3.577,0,0,0,81,false,stim,false,1,585.6000000000931,0,0,2,86720,task2,1669201,false,false,1904,image-keyboard-response,25
true,18,2,1,0,false,q,true,false,0.0-2.0-0.64-0.578-3.578,0,0,0,68,false,stim,false,1,2207.6999999997206,0,0,0,86720,task2,1672920,false,false,1907,image-keyboard-response,26
true,18,2,1,1,false,z,false,false,0.0-2.0-0.64-0.579-3.579,0,0,0,68,false,stim,true,2,678.6000000000931,0,0,1,86720,task2,1675109,false,false,1910,image-keyboard-response,27
true,18,1,1,1,true,z,false,true,0.0-2.0-0.64-0.580-3.580,0,0,0,90,false,stim,false,2,1076.7999999998137,0,0,1,86720,task2,1677697,false,false,1913,image-keyboard-response,28
true,18,0,1,0,true,q,false,true,0.0-2.0-0.64-0.581-3.581,0,0,0,81,false,stim,false,1,2172.0999999996275,0,0,2,86720,task2,1681380,false,false,1916,image-keyboard-response,29
true,18,0,1,0,true,q,false,true,0.0-2.0-0.64-0.582-3.582,0,0,0,81,false,stim,false,1,2287.0999999996275,0,0,0,86720,task2,1685178,false,false,1919,image-keyboard-response,30
true,18,1,1,1,true,z,false,true,0.0-2.0-0.64-0.583-3.583,0,0,0,90,false,stim,false,2,700.2000000001863,0,0,1,86720,task2,1687390,false,false,1922,image-keyboard-response,31
true,18,0,1,0,true,q,false,true,0.0-2.0-0.64-0.584-3.584,0,0,0,81,false,stim,false,1,755.0,0,0,0,86720,task2,1689656,false,false,1925,image-keyboard-response,32
true,18,1,1,1,true,z,false,false,0.0-2.0-0.65-0.585-3.585,0,0,0,90,false,stim,false,2,1349.7999999998137,0,0,1,86720,task2,1692519,false,true,1928,image-keyboard-response,33
true,18,0,1,0,true,q,false,true,0.0-2.0-0.65-0.586-3.586,0,0,0,81,false,stim,false,1,661.7999999998137,0,0,2,86720,task2,1694691,false,false,1931,image-keyboard-response,34
true,18,0,1,0,true,q,false,true,0.0-2.0-0.65-0.587-3.587,0,0,0,81,false,stim,false,1,847.6000000000931,0,1,0,86720,task2,1697050,false,false,1934,image-keyboard-response,35
true,18,0,1,0,true,q,false,true,0.0-2.0-0.65-0.588-3.588,0,0,0,81,false,stim,false,1,719.5,0,1,0,86720,task2,1699281,false,false,1937,image-keyboard-response,36
true,18,0,1,0,true,q,false,true,0.0-2.0-0.65-0.589-3.589,0,0,0,81,false,stim,false,1,624.2999999998137,0,0,2,86720,task2,1701417,false,false,1940,image-keyboard-response,37
