answered,blockNum,choice,condition,corResp,correct,correct_response,explo,fb,internal_node_id,isStable_1,isStable_2,isStable_3,key_press,newBlock,part,persev,persevResp,rt,sessNum,stableAS,stimulus,subject,task,time_elapsed,training,trap,trial_index,trial_type,trialsInBlock
true,1,1,0,0,false,q,true,false,0.0-2.0-0.0-0.0-3.0,0,0,0,90,true,stim,false,-1,2802.7000000476837,2,0,0,88713,task1,197445,false,false,186,image-keyboard-response,1
true,1,1,0,2,false,d,true,false,0.0-2.0-0.0-0.1-3.1,0,0,0,90,false,stim,false,-1,870.2000000476837,2,0,2,88713,task1,199850,false,false,189,image-keyboard-response,2
true,1,2,0,2,true,d,false,true,0.0-2.0-0.0-0.2-3.2,0,0,0,68,false,stim,false,-1,1084.6000001430511,2,0,2,88713,task1,202462,false,false,192,image-keyboard-response,3
true,1,1,0,1,true,z,false,false,0.0-2.0-0.0-0.3-3.3,0,0,0,90,false,stim,false,-1,1808.0999999046326,2,0,1,88713,task1,205790,false,true,195,image-keyboard-response,4
true,1,1,0,0,false,q,true,false,0.0-2.0-0.0-0.4-3.4,0,0,0,90,false,stim,false,-1,1301.3999998569489,2,0,0,88713,task1,208618,false,false,198,image-keyboard-response,5
true,1,0,0,2,false,d,true,false,0.0-2.0-0.0-0.5-3.5,0,0,0,81,false,stim,false,-1,1138.5999999046326,2,0,2,88713,task1,211280,false,false,201,image-keyboard-response,6
true,1,0,0,1,false,z,true,false,0.0-2.0-0.0-0.6-3.6,0,0,0,81,false,stim,false,-1,593.7000000476837,2,0,1,88713,task1,213401,false,false,204,image-keyboard-response,7
true,1,2,0,1,false,z,true,false,0.0-2.0-0.0-0.7-3.7,0,0,0,68,false,stim,false,-1,1593.7999999523163,2,0,1,88713,task1,216516,false,false,207,image-keyboard-response,8
true,1,2,0,0,false,q,true,false,0.0-2.0-0.0-0.8-3.8,0,0,0,68,false,stim,false,-1,1569.7000000476837,2,0,0,88713,task1,219594,false,false,210,image-keyboard-response,9
true,1,2,0,1,false,z,true,false,0.0-2.0-0.1-0.9-3.9,0,0,0,68,false,stim,false,-1,1644.5,2,0,1,88713,task1,222758,false,false,213,image-keyboard-response,10
true,1,2,0,2,true,d,false,true,0.0-2.0-0.1-0.10-3.10,0,0,0,68,false,stim,false,-1,1253.5,2,0,2,88713,task1,225533,false,false,216,image-keyboard-response,11
true,1,2,0,2,true,d,false,true,0.0-2.0-0.1-0.11-3.11,0,0,0,68,false,stim,false,-1,1439.8999998569489,2,0,2,88713,task1,228504,false,false,219,image-keyboard-response,12
true,1,1,0,1,true,z,false,true,0.0-2.0-0.1-0.12-3.12,0,0,0,90,false,stim,false,-1,807.2999999523163,2,0,1,88713,task1,230839,false,false,222,image-keyboard-response,13
true,1,2,0,2,true,d,false,true,0.0-2.0-0.1-0.13-3.13,0,0,0,68,false,stim,false,-1,1829.8999998569489,2,0,2,88713,task1,234198,false,false,225,image-keyboard-response,14
true,1,0,0,0,true,q,false,true,0.0-2.0-0.1-0.14-3.14,0,0,0,81,false,stim,false,-1,886.2000000476837,2,0,0,88713,task1,236602,false,false,228,image-keyboard-response,15
true,1,2,0,1,false,z,true,false,0.0-2.0-0.1-0.15-3.15,0,0,0,68,false,stim,false,-1,1699.5,2,0,1,88713,task1,239818,false,false,231,image-keyboard-response,16
true,1,0,0,0,true,q,false,true,0.0-2.0-0.1-0.16-3.16,0,0,0,81,false,stim,false,-1,837.2000000476837,2,0,0,88713,task1,242182,false,false,234,image-keyboard-response,17
true,1,0,0,0,true,q,false,true,0.0-2.0-0.1-0.17-3.17,0,0,0,81,false,stim,false,-1,692.8000001907349,2,0,0,88713,task1,244397,false,false,237,image-keyboard-response,18
true,1,1,0,2,false,d,true,false,0.0-2.0-0.2-0.18-3.18,0,0,0,90,false,stim,false,-1,969.0999999046326,2,0,2,88713,task1,246875,false,false,240,image-keyboard-response,19
true,1,1,0,1,true,z,false,true,0.0-2.0-0.2-0.19-3.19,0,0,0,90,false,stim,false,-1,1281.0,2,0,1,88713,task1,249677,false,false,243,image-keyboard-response,20
true,1,0,0,0,true,q,false,true,0.0-2.0-0.2-0.20-3.20,0,0,0,81,false,stim,false,-1,911.3000001907349,2,0,0,88713,task1,252121,false,false,246,image-keyboard-response,21
true,1,2,0,2,true,d,false,true,0.0-2.0-0.2-0.21-3.21,0,0,0,68,false,stim,false,-1,744.7000000476837,2,0,2,88713,task1,254389,false,false,249,image-keyboard-response,22
true,1,0,0,0,true,q,false,true,0.0-2.0-0.2-0.22-3.22,0,0,0,81,false,stim,false,-1,878.5,2,0,0,88713,task1,256776,false,false,252,image-keyboard-response,23
true,1,1,0,1,true,z,false,true,0.0-2.0-0.2-0.23-3.23,0,0,0,90,false,stim,false,-1,928.7000000476837,2,0,1,88713,task1,259225,false,false,255,image-keyboard-response,24
true,1,2,0,2,true,d,false,true,0.0-2.0-0.2-0.24-3.24,0,0,0,68,false,stim,false,-1,1039.3000001907349,2,0,2,88713,task1,261791,false,false,258,image-keyboard-response,25
true,1,1,0,1,true,z,false,true,0.0-2.0-0.2-0.25-3.25,0,0,0,90,false,stim,false,-1,863.6000001430511,2,0,1,88713,task1,264181,false,false,261,image-keyboard-response,26
true,2,0,1,2,false,d,false,false,0.0-2.0-0.2-0.26-3.26,0,0,0,81,true,stim,true,0,692.8999998569489,2,0,0,88713,task1,266394,false,false,264,image-keyboard-response,1
true,2,1,1,2,false,d,false,false,0.0-2.0-0.3-0.27-3.27,0,0,0,90,false,stim,true,1,1150.2000000476837,2,0,1,88713,task1,269072,false,false,267,image-keyboard-response,2
true,2,2,1,2,true,d,false,true,0.0-2.0-0.3-0.28-3.28,0,0,0,68,false,stim,false,0,1247.5,2,0,0,88713,task1,271850,false,false,270,image-keyboard-response,3
true,2,2,1,0,false,q,false,false,0.0-2.0-0.3-0.29-3.29,0,0,0,68,false,stim,true,2,1744.9000000953674,2,0,2,88713,task1,275100,false,false,273,image-keyboard-response,4
true,2,2,1,2,true,d,false,true,0.0-2.0-0.3-0.30-3.30,0,0,0,68,false,stim,false,0,744.0,2,0,0,88713,task1,277357,false,false,276,image-keyboard-response,5
true,2,1,1,2,false,d,false,false,0.0-2.0-0.3-0.31-3.31,0,0,0,90,false,stim,true,1,988.1999998092651,2,0,1,88713,task1,279862,false,false,279,image-keyboard-response,6
true,2,2,1,0,false,q,false,false,0.0-2.0-0.3-0.32-3.32,0,0,0,68,false,stim,true,2,2014.5,2,0,2,88713,task1,283399,false,false,282,image-keyboard-response,7
true,2,2,1,2,true,d,false,true,0.0-2.0-0.3-0.33-3.33,0,0,0,68,false,stim,false,1,890.5,2,0,1,88713,task1,285821,false,false,285,image-keyboard-response,8
true,2,0,1,2,false,d,false,false,0.0-2.0-0.3-0.34-3.34,0,0,0,81,false,stim,true,0,1052.4000000953674,2,0,0,88713,task1,288387,false,false,288,image-keyboard-response,9
true,2,0,1,0,true,q,false,true,0.0-2.0-0.3-0.35-3.35,0,0,0,81,false,stim,false,2,1783.1999998092651,2,0,2,88713,task1,291696,false,false,291,image-keyboard-response,10
true,2,1,1,2,false,d,false,false,0.0-2.0-0.4-0.36-3.36,0,0,0,90,false,stim,true,1,1592.5999999046326,2,0,1,88713,task1,294819,false,false,294,image-keyboard-response,11
true,2,2,1,0,false,q,false,false,0.0-2.0-0.4-0.37-3.37,0,0,0,68,false,stim,true,2,898.6000001430511,2,0,2,88713,task1,297252,false,false,297,image-keyboard-response,12
true,2,0,1,0,true,q,false,true,0.0-2.0-0.4-0.38-3.38,0,0,0,81,false,stim,false,2,718.3999998569489,2,0,2,88713,task1,299502,false,false,300,image-keyboard-response,13
true,2,0,1,2,false,d,true,false,0.0-2.0-0.4-0.39-3.39,0,0,0,81,false,stim,false,1,1050.6999998092651,2,0,1,88713,task1,302088,false,false,303,image-keyboard-response,14
true,2,0,1,0,true,q,false,true,0.0-2.0-0.4-0.40-3.40,0,0,0,81,false,stim,false,2,1319.2000000476837,2,0,2,88713,task1,304923,false,false,306,image-keyboard-response,15
true,2,1,1,2,false,d,true,false,0.0-2.0-0.4-0.41-3.41,0,0,0,90,false,stim,false,0,1231.6000001430511,2,0,0,88713,task1,307681,false,false,309,image-keyboard-response,16
true,2,2,1,2,true,d,false,true,0.0-2.0-0.4-0.42-3.42,0,0,0,68,false,stim,false,0,594.7000000476837,2,0,0,88713,task1,309804,false,false,312,image-keyboard-response,17
true,2,2,1,2,true,d,false,false,0.0-2.0-0.4-0.43-3.43,0,0,0,68,false,stim,false,0,579.2000000476837,2,0,0,88713,task1,311907,false,true,315,image-keyboard-response,18
true,2,2,1,2,true,d,false,false,0.0-2.0-0.4-0.44-3.44,0,0,0,68,false,stim,false,1,1128.2000000476837,2,0,1,88713,task1,314556,false,true,318,image-keyboard-response,19
true,2,0,1,2,false,d,false,false,0.0-2.0-0.5-0.45-3.45,0,0,0,81,false,stim,true,0,1523.2000000476837,2,0,0,88713,task1,317602,false,false,321,image-keyboard-response,20
true,2,0,1,0,true,q,false,true,0.0-2.0-0.5-0.46-3.46,0,0,0,81,false,stim,false,2,794.2000000476837,2,0,2,88713,task1,319924,false,false,324,image-keyboard-response,21
true,2,1,1,2,false,d,true,false,0.0-2.0-0.5-0.47-3.47,0,0,0,90,false,stim,false,0,881.5999999046326,2,0,0,88713,task1,322331,false,false,327,image-keyboard-response,22
true,2,1,1,2,false,d,false,false,0.0-2.0-0.5-0.48-3.48,0,0,0,90,false,stim,true,1,1054.0,2,0,1,88713,task1,324907,false,false,330,image-keyboard-response,23
true,2,2,1,2,true,d,false,false,0.0-2.0-0.5-0.49-3.49,0,0,0,68,false,stim,false,0,891.7999999523163,2,0,0,88713,task1,327325,false,true,333,image-keyboard-response,24
true,2,2,1,2,true,d,false,true,0.0-2.0-0.5-0.50-3.50,0,0,0,68,false,stim,false,1,793.6000001430511,2,0,1,88713,task1,329635,false,false,336,image-keyboard-response,25
true,2,0,1,0,true,q,false,true,0.0-2.0-0.5-0.51-3.51,0,0,0,81,false,stim,false,2,722.8999998569489,2,0,2,88713,task1,331882,false,false,339,image-keyboard-response,26
true,2,0,1,0,true,q,false,true,0.0-2.0-0.5-0.52-3.52,0,0,0,81,false,stim,false,2,753.2999999523163,2,0,2,88713,task1,334159,false,false,342,image-keyboard-response,27
true,2,2,1,2,true,d,false,false,0.0-2.0-0.5-0.53-3.53,0,0,0,68,false,stim,false,1,495.09999990463257,2,0,1,88713,task1,336184,false,true,345,image-keyboard-response,28
true,2,2,1,2,true,d,false,true,0.0-2.0-0.6-0.54-3.54,0,0,0,68,false,stim,false,0,1120.1000001430511,2,0,0,88713,task1,338811,false,false,348,image-keyboard-response,29
true,2,0,1,2,false,d,true,false,0.0-2.0-0.6-0.55-3.55,0,0,0,81,false,stim,false,1,758.2000000476837,2,0,1,88713,task1,341092,false,false,351,image-keyboard-response,30
true,2,2,1,2,true,d,false,true,0.0-2.0-0.6-0.56-3.56,0,0,0,68,false,stim,false,0,988.9000000953674,2,0,0,88713,task1,343609,false,false,354,image-keyboard-response,31
true,2,0,1,2,false,d,true,false,0.0-2.0-0.6-0.57-3.57,0,0,0,81,false,stim,false,1,1257.7999999523163,2,0,1,88713,task1,346389,false,false,357,image-keyboard-response,32
true,2,2,1,2,true,d,false,true,0.0-2.0-0.6-0.58-3.58,0,0,0,68,false,stim,false,0,1003.1000001430511,2,0,0,88713,task1,348918,false,false,360,image-keyboard-response,33
true,2,1,1,2,false,d,false,false,0.0-2.0-0.6-0.59-3.59,0,0,0,90,false,stim,true,1,983.9000000953674,2,0,1,88713,task1,351437,false,false,363,image-keyboard-response,34
true,2,0,1,0,true,q,false,true,0.0-2.0-0.6-0.60-3.60,0,0,0,81,false,stim,false,2,1305.2000000476837,2,0,2,88713,task1,354273,false,false,366,image-keyboard-response,35
true,2,0,1,0,true,q,false,true,0.0-2.0-0.6-0.61-3.61,0,0,0,81,false,stim,false,2,663.8000001907349,2,0,2,88713,task1,356466,false,false,369,image-keyboard-response,36
true,2,0,1,0,true,q,false,true,0.0-2.0-0.6-0.62-3.62,0,0,0,81,false,stim,false,2,570.3000001907349,2,0,2,88713,task1,358559,false,false,372,image-keyboard-response,37
true,2,2,1,2,true,d,false,true,0.0-2.0-0.7-0.63-3.63,0,0,0,68,false,stim,false,1,785.3999998569489,2,0,1,88713,task1,360855,false,false,375,image-keyboard-response,38
true,2,0,1,2,false,d,false,true,0.0-2.0-0.7-0.64-3.64,0,0,0,81,false,stim,true,0,1343.6000001430511,2,0,0,88713,task1,363717,false,true,378,image-keyboard-response,39
true,2,0,1,2,false,d,false,false,0.0-2.0-0.7-0.65-3.65,0,0,0,81,false,stim,true,0,925.0999999046326,2,0,0,88713,task1,366167,false,false,381,image-keyboard-response,40
true,2,1,1,2,false,d,true,true,0.0-2.0-0.7-0.66-3.66,0,0,0,90,false,stim,false,0,1282.3999998569489,2,0,0,88713,task1,368972,false,true,384,image-keyboard-response,41
true,2,0,1,0,true,q,false,true,0.0-2.0-0.7-0.67-3.67,0,0,0,81,false,stim,false,2,854.9000000953674,2,0,2,88713,task1,371353,false,false,387,image-keyboard-response,42
true,2,0,1,0,true,q,false,true,0.0-2.0-0.7-0.68-3.68,0,0,0,81,false,stim,false,2,623.7000000476837,2,0,2,88713,task1,373507,false,false,390,image-keyboard-response,43
true,2,2,1,2,true,d,false,true,0.0-2.0-0.7-0.69-3.69,0,0,0,68,false,stim,false,1,1189.3999998569489,2,0,1,88713,task1,376210,false,false,393,image-keyboard-response,44
true,3,2,1,0,false,q,false,false,0.0-2.0-0.7-0.70-3.70,0,0,0,68,true,stim,true,2,783.2999999523163,2,0,1,88713,task1,378516,false,false,396,image-keyboard-response,1
true,3,0,1,2,false,d,false,false,0.0-2.0-0.7-0.71-3.71,0,0,0,81,false,stim,true,0,777.9000000953674,2,0,2,88713,task1,380828,false,false,399,image-keyboard-response,2
true,3,1,1,0,false,q,true,false,0.0-2.0-0.8-0.72-3.72,0,0,0,90,false,stim,false,2,1367.7999999523163,2,0,1,88713,task1,383723,false,false,402,image-keyboard-response,3
true,3,1,1,1,true,z,false,true,0.0-2.0-0.8-0.73-3.73,0,0,0,90,false,stim,false,2,1158.4000000953674,2,0,0,88713,task1,386397,false,false,405,image-keyboard-response,4
true,3,1,1,2,false,d,true,false,0.0-2.0-0.8-0.74-3.74,0,0,0,90,false,stim,false,0,913.3999998569489,2,0,2,88713,task1,388837,false,false,408,image-keyboard-response,5
true,3,0,1,0,true,q,false,true,0.0-2.0-0.8-0.75-3.75,0,0,0,81,false,stim,false,2,960.9000000953674,2,0,1,88713,task1,391316,false,false,411,image-keyboard-response,6
true,3,2,1,1,false,z,false,false,0.0-2.0-0.8-0.76-3.76,0,0,0,68,false,stim,true,2,1044.5,2,0,0,88713,task1,393889,false,false,414,image-keyboard-response,7
true,3,1,1,1,true,z,false,true,0.0-2.0-0.8-0.77-3.77,0,0,0,90,false,stim,false,2,528.8000001907349,2,0,0,88713,task1,395938,false,false,417,image-keyboard-response,8
true,3,1,1,0,false,q,true,false,0.0-2.0-0.8-0.78-3.78,0,0,0,90,false,stim,false,2,1310.4000000953674,2,0,1,88713,task1,398769,false,false,420,image-keyboard-response,9
true,3,1,1,2,false,d,true,false,0.0-2.0-0.8-0.79-3.79,0,0,0,90,false,stim,false,0,1016.0,2,0,2,88713,task1,401314,false,false,423,image-keyboard-response,10
true,3,0,1,2,false,d,false,false,0.0-2.0-0.8-0.80-3.80,0,0,0,81,false,stim,true,0,487.90000009536743,2,0,2,88713,task1,403318,false,false,426,image-keyboard-response,11
true,3,1,1,0,false,q,true,false,0.0-2.0-0.9-0.81-3.81,0,0,0,90,false,stim,false,2,863.7999999523163,2,0,1,88713,task1,405711,false,false,429,image-keyboard-response,12
true,3,2,1,2,true,d,false,true,0.0-2.0-0.9-0.82-3.82,0,0,0,68,false,stim,false,0,813.0,2,0,2,88713,task1,408046,false,false,432,image-keyboard-response,13
true,3,1,1,1,true,z,false,true,0.0-2.0-0.9-0.83-3.83,0,0,0,90,false,stim,false,2,765.7000000476837,2,0,0,88713,task1,410333,false,false,435,image-keyboard-response,14
true,3,0,1,0,true,q,false,true,0.0-2.0-0.9-0.84-3.84,0,0,0,81,false,stim,false,2,797.2999999523163,2,0,1,88713,task1,412648,false,false,438,image-keyboard-response,15
true,3,0,1,0,true,q,false,true,0.0-2.0-0.9-0.85-3.85,0,0,0,81,false,stim,false,2,748.0999999046326,2,0,1,88713,task1,414918,false,false,441,image-keyboard-response,16
true,3,1,1,1,true,z,false,true,0.0-2.0-0.9-0.86-3.86,0,0,0,90,false,stim,false,2,1055.0,2,0,0,88713,task1,417495,false,false,444,image-keyboard-response,17
true,3,1,1,1,true,z,false,true,0.0-2.0-0.9-0.87-3.87,0,0,0,90,false,stim,false,2,691.3000001907349,2,0,0,88713,task1,419716,false,false,447,image-keyboard-response,18
true,3,2,1,2,true,d,false,true,0.0-2.0-0.9-0.88-3.88,0,0,0,68,false,stim,false,0,895.7999999523163,2,0,2,88713,task1,422136,false,false,450,image-keyboard-response,19
true,3,2,1,2,true,d,false,true,0.0-2.0-0.9-0.89-3.89,0,0,0,68,false,stim,false,0,667.1000001430511,2,0,2,88713,task1,424328,false,false,453,image-keyboard-response,20
true,3,1,1,0,false,q,true,false,0.0-2.0-0.10-0.90-3.90,0,0,0,90,false,stim,false,2,938.2000000476837,2,0,1,88713,task1,426799,false,false,456,image-keyboard-response,21
true,3,1,1,1,true,z,false,false,0.0-2.0-0.10-0.91-3.91,0,0,0,90,false,stim,false,2,1094.7999999523163,2,0,0,88713,task1,429423,false,true,459,image-keyboard-response,22
true,3,2,1,2,true,d,false,true,0.0-2.0-0.10-0.92-3.92,0,0,0,68,false,stim,false,0,828.5,2,0,2,88713,task1,431777,false,false,462,image-keyboard-response,23
true,3,0,1,1,false,z,true,false,0.0-2.0-0.10-0.93-3.93,0,0,0,81,false,stim,false,2,747.9000000953674,2,0,0,88713,task1,434045,false,false,465,image-keyboard-response,24
true,3,0,1,0,true,q,false,true,0.0-2.0-0.10-0.94-3.94,0,0,0,81,false,stim,false,2,1865.7000000476837,2,0,1,88713,task1,437434,false,false,468,image-keyboard-response,25
true,3,2,1,2,true,d,false,true,0.0-2.0-0.10-0.95-3.95,0,0,0,68,false,stim,false,0,668.9000000953674,2,0,2,88713,task1,439623,false,false,471,image-keyboard-response,26
true,3,0,1,1,false,z,true,false,0.0-2.0-0.10-0.96-3.96,0,0,0,81,false,stim,false,2,1155.2000000476837,2,0,0,88713,task1,442306,false,false,474,image-keyboard-response,27
true,3,2,1,2,true,d,false,true,0.0-2.0-0.10-0.97-3.97,0,0,0,68,false,stim,false,0,650.5,2,0,2,88713,task1,444490,false,false,477,image-keyboard-response,28
true,3,2,1,0,false,q,false,false,0.0-2.0-0.10-0.98-3.98,0,0,0,68,false,stim,true,2,968.0999999046326,2,0,1,88713,task1,446994,false,false,480,image-keyboard-response,29
true,3,2,1,1,false,z,false,true,0.0-2.0-0.11-0.99-3.99,0,0,0,68,false,stim,true,2,1252.2000000476837,2,0,0,88713,task1,449775,false,true,483,image-keyboard-response,30
true,3,0,1,0,true,q,false,true,0.0-2.0-0.11-0.100-3.100,0,0,0,81,false,stim,false,2,936.2000000476837,2,0,1,88713,task1,452229,false,false,486,image-keyboard-response,31
true,3,2,1,1,false,z,false,false,0.0-2.0-0.11-0.101-3.101,0,0,0,68,false,stim,true,2,1090.6999998092651,2,0,0,88713,task1,454852,false,false,489,image-keyboard-response,32
true,3,0,1,0,true,q,false,false,0.0-2.0-0.11-0.102-3.102,0,0,0,81,false,stim,false,2,922.2999999523163,2,0,1,88713,task1,457299,false,true,492,image-keyboard-response,33
true,3,2,1,2,true,d,false,true,0.0-2.0-0.11-0.103-3.103,0,0,0,68,false,stim,false,0,756.9000000953674,2,0,2,88713,task1,459586,false,false,495,image-keyboard-response,34
true,3,2,1,0,false,q,false,false,0.0-2.0-0.11-0.104-3.104,0,0,0,68,false,stim,true,2,1300.8000001907349,2,0,1,88713,task1,462419,false,false,498,image-keyboard-response,35
true,3,2,1,2,true,d,false,true,0.0-2.0-0.11-0.105-3.105,0,0,0,68,false,stim,false,0,687.5,2,0,2,88713,task1,464642,false,false,501,image-keyboard-response,36
true,3,1,1,1,true,z,false,true,0.0-2.0-0.11-0.106-3.106,0,0,0,90,false,stim,false,2,944.5,2,0,0,88713,task1,467111,false,false,504,image-keyboard-response,37
true,3,2,1,2,true,d,false,true,0.0-2.0-0.11-0.107-3.107,0,0,0,68,false,stim,false,0,739.0,2,0,2,88713,task1,469374,false,false,507,image-keyboard-response,38
true,3,2,1,2,true,d,false,true,0.0-2.0-0.12-0.108-3.108,0,0,0,68,false,stim,false,0,684.9000000953674,2,0,2,88713,task1,471585,false,false,510,image-keyboard-response,39
true,3,1,1,0,false,q,true,false,0.0-2.0-0.12-0.109-3.109,0,0,0,90,false,stim,false,2,1151.0,2,0,1,88713,task1,474255,false,false,513,image-keyboard-response,40
true,3,1,1,1,true,z,false,true,0.0-2.0-0.12-0.110-3.110,0,0,0,90,false,stim,false,2,2053.600000143051,2,0,0,88713,task1,477839,false,false,516,image-keyboard-response,41
true,3,1,1,1,true,z,false,true,0.0-2.0-0.12-0.111-3.111,0,0,0,90,false,stim,false,2,646.3999998569489,2,0,0,88713,task1,480013,false,false,519,image-keyboard-response,42
true,4,2,1,0,false,q,false,false,0.0-2.0-0.12-0.112-3.112,0,0,0,68,true,stim,true,2,506.0,2,0,2,88713,task1,482051,false,false,522,image-keyboard-response,1
true,4,2,1,1,false,z,true,false,0.0-2.0-0.12-0.113-3.113,0,0,0,68,false,stim,false,0,1383.8000001907349,2,0,1,88713,task1,484961,false,false,525,image-keyboard-response,2
true,4,1,1,0,false,q,false,false,0.0-2.0-0.12-0.114-3.114,0,0,0,90,false,stim,true,1,999.7000000476837,2,0,0,88713,task1,487493,false,false,528,image-keyboard-response,3
true,4,2,1,0,false,q,false,false,0.0-2.0-0.12-0.115-3.115,0,0,0,68,false,stim,true,2,1387.4000000953674,2,0,2,88713,task1,490414,false,false,531,image-keyboard-response,4
true,4,2,1,1,false,z,true,false,0.0-2.0-0.12-0.116-3.116,0,0,0,68,false,stim,false,0,2151.0,2,0,1,88713,task1,494097,false,false,534,image-keyboard-response,5
true,4,1,1,0,false,q,true,true,0.0-2.0-0.13-0.117-3.117,0,0,0,90,false,stim,false,2,870.7000000476837,2,0,2,88713,task1,496499,false,true,537,image-keyboard-response,6
true,4,1,1,1,true,z,false,true,0.0-2.0-0.13-0.118-3.118,0,0,0,90,false,stim,false,0,1074.1000001430511,2,0,1,88713,task1,499093,false,false,540,image-keyboard-response,7
true,4,1,1,0,false,q,false,false,0.0-2.0-0.13-0.119-3.119,0,0,0,90,false,stim,true,1,767.7000000476837,2,0,0,88713,task1,501383,false,false,543,image-keyboard-response,8
true,4,1,1,0,false,q,true,false,0.0-2.0-0.13-0.120-3.120,0,0,0,90,false,stim,false,2,758.3000001907349,2,0,2,88713,task1,503677,false,false,546,image-keyboard-response,9
true,4,0,1,0,true,q,false,true,0.0-2.0-0.13-0.121-3.121,0,0,0,81,false,stim,false,1,1301.7000000476837,2,0,0,88713,task1,506506,false,false,549,image-keyboard-response,10
true,4,0,1,0,true,q,false,true,0.0-2.0-0.13-0.122-3.122,0,0,0,81,false,stim,false,2,685.2000000476837,2,0,2,88713,task1,508714,false,false,552,image-keyboard-response,11
true,4,0,1,0,true,q,false,true,0.0-2.0-0.13-0.123-3.123,0,0,0,81,false,stim,false,1,826.2999999523163,2,0,0,88713,task1,511067,false,false,555,image-keyboard-response,12
true,4,1,1,1,true,z,false,false,0.0-2.0-0.13-0.124-3.124,0,0,0,90,false,stim,false,0,1133.5999999046326,2,0,1,88713,task1,513722,false,true,558,image-keyboard-response,13
true,4,0,1,1,false,z,false,false,0.0-2.0-0.13-0.125-3.125,0,0,0,81,false,stim,true,0,898.6999998092651,2,0,1,88713,task1,516140,false,false,561,image-keyboard-response,14
true,4,2,1,1,false,z,true,false,0.0-2.0-0.14-0.126-3.126,0,0,0,68,false,stim,false,0,536.0999999046326,2,0,1,88713,task1,518197,false,false,564,image-keyboard-response,15
true,4,0,1,0,true,q,false,true,0.0-2.0-0.14-0.127-3.127,0,0,0,81,false,stim,false,2,821.4000000953674,2,0,2,88713,task1,520531,false,false,567,image-keyboard-response,16
true,4,0,1,0,true,q,false,true,0.0-2.0-0.14-0.128-3.128,0,0,0,81,false,stim,false,1,731.0999999046326,2,0,0,88713,task1,522792,false,false,570,image-keyboard-response,17
true,4,0,1,0,true,q,false,true,0.0-2.0-0.14-0.129-3.129,0,0,0,81,false,stim,false,2,1185.1999998092651,2,0,2,88713,task1,525514,false,false,573,image-keyboard-response,18
true,4,0,1,0,true,q,false,true,0.0-2.0-0.14-0.130-3.130,0,0,0,81,false,stim,false,1,470.09999990463257,2,0,0,88713,task1,527517,false,false,576,image-keyboard-response,19
true,4,0,1,1,false,z,false,true,0.0-2.0-0.14-0.131-3.131,0,0,0,81,false,stim,true,0,788.5999999046326,2,0,1,88713,task1,529823,false,true,579,image-keyboard-response,20
true,4,0,1,0,true,q,false,true,0.0-2.0-0.14-0.132-3.132,0,0,0,81,false,stim,false,2,554.5,2,0,2,88713,task1,531904,false,false,582,image-keyboard-response,21
true,4,0,1,1,false,z,false,false,0.0-2.0-0.14-0.133-3.133,0,0,0,81,false,stim,true,0,570.4000000953674,2,0,1,88713,task1,533990,false,false,585,image-keyboard-response,22
true,4,0,1,0,true,q,false,false,0.0-2.0-0.14-0.134-3.134,0,0,0,81,false,stim,false,1,664.2999999523163,2,0,0,88713,task1,536185,false,true,588,image-keyboard-response,23
true,4,2,1,1,false,z,true,false,0.0-2.0-0.15-0.135-3.135,0,0,0,68,false,stim,false,0,1027.7999999523163,2,0,1,88713,task1,538738,false,false,591,image-keyboard-response,24
true,4,2,1,0,false,q,true,true,0.0-2.0-0.15-0.136-3.136,0,0,0,68,false,stim,false,1,1069.6000001430511,2,0,0,88713,task1,541327,false,true,594,image-keyboard-response,25
true,4,0,1,0,true,q,false,true,0.0-2.0-0.15-0.137-3.137,0,0,0,81,false,stim,false,2,999.5,2,0,2,88713,task1,543847,false,false,597,image-keyboard-response,26
true,4,1,1,1,true,z,false,true,0.0-2.0-0.15-0.138-3.138,0,0,0,90,false,stim,false,0,886.5999999046326,2,0,1,88713,task1,546266,false,false,600,image-keyboard-response,27
true,4,0,1,0,true,q,false,true,0.0-2.0-0.15-0.139-3.139,0,0,0,81,false,stim,false,2,938.2999999523163,2,0,2,88713,task1,548734,false,false,603,image-keyboard-response,28
true,4,2,1,0,false,q,true,false,0.0-2.0-0.15-0.140-3.140,0,0,0,68,false,stim,false,1,1247.3999998569489,2,0,0,88713,task1,551516,false,false,606,image-keyboard-response,29
true,4,1,1,1,true,z,false,true,0.0-2.0-0.15-0.141-3.141,0,0,0,90,false,stim,false,0,1081.3999998569489,2,0,1,88713,task1,554129,false,false,609,image-keyboard-response,30
true,4,1,1,0,false,q,false,false,0.0-2.0-0.15-0.142-3.142,0,0,0,90,false,stim,true,1,1123.3999998569489,2,0,0,88713,task1,556778,false,false,612,image-keyboard-response,31
true,4,0,1,0,true,q,false,true,0.0-2.0-0.15-0.143-3.143,0,0,0,81,false,stim,false,2,698.8999998569489,2,0,2,88713,task1,559002,false,false,615,image-keyboard-response,32
true,4,0,1,0,true,q,false,true,0.0-2.0-0.16-0.144-3.144,0,0,0,81,false,stim,false,2,731.9000000953674,2,0,2,88713,task1,561255,false,false,618,image-keyboard-response,33
true,4,0,1,1,false,z,false,false,0.0-2.0-0.16-0.145-3.145,0,0,0,81,false,stim,true,0,1007.2999999523163,2,0,1,88713,task1,563789,false,false,621,image-keyboard-response,34
true,4,1,1,1,true,z,false,true,0.0-2.0-0.16-0.146-3.146,0,0,0,90,false,stim,false,0,573.5,2,0,1,88713,task1,565881,false,false,624,image-keyboard-response,35
true,4,1,1,0,false,q,false,false,0.0-2.0-0.16-0.147-3.147,0,0,0,90,false,stim,true,1,1061.7999999523163,2,0,0,88713,task1,568470,false,false,627,image-keyboard-response,36
true,4,0,1,0,true,q,false,true,0.0-2.0-0.16-0.148-3.148,0,0,0,81,false,stim,false,1,803.0999999046326,2,0,0,88713,task1,570801,false,false,630,image-keyboard-response,37
true,4,0,1,0,true,q,false,true,0.0-2.0-0.16-0.149-3.149,0,0,0,81,false,stim,false,2,549.5,2,0,2,88713,task1,572880,false,false,633,image-keyboard-response,38
true,4,1,1,1,true,z,false,true,0.0-2.0-0.16-0.150-3.150,0,0,0,90,false,stim,false,0,719.2000000476837,2,0,1,88713,task1,575124,false,false,636,image-keyboard-response,39
true,4,0,1,0,true,q,false,true,0.0-2.0-0.16-0.151-3.151,0,0,0,81,false,stim,false,1,1213.0,2,0,0,88713,task1,577856,false,false,639,image-keyboard-response,40
true,4,0,1,0,true,q,false,true,0.0-2.0-0.16-0.152-3.152,0,0,0,81,false,stim,false,2,704.0999999046326,2,0,2,88713,task1,580092,false,false,642,image-keyboard-response,41
true,4,0,1,0,true,q,false,true,0.0-2.0-0.17-0.153-3.153,0,0,0,81,false,stim,false,1,1375.0,2,0,0,88713,task1,582996,false,false,645,image-keyboard-response,42
true,4,1,1,1,true,z,false,true,0.0-2.0-0.17-0.154-3.154,0,0,0,90,false,stim,false,0,653.5999999046326,2,0,1,88713,task1,585171,false,false,648,image-keyboard-response,43
true,4,0,1,0,true,q,false,true,0.0-2.0-0.17-0.155-3.155,0,0,0,81,false,stim,false,1,885.5999999046326,2,0,0,88713,task1,587574,false,false,651,image-keyboard-response,44
true,4,0,1,0,true,q,false,true,0.0-2.0-0.17-0.156-3.156,0,0,0,81,false,stim,false,2,817.2000000476837,2,0,2,88713,task1,589920,false,false,654,image-keyboard-response,45
true,5,1,1,2,false,d,false,false,0.0-2.0-0.17-0.157-3.157,0,0,0,90,true,stim,true,1,823.0,2,0,1,88713,task1,592279,false,false,657,image-keyboard-response,1
true,5,0,1,1,false,z,false,false,0.0-2.0-0.17-0.158-3.158,0,0,0,81,false,stim,true,0,683.0,2,0,0,88713,task1,594480,false,false,660,image-keyboard-response,2
true,5,0,1,1,false,z,false,false,0.0-2.0-0.17-0.159-3.159,0,0,0,81,false,stim,true,0,927.7000000476837,2,0,2,88713,task1,596940,false,false,663,image-keyboard-response,3
true,5,2,1,2,true,d,false,true,0.0-2.0-0.17-0.160-3.160,0,0,0,68,false,stim,false,1,965.9000000953674,2,0,1,88713,task1,599433,false,false,666,image-keyboard-response,4
true,5,2,1,1,false,z,true,false,0.0-2.0-0.17-0.161-3.161,0,0,0,68,false,stim,false,0,973.3000001907349,2,0,2,88713,task1,601935,false,false,669,image-keyboard-response,5
true,5,2,1,2,true,d,false,true,0.0-2.0-0.18-0.162-3.162,0,0,0,68,false,stim,false,1,671.8999998569489,2,0,1,88713,task1,604133,false,false,672,image-keyboard-response,6
true,5,1,1,1,true,z,false,true,0.0-2.0-0.18-0.163-3.163,0,0,0,90,false,stim,false,0,1010.2000000476837,2,0,0,88713,task1,606675,false,false,675,image-keyboard-response,7
true,5,1,1,1,true,z,false,true,0.0-2.0-0.18-0.164-3.164,0,0,0,90,false,stim,false,0,570.2000000476837,2,0,2,88713,task1,608771,false,false,678,image-keyboard-response,8
true,5,1,1,1,true,z,false,true,0.0-2.0-0.18-0.165-3.165,0,0,0,90,false,stim,false,0,1114.1000001430511,2,0,0,88713,task1,611416,false,false,681,image-keyboard-response,9
true,5,1,1,1,true,z,false,false,0.0-2.0-0.18-0.166-3.166,0,0,0,90,false,stim,false,0,692.7999999523163,2,0,0,88713,task1,613628,false,true,684,image-keyboard-response,10
true,5,2,1,2,true,d,false,true,0.0-2.0-0.18-0.167-3.167,0,0,0,68,false,stim,false,1,957.3000001907349,2,0,1,88713,task1,616114,false,false,687,image-keyboard-response,11
true,5,1,1,1,true,z,false,true,0.0-2.0-0.18-0.168-3.168,0,0,0,90,false,stim,false,0,718.0,2,0,2,88713,task1,618358,false,false,690,image-keyboard-response,12
true,5,1,1,1,true,z,false,true,0.0-2.0-0.18-0.169-3.169,0,0,0,90,false,stim,false,0,566.0,2,0,2,88713,task1,620457,false,false,693,image-keyboard-response,13
true,5,2,1,2,true,d,false,true,0.0-2.0-0.18-0.170-3.170,0,0,0,68,false,stim,false,1,877.5999999046326,2,0,1,88713,task1,622867,false,false,696,image-keyboard-response,14
true,5,0,1,1,false,z,false,false,0.0-2.0-0.19-0.171-3.171,0,0,0,81,false,stim,true,0,890.2000000476837,2,0,0,88713,task1,625284,false,false,699,image-keyboard-response,15
true,5,2,1,1,false,z,true,false,0.0-2.0-0.19-0.172-3.172,0,0,0,68,false,stim,false,0,831.9000000953674,2,0,0,88713,task1,627646,false,false,702,image-keyboard-response,16
true,5,1,1,1,true,z,false,false,0.0-2.0-0.19-0.173-3.173,0,0,0,90,false,stim,false,0,707.5,2,0,2,88713,task1,629870,false,true,705,image-keyboard-response,17
true,5,1,1,2,false,d,false,false,0.0-2.0-0.19-0.174-3.174,0,0,0,90,false,stim,true,1,2179.199999809265,2,0,1,88713,task1,633566,false,false,708,image-keyboard-response,18
true,5,1,1,1,true,z,false,true,0.0-2.0-0.19-0.175-3.175,0,0,0,90,false,stim,false,0,1132.7999999523163,2,0,0,88713,task1,636218,false,false,711,image-keyboard-response,19
true,5,2,1,2,true,d,false,true,0.0-2.0-0.19-0.176-3.176,0,0,0,68,false,stim,false,1,992.7000000476837,2,0,1,88713,task1,638733,false,false,714,image-keyboard-response,20
true,5,0,1,1,false,z,false,false,0.0-2.0-0.19-0.177-3.177,0,0,0,81,false,stim,true,0,876.5,2,0,2,88713,task1,641144,false,false,717,image-keyboard-response,21
true,5,2,1,2,true,d,false,true,0.0-2.0-0.19-0.178-3.178,0,0,0,68,false,stim,false,1,1096.4000000953674,2,0,1,88713,task1,643767,false,false,720,image-keyboard-response,22
true,5,2,1,1,false,z,true,false,0.0-2.0-0.19-0.179-3.179,0,0,0,68,false,stim,false,0,1219.0,2,0,2,88713,task1,646506,false,false,723,image-keyboard-response,23
true,5,1,1,1,true,z,false,true,0.0-2.0-0.20-0.180-3.180,0,0,0,90,false,stim,false,0,818.9000000953674,2,0,0,88713,task1,648861,false,false,726,image-keyboard-response,24
true,5,1,1,1,true,z,false,true,0.0-2.0-0.20-0.181-3.181,0,0,0,90,false,stim,false,0,712.2000000476837,2,0,2,88713,task1,651102,false,false,729,image-keyboard-response,25
true,5,2,1,2,true,d,false,false,0.0-2.0-0.20-0.182-3.182,0,0,0,68,false,stim,false,1,1060.0999999046326,2,0,1,88713,task1,653686,false,true,732,image-keyboard-response,26
true,5,1,1,2,false,d,false,false,0.0-2.0-0.20-0.183-3.183,0,0,0,90,false,stim,true,1,676.5,2,0,1,88713,task1,655881,false,false,735,image-keyboard-response,27
true,5,1,1,1,true,z,false,true,0.0-2.0-0.20-0.184-3.184,0,0,0,90,false,stim,false,0,715.7000000476837,2,0,0,88713,task1,658132,false,false,738,image-keyboard-response,28
true,5,1,1,1,true,z,false,true,0.0-2.0-0.20-0.185-3.185,0,0,0,90,false,stim,false,0,747.5999999046326,2,0,2,88713,task1,660397,false,false,741,image-keyboard-response,29
true,5,0,1,2,false,d,true,false,0.0-2.0-0.20-0.186-3.186,0,0,0,81,false,stim,false,1,601.1999998092651,2,0,1,88713,task1,662518,false,false,744,image-keyboard-response,30
true,5,1,1,1,true,z,false,true,0.0-2.0-0.20-0.187-3.187,0,0,0,90,false,stim,false,0,798.7999999523163,2,0,0,88713,task1,664833,false,false,747,image-keyboard-response,31
true,5,1,1,1,true,z,false,true,0.0-2.0-0.20-0.188-3.188,0,0,0,90,false,stim,false,0,661.8999998569489,2,0,2,88713,task1,667015,false,false,750,image-keyboard-response,32
true,5,1,1,2,false,d,false,false,0.0-2.0-0.21-0.189-3.189,0,0,0,90,false,stim,true,1,704.2999999523163,2,0,1,88713,task1,669241,false,false,753,image-keyboard-response,33
true,5,1,1,1,true,z,false,true,0.0-2.0-0.21-0.190-3.190,0,0,0,90,false,stim,false,0,707.5,2,0,2,88713,task1,671478,false,false,756,image-keyboard-response,34
true,5,2,1,2,true,d,false,true,0.0-2.0-0.21-0.191-3.191,0,0,0,68,false,stim,false,1,1347.5999999046326,2,0,1,88713,task1,674360,false,false,759,image-keyboard-response,35
true,5,1,1,1,true,z,false,true,0.0-2.0-0.21-0.192-3.192,0,0,0,90,false,stim,false,0,643.0,2,0,2,88713,task1,676536,false,false,762,image-keyboard-response,36
true,5,1,1,1,true,z,false,true,0.0-2.0-0.21-0.193-3.193,0,0,0,90,false,stim,false,0,827.3000001907349,2,0,2,88713,task1,678887,false,false,765,image-keyboard-response,37
true,5,1,1,1,true,z,false,true,0.0-2.0-0.21-0.194-3.194,0,0,0,90,false,stim,false,0,955.1000001430511,2,0,0,88713,task1,681368,false,false,768,image-keyboard-response,38
true,5,1,1,1,true,z,false,true,0.0-2.0-0.21-0.195-3.195,0,0,0,90,false,stim,false,0,641.2999999523163,2,0,0,88713,task1,683540,false,false,771,image-keyboard-response,39
true,5,1,1,1,true,z,false,true,0.0-2.0-0.21-0.196-3.196,0,0,0,90,false,stim,false,0,558.1000001430511,2,0,0,88713,task1,685622,false,false,774,image-keyboard-response,40
true,5,2,1,2,true,d,false,true,0.0-2.0-0.21-0.197-3.197,0,0,0,68,false,stim,false,1,543.7000000476837,2,0,1,88713,task1,687693,false,false,777,image-keyboard-response,41
true,6,1,2,0,false,q,false,false,0.0-2.0-0.22-0.198-3.198,0,0,0,90,true,stim,true,1,748.5,2,0,2,88713,task1,689966,false,false,780,image-keyboard-response,1
true,6,2,2,0,false,q,true,false,0.0-2.0-0.22-0.199-3.199,0,0,0,68,false,stim,false,1,774.0999999046326,2,0,2,88713,task1,692258,false,false,783,image-keyboard-response,2
true,6,1,2,0,false,q,false,false,0.0-2.0-0.22-0.200-3.200,0,0,0,90,false,stim,true,1,1089.0,2,0,0,88713,task1,694877,false,false,786,image-keyboard-response,3
true,6,2,2,1,false,z,false,false,0.0-2.0-0.22-0.201-3.201,0,0,0,68,false,stim,true,2,1186.8999998569489,2,0,1,88713,task1,697592,false,false,789,image-keyboard-response,4
true,6,0,2,0,true,q,false,true,0.0-2.0-0.22-0.202-3.202,0,0,0,81,false,stim,false,1,1054.6000001430511,2,0,2,88713,task1,700163,false,false,792,image-keyboard-response,5
true,6,0,2,0,true,q,false,true,0.0-2.0-0.22-0.203-3.203,0,0,0,81,false,stim,false,1,656.6000001430511,2,0,0,88713,task1,702346,false,false,795,image-keyboard-response,6
true,6,0,2,1,false,z,true,true,0.0-2.0-0.22-0.204-3.204,0,0,0,81,false,stim,false,2,1454.2000000476837,2,0,1,88713,task1,705332,false,true,798,image-keyboard-response,7
true,6,0,2,0,true,q,false,true,0.0-2.0-0.22-0.205-3.205,0,0,0,81,false,stim,false,1,615.1999998092651,2,0,0,88713,task1,707489,false,false,801,image-keyboard-response,8
true,6,0,2,1,false,z,true,false,0.0-2.0-0.22-0.206-3.206,0,0,0,81,false,stim,false,2,704.5,2,0,1,88713,task1,709718,false,false,804,image-keyboard-response,9
true,6,2,2,0,false,q,true,false,0.0-2.0-0.23-0.207-3.207,0,0,0,68,false,stim,false,1,1041.2999999523163,2,0,2,88713,task1,712290,false,false,807,image-keyboard-response,10
true,6,2,2,0,false,q,true,false,0.0-2.0-0.23-0.208-3.208,0,0,0,68,false,stim,false,1,906.5,2,0,0,88713,task1,714721,false,false,810,image-keyboard-response,11
true,6,1,2,0,false,q,false,false,0.0-2.0-0.23-0.209-3.209,0,0,0,90,false,stim,true,1,759.0,2,0,0,88713,task1,717029,false,false,813,image-keyboard-response,12
true,6,0,2,0,true,q,false,true,0.0-2.0-0.23-0.210-3.210,0,0,0,81,false,stim,false,1,511.0,2,0,0,88713,task1,719074,false,false,816,image-keyboard-response,13
true,6,0,2,0,true,q,false,true,0.0-2.0-0.23-0.211-3.211,0,0,0,81,false,stim,false,1,737.5999999046326,2,0,2,88713,task1,721334,false,false,819,image-keyboard-response,14
true,6,0,2,1,false,z,true,true,0.0-2.0-0.23-0.212-3.212,0,0,0,81,false,stim,false,2,676.2000000476837,2,0,1,88713,task1,723525,false,true,822,image-keyboard-response,15
true,6,0,2,0,true,q,false,true,0.0-2.0-0.23-0.213-3.213,0,0,0,81,false,stim,false,1,598.7000000476837,2,0,2,88713,task1,725649,false,false,825,image-keyboard-response,16
true,6,0,2,1,false,z,true,false,0.0-2.0-0.23-0.214-3.214,0,0,0,81,false,stim,false,2,507.40000009536743,2,0,1,88713,task1,727674,false,false,828,image-keyboard-response,17
true,6,1,2,1,true,z,false,true,0.0-2.0-0.23-0.215-3.215,0,0,0,90,false,stim,false,2,1024.5999999046326,2,0,1,88713,task1,730210,false,false,831,image-keyboard-response,18
true,6,0,2,0,true,q,false,true,0.0-2.0-0.24-0.216-3.216,0,0,0,81,false,stim,false,1,653.0,2,0,2,88713,task1,732390,false,false,834,image-keyboard-response,19
true,6,0,2,0,true,q,false,true,0.0-2.0-0.24-0.217-3.217,0,0,0,81,false,stim,false,1,599.0,2,0,2,88713,task1,734504,false,false,837,image-keyboard-response,20
true,6,0,2,0,true,q,false,true,0.0-2.0-0.24-0.218-3.218,0,0,0,81,false,stim,false,1,538.0999999046326,2,0,2,88713,task1,736566,false,false,840,image-keyboard-response,21
true,6,1,2,1,true,z,false,true,0.0-2.0-0.24-0.219-3.219,0,0,0,90,false,stim,false,2,599.0,2,0,1,88713,task1,738692,false,false,843,image-keyboard-response,22
true,6,1,2,0,false,q,false,false,0.0-2.0-0.24-0.220-3.220,0,0,0,90,false,stim,true,1,1444.5,2,0,0,88713,task1,741671,false,false,846,image-keyboard-response,23
true,6,1,2,1,true,z,false,true,0.0-2.0-0.24-0.221-3.221,0,0,0,90,false,stim,false,2,908.2000000476837,2,0,1,88713,task1,744101,false,false,849,image-keyboard-response,24
true,6,2,2,0,false,q,true,false,0.0-2.0-0.24-0.222-3.222,0,0,0,68,false,stim,false,1,925.0,2,0,0,88713,task1,746556,false,false,852,image-keyboard-response,25
true,6,1,2,1,true,z,false,true,0.0-2.0-0.24-0.223-3.223,0,0,0,90,false,stim,false,2,897.8999998569489,2,0,1,88713,task1,748978,false,false,855,image-keyboard-response,26
true,6,0,2,0,true,q,false,true,0.0-2.0-0.24-0.224-3.224,0,0,0,81,false,stim,false,1,667.8999998569489,2,0,0,88713,task1,751167,false,false,858,image-keyboard-response,27
true,6,0,2,0,true,q,false,true,0.0-2.0-0.25-0.225-3.225,0,0,0,81,false,stim,false,1,571.7999999523163,2,0,2,88713,task1,753274,false,false,861,image-keyboard-response,28
true,6,1,2,1,true,z,false,true,0.0-2.0-0.25-0.226-3.226,0,0,0,90,false,stim,false,2,1197.7000000476837,2,0,1,88713,task1,756002,false,false,864,image-keyboard-response,29
true,6,0,2,0,true,q,false,true,0.0-2.0-0.25-0.227-3.227,0,0,0,81,false,stim,false,1,837.5,2,0,0,88713,task1,758359,false,false,867,image-keyboard-response,30
true,6,0,2,0,true,q,false,true,0.0-2.0-0.25-0.228-3.228,0,0,0,81,false,stim,false,1,722.9000000953674,2,0,2,88713,task1,760612,false,false,870,image-keyboard-response,31
true,6,0,2,0,true,q,false,true,0.0-2.0-0.25-0.229-3.229,0,0,0,81,false,stim,false,1,605.5,2,0,2,88713,task1,762734,false,false,873,image-keyboard-response,32
true,6,1,2,1,true,z,false,true,0.0-2.0-0.25-0.230-3.230,0,0,0,90,false,stim,false,2,1090.7999999523163,2,0,1,88713,task1,765350,false,false,876,image-keyboard-response,33
true,6,0,2,0,true,q,false,true,0.0-2.0-0.25-0.231-3.231,0,0,0,81,false,stim,false,1,693.1999998092651,2,0,0,88713,task1,767567,false,false,879,image-keyboard-response,34
true,6,0,2,0,true,q,false,true,0.0-2.0-0.25-0.232-3.232,0,0,0,81,false,stim,false,1,611.2999999523163,2,0,0,88713,task1,769705,false,false,882,image-keyboard-response,35
true,6,1,2,1,true,z,false,true,0.0-2.0-0.25-0.233-3.233,0,0,0,90,false,stim,false,2,874.6999998092651,2,0,1,88713,task1,772092,false,false,885,image-keyboard-response,36
true,6,0,2,0,true,q,false,false,0.0-2.0-0.26-0.234-3.234,0,0,0,81,false,stim,false,1,769.7999999523163,2,0,0,88713,task1,774388,false,true,888,image-keyboard-response,37
true,6,0,2,0,true,q,false,true,0.0-2.0-0.26-0.235-3.235,0,0,0,81,false,stim,false,1,622.0999999046326,2,0,2,88713,task1,776529,false,false,891,image-keyboard-response,38
true,6,0,2,0,true,q,false,true,0.0-2.0-0.26-0.236-3.236,0,0,0,81,false,stim,false,1,727.7000000476837,2,0,2,88713,task1,778787,false,false,894,image-keyboard-response,39
true,6,0,2,0,true,q,false,true,0.0-2.0-0.26-0.237-3.237,0,0,0,81,false,stim,false,1,602.0999999046326,2,0,2,88713,task1,780913,false,false,897,image-keyboard-response,40
true,6,1,2,1,true,z,false,true,0.0-2.0-0.26-0.238-3.238,0,0,0,90,false,stim,false,2,789.6000001430511,2,0,1,88713,task1,783218,false,false,900,image-keyboard-response,41
true,6,2,2,0,false,q,true,false,0.0-2.0-0.26-0.239-3.239,0,0,0,68,false,stim,false,1,1227.2999999523163,2,0,0,88713,task1,785975,false,false,903,image-keyboard-response,42
true,6,1,2,1,true,z,false,true,0.0-2.0-0.26-0.240-3.240,0,0,0,90,false,stim,false,2,609.3999998569489,2,0,1,88713,task1,788106,false,false,906,image-keyboard-response,43
true,7,1,2,0,false,q,false,false,0.0-2.0-0.26-0.241-3.241,0,0,0,90,true,stim,true,1,599.8000001907349,2,0,1,88713,task1,790232,false,false,909,image-keyboard-response,1
true,7,1,2,1,true,z,false,false,0.0-2.0-0.26-0.242-3.242,0,0,0,90,false,stim,false,0,952.8000001907349,2,0,0,88713,task1,792703,false,true,912,image-keyboard-response,2
true,7,2,2,0,false,q,true,false,0.0-2.0-0.27-0.243-3.243,0,0,0,68,false,stim,false,1,1266.7999999523163,2,0,1,88713,task1,795500,false,false,915,image-keyboard-response,3
true,7,0,2,2,false,d,false,false,0.0-2.0-0.27-0.244-3.244,0,0,0,81,false,stim,true,0,1603.0,2,0,2,88713,task1,798624,false,false,918,image-keyboard-response,4
true,7,1,2,2,false,d,true,true,0.0-2.0-0.27-0.245-3.245,0,0,0,90,false,stim,false,0,606.5,2,0,2,88713,task1,800763,false,true,921,image-keyboard-response,5
true,7,1,2,0,false,q,false,false,0.0-2.0-0.27-0.246-3.246,0,0,0,90,false,stim,true,1,1012.4000000953674,2,0,1,88713,task1,803305,false,false,924,image-keyboard-response,6
true,7,2,2,0,false,q,true,false,0.0-2.0-0.27-0.247-3.247,0,0,0,68,false,stim,false,1,733.7999999523163,2,0,1,88713,task1,805559,false,false,927,image-keyboard-response,7
true,7,1,2,1,true,z,false,true,0.0-2.0-0.27-0.248-3.248,0,0,0,90,false,stim,false,0,1066.7000000476837,2,0,0,88713,task1,808158,false,false,930,image-keyboard-response,8
true,7,1,2,1,true,z,false,true,0.0-2.0-0.27-0.249-3.249,0,0,0,90,false,stim,false,0,592.8999998569489,2,0,0,88713,task1,810273,false,false,933,image-keyboard-response,9
true,7,1,2,2,false,d,true,false,0.0-2.0-0.27-0.250-3.250,0,0,0,90,false,stim,false,0,495.40000009536743,2,0,2,88713,task1,812290,false,false,936,image-keyboard-response,10
true,7,1,2,1,true,z,false,true,0.0-2.0-0.27-0.251-3.251,0,0,0,90,false,stim,false,0,787.2999999523163,2,0,0,88713,task1,814599,false,false,939,image-keyboard-response,11
true,7,1,2,0,false,q,false,false,0.0-2.0-0.28-0.252-3.252,0,0,0,90,false,stim,true,1,1776.6000001430511,2,0,1,88713,task1,817907,false,false,942,image-keyboard-response,12
true,7,0,2,0,true,q,false,true,0.0-2.0-0.28-0.253-3.253,0,0,0,81,false,stim,false,1,609.0999999046326,2,0,1,88713,task1,820043,false,false,945,image-keyboard-response,13
true,7,1,2,2,false,d,true,false,0.0-2.0-0.28-0.254-3.254,0,0,0,90,false,stim,false,0,1022.6000001430511,2,0,2,88713,task1,822593,false,false,948,image-keyboard-response,14
true,7,2,2,2,true,d,false,true,0.0-2.0-0.28-0.255-3.255,0,0,0,68,false,stim,false,0,687.9000000953674,2,0,2,88713,task1,824801,false,false,951,image-keyboard-response,15
true,7,2,2,2,true,d,false,true,0.0-2.0-0.28-0.256-3.256,0,0,0,68,false,stim,false,0,723.9000000953674,2,0,2,88713,task1,827044,false,false,954,image-keyboard-response,16
true,7,1,2,1,true,z,false,true,0.0-2.0-0.28-0.257-3.257,0,0,0,90,false,stim,false,0,889.7000000476837,2,0,0,88713,task1,829464,false,false,957,image-keyboard-response,17
true,7,1,2,1,true,z,false,false,0.0-2.0-0.28-0.258-3.258,0,0,0,90,false,stim,false,0,549.5999999046326,2,0,0,88713,task1,831540,false,true,960,image-keyboard-response,18
true,7,2,2,1,false,z,true,false,0.0-2.0-0.28-0.259-3.259,0,0,0,68,false,stim,false,0,811.6000001430511,2,0,0,88713,task1,833884,false,false,963,image-keyboard-response,19
true,7,0,2,0,true,q,false,true,0.0-2.0-0.28-0.260-3.260,0,0,0,81,false,stim,false,1,799.4000000953674,2,0,1,88713,task1,836207,false,false,966,image-keyboard-response,20
true,7,0,2,1,false,z,false,false,0.0-2.0-0.29-0.261-3.261,0,0,0,81,false,stim,true,0,1097.4000000953674,2,0,0,88713,task1,838832,false,false,969,image-keyboard-response,21
true,7,2,2,2,true,d,false,true,0.0-2.0-0.29-0.262-3.262,0,0,0,68,false,stim,false,0,1609.5999999046326,2,0,2,88713,task1,841959,false,false,972,image-keyboard-response,22
true,7,2,2,2,true,d,false,true,0.0-2.0-0.29-0.263-3.263,0,0,0,68,false,stim,false,0,649.8000001907349,2,0,2,88713,task1,844135,false,false,975,image-keyboard-response,23
true,7,2,2,2,true,d,false,true,0.0-2.0-0.29-0.264-3.264,0,0,0,68,false,stim,false,0,599.5,2,0,2,88713,task1,846252,false,false,978,image-keyboard-response,24
true,7,2,2,1,false,z,true,false,0.0-2.0-0.29-0.265-3.265,0,0,0,68,false,stim,false,0,1717.3999998569489,2,0,0,88713,task1,849488,false,false,981,image-keyboard-response,25
true,7,0,2,0,true,q,false,true,0.0-2.0-0.29-0.266-3.266,0,0,0,81,false,stim,false,1,974.9000000953674,2,0,1,88713,task1,852001,false,false,984,image-keyboard-response,26
true,7,0,2,0,true,q,false,true,0.0-2.0-0.29-0.267-3.267,0,0,0,81,false,stim,false,1,612.0999999046326,2,0,1,88713,task1,854135,false,false,987,image-keyboard-response,27
true,7,1,2,1,true,z,false,true,0.0-2.0-0.29-0.268-3.268,0,0,0,90,false,stim,false,0,1110.9000000953674,2,0,0,88713,task1,856754,false,false,990,image-keyboard-response,28
true,7,0,2,0,true,q,false,true,0.0-2.0-0.29-0.269-3.269,0,0,0,81,false,stim,false,1,857.9000000953674,2,0,1,88713,task1,859122,false,false,993,image-keyboard-response,29
true,7,1,2,1,true,z,false,true,0.0-2.0-0.30-0.270-3.270,0,0,0,90,false,stim,false,0,533.1999998092651,2,0,0,88713,task1,861188,false,false,996,image-keyboard-response,30
true,7,0,2,0,true,q,false,true,0.0-2.0-0.30-0.271-3.271,0,0,0,81,false,stim,false,1,718.9000000953674,2,0,1,88713,task1,863432,false,false,999,image-keyboard-response,31
true,7,2,2,2,true,d,false,true,0.0-2.0-0.30-0.272-3.272,0,0,0,68,false,stim,false,0,792.2000000476837,2,0,2,88713,task1,865761,false,false,1002,image-keyboard-response,32
true,7,0,2,0,true,q,false,true,0.0-2.0-0.30-0.273-3.273,0,0,0,81,false,stim,false,1,1133.0,2,0,1,88713,task1,868416,false,false,1005,image-keyboard-response,33
true,7,2,2,2,true,d,false,true,0.0-2.0-0.30-0.274-3.274,0,0,0,68,false,stim,false,0,972.6000001430511,2,0,2,88713,task1,870908,false,false,1008,image-keyboard-response,34
true,7,1,2,1,true,z,false,true,0.0-2.0-0.30-0.275-3.275,0,0,0,90,false,stim,false,0,864.2000000476837,2,0,0,88713,task1,873287,false,false,1011,image-keyboard-response,35
true,7,2,2,2,true,d,false,true,0.0-2.0-0.30-0.276-3.276,0,0,0,68,false,stim,false,0,752.3000001907349,2,0,2,88713,task1,875578,false,false,1014,image-keyboard-response,36
true,7,1,2,1,true,z,false,false,0.0-2.0-0.30-0.277-3.277,0,0,0,90,false,stim,false,0,1282.2999999523163,2,0,0,88713,task1,878387,false,true,1017,image-keyboard-response,37
true,7,0,2,0,true,q,false,true,0.0-2.0-0.30-0.278-3.278,0,0,0,81,false,stim,false,1,623.9000000953674,2,0,1,88713,task1,880532,false,false,1020,image-keyboard-response,38
true,7,2,2,2,true,d,false,false,0.0-2.0-0.31-0.279-3.279,0,0,0,68,false,stim,false,0,817.2000000476837,2,0,2,88713,task1,882874,false,true,1023,image-keyboard-response,39
true,7,1,2,2,false,d,true,true,0.0-2.0-0.31-0.280-3.280,0,0,0,90,false,stim,false,0,650.0,2,0,2,88713,task1,885043,false,true,1026,image-keyboard-response,40
true,7,2,2,0,false,q,true,false,0.0-2.0-0.31-0.281-3.281,0,0,0,68,false,stim,false,1,1117.0,2,0,1,88713,task1,887677,false,false,1029,image-keyboard-response,41
true,7,1,2,2,false,d,true,false,0.0-2.0-0.31-0.282-3.282,0,0,0,90,false,stim,false,0,845.8000001907349,2,0,2,88713,task1,890056,false,false,1032,image-keyboard-response,42
true,7,1,2,1,true,z,false,true,0.0-2.0-0.31-0.283-3.283,0,0,0,90,false,stim,false,0,1013.8000001907349,2,0,0,88713,task1,892592,false,false,1035,image-keyboard-response,43
true,7,1,2,0,false,q,false,false,0.0-2.0-0.31-0.284-3.284,0,0,0,90,false,stim,true,1,1300.4000000953674,2,0,1,88713,task1,895417,false,false,1038,image-keyboard-response,44
true,8,2,1,1,false,z,true,false,0.0-2.0-0.31-0.285-3.285,0,0,0,68,true,stim,false,0,858.0999999046326,2,0,1,88713,task1,897793,false,false,1041,image-keyboard-response,1
true,8,1,1,0,false,q,false,false,0.0-2.0-0.31-0.286-3.286,0,0,0,90,false,stim,true,1,846.2000000476837,2,0,0,88713,task1,900169,false,false,1044,image-keyboard-response,2
true,8,2,1,0,false,q,true,false,0.0-2.0-0.31-0.287-3.287,0,0,0,68,false,stim,false,1,1118.0999999046326,2,0,0,88713,task1,902805,false,false,1047,image-keyboard-response,3
true,8,0,1,1,false,z,false,false,0.0-2.0-0.32-0.288-3.288,0,0,0,81,false,stim,true,0,1253.5,2,0,1,88713,task1,905580,false,false,1050,image-keyboard-response,4
true,8,0,1,1,false,z,true,true,0.0-2.0-0.32-0.289-3.289,0,0,0,81,false,stim,false,2,769.2000000476837,2,0,2,88713,task1,907878,false,true,1053,image-keyboard-response,5
true,8,0,1,1,false,z,true,false,0.0-2.0-0.32-0.290-3.290,0,0,0,81,false,stim,false,2,576.0,2,0,2,88713,task1,909988,false,false,1056,image-keyboard-response,6
true,8,0,1,0,true,q,false,false,0.0-2.0-0.32-0.291-3.291,0,0,0,81,false,stim,false,1,721.4000000953674,2,0,0,88713,task1,912241,false,true,1059,image-keyboard-response,7
true,8,0,1,1,false,z,false,false,0.0-2.0-0.32-0.292-3.292,0,0,0,81,false,stim,true,0,1356.2000000476837,2,0,1,88713,task1,915132,false,false,1062,image-keyboard-response,8
true,8,1,1,0,false,q,false,false,0.0-2.0-0.32-0.293-3.293,0,0,0,90,false,stim,true,1,696.7999999523163,2,0,0,88713,task1,917364,false,false,1065,image-keyboard-response,9
true,8,1,1,1,true,z,false,true,0.0-2.0-0.32-0.294-3.294,0,0,0,90,false,stim,false,0,1014.5,2,0,1,88713,task1,919913,false,false,1068,image-keyboard-response,10
true,8,2,1,1,false,z,false,false,0.0-2.0-0.32-0.295-3.295,0,0,0,68,false,stim,true,2,1267.0999999046326,2,0,2,88713,task1,922714,false,false,1071,image-keyboard-response,11
true,8,1,1,0,false,q,false,false,0.0-2.0-0.32-0.296-3.296,0,0,0,90,false,stim,true,1,636.9000000953674,2,0,0,88713,task1,924860,false,false,1074,image-keyboard-response,12
true,8,1,1,1,true,z,false,true,0.0-2.0-0.33-0.297-3.297,0,0,0,90,false,stim,false,0,689.5999999046326,2,0,1,88713,task1,927072,false,false,1077,image-keyboard-response,13
true,8,1,1,1,true,z,false,true,0.0-2.0-0.33-0.298-3.298,0,0,0,90,false,stim,false,0,558.9000000953674,2,0,1,88713,task1,929161,false,false,1080,image-keyboard-response,14
true,8,2,1,0,false,q,true,false,0.0-2.0-0.33-0.299-3.299,0,0,0,68,false,stim,false,1,1017.9000000953674,2,0,0,88713,task1,931709,false,false,1083,image-keyboard-response,15
true,8,1,1,1,true,z,false,true,0.0-2.0-0.33-0.300-3.300,0,0,0,90,false,stim,false,0,589.7000000476837,2,0,1,88713,task1,933830,false,false,1086,image-keyboard-response,16
true,8,1,1,1,true,z,false,true,0.0-2.0-0.33-0.301-3.301,0,0,0,90,false,stim,false,2,1154.2000000476837,2,0,2,88713,task1,936512,false,false,1089,image-keyboard-response,17
true,8,1,1,1,true,z,false,true,0.0-2.0-0.33-0.302-3.302,0,0,0,90,false,stim,false,2,684.6000001430511,2,0,2,88713,task1,938730,false,false,1092,image-keyboard-response,18
true,8,1,1,0,false,q,false,false,0.0-2.0-0.33-0.303-3.303,0,0,0,90,false,stim,true,1,518.5999999046326,2,0,0,88713,task1,940779,false,false,1095,image-keyboard-response,19
true,8,1,1,1,true,z,false,true,0.0-2.0-0.33-0.304-3.304,0,0,0,90,false,stim,false,2,593.6000001430511,2,0,2,88713,task1,942905,false,false,1098,image-keyboard-response,20
true,8,0,1,0,true,q,false,true,0.0-2.0-0.33-0.305-3.305,0,0,0,81,false,stim,false,1,1070.2000000476837,2,0,0,88713,task1,945505,false,false,1101,image-keyboard-response,21
true,8,1,1,1,true,z,false,true,0.0-2.0-0.34-0.306-3.306,0,0,0,90,false,stim,false,0,944.5,2,0,1,88713,task1,947969,false,false,1104,image-keyboard-response,22
true,8,0,1,0,true,q,false,true,0.0-2.0-0.34-0.307-3.307,0,0,0,81,false,stim,false,1,710.0999999046326,2,0,0,88713,task1,950209,false,false,1107,image-keyboard-response,23
true,8,1,1,1,true,z,false,true,0.0-2.0-0.34-0.308-3.308,0,0,0,90,false,stim,false,0,992.0,2,0,1,88713,task1,952726,false,false,1110,image-keyboard-response,24
true,8,1,1,1,true,z,false,true,0.0-2.0-0.34-0.309-3.309,0,0,0,90,false,stim,false,2,564.5999999046326,2,0,2,88713,task1,954804,false,false,1113,image-keyboard-response,25
true,8,0,1,0,true,q,false,false,0.0-2.0-0.34-0.310-3.310,0,0,0,81,false,stim,false,1,738.8000001907349,2,0,0,88713,task1,957079,false,true,1116,image-keyboard-response,26
true,8,1,1,1,true,z,false,true,0.0-2.0-0.34-0.311-3.311,0,0,0,90,false,stim,false,2,698.1000001430511,2,0,2,88713,task1,959317,false,false,1119,image-keyboard-response,27
true,8,1,1,1,true,z,false,false,0.0-2.0-0.34-0.312-3.312,0,0,0,90,false,stim,false,0,1622.9000000953674,2,0,1,88713,task1,962459,false,true,1122,image-keyboard-response,28
true,8,1,1,0,false,q,false,false,0.0-2.0-0.34-0.313-3.313,0,0,0,90,false,stim,true,1,1533.7000000476837,2,0,0,88713,task1,965523,false,false,1125,image-keyboard-response,29
true,8,1,1,1,true,z,false,true,0.0-2.0-0.34-0.314-3.314,0,0,0,90,false,stim,false,2,667.2000000476837,2,0,2,88713,task1,967726,false,false,1128,image-keyboard-response,30
true,8,0,1,1,false,z,false,false,0.0-2.0-0.35-0.315-3.315,0,0,0,81,false,stim,true,0,721.4000000953674,2,0,1,88713,task1,969969,false,false,1131,image-keyboard-response,31
true,8,0,1,0,true,q,false,true,0.0-2.0-0.35-0.316-3.316,0,0,0,81,false,stim,false,1,1132.7000000476837,2,0,0,88713,task1,972627,false,false,1134,image-keyboard-response,32
true,8,1,1,1,true,z,false,true,0.0-2.0-0.35-0.317-3.317,0,0,0,90,false,stim,false,2,710.5,2,0,2,88713,task1,974871,false,false,1137,image-keyboard-response,33
true,8,1,1,1,true,z,false,false,0.0-2.0-0.35-0.318-3.318,0,0,0,90,false,stim,false,2,725.4000000953674,2,0,2,88713,task1,977113,false,true,1140,image-keyboard-response,34
true,8,0,1,0,true,q,false,false,0.0-2.0-0.35-0.319-3.319,0,0,0,81,false,stim,false,1,1436.2000000476837,2,0,0,88713,task1,980085,false,true,1143,image-keyboard-response,35
true,8,2,1,1,false,z,true,false,0.0-2.0-0.35-0.320-3.320,0,0,0,68,false,stim,false,0,1032.6000001430511,2,0,1,88713,task1,982652,false,false,1146,image-keyboard-response,36
true,8,1,1,1,true,z,false,true,0.0-2.0-0.35-0.321-3.321,0,0,0,90,false,stim,false,0,547.6000001430511,2,0,1,88713,task1,984732,false,false,1149,image-keyboard-response,37
true,8,2,1,0,false,q,true,true,0.0-2.0-0.35-0.322-3.322,0,0,0,68,false,stim,false,1,921.5,2,0,0,88713,task1,987172,false,true,1152,image-keyboard-response,38
true,8,0,1,1,false,z,true,false,0.0-2.0-0.35-0.323-3.323,0,0,0,81,false,stim,false,2,932.5,2,0,2,88713,task1,989636,false,false,1155,image-keyboard-response,39
true,9,2,1,2,true,d,false,true,0.0-2.0-0.36-0.324-3.324,0,0,0,68,true,stim,false,0,1207.7000000476837,2,0,0,88713,task1,992362,false,false,1158,image-keyboard-response,1
true,9,2,1,2,true,d,false,true,0.0-2.0-0.36-0.325-3.325,0,0,0,68,false,stim,false,0,664.0,2,0,0,88713,task1,994551,false,false,1161,image-keyboard-response,2
true,9,1,1,2,false,d,false,false,0.0-2.0-0.36-0.326-3.326,0,0,0,90,false,stim,true,1,1021.2999999523163,2,0,2,88713,task1,997102,false,false,1164,image-keyboard-response,3
true,9,2,1,2,true,d,false,false,0.0-2.0-0.36-0.327-3.327,0,0,0,68,false,stim,false,1,691.9000000953674,2,0,2,88713,task1,999317,false,true,1167,image-keyboard-response,4
true,9,2,1,0,false,q,true,true,0.0-2.0-0.36-0.328-3.328,0,0,0,68,false,stim,false,1,1604.4000000953674,2,0,1,88713,task1,1002450,false,true,1170,image-keyboard-response,5
true,9,2,1,0,false,q,true,false,0.0-2.0-0.36-0.329-3.329,0,0,0,68,false,stim,false,1,1024.2000000476837,2,0,1,88713,task1,1005006,false,false,1173,image-keyboard-response,6
true,9,1,1,0,false,q,false,false,0.0-2.0-0.36-0.330-3.330,0,0,0,90,false,stim,true,1,678.5,2,0,1,88713,task1,1007207,false,false,1176,image-keyboard-response,7
true,9,2,1,2,true,d,false,true,0.0-2.0-0.36-0.331-3.331,0,0,0,68,false,stim,false,1,1233.7999999523163,2,0,2,88713,task1,1009964,false,false,1179,image-keyboard-response,8
true,9,1,1,2,false,d,true,false,0.0-2.0-0.36-0.332-3.332,0,0,0,90,false,stim,false,0,1000.2999999523163,2,0,0,88713,task1,1012482,false,false,1182,image-keyboard-response,9
true,9,0,1,0,true,q,false,false,0.0-2.0-0.37-0.333-3.333,0,0,0,81,false,stim,false,1,1162.2000000476837,2,0,1,88713,task1,1015166,false,true,1185,image-keyboard-response,10
true,9,2,1,2,true,d,false,true,0.0-2.0-0.37-0.334-3.334,0,0,0,68,false,stim,false,1,812.5,2,0,2,88713,task1,1017496,false,false,1188,image-keyboard-response,11
true,9,1,1,2,false,d,true,false,0.0-2.0-0.37-0.335-3.335,0,0,0,90,false,stim,false,0,968.2999999523163,2,0,0,88713,task1,1019991,false,false,1191,image-keyboard-response,12
true,9,2,1,2,true,d,false,true,0.0-2.0-0.37-0.336-3.336,0,0,0,68,false,stim,false,1,599.0999999046326,2,0,2,88713,task1,1022121,false,false,1194,image-keyboard-response,13
true,9,2,1,2,true,d,false,true,0.0-2.0-0.37-0.337-3.337,0,0,0,68,false,stim,false,1,722.2000000476837,2,0,2,88713,task1,1024378,false,false,1197,image-keyboard-response,14
true,9,0,1,2,false,d,false,false,0.0-2.0-0.37-0.338-3.338,0,0,0,81,false,stim,true,0,906.0999999046326,2,0,0,88713,task1,1026812,false,false,1200,image-keyboard-response,15
true,9,1,1,2,false,d,true,false,0.0-2.0-0.37-0.339-3.339,0,0,0,90,false,stim,false,0,1045.8999998569489,2,0,0,88713,task1,1029406,false,false,1203,image-keyboard-response,16
true,9,2,1,0,false,q,true,false,0.0-2.0-0.37-0.340-3.340,0,0,0,68,false,stim,false,1,1182.2999999523163,2,0,1,88713,task1,1032108,false,false,1206,image-keyboard-response,17
true,9,1,1,0,false,q,false,false,0.0-2.0-0.37-0.341-3.341,0,0,0,90,false,stim,true,1,861.0,2,0,1,88713,task1,1034494,false,false,1209,image-keyboard-response,18
true,9,2,1,2,true,d,false,true,0.0-2.0-0.38-0.342-3.342,0,0,0,68,false,stim,false,0,884.4000000953674,2,0,0,88713,task1,1036898,false,false,1212,image-keyboard-response,19
true,9,2,1,2,true,d,false,true,0.0-2.0-0.38-0.343-3.343,0,0,0,68,false,stim,false,0,618.6999998092651,2,0,0,88713,task1,1039050,false,false,1215,image-keyboard-response,20
true,9,0,1,0,true,q,false,true,0.0-2.0-0.38-0.344-3.344,0,0,0,81,false,stim,false,1,879.5,2,0,1,88713,task1,1041464,false,false,1218,image-keyboard-response,21
true,9,2,1,2,true,d,false,true,0.0-2.0-0.38-0.345-3.345,0,0,0,68,false,stim,false,1,682.6000001430511,2,0,2,88713,task1,1043673,false,false,1221,image-keyboard-response,22
true,9,0,1,0,true,q,false,true,0.0-2.0-0.38-0.346-3.346,0,0,0,81,false,stim,false,1,710.5999999046326,2,0,1,88713,task1,1045911,false,false,1224,image-keyboard-response,23
true,9,0,1,0,true,q,false,true,0.0-2.0-0.38-0.347-3.347,0,0,0,81,false,stim,false,1,720.0,2,0,1,88713,task1,1048158,false,false,1227,image-keyboard-response,24
true,9,2,1,2,true,d,false,true,0.0-2.0-0.38-0.348-3.348,0,0,0,68,false,stim,false,1,605.2000000476837,2,0,2,88713,task1,1050295,false,false,1230,image-keyboard-response,25
true,9,0,1,2,false,d,false,false,0.0-2.0-0.38-0.349-3.349,0,0,0,81,false,stim,true,0,1245.6000001430511,2,0,0,88713,task1,1053060,false,false,1233,image-keyboard-response,26
true,9,2,1,2,true,d,false,true,0.0-2.0-0.38-0.350-3.350,0,0,0,68,false,stim,false,1,669.7000000476837,2,0,2,88713,task1,1055243,false,false,1236,image-keyboard-response,27
true,9,0,1,0,true,q,false,true,0.0-2.0-0.39-0.351-3.351,0,0,0,81,false,stim,false,1,743.8000001907349,2,0,1,88713,task1,1057504,false,false,1239,image-keyboard-response,28
true,9,2,1,2,true,d,false,true,0.0-2.0-0.39-0.352-3.352,0,0,0,68,false,stim,false,0,690.6000001430511,2,0,0,88713,task1,1059705,false,false,1242,image-keyboard-response,29
true,9,2,1,2,true,d,false,true,0.0-2.0-0.39-0.353-3.353,0,0,0,68,false,stim,false,0,880.1000001430511,2,0,0,88713,task1,1062109,false,false,1245,image-keyboard-response,30
true,9,2,1,2,true,d,false,true,0.0-2.0-0.39-0.354-3.354,0,0,0,68,false,stim,false,1,610.5,2,0,2,88713,task1,1064240,false,false,1248,image-keyboard-response,31
true,9,2,1,2,true,d,false,true,0.0-2.0-0.39-0.355-3.355,0,0,0,68,false,stim,false,1,589.5,2,0,2,88713,task1,1066352,false,false,1251,image-keyboard-response,32
true,9,2,1,0,false,q,true,true,0.0-2.0-0.39-0.356-3.356,0,0,0,68,false,stim,false,1,1372.5,2,0,1,88713,task1,1069254,false,true,1254,image-keyboard-response,33
true,9,0,1,2,false,d,false,false,0.0-2.0-0.39-0.357-3.357,0,0,0,81,false,stim,true,0,684.9000000953674,2,0,0,88713,task1,1071469,false,false,1257,image-keyboard-response,34
true,9,2,1,2,true,d,false,true,0.0-2.0-0.39-0.358-3.358,0,0,0,68,false,stim,false,1,668.6000001430511,2,0,2,88713,task1,1073669,false,false,1260,image-keyboard-response,35
true,9,2,1,0,false,q,true,false,0.0-2.0-0.39-0.359-3.359,0,0,0,68,false,stim,false,1,597.8000001907349,2,0,1,88713,task1,1075784,false,false,1263,image-keyboard-response,36
true,9,2,1,2,true,d,false,true,0.0-2.0-0.40-0.360-3.360,0,0,0,68,false,stim,false,0,1432.4000000953674,2,0,0,88713,task1,1078727,false,false,1266,image-keyboard-response,37
true,9,2,1,2,true,d,false,true,0.0-2.0-0.40-0.361-3.361,0,0,0,68,false,stim,false,1,777.0,2,0,2,88713,task1,1081026,false,false,1269,image-keyboard-response,38
true,9,0,1,0,true,q,false,true,0.0-2.0-0.40-0.362-3.362,0,0,0,81,false,stim,false,1,976.5,2,0,1,88713,task1,1083526,false,false,1272,image-keyboard-response,39
true,9,2,1,2,true,d,false,true,0.0-2.0-0.40-0.363-3.363,0,0,0,68,false,stim,false,1,640.0,2,0,2,88713,task1,1085699,false,false,1275,image-keyboard-response,40
true,9,2,1,2,true,d,false,true,0.0-2.0-0.40-0.364-3.364,0,0,0,68,false,stim,false,0,960.3999998569489,2,0,0,88713,task1,1088178,false,false,1278,image-keyboard-response,41
true,9,2,1,2,true,d,false,true,0.0-2.0-0.40-0.365-3.365,0,0,0,68,false,stim,false,1,631.7000000476837,2,0,2,88713,task1,1090336,false,false,1281,image-keyboard-response,42
true,9,2,1,2,true,d,false,true,0.0-2.0-0.40-0.366-3.366,0,0,0,68,false,stim,false,0,535.8999998569489,2,0,0,88713,task1,1092392,false,false,1284,image-keyboard-response,43
true,10,0,2,1,false,z,false,false,0.0-2.0-0.40-0.367-3.367,0,0,0,81,true,stim,true,0,1034.2000000476837,2,0,1,88713,task1,1094959,false,false,1287,image-keyboard-response,1
true,10,2,2,1,false,z,true,true,0.0-2.0-0.40-0.368-3.368,0,0,0,68,false,stim,false,0,841.5,2,0,1,88713,task1,1097331,false,true,1290,image-keyboard-response,2
true,10,2,2,0,false,q,false,false,0.0-2.0-0.41-0.369-3.369,0,0,0,68,false,stim,true,2,1134.8999998569489,2,0,0,88713,task1,1099997,false,false,1293,image-keyboard-response,3
true,10,2,2,1,false,z,true,false,0.0-2.0-0.41-0.370-3.370,0,0,0,68,false,stim,false,0,1141.7999999523163,2,0,1,88713,task1,1102667,false,false,1296,image-keyboard-response,4
true,10,0,2,1,false,z,false,true,0.0-2.0-0.41-0.371-3.371,0,0,0,81,false,stim,true,0,809.6000001430511,2,0,1,88713,task1,1105007,false,true,1299,image-keyboard-response,5
true,10,2,2,0,false,q,false,false,0.0-2.0-0.41-0.372-3.372,0,0,0,68,false,stim,true,2,757.0,2,0,2,88713,task1,1107305,false,false,1302,image-keyboard-response,6
true,10,0,2,1,false,z,false,false,0.0-2.0-0.41-0.373-3.373,0,0,0,81,false,stim,true,0,711.2000000476837,2,0,1,88713,task1,1109540,false,false,1305,image-keyboard-response,7
true,10,0,2,0,true,q,false,true,0.0-2.0-0.41-0.374-3.374,0,0,0,81,false,stim,false,2,840.2000000476837,2,0,0,88713,task1,1111907,false,false,1308,image-keyboard-response,8
true,10,0,2,0,true,q,false,true,0.0-2.0-0.41-0.375-3.375,0,0,0,81,false,stim,false,2,557.0,2,0,0,88713,task1,1113993,false,false,1311,image-keyboard-response,9
true,10,0,2,0,true,q,false,true,0.0-2.0-0.41-0.376-3.376,0,0,0,81,false,stim,false,2,947.2000000476837,2,0,2,88713,task1,1116472,false,false,1314,image-keyboard-response,10
true,10,0,2,0,true,q,false,true,0.0-2.0-0.41-0.377-3.377,0,0,0,81,false,stim,false,2,649.2999999523163,2,0,2,88713,task1,1118652,false,false,1317,image-keyboard-response,11
true,10,2,2,1,false,z,true,false,0.0-2.0-0.42-0.378-3.378,0,0,0,68,false,stim,false,0,1074.7999999523163,2,0,1,88713,task1,1121246,false,false,1320,image-keyboard-response,12
true,10,0,2,0,true,q,false,true,0.0-2.0-0.42-0.379-3.379,0,0,0,81,false,stim,false,2,541.7000000476837,2,0,2,88713,task1,1123313,false,false,1323,image-keyboard-response,13
true,10,0,2,0,true,q,false,true,0.0-2.0-0.42-0.380-3.380,0,0,0,81,false,stim,false,2,522.0,2,0,2,88713,task1,1125362,false,false,1326,image-keyboard-response,14
true,10,0,2,1,false,z,false,false,0.0-2.0-0.42-0.381-3.381,0,0,0,81,false,stim,true,0,592.8999998569489,2,0,1,88713,task1,1127486,false,false,1329,image-keyboard-response,15
true,10,0,2,0,true,q,false,true,0.0-2.0-0.42-0.382-3.382,0,0,0,81,false,stim,false,2,635.7000000476837,2,0,2,88713,task1,1129645,false,false,1332,image-keyboard-response,16
true,10,0,2,0,true,q,false,false,0.0-2.0-0.42-0.383-3.383,0,0,0,81,false,stim,false,2,778.5,2,0,0,88713,task1,1131957,false,true,1335,image-keyboard-response,17
true,10,1,2,1,true,z,false,true,0.0-2.0-0.42-0.384-3.384,0,0,0,90,false,stim,false,0,1364.2000000476837,2,0,1,88713,task1,1134842,false,false,1338,image-keyboard-response,18
true,10,1,2,0,false,q,true,false,0.0-2.0-0.42-0.385-3.385,0,0,0,90,false,stim,false,2,1174.0999999046326,2,0,0,88713,task1,1137538,false,false,1341,image-keyboard-response,19
true,10,2,2,0,false,q,false,false,0.0-2.0-0.42-0.386-3.386,0,0,0,68,false,stim,true,2,1127.0,2,0,0,88713,task1,1140199,false,false,1344,image-keyboard-response,20
true,10,0,2,0,true,q,false,true,0.0-2.0-0.43-0.387-3.387,0,0,0,81,false,stim,false,2,678.0999999046326,2,0,2,88713,task1,1142406,false,false,1347,image-keyboard-response,21
true,10,0,2,0,true,q,false,true,0.0-2.0-0.43-0.388-3.388,0,0,0,81,false,stim,false,2,525.9000000953674,2,0,0,88713,task1,1144454,false,false,1350,image-keyboard-response,22
true,10,0,2,0,true,q,false,true,0.0-2.0-0.43-0.389-3.389,0,0,0,81,false,stim,false,2,739.2999999523163,2,0,2,88713,task1,1146720,false,false,1353,image-keyboard-response,23
true,10,1,2,1,true,z,false,true,0.0-2.0-0.43-0.390-3.390,0,0,0,90,false,stim,false,0,834.6999998092651,2,0,1,88713,task1,1149078,false,false,1356,image-keyboard-response,24
true,10,0,2,0,true,q,false,true,0.0-2.0-0.43-0.391-3.391,0,0,0,81,false,stim,false,2,596.7000000476837,2,0,0,88713,task1,1151210,false,false,1359,image-keyboard-response,25
true,10,1,2,1,true,z,false,true,0.0-2.0-0.43-0.392-3.392,0,0,0,90,false,stim,false,0,844.9000000953674,2,0,1,88713,task1,1153576,false,false,1362,image-keyboard-response,26
true,10,0,2,0,true,q,false,true,0.0-2.0-0.43-0.393-3.393,0,0,0,81,false,stim,false,2,619.2000000476837,2,0,0,88713,task1,1155721,false,false,1365,image-keyboard-response,27
true,10,1,2,1,true,z,false,true,0.0-2.0-0.43-0.394-3.394,0,0,0,90,false,stim,false,0,865.0,2,0,1,88713,task1,1158117,false,false,1368,image-keyboard-response,28
true,10,0,2,0,true,q,false,true,0.0-2.0-0.43-0.395-3.395,0,0,0,81,false,stim,false,2,856.8999998569489,2,0,2,88713,task1,1160508,false,false,1371,image-keyboard-response,29
true,10,0,2,0,true,q,false,true,0.0-2.0-0.44-0.396-3.396,0,0,0,81,false,stim,false,2,621.4000000953674,2,0,2,88713,task1,1162661,false,false,1374,image-keyboard-response,30
true,10,0,2,0,true,q,false,true,0.0-2.0-0.44-0.397-3.397,0,0,0,81,false,stim,false,2,685.5,2,0,2,88713,task1,1164861,false,false,1377,image-keyboard-response,31
true,10,1,2,1,true,z,false,true,0.0-2.0-0.44-0.398-3.398,0,0,0,90,false,stim,false,0,813.9000000953674,2,0,1,88713,task1,1167207,false,false,1380,image-keyboard-response,32
true,10,1,2,0,false,q,true,false,0.0-2.0-0.44-0.399-3.399,0,0,0,90,false,stim,false,2,922.9000000953674,2,0,0,88713,task1,1169663,false,false,1383,image-keyboard-response,33
true,10,0,2,0,true,q,false,true,0.0-2.0-0.44-0.400-3.400,0,0,0,81,false,stim,false,2,580.5999999046326,2,0,2,88713,task1,1171774,false,false,1386,image-keyboard-response,34
true,10,1,2,1,true,z,false,true,0.0-2.0-0.44-0.401-3.401,0,0,0,90,false,stim,false,0,828.8999998569489,2,0,1,88713,task1,1174124,false,false,1389,image-keyboard-response,35
true,10,0,2,0,true,q,false,true,0.0-2.0-0.44-0.402-3.402,0,0,0,81,false,stim,false,2,710.2999999523163,2,0,0,88713,task1,1176372,false,false,1392,image-keyboard-response,36
true,10,0,2,0,true,q,false,true,0.0-2.0-0.44-0.403-3.403,0,0,0,81,false,stim,false,2,553.5,2,0,0,88713,task1,1178450,false,false,1395,image-keyboard-response,37
true,10,1,2,1,true,z,false,true,0.0-2.0-0.44-0.404-3.404,0,0,0,90,false,stim,false,0,870.3999998569489,2,0,1,88713,task1,1180850,false,false,1398,image-keyboard-response,38
true,10,0,2,0,true,q,false,true,0.0-2.0-0.45-0.405-3.405,0,0,0,81,false,stim,false,2,758.2000000476837,2,0,2,88713,task1,1183158,false,false,1401,image-keyboard-response,39
true,11,1,2,1,true,z,false,true,0.0-2.0-0.45-0.406-3.406,0,0,0,90,true,stim,false,0,1111.7000000476837,2,0,0,88713,task1,1185794,false,false,1404,image-keyboard-response,1
true,11,1,2,1,true,z,false,true,0.0-2.0-0.45-0.407-3.407,0,0,0,90,false,stim,false,0,787.0,2,0,0,88713,task1,1188102,false,false,1407,image-keyboard-response,2
true,11,0,2,0,true,q,false,false,0.0-2.0-0.45-0.408-3.408,0,0,0,81,false,stim,false,1,1353.7000000476837,2,0,1,88713,task1,1190989,false,true,1410,image-keyboard-response,3
true,11,0,2,2,false,d,false,false,0.0-2.0-0.45-0.409-3.409,0,0,0,81,false,stim,true,0,790.2999999523163,2,0,2,88713,task1,1193311,false,false,1413,image-keyboard-response,4
true,11,1,2,2,false,d,true,false,0.0-2.0-0.45-0.410-3.410,0,0,0,90,false,stim,false,0,850.4000000953674,2,0,2,88713,task1,1195691,false,false,1416,image-keyboard-response,5
true,11,1,2,0,false,q,false,false,0.0-2.0-0.45-0.411-3.411,0,0,0,90,false,stim,true,1,778.5,2,0,1,88713,task1,1198005,false,false,1419,image-keyboard-response,6
true,11,1,2,1,true,z,false,true,0.0-2.0-0.45-0.412-3.412,0,0,0,90,false,stim,false,0,1171.8999998569489,2,0,0,88713,task1,1200697,false,false,1422,image-keyboard-response,7
true,11,2,2,0,false,q,true,false,0.0-2.0-0.45-0.413-3.413,0,0,0,68,false,stim,false,1,662.6999998092651,2,0,1,88713,task1,1202893,false,false,1425,image-keyboard-response,8
true,11,1,2,1,true,z,false,true,0.0-2.0-0.46-0.414-3.414,0,0,0,90,false,stim,false,0,845.8999998569489,2,0,0,88713,task1,1205273,false,false,1428,image-keyboard-response,9
true,11,0,2,2,false,d,false,false,0.0-2.0-0.46-0.415-3.415,0,0,0,81,false,stim,true,0,937.8999998569489,2,0,2,88713,task1,1207733,false,false,1431,image-keyboard-response,10
true,11,1,2,1,true,z,false,false,0.0-2.0-0.46-0.416-3.416,0,0,0,90,false,stim,false,0,749.8999998569489,2,0,0,88713,task1,1210016,false,true,1434,image-keyboard-response,11
true,11,2,2,2,true,d,false,false,0.0-2.0-0.46-0.417-3.417,0,0,0,68,false,stim,false,0,702.8999998569489,2,0,2,88713,task1,1212249,false,true,1437,image-keyboard-response,12
true,11,2,2,0,false,q,true,true,0.0-2.0-0.46-0.418-3.418,0,0,0,68,false,stim,false,1,1910.3999998569489,2,0,1,88713,task1,1215683,false,true,1440,image-keyboard-response,13
true,11,2,2,2,true,d,false,true,0.0-2.0-0.46-0.419-3.419,0,0,0,68,false,stim,false,0,1079.6000001430511,2,0,2,88713,task1,1218302,false,false,1443,image-keyboard-response,14
true,11,2,2,0,false,q,true,false,0.0-2.0-0.46-0.420-3.420,0,0,0,68,false,stim,false,1,745.0999999046326,2,0,1,88713,task1,1220581,false,false,1446,image-keyboard-response,15
true,11,1,2,0,false,q,false,false,0.0-2.0-0.46-0.421-3.421,0,0,0,90,false,stim,true,1,688.7999999523163,2,0,1,88713,task1,1222795,false,false,1449,image-keyboard-response,16
true,11,1,2,1,true,z,false,true,0.0-2.0-0.46-0.422-3.422,0,0,0,90,false,stim,false,0,777.7000000476837,2,0,0,88713,task1,1225087,false,false,1452,image-keyboard-response,17
true,11,2,2,2,true,d,false,true,0.0-2.0-0.47-0.423-3.423,0,0,0,68,false,stim,false,0,849.0999999046326,2,0,2,88713,task1,1227460,false,false,1455,image-keyboard-response,18
true,11,0,2,0,true,q,false,true,0.0-2.0-0.47-0.424-3.424,0,0,0,81,false,stim,false,1,771.6999998092651,2,0,1,88713,task1,1229750,false,false,1458,image-keyboard-response,19
true,11,2,2,2,true,d,false,true,0.0-2.0-0.47-0.425-3.425,0,0,0,68,false,stim,false,0,692.7000000476837,2,0,2,88713,task1,1231969,false,false,1461,image-keyboard-response,20
true,11,1,2,1,true,z,false,true,0.0-2.0-0.47-0.426-3.426,0,0,0,90,false,stim,false,0,664.7999999523163,2,0,0,88713,task1,1234160,false,false,1464,image-keyboard-response,21
true,11,2,2,2,true,d,false,true,0.0-2.0-0.47-0.427-3.427,0,0,0,68,false,stim,false,0,665.6000001430511,2,0,2,88713,task1,1236361,false,false,1467,image-keyboard-response,22
true,11,0,2,0,true,q,false,true,0.0-2.0-0.47-0.428-3.428,0,0,0,81,false,stim,false,1,724.9000000953674,2,0,1,88713,task1,1238607,false,false,1470,image-keyboard-response,23
true,11,0,2,0,true,q,false,true,0.0-2.0-0.47-0.429-3.429,0,0,0,81,false,stim,false,1,604.8999998569489,2,0,1,88713,task1,1240730,false,false,1473,image-keyboard-response,24
true,11,1,2,1,true,z,false,true,0.0-2.0-0.47-0.430-3.430,0,0,0,90,false,stim,false,0,774.2999999523163,2,0,0,88713,task1,1243041,false,false,1476,image-keyboard-response,25
true,11,1,2,1,true,z,false,true,0.0-2.0-0.47-0.431-3.431,0,0,0,90,false,stim,false,0,611.2999999523163,2,0,0,88713,task1,1245178,false,false,1479,image-keyboard-response,26
true,11,1,2,1,true,z,false,true,0.0-2.0-0.48-0.432-3.432,0,0,0,90,false,stim,false,0,637.3000001907349,2,0,0,88713,task1,1247355,false,false,1482,image-keyboard-response,27
true,11,2,2,2,true,d,false,true,0.0-2.0-0.48-0.433-3.433,0,0,0,68,false,stim,false,0,664.0999999046326,2,0,2,88713,task1,1249550,false,false,1485,image-keyboard-response,28
true,11,1,2,1,true,z,false,true,0.0-2.0-0.48-0.434-3.434,0,0,0,90,false,stim,false,0,1013.0,2,0,0,88713,task1,1252083,false,false,1488,image-keyboard-response,29
true,11,1,2,1,true,z,false,true,0.0-2.0-0.48-0.435-3.435,0,0,0,90,false,stim,false,0,616.0,2,0,0,88713,task1,1254220,false,false,1491,image-keyboard-response,30
true,11,2,2,2,true,d,false,true,0.0-2.0-0.48-0.436-3.436,0,0,0,68,false,stim,false,0,625.8000001907349,2,0,2,88713,task1,1256363,false,false,1494,image-keyboard-response,31
true,11,0,2,0,true,q,false,false,0.0-2.0-0.48-0.437-3.437,0,0,0,81,false,stim,false,1,835.5999999046326,2,0,1,88713,task1,1258727,false,true,1497,image-keyboard-response,32
true,11,1,2,0,false,q,false,false,0.0-2.0-0.48-0.438-3.438,0,0,0,90,false,stim,true,1,831.6000001430511,2,0,1,88713,task1,1261095,false,false,1500,image-keyboard-response,33
true,11,2,2,2,true,d,false,true,0.0-2.0-0.48-0.439-3.439,0,0,0,68,false,stim,false,0,738.6999998092651,2,0,2,88713,task1,1263370,false,false,1503,image-keyboard-response,34
true,11,2,2,0,false,q,true,false,0.0-2.0-0.48-0.440-3.440,0,0,0,68,false,stim,false,1,578.0999999046326,2,0,1,88713,task1,1265474,false,false,1506,image-keyboard-response,35
true,11,2,2,2,true,d,false,false,0.0-2.0-0.49-0.441-3.441,0,0,0,68,false,stim,false,0,1206.5999999046326,2,0,2,88713,task1,1268203,false,true,1509,image-keyboard-response,36
true,11,1,2,1,true,z,false,true,0.0-2.0-0.49-0.442-3.442,0,0,0,90,false,stim,false,0,1047.6000001430511,2,0,0,88713,task1,1270783,false,false,1512,image-keyboard-response,37
true,11,2,2,2,true,d,false,true,0.0-2.0-0.49-0.443-3.443,0,0,0,68,false,stim,false,0,913.4000000953674,2,0,2,88713,task1,1273233,false,false,1515,image-keyboard-response,38
true,11,1,2,1,true,z,false,true,0.0-2.0-0.49-0.444-3.444,0,0,0,90,false,stim,false,0,767.1000001430511,2,0,0,88713,task1,1275523,false,false,1518,image-keyboard-response,39
true,11,2,2,0,false,q,true,true,0.0-2.0-0.49-0.445-3.445,0,0,0,68,false,stim,false,1,1506.0,2,0,1,88713,task1,1278559,false,true,1521,image-keyboard-response,40
true,11,2,2,0,false,q,true,false,0.0-2.0-0.49-0.446-3.446,0,0,0,68,false,stim,false,1,684.0,2,0,1,88713,task1,1280771,false,false,1524,image-keyboard-response,41
true,11,2,2,0,false,q,true,false,0.0-2.0-0.49-0.447-3.447,0,0,0,68,false,stim,false,1,1418.0,2,0,1,88713,task1,1283709,false,false,1527,image-keyboard-response,42
true,11,1,2,1,true,z,false,true,0.0-2.0-0.49-0.448-3.448,0,0,0,90,false,stim,false,0,1180.7000000476837,2,0,0,88713,task1,1286421,false,false,1530,image-keyboard-response,43
true,11,2,2,2,true,d,false,true,0.0-2.0-0.49-0.449-3.449,0,0,0,68,false,stim,false,0,759.2000000476837,2,0,2,88713,task1,1288704,false,false,1533,image-keyboard-response,44
true,12,1,2,0,false,q,false,true,0.0-2.0-0.50-0.450-3.450,0,0,0,90,true,stim,true,1,873.7000000476837,2,0,0,88713,task1,1291093,false,true,1536,image-keyboard-response,1
true,12,0,2,1,false,z,false,false,0.0-2.0-0.50-0.451-3.451,0,0,0,81,false,stim,true,0,966.7999999523163,2,0,1,88713,task1,1293596,false,false,1539,image-keyboard-response,2
true,12,2,2,0,false,q,false,false,0.0-2.0-0.50-0.452-3.452,0,0,0,68,false,stim,true,2,738.5,2,0,2,88713,task1,1295867,false,false,1542,image-keyboard-response,3
true,12,1,2,0,false,q,false,false,0.0-2.0-0.50-0.453-3.453,0,0,0,90,false,stim,true,1,626.6000001430511,2,0,0,88713,task1,1298033,false,false,1545,image-keyboard-response,4
true,12,1,2,0,false,q,true,true,0.0-2.0-0.50-0.454-3.454,0,0,0,90,false,stim,false,2,1381.3000001907349,2,0,2,88713,task1,1300933,false,true,1548,image-keyboard-response,5
true,12,1,2,1,true,z,false,true,0.0-2.0-0.50-0.455-3.455,0,0,0,90,false,stim,false,0,878.9000000953674,2,0,1,88713,task1,1303346,false,false,1551,image-keyboard-response,6
true,12,1,2,1,true,z,false,true,0.0-2.0-0.50-0.456-3.456,0,0,0,90,false,stim,false,0,1003.0,2,0,1,88713,task1,1305871,false,false,1554,image-keyboard-response,7
true,12,0,2,0,true,q,false,true,0.0-2.0-0.50-0.457-3.457,0,0,0,81,false,stim,false,1,1060.4000000953674,2,0,0,88713,task1,1308448,false,false,1557,image-keyboard-response,8
true,12,1,2,0,false,q,true,false,0.0-2.0-0.50-0.458-3.458,0,0,0,90,false,stim,false,2,665.2000000476837,2,0,2,88713,task1,1310646,false,false,1560,image-keyboard-response,9
true,12,1,2,1,true,z,false,true,0.0-2.0-0.51-0.459-3.459,0,0,0,90,false,stim,false,0,632.0,2,0,1,88713,task1,1312808,false,false,1563,image-keyboard-response,10
true,12,1,2,0,false,q,true,false,0.0-2.0-0.51-0.460-3.460,0,0,0,90,false,stim,false,2,1808.7999999523163,2,0,2,88713,task1,1316133,false,false,1566,image-keyboard-response,11
true,12,2,2,0,false,q,false,true,0.0-2.0-0.51-0.461-3.461,0,0,0,68,false,stim,true,2,804.0,2,0,2,88713,task1,1318461,false,true,1569,image-keyboard-response,12
true,12,1,2,1,true,z,false,false,0.0-2.0-0.51-0.462-3.462,0,0,0,90,false,stim,false,0,1073.4000000953674,2,0,1,88713,task1,1321069,false,true,1572,image-keyboard-response,13
true,12,1,2,0,false,q,false,false,0.0-2.0-0.51-0.463-3.463,0,0,0,90,false,stim,true,1,945.8000001907349,2,0,0,88713,task1,1323544,false,false,1575,image-keyboard-response,14
true,12,0,2,1,false,z,false,false,0.0-2.0-0.51-0.464-3.464,0,0,0,81,false,stim,true,0,825.8000001907349,2,0,1,88713,task1,1325892,false,false,1578,image-keyboard-response,15
true,12,2,2,0,false,q,false,false,0.0-2.0-0.51-0.465-3.465,0,0,0,68,false,stim,true,2,640.0,2,0,2,88713,task1,1328060,false,false,1581,image-keyboard-response,16
true,12,1,2,0,false,q,false,false,0.0-2.0-0.51-0.466-3.466,0,0,0,90,false,stim,true,1,808.6000001430511,2,0,0,88713,task1,1330392,false,false,1584,image-keyboard-response,17
true,12,2,2,0,false,q,true,false,0.0-2.0-0.51-0.467-3.467,0,0,0,68,false,stim,false,1,562.2999999523163,2,0,0,88713,task1,1332481,false,false,1587,image-keyboard-response,18
true,12,0,2,0,true,q,false,true,0.0-2.0-0.52-0.468-3.468,0,0,0,81,false,stim,false,2,1189.0999999046326,2,0,2,88713,task1,1335193,false,false,1590,image-keyboard-response,19
true,12,1,2,1,true,z,false,true,0.0-2.0-0.52-0.469-3.469,0,0,0,90,false,stim,false,0,930.4000000953674,2,0,1,88713,task1,1337658,false,false,1593,image-keyboard-response,20
true,12,1,2,1,true,z,false,true,0.0-2.0-0.52-0.470-3.470,0,0,0,90,false,stim,false,0,863.5,2,0,1,88713,task1,1340053,false,false,1596,image-keyboard-response,21
true,12,2,2,0,false,q,true,false,0.0-2.0-0.52-0.471-3.471,0,0,0,68,false,stim,false,1,1043.0,2,0,0,88713,task1,1342619,false,false,1599,image-keyboard-response,22
true,12,1,2,0,false,q,false,false,0.0-2.0-0.52-0.472-3.472,0,0,0,90,false,stim,true,1,899.9000000953674,2,0,0,88713,task1,1345047,false,false,1602,image-keyboard-response,23
true,12,0,2,0,true,q,false,true,0.0-2.0-0.52-0.473-3.473,0,0,0,81,false,stim,false,2,1084.3000001907349,2,0,2,88713,task1,1347664,false,false,1605,image-keyboard-response,24
true,12,0,2,0,true,q,false,false,0.0-2.0-0.52-0.474-3.474,0,0,0,81,false,stim,false,1,973.6000001430511,2,0,0,88713,task1,1350167,false,true,1608,image-keyboard-response,25
true,12,0,2,0,true,q,false,true,0.0-2.0-0.52-0.475-3.475,0,0,0,81,false,stim,false,2,691.5999999046326,2,0,2,88713,task1,1352392,false,false,1611,image-keyboard-response,26
true,12,1,2,1,true,z,false,true,0.0-2.0-0.52-0.476-3.476,0,0,0,90,false,stim,false,0,522.5,2,0,1,88713,task1,1354437,false,false,1614,image-keyboard-response,27
true,12,0,2,0,true,q,false,true,0.0-2.0-0.53-0.477-3.477,0,0,0,81,false,stim,false,2,761.5999999046326,2,0,2,88713,task1,1356726,false,false,1617,image-keyboard-response,28
true,12,0,2,0,true,q,false,false,0.0-2.0-0.53-0.478-3.478,0,0,0,81,false,stim,false,1,903.4000000953674,2,0,0,88713,task1,1359153,false,true,1620,image-keyboard-response,29
true,12,1,2,1,true,z,false,true,0.0-2.0-0.53-0.479-3.479,0,0,0,90,false,stim,false,0,705.0999999046326,2,0,1,88713,task1,1361374,false,false,1623,image-keyboard-response,30
true,12,1,2,1,true,z,false,true,0.0-2.0-0.53-0.480-3.480,0,0,0,90,false,stim,false,0,634.1999998092651,2,0,1,88713,task1,1363546,false,false,1626,image-keyboard-response,31
true,12,1,2,0,false,q,false,false,0.0-2.0-0.53-0.481-3.481,0,0,0,90,false,stim,true,1,551.2999999523163,2,0,0,88713,task1,1365629,false,false,1629,image-keyboard-response,32
true,12,0,2,0,true,q,false,false,0.0-2.0-0.53-0.482-3.482,0,0,0,81,false,stim,false,2,806.3999998569489,2,0,2,88713,task1,1367965,false,true,1632,image-keyboard-response,33
true,12,2,2,1,false,z,true,false,0.0-2.0-0.53-0.483-3.483,0,0,0,68,false,stim,false,0,1347.1999998092651,2,0,1,88713,task1,1370841,false,false,1635,image-keyboard-response,34
true,12,1,2,0,false,q,false,true,0.0-2.0-0.53-0.484-3.484,0,0,0,90,false,stim,true,1,857.0999999046326,2,0,0,88713,task1,1373237,false,true,1638,image-keyboard-response,35
true,12,0,2,0,true,q,false,true,0.0-2.0-0.53-0.485-3.485,0,0,0,81,false,stim,false,2,992.2000000476837,2,0,2,88713,task1,1375752,false,false,1641,image-keyboard-response,36
true,12,1,2,0,false,q,false,false,0.0-2.0-0.54-0.486-3.486,0,0,0,90,false,stim,true,1,1087.0,2,0,0,88713,task1,1378368,false,false,1644,image-keyboard-response,37
true,12,1,2,1,true,z,false,false,0.0-2.0-0.54-0.487-3.487,0,0,0,90,false,stim,false,0,999.5,2,0,1,88713,task1,1380889,false,true,1647,image-keyboard-response,38
true,12,1,2,0,false,q,false,true,0.0-2.0-0.54-0.488-3.488,0,0,0,90,false,stim,true,1,971.0999999046326,2,0,0,88713,task1,1383395,false,true,1650,image-keyboard-response,39
true,12,1,2,0,false,q,false,false,0.0-2.0-0.54-0.489-3.489,0,0,0,90,false,stim,true,1,897.5,2,0,0,88713,task1,1385828,false,false,1653,image-keyboard-response,40
true,12,0,2,0,true,q,false,false,0.0-2.0-0.54-0.490-3.490,0,0,0,81,false,stim,false,2,954.2999999523163,2,0,2,88713,task1,1388316,false,true,1656,image-keyboard-response,41
true,13,0,2,2,false,d,false,false,0.0-2.0-0.54-0.491-3.491,0,0,0,81,true,stim,true,0,502.40000009536743,2,0,2,88713,task1,1390350,false,false,1659,image-keyboard-response,1
true,13,1,2,2,false,d,true,false,0.0-2.0-0.54-0.492-3.492,0,0,0,90,false,stim,false,0,776.7000000476837,2,0,2,88713,task1,1392660,false,false,1662,image-keyboard-response,2
true,13,1,2,0,false,q,false,false,0.0-2.0-0.54-0.493-3.493,0,0,0,90,false,stim,true,1,1128.4000000953674,2,0,1,88713,task1,1395311,false,false,1665,image-keyboard-response,3
true,13,2,2,0,false,q,true,true,0.0-2.0-0.54-0.494-3.494,0,0,0,68,false,stim,false,1,680.4000000953674,2,0,1,88713,task1,1397519,false,true,1668,image-keyboard-response,4
true,13,2,2,2,true,d,false,true,0.0-2.0-0.55-0.495-3.495,0,0,0,68,false,stim,false,0,919.9000000953674,2,0,2,88713,task1,1399972,false,false,1671,image-keyboard-response,5
true,13,2,2,0,false,q,true,false,0.0-2.0-0.55-0.496-3.496,0,0,0,68,false,stim,false,1,770.3000001907349,2,0,1,88713,task1,1402257,false,false,1674,image-keyboard-response,6
true,13,2,2,2,true,d,false,true,0.0-2.0-0.55-0.497-3.497,0,0,0,68,false,stim,false,0,847.6000001430511,2,0,2,88713,task1,1404637,false,false,1677,image-keyboard-response,7
true,13,2,2,1,false,z,true,false,0.0-2.0-0.55-0.498-3.498,0,0,0,68,false,stim,false,0,1380.7999999523163,2,0,0,88713,task1,1407556,false,false,1680,image-keyboard-response,8
true,13,1,2,1,true,z,false,true,0.0-2.0-0.55-0.499-3.499,0,0,0,90,false,stim,false,0,676.5,2,0,0,88713,task1,1409767,false,false,1683,image-keyboard-response,9
true,13,2,2,0,false,q,true,false,0.0-2.0-0.55-0.500-3.500,0,0,0,68,false,stim,false,1,732.2999999523163,2,0,1,88713,task1,1412026,false,false,1686,image-keyboard-response,10
true,13,0,2,0,true,q,false,true,0.0-2.0-0.55-0.501-3.501,0,0,0,81,false,stim,false,1,1924.7999999523163,2,0,1,88713,task1,1415479,false,false,1689,image-keyboard-response,11
true,13,2,2,2,true,d,false,true,0.0-2.0-0.55-0.502-3.502,0,0,0,68,false,stim,false,0,668.2999999523163,2,0,2,88713,task1,1417681,false,false,1692,image-keyboard-response,12
true,13,1,2,1,true,z,false,false,0.0-2.0-0.55-0.503-3.503,0,0,0,90,false,stim,false,0,766.7999999523163,2,0,0,88713,task1,1419983,false,true,1695,image-keyboard-response,13
true,13,0,2,0,true,q,false,true,0.0-2.0-0.56-0.504-3.504,0,0,0,81,false,stim,false,1,733.0999999046326,2,0,1,88713,task1,1422250,false,false,1698,image-keyboard-response,14
true,13,2,2,2,true,d,false,true,0.0-2.0-0.56-0.505-3.505,0,0,0,68,false,stim,false,0,476.89999985694885,2,0,2,88713,task1,1424277,false,false,1701,image-keyboard-response,15
true,13,2,2,2,true,d,false,true,0.0-2.0-0.56-0.506-3.506,0,0,0,68,false,stim,false,0,509.7999999523163,2,0,2,88713,task1,1426310,false,false,1704,image-keyboard-response,16
true,13,2,2,2,true,d,false,false,0.0-2.0-0.56-0.507-3.507,0,0,0,68,false,stim,false,0,544.2999999523163,2,0,2,88713,task1,1428378,false,true,1707,image-keyboard-response,17
true,13,2,2,1,false,z,true,false,0.0-2.0-0.56-0.508-3.508,0,0,0,68,false,stim,false,0,1025.2999999523163,2,0,0,88713,task1,1430927,false,false,1710,image-keyboard-response,18
true,13,1,2,1,true,z,false,true,0.0-2.0-0.56-0.509-3.509,0,0,0,90,false,stim,false,0,788.3999998569489,2,0,0,88713,task1,1433241,false,false,1713,image-keyboard-response,19
true,13,0,2,0,true,q,false,true,0.0-2.0-0.56-0.510-3.510,0,0,0,81,false,stim,false,1,998.4000000953674,2,0,1,88713,task1,1435769,false,false,1716,image-keyboard-response,20
true,13,0,2,0,true,q,false,true,0.0-2.0-0.56-0.511-3.511,0,0,0,81,false,stim,false,1,576.0,2,0,1,88713,task1,1437867,false,false,1719,image-keyboard-response,21
true,13,1,2,1,true,z,false,true,0.0-2.0-0.56-0.512-3.512,0,0,0,90,false,stim,false,0,701.4000000953674,2,0,0,88713,task1,1440092,false,false,1722,image-keyboard-response,22
true,13,0,2,0,true,q,false,true,0.0-2.0-0.57-0.513-3.513,0,0,0,81,false,stim,false,1,573.4000000953674,2,0,1,88713,task1,1442207,false,false,1725,image-keyboard-response,23
true,13,1,2,1,true,z,false,true,0.0-2.0-0.57-0.514-3.514,0,0,0,90,false,stim,false,0,537.4000000953674,2,0,0,88713,task1,1444273,false,false,1728,image-keyboard-response,24
true,13,1,2,2,false,d,true,true,0.0-2.0-0.57-0.515-3.515,0,0,0,90,false,stim,false,0,1272.8000001907349,2,0,2,88713,task1,1447074,false,true,1731,image-keyboard-response,25
true,13,0,2,0,true,q,false,true,0.0-2.0-0.57-0.516-3.516,0,0,0,81,false,stim,false,1,902.7999999523163,2,0,1,88713,task1,1449502,false,false,1734,image-keyboard-response,26
true,13,1,2,1,true,z,false,true,0.0-2.0-0.57-0.517-3.517,0,0,0,90,false,stim,false,0,794.0999999046326,2,0,0,88713,task1,1451834,false,false,1737,image-keyboard-response,27
true,13,1,2,2,false,d,true,false,0.0-2.0-0.57-0.518-3.518,0,0,0,90,false,stim,false,0,557.5999999046326,2,0,2,88713,task1,1453913,false,false,1740,image-keyboard-response,28
true,13,1,2,1,true,z,false,true,0.0-2.0-0.57-0.519-3.519,0,0,0,90,false,stim,false,0,836.7000000476837,2,0,0,88713,task1,1456279,false,false,1743,image-keyboard-response,29
true,13,2,2,2,true,d,false,true,0.0-2.0-0.57-0.520-3.520,0,0,0,68,false,stim,false,0,987.2000000476837,2,0,2,88713,task1,1458797,false,false,1746,image-keyboard-response,30
true,13,0,2,0,true,q,false,true,0.0-2.0-0.57-0.521-3.521,0,0,0,81,false,stim,false,1,1164.4000000953674,2,0,1,88713,task1,1461490,false,false,1749,image-keyboard-response,31
true,13,0,2,0,true,q,false,true,0.0-2.0-0.58-0.522-3.522,0,0,0,81,false,stim,false,1,582.2000000476837,2,0,1,88713,task1,1463604,false,false,1752,image-keyboard-response,32
true,13,2,2,2,true,d,false,true,0.0-2.0-0.58-0.523-3.523,0,0,0,68,false,stim,false,0,820.2000000476837,2,0,2,88713,task1,1465951,false,false,1755,image-keyboard-response,33
true,13,2,2,2,true,d,false,true,0.0-2.0-0.58-0.524-3.524,0,0,0,68,false,stim,false,0,645.7000000476837,2,0,2,88713,task1,1468128,false,false,1758,image-keyboard-response,34
true,13,1,2,1,true,z,false,false,0.0-2.0-0.58-0.525-3.525,0,0,0,90,false,stim,false,0,891.7000000476837,2,0,0,88713,task1,1470539,false,true,1761,image-keyboard-response,35
true,13,2,2,1,false,z,true,false,0.0-2.0-0.58-0.526-3.526,0,0,0,68,false,stim,false,0,675.7000000476837,2,0,0,88713,task1,1472743,false,false,1764,image-keyboard-response,36
true,13,0,2,0,true,q,false,true,0.0-2.0-0.58-0.527-3.527,0,0,0,81,false,stim,false,1,534.1000001430511,2,0,1,88713,task1,1474805,false,false,1767,image-keyboard-response,37
true,13,2,2,2,true,d,false,true,0.0-2.0-0.58-0.528-3.528,0,0,0,68,false,stim,false,0,561.0999999046326,2,0,2,88713,task1,1476883,false,false,1770,image-keyboard-response,38
true,13,0,2,0,true,q,false,true,0.0-2.0-0.58-0.529-3.529,0,0,0,81,false,stim,false,1,914.9000000953674,2,1,1,88713,task1,1479321,false,false,1773,image-keyboard-response,39
true,13,0,2,1,false,z,false,false,0.0-2.0-0.58-0.530-3.530,0,0,0,81,false,stim,true,0,684.2999999523163,2,1,0,88713,task1,1481539,false,false,1776,image-keyboard-response,40
true,13,1,2,1,true,z,false,true,0.0-2.0-0.59-0.531-3.531,0,0,0,90,false,stim,false,0,706.0999999046326,2,1,0,88713,task1,1483776,false,false,1779,image-keyboard-response,41
true,13,2,2,2,true,d,false,true,0.0-2.0-0.59-0.532-3.532,0,0,0,68,false,stim,false,0,723.7999999523163,2,1,2,88713,task1,1486032,false,false,1782,image-keyboard-response,42
true,13,1,2,1,true,z,false,true,0.0-2.0-0.59-0.533-3.533,0,0,0,90,false,stim,false,0,664.2000000476837,2,1,0,88713,task1,1488225,false,false,1785,image-keyboard-response,43
true,14,1,0,1,true,z,false,true,0.0-2.0-0.59-0.534-3.534,1,1,1,90,true,stim,false,1,1270.5,2,1,0,88713,task1,1612649,false,false,1908,image-keyboard-response,1
true,14,2,0,2,true,d,false,true,0.0-2.0-0.59-0.535-3.535,1,1,1,68,false,stim,false,2,910.4000000953674,2,1,2,88713,task1,1615078,false,false,1911,image-keyboard-response,2
true,14,1,0,0,false,q,true,true,0.0-2.0-0.59-0.536-3.536,1,1,1,90,false,stim,false,0,1492.2000000476837,2,1,1,88713,task1,1618095,false,true,1914,image-keyboard-response,3
true,14,1,0,0,false,q,true,false,0.0-2.0-0.59-0.537-3.537,1,1,1,90,false,stim,false,0,940.5,2,1,1,88713,task1,1620562,false,false,1917,image-keyboard-response,4
true,14,2,0,2,true,d,false,true,0.0-2.0-0.59-0.538-3.538,1,1,1,68,false,stim,false,2,957.0,2,1,2,88713,task1,1623041,false,false,1920,image-keyboard-response,5
true,14,2,0,0,false,q,true,false,0.0-2.0-0.59-0.539-3.539,1,1,1,68,false,stim,false,0,1187.0999999046326,2,1,1,88713,task1,1625758,false,false,1923,image-keyboard-response,6
true,14,0,0,2,false,d,true,false,0.0-2.0-0.60-0.540-3.540,1,1,1,81,false,stim,false,2,1056.7999999523163,2,1,2,88713,task1,1628344,false,false,1926,image-keyboard-response,7
true,14,2,0,1,false,z,true,false,0.0-2.0-0.60-0.541-3.541,1,1,1,68,false,stim,false,1,923.1000001430511,2,1,0,88713,task1,1630800,false,false,1929,image-keyboard-response,8
true,14,1,0,2,false,d,true,false,0.0-2.0-0.60-0.542-3.542,1,1,1,90,false,stim,false,2,1014.4000000953674,2,0,2,88713,task1,1633338,false,false,1932,image-keyboard-response,9
true,14,1,0,0,false,q,true,false,0.0-2.0-0.60-0.543-3.543,1,1,1,90,false,stim,false,0,880.5999999046326,2,0,1,88713,task1,1635759,false,false,1935,image-keyboard-response,10
true,14,2,0,0,false,q,true,false,0.0-2.0-0.60-0.544-3.544,1,1,1,68,false,stim,false,0,840.5,2,0,1,88713,task1,1638118,false,false,1938,image-keyboard-response,11
true,14,1,0,2,false,d,true,false,0.0-2.0-0.60-0.545-3.545,1,1,1,90,false,stim,false,2,1771.9000000953674,2,0,2,88713,task1,1641418,false,false,1941,image-keyboard-response,12
true,14,1,0,1,true,z,false,true,0.0-2.0-0.60-0.546-3.546,1,1,1,90,false,stim,false,1,1132.2999999523163,2,0,0,88713,task1,1644066,false,false,1944,image-keyboard-response,13
true,15,1,1,2,false,d,false,false,0.0-2.0-0.60-0.547-3.547,0,0,0,90,true,stim,true,1,918.0999999046326,2,0,0,88713,task1,1646516,false,false,1947,image-keyboard-response,1
true,15,1,1,1,true,z,false,true,0.0-2.0-0.60-0.548-3.548,0,0,0,90,false,stim,false,0,1035.2999999523163,2,0,1,88713,task1,1649087,false,false,1950,image-keyboard-response,2
true,15,1,1,0,false,q,true,true,0.0-2.0-0.61-0.549-3.549,0,0,0,90,false,stim,false,2,756.6999998092651,2,0,2,88713,task1,1651374,false,true,1953,image-keyboard-response,3
true,15,1,1,1,true,z,false,true,0.0-2.0-0.61-0.550-3.550,0,0,0,90,false,stim,false,0,949.6000001430511,2,0,1,88713,task1,1653855,false,false,1956,image-keyboard-response,4
true,15,1,1,1,true,z,false,true,0.0-2.0-0.61-0.551-3.551,0,0,0,90,false,stim,false,0,631.6999998092651,2,0,1,88713,task1,1656021,false,false,1959,image-keyboard-response,5
true,15,1,1,0,false,q,true,false,0.0-2.0-0.61-0.552-3.552,0,0,0,90,false,stim,false,2,666.2000000476837,2,0,2,88713,task1,1658203,false,false,1962,image-keyboard-response,6
true,15,0,1,2,false,d,true,false,0.0-2.0-0.61-0.553-3.553,0,0,0,81,false,stim,false,1,1801.0999999046326,2,0,0,88713,task1,1661525,false,false,1965,image-keyboard-response,7
true,15,2,1,2,true,d,false,true,0.0-2.0-0.61-0.554-3.554,0,0,0,68,false,stim,false,1,642.2000000476837,2,0,0,88713,task1,1663703,false,false,1968,image-keyboard-response,8
true,15,1,1,0,false,q,true,false,0.0-2.0-0.61-0.555-3.555,0,0,0,90,false,stim,false,2,668.2000000476837,2,0,2,88713,task1,1665902,false,false,1971,image-keyboard-response,9
true,15,1,1,1,true,z,false,true,0.0-2.0-0.61-0.556-3.556,0,0,0,90,false,stim,false,0,879.7000000476837,2,0,1,88713,task1,1668310,false,false,1974,image-keyboard-response,10
true,15,2,1,2,true,d,false,true,0.0-2.0-0.61-0.557-3.557,0,0,0,68,false,stim,false,1,927.6000001430511,2,0,0,88713,task1,1670776,false,false,1977,image-keyboard-response,11
true,15,1,1,2,false,d,false,false,0.0-2.0-0.62-0.558-3.558,0,0,0,90,false,stim,true,1,1587.1000001430511,2,0,0,88713,task1,1673887,false,false,1980,image-keyboard-response,12
true,15,2,1,2,true,d,false,false,0.0-2.0-0.62-0.559-3.559,0,0,0,68,false,stim,false,1,922.3000001907349,2,0,0,88713,task1,1676342,false,true,1983,image-keyboard-response,13
true,15,1,1,0,false,q,true,false,0.0-2.0-0.62-0.560-3.560,0,0,0,90,false,stim,false,2,966.0,2,0,2,88713,task1,1678835,false,false,1986,image-keyboard-response,14
true,15,0,1,2,false,d,true,false,0.0-2.0-0.62-0.561-3.561,0,0,0,81,false,stim,false,1,1099.6999998092651,2,0,0,88713,task1,1681472,false,false,1989,image-keyboard-response,15
true,15,2,1,1,false,z,true,false,0.0-2.0-0.62-0.562-3.562,0,0,0,68,false,stim,false,0,1049.2000000476837,2,0,1,88713,task1,1684044,false,false,1992,image-keyboard-response,16
true,15,1,1,0,false,q,true,false,0.0-2.0-0.62-0.563-3.563,0,0,0,90,false,stim,false,2,1196.4000000953674,2,0,2,88713,task1,1686778,false,false,1995,image-keyboard-response,17
true,15,1,1,1,true,z,false,false,0.0-2.0-0.62-0.564-3.564,0,0,0,90,false,stim,false,0,986.6999998092651,2,0,1,88713,task1,1689302,false,true,1998,image-keyboard-response,18
true,15,2,1,1,false,z,true,false,0.0-2.0-0.62-0.565-3.565,0,0,0,68,false,stim,false,0,583.9000000953674,2,0,1,88713,task1,1691440,false,false,2001,image-keyboard-response,19
true,15,0,1,0,true,q,false,true,0.0-2.0-0.62-0.566-3.566,0,0,0,81,false,stim,false,2,864.6000001430511,2,0,2,88713,task1,1693831,false,false,2004,image-keyboard-response,20
true,15,0,1,0,true,q,false,true,0.0-2.0-0.63-0.567-3.567,0,0,0,81,false,stim,false,2,626.7000000476837,2,0,2,88713,task1,1695977,false,false,2007,image-keyboard-response,21
true,15,2,1,2,true,d,false,true,0.0-2.0-0.63-0.568-3.568,0,0,0,68,false,stim,false,1,1740.0999999046326,2,0,0,88713,task1,1699246,false,false,2010,image-keyboard-response,22
true,15,0,1,0,true,q,false,true,0.0-2.0-0.63-0.569-3.569,0,0,0,81,false,stim,false,2,768.7999999523163,2,0,2,88713,task1,1701543,false,false,2013,image-keyboard-response,23
true,15,1,1,1,true,z,false,true,0.0-2.0-0.63-0.570-3.570,0,0,0,90,false,stim,false,0,914.2999999523163,2,0,1,88713,task1,1703986,false,false,2016,image-keyboard-response,24
true,15,0,1,0,true,q,false,true,0.0-2.0-0.63-0.571-3.571,0,0,0,81,false,stim,false,2,770.6000001430511,2,0,2,88713,task1,1706278,false,false,2019,image-keyboard-response,25
true,15,1,1,1,true,z,false,true,0.0-2.0-0.63-0.572-3.572,0,0,0,90,false,stim,false,0,880.9000000953674,2,0,1,88713,task1,1708691,false,false,2022,image-keyboard-response,26
true,15,1,1,1,true,z,false,true,0.0-2.0-0.63-0.573-3.573,0,0,0,90,false,stim,false,0,817.1999998092651,2,0,1,88713,task1,1711043,false,false,2025,image-keyboard-response,27
true,15,2,1,2,true,d,false,true,0.0-2.0-0.63-0.574-3.574,0,0,0,68,false,stim,false,1,915.6000001430511,2,0,0,88713,task1,1713477,false,false,2028,image-keyboard-response,28
true,15,2,1,2,true,d,false,true,0.0-2.0-0.63-0.575-3.575,0,0,0,68,false,stim,false,1,701.5999999046326,2,0,0,88713,task1,1715702,false,false,2031,image-keyboard-response,29
true,15,0,1,0,true,q,false,true,0.0-2.0-0.64-0.576-3.576,0,0,0,81,false,stim,false,2,1079.8000001907349,2,0,2,88713,task1,1718310,false,false,2034,image-keyboard-response,30
true,15,2,1,2,true,d,false,true,0.0-2.0-0.64-0.577-3.577,0,0,0,68,false,stim,false,1,732.2999999523163,2,0,0,88713,task1,1720568,false,false,2037,image-keyboard-response,31
true,15,0,1,0,true,q,false,true,0.0-2.0-0.64-0.578-3.578,0,0,0,81,false,stim,false,2,843.2000000476837,2,0,2,88713,task1,1722945,false,false,2040,image-keyboard-response,32
true,15,2,1,2,true,d,false,true,0.0-2.0-0.64-0.579-3.579,0,0,0,68,false,stim,false,1,866.8999998569489,2,0,0,88713,task1,1725335,false,false,2043,image-keyboard-response,33
true,15,0,1,0,true,q,false,true,0.0-2.0-0.64-0.580-3.580,0,0,0,81,false,stim,false,2,817.6999998092651,2,0,2,88713,task1,1727689,false,false,2046,image-keyboard-response,34
true,15,2,1,2,true,d,false,true,0.0-2.0-0.64-0.581-3.581,0,0,0,68,false,stim,false,1,632.2000000476837,2,0,0,88713,task1,1729858,false,false,2049,image-keyboard-response,35
true,15,1,1,1,true,z,false,true,0.0-2.0-0.64-0.582-3.582,0,0,0,90,false,stim,false,0,913.7000000476837,2,0,1,88713,task1,1732304,false,false,2052,image-keyboard-response,36
true,15,1,1,1,true,z,false,true,0.0-2.0-0.64-0.583-3.583,0,0,0,90,false,stim,false,0,647.4000000953674,2,0,1,88713,task1,1734488,false,false,2055,image-keyboard-response,37
true,15,1,1,1,true,z,false,true,0.0-2.0-0.64-0.584-3.584,0,0,0,90,false,stim,false,0,655.0,2,0,1,88713,task1,1736664,false,false,2058,image-keyboard-response,38
true,15,0,1,0,true,q,false,true,0.0-2.0-0.65-0.585-3.585,0,0,0,81,false,stim,false,2,936.5,2,0,2,88713,task1,1739132,false,false,2061,image-keyboard-response,39
true,15,0,1,0,true,q,false,true,0.0-2.0-0.65-0.586-3.586,0,0,0,81,false,stim,false,2,503.59999990463257,2,0,2,88713,task1,1741165,false,false,2064,image-keyboard-response,40
true,15,0,1,0,true,q,false,false,0.0-2.0-0.65-0.587-3.587,0,0,0,81,false,stim,false,2,789.0,2,0,2,88713,task1,1743484,false,true,2067,image-keyboard-response,41
true,15,1,1,1,true,z,false,true,0.0-2.0-0.65-0.588-3.588,0,0,0,90,false,stim,false,0,1327.5,2,0,1,88713,task1,1746357,false,false,2070,image-keyboard-response,42
true,15,2,1,2,true,d,false,true,0.0-2.0-0.65-0.589-3.589,0,0,0,68,false,stim,false,1,2022.1000001430511,2,0,0,88713,task1,1749899,false,false,2073,image-keyboard-response,43
