answered,blockNum,choice,condition,corResp,correct,correct_response,explo,fb,internal_node_id,isStable_1,isStable_2,isStable_3,key_press,newBlock,part,persev,persevResp,rt,sessNum,stableAS,stimulus,subject,task,time_elapsed,training,trap,trial_index,trial_type,trialsInBlock
true,1,0,0,2,false,d,true,false,0.0-2.0-0.0-0.0-3.0,0,0,0,81,true,stim,false,-1,1447.1000000238419,0,0,0,88713,task2,231578,false,false,184,image-keyboard-response,1
true,1,1,0,2,false,d,true,false,0.0-2.0-0.0-0.1-3.1,0,0,0,90,false,stim,false,-1,1102.2999999523163,0,0,0,88713,task2,234229,false,false,187,image-keyboard-response,2
true,1,2,0,2,true,d,false,true,0.0-2.0-0.0-0.2-3.2,0,0,0,68,false,stim,false,-1,496.1999999284744,0,0,0,88713,task2,236249,false,false,190,image-keyboard-response,3
true,1,1,0,0,false,q,true,true,0.0-2.0-0.0-0.3-3.3,0,0,0,90,false,stim,false,-1,951.5,0,0,1,88713,task2,238734,false,true,193,image-keyboard-response,4
true,1,0,0,0,true,q,false,true,0.0-2.0-0.0-0.4-3.4,0,0,0,81,false,stim,false,-1,1189.6000000238419,0,0,2,88713,task2,241452,false,false,196,image-keyboard-response,5
true,1,1,0,0,false,q,true,false,0.0-2.0-0.0-0.5-3.5,0,0,0,90,false,stim,false,-1,1098.3999999761581,0,0,1,88713,task2,244095,false,false,199,image-keyboard-response,6
true,1,2,0,0,false,q,true,false,0.0-2.0-0.0-0.6-3.6,0,0,0,68,false,stim,false,-1,1101.6000000238419,0,0,1,88713,task2,246738,false,false,202,image-keyboard-response,7
true,1,0,0,0,true,q,false,true,0.0-2.0-0.0-0.7-3.7,0,0,0,81,false,stim,false,-1,1358.3999999761581,0,0,2,88713,task2,249624,false,false,205,image-keyboard-response,8
true,1,0,0,0,true,q,false,true,0.0-2.0-0.0-0.8-3.8,0,0,0,81,false,stim,false,-1,837.6000000238419,0,0,2,88713,task2,252004,false,false,208,image-keyboard-response,9
true,1,0,0,0,true,q,false,false,0.0-2.0-0.1-0.9-3.9,0,0,0,81,false,stim,false,-1,1201.8000000715256,0,0,2,88713,task2,254741,false,true,211,image-keyboard-response,10
true,1,0,0,0,true,q,false,true,0.0-2.0-0.1-0.10-3.10,0,0,0,81,false,stim,false,-1,1692.6000000238419,0,0,1,88713,task2,257960,false,false,214,image-keyboard-response,11
true,1,1,0,2,false,d,true,false,0.0-2.0-0.1-0.11-3.11,0,0,0,90,false,stim,false,-1,1267.8999999761581,0,0,0,88713,task2,260770,false,false,217,image-keyboard-response,12
true,1,2,0,2,true,d,false,true,0.0-2.0-0.1-0.12-3.12,0,0,0,68,false,stim,false,-1,932.5,0,0,0,88713,task2,263246,false,false,220,image-keyboard-response,13
true,1,1,0,0,false,q,true,false,0.0-2.0-0.1-0.13-3.13,0,0,0,90,false,stim,false,-1,1139.7000000476837,0,0,1,88713,task2,265913,false,false,223,image-keyboard-response,14
true,1,2,0,0,false,q,true,false,0.0-2.0-0.1-0.14-3.14,0,0,0,68,false,stim,false,-1,986.1000000238419,0,0,2,88713,task2,268435,false,false,226,image-keyboard-response,15
true,1,2,0,2,true,d,false,true,0.0-2.0-0.1-0.15-3.15,0,0,0,68,false,stim,false,-1,1213.8999999761581,0,0,0,88713,task2,271180,false,false,229,image-keyboard-response,16
true,1,0,0,0,true,q,false,true,0.0-2.0-0.1-0.16-3.16,0,0,0,81,false,stim,false,-1,1578.7999999523163,0,0,2,88713,task2,274289,false,false,232,image-keyboard-response,17
true,1,1,0,0,false,q,true,false,0.0-2.0-0.1-0.17-3.17,0,0,0,90,false,stim,false,-1,991.0,0,0,1,88713,task2,276818,false,false,235,image-keyboard-response,18
true,1,2,0,0,false,q,true,false,0.0-2.0-0.2-0.18-3.18,0,0,0,68,false,stim,false,-1,890.0999999046326,0,0,1,88713,task2,279239,false,false,238,image-keyboard-response,19
true,1,1,0,0,false,q,true,false,0.0-2.0-0.2-0.19-3.19,0,0,0,90,false,stim,false,-1,1541.3000000715256,0,0,2,88713,task2,282321,false,false,241,image-keyboard-response,20
true,1,2,0,2,true,d,false,true,0.0-2.0-0.2-0.20-3.20,0,0,0,68,false,stim,false,-1,1042.1000000238419,0,0,0,88713,task2,284906,false,false,244,image-keyboard-response,21
true,1,2,0,2,true,d,false,true,0.0-2.0-0.2-0.21-3.21,0,0,0,68,false,stim,false,-1,939.0999999046326,0,0,0,88713,task2,287379,false,false,247,image-keyboard-response,22
true,1,0,0,0,true,q,false,true,0.0-2.0-0.2-0.22-3.22,0,0,0,81,false,stim,false,-1,1918.8999999761581,0,0,2,88713,task2,290846,false,false,250,image-keyboard-response,23
true,1,0,0,0,true,q,false,false,0.0-2.0-0.2-0.23-3.23,0,0,0,81,false,stim,false,-1,553.5,0,0,2,88713,task2,292926,false,true,253,image-keyboard-response,24
true,1,0,0,0,true,q,false,true,0.0-2.0-0.2-0.24-3.24,0,0,0,81,false,stim,false,-1,1345.3000000715256,0,0,1,88713,task2,295810,false,false,256,image-keyboard-response,25
true,1,2,0,2,true,d,false,true,0.0-2.0-0.2-0.25-3.25,0,0,0,68,false,stim,false,-1,1060.2000000476837,0,0,0,88713,task2,298409,false,false,259,image-keyboard-response,26
true,2,0,1,2,false,d,false,false,0.0-2.0-0.2-0.26-3.26,0,0,0,81,true,stim,true,0,1016.7999999523163,0,0,1,88713,task2,300961,false,false,262,image-keyboard-response,1
true,2,2,1,1,false,z,false,false,0.0-2.0-0.3-0.27-3.27,0,0,0,68,false,stim,true,2,978.8999999761581,0,0,0,88713,task2,303469,false,false,265,image-keyboard-response,2
true,2,0,1,2,false,d,false,false,0.0-2.0-0.3-0.28-3.28,0,0,0,81,false,stim,true,0,1516.0,0,0,2,88713,task2,306524,false,false,268,image-keyboard-response,3
true,2,1,1,1,true,z,false,true,0.0-2.0-0.3-0.29-3.29,0,0,0,90,false,stim,false,2,1080.0,0,0,0,88713,task2,309146,false,false,271,image-keyboard-response,4
true,2,1,1,1,true,z,false,true,0.0-2.0-0.3-0.30-3.30,0,0,0,90,false,stim,false,2,897.2000000476837,0,0,0,88713,task2,311573,false,false,274,image-keyboard-response,5
true,2,2,1,2,true,d,false,true,0.0-2.0-0.3-0.31-3.31,0,0,0,68,false,stim,false,0,1215.3000000715256,0,0,2,88713,task2,314320,false,false,277,image-keyboard-response,6
true,2,0,1,2,false,d,false,false,0.0-2.0-0.3-0.32-3.32,0,0,0,81,false,stim,true,0,1095.2999999523163,0,0,1,88713,task2,316949,false,false,280,image-keyboard-response,7
true,2,2,1,2,true,d,false,true,0.0-2.0-0.3-0.33-3.33,0,0,0,68,false,stim,false,0,1346.1000000238419,0,0,1,88713,task2,319822,false,false,283,image-keyboard-response,8
true,2,2,1,2,true,d,false,true,0.0-2.0-0.3-0.34-3.34,0,0,0,68,false,stim,false,0,804.4000000953674,0,0,1,88713,task2,322167,false,false,286,image-keyboard-response,9
true,2,2,1,2,true,d,false,true,0.0-2.0-0.3-0.35-3.35,0,0,0,68,false,stim,false,0,863.6000000238419,0,0,2,88713,task2,324567,false,false,289,image-keyboard-response,10
true,2,2,1,1,false,z,false,false,0.0-2.0-0.4-0.36-3.36,0,0,0,68,false,stim,true,2,697.6000000238419,0,0,0,88713,task2,326799,false,false,292,image-keyboard-response,11
true,2,1,1,1,true,z,false,true,0.0-2.0-0.4-0.37-3.37,0,0,0,90,false,stim,false,2,925.8999999761581,0,0,0,88713,task2,329256,false,false,295,image-keyboard-response,12
true,2,2,1,2,true,d,false,true,0.0-2.0-0.4-0.38-3.38,0,0,0,68,false,stim,false,0,1238.7000000476837,0,0,2,88713,task2,332033,false,false,298,image-keyboard-response,13
true,2,0,1,2,false,d,false,false,0.0-2.0-0.4-0.39-3.39,0,0,0,81,false,stim,true,0,1030.2999999523163,0,0,1,88713,task2,334619,false,false,301,image-keyboard-response,14
true,2,1,1,2,false,d,true,false,0.0-2.0-0.4-0.40-3.40,0,0,0,90,false,stim,false,0,917.7000000476837,0,0,1,88713,task2,337072,false,false,304,image-keyboard-response,15
true,2,2,1,2,true,d,false,true,0.0-2.0-0.4-0.41-3.41,0,0,0,68,false,stim,false,0,573.7999999523163,0,0,2,88713,task2,339172,false,false,307,image-keyboard-response,16
true,2,2,1,1,false,z,false,false,0.0-2.0-0.4-0.42-3.42,0,0,0,68,false,stim,true,2,619.2999999523163,0,0,0,88713,task2,341329,false,false,310,image-keyboard-response,17
true,2,1,1,2,false,d,true,true,0.0-2.0-0.4-0.43-3.43,0,0,0,90,false,stim,false,0,992.3999999761581,0,0,1,88713,task2,343868,false,true,313,image-keyboard-response,18
true,2,2,1,2,true,d,false,true,0.0-2.0-0.4-0.44-3.44,0,0,0,68,false,stim,false,0,1145.0999999046326,0,0,2,88713,task2,346535,false,false,316,image-keyboard-response,19
true,2,1,1,2,false,d,true,false,0.0-2.0-0.5-0.45-3.45,0,0,0,90,false,stim,false,0,1017.2000000476837,0,0,1,88713,task2,349083,false,false,319,image-keyboard-response,20
true,2,2,1,2,true,d,false,true,0.0-2.0-0.5-0.46-3.46,0,0,0,68,false,stim,false,0,946.5,0,0,2,88713,task2,351548,false,false,322,image-keyboard-response,21
true,2,1,1,1,true,z,false,true,0.0-2.0-0.5-0.47-3.47,0,0,0,90,false,stim,false,2,912.8000000715256,0,0,0,88713,task2,354005,false,false,325,image-keyboard-response,22
true,2,1,1,1,true,z,false,true,0.0-2.0-0.5-0.48-3.48,0,0,0,90,false,stim,false,2,879.2999999523163,0,0,0,88713,task2,356416,false,false,328,image-keyboard-response,23
true,2,2,1,2,true,d,false,true,0.0-2.0-0.5-0.49-3.49,0,0,0,68,false,stim,false,0,1116.7000000476837,0,0,1,88713,task2,359065,false,false,331,image-keyboard-response,24
true,2,2,1,2,true,d,false,false,0.0-2.0-0.5-0.50-3.50,0,0,0,68,false,stim,false,0,734.3999999761581,0,0,1,88713,task2,361327,false,true,334,image-keyboard-response,25
true,2,1,1,1,true,z,false,true,0.0-2.0-0.5-0.51-3.51,0,0,0,90,false,stim,false,2,1084.8999999761581,0,0,0,88713,task2,363942,false,false,337,image-keyboard-response,26
true,2,1,1,2,false,d,true,false,0.0-2.0-0.5-0.52-3.52,0,0,0,90,false,stim,false,0,822.3999999761581,0,0,2,88713,task2,366294,false,false,340,image-keyboard-response,27
true,2,2,1,2,true,d,false,true,0.0-2.0-0.5-0.53-3.53,0,0,0,68,false,stim,false,0,911.5,0,0,2,88713,task2,368741,false,false,343,image-keyboard-response,28
true,2,2,1,2,true,d,false,true,0.0-2.0-0.6-0.54-3.54,0,0,0,68,false,stim,false,0,577.7000000476837,0,0,1,88713,task2,370856,false,false,346,image-keyboard-response,29
true,2,2,1,2,true,d,false,true,0.0-2.0-0.6-0.55-3.55,0,0,0,68,false,stim,false,0,605.6000000238419,0,0,1,88713,task2,372998,false,false,349,image-keyboard-response,30
true,2,2,1,1,false,z,false,false,0.0-2.0-0.6-0.56-3.56,0,0,0,68,false,stim,true,2,606.4000000953674,0,0,0,88713,task2,375143,false,false,352,image-keyboard-response,31
true,2,0,1,1,false,z,true,false,0.0-2.0-0.6-0.57-3.57,0,0,0,81,false,stim,false,2,1121.1000000238419,0,0,0,88713,task2,377805,false,false,355,image-keyboard-response,32
true,2,1,1,1,true,z,false,false,0.0-2.0-0.6-0.58-3.58,0,0,0,90,false,stim,false,2,808.5,0,0,0,88713,task2,380141,false,true,358,image-keyboard-response,33
true,2,2,1,2,true,d,false,false,0.0-2.0-0.6-0.59-3.59,0,0,0,68,false,stim,false,0,586.3000000715256,0,0,2,88713,task2,382260,false,true,361,image-keyboard-response,34
true,2,1,1,2,false,d,true,false,0.0-2.0-0.6-0.60-3.60,0,0,0,90,false,stim,false,0,791.1000000238419,0,0,2,88713,task2,384581,false,false,364,image-keyboard-response,35
true,2,0,1,2,false,d,false,false,0.0-2.0-0.6-0.61-3.61,0,0,0,81,false,stim,true,0,710.7999999523163,0,0,2,88713,task2,386832,false,false,367,image-keyboard-response,36
true,3,2,1,0,false,q,false,false,0.0-2.0-0.6-0.62-3.62,0,0,0,68,true,stim,true,2,1106.6999999284744,0,0,1,88713,task2,389473,false,false,370,image-keyboard-response,1
true,3,0,1,2,false,d,true,false,0.0-2.0-0.7-0.63-3.63,0,0,0,81,false,stim,false,1,1239.8000000715256,0,0,0,88713,task2,392251,false,false,373,image-keyboard-response,2
true,3,0,1,0,true,q,false,true,0.0-2.0-0.7-0.64-3.64,0,0,0,81,false,stim,false,2,1016.8999999761581,0,0,1,88713,task2,394810,false,false,376,image-keyboard-response,3
true,3,1,1,1,true,z,false,true,0.0-2.0-0.7-0.65-3.65,0,0,0,90,false,stim,false,2,1123.1000000238419,0,0,2,88713,task2,397460,false,false,379,image-keyboard-response,4
true,3,0,1,0,true,q,false,true,0.0-2.0-0.7-0.66-3.66,0,0,0,81,false,stim,false,2,1093.3999999761581,0,0,1,88713,task2,400092,false,false,382,image-keyboard-response,5
true,3,2,1,2,true,d,false,true,0.0-2.0-0.7-0.67-3.67,0,0,0,68,false,stim,false,1,1004.3999999761581,0,0,0,88713,task2,402634,false,false,385,image-keyboard-response,6
true,3,1,1,1,true,z,false,true,0.0-2.0-0.7-0.68-3.68,0,0,0,90,false,stim,false,2,1238.1000000238419,0,0,2,88713,task2,405396,false,false,388,image-keyboard-response,7
true,3,2,1,2,true,d,false,true,0.0-2.0-0.7-0.69-3.69,0,0,0,68,false,stim,false,1,1031.1999999284744,0,0,0,88713,task2,407969,false,false,391,image-keyboard-response,8
true,3,0,1,1,false,z,true,false,0.0-2.0-0.7-0.70-3.70,0,0,0,81,false,stim,false,2,1544.8999999761581,0,0,2,88713,task2,411046,false,false,394,image-keyboard-response,9
true,3,2,1,0,false,q,false,false,0.0-2.0-0.7-0.71-3.71,0,0,0,68,false,stim,true,2,800.8999999761581,0,0,1,88713,task2,413390,false,false,397,image-keyboard-response,10
true,3,2,1,1,false,z,false,false,0.0-2.0-0.8-0.72-3.72,0,0,0,68,false,stim,true,2,1351.6000000238419,0,0,2,88713,task2,416278,false,false,400,image-keyboard-response,11
true,3,1,1,1,true,z,false,true,0.0-2.0-0.8-0.73-3.73,0,0,0,90,false,stim,false,2,1474.2999999523163,0,0,2,88713,task2,419304,false,false,403,image-keyboard-response,12
true,3,2,1,0,false,q,false,false,0.0-2.0-0.8-0.74-3.74,0,0,0,68,false,stim,true,2,1173.2999999523163,0,0,1,88713,task2,422013,false,false,406,image-keyboard-response,13
true,3,0,1,0,true,q,false,true,0.0-2.0-0.8-0.75-3.75,0,0,0,81,false,stim,false,2,835.8000000715256,0,0,1,88713,task2,424388,false,false,409,image-keyboard-response,14
true,3,2,1,2,true,d,false,true,0.0-2.0-0.8-0.76-3.76,0,0,0,68,false,stim,false,1,912.9000000953674,0,0,0,88713,task2,426831,false,false,412,image-keyboard-response,15
true,3,2,1,2,true,d,false,true,0.0-2.0-0.8-0.77-3.77,0,0,0,68,false,stim,false,1,735.5999999046326,0,0,0,88713,task2,429097,false,false,415,image-keyboard-response,16
true,3,1,1,0,false,q,true,false,0.0-2.0-0.8-0.78-3.78,0,0,0,90,false,stim,false,2,1261.8000000715256,0,0,1,88713,task2,431886,false,false,418,image-keyboard-response,17
true,3,2,1,2,true,d,false,false,0.0-2.0-0.8-0.79-3.79,0,0,0,68,false,stim,false,1,890.8999999761581,0,0,0,88713,task2,434310,false,true,421,image-keyboard-response,18
true,3,1,1,1,true,z,false,true,0.0-2.0-0.8-0.80-3.80,0,0,0,90,false,stim,false,2,1733.8000000715256,0,0,2,88713,task2,437582,false,false,424,image-keyboard-response,19
true,3,1,1,1,true,z,false,true,0.0-2.0-0.9-0.81-3.81,0,0,0,90,false,stim,false,2,616.7000000476837,0,0,2,88713,task2,439728,false,false,427,image-keyboard-response,20
true,3,2,1,0,false,q,false,false,0.0-2.0-0.9-0.82-3.82,0,0,0,68,false,stim,true,2,1163.7999999523163,0,0,1,88713,task2,442421,false,false,430,image-keyboard-response,21
true,3,2,1,2,true,d,false,true,0.0-2.0-0.9-0.83-3.83,0,0,0,68,false,stim,false,1,1886.8999999761581,0,0,0,88713,task2,445843,false,false,433,image-keyboard-response,22
true,3,0,1,0,true,q,false,true,0.0-2.0-0.9-0.84-3.84,0,0,0,81,false,stim,false,2,1279.2000000476837,0,0,1,88713,task2,448660,false,false,436,image-keyboard-response,23
true,3,1,1,1,true,z,false,true,0.0-2.0-0.9-0.85-3.85,0,0,0,90,false,stim,false,2,1248.6000000238419,0,0,2,88713,task2,451439,false,false,439,image-keyboard-response,24
true,3,2,1,2,true,d,false,true,0.0-2.0-0.9-0.86-3.86,0,0,0,68,false,stim,false,1,1085.1000000238419,0,0,0,88713,task2,454058,false,false,442,image-keyboard-response,25
true,3,1,1,1,true,z,false,true,0.0-2.0-0.9-0.87-3.87,0,0,0,90,false,stim,false,2,975.2000000476837,0,0,2,88713,task2,456559,false,false,445,image-keyboard-response,26
true,3,0,1,0,true,q,false,true,0.0-2.0-0.9-0.88-3.88,0,0,0,81,false,stim,false,2,1016.1000000238419,0,0,1,88713,task2,459116,false,false,448,image-keyboard-response,27
true,3,2,1,2,true,d,false,true,0.0-2.0-0.9-0.89-3.89,0,0,0,68,false,stim,false,1,1290.6000000238419,0,0,0,88713,task2,461936,false,false,451,image-keyboard-response,28
true,3,1,1,0,false,q,true,false,0.0-2.0-0.10-0.90-3.90,0,0,0,90,false,stim,false,2,846.8999999761581,0,0,1,88713,task2,464322,false,false,454,image-keyboard-response,29
true,3,0,1,2,false,d,true,false,0.0-2.0-0.10-0.91-3.91,0,0,0,81,false,stim,false,1,2170.399999976158,0,0,0,88713,task2,468022,false,false,457,image-keyboard-response,30
true,3,2,1,2,true,d,false,true,0.0-2.0-0.10-0.92-3.92,0,0,0,68,false,stim,false,1,961.0,0,0,0,88713,task2,470528,false,false,460,image-keyboard-response,31
true,3,1,1,0,false,q,true,false,0.0-2.0-0.10-0.93-3.93,0,0,0,90,false,stim,false,2,1525.0,0,0,1,88713,task2,473568,false,false,463,image-keyboard-response,32
true,3,0,1,0,true,q,false,true,0.0-2.0-0.10-0.94-3.94,0,0,0,81,false,stim,false,2,945.5,0,1,1,88713,task2,476052,false,false,466,image-keyboard-response,33
true,3,1,1,1,true,z,false,true,0.0-2.0-0.10-0.95-3.95,0,0,0,90,false,stim,false,2,1864.2999999523163,0,0,2,88713,task2,479458,false,false,469,image-keyboard-response,34
true,3,1,1,1,true,z,false,true,0.0-2.0-0.10-0.96-3.96,0,0,0,90,false,stim,false,2,714.1000000238419,0,0,2,88713,task2,481715,false,false,472,image-keyboard-response,35
true,3,1,1,1,true,z,false,true,0.0-2.0-0.10-0.97-3.97,0,0,0,90,false,stim,false,2,572.3000000715256,0,0,2,88713,task2,483821,false,false,475,image-keyboard-response,36
true,3,2,1,2,true,d,false,true,0.0-2.0-0.10-0.98-3.98,0,0,0,68,false,stim,false,1,1021.0,0,0,0,88713,task2,486381,false,false,478,image-keyboard-response,37
true,4,2,2,1,false,z,false,false,0.0-2.0-0.11-0.99-3.99,0,1,0,68,true,stim,true,2,570.6000000238419,0,0,0,88713,task2,488493,false,false,481,image-keyboard-response,1
true,4,1,2,2,false,d,false,false,0.0-2.0-0.11-0.100-3.100,0,1,0,90,false,stim,true,1,1115.0,0,0,2,88713,task2,491137,false,false,484,image-keyboard-response,2
true,4,0,2,2,false,d,true,false,0.0-2.0-0.11-0.101-3.101,0,1,0,81,false,stim,false,1,1589.6999999284744,0,0,2,88713,task2,494256,false,false,487,image-keyboard-response,3
true,4,1,2,0,false,q,true,false,0.0-2.0-0.11-0.102-3.102,0,1,0,90,false,stim,false,0,899.8000000715256,0,1,1,88713,task2,496694,false,false,490,image-keyboard-response,4
true,4,2,2,1,false,z,false,false,0.0-2.0-0.11-0.103-3.103,0,1,0,68,false,stim,true,2,1929.6999999284744,0,0,0,88713,task2,500154,false,false,493,image-keyboard-response,5
true,4,2,2,0,false,q,true,false,0.0-2.0-0.11-0.104-3.104,0,1,0,68,false,stim,false,0,1604.5,0,1,1,88713,task2,503288,false,false,496,image-keyboard-response,6
true,4,0,2,0,true,q,false,true,0.0-2.0-0.11-0.105-3.105,0,1,0,81,false,stim,false,0,985.2000000476837,0,1,1,88713,task2,505816,false,false,499,image-keyboard-response,7
true,4,1,2,2,false,d,false,false,0.0-2.0-0.11-0.106-3.106,0,1,0,90,false,stim,true,1,1484.8000000715256,0,0,2,88713,task2,508865,false,false,502,image-keyboard-response,8
true,4,0,2,1,false,z,true,false,0.0-2.0-0.11-0.107-3.107,0,1,0,81,false,stim,false,2,1269.7999999523163,0,0,0,88713,task2,511677,false,false,505,image-keyboard-response,9
true,4,2,2,1,false,z,false,false,0.0-2.0-0.12-0.108-3.108,0,1,0,68,false,stim,true,2,1030.7000000476837,0,0,0,88713,task2,514247,false,false,508,image-keyboard-response,10
true,4,2,2,2,true,d,false,true,0.0-2.0-0.12-0.109-3.109,0,1,0,68,false,stim,false,1,1100.9000000953674,0,0,2,88713,task2,516873,false,false,511,image-keyboard-response,11
true,4,0,2,0,true,q,false,true,0.0-2.0-0.12-0.110-3.110,0,1,0,81,false,stim,false,0,1557.2999999523163,0,1,1,88713,task2,519968,false,false,514,image-keyboard-response,12
true,4,0,2,0,true,q,false,true,0.0-2.0-0.12-0.111-3.111,0,1,0,81,false,stim,false,0,1222.8999999761581,0,1,1,88713,task2,522722,false,false,517,image-keyboard-response,13
true,4,1,2,1,true,z,false,true,0.0-2.0-0.12-0.112-3.112,0,1,0,90,false,stim,false,2,1362.1000000238419,0,0,0,88713,task2,525630,false,false,520,image-keyboard-response,14
true,4,0,2,0,true,q,false,true,0.0-2.0-0.12-0.113-3.113,0,1,0,81,false,stim,false,0,1858.1000000238419,0,1,1,88713,task2,529019,false,false,523,image-keyboard-response,15
true,4,1,2,1,true,z,false,true,0.0-2.0-0.12-0.114-3.114,0,1,0,90,false,stim,false,2,903.3000000715256,0,0,0,88713,task2,531461,false,false,526,image-keyboard-response,16
true,4,0,2,2,false,d,true,false,0.0-2.0-0.12-0.115-3.115,0,1,0,81,false,stim,false,1,1078.0,0,0,2,88713,task2,534086,false,false,529,image-keyboard-response,17
true,4,2,2,2,true,d,false,true,0.0-2.0-0.12-0.116-3.116,0,1,0,68,false,stim,false,1,981.2000000476837,0,0,2,88713,task2,536601,false,false,532,image-keyboard-response,18
true,4,1,2,0,false,q,true,true,0.0-2.0-0.13-0.117-3.117,0,1,0,90,false,stim,false,0,946.5,0,1,1,88713,task2,539081,false,true,535,image-keyboard-response,19
true,4,2,2,2,true,d,false,false,0.0-2.0-0.13-0.118-3.118,0,1,0,68,false,stim,false,1,951.7999999523163,0,0,2,88713,task2,541586,false,true,538,image-keyboard-response,20
true,4,1,2,0,false,q,true,false,0.0-2.0-0.13-0.119-3.119,0,1,0,90,false,stim,false,0,887.0,0,1,1,88713,task2,543996,false,false,541,image-keyboard-response,21
true,4,2,2,0,false,q,true,false,0.0-2.0-0.13-0.120-3.120,0,1,0,68,false,stim,false,0,1287.2999999523163,0,1,1,88713,task2,546828,false,false,544,image-keyboard-response,22
true,4,2,2,2,true,d,false,true,0.0-2.0-0.13-0.121-3.121,0,1,0,68,false,stim,false,1,1087.6000000238419,0,0,2,88713,task2,549458,false,false,547,image-keyboard-response,23
true,4,2,2,2,true,d,false,true,0.0-2.0-0.13-0.122-3.122,0,1,0,68,false,stim,false,1,771.2999999523163,0,0,2,88713,task2,551769,false,false,550,image-keyboard-response,24
true,4,1,2,1,true,z,false,true,0.0-2.0-0.13-0.123-3.123,0,1,0,90,false,stim,false,2,1083.1999999284744,0,0,0,88713,task2,554393,false,false,553,image-keyboard-response,25
true,4,1,2,1,true,z,false,true,0.0-2.0-0.13-0.124-3.124,0,1,0,90,false,stim,false,2,613.1999999284744,0,0,0,88713,task2,556536,false,false,556,image-keyboard-response,26
true,4,1,2,1,true,z,false,true,0.0-2.0-0.13-0.125-3.125,0,1,0,90,false,stim,false,2,905.0,0,0,0,88713,task2,558990,false,false,559,image-keyboard-response,27
true,4,0,2,2,false,d,true,false,0.0-2.0-0.14-0.126-3.126,0,1,0,81,false,stim,false,1,981.7000000476837,0,0,2,88713,task2,561516,false,false,562,image-keyboard-response,28
true,4,2,2,2,true,d,false,true,0.0-2.0-0.14-0.127-3.127,0,1,0,68,false,stim,false,1,1111.8999999761581,0,0,2,88713,task2,564158,false,false,565,image-keyboard-response,29
true,4,1,2,0,false,q,true,true,0.0-2.0-0.14-0.128-3.128,0,1,0,90,false,stim,false,0,1053.2999999523163,0,0,1,88713,task2,566743,false,true,568,image-keyboard-response,30
true,4,2,2,2,true,d,false,true,0.0-2.0-0.14-0.129-3.129,0,1,0,68,false,stim,false,1,1451.6999999284744,0,0,2,88713,task2,569737,false,false,571,image-keyboard-response,31
true,4,1,2,0,false,q,true,false,0.0-2.0-0.14-0.130-3.130,0,1,0,90,false,stim,false,0,1042.2000000476837,0,0,1,88713,task2,572310,false,false,574,image-keyboard-response,32
true,4,0,2,0,true,q,false,true,0.0-2.0-0.14-0.131-3.131,0,1,0,81,false,stim,false,0,1012.3999999761581,0,0,1,88713,task2,574856,false,false,577,image-keyboard-response,33
true,4,2,2,1,false,z,false,false,0.0-2.0-0.14-0.132-3.132,0,1,0,68,false,stim,true,2,1350.6999999284744,0,0,0,88713,task2,577742,false,false,580,image-keyboard-response,34
true,5,1,1,0,false,q,false,false,0.0-2.0-0.14-0.133-3.133,0,0,0,90,true,stim,true,1,898.8999999761581,0,0,0,88713,task2,580169,false,false,583,image-keyboard-response,1
true,5,0,1,0,true,q,false,true,0.0-2.0-0.14-0.134-3.134,0,0,0,81,false,stim,false,1,566.6000000238419,0,0,0,88713,task2,582282,false,false,586,image-keyboard-response,2
true,5,2,1,2,true,d,false,false,0.0-2.0-0.15-0.135-3.135,0,0,0,68,false,stim,false,0,1316.7000000476837,0,0,1,88713,task2,585130,false,true,589,image-keyboard-response,3
true,5,1,1,1,true,z,false,true,0.0-2.0-0.15-0.136-3.136,0,0,0,90,false,stim,false,2,958.3000000715256,0,0,2,88713,task2,587617,false,false,592,image-keyboard-response,4
true,5,0,1,2,false,d,false,false,0.0-2.0-0.15-0.137-3.137,0,0,0,81,false,stim,true,0,1100.7000000476837,0,0,1,88713,task2,590256,false,false,595,image-keyboard-response,5
true,5,1,1,1,true,z,false,true,0.0-2.0-0.15-0.138-3.138,0,0,0,90,false,stim,false,2,1067.5999999046326,0,0,2,88713,task2,592850,false,false,598,image-keyboard-response,6
true,5,1,1,1,true,z,false,true,0.0-2.0-0.15-0.139-3.139,0,0,0,90,false,stim,false,2,580.7999999523163,0,0,2,88713,task2,594997,false,false,601,image-keyboard-response,7
true,5,2,1,0,false,q,true,false,0.0-2.0-0.15-0.140-3.140,0,0,0,68,false,stim,false,1,1142.0999999046326,0,0,0,88713,task2,597675,false,false,604,image-keyboard-response,8
true,5,1,1,2,false,d,true,false,0.0-2.0-0.15-0.141-3.141,0,0,0,90,false,stim,false,0,1133.6000000238419,0,0,1,88713,task2,600344,false,false,607,image-keyboard-response,9
true,5,1,1,0,false,q,false,false,0.0-2.0-0.15-0.142-3.142,0,0,0,90,false,stim,true,1,2257.399999976158,0,0,0,88713,task2,604130,false,false,610,image-keyboard-response,10
true,5,0,1,0,true,q,false,true,0.0-2.0-0.15-0.143-3.143,0,0,0,81,false,stim,false,1,960.2000000476837,0,0,0,88713,task2,606630,false,false,613,image-keyboard-response,11
true,5,1,1,1,true,z,false,true,0.0-2.0-0.16-0.144-3.144,0,0,0,90,false,stim,false,2,1122.8999999761581,0,0,2,88713,task2,609286,false,false,616,image-keyboard-response,12
true,5,2,1,2,true,d,false,true,0.0-2.0-0.16-0.145-3.145,0,0,0,68,false,stim,false,0,1116.3000000715256,0,0,1,88713,task2,611943,false,false,619,image-keyboard-response,13
true,5,2,1,2,true,d,false,true,0.0-2.0-0.16-0.146-3.146,0,0,0,68,false,stim,false,0,784.0999999046326,0,0,1,88713,task2,614254,false,false,622,image-keyboard-response,14
true,5,1,1,0,false,q,false,false,0.0-2.0-0.16-0.147-3.147,0,0,0,90,false,stim,true,1,1206.1000000238419,0,0,0,88713,task2,616990,false,false,625,image-keyboard-response,15
true,5,2,1,2,true,d,false,false,0.0-2.0-0.16-0.148-3.148,0,0,0,68,false,stim,false,0,1058.8999999761581,0,0,1,88713,task2,619589,false,true,628,image-keyboard-response,16
true,5,1,1,1,true,z,false,false,0.0-2.0-0.16-0.149-3.149,0,0,0,90,false,stim,false,2,1000.6000000238419,0,0,2,88713,task2,622129,false,true,631,image-keyboard-response,17
true,5,2,1,0,false,q,true,false,0.0-2.0-0.16-0.150-3.150,0,0,0,68,false,stim,false,1,979.0999999046326,0,0,0,88713,task2,624634,false,false,634,image-keyboard-response,18
true,5,1,1,1,true,z,false,true,0.0-2.0-0.16-0.151-3.151,0,0,0,90,false,stim,false,2,1352.1999999284744,0,0,2,88713,task2,627520,false,false,637,image-keyboard-response,19
true,5,0,1,0,true,q,false,true,0.0-2.0-0.16-0.152-3.152,0,0,0,81,false,stim,false,1,1443.6999999284744,0,0,0,88713,task2,630509,false,false,640,image-keyboard-response,20
true,5,1,1,2,false,d,true,false,0.0-2.0-0.17-0.153-3.153,0,0,0,90,false,stim,false,0,1388.8999999761581,0,0,1,88713,task2,633431,false,false,643,image-keyboard-response,21
true,5,1,1,1,true,z,false,true,0.0-2.0-0.17-0.154-3.154,0,0,0,90,false,stim,false,2,1136.8999999761581,0,0,2,88713,task2,636109,false,false,646,image-keyboard-response,22
true,5,1,1,1,true,z,false,true,0.0-2.0-0.17-0.155-3.155,0,0,0,90,false,stim,false,2,741.5,0,0,2,88713,task2,638391,false,false,649,image-keyboard-response,23
true,5,0,1,0,true,q,false,true,0.0-2.0-0.17-0.156-3.156,0,0,0,81,false,stim,false,1,1141.1999999284744,0,0,0,88713,task2,641071,false,false,652,image-keyboard-response,24
true,5,0,1,0,true,q,false,true,0.0-2.0-0.17-0.157-3.157,0,0,0,81,false,stim,false,1,587.0,0,0,0,88713,task2,643196,false,false,655,image-keyboard-response,25
true,5,1,1,2,false,d,true,false,0.0-2.0-0.17-0.158-3.158,0,0,0,90,false,stim,false,0,1070.8999999761581,0,0,1,88713,task2,645796,false,false,658,image-keyboard-response,26
true,5,0,1,0,true,q,false,true,0.0-2.0-0.17-0.159-3.159,0,0,0,81,false,stim,false,1,955.5,0,0,0,88713,task2,648291,false,false,661,image-keyboard-response,27
true,5,2,1,2,true,d,false,true,0.0-2.0-0.17-0.160-3.160,0,0,0,68,false,stim,false,0,999.6000000238419,0,0,1,88713,task2,650829,false,false,664,image-keyboard-response,28
true,5,1,1,1,true,z,false,true,0.0-2.0-0.17-0.161-3.161,0,0,0,90,false,stim,false,2,1056.8000000715256,0,0,2,88713,task2,653418,false,false,667,image-keyboard-response,29
true,5,0,1,0,true,q,false,true,0.0-2.0-0.18-0.162-3.162,0,0,0,81,false,stim,false,1,1000.8999999761581,0,0,0,88713,task2,655958,false,false,670,image-keyboard-response,30
true,5,0,1,0,true,q,false,true,0.0-2.0-0.18-0.163-3.163,0,0,0,81,false,stim,false,1,1014.5,0,0,0,88713,task2,658502,false,false,673,image-keyboard-response,31
true,5,1,1,1,true,z,false,true,0.0-2.0-0.18-0.164-3.164,0,0,0,90,false,stim,false,2,931.3999999761581,0,0,2,88713,task2,660964,false,false,676,image-keyboard-response,32
true,5,2,1,2,true,d,false,true,0.0-2.0-0.18-0.165-3.165,0,0,0,68,false,stim,false,0,995.3000000715256,0,0,1,88713,task2,663488,false,false,679,image-keyboard-response,33
true,5,1,1,1,true,z,false,true,0.0-2.0-0.18-0.166-3.166,0,0,0,90,false,stim,false,2,958.8999999761581,0,0,2,88713,task2,665986,false,false,682,image-keyboard-response,34
true,5,2,1,2,true,d,false,false,0.0-2.0-0.18-0.167-3.167,0,0,0,68,false,stim,false,0,931.1000000238419,0,0,1,88713,task2,668452,false,true,685,image-keyboard-response,35
true,5,1,1,1,true,z,false,false,0.0-2.0-0.18-0.168-3.168,0,0,0,90,false,stim,false,2,1195.0,0,0,2,88713,task2,671178,false,true,688,image-keyboard-response,36
true,5,0,1,2,false,d,false,true,0.0-2.0-0.18-0.169-3.169,0,0,0,81,false,stim,true,0,1905.7000000476837,0,0,1,88713,task2,674617,false,true,691,image-keyboard-response,37
true,6,1,1,2,false,d,true,false,0.0-2.0-0.18-0.170-3.170,0,0,0,90,true,stim,false,0,1388.8999999761581,0,0,0,88713,task2,677555,false,false,694,image-keyboard-response,1
true,6,2,1,2,true,d,false,true,0.0-2.0-0.19-0.171-3.171,0,0,0,68,false,stim,false,0,1005.7999999523163,0,0,0,88713,task2,680109,false,false,697,image-keyboard-response,2
true,6,0,1,2,false,d,true,false,0.0-2.0-0.19-0.172-3.172,0,0,0,81,false,stim,false,1,1144.5,0,0,2,88713,task2,682792,false,false,700,image-keyboard-response,3
true,6,0,1,1,false,z,true,false,0.0-2.0-0.19-0.173-3.173,0,0,0,81,false,stim,false,2,1985.0,0,0,1,88713,task2,686345,false,false,703,image-keyboard-response,4
true,6,0,1,2,false,d,true,false,0.0-2.0-0.19-0.174-3.174,0,0,0,81,false,stim,false,1,1400.0,0,0,2,88713,task2,689292,false,false,706,image-keyboard-response,5
true,6,1,1,2,false,d,false,false,0.0-2.0-0.19-0.175-3.175,0,0,0,90,false,stim,true,1,975.8999999761581,0,0,2,88713,task2,691809,false,false,709,image-keyboard-response,6
true,6,1,1,2,false,d,true,false,0.0-2.0-0.19-0.176-3.176,0,0,0,90,false,stim,false,0,2029.0,0,0,0,88713,task2,695379,false,false,712,image-keyboard-response,7
true,6,1,1,1,true,z,false,false,0.0-2.0-0.19-0.177-3.177,0,0,0,90,false,stim,false,2,1968.2000000476837,0,0,1,88713,task2,698875,false,true,715,image-keyboard-response,8
true,6,2,1,1,false,z,false,false,0.0-2.0-0.19-0.178-3.178,0,0,0,68,false,stim,true,2,701.1000000238419,0,0,1,88713,task2,701107,false,false,718,image-keyboard-response,9
true,6,2,1,2,true,d,false,true,0.0-2.0-0.19-0.179-3.179,0,0,0,68,false,stim,false,0,757.2999999523163,0,0,0,88713,task2,703405,false,false,721,image-keyboard-response,10
true,6,0,1,1,false,z,true,false,0.0-2.0-0.20-0.180-3.180,0,0,0,81,false,stim,false,2,2063.600000023842,0,0,1,88713,task2,707008,false,false,724,image-keyboard-response,11
true,6,1,1,2,false,d,false,false,0.0-2.0-0.20-0.181-3.181,0,0,0,90,false,stim,true,1,1666.2999999523163,0,0,2,88713,task2,710208,false,false,727,image-keyboard-response,12
true,6,2,1,2,true,d,false,true,0.0-2.0-0.20-0.182-3.182,0,0,0,68,false,stim,false,1,651.8000000715256,0,0,2,88713,task2,712404,false,false,730,image-keyboard-response,13
true,6,2,1,2,true,d,false,true,0.0-2.0-0.20-0.183-3.183,0,0,0,68,false,stim,false,1,541.3999999761581,0,0,2,88713,task2,714488,false,false,733,image-keyboard-response,14
true,6,2,1,1,false,z,false,false,0.0-2.0-0.20-0.184-3.184,0,0,0,68,false,stim,true,2,669.6999999284744,0,0,1,88713,task2,716696,false,false,736,image-keyboard-response,15
true,6,2,1,2,true,d,false,true,0.0-2.0-0.20-0.185-3.185,0,0,0,68,false,stim,false,0,1820.2999999523163,0,0,0,88713,task2,720045,false,false,739,image-keyboard-response,16
true,6,2,1,2,true,d,false,false,0.0-2.0-0.20-0.186-3.186,0,0,0,68,false,stim,false,0,599.5,0,0,0,88713,task2,722188,false,true,742,image-keyboard-response,17
true,6,0,1,2,false,d,false,false,0.0-2.0-0.20-0.187-3.187,0,0,0,81,false,stim,true,0,1445.8000000715256,0,0,0,88713,task2,725162,false,false,745,image-keyboard-response,18
true,6,0,1,1,false,z,true,true,0.0-2.0-0.20-0.188-3.188,0,0,0,81,false,stim,false,2,1262.3999999761581,0,0,1,88713,task2,727955,false,true,748,image-keyboard-response,19
true,6,0,1,1,false,z,true,false,0.0-2.0-0.21-0.189-3.189,0,0,0,81,false,stim,false,2,592.0,0,0,1,88713,task2,730084,false,false,751,image-keyboard-response,20
true,6,1,1,1,true,z,false,true,0.0-2.0-0.21-0.190-3.190,0,0,0,90,false,stim,false,2,1063.0,0,0,1,88713,task2,732682,false,false,754,image-keyboard-response,21
true,6,1,1,2,false,d,false,false,0.0-2.0-0.21-0.191-3.191,0,0,0,90,false,stim,true,1,1705.5,0,0,2,88713,task2,735935,false,false,757,image-keyboard-response,22
true,6,2,1,2,true,d,false,true,0.0-2.0-0.21-0.192-3.192,0,0,0,68,false,stim,false,1,1105.8999999761581,0,0,2,88713,task2,738586,false,false,760,image-keyboard-response,23
true,6,1,1,1,true,z,false,true,0.0-2.0-0.21-0.193-3.193,0,0,0,90,false,stim,false,2,1042.6999999284744,0,0,1,88713,task2,741166,false,false,763,image-keyboard-response,24
true,6,0,1,2,false,d,false,false,0.0-2.0-0.21-0.194-3.194,0,0,0,81,false,stim,true,0,1370.0,0,0,0,88713,task2,744072,false,false,766,image-keyboard-response,25
true,6,1,1,2,false,d,true,true,0.0-2.0-0.21-0.195-3.195,0,0,0,90,false,stim,false,0,973.0,0,0,0,88713,task2,746587,false,true,769,image-keyboard-response,26
true,6,1,1,2,false,d,false,false,0.0-2.0-0.21-0.196-3.196,0,0,0,90,false,stim,true,1,1166.0,0,0,2,88713,task2,749280,false,false,772,image-keyboard-response,27
true,6,1,1,2,false,d,true,false,0.0-2.0-0.21-0.197-3.197,0,0,0,90,false,stim,false,0,1046.7999999523163,0,0,0,88713,task2,751866,false,false,775,image-keyboard-response,28
true,6,1,1,1,true,z,false,true,0.0-2.0-0.22-0.198-3.198,0,0,0,90,false,stim,false,2,1314.5,0,0,1,88713,task2,754718,false,false,778,image-keyboard-response,29
true,6,2,1,2,true,d,false,true,0.0-2.0-0.22-0.199-3.199,0,0,0,68,false,stim,false,1,1068.0,0,0,2,88713,task2,757315,false,false,781,image-keyboard-response,30
true,6,1,1,2,false,d,true,false,0.0-2.0-0.22-0.200-3.200,0,0,0,90,false,stim,false,0,924.2000000476837,0,0,0,88713,task2,759767,false,false,784,image-keyboard-response,31
true,6,2,1,2,true,d,false,true,0.0-2.0-0.22-0.201-3.201,0,0,0,68,false,stim,false,0,839.8999999761581,0,0,0,88713,task2,762148,false,false,787,image-keyboard-response,32
true,6,0,1,1,false,z,true,false,0.0-2.0-0.22-0.202-3.202,0,0,0,81,false,stim,false,2,1440.7000000476837,0,0,1,88713,task2,765127,false,false,790,image-keyboard-response,33
true,6,2,1,2,true,d,false,true,0.0-2.0-0.22-0.203-3.203,0,0,0,68,false,stim,false,0,1563.5999999046326,0,0,0,88713,task2,768232,false,false,793,image-keyboard-response,34
true,6,1,1,2,false,d,false,false,0.0-2.0-0.22-0.204-3.204,0,0,0,90,false,stim,true,1,1185.8000000715256,0,0,2,88713,task2,770964,false,false,796,image-keyboard-response,35
true,7,2,1,1,false,z,false,false,0.0-2.0-0.22-0.205-3.205,0,0,0,68,true,stim,true,2,725.4000000953674,0,0,2,88713,task2,773230,false,false,799,image-keyboard-response,1
true,7,0,1,0,true,q,false,true,0.0-2.0-0.22-0.206-3.206,0,0,0,81,false,stim,false,1,2052.600000023842,0,0,1,88713,task2,776864,false,false,802,image-keyboard-response,2
true,7,0,1,0,true,q,false,true,0.0-2.0-0.23-0.207-3.207,0,0,0,81,false,stim,false,1,619.2999999523163,0,0,1,88713,task2,779018,false,false,805,image-keyboard-response,3
true,7,1,1,1,true,z,false,true,0.0-2.0-0.23-0.208-3.208,0,0,0,90,false,stim,false,2,1124.2999999523163,0,0,2,88713,task2,781683,false,false,808,image-keyboard-response,4
true,7,1,1,1,true,z,false,true,0.0-2.0-0.23-0.209-3.209,0,0,0,90,false,stim,false,2,601.6999999284744,0,0,2,88713,task2,783808,false,false,811,image-keyboard-response,5
true,7,1,1,0,false,q,false,false,0.0-2.0-0.23-0.210-3.210,0,0,0,90,false,stim,true,1,1236.1000000238419,0,0,1,88713,task2,786570,false,false,814,image-keyboard-response,6
true,7,0,1,0,true,q,false,true,0.0-2.0-0.23-0.211-3.211,0,0,0,81,false,stim,false,2,1935.2000000476837,0,0,0,88713,task2,790052,false,false,817,image-keyboard-response,7
true,7,1,1,1,true,z,false,false,0.0-2.0-0.23-0.212-3.212,0,0,0,90,false,stim,false,2,1003.6000000238419,0,0,2,88713,task2,792601,false,true,820,image-keyboard-response,8
true,7,1,1,0,false,q,false,false,0.0-2.0-0.23-0.213-3.213,0,0,0,90,false,stim,true,1,1997.0,0,0,1,88713,task2,796135,false,false,823,image-keyboard-response,9
true,7,1,1,0,false,q,true,false,0.0-2.0-0.23-0.214-3.214,0,0,0,90,false,stim,false,2,1303.0,0,0,0,88713,task2,798980,false,false,826,image-keyboard-response,10
true,7,2,1,0,false,q,false,true,0.0-2.0-0.23-0.215-3.215,0,0,0,68,false,stim,true,2,803.0,0,0,0,88713,task2,801311,false,true,829,image-keyboard-response,11
true,7,1,1,1,true,z,false,true,0.0-2.0-0.24-0.216-3.216,0,0,0,90,false,stim,false,2,1317.2999999523163,0,0,2,88713,task2,804159,false,false,832,image-keyboard-response,12
true,7,2,1,0,false,q,false,false,0.0-2.0-0.24-0.217-3.217,0,0,0,68,false,stim,true,2,1327.2000000476837,0,0,0,88713,task2,807036,false,false,835,image-keyboard-response,13
true,7,2,1,0,false,q,true,false,0.0-2.0-0.24-0.218-3.218,0,0,0,68,false,stim,false,1,1009.2999999523163,0,0,1,88713,task2,809575,false,false,838,image-keyboard-response,14
true,7,1,1,1,true,z,false,true,0.0-2.0-0.24-0.219-3.219,0,0,0,90,false,stim,false,2,1558.3999999761581,0,0,2,88713,task2,812670,false,false,841,image-keyboard-response,15
true,7,0,1,0,true,q,false,true,0.0-2.0-0.24-0.220-3.220,0,0,0,81,false,stim,false,2,1299.2999999523163,0,0,0,88713,task2,815510,false,false,844,image-keyboard-response,16
true,7,0,1,0,true,q,false,false,0.0-2.0-0.24-0.221-3.221,0,0,0,81,false,stim,false,2,715.5,0,0,0,88713,task2,817767,false,true,847,image-keyboard-response,17
true,7,0,1,0,true,q,false,true,0.0-2.0-0.24-0.222-3.222,0,0,0,81,false,stim,false,1,1333.5999999046326,0,0,1,88713,task2,820632,false,false,850,image-keyboard-response,18
true,7,1,1,1,true,z,false,true,0.0-2.0-0.24-0.223-3.223,0,0,0,90,false,stim,false,2,1165.8999999761581,0,0,2,88713,task2,823332,false,false,853,image-keyboard-response,19
true,7,0,1,0,true,q,false,true,0.0-2.0-0.24-0.224-3.224,0,0,0,81,false,stim,false,1,643.6999999284744,0,0,1,88713,task2,825517,false,false,856,image-keyboard-response,20
true,7,2,1,0,false,q,false,false,0.0-2.0-0.25-0.225-3.225,0,0,0,68,false,stim,true,2,1117.1000000238419,0,0,0,88713,task2,828171,false,false,859,image-keyboard-response,21
true,7,1,1,0,false,q,true,false,0.0-2.0-0.25-0.226-3.226,0,0,0,90,false,stim,false,2,884.2999999523163,0,0,0,88713,task2,830589,false,false,862,image-keyboard-response,22
true,7,0,1,0,true,q,false,true,0.0-2.0-0.25-0.227-3.227,0,0,0,81,false,stim,false,2,507.89999997615814,0,0,0,88713,task2,832638,false,false,865,image-keyboard-response,23
true,7,1,1,1,true,z,false,true,0.0-2.0-0.25-0.228-3.228,0,0,0,90,false,stim,false,2,1146.3999999761581,0,0,2,88713,task2,835309,false,false,868,image-keyboard-response,24
true,7,2,1,0,false,q,true,false,0.0-2.0-0.25-0.229-3.229,0,0,0,68,false,stim,false,1,1100.0,0,0,1,88713,task2,837939,false,false,871,image-keyboard-response,25
true,7,1,1,0,false,q,false,false,0.0-2.0-0.25-0.230-3.230,0,0,0,90,false,stim,true,1,1304.2000000476837,0,0,1,88713,task2,840775,false,false,874,image-keyboard-response,26
true,7,1,1,1,true,z,false,true,0.0-2.0-0.25-0.231-3.231,0,0,0,90,false,stim,false,2,1049.8999999761581,0,0,2,88713,task2,843368,false,false,877,image-keyboard-response,27
true,7,1,1,1,true,z,false,true,0.0-2.0-0.25-0.232-3.232,0,0,0,90,false,stim,false,2,796.7000000476837,0,0,2,88713,task2,845695,false,false,880,image-keyboard-response,28
true,7,0,1,0,true,q,false,true,0.0-2.0-0.25-0.233-3.233,0,0,0,81,false,stim,false,1,606.1000000238419,0,0,1,88713,task2,847832,false,false,883,image-keyboard-response,29
true,7,2,1,0,false,q,false,false,0.0-2.0-0.26-0.234-3.234,0,0,0,68,false,stim,true,2,1389.1000000238419,0,0,0,88713,task2,850762,false,false,886,image-keyboard-response,30
true,7,0,1,0,true,q,false,true,0.0-2.0-0.26-0.235-3.235,0,0,0,81,false,stim,false,1,1383.7999999523163,0,0,1,88713,task2,853689,false,false,889,image-keyboard-response,31
true,7,1,1,0,false,q,true,false,0.0-2.0-0.26-0.236-3.236,0,0,0,90,false,stim,false,2,958.6000000238419,0,0,0,88713,task2,856185,false,false,892,image-keyboard-response,32
true,7,0,1,0,true,q,false,true,0.0-2.0-0.26-0.237-3.237,0,0,0,81,false,stim,false,1,693.3999999761581,0,0,1,88713,task2,858423,false,false,895,image-keyboard-response,33
true,7,1,1,1,true,z,false,true,0.0-2.0-0.26-0.238-3.238,0,0,0,90,false,stim,false,2,1253.6999999284744,0,0,2,88713,task2,861210,false,false,898,image-keyboard-response,34
true,7,1,1,1,true,z,false,true,0.0-2.0-0.26-0.239-3.239,0,0,0,90,false,stim,false,2,846.3999999761581,0,0,2,88713,task2,863632,false,false,901,image-keyboard-response,35
true,7,0,1,0,true,q,false,true,0.0-2.0-0.26-0.240-3.240,0,0,0,81,false,stim,false,2,2212.2999999523163,0,0,0,88713,task2,867376,false,false,904,image-keyboard-response,36
true,7,0,1,0,true,q,false,false,0.0-2.0-0.26-0.241-3.241,0,0,0,81,false,stim,false,1,1860.3999999761581,0,0,1,88713,task2,870779,false,true,907,image-keyboard-response,37
true,7,1,1,1,true,z,false,true,0.0-2.0-0.26-0.242-3.242,0,0,0,90,false,stim,false,2,1107.7000000476837,0,0,2,88713,task2,873430,false,false,910,image-keyboard-response,38
true,8,0,1,1,false,z,false,false,0.0-2.0-0.27-0.243-3.243,0,0,0,81,true,stim,true,0,1164.2999999523163,0,0,0,88713,task2,876131,false,false,913,image-keyboard-response,1
true,8,0,1,1,false,z,false,false,0.0-2.0-0.27-0.244-3.244,0,0,0,81,false,stim,true,0,1815.2000000476837,0,0,1,88713,task2,879478,false,false,916,image-keyboard-response,2
true,8,2,1,1,false,z,true,false,0.0-2.0-0.27-0.245-3.245,0,0,0,68,false,stim,false,0,1185.6000000238419,0,0,1,88713,task2,882194,false,false,919,image-keyboard-response,3
true,8,1,1,0,false,q,false,false,0.0-2.0-0.27-0.246-3.246,0,0,0,90,false,stim,true,1,867.8000000715256,0,0,2,88713,task2,884604,false,false,922,image-keyboard-response,4
true,8,1,1,1,true,z,false,true,0.0-2.0-0.27-0.247-3.247,0,0,0,90,false,stim,false,0,751.8999999761581,0,0,0,88713,task2,886885,false,false,925,image-keyboard-response,5
true,8,2,1,0,false,q,true,false,0.0-2.0-0.27-0.248-3.248,0,0,0,68,false,stim,false,1,1060.6000000238419,0,0,2,88713,task2,889470,false,false,928,image-keyboard-response,6
true,8,1,1,1,true,z,false,true,0.0-2.0-0.27-0.249-3.249,0,0,0,90,false,stim,false,0,822.3999999761581,0,0,1,88713,task2,891838,false,false,931,image-keyboard-response,7
true,8,0,1,0,true,q,false,true,0.0-2.0-0.27-0.250-3.250,0,0,0,81,false,stim,false,1,912.3000000715256,0,0,2,88713,task2,894280,false,false,934,image-keyboard-response,8
true,8,2,1,1,false,z,true,false,0.0-2.0-0.27-0.251-3.251,0,0,0,68,false,stim,false,0,1328.8000000715256,0,0,0,88713,task2,897161,false,false,937,image-keyboard-response,9
true,8,1,1,1,true,z,false,true,0.0-2.0-0.28-0.252-3.252,0,0,0,90,false,stim,false,0,807.0,0,0,1,88713,task2,899497,false,false,940,image-keyboard-response,10
true,8,0,1,0,true,q,false,false,0.0-2.0-0.28-0.253-3.253,0,0,0,81,false,stim,false,1,608.1000000238419,0,0,2,88713,task2,901644,false,true,943,image-keyboard-response,11
true,8,1,1,1,true,z,false,true,0.0-2.0-0.28-0.254-3.254,0,0,0,90,false,stim,false,0,704.8999999761581,0,0,1,88713,task2,903871,false,false,946,image-keyboard-response,12
true,8,1,1,1,true,z,false,true,0.0-2.0-0.28-0.255-3.255,0,0,0,90,false,stim,false,0,1450.0,0,0,0,88713,task2,906863,false,false,949,image-keyboard-response,13
true,8,1,1,1,true,z,false,true,0.0-2.0-0.28-0.256-3.256,0,0,0,90,false,stim,false,0,765.7999999523163,0,0,0,88713,task2,909160,false,false,952,image-keyboard-response,14
true,8,1,1,0,false,q,false,false,0.0-2.0-0.28-0.257-3.257,0,0,0,90,false,stim,true,1,872.2000000476837,0,0,2,88713,task2,911562,false,false,955,image-keyboard-response,15
true,8,0,1,0,true,q,false,true,0.0-2.0-0.28-0.258-3.258,0,0,0,81,false,stim,false,1,779.8000000715256,0,0,2,88713,task2,913880,false,false,958,image-keyboard-response,16
true,8,1,1,1,true,z,false,true,0.0-2.0-0.28-0.259-3.259,0,0,0,90,false,stim,false,0,1178.0999999046326,0,0,0,88713,task2,916593,false,false,961,image-keyboard-response,17
true,8,0,1,1,false,z,false,false,0.0-2.0-0.28-0.260-3.260,0,0,0,81,false,stim,true,0,798.5999999046326,0,0,1,88713,task2,918928,false,false,964,image-keyboard-response,18
true,8,1,1,1,true,z,false,true,0.0-2.0-0.29-0.261-3.261,0,0,0,90,false,stim,false,0,580.1000000238419,0,0,1,88713,task2,921036,false,false,967,image-keyboard-response,19
true,8,1,1,1,true,z,false,true,0.0-2.0-0.29-0.262-3.262,0,0,0,90,false,stim,false,0,698.0999999046326,0,0,0,88713,task2,923270,false,false,970,image-keyboard-response,20
true,8,1,1,1,true,z,false,true,0.0-2.0-0.29-0.263-3.263,0,0,0,90,false,stim,false,0,598.0,0,0,0,88713,task2,925397,false,false,973,image-keyboard-response,21
true,8,1,1,1,true,z,false,true,0.0-2.0-0.29-0.264-3.264,0,0,0,90,false,stim,false,0,467.90000009536743,0,0,0,88713,task2,927396,false,false,976,image-keyboard-response,22
true,8,1,1,0,false,q,false,false,0.0-2.0-0.29-0.265-3.265,0,0,0,90,false,stim,true,1,1167.6000000238419,0,0,2,88713,task2,930093,false,false,979,image-keyboard-response,23
true,8,1,1,1,true,z,false,true,0.0-2.0-0.29-0.266-3.266,0,0,0,90,false,stim,false,0,1158.3999999761581,0,0,1,88713,task2,932782,false,false,982,image-keyboard-response,24
true,8,1,1,1,true,z,false,true,0.0-2.0-0.29-0.267-3.267,0,0,0,90,false,stim,false,0,470.89999997615814,0,0,1,88713,task2,934791,false,false,985,image-keyboard-response,25
true,8,0,1,0,true,q,false,true,0.0-2.0-0.29-0.268-3.268,0,0,0,81,false,stim,false,1,1154.3999999761581,0,0,2,88713,task2,937481,false,false,988,image-keyboard-response,26
true,8,0,1,0,true,q,false,false,0.0-2.0-0.29-0.269-3.269,0,0,0,81,false,stim,false,1,514.1999999284744,0,0,2,88713,task2,939519,false,true,991,image-keyboard-response,27
true,8,1,1,1,true,z,false,true,0.0-2.0-0.30-0.270-3.270,0,0,0,90,false,stim,false,0,599.4000000953674,0,0,1,88713,task2,941653,false,false,994,image-keyboard-response,28
true,8,1,1,1,true,z,false,true,0.0-2.0-0.30-0.271-3.271,0,0,0,90,false,stim,false,0,483.89999997615814,0,0,1,88713,task2,943666,false,false,997,image-keyboard-response,29
true,8,0,1,0,true,q,false,true,0.0-2.0-0.30-0.272-3.272,0,0,0,81,false,stim,false,1,1076.1999999284744,0,0,2,88713,task2,946271,false,false,1000,image-keyboard-response,30
true,8,2,1,1,false,z,true,false,0.0-2.0-0.30-0.273-3.273,0,0,0,68,false,stim,false,0,1176.0,0,1,0,88713,task2,949038,false,false,1003,image-keyboard-response,31
true,8,1,1,1,true,z,false,true,0.0-2.0-0.30-0.274-3.274,0,0,0,90,false,stim,false,0,739.5,0,0,1,88713,task2,951314,false,false,1006,image-keyboard-response,32
true,8,0,1,0,true,q,false,true,0.0-2.0-0.30-0.275-3.275,0,0,0,81,false,stim,false,1,668.7000000476837,0,0,2,88713,task2,953524,false,false,1009,image-keyboard-response,33
true,8,1,1,1,true,z,false,true,0.0-2.0-0.30-0.276-3.276,0,0,0,90,false,stim,false,0,685.3999999761581,0,1,0,88713,task2,955733,false,false,1012,image-keyboard-response,34
true,9,1,2,1,true,z,false,true,0.0-2.0-0.30-0.277-3.277,1,0,0,90,true,stim,false,1,650.1000000238419,0,1,0,88713,task2,957927,false,false,1015,image-keyboard-response,1
true,9,1,2,1,true,z,false,true,0.0-2.0-0.30-0.278-3.278,1,0,0,90,false,stim,false,0,988.6000000238419,0,0,2,88713,task2,960446,false,false,1018,image-keyboard-response,2
true,9,1,2,1,true,z,false,true,0.0-2.0-0.31-0.279-3.279,1,0,0,90,false,stim,false,0,647.7999999523163,0,0,2,88713,task2,962633,false,false,1021,image-keyboard-response,3
true,9,1,2,1,true,z,false,true,0.0-2.0-0.31-0.280-3.280,1,0,0,90,false,stim,false,0,588.1999999284744,0,0,2,88713,task2,964757,false,false,1024,image-keyboard-response,4
true,9,0,2,1,false,z,true,true,0.0-2.0-0.31-0.281-3.281,1,0,0,81,false,stim,false,1,677.6000000238419,0,1,0,88713,task2,966968,false,true,1027,image-keyboard-response,5
true,9,0,2,0,true,q,false,true,0.0-2.0-0.31-0.282-3.282,1,0,0,81,false,stim,false,1,2078.600000023842,0,0,1,88713,task2,970587,false,false,1030,image-keyboard-response,6
true,9,0,2,0,true,q,false,true,0.0-2.0-0.31-0.283-3.283,1,0,0,81,false,stim,false,1,655.5,0,0,1,88713,task2,972773,false,false,1033,image-keyboard-response,7
true,9,0,2,0,true,q,false,false,0.0-2.0-0.31-0.284-3.284,1,0,0,81,false,stim,false,1,652.8999999761581,0,0,1,88713,task2,974968,false,true,1036,image-keyboard-response,8
true,9,0,2,1,false,z,true,false,0.0-2.0-0.31-0.285-3.285,1,0,0,81,false,stim,false,1,1029.1999999284744,0,1,0,88713,task2,977539,false,false,1039,image-keyboard-response,9
true,9,1,2,1,true,z,false,true,0.0-2.0-0.31-0.286-3.286,1,0,0,90,false,stim,false,1,511.2999999523163,0,1,0,88713,task2,979566,false,false,1042,image-keyboard-response,10
true,9,1,2,1,true,z,false,true,0.0-2.0-0.31-0.287-3.287,1,0,0,90,false,stim,false,0,524.0,0,0,2,88713,task2,981624,false,false,1045,image-keyboard-response,11
true,9,1,2,1,true,z,false,true,0.0-2.0-0.32-0.288-3.288,1,0,0,90,false,stim,false,0,602.7999999523163,0,0,2,88713,task2,983749,false,false,1048,image-keyboard-response,12
true,9,0,2,1,false,z,true,false,0.0-2.0-0.32-0.289-3.289,1,0,0,81,false,stim,false,1,980.1000000238419,0,1,0,88713,task2,986260,false,false,1051,image-keyboard-response,13
true,9,1,2,1,true,z,false,true,0.0-2.0-0.32-0.290-3.290,1,0,0,90,false,stim,false,1,510.2000000476837,0,1,0,88713,task2,988301,false,false,1054,image-keyboard-response,14
true,9,1,2,1,true,z,false,true,0.0-2.0-0.32-0.291-3.291,1,0,0,90,false,stim,false,0,620.0,0,0,2,88713,task2,990463,false,false,1057,image-keyboard-response,15
true,9,0,2,0,true,q,false,true,0.0-2.0-0.32-0.292-3.292,1,0,0,81,false,stim,false,1,1130.1999999284744,0,0,1,88713,task2,993134,false,false,1060,image-keyboard-response,16
true,9,0,2,0,true,q,false,true,0.0-2.0-0.32-0.293-3.293,1,0,0,81,false,stim,false,1,554.0,0,0,1,88713,task2,995217,false,false,1063,image-keyboard-response,17
true,9,1,2,1,true,z,false,true,0.0-2.0-0.32-0.294-3.294,1,0,0,90,false,stim,false,1,813.5,0,1,0,88713,task2,997562,false,false,1066,image-keyboard-response,18
true,9,1,2,1,true,z,false,true,0.0-2.0-0.32-0.295-3.295,1,0,0,90,false,stim,false,0,608.7000000476837,0,0,2,88713,task2,999697,false,false,1069,image-keyboard-response,19
true,9,1,2,0,false,q,false,false,0.0-2.0-0.32-0.296-3.296,1,0,0,90,false,stim,true,1,980.3999999761581,0,0,1,88713,task2,1002199,false,false,1072,image-keyboard-response,20
true,9,1,2,1,true,z,false,true,0.0-2.0-0.33-0.297-3.297,1,0,0,90,false,stim,false,0,686.8999999761581,0,0,2,88713,task2,1004422,false,false,1075,image-keyboard-response,21
true,9,1,2,1,true,z,false,true,0.0-2.0-0.33-0.298-3.298,1,0,0,90,false,stim,false,1,699.8000000715256,0,1,0,88713,task2,1006646,false,false,1078,image-keyboard-response,22
true,9,0,2,0,true,q,false,true,0.0-2.0-0.33-0.299-3.299,1,0,0,81,false,stim,false,1,638.8999999761581,0,0,1,88713,task2,1008818,false,false,1081,image-keyboard-response,23
true,9,1,2,1,true,z,false,true,0.0-2.0-0.33-0.300-3.300,1,0,0,90,false,stim,false,0,1031.8999999761581,0,0,2,88713,task2,1011387,false,false,1084,image-keyboard-response,24
true,9,0,2,0,true,q,false,true,0.0-2.0-0.33-0.301-3.301,1,0,0,81,false,stim,false,1,850.8999999761581,0,0,1,88713,task2,1013769,false,false,1087,image-keyboard-response,25
true,9,0,2,0,true,q,false,true,0.0-2.0-0.33-0.302-3.302,1,0,0,81,false,stim,false,1,489.7999999523163,0,0,1,88713,task2,1015783,false,false,1090,image-keyboard-response,26
true,9,1,2,1,true,z,false,true,0.0-2.0-0.33-0.303-3.303,1,0,0,90,false,stim,false,1,861.3999999761581,0,0,0,88713,task2,1018174,false,false,1093,image-keyboard-response,27
true,9,1,2,1,true,z,false,true,0.0-2.0-0.33-0.304-3.304,1,0,0,90,false,stim,false,1,530.3999999761581,0,0,0,88713,task2,1020233,false,false,1096,image-keyboard-response,28
true,9,0,2,1,false,z,false,false,0.0-2.0-0.33-0.305-3.305,1,0,0,81,false,stim,true,0,832.2000000476837,0,1,2,88713,task2,1022598,false,false,1099,image-keyboard-response,29
true,9,1,2,1,true,z,false,true,0.0-2.0-0.34-0.306-3.306,1,0,0,90,false,stim,false,0,574.1000000238419,0,1,2,88713,task2,1024727,false,false,1102,image-keyboard-response,30
true,9,1,2,1,true,z,false,true,0.0-2.0-0.34-0.307-3.307,1,0,0,90,false,stim,false,1,1104.6000000238419,0,0,0,88713,task2,1027367,false,false,1105,image-keyboard-response,31
true,10,1,2,1,true,z,false,true,0.0-2.0-0.34-0.308-3.308,0,0,1,90,true,stim,false,1,673.1000000238419,0,1,2,88713,task2,1029563,false,false,1108,image-keyboard-response,1
true,10,1,2,0,false,q,false,false,0.0-2.0-0.34-0.309-3.309,0,0,1,90,false,stim,true,1,580.1000000238419,0,0,0,88713,task2,1031681,false,false,1111,image-keyboard-response,2
true,10,0,2,1,false,z,false,false,0.0-2.0-0.34-0.310-3.310,0,0,1,81,false,stim,true,0,704.4000000953674,0,0,1,88713,task2,1033924,false,false,1114,image-keyboard-response,3
true,10,2,2,1,false,z,true,false,0.0-2.0-0.34-0.311-3.311,0,0,1,68,false,stim,false,0,1506.9000000953674,0,0,1,88713,task2,1036973,false,false,1117,image-keyboard-response,4
true,10,2,2,0,false,q,true,false,0.0-2.0-0.34-0.312-3.312,0,0,1,68,false,stim,false,1,1164.2000000476837,0,0,0,88713,task2,1039668,false,false,1120,image-keyboard-response,5
true,10,1,2,1,true,z,false,true,0.0-2.0-0.34-0.313-3.313,0,0,1,90,false,stim,false,0,1282.8999999761581,0,0,1,88713,task2,1042490,false,false,1123,image-keyboard-response,6
true,10,1,2,1,true,z,false,true,0.0-2.0-0.34-0.314-3.314,0,0,1,90,false,stim,false,1,779.0999999046326,0,1,2,88713,task2,1044799,false,false,1126,image-keyboard-response,7
true,10,1,2,1,true,z,false,true,0.0-2.0-0.35-0.315-3.315,0,0,1,90,false,stim,false,0,734.2000000476837,0,0,1,88713,task2,1047064,false,false,1129,image-keyboard-response,8
true,10,1,2,1,true,z,false,true,0.0-2.0-0.35-0.316-3.316,0,0,1,90,false,stim,false,0,660.6000000238419,0,0,1,88713,task2,1049270,false,false,1132,image-keyboard-response,9
true,10,0,2,0,true,q,false,true,0.0-2.0-0.35-0.317-3.317,0,0,1,81,false,stim,false,1,977.6999999284744,0,0,0,88713,task2,1051782,false,false,1135,image-keyboard-response,10
true,10,1,2,1,true,z,false,false,0.0-2.0-0.35-0.318-3.318,0,0,1,90,false,stim,false,1,1453.7999999523163,0,1,2,88713,task2,1054775,false,true,1138,image-keyboard-response,11
true,10,0,2,1,false,z,true,false,0.0-2.0-0.35-0.319-3.319,0,0,1,81,false,stim,false,1,680.1000000238419,0,1,2,88713,task2,1056996,false,false,1141,image-keyboard-response,12
true,10,1,2,0,false,q,false,false,0.0-2.0-0.35-0.320-3.320,0,0,1,90,false,stim,true,1,799.6000000238419,0,0,0,88713,task2,1059328,false,false,1144,image-keyboard-response,13
true,10,1,2,1,true,z,false,true,0.0-2.0-0.35-0.321-3.321,0,0,1,90,false,stim,false,0,727.4000000953674,0,0,1,88713,task2,1061585,false,false,1147,image-keyboard-response,14
true,10,0,2,1,false,z,true,true,0.0-2.0-0.35-0.322-3.322,0,0,1,81,false,stim,false,1,822.9000000953674,0,1,2,88713,task2,1063940,false,true,1150,image-keyboard-response,15
true,10,2,2,0,false,q,true,false,0.0-2.0-0.35-0.323-3.323,0,0,1,68,false,stim,false,1,1627.1000000238419,0,0,0,88713,task2,1067093,false,false,1153,image-keyboard-response,16
true,10,0,2,0,true,q,false,true,0.0-2.0-0.36-0.324-3.324,0,0,1,81,false,stim,false,1,1082.1999999284744,0,0,0,88713,task2,1069715,false,false,1156,image-keyboard-response,17
true,10,1,2,1,true,z,false,false,0.0-2.0-0.36-0.325-3.325,0,0,1,90,false,stim,false,1,850.3999999761581,0,1,2,88713,task2,1072092,false,true,1159,image-keyboard-response,18
true,10,0,2,0,true,q,false,false,0.0-2.0-0.36-0.326-3.326,0,0,1,81,false,stim,false,1,612.8000000715256,0,0,0,88713,task2,1074234,false,true,1162,image-keyboard-response,19
true,10,1,2,1,true,z,false,true,0.0-2.0-0.36-0.327-3.327,0,0,1,90,false,stim,false,0,1162.7999999523163,0,0,1,88713,task2,1076937,false,false,1165,image-keyboard-response,20
true,10,0,2,1,false,z,true,false,0.0-2.0-0.36-0.328-3.328,0,0,1,81,false,stim,false,1,1411.0,0,1,2,88713,task2,1079886,false,false,1168,image-keyboard-response,21
true,10,0,2,0,true,q,false,false,0.0-2.0-0.36-0.329-3.329,0,0,1,81,false,stim,false,1,1110.7000000476837,0,0,0,88713,task2,1082530,false,true,1171,image-keyboard-response,22
true,10,1,2,1,true,z,false,true,0.0-2.0-0.36-0.330-3.330,0,0,1,90,false,stim,false,1,688.1000000238419,0,1,2,88713,task2,1084750,false,false,1174,image-keyboard-response,23
true,10,2,2,1,false,z,true,false,0.0-2.0-0.36-0.331-3.331,0,0,1,68,false,stim,false,0,2744.5,0,0,1,88713,task2,1089035,false,false,1177,image-keyboard-response,24
true,10,0,2,1,false,z,false,true,0.0-2.0-0.36-0.332-3.332,0,0,1,81,false,stim,true,0,1068.7000000476837,0,0,1,88713,task2,1091636,false,true,1180,image-keyboard-response,25
true,10,2,2,0,false,q,true,false,0.0-2.0-0.37-0.333-3.333,0,0,1,68,false,stim,false,1,1441.8000000715256,0,0,0,88713,task2,1094613,false,false,1183,image-keyboard-response,26
true,10,0,2,0,true,q,false,true,0.0-2.0-0.37-0.334-3.334,0,0,1,81,false,stim,false,1,550.5,0,0,0,88713,task2,1096694,false,false,1186,image-keyboard-response,27
true,10,0,2,1,false,z,false,false,0.0-2.0-0.37-0.335-3.335,0,0,1,81,false,stim,true,0,619.1000000238419,0,0,1,88713,task2,1098842,false,false,1189,image-keyboard-response,28
true,10,2,2,1,false,z,true,false,0.0-2.0-0.37-0.336-3.336,0,0,1,68,false,stim,false,0,1515.8000000715256,0,0,1,88713,task2,1101888,false,false,1192,image-keyboard-response,29
true,10,0,2,0,true,q,false,true,0.0-2.0-0.37-0.337-3.337,0,0,1,81,false,stim,false,1,1238.3999999761581,0,0,0,88713,task2,1104659,false,false,1195,image-keyboard-response,30
true,10,1,2,1,true,z,false,true,0.0-2.0-0.37-0.338-3.338,0,0,1,90,false,stim,false,1,831.0,0,0,2,88713,task2,1107024,false,false,1198,image-keyboard-response,31
true,10,1,2,1,true,z,false,true,0.0-2.0-0.37-0.339-3.339,0,0,1,90,false,stim,false,0,784.9000000953674,0,1,1,88713,task2,1109370,false,false,1201,image-keyboard-response,32
true,10,1,2,1,true,z,false,true,0.0-2.0-0.37-0.340-3.340,0,0,1,90,false,stim,false,1,742.1000000238419,0,0,2,88713,task2,1111653,false,false,1204,image-keyboard-response,33
true,10,1,2,1,true,z,false,true,0.0-2.0-0.37-0.341-3.341,0,0,1,90,false,stim,false,1,572.3999999761581,0,0,2,88713,task2,1113755,false,false,1207,image-keyboard-response,34
true,10,1,2,1,true,z,false,true,0.0-2.0-0.38-0.342-3.342,0,0,1,90,false,stim,false,0,747.3000000715256,0,1,1,88713,task2,1116031,false,false,1210,image-keyboard-response,35
true,11,1,2,0,false,q,false,false,0.0-2.0-0.38-0.343-3.343,0,1,0,90,true,stim,true,1,521.3000000715256,0,0,2,88713,task2,1118079,false,false,1213,image-keyboard-response,1
true,11,2,2,0,false,q,true,false,0.0-2.0-0.38-0.344-3.344,0,1,0,68,false,stim,false,1,1131.8999999761581,0,0,2,88713,task2,1120741,false,false,1216,image-keyboard-response,2
true,11,1,2,1,true,z,false,true,0.0-2.0-0.38-0.345-3.345,0,1,0,90,false,stim,false,1,887.2999999523163,0,1,1,88713,task2,1123155,false,false,1219,image-keyboard-response,3
true,11,0,2,0,true,q,false,true,0.0-2.0-0.38-0.346-3.346,0,1,0,81,false,stim,false,1,821.3999999761581,0,0,2,88713,task2,1125503,false,false,1222,image-keyboard-response,4
true,11,2,2,2,true,d,false,true,0.0-2.0-0.38-0.347-3.347,0,1,0,68,false,stim,false,0,1645.7999999523163,0,0,0,88713,task2,1128684,false,false,1225,image-keyboard-response,5
true,11,2,2,2,true,d,false,true,0.0-2.0-0.38-0.348-3.348,0,1,0,68,false,stim,false,0,915.8999999761581,0,0,0,88713,task2,1131139,false,false,1228,image-keyboard-response,6
true,11,1,2,1,true,z,false,true,0.0-2.0-0.38-0.349-3.349,0,1,0,90,false,stim,false,1,964.1999999284744,0,1,1,88713,task2,1133631,false,false,1231,image-keyboard-response,7
true,11,2,2,2,true,d,false,true,0.0-2.0-0.38-0.350-3.350,0,1,0,68,false,stim,false,0,897.3000000715256,0,0,0,88713,task2,1136062,false,false,1234,image-keyboard-response,8
true,11,2,2,2,true,d,false,true,0.0-2.0-0.39-0.351-3.351,0,1,0,68,false,stim,false,0,753.5,0,0,0,88713,task2,1138347,false,false,1237,image-keyboard-response,9
true,11,2,2,2,true,d,false,true,0.0-2.0-0.39-0.352-3.352,0,1,0,68,false,stim,false,0,711.7999999523163,0,0,0,88713,task2,1140588,false,false,1240,image-keyboard-response,10
true,11,1,2,0,false,q,false,false,0.0-2.0-0.39-0.353-3.353,0,1,0,90,false,stim,true,1,868.2999999523163,0,0,2,88713,task2,1142993,false,false,1243,image-keyboard-response,11
true,11,0,2,0,true,q,false,true,0.0-2.0-0.39-0.354-3.354,0,1,0,81,false,stim,false,1,768.6000000238419,0,0,2,88713,task2,1145289,false,false,1246,image-keyboard-response,12
true,11,0,2,0,true,q,false,true,0.0-2.0-0.39-0.355-3.355,0,1,0,81,false,stim,false,1,674.5,0,0,2,88713,task2,1147491,false,false,1249,image-keyboard-response,13
true,11,2,2,2,true,d,false,true,0.0-2.0-0.39-0.356-3.356,0,1,0,68,false,stim,false,0,997.3999999761581,0,0,0,88713,task2,1150034,false,false,1252,image-keyboard-response,14
true,11,1,2,1,true,z,false,true,0.0-2.0-0.39-0.357-3.357,0,1,0,90,false,stim,false,1,682.6999999284744,0,1,1,88713,task2,1152253,false,false,1255,image-keyboard-response,15
true,11,1,2,1,true,z,false,true,0.0-2.0-0.39-0.358-3.358,0,1,0,90,false,stim,false,1,741.7000000476837,0,1,1,88713,task2,1154526,false,false,1258,image-keyboard-response,16
true,11,1,2,1,true,z,false,true,0.0-2.0-0.39-0.359-3.359,0,1,0,90,false,stim,false,1,712.1000000238419,0,1,1,88713,task2,1156759,false,false,1261,image-keyboard-response,17
true,11,1,2,1,true,z,false,true,0.0-2.0-0.40-0.360-3.360,0,1,0,90,false,stim,false,1,538.2999999523163,0,1,1,88713,task2,1158832,false,false,1264,image-keyboard-response,18
true,11,0,2,0,true,q,false,true,0.0-2.0-0.40-0.361-3.361,0,1,0,81,false,stim,false,1,936.0,0,0,2,88713,task2,1161293,false,false,1267,image-keyboard-response,19
true,11,0,2,0,true,q,false,false,0.0-2.0-0.40-0.362-3.362,0,1,0,81,false,stim,false,1,450.90000009536743,0,0,2,88713,task2,1163271,false,true,1270,image-keyboard-response,20
true,11,2,2,2,true,d,false,true,0.0-2.0-0.40-0.363-3.363,0,1,0,68,false,stim,false,0,942.1999999284744,0,0,0,88713,task2,1165742,false,false,1273,image-keyboard-response,21
true,11,1,2,1,true,z,false,true,0.0-2.0-0.40-0.364-3.364,0,1,0,90,false,stim,false,1,707.2999999523163,0,1,1,88713,task2,1167996,false,false,1276,image-keyboard-response,22
true,11,2,2,2,true,d,false,true,0.0-2.0-0.40-0.365-3.365,0,1,0,68,false,stim,false,0,1132.0,0,0,0,88713,task2,1170663,false,false,1279,image-keyboard-response,23
true,11,1,2,1,true,z,false,true,0.0-2.0-0.40-0.366-3.366,0,1,0,90,false,stim,false,1,660.5,0,1,1,88713,task2,1172855,false,false,1282,image-keyboard-response,24
true,11,2,2,2,true,d,false,true,0.0-2.0-0.40-0.367-3.367,0,1,0,68,false,stim,false,0,718.7000000476837,0,0,0,88713,task2,1175110,false,false,1285,image-keyboard-response,25
true,11,1,2,0,false,q,false,false,0.0-2.0-0.40-0.368-3.368,0,1,0,90,false,stim,true,1,696.3999999761581,0,0,2,88713,task2,1177344,false,false,1288,image-keyboard-response,26
true,11,2,2,1,false,z,true,false,0.0-2.0-0.41-0.369-3.369,0,1,0,68,false,stim,false,1,1406.3000000715256,0,1,1,88713,task2,1180306,false,false,1291,image-keyboard-response,27
true,11,2,2,2,true,d,false,true,0.0-2.0-0.41-0.370-3.370,0,1,0,68,false,stim,false,0,936.6999999284744,0,0,0,88713,task2,1182778,false,false,1294,image-keyboard-response,28
true,11,1,2,0,false,q,false,false,0.0-2.0-0.41-0.371-3.371,0,1,0,90,false,stim,true,1,1046.0,0,0,2,88713,task2,1185349,false,false,1297,image-keyboard-response,29
true,11,0,2,2,false,d,false,false,0.0-2.0-0.41-0.372-3.372,0,1,0,81,false,stim,true,0,1678.1000000238419,0,0,0,88713,task2,1188569,false,false,1300,image-keyboard-response,30
true,11,2,2,1,false,z,true,false,0.0-2.0-0.41-0.373-3.373,0,1,0,68,false,stim,false,1,1847.2000000476837,0,1,1,88713,task2,1192001,false,false,1303,image-keyboard-response,31
true,11,2,2,0,false,q,true,false,0.0-2.0-0.41-0.374-3.374,0,1,0,68,false,stim,false,1,1236.7999999523163,0,0,2,88713,task2,1194777,false,false,1306,image-keyboard-response,32
true,12,2,2,1,false,z,true,false,0.0-2.0-0.41-0.375-3.375,0,1,0,68,true,stim,false,1,1511.2999999523163,0,1,1,88713,task2,1197819,false,false,1309,image-keyboard-response,1
true,12,1,2,2,false,d,true,false,0.0-2.0-0.41-0.376-3.376,0,1,0,90,false,stim,false,0,1336.0,0,0,2,88713,task2,1200682,false,false,1312,image-keyboard-response,2
true,12,2,2,1,false,z,false,false,0.0-2.0-0.41-0.377-3.377,0,1,0,68,false,stim,true,2,1222.5,0,0,0,88713,task2,1203431,false,false,1315,image-keyboard-response,3
true,12,1,2,1,true,z,false,true,0.0-2.0-0.42-0.378-3.378,0,1,0,90,false,stim,false,2,1068.0,0,0,0,88713,task2,1206023,false,false,1318,image-keyboard-response,4
true,12,0,2,2,false,d,false,true,0.0-2.0-0.42-0.379-3.379,0,1,0,81,false,stim,true,0,802.5,0,0,2,88713,task2,1208360,false,true,1321,image-keyboard-response,5
true,12,0,2,2,false,d,false,false,0.0-2.0-0.42-0.380-3.380,0,1,0,81,false,stim,true,0,719.7000000476837,0,0,2,88713,task2,1210617,false,false,1324,image-keyboard-response,6
true,12,1,2,1,true,z,false,true,0.0-2.0-0.42-0.381-3.381,0,1,0,90,false,stim,false,2,685.2999999523163,0,0,0,88713,task2,1212829,false,false,1327,image-keyboard-response,7
true,12,2,2,2,true,d,false,true,0.0-2.0-0.42-0.382-3.382,0,1,0,68,false,stim,false,0,1027.6999999284744,0,0,2,88713,task2,1215384,false,false,1330,image-keyboard-response,8
true,12,1,2,1,true,z,false,true,0.0-2.0-0.42-0.383-3.383,0,1,0,90,false,stim,false,2,936.1000000238419,0,0,0,88713,task2,1217840,false,false,1333,image-keyboard-response,9
true,12,0,2,1,false,z,true,false,0.0-2.0-0.42-0.384-3.384,0,1,0,81,false,stim,false,1,1198.2999999523163,0,1,1,88713,task2,1220572,false,false,1336,image-keyboard-response,10
true,12,1,2,1,true,z,false,true,0.0-2.0-0.42-0.385-3.385,0,1,0,90,false,stim,false,1,845.2000000476837,0,1,1,88713,task2,1222946,false,false,1339,image-keyboard-response,11
true,12,1,2,1,true,z,false,true,0.0-2.0-0.42-0.386-3.386,0,1,0,90,false,stim,false,1,705.5,0,1,1,88713,task2,1225185,false,false,1342,image-keyboard-response,12
true,12,1,2,1,true,z,false,true,0.0-2.0-0.43-0.387-3.387,0,1,0,90,false,stim,false,2,625.7000000476837,0,0,0,88713,task2,1227349,false,false,1345,image-keyboard-response,13
true,12,1,2,1,true,z,false,true,0.0-2.0-0.43-0.388-3.388,0,1,0,90,false,stim,false,1,605.6000000238419,0,1,1,88713,task2,1229495,false,false,1348,image-keyboard-response,14
true,12,2,2,2,true,d,false,true,0.0-2.0-0.43-0.389-3.389,0,1,0,68,false,stim,false,0,1102.3999999761581,0,0,2,88713,task2,1232140,false,false,1351,image-keyboard-response,15
true,12,1,2,1,true,z,false,true,0.0-2.0-0.43-0.390-3.390,0,1,0,90,false,stim,false,2,998.1000000238419,0,0,0,88713,task2,1234676,false,false,1354,image-keyboard-response,16
true,12,2,2,1,false,z,true,false,0.0-2.0-0.43-0.391-3.391,0,1,0,68,false,stim,false,1,823.8999999761581,0,1,1,88713,task2,1237029,false,false,1357,image-keyboard-response,17
true,12,1,2,2,false,d,true,false,0.0-2.0-0.43-0.392-3.392,0,1,0,90,false,stim,false,0,527.1000000238419,0,0,2,88713,task2,1239084,false,false,1360,image-keyboard-response,18
true,12,2,2,2,true,d,false,true,0.0-2.0-0.43-0.393-3.393,0,1,0,68,false,stim,false,0,544.8000000715256,0,0,2,88713,task2,1241163,false,false,1363,image-keyboard-response,19
true,12,2,2,1,false,z,false,true,0.0-2.0-0.43-0.394-3.394,0,1,0,68,false,stim,true,2,1291.1999999284744,0,0,0,88713,task2,1243988,false,true,1366,image-keyboard-response,20
true,12,1,2,1,true,z,false,true,0.0-2.0-0.43-0.395-3.395,0,1,0,90,false,stim,false,1,1314.0,0,1,1,88713,task2,1246847,false,false,1369,image-keyboard-response,21
true,12,2,2,1,false,z,false,false,0.0-2.0-0.44-0.396-3.396,0,1,0,68,false,stim,true,2,681.0,0,0,0,88713,task2,1249072,false,false,1372,image-keyboard-response,22
true,12,1,2,1,true,z,false,true,0.0-2.0-0.44-0.397-3.397,0,1,0,90,false,stim,false,2,694.8000000715256,0,0,0,88713,task2,1251301,false,false,1375,image-keyboard-response,23
true,12,1,2,1,true,z,false,true,0.0-2.0-0.44-0.398-3.398,0,1,0,90,false,stim,false,1,1892.0,0,1,1,88713,task2,1254725,false,false,1378,image-keyboard-response,24
true,12,1,2,1,true,z,false,true,0.0-2.0-0.44-0.399-3.399,0,1,0,90,false,stim,false,1,523.1999999284744,0,1,1,88713,task2,1256783,false,false,1381,image-keyboard-response,25
true,12,2,2,1,false,z,false,false,0.0-2.0-0.44-0.400-3.400,0,1,0,68,false,stim,true,2,912.0,0,0,0,88713,task2,1259215,false,false,1384,image-keyboard-response,26
true,12,1,2,1,true,z,false,true,0.0-2.0-0.44-0.401-3.401,0,1,0,90,false,stim,false,1,606.1000000238419,0,1,1,88713,task2,1261356,false,false,1387,image-keyboard-response,27
true,12,1,2,2,false,d,true,false,0.0-2.0-0.44-0.402-3.402,0,1,0,90,false,stim,false,0,750.1000000238419,0,0,2,88713,task2,1263634,false,false,1390,image-keyboard-response,28
true,12,2,2,2,true,d,false,true,0.0-2.0-0.44-0.403-3.403,0,1,0,68,false,stim,false,0,712.6999999284744,0,0,2,88713,task2,1265872,false,false,1393,image-keyboard-response,29
true,12,2,2,2,true,d,false,true,0.0-2.0-0.44-0.404-3.404,0,1,0,68,false,stim,false,0,641.8000000715256,0,0,2,88713,task2,1268054,false,false,1396,image-keyboard-response,30
true,12,2,2,2,true,d,false,true,0.0-2.0-0.45-0.405-3.405,0,1,0,68,false,stim,false,0,623.5,0,0,2,88713,task2,1270218,false,false,1399,image-keyboard-response,31
true,12,1,2,1,true,z,false,true,0.0-2.0-0.45-0.406-3.406,0,1,0,90,false,stim,false,1,864.5,0,0,1,88713,task2,1272687,false,false,1402,image-keyboard-response,32
true,12,1,2,1,true,z,false,true,0.0-2.0-0.45-0.407-3.407,0,1,0,90,false,stim,false,1,681.7999999523163,0,0,1,88713,task2,1274893,false,false,1405,image-keyboard-response,33
true,13,2,2,0,false,q,false,false,0.0-2.0-0.45-0.408-3.408,1,0,0,68,true,stim,true,2,948.6000000238419,0,0,2,88713,task2,1277396,false,false,1408,image-keyboard-response,1
true,13,1,2,0,false,q,true,false,0.0-2.0-0.45-0.409-3.409,1,0,0,90,false,stim,false,2,1118.6999999284744,0,0,2,88713,task2,1280044,false,false,1411,image-keyboard-response,2
true,13,1,2,1,true,z,false,true,0.0-2.0-0.45-0.410-3.410,1,0,0,90,false,stim,false,1,961.5,0,1,0,88713,task2,1282550,false,false,1414,image-keyboard-response,3
true,13,1,2,2,false,d,false,false,0.0-2.0-0.45-0.411-3.411,1,0,0,90,false,stim,true,1,883.5,0,0,1,88713,task2,1284969,false,false,1417,image-keyboard-response,4
true,13,1,2,1,true,z,false,true,0.0-2.0-0.45-0.412-3.412,1,0,0,90,false,stim,false,1,959.5,0,1,0,88713,task2,1287475,false,false,1420,image-keyboard-response,5
true,13,1,2,1,true,z,false,true,0.0-2.0-0.45-0.413-3.413,1,0,0,90,false,stim,false,1,1091.7000000476837,0,1,0,88713,task2,1290097,false,false,1423,image-keyboard-response,6
true,13,1,2,1,true,z,false,true,0.0-2.0-0.46-0.414-3.414,1,0,0,90,false,stim,false,1,681.1000000238419,0,1,0,88713,task2,1292340,false,false,1426,image-keyboard-response,7
true,13,2,2,2,true,d,false,true,0.0-2.0-0.46-0.415-3.415,1,0,0,68,false,stim,false,1,1453.1000000238419,0,0,1,88713,task2,1295328,false,false,1429,image-keyboard-response,8
true,13,0,2,0,true,q,false,true,0.0-2.0-0.46-0.416-3.416,1,0,0,81,false,stim,false,2,754.8999999761581,0,0,2,88713,task2,1297638,false,false,1432,image-keyboard-response,9
true,13,1,2,1,true,z,false,true,0.0-2.0-0.46-0.417-3.417,1,0,0,90,false,stim,false,1,734.3000000715256,0,1,0,88713,task2,1299914,false,false,1435,image-keyboard-response,10
true,13,2,2,0,false,q,false,false,0.0-2.0-0.46-0.418-3.418,1,0,0,68,false,stim,true,2,1003.7999999523163,0,0,2,88713,task2,1302447,false,false,1438,image-keyboard-response,11
true,13,0,2,0,true,q,false,true,0.0-2.0-0.46-0.419-3.419,1,0,0,81,false,stim,false,2,743.0,0,0,2,88713,task2,1304733,false,false,1441,image-keyboard-response,12
true,13,1,2,1,true,z,false,true,0.0-2.0-0.46-0.420-3.420,1,0,0,90,false,stim,false,1,928.2000000476837,0,1,0,88713,task2,1307197,false,false,1444,image-keyboard-response,13
true,13,2,2,2,true,d,false,true,0.0-2.0-0.46-0.421-3.421,1,0,0,68,false,stim,false,1,587.1000000238419,0,0,1,88713,task2,1309317,false,false,1447,image-keyboard-response,14
true,13,2,2,2,true,d,false,true,0.0-2.0-0.46-0.422-3.422,1,0,0,68,false,stim,false,1,668.2000000476837,0,0,1,88713,task2,1311528,false,false,1450,image-keyboard-response,15
true,13,2,2,2,true,d,false,true,0.0-2.0-0.47-0.423-3.423,1,0,0,68,false,stim,false,1,660.3999999761581,0,0,1,88713,task2,1313718,false,false,1453,image-keyboard-response,16
true,13,0,2,0,true,q,false,true,0.0-2.0-0.47-0.424-3.424,1,0,0,81,false,stim,false,2,674.0,0,0,2,88713,task2,1315927,false,false,1456,image-keyboard-response,17
true,13,0,2,0,true,q,false,true,0.0-2.0-0.47-0.425-3.425,1,0,0,81,false,stim,false,2,517.7000000476837,0,0,2,88713,task2,1317974,false,false,1459,image-keyboard-response,18
true,13,2,2,2,true,d,false,false,0.0-2.0-0.47-0.426-3.426,1,0,0,68,false,stim,false,1,1072.3000000715256,0,0,1,88713,task2,1320575,false,true,1462,image-keyboard-response,19
true,13,1,2,2,false,d,false,false,0.0-2.0-0.47-0.427-3.427,1,0,0,90,false,stim,true,1,525.6999999284744,0,0,1,88713,task2,1322644,false,false,1465,image-keyboard-response,20
true,13,1,2,1,true,z,false,false,0.0-2.0-0.47-0.428-3.428,1,0,0,90,false,stim,false,1,898.5,0,1,0,88713,task2,1325073,false,true,1468,image-keyboard-response,21
true,13,2,2,1,false,z,true,false,0.0-2.0-0.47-0.429-3.429,1,0,0,68,false,stim,false,1,736.3000000715256,0,1,0,88713,task2,1327361,false,false,1471,image-keyboard-response,22
true,13,0,2,0,true,q,false,true,0.0-2.0-0.47-0.430-3.430,1,0,0,81,false,stim,false,2,812.6000000238419,0,0,2,88713,task2,1329718,false,false,1474,image-keyboard-response,23
true,13,0,2,1,false,z,true,false,0.0-2.0-0.47-0.431-3.431,1,0,0,81,false,stim,false,1,620.7999999523163,0,1,0,88713,task2,1331873,false,false,1477,image-keyboard-response,24
true,13,1,2,1,true,z,false,true,0.0-2.0-0.48-0.432-3.432,1,0,0,90,false,stim,false,1,773.6000000238419,0,1,0,88713,task2,1334205,false,false,1480,image-keyboard-response,25
true,13,0,2,0,true,q,false,true,0.0-2.0-0.48-0.433-3.433,1,0,0,81,false,stim,false,2,885.5999999046326,0,0,2,88713,task2,1336632,false,false,1483,image-keyboard-response,26
true,13,2,2,2,true,d,false,true,0.0-2.0-0.48-0.434-3.434,1,0,0,68,false,stim,false,1,792.1999999284744,0,0,1,88713,task2,1338978,false,false,1486,image-keyboard-response,27
true,13,1,2,0,false,q,true,false,0.0-2.0-0.48-0.435-3.435,1,0,0,90,false,stim,false,2,1423.5999999046326,0,0,2,88713,task2,1341955,false,false,1489,image-keyboard-response,28
true,13,1,2,1,true,z,false,true,0.0-2.0-0.48-0.436-3.436,1,0,0,90,false,stim,false,1,1011.5999999046326,0,1,0,88713,task2,1344507,false,false,1492,image-keyboard-response,29
true,13,1,2,1,true,z,false,true,0.0-2.0-0.48-0.437-3.437,1,0,0,90,false,stim,false,1,749.5,0,1,0,88713,task2,1346796,false,false,1495,image-keyboard-response,30
true,13,2,2,2,true,d,false,true,0.0-2.0-0.48-0.438-3.438,1,0,0,68,false,stim,false,1,962.8000000715256,0,1,1,88713,task2,1349300,false,false,1498,image-keyboard-response,31
true,13,0,2,0,true,q,false,true,0.0-2.0-0.48-0.439-3.439,1,0,0,81,false,stim,false,2,606.8999999761581,0,0,2,88713,task2,1351458,false,false,1501,image-keyboard-response,32
true,13,1,2,2,false,d,false,false,0.0-2.0-0.48-0.440-3.440,1,0,0,90,false,stim,true,1,1294.2999999523163,0,1,1,88713,task2,1354299,false,false,1504,image-keyboard-response,33
true,13,1,2,1,true,z,false,true,0.0-2.0-0.49-0.441-3.441,1,0,0,90,false,stim,false,1,1508.8999999761581,0,0,0,88713,task2,1357356,false,false,1507,image-keyboard-response,34
true,13,0,2,0,true,q,false,true,0.0-2.0-0.49-0.442-3.442,1,0,0,81,false,stim,false,2,718.1000000238419,0,0,2,88713,task2,1359609,false,false,1510,image-keyboard-response,35
true,14,0,2,1,false,z,false,false,0.0-2.0-0.49-0.443-3.443,0,1,0,81,true,stim,true,0,688.5,0,0,2,88713,task2,1361839,false,false,1513,image-keyboard-response,1
true,14,1,2,2,false,d,false,false,0.0-2.0-0.49-0.444-3.444,0,1,0,90,false,stim,true,1,1060.7000000476837,0,0,0,88713,task2,1364445,false,false,1516,image-keyboard-response,2
true,14,2,2,1,false,z,true,false,0.0-2.0-0.49-0.445-3.445,0,1,0,68,false,stim,false,0,1003.6000000238419,0,0,2,88713,task2,1366987,false,false,1519,image-keyboard-response,3
true,14,2,2,2,true,d,false,true,0.0-2.0-0.49-0.446-3.446,0,1,0,68,false,stim,false,2,1181.3999999761581,0,1,1,88713,task2,1369711,false,false,1522,image-keyboard-response,4
true,14,2,2,2,true,d,false,true,0.0-2.0-0.49-0.447-3.447,0,1,0,68,false,stim,false,1,1507.5,0,0,0,88713,task2,1372765,false,false,1525,image-keyboard-response,5
true,14,2,2,2,true,d,false,true,0.0-2.0-0.49-0.448-3.448,0,1,0,68,false,stim,false,2,900.1999999284744,0,1,1,88713,task2,1375219,false,false,1528,image-keyboard-response,6
true,14,2,2,2,true,d,false,true,0.0-2.0-0.49-0.449-3.449,0,1,0,68,false,stim,false,2,1261.3000000715256,0,1,1,88713,task2,1378031,false,false,1531,image-keyboard-response,7
true,14,2,2,2,true,d,false,true,0.0-2.0-0.50-0.450-3.450,0,1,0,68,false,stim,false,1,667.0999999046326,0,0,0,88713,task2,1380248,false,false,1534,image-keyboard-response,8
true,14,2,2,2,true,d,false,true,0.0-2.0-0.50-0.451-3.451,0,1,0,68,false,stim,false,2,772.5,0,1,1,88713,task2,1382566,false,false,1537,image-keyboard-response,9
true,14,2,2,2,true,d,false,true,0.0-2.0-0.50-0.452-3.452,0,1,0,68,false,stim,false,1,847.4000000953674,0,0,0,88713,task2,1384957,false,false,1540,image-keyboard-response,10
true,14,2,2,2,true,d,false,true,0.0-2.0-0.50-0.453-3.453,0,1,0,68,false,stim,false,2,612.5,0,1,1,88713,task2,1387099,false,false,1543,image-keyboard-response,11
true,14,2,2,1,false,z,true,false,0.0-2.0-0.50-0.454-3.454,0,1,0,68,false,stim,false,0,598.1000000238419,0,0,2,88713,task2,1389247,false,false,1546,image-keyboard-response,12
true,14,2,2,2,true,d,false,true,0.0-2.0-0.50-0.455-3.455,0,1,0,68,false,stim,false,1,690.1000000238419,0,0,0,88713,task2,1391471,false,false,1549,image-keyboard-response,13
true,14,1,2,1,true,z,false,true,0.0-2.0-0.50-0.456-3.456,0,1,0,90,false,stim,false,0,1356.6000000238419,0,0,2,88713,task2,1394366,false,false,1552,image-keyboard-response,14
true,14,1,2,1,true,z,false,true,0.0-2.0-0.50-0.457-3.457,0,1,0,90,false,stim,false,0,679.2999999523163,0,0,2,88713,task2,1396600,false,false,1555,image-keyboard-response,15
true,14,2,2,2,true,d,false,true,0.0-2.0-0.50-0.458-3.458,0,1,0,68,false,stim,false,2,711.3999999761581,0,1,1,88713,task2,1398848,false,false,1558,image-keyboard-response,16
true,14,2,2,2,true,d,false,true,0.0-2.0-0.51-0.459-3.459,0,1,0,68,false,stim,false,1,721.1999999284744,0,0,0,88713,task2,1401118,false,false,1561,image-keyboard-response,17
true,14,2,2,2,true,d,false,true,0.0-2.0-0.51-0.460-3.460,0,1,0,68,false,stim,false,2,696.3999999761581,0,1,1,88713,task2,1403362,false,false,1564,image-keyboard-response,18
true,14,2,2,2,true,d,false,true,0.0-2.0-0.51-0.461-3.461,0,1,0,68,false,stim,false,1,914.1000000238419,0,0,0,88713,task2,1405820,false,false,1567,image-keyboard-response,19
true,14,2,2,2,true,d,false,true,0.0-2.0-0.51-0.462-3.462,0,1,0,68,false,stim,false,2,768.6000000238419,0,1,1,88713,task2,1408122,false,false,1570,image-keyboard-response,20
true,14,1,2,1,true,z,false,true,0.0-2.0-0.51-0.463-3.463,0,1,0,90,false,stim,false,0,1051.8999999761581,0,0,2,88713,task2,1410718,false,false,1573,image-keyboard-response,21
true,14,2,2,2,true,d,false,true,0.0-2.0-0.51-0.464-3.464,0,1,0,68,false,stim,false,1,651.1000000238419,0,0,0,88713,task2,1412935,false,false,1576,image-keyboard-response,22
true,14,2,2,2,true,d,false,true,0.0-2.0-0.51-0.465-3.465,0,1,0,68,false,stim,false,2,1220.5,0,1,1,88713,task2,1415698,false,false,1579,image-keyboard-response,23
true,14,1,2,1,true,z,false,true,0.0-2.0-0.51-0.466-3.466,0,1,0,90,false,stim,false,0,892.0999999046326,0,0,2,88713,task2,1418131,false,false,1582,image-keyboard-response,24
true,14,1,2,1,true,z,false,true,0.0-2.0-0.51-0.467-3.467,0,1,0,90,false,stim,false,0,599.3999999761581,0,0,2,88713,task2,1420268,false,false,1585,image-keyboard-response,25
true,14,2,2,2,true,d,false,true,0.0-2.0-0.52-0.468-3.468,0,1,0,68,false,stim,false,2,1060.0,0,1,1,88713,task2,1422890,false,false,1588,image-keyboard-response,26
true,14,1,2,1,true,z,false,true,0.0-2.0-0.52-0.469-3.469,0,1,0,90,false,stim,false,0,774.7000000476837,0,0,2,88713,task2,1425205,false,false,1591,image-keyboard-response,27
true,14,1,2,1,true,z,false,true,0.0-2.0-0.52-0.470-3.470,0,1,0,90,false,stim,false,0,1065.7000000476837,0,0,2,88713,task2,1427822,false,false,1594,image-keyboard-response,28
true,14,1,2,1,true,z,false,true,0.0-2.0-0.52-0.471-3.471,0,1,0,90,false,stim,false,0,677.6000000238419,0,0,2,88713,task2,1430046,false,false,1597,image-keyboard-response,29
true,14,2,2,2,true,d,false,true,0.0-2.0-0.52-0.472-3.472,0,1,0,68,false,stim,false,1,934.6000000238419,0,1,0,88713,task2,1432518,false,false,1600,image-keyboard-response,30
true,14,2,2,2,true,d,false,true,0.0-2.0-0.52-0.473-3.473,0,1,0,68,false,stim,false,2,528.2999999523163,0,0,1,88713,task2,1434619,false,false,1603,image-keyboard-response,31
true,15,2,2,2,true,d,false,true,0.0-2.0-0.52-0.474-3.474,1,0,0,68,true,stim,false,2,637.3999999761581,0,1,0,88713,task2,1436799,false,false,1606,image-keyboard-response,1
true,15,2,2,2,true,d,false,true,0.0-2.0-0.52-0.475-3.475,1,0,0,68,false,stim,false,2,512.6000000238419,0,1,0,88713,task2,1438859,false,false,1609,image-keyboard-response,2
true,15,2,2,0,false,q,false,false,0.0-2.0-0.52-0.476-3.476,1,0,0,68,false,stim,true,2,680.2999999523163,0,0,1,88713,task2,1441102,false,false,1612,image-keyboard-response,3
true,15,2,2,2,true,d,false,true,0.0-2.0-0.53-0.477-3.477,1,0,0,68,false,stim,false,2,2093.1999999284744,0,1,0,88713,task2,1444745,false,false,1615,image-keyboard-response,4
true,15,2,2,2,true,d,false,true,0.0-2.0-0.53-0.478-3.478,1,0,0,68,false,stim,false,1,767.3000000715256,0,0,2,88713,task2,1447045,false,false,1618,image-keyboard-response,5
true,15,2,2,0,false,q,false,false,0.0-2.0-0.53-0.479-3.479,1,0,0,68,false,stim,true,2,1011.3999999761581,0,0,1,88713,task2,1449573,false,false,1621,image-keyboard-response,6
true,15,1,2,0,false,q,true,false,0.0-2.0-0.53-0.480-3.480,1,0,0,90,false,stim,false,2,618.8000000715256,0,0,1,88713,task2,1451728,false,false,1624,image-keyboard-response,7
true,15,2,2,2,true,d,false,true,0.0-2.0-0.53-0.481-3.481,1,0,0,68,false,stim,false,2,921.1000000238419,0,1,0,88713,task2,1454175,false,false,1627,image-keyboard-response,8
true,15,2,2,2,true,d,false,true,0.0-2.0-0.53-0.482-3.482,1,0,0,68,false,stim,false,1,1037.3999999761581,0,0,2,88713,task2,1456738,false,false,1630,image-keyboard-response,9
true,15,2,2,0,false,q,false,true,0.0-2.0-0.53-0.483-3.483,1,0,0,68,false,stim,true,2,874.9000000953674,0,0,1,88713,task2,1459133,false,true,1633,image-keyboard-response,10
true,15,2,2,2,true,d,false,true,0.0-2.0-0.53-0.484-3.484,1,0,0,68,false,stim,false,2,629.6000000238419,0,1,0,88713,task2,1461299,false,false,1636,image-keyboard-response,11
true,15,0,2,2,false,d,true,false,0.0-2.0-0.53-0.485-3.485,1,0,0,81,false,stim,false,1,1247.6000000238419,0,0,2,88713,task2,1464087,false,false,1639,image-keyboard-response,12
true,15,2,2,2,true,d,false,true,0.0-2.0-0.54-0.486-3.486,1,0,0,68,false,stim,false,1,1029.7000000476837,0,0,2,88713,task2,1466647,false,false,1642,image-keyboard-response,13
true,15,2,2,2,true,d,false,true,0.0-2.0-0.54-0.487-3.487,1,0,0,68,false,stim,false,2,540.2000000476837,0,1,0,88713,task2,1468736,false,false,1645,image-keyboard-response,14
true,15,2,2,2,true,d,false,false,0.0-2.0-0.54-0.488-3.488,1,0,0,68,false,stim,false,2,668.6999999284744,0,1,0,88713,task2,1470962,false,true,1648,image-keyboard-response,15
true,15,2,2,2,true,d,false,true,0.0-2.0-0.54-0.489-3.489,1,0,0,68,false,stim,false,1,1601.2999999523163,0,0,2,88713,task2,1474111,false,false,1651,image-keyboard-response,16
true,15,2,2,0,false,q,false,false,0.0-2.0-0.54-0.490-3.490,1,0,0,68,false,stim,true,2,1630.8999999761581,0,0,1,88713,task2,1477280,false,false,1654,image-keyboard-response,17
true,15,0,2,2,false,d,true,false,0.0-2.0-0.54-0.491-3.491,1,0,0,81,false,stim,false,2,1170.0,0,1,0,88713,task2,1479987,false,false,1657,image-keyboard-response,18
true,15,1,2,0,false,q,true,false,0.0-2.0-0.54-0.492-3.492,1,0,0,90,false,stim,false,2,1240.2999999523163,0,0,1,88713,task2,1482783,false,false,1660,image-keyboard-response,19
true,15,2,2,0,false,q,false,false,0.0-2.0-0.54-0.493-3.493,1,0,0,68,false,stim,true,2,925.1000000238419,0,0,1,88713,task2,1485246,false,false,1663,image-keyboard-response,20
true,15,1,2,2,false,d,false,false,0.0-2.0-0.54-0.494-3.494,1,0,0,90,false,stim,true,1,1493.8999999761581,0,0,2,88713,task2,1488297,false,false,1666,image-keyboard-response,21
true,15,0,2,0,true,q,false,false,0.0-2.0-0.55-0.495-3.495,1,0,0,81,false,stim,false,2,1026.6000000238419,0,0,1,88713,task2,1490874,false,true,1669,image-keyboard-response,22
true,15,2,2,2,true,d,false,true,0.0-2.0-0.55-0.496-3.496,1,0,0,68,false,stim,false,2,1066.6000000238419,0,1,0,88713,task2,1493489,false,false,1672,image-keyboard-response,23
true,15,2,2,2,true,d,false,true,0.0-2.0-0.55-0.497-3.497,1,0,0,68,false,stim,false,2,669.6000000238419,0,1,0,88713,task2,1495690,false,false,1675,image-keyboard-response,24
true,15,2,2,2,true,d,false,true,0.0-2.0-0.55-0.498-3.498,1,0,0,68,false,stim,false,1,1344.6999999284744,0,0,2,88713,task2,1498570,false,false,1678,image-keyboard-response,25
true,15,2,2,2,true,d,false,true,0.0-2.0-0.55-0.499-3.499,1,0,0,68,false,stim,false,2,684.0,0,1,0,88713,task2,1500820,false,false,1681,image-keyboard-response,26
true,15,2,2,2,true,d,false,true,0.0-2.0-0.55-0.500-3.500,1,0,0,68,false,stim,false,1,760.2000000476837,0,0,2,88713,task2,1503125,false,false,1684,image-keyboard-response,27
true,15,2,2,0,false,q,false,false,0.0-2.0-0.55-0.501-3.501,1,0,0,68,false,stim,true,2,673.0,0,0,1,88713,task2,1505337,false,false,1687,image-keyboard-response,28
true,15,0,2,0,true,q,false,true,0.0-2.0-0.55-0.502-3.502,1,0,0,81,false,stim,false,2,936.1999999284744,0,0,1,88713,task2,1507827,false,false,1690,image-keyboard-response,29
true,15,2,2,2,true,d,false,true,0.0-2.0-0.55-0.503-3.503,1,0,0,68,false,stim,false,1,877.2000000476837,0,0,2,88713,task2,1510250,false,false,1693,image-keyboard-response,30
true,15,2,2,2,true,d,false,true,0.0-2.0-0.56-0.504-3.504,1,0,0,68,false,stim,false,1,655.1000000238419,0,1,2,88713,task2,1512454,false,false,1696,image-keyboard-response,31
true,15,2,2,2,true,d,false,true,0.0-2.0-0.56-0.505-3.505,1,0,0,68,false,stim,false,1,592.0,0,1,2,88713,task2,1514607,false,false,1699,image-keyboard-response,32
true,15,0,2,2,false,d,true,false,0.0-2.0-0.56-0.506-3.506,1,0,0,81,false,stim,false,2,751.2000000476837,0,1,0,88713,task2,1516989,false,false,1702,image-keyboard-response,33
true,15,2,2,2,true,d,false,true,0.0-2.0-0.56-0.507-3.507,1,0,0,68,false,stim,false,2,743.3999999761581,0,1,0,88713,task2,1519285,false,false,1705,image-keyboard-response,34
true,15,2,2,2,true,d,false,false,0.0-2.0-0.56-0.508-3.508,1,0,0,68,false,stim,false,1,670.6000000238419,0,1,2,88713,task2,1521505,false,true,1708,image-keyboard-response,35
true,16,0,0,0,true,q,false,true,0.0-2.0-0.56-0.509-3.509,1,1,1,81,true,stim,false,0,2462.4000000953674,0,1,1,88713,task2,1576674,false,false,1762,image-keyboard-response,1
true,16,0,0,0,true,q,false,true,0.0-2.0-0.56-0.510-3.510,1,1,1,81,false,stim,false,0,1830.7000000476837,0,1,1,88713,task2,1580041,false,false,1765,image-keyboard-response,2
true,16,0,0,0,true,q,false,false,0.0-2.0-0.56-0.511-3.511,1,1,1,81,false,stim,false,0,1240.6000000238419,0,1,1,88713,task2,1582844,false,true,1768,image-keyboard-response,3
true,16,1,0,2,false,d,true,false,0.0-2.0-0.56-0.512-3.512,1,1,1,90,false,stim,false,2,2128.7000000476837,0,1,0,88713,task2,1586525,false,false,1771,image-keyboard-response,4
true,16,2,0,2,true,d,false,true,0.0-2.0-0.57-0.513-3.513,1,1,1,68,false,stim,false,2,2261.0,0,1,0,88713,task2,1590339,false,false,1774,image-keyboard-response,5
true,16,0,0,2,false,d,true,false,0.0-2.0-0.57-0.514-3.514,1,1,1,81,false,stim,false,2,1501.6000000238419,0,1,2,88713,task2,1593391,false,false,1777,image-keyboard-response,6
true,16,2,0,2,true,d,false,true,0.0-2.0-0.57-0.515-3.515,1,1,1,68,false,stim,false,2,1423.5,0,1,0,88713,task2,1596358,false,false,1780,image-keyboard-response,7
true,16,2,0,0,false,q,true,false,0.0-2.0-0.57-0.516-3.516,1,1,1,68,false,stim,false,0,1951.2999999523163,0,1,1,88713,task2,1599861,false,false,1783,image-keyboard-response,8
true,16,2,0,2,true,d,false,true,0.0-2.0-0.57-0.517-3.517,1,1,1,68,false,stim,false,2,1702.3999999761581,0,0,2,88713,task2,1603110,false,false,1786,image-keyboard-response,9
true,16,2,0,2,true,d,false,true,0.0-2.0-0.57-0.518-3.518,1,1,1,68,false,stim,false,2,1178.0999999046326,0,0,2,88713,task2,1605830,false,false,1789,image-keyboard-response,10
true,16,2,0,0,false,q,true,false,0.0-2.0-0.57-0.519-3.519,1,1,1,68,false,stim,false,0,1540.6999999284744,0,0,1,88713,task2,1608904,false,false,1792,image-keyboard-response,11
true,16,1,0,0,false,q,true,false,0.0-2.0-0.57-0.520-3.520,1,1,1,90,false,stim,false,0,1148.2999999523163,0,0,1,88713,task2,1611589,false,false,1795,image-keyboard-response,12
true,16,2,0,2,true,d,false,true,0.0-2.0-0.57-0.521-3.521,1,1,1,68,false,stim,false,2,1378.5,0,0,0,88713,task2,1614520,false,false,1798,image-keyboard-response,13
true,17,2,1,0,false,q,false,false,0.0-2.0-0.58-0.522-3.522,0,0,0,68,true,stim,true,2,657.0,0,0,0,88713,task2,1616765,false,false,1801,image-keyboard-response,1
true,17,0,1,0,true,q,false,true,0.0-2.0-0.58-0.523-3.523,0,0,0,81,false,stim,false,2,1407.7000000476837,0,0,0,88713,task2,1619708,false,false,1804,image-keyboard-response,2
true,17,2,1,1,false,z,true,false,0.0-2.0-0.58-0.524-3.524,0,0,0,68,false,stim,false,0,1263.0,0,0,1,88713,task2,1622527,false,false,1807,image-keyboard-response,3
true,17,1,1,1,true,z,false,false,0.0-2.0-0.58-0.525-3.525,0,0,0,90,false,stim,false,0,855.1000000238419,0,0,1,88713,task2,1624915,false,true,1810,image-keyboard-response,4
true,17,0,1,1,false,z,false,false,0.0-2.0-0.58-0.526-3.526,0,0,0,81,false,stim,true,0,551.6000000238419,0,0,1,88713,task2,1627008,false,false,1813,image-keyboard-response,5
true,17,0,1,0,true,q,false,true,0.0-2.0-0.58-0.527-3.527,0,0,0,81,false,stim,false,2,1058.3999999761581,0,0,2,88713,task2,1629609,false,false,1816,image-keyboard-response,6
true,17,0,1,0,true,q,false,false,0.0-2.0-0.58-0.528-3.528,0,0,0,81,false,stim,false,2,1185.5,0,0,0,88713,task2,1632349,false,true,1819,image-keyboard-response,7
true,17,0,1,0,true,q,false,true,0.0-2.0-0.58-0.529-3.529,0,0,0,81,false,stim,false,2,1019.7000000476837,0,0,2,88713,task2,1634932,false,false,1822,image-keyboard-response,8
true,17,0,1,0,true,q,false,true,0.0-2.0-0.58-0.530-3.530,0,0,0,81,false,stim,false,2,656.5,0,0,2,88713,task2,1637148,false,false,1825,image-keyboard-response,9
true,17,0,1,0,true,q,false,true,0.0-2.0-0.59-0.531-3.531,0,0,0,81,false,stim,false,2,573.6999999284744,0,0,2,88713,task2,1639263,false,false,1828,image-keyboard-response,10
true,17,2,1,1,false,z,true,true,0.0-2.0-0.59-0.532-3.532,0,0,0,68,false,stim,false,0,1324.4000000953674,0,0,1,88713,task2,1642125,false,true,1831,image-keyboard-response,11
true,17,2,1,1,false,z,true,false,0.0-2.0-0.59-0.533-3.533,0,0,0,68,false,stim,false,0,659.8999999761581,0,0,1,88713,task2,1644341,false,false,1834,image-keyboard-response,12
true,17,2,1,0,false,q,false,false,0.0-2.0-0.59-0.534-3.534,0,0,0,68,false,stim,true,2,1019.8999999761581,0,0,0,88713,task2,1646911,false,false,1837,image-keyboard-response,13
true,17,1,1,0,false,q,true,false,0.0-2.0-0.59-0.535-3.535,0,0,0,90,false,stim,false,2,997.1999999284744,0,0,0,88713,task2,1649453,false,false,1840,image-keyboard-response,14
true,17,0,1,0,true,q,false,true,0.0-2.0-0.59-0.536-3.536,0,0,0,81,false,stim,false,2,775.6000000238419,0,0,2,88713,task2,1651777,false,false,1843,image-keyboard-response,15
true,17,0,1,0,true,q,false,false,0.0-2.0-0.59-0.537-3.537,0,0,0,81,false,stim,false,2,571.5,0,0,0,88713,task2,1653890,false,true,1846,image-keyboard-response,16
true,17,0,1,1,false,z,false,false,0.0-2.0-0.59-0.538-3.538,0,0,0,81,false,stim,true,0,930.5,0,0,1,88713,task2,1656372,false,false,1849,image-keyboard-response,17
true,17,0,1,0,true,q,false,true,0.0-2.0-0.59-0.539-3.539,0,0,0,81,false,stim,false,2,1035.2000000476837,0,0,2,88713,task2,1658949,false,false,1852,image-keyboard-response,18
true,17,1,1,0,false,q,true,false,0.0-2.0-0.60-0.540-3.540,0,0,0,90,false,stim,false,2,678.7000000476837,0,0,0,88713,task2,1661181,false,false,1855,image-keyboard-response,19
true,17,0,1,0,true,q,false,true,0.0-2.0-0.60-0.541-3.541,0,0,0,81,false,stim,false,2,701.5,0,0,2,88713,task2,1663432,false,false,1858,image-keyboard-response,20
true,17,0,1,1,false,z,false,false,0.0-2.0-0.60-0.542-3.542,0,0,0,81,false,stim,true,0,1886.9000000953674,0,0,1,88713,task2,1666882,false,false,1861,image-keyboard-response,21
true,17,0,1,0,true,q,false,true,0.0-2.0-0.60-0.543-3.543,0,0,0,81,false,stim,false,2,637.2000000476837,0,0,2,88713,task2,1669066,false,false,1864,image-keyboard-response,22
true,17,0,1,0,true,q,false,false,0.0-2.0-0.60-0.544-3.544,0,0,0,81,false,stim,false,2,766.6000000238419,0,0,2,88713,task2,1671385,false,true,1867,image-keyboard-response,23
true,17,1,1,1,true,z,false,true,0.0-2.0-0.60-0.545-3.545,0,0,0,90,false,stim,false,0,788.2000000476837,0,0,1,88713,task2,1673726,false,false,1870,image-keyboard-response,24
true,17,1,1,1,true,z,false,true,0.0-2.0-0.60-0.546-3.546,0,0,0,90,false,stim,false,0,552.5,0,0,1,88713,task2,1675832,false,false,1873,image-keyboard-response,25
true,17,2,1,0,false,q,false,true,0.0-2.0-0.60-0.547-3.547,0,0,0,68,false,stim,true,2,1047.5,0,0,0,88713,task2,1678426,false,true,1876,image-keyboard-response,26
true,17,2,1,0,false,q,false,false,0.0-2.0-0.60-0.548-3.548,0,0,0,68,false,stim,true,2,815.1000000238419,0,0,0,88713,task2,1680797,false,false,1879,image-keyboard-response,27
true,17,0,1,0,true,q,false,true,0.0-2.0-0.61-0.549-3.549,0,0,0,81,false,stim,false,2,1334.3000000715256,0,0,0,88713,task2,1683678,false,false,1882,image-keyboard-response,28
true,17,1,1,1,true,z,false,true,0.0-2.0-0.61-0.550-3.550,0,0,0,90,false,stim,false,0,730.6999999284744,0,0,1,88713,task2,1685954,false,false,1885,image-keyboard-response,29
true,17,1,1,1,true,z,false,true,0.0-2.0-0.61-0.551-3.551,0,0,0,90,false,stim,false,0,1287.0,0,0,1,88713,task2,1688807,false,false,1888,image-keyboard-response,30
true,17,2,1,0,false,q,false,true,0.0-2.0-0.61-0.552-3.552,0,0,0,68,false,stim,true,2,1329.1000000238419,0,0,2,88713,task2,1691680,false,true,1891,image-keyboard-response,31
true,17,0,1,0,true,q,false,false,0.0-2.0-0.61-0.553-3.553,0,0,0,81,false,stim,false,2,928.5999999046326,0,0,0,88713,task2,1694150,false,true,1894,image-keyboard-response,32
true,17,1,1,0,false,q,true,true,0.0-2.0-0.61-0.554-3.554,0,0,0,90,false,stim,false,2,954.7000000476837,0,0,0,88713,task2,1696659,false,true,1897,image-keyboard-response,33
true,17,2,1,0,false,q,false,false,0.0-2.0-0.61-0.555-3.555,0,0,0,68,false,stim,true,2,947.1999999284744,0,0,2,88713,task2,1699161,false,false,1900,image-keyboard-response,34
true,18,1,1,2,false,d,false,true,0.0-2.0-0.61-0.556-3.556,0,0,0,90,true,stim,true,1,1058.3000000715256,0,0,1,88713,task2,1701817,false,true,1903,image-keyboard-response,1
true,18,0,1,1,false,z,false,false,0.0-2.0-0.61-0.557-3.557,0,0,0,81,false,stim,true,0,1179.1000000238419,0,0,2,88713,task2,1704540,false,false,1906,image-keyboard-response,2
true,18,1,1,2,false,d,false,false,0.0-2.0-0.62-0.558-3.558,0,0,0,90,false,stim,true,1,620.5,0,0,1,88713,task2,1706712,false,false,1909,image-keyboard-response,3
true,18,2,1,1,false,z,true,false,0.0-2.0-0.62-0.559-3.559,0,0,0,68,false,stim,false,0,1754.7000000476837,0,0,2,88713,task2,1710025,false,false,1912,image-keyboard-response,4
true,18,2,1,1,false,z,true,false,0.0-2.0-0.62-0.560-3.560,0,0,0,68,false,stim,false,0,919.8000000715256,0,0,0,88713,task2,1712504,false,false,1915,image-keyboard-response,5
true,18,0,1,1,false,z,false,false,0.0-2.0-0.62-0.561-3.561,0,0,0,81,false,stim,true,0,1317.0999999046326,0,0,0,88713,task2,1715378,false,false,1918,image-keyboard-response,6
true,18,0,1,1,false,z,false,false,0.0-2.0-0.62-0.562-3.562,0,0,0,81,false,stim,true,0,1160.7000000476837,0,0,2,88713,task2,1718100,false,false,1921,image-keyboard-response,7
true,18,1,1,2,false,d,false,false,0.0-2.0-0.62-0.563-3.563,0,0,0,90,false,stim,true,1,1180.3999999761581,0,0,1,88713,task2,1720836,false,false,1924,image-keyboard-response,8
true,18,1,1,1,true,z,false,true,0.0-2.0-0.62-0.564-3.564,0,0,0,90,false,stim,false,0,1258.2000000476837,0,0,2,88713,task2,1723655,false,false,1927,image-keyboard-response,9
true,18,2,1,2,true,d,false,true,0.0-2.0-0.62-0.565-3.565,0,0,0,68,false,stim,false,1,821.0,0,0,1,88713,task2,1726032,false,false,1930,image-keyboard-response,10
true,18,0,1,1,false,z,false,false,0.0-2.0-0.62-0.566-3.566,0,0,0,81,false,stim,true,0,843.0,0,0,0,88713,task2,1728425,false,false,1933,image-keyboard-response,11
true,18,1,1,1,true,z,false,true,0.0-2.0-0.63-0.567-3.567,0,0,0,90,false,stim,false,0,774.0,0,0,2,88713,task2,1730759,false,false,1936,image-keyboard-response,12
true,18,2,1,2,true,d,false,true,0.0-2.0-0.63-0.568-3.568,0,0,0,68,false,stim,false,1,537.7000000476837,0,0,1,88713,task2,1732837,false,false,1939,image-keyboard-response,13
true,18,2,1,1,false,z,true,false,0.0-2.0-0.63-0.569-3.569,0,0,0,68,false,stim,false,0,627.2999999523163,0,0,0,88713,task2,1735022,false,false,1942,image-keyboard-response,14
true,18,1,1,1,true,z,false,true,0.0-2.0-0.63-0.570-3.570,0,0,0,90,false,stim,false,0,728.3000000715256,0,0,2,88713,task2,1737304,false,false,1945,image-keyboard-response,15
true,18,1,1,1,true,z,false,false,0.0-2.0-0.63-0.571-3.571,0,0,0,90,false,stim,false,0,772.5,0,0,2,88713,task2,1739628,false,true,1948,image-keyboard-response,16
true,18,2,1,1,false,z,true,false,0.0-2.0-0.63-0.572-3.572,0,0,0,68,false,stim,false,0,1730.2000000476837,0,0,0,88713,task2,1742916,false,false,1951,image-keyboard-response,17
true,18,2,1,2,true,d,false,true,0.0-2.0-0.63-0.573-3.573,0,0,0,68,false,stim,false,1,1229.0,0,0,1,88713,task2,1745697,false,false,1954,image-keyboard-response,18
true,18,1,1,1,true,z,false,true,0.0-2.0-0.63-0.574-3.574,0,0,0,90,false,stim,false,0,1313.0,0,0,0,88713,task2,1748571,false,false,1957,image-keyboard-response,19
true,18,2,1,2,true,d,false,false,0.0-2.0-0.63-0.575-3.575,0,0,0,68,false,stim,false,1,826.2000000476837,0,0,1,88713,task2,1750949,false,true,1960,image-keyboard-response,20
true,18,1,1,2,false,d,false,false,0.0-2.0-0.64-0.576-3.576,0,0,0,90,false,stim,true,1,1176.6000000238419,0,0,1,88713,task2,1753677,false,false,1963,image-keyboard-response,21
true,18,1,1,1,true,z,false,true,0.0-2.0-0.64-0.577-3.577,0,0,0,90,false,stim,false,0,970.1000000238419,0,0,0,88713,task2,1756198,false,false,1966,image-keyboard-response,22
true,18,1,1,2,false,d,false,false,0.0-2.0-0.64-0.578-3.578,0,0,0,90,false,stim,true,1,2035.5,0,0,1,88713,task2,1759780,false,false,1969,image-keyboard-response,23
true,18,2,1,2,true,d,false,false,0.0-2.0-0.64-0.579-3.579,0,0,0,68,false,stim,false,1,1256.3999999761581,0,0,1,88713,task2,1762577,false,true,1972,image-keyboard-response,24
true,18,2,1,1,false,z,true,false,0.0-2.0-0.64-0.580-3.580,0,0,0,68,false,stim,false,0,1740.1000000238419,0,0,2,88713,task2,1765874,false,false,1975,image-keyboard-response,25
true,18,1,1,1,true,z,false,true,0.0-2.0-0.64-0.581-3.581,0,0,0,90,false,stim,false,0,968.6999999284744,0,0,2,88713,task2,1768379,false,false,1978,image-keyboard-response,26
true,18,1,1,1,true,z,false,true,0.0-2.0-0.64-0.582-3.582,0,0,0,90,false,stim,false,0,1028.1000000238419,0,0,0,88713,task2,1770938,false,false,1981,image-keyboard-response,27
true,18,1,1,1,true,z,false,true,0.0-2.0-0.64-0.583-3.583,0,0,0,90,false,stim,false,0,705.6999999284744,0,0,2,88713,task2,1773191,false,false,1984,image-keyboard-response,28
true,18,1,1,1,true,z,false,true,0.0-2.0-0.64-0.584-3.584,0,0,0,90,false,stim,false,0,695.1000000238419,0,0,0,88713,task2,1775444,false,false,1987,image-keyboard-response,29
true,18,1,1,1,true,z,false,true,0.0-2.0-0.65-0.585-3.585,0,0,0,90,false,stim,false,0,621.5999999046326,0,0,2,88713,task2,1777617,false,false,1990,image-keyboard-response,30
true,18,1,1,1,true,z,false,true,0.0-2.0-0.65-0.586-3.586,0,0,0,90,false,stim,false,0,539.0,0,0,0,88713,task2,1779715,false,false,1993,image-keyboard-response,31
true,18,1,1,1,true,z,false,true,0.0-2.0-0.65-0.587-3.587,0,0,0,90,false,stim,false,0,514.5,0,0,0,88713,task2,1781770,false,false,1996,image-keyboard-response,32
true,18,1,1,1,true,z,false,true,0.0-2.0-0.65-0.588-3.588,0,0,0,90,false,stim,false,0,479.10000002384186,0,0,2,88713,task2,1783797,false,false,1999,image-keyboard-response,33
