answered,blockNum,choice,condition,corResp,correct,correct_response,explo,fb,internal_node_id,isStable_1,isStable_2,isStable_3,key_press,newBlock,part,persev,persevResp,rt,sessNum,stableAS,stimulus,subject,task,time_elapsed,training,trap,trial_index,trial_type,trialsInBlock
true,1,1,0,2,false,d,true,false,0.0-2.0-0.0-0.0-3.0,0,0,0,90,true,stim,false,-1,1668.7999999523163,0,0,2,90166,task3,176276,false,false,139,image-keyboard-response,1
true,1,0,0,0,true,q,false,true,0.0-2.0-0.0-0.1-3.1,0,0,0,81,false,stim,false,-1,744.0,0,0,1,90166,task3,178535,false,false,142,image-keyboard-response,2
true,1,2,0,1,false,z,true,false,0.0-2.0-0.0-0.2-3.2,0,0,0,68,false,stim,false,-1,1733.0,0,0,0,90166,task3,181781,false,false,145,image-keyboard-response,3
true,1,0,0,0,true,q,false,true,0.0-2.0-0.0-0.3-3.3,0,0,0,81,false,stim,false,-1,800.5999999046326,0,0,1,90166,task3,184095,false,false,148,image-keyboard-response,4
true,1,1,0,1,true,z,false,true,0.0-2.0-0.0-0.4-3.4,0,0,0,90,false,stim,false,-1,1851.0,0,0,0,90166,task3,187459,false,false,151,image-keyboard-response,5
true,1,2,0,2,true,d,false,true,0.0-2.0-0.0-0.5-3.5,0,0,0,68,false,stim,false,-1,2589.2999999523163,0,0,2,90166,task3,191556,false,false,154,image-keyboard-response,6
true,1,1,0,1,true,z,false,true,0.0-2.0-0.0-0.6-3.6,0,0,0,90,false,stim,false,-1,1183.0999999046326,0,0,0,90166,task3,194253,false,false,157,image-keyboard-response,7
true,1,0,0,0,true,q,false,true,0.0-2.0-0.0-0.7-3.7,0,0,0,81,false,stim,false,-1,461.19999980926514,0,0,1,90166,task3,196227,false,false,160,image-keyboard-response,8
true,1,2,0,2,true,d,false,true,0.0-2.0-0.0-0.8-3.8,0,0,0,68,false,stim,false,-1,620.8999998569489,0,0,2,90166,task3,198362,false,false,163,image-keyboard-response,9
true,1,1,0,1,true,z,false,true,0.0-2.0-0.1-0.9-3.9,0,0,0,90,false,stim,false,-1,1550.5,0,0,0,90166,task3,201426,false,false,166,image-keyboard-response,10
true,1,2,0,2,true,d,false,true,0.0-2.0-0.1-0.10-3.10,0,0,0,68,false,stim,false,-1,833.0,0,0,2,90166,task3,203772,false,false,169,image-keyboard-response,11
true,1,1,0,0,false,q,true,true,0.0-2.0-0.1-0.11-3.11,0,0,0,90,false,stim,false,-1,923.7000000476837,0,0,1,90166,task3,206209,false,true,172,image-keyboard-response,12
true,1,1,0,0,false,q,true,false,0.0-2.0-0.1-0.12-3.12,0,0,0,90,false,stim,false,-1,1140.0,0,0,1,90166,task3,208864,false,false,175,image-keyboard-response,13
true,1,1,0,1,true,z,false,true,0.0-2.0-0.1-0.13-3.13,0,0,0,90,false,stim,false,-1,1354.1000001430511,0,0,0,90166,task3,211731,false,false,178,image-keyboard-response,14
true,1,0,0,2,false,d,true,true,0.0-2.0-0.1-0.14-3.14,0,0,0,81,false,stim,false,-1,1152.0999999046326,0,0,2,90166,task3,214397,false,true,181,image-keyboard-response,15
true,1,2,0,1,false,z,true,false,0.0-2.0-0.1-0.15-3.15,0,0,0,68,false,stim,false,-1,785.0,0,0,0,90166,task3,216697,false,false,184,image-keyboard-response,16
true,1,0,0,2,false,d,true,false,0.0-2.0-0.1-0.16-3.16,0,0,0,81,false,stim,false,-1,972.2999999523163,0,0,2,90166,task3,219180,false,false,187,image-keyboard-response,17
true,1,2,0,0,false,q,true,false,0.0-2.0-0.1-0.17-3.17,0,0,0,68,false,stim,false,-1,1943.2000000476837,0,0,1,90166,task3,222637,false,false,190,image-keyboard-response,18
true,1,1,0,0,false,q,true,false,0.0-2.0-0.2-0.18-3.18,0,0,0,90,false,stim,false,-1,953.4000000953674,0,0,1,90166,task3,225104,false,false,193,image-keyboard-response,19
true,1,0,0,2,false,d,true,false,0.0-2.0-0.2-0.19-3.19,0,0,0,81,false,stim,false,-1,1758.7000000476837,0,0,2,90166,task3,228376,false,false,196,image-keyboard-response,20
true,1,1,0,1,true,z,false,false,0.0-2.0-0.2-0.20-3.20,0,0,0,90,false,stim,false,-1,1320.0,0,0,0,90166,task3,231210,false,true,199,image-keyboard-response,21
true,1,0,0,0,true,q,false,true,0.0-2.0-0.2-0.21-3.21,0,0,0,81,false,stim,false,-1,1511.2000000476837,0,0,1,90166,task3,234237,false,false,202,image-keyboard-response,22
true,1,0,0,0,true,q,false,true,0.0-2.0-0.2-0.22-3.22,0,0,0,81,false,stim,false,-1,755.4000000953674,0,0,1,90166,task3,236507,false,false,205,image-keyboard-response,23
true,1,1,0,1,true,z,false,true,0.0-2.0-0.2-0.23-3.23,0,0,0,90,false,stim,false,-1,1092.3000001907349,0,0,0,90166,task3,239109,false,false,208,image-keyboard-response,24
true,1,2,0,2,true,d,false,true,0.0-2.0-0.2-0.24-3.24,0,0,0,68,false,stim,false,-1,869.8999998569489,0,1,2,90166,task3,241492,false,false,211,image-keyboard-response,25
true,1,1,0,1,true,z,false,true,0.0-2.0-0.2-0.25-3.25,0,0,0,90,false,stim,false,-1,1312.2999999523163,0,0,0,90166,task3,244314,false,false,214,image-keyboard-response,26
true,1,2,0,2,true,d,false,true,0.0-2.0-0.2-0.26-3.26,0,0,0,68,false,stim,false,-1,789.4000000953674,0,1,2,90166,task3,246613,false,false,217,image-keyboard-response,27
true,2,1,1,0,false,q,false,false,0.0-2.0-0.3-0.27-3.27,0,0,1,90,true,stim,true,1,735.0999999046326,0,0,0,90166,task3,248861,false,false,220,image-keyboard-response,1
true,2,2,1,2,true,d,false,false,0.0-2.0-0.3-0.28-3.28,0,0,1,68,false,stim,false,2,1596.7000000476837,0,1,2,90166,task3,251971,false,true,223,image-keyboard-response,2
true,2,0,1,2,false,d,true,false,0.0-2.0-0.3-0.29-3.29,0,0,1,81,false,stim,false,2,834.7000000476837,0,1,2,90166,task3,254319,false,false,226,image-keyboard-response,3
true,2,1,1,2,false,d,true,false,0.0-2.0-0.3-0.30-3.30,0,0,1,90,false,stim,false,0,1176.7000000476837,0,0,1,90166,task3,257010,false,false,229,image-keyboard-response,4
true,2,0,1,0,true,q,false,true,0.0-2.0-0.3-0.31-3.31,0,0,1,81,false,stim,false,1,1343.0,0,0,0,90166,task3,259866,false,false,232,image-keyboard-response,5
true,2,1,1,2,false,d,true,true,0.0-2.0-0.3-0.32-3.32,0,0,1,90,false,stim,false,0,794.6000001430511,0,0,1,90166,task3,262174,false,true,235,image-keyboard-response,6
true,2,0,1,0,true,q,false,true,0.0-2.0-0.3-0.33-3.33,0,0,1,81,false,stim,false,1,960.8000001907349,0,0,0,90166,task3,264645,false,false,238,image-keyboard-response,7
true,2,2,1,2,true,d,false,true,0.0-2.0-0.3-0.34-3.34,0,0,1,68,false,stim,false,2,956.4000000953674,0,1,2,90166,task3,267114,false,false,241,image-keyboard-response,8
true,2,1,1,2,false,d,true,false,0.0-2.0-0.3-0.35-3.35,0,0,1,90,false,stim,false,0,984.7000000476837,0,0,1,90166,task3,269612,false,false,244,image-keyboard-response,9
true,2,0,1,2,false,d,true,false,0.0-2.0-0.4-0.36-3.36,0,0,1,81,false,stim,false,2,1535.1000001430511,0,0,2,90166,task3,272660,false,false,247,image-keyboard-response,10
true,2,2,1,2,true,d,false,true,0.0-2.0-0.4-0.37-3.37,0,0,1,68,false,stim,false,0,994.4000000953674,0,1,1,90166,task3,275168,false,false,250,image-keyboard-response,11
true,2,1,1,0,false,q,false,false,0.0-2.0-0.4-0.38-3.38,0,0,1,90,false,stim,true,1,1779.2000000476837,0,1,0,90166,task3,278455,false,false,253,image-keyboard-response,12
true,2,0,1,2,false,d,true,false,0.0-2.0-0.4-0.39-3.39,0,0,1,81,false,stim,false,2,1520.8999998569489,0,0,2,90166,task3,281489,false,false,256,image-keyboard-response,13
true,2,2,1,2,true,d,false,true,0.0-2.0-0.4-0.40-3.40,0,0,1,68,false,stim,false,0,708.3999998569489,0,1,1,90166,task3,283711,false,false,259,image-keyboard-response,14
true,3,1,2,0,false,q,true,false,0.0-2.0-0.4-0.41-3.41,1,1,0,90,true,stim,false,0,1385.9000000953674,0,1,0,90166,task3,286610,false,false,262,image-keyboard-response,1
true,3,2,2,0,false,q,false,false,0.0-2.0-0.4-0.42-3.42,1,1,0,68,false,stim,true,2,1569.3000001907349,0,0,2,90166,task3,289689,false,false,265,image-keyboard-response,2
true,3,2,2,2,true,d,false,true,0.0-2.0-0.4-0.43-3.43,1,1,0,68,false,stim,false,2,548.8999998569489,0,1,1,90166,task3,291751,false,false,268,image-keyboard-response,3
true,3,2,2,0,false,q,true,false,0.0-2.0-0.4-0.44-3.44,1,1,0,68,false,stim,false,0,1889.7000000476837,0,1,0,90166,task3,295154,false,false,271,image-keyboard-response,4
true,3,1,2,0,false,q,true,true,0.0-2.0-0.5-0.45-3.45,1,1,0,90,false,stim,false,0,1425.1000001430511,0,1,0,90166,task3,298092,false,true,274,image-keyboard-response,5
true,3,0,2,0,true,q,false,true,0.0-2.0-0.5-0.46-3.46,1,1,0,81,false,stim,false,2,1037.0,0,0,2,90166,task3,300643,false,false,277,image-keyboard-response,6
true,3,2,2,2,true,d,false,true,0.0-2.0-0.5-0.47-3.47,1,1,0,68,false,stim,false,2,1096.7000000476837,0,1,1,90166,task3,303253,false,false,280,image-keyboard-response,7
true,3,1,2,0,false,q,true,false,0.0-2.0-0.5-0.48-3.48,1,1,0,90,false,stim,false,2,666.5999999046326,0,0,2,90166,task3,305428,false,false,283,image-keyboard-response,8
true,3,0,2,0,true,q,false,true,0.0-2.0-0.5-0.49-3.49,1,1,0,81,false,stim,false,2,954.7999999523163,0,0,2,90166,task3,307895,false,false,286,image-keyboard-response,9
true,3,0,2,0,true,q,false,true,0.0-2.0-0.5-0.50-3.50,1,1,0,81,false,stim,false,0,1585.0999999046326,0,1,0,90166,task3,310994,false,false,289,image-keyboard-response,10
true,3,0,2,2,false,d,true,true,0.0-2.0-0.5-0.51-3.51,1,1,0,81,false,stim,false,2,2918.7000000476837,0,1,1,90166,task3,315423,false,true,292,image-keyboard-response,11
true,3,0,2,2,false,d,true,false,0.0-2.0-0.5-0.52-3.52,1,1,0,81,false,stim,false,2,500.7999999523163,0,1,1,90166,task3,317437,false,false,295,image-keyboard-response,12
true,3,0,2,0,true,q,false,true,0.0-2.0-0.5-0.53-3.53,1,1,0,81,false,stim,false,0,1125.7000000476837,0,1,0,90166,task3,320073,false,false,298,image-keyboard-response,13
true,3,1,2,2,false,d,true,false,0.0-2.0-0.6-0.54-3.54,1,1,0,90,false,stim,false,2,987.7999999523163,0,1,1,90166,task3,322575,false,false,301,image-keyboard-response,14
true,3,0,2,0,true,q,false,true,0.0-2.0-0.6-0.55-3.55,1,1,0,81,false,stim,false,0,708.9000000953674,0,1,0,90166,task3,324798,false,false,304,image-keyboard-response,15
true,3,2,2,2,true,d,false,false,0.0-2.0-0.6-0.56-3.56,1,1,0,68,false,stim,false,2,904.9000000953674,0,1,1,90166,task3,327213,false,true,307,image-keyboard-response,16
true,3,0,2,0,true,q,false,true,0.0-2.0-0.6-0.57-3.57,1,1,0,81,false,stim,false,0,641.8999998569489,0,1,0,90166,task3,329365,false,false,310,image-keyboard-response,17
true,3,0,2,2,false,d,true,true,0.0-2.0-0.6-0.58-3.58,1,1,0,81,false,stim,false,2,351.2999999523163,0,1,1,90166,task3,331229,false,true,313,image-keyboard-response,18
true,3,0,2,0,true,q,false,true,0.0-2.0-0.6-0.59-3.59,1,1,0,81,false,stim,false,2,965.4000000953674,0,0,2,90166,task3,333705,false,false,316,image-keyboard-response,19
true,3,0,2,0,true,q,false,true,0.0-2.0-0.6-0.60-3.60,1,1,0,81,false,stim,false,2,959.5,0,0,2,90166,task3,336177,false,false,319,image-keyboard-response,20
true,3,0,2,0,true,q,false,true,0.0-2.0-0.6-0.61-3.61,1,1,0,81,false,stim,false,2,642.1999998092651,0,0,2,90166,task3,338333,false,false,322,image-keyboard-response,21
true,3,0,2,0,true,q,false,true,0.0-2.0-0.6-0.62-3.62,1,1,0,81,false,stim,false,0,608.3000001907349,0,1,0,90166,task3,340453,false,false,325,image-keyboard-response,22
true,3,1,2,0,false,q,true,false,0.0-2.0-0.7-0.63-3.63,1,1,0,90,false,stim,false,2,1100.8000001907349,0,0,2,90166,task3,343067,false,false,328,image-keyboard-response,23
true,4,0,1,0,true,q,false,true,0.0-2.0-0.7-0.64-3.64,1,0,0,81,true,stim,false,0,436.2000000476837,0,1,0,90166,task3,345014,false,false,331,image-keyboard-response,1
true,4,0,1,0,true,q,false,true,0.0-2.0-0.7-0.65-3.65,1,0,0,81,false,stim,false,0,429.7999999523163,0,1,0,90166,task3,346958,false,false,334,image-keyboard-response,2
true,4,0,1,1,false,z,true,false,0.0-2.0-0.7-0.66-3.66,1,0,0,81,false,stim,false,2,277.59999990463257,0,0,1,90166,task3,348750,false,false,337,image-keyboard-response,3
true,4,0,1,0,true,q,false,true,0.0-2.0-0.7-0.67-3.67,1,0,0,81,false,stim,false,0,624.2999999523163,0,1,0,90166,task3,350889,false,false,340,image-keyboard-response,4
true,4,1,1,1,true,z,false,true,0.0-2.0-0.7-0.68-3.68,1,0,0,90,false,stim,false,0,620.0999999046326,0,0,2,90166,task3,353022,false,false,343,image-keyboard-response,5
true,4,1,1,1,true,z,false,true,0.0-2.0-0.7-0.69-3.69,1,0,0,90,false,stim,false,0,661.1000001430511,0,0,2,90166,task3,355196,false,false,346,image-keyboard-response,6
true,4,2,1,1,false,z,false,false,0.0-2.0-0.7-0.70-3.70,1,0,0,68,false,stim,true,2,646.0,0,0,1,90166,task3,357355,false,false,349,image-keyboard-response,7
true,4,1,1,1,true,z,false,true,0.0-2.0-0.7-0.71-3.71,1,0,0,90,false,stim,false,2,365.0,0,0,1,90166,task3,359234,false,false,352,image-keyboard-response,8
true,4,1,1,1,true,z,false,true,0.0-2.0-0.8-0.72-3.72,1,0,0,90,false,stim,false,0,506.0,0,0,2,90166,task3,361254,false,false,355,image-keyboard-response,9
true,4,1,1,1,true,z,false,true,0.0-2.0-0.8-0.73-3.73,1,0,0,90,false,stim,false,0,487.7999999523163,0,0,2,90166,task3,363255,false,false,358,image-keyboard-response,10
true,4,0,1,0,true,q,false,true,0.0-2.0-0.8-0.74-3.74,1,0,0,81,false,stim,false,0,807.0,0,1,0,90166,task3,365577,false,false,361,image-keyboard-response,11
true,4,1,1,1,true,z,false,false,0.0-2.0-0.8-0.75-3.75,1,0,0,90,false,stim,false,2,416.40000009536743,0,0,1,90166,task3,367506,false,true,364,image-keyboard-response,12
true,4,0,1,1,false,z,true,false,0.0-2.0-0.8-0.76-3.76,1,0,0,81,false,stim,false,2,305.7999999523163,0,0,1,90166,task3,369326,false,false,367,image-keyboard-response,13
true,4,2,1,0,false,q,true,false,0.0-2.0-0.8-0.77-3.77,1,0,0,68,false,stim,false,0,290.89999985694885,0,1,0,90166,task3,371131,false,false,370,image-keyboard-response,14
true,4,0,1,0,true,q,false,true,0.0-2.0-0.8-0.78-3.78,1,0,0,81,false,stim,false,0,768.7000000476837,0,1,0,90166,task3,373412,false,false,373,image-keyboard-response,15
true,4,2,1,1,false,z,true,true,0.0-2.0-0.8-0.79-3.79,1,0,0,68,false,stim,false,0,756.0,0,0,2,90166,task3,375681,false,true,376,image-keyboard-response,16
true,4,0,1,1,false,z,true,false,0.0-2.0-0.8-0.80-3.80,1,0,0,81,false,stim,false,2,894.9000000953674,0,0,1,90166,task3,378090,false,false,379,image-keyboard-response,17
true,4,0,1,0,true,q,false,false,0.0-2.0-0.9-0.81-3.81,1,0,0,81,false,stim,false,0,743.0,0,1,0,90166,task3,380347,false,true,382,image-keyboard-response,18
true,4,1,1,0,false,q,true,false,0.0-2.0-0.9-0.82-3.82,1,0,0,90,false,stim,false,0,1351.6000001430511,0,1,0,90166,task3,383209,false,false,385,image-keyboard-response,19
true,4,1,1,1,true,z,false,true,0.0-2.0-0.9-0.83-3.83,1,0,0,90,false,stim,false,2,737.5999999046326,0,0,1,90166,task3,385460,false,false,388,image-keyboard-response,20
true,4,1,1,1,true,z,false,true,0.0-2.0-0.9-0.84-3.84,1,0,0,90,false,stim,false,0,725.5999999046326,0,0,2,90166,task3,387699,false,false,391,image-keyboard-response,21
true,4,1,1,1,true,z,false,true,0.0-2.0-0.9-0.85-3.85,1,0,0,90,false,stim,false,0,594.3000001907349,0,0,2,90166,task3,389806,false,false,394,image-keyboard-response,22
true,4,1,1,1,true,z,false,true,0.0-2.0-0.9-0.86-3.86,1,0,0,90,false,stim,false,0,459.10000014305115,0,0,2,90166,task3,391778,false,false,397,image-keyboard-response,23
true,4,1,1,1,true,z,false,true,0.0-2.0-0.9-0.87-3.87,1,0,0,90,false,stim,false,2,390.7999999523163,0,1,1,90166,task3,393678,false,false,400,image-keyboard-response,24
true,4,1,1,1,true,z,false,true,0.0-2.0-0.9-0.88-3.88,1,0,0,90,false,stim,false,2,434.39999985694885,0,1,1,90166,task3,395627,false,false,403,image-keyboard-response,25
true,4,0,1,0,true,q,false,true,0.0-2.0-0.9-0.89-3.89,1,0,0,81,false,stim,false,0,1510.3000001907349,0,1,0,90166,task3,398652,false,false,406,image-keyboard-response,26
true,4,1,1,1,true,z,false,true,0.0-2.0-0.10-0.90-3.90,1,0,0,90,false,stim,false,0,711.2000000476837,0,0,2,90166,task3,400877,false,false,409,image-keyboard-response,27
true,4,1,1,0,false,q,true,false,0.0-2.0-0.10-0.91-3.91,1,0,0,90,false,stim,false,0,509.19999980926514,0,1,0,90166,task3,402900,false,false,412,image-keyboard-response,28
true,5,1,2,0,false,q,false,false,0.0-2.0-0.10-0.92-3.92,1,1,0,90,true,stim,true,1,558.0999999046326,0,0,2,90166,task3,404970,false,false,415,image-keyboard-response,1
true,5,2,2,0,false,q,true,false,0.0-2.0-0.10-0.93-3.93,1,1,0,68,false,stim,false,1,707.7000000476837,0,0,2,90166,task3,407191,false,false,418,image-keyboard-response,2
true,5,0,2,1,false,z,true,false,0.0-2.0-0.10-0.94-3.94,1,1,0,81,false,stim,false,1,442.7000000476837,0,1,1,90166,task3,409147,false,false,421,image-keyboard-response,3
true,5,1,2,1,true,z,false,true,0.0-2.0-0.10-0.95-3.95,1,1,0,90,false,stim,false,1,2868.0999999046326,0,1,1,90166,task3,413530,false,false,424,image-keyboard-response,4
true,5,1,2,0,false,q,true,false,0.0-2.0-0.10-0.96-3.96,1,1,0,90,false,stim,false,0,592.3000001907349,0,1,0,90166,task3,415635,false,false,427,image-keyboard-response,5
true,5,2,2,0,false,q,true,false,0.0-2.0-0.10-0.97-3.97,1,1,0,68,false,stim,false,0,397.89999985694885,0,1,0,90166,task3,417542,false,false,430,image-keyboard-response,6
true,5,0,2,1,false,z,true,false,0.0-2.0-0.10-0.98-3.98,1,1,0,81,false,stim,false,1,540.0,0,0,1,90166,task3,419593,false,false,433,image-keyboard-response,7
true,5,0,2,0,true,q,false,true,0.0-2.0-0.11-0.99-3.99,1,1,0,81,false,stim,false,0,843.7000000476837,0,0,0,90166,task3,421946,false,false,436,image-keyboard-response,8
true,5,1,2,1,true,z,false,true,0.0-2.0-0.11-0.100-3.100,1,1,0,90,false,stim,false,1,620.0999999046326,0,0,1,90166,task3,424079,false,false,439,image-keyboard-response,9
true,5,2,2,0,false,q,true,true,0.0-2.0-0.11-0.101-3.101,1,1,0,68,false,stim,false,0,573.6000001430511,0,0,0,90166,task3,426163,false,true,442,image-keyboard-response,10
true,5,0,2,1,false,z,true,false,0.0-2.0-0.11-0.102-3.102,1,1,0,81,false,stim,false,1,574.0999999046326,0,0,1,90166,task3,428251,false,false,445,image-keyboard-response,11
true,6,1,1,0,false,q,false,false,0.0-2.0-0.11-0.103-3.103,0,0,1,90,true,stim,true,1,429.7000000476837,0,0,1,90166,task3,430194,false,false,448,image-keyboard-response,1
true,6,1,1,0,false,q,true,false,0.0-2.0-0.11-0.104-3.104,0,0,1,90,false,stim,false,0,746.8000001907349,0,1,2,90166,task3,432455,false,false,451,image-keyboard-response,2
true,6,0,1,1,false,z,false,false,0.0-2.0-0.11-0.105-3.105,0,0,1,81,false,stim,true,0,577.7000000476837,0,0,0,90166,task3,434545,false,false,454,image-keyboard-response,3
true,6,1,1,0,false,q,true,false,0.0-2.0-0.11-0.106-3.106,0,0,1,90,false,stim,false,0,657.8999998569489,0,1,2,90166,task3,436716,false,false,457,image-keyboard-response,4
true,6,0,1,0,true,q,false,true,0.0-2.0-0.11-0.107-3.107,0,0,1,81,false,stim,false,0,395.59999990463257,0,1,2,90166,task3,438625,false,false,460,image-keyboard-response,5
true,6,0,1,0,true,q,false,true,0.0-2.0-0.12-0.108-3.108,0,0,1,81,false,stim,false,0,370.09999990463257,0,1,2,90166,task3,440507,false,false,463,image-keyboard-response,6
true,6,1,1,0,false,q,false,false,0.0-2.0-0.12-0.109-3.109,0,0,1,90,false,stim,true,1,807.2999999523163,0,0,1,90166,task3,442829,false,false,466,image-keyboard-response,7
true,6,0,1,0,true,q,false,false,0.0-2.0-0.12-0.110-3.110,0,0,1,81,false,stim,false,0,598.8999998569489,0,1,2,90166,task3,444941,false,true,469,image-keyboard-response,8
true,6,2,1,1,false,z,true,false,0.0-2.0-0.12-0.111-3.111,0,0,1,68,false,stim,false,0,1622.3000001907349,0,0,0,90166,task3,448077,false,false,472,image-keyboard-response,9
true,6,1,1,0,false,q,false,false,0.0-2.0-0.12-0.112-3.112,0,0,1,90,false,stim,true,1,359.10000014305115,0,0,1,90166,task3,449949,false,false,475,image-keyboard-response,10
true,6,0,1,0,true,q,false,false,0.0-2.0-0.12-0.113-3.113,0,0,1,81,false,stim,false,1,692.2000000476837,0,0,1,90166,task3,452156,false,true,478,image-keyboard-response,11
true,6,1,1,1,true,z,false,true,0.0-2.0-0.12-0.114-3.114,0,0,1,90,false,stim,false,0,388.40000009536743,0,0,0,90166,task3,454058,false,false,481,image-keyboard-response,12
true,6,1,1,1,true,z,false,true,0.0-2.0-0.12-0.115-3.115,0,0,1,90,false,stim,false,0,478.40000009536743,0,0,0,90166,task3,456047,false,false,484,image-keyboard-response,13
true,6,1,1,0,false,q,true,false,0.0-2.0-0.12-0.116-3.116,0,0,1,90,false,stim,false,0,590.7000000476837,0,1,2,90166,task3,458152,false,false,487,image-keyboard-response,14
true,6,2,1,1,false,z,true,false,0.0-2.0-0.13-0.117-3.117,0,0,1,68,false,stim,false,0,473.90000009536743,0,0,0,90166,task3,460136,false,false,490,image-keyboard-response,15
true,6,0,1,1,false,z,false,false,0.0-2.0-0.13-0.118-3.118,0,0,1,81,false,stim,true,0,361.7000000476837,0,0,0,90166,task3,462006,false,false,493,image-keyboard-response,16
true,6,1,1,0,false,q,true,false,0.0-2.0-0.13-0.119-3.119,0,0,1,90,false,stim,false,0,543.2000000476837,0,1,2,90166,task3,464062,false,false,496,image-keyboard-response,17
true,6,1,1,0,false,q,false,false,0.0-2.0-0.13-0.120-3.120,0,0,1,90,false,stim,true,1,866.0999999046326,0,0,1,90166,task3,466441,false,false,499,image-keyboard-response,18
true,6,0,1,1,false,z,false,false,0.0-2.0-0.13-0.121-3.121,0,0,1,81,false,stim,true,0,926.0999999046326,0,0,0,90166,task3,468879,false,false,502,image-keyboard-response,19
true,6,2,1,0,false,q,true,false,0.0-2.0-0.13-0.122-3.122,0,0,1,68,false,stim,false,1,915.9000000953674,0,0,1,90166,task3,471310,false,false,505,image-keyboard-response,20
true,6,1,1,0,false,q,false,false,0.0-2.0-0.13-0.123-3.123,0,0,1,90,false,stim,true,1,1106.0,0,0,1,90166,task3,473928,false,false,508,image-keyboard-response,21
true,6,0,1,0,true,q,false,true,0.0-2.0-0.13-0.124-3.124,0,0,1,81,false,stim,false,0,669.1999998092651,0,1,2,90166,task3,476110,false,false,511,image-keyboard-response,22
true,6,0,1,0,true,q,false,true,0.0-2.0-0.13-0.125-3.125,0,0,1,81,false,stim,false,0,871.9000000953674,0,1,2,90166,task3,478496,false,false,514,image-keyboard-response,23
true,6,1,1,0,false,q,false,false,0.0-2.0-0.14-0.126-3.126,0,0,1,90,false,stim,true,1,792.5,0,0,1,90166,task3,480802,false,false,517,image-keyboard-response,24
true,6,0,1,0,true,q,false,true,0.0-2.0-0.14-0.127-3.127,0,0,1,81,false,stim,false,1,439.39999985694885,0,0,1,90166,task3,482753,false,false,520,image-keyboard-response,25
true,6,0,1,0,true,q,false,false,0.0-2.0-0.14-0.128-3.128,0,0,1,81,false,stim,false,0,367.5,0,1,2,90166,task3,484632,false,true,523,image-keyboard-response,26
true,6,2,1,1,false,z,true,true,0.0-2.0-0.14-0.129-3.129,0,0,1,68,false,stim,false,0,847.7000000476837,0,1,0,90166,task3,486994,false,true,526,image-keyboard-response,27
true,6,2,1,1,false,z,true,false,0.0-2.0-0.14-0.130-3.130,0,0,1,68,false,stim,false,0,696.0,0,1,0,90166,task3,489203,false,false,529,image-keyboard-response,28
true,7,1,2,0,false,q,true,false,0.0-2.0-0.14-0.131-3.131,1,0,1,90,true,stim,false,0,473.0,0,1,2,90166,task3,491189,false,false,532,image-keyboard-response,1
true,7,0,2,1,false,z,true,false,0.0-2.0-0.14-0.132-3.132,1,0,1,81,false,stim,false,1,273.0,0,1,0,90166,task3,492973,false,false,535,image-keyboard-response,2
true,7,2,2,0,false,q,true,false,0.0-2.0-0.14-0.133-3.133,1,0,1,68,false,stim,false,0,393.09999990463257,0,1,2,90166,task3,494881,false,false,538,image-keyboard-response,3
true,7,1,2,1,true,z,false,true,0.0-2.0-0.14-0.134-3.134,1,0,1,90,false,stim,false,0,512.5999999046326,0,0,1,90166,task3,496908,false,false,541,image-keyboard-response,4
true,7,1,2,0,false,q,true,true,0.0-2.0-0.15-0.135-3.135,1,0,1,90,false,stim,false,0,651.0999999046326,0,1,2,90166,task3,499073,false,true,544,image-keyboard-response,5
true,7,1,2,1,true,z,false,true,0.0-2.0-0.15-0.136-3.136,1,0,1,90,false,stim,false,0,367.7999999523163,0,0,1,90166,task3,500954,false,false,547,image-keyboard-response,6
true,7,1,2,1,true,z,false,true,0.0-2.0-0.15-0.137-3.137,1,0,1,90,false,stim,false,0,643.2000000476837,0,1,1,90166,task3,503112,false,false,550,image-keyboard-response,7
true,7,1,2,0,false,q,true,false,0.0-2.0-0.15-0.138-3.138,1,0,1,90,false,stim,false,0,514.7999999523163,0,1,2,90166,task3,505139,false,false,553,image-keyboard-response,8
true,7,0,2,1,false,z,true,false,0.0-2.0-0.15-0.139-3.139,1,0,1,81,false,stim,false,1,1215.2000000476837,0,0,0,90166,task3,507868,false,false,556,image-keyboard-response,9
true,7,2,2,1,false,z,true,false,0.0-2.0-0.15-0.140-3.140,1,0,1,68,false,stim,false,0,402.7999999523163,0,1,1,90166,task3,509779,false,false,559,image-keyboard-response,10
true,7,1,2,0,false,q,true,false,0.0-2.0-0.15-0.141-3.141,1,0,1,90,false,stim,false,0,424.2000000476837,0,1,2,90166,task3,511711,false,false,562,image-keyboard-response,11
true,8,0,2,2,false,d,true,false,0.0-2.0-0.15-0.142-3.142,0,1,1,81,true,stim,false,1,619.2000000476837,0,0,0,90166,task3,513845,false,false,565,image-keyboard-response,1
true,8,2,2,2,true,d,false,false,0.0-2.0-0.15-0.143-3.143,0,1,1,68,false,stim,false,1,802.8999998569489,0,0,0,90166,task3,516159,false,true,568,image-keyboard-response,2
true,8,1,2,2,false,d,false,false,0.0-2.0-0.16-0.144-3.144,0,1,1,90,false,stim,true,1,363.30000019073486,0,0,0,90166,task3,518036,false,false,571,image-keyboard-response,3
true,8,0,2,1,false,z,true,false,0.0-2.0-0.16-0.145-3.145,0,1,1,81,false,stim,false,1,416.7000000476837,0,1,1,90166,task3,519968,false,false,574,image-keyboard-response,4
true,8,0,2,1,false,z,true,false,0.0-2.0-0.16-0.146-3.146,0,1,1,81,false,stim,false,1,340.7000000476837,0,1,1,90166,task3,521823,false,false,577,image-keyboard-response,5
true,8,1,2,2,false,d,false,false,0.0-2.0-0.16-0.147-3.147,0,1,1,90,false,stim,true,1,604.0999999046326,0,0,0,90166,task3,523941,false,false,580,image-keyboard-response,6
true,8,2,2,0,false,q,true,false,0.0-2.0-0.16-0.148-3.148,0,1,1,68,false,stim,false,0,550.5999999046326,0,1,2,90166,task3,526002,false,false,583,image-keyboard-response,7
true,8,0,2,0,true,q,false,true,0.0-2.0-0.16-0.149-3.149,0,1,1,81,false,stim,false,0,637.8999998569489,0,1,2,90166,task3,528153,false,false,586,image-keyboard-response,8
true,8,1,2,2,false,d,false,false,0.0-2.0-0.16-0.150-3.150,0,1,1,90,false,stim,true,1,1259.1999998092651,0,0,0,90166,task3,530927,false,false,589,image-keyboard-response,9
true,8,0,2,0,true,q,false,true,0.0-2.0-0.16-0.151-3.151,0,1,1,81,false,stim,false,0,433.2999999523163,0,1,2,90166,task3,532874,false,false,592,image-keyboard-response,10
true,8,0,2,1,false,z,true,false,0.0-2.0-0.16-0.152-3.152,0,1,1,81,false,stim,false,1,1879.4000000953674,0,1,1,90166,task3,536269,false,false,595,image-keyboard-response,11
true,8,2,2,1,false,z,true,true,0.0-2.0-0.17-0.153-3.153,0,1,1,68,false,stim,false,1,1165.8999998569489,0,1,1,90166,task3,538949,false,true,598,image-keyboard-response,12
true,8,0,2,0,true,q,false,true,0.0-2.0-0.17-0.154-3.154,0,1,1,81,false,stim,false,0,1542.8999998569489,0,1,2,90166,task3,542009,false,false,601,image-keyboard-response,13
true,8,2,2,1,false,z,true,true,0.0-2.0-0.17-0.155-3.155,0,1,1,68,false,stim,false,1,905.8000001907349,0,1,1,90166,task3,544428,false,true,604,image-keyboard-response,14
true,8,0,2,0,true,q,false,true,0.0-2.0-0.17-0.156-3.156,0,1,1,81,false,stim,false,0,939.5,0,1,2,90166,task3,546882,false,false,607,image-keyboard-response,15
true,8,1,2,2,false,d,false,true,0.0-2.0-0.17-0.157-3.157,0,1,1,90,false,stim,true,1,689.4000000953674,0,0,0,90166,task3,549085,false,true,610,image-keyboard-response,16
true,8,0,2,0,true,q,false,true,0.0-2.0-0.17-0.158-3.158,0,1,1,81,false,stim,false,0,2478.0,0,1,2,90166,task3,553076,false,false,613,image-keyboard-response,17
true,8,2,2,1,false,z,true,false,0.0-2.0-0.17-0.159-3.159,0,1,1,68,false,stim,false,1,433.7000000476837,0,1,1,90166,task3,555020,false,false,616,image-keyboard-response,18
true,8,1,2,2,false,d,false,false,0.0-2.0-0.17-0.160-3.160,0,1,1,90,false,stim,true,1,1166.0,0,0,0,90166,task3,557701,false,false,619,image-keyboard-response,19
true,8,2,2,2,true,d,false,true,0.0-2.0-0.17-0.161-3.161,0,1,1,68,false,stim,false,1,760.0,0,0,0,90166,task3,559972,false,false,622,image-keyboard-response,20
true,8,0,2,1,false,z,true,false,0.0-2.0-0.18-0.162-3.162,0,1,1,81,false,stim,false,1,640.7000000476837,0,1,1,90166,task3,562126,false,false,625,image-keyboard-response,21
true,8,1,2,0,false,q,true,false,0.0-2.0-0.18-0.163-3.163,0,1,1,90,false,stim,false,0,995.3999998569489,0,0,2,90166,task3,564629,false,false,628,image-keyboard-response,22
true,8,2,2,2,true,d,false,true,0.0-2.0-0.18-0.164-3.164,0,1,1,68,false,stim,false,1,1813.8999998569489,0,0,0,90166,task3,567953,false,false,631,image-keyboard-response,23
true,8,2,2,2,true,d,false,true,0.0-2.0-0.18-0.165-3.165,0,1,1,68,false,stim,false,1,642.0,0,0,0,90166,task3,570108,false,false,634,image-keyboard-response,24
true,9,2,1,2,true,d,false,true,0.0-2.0-0.18-0.166-3.166,0,1,0,68,true,stim,false,0,1721.5999999046326,0,0,2,90166,task3,573344,false,false,637,image-keyboard-response,1
true,9,2,1,1,false,z,false,false,0.0-2.0-0.18-0.167-3.167,0,1,0,68,false,stim,true,2,952.5,0,0,0,90166,task3,575806,false,false,640,image-keyboard-response,2
false,9,-1,1,1,false,z,true,false,0.0-2.0-0.18-0.168-3.168,0,1,0,,false,stim,false,1,,0,1,1,90166,task3,580325,false,false,643,image-keyboard-response,3
true,9,1,1,1,true,z,false,true,0.0-2.0-0.18-0.169-3.169,0,1,0,90,false,stim,false,1,458.5,0,1,1,90166,task3,582298,false,false,646,image-keyboard-response,4
true,9,2,1,2,true,d,false,true,0.0-2.0-0.18-0.170-3.170,0,1,0,68,false,stim,false,0,871.7000000476837,0,0,2,90166,task3,584685,false,false,649,image-keyboard-response,5
true,9,0,1,1,false,z,true,false,0.0-2.0-0.19-0.171-3.171,0,1,0,81,false,stim,false,2,1076.8999998569489,0,0,0,90166,task3,587275,false,false,652,image-keyboard-response,6
true,9,1,1,1,true,z,false,true,0.0-2.0-0.19-0.172-3.172,0,1,0,90,false,stim,false,1,2723.2000000476837,0,1,1,90166,task3,591508,false,false,655,image-keyboard-response,7
true,9,1,1,1,true,z,false,true,0.0-2.0-0.19-0.173-3.173,0,1,0,90,false,stim,false,1,823.5,0,1,1,90166,task3,593846,false,false,658,image-keyboard-response,8
true,9,2,1,2,true,d,false,true,0.0-2.0-0.19-0.174-3.174,0,1,0,68,false,stim,false,0,1471.7999999523163,0,0,2,90166,task3,596827,false,false,661,image-keyboard-response,9
true,9,2,1,2,true,d,false,true,0.0-2.0-0.19-0.175-3.175,0,1,0,68,false,stim,false,0,648.1000001430511,0,0,2,90166,task3,598982,false,false,664,image-keyboard-response,10
true,9,0,1,1,false,z,true,false,0.0-2.0-0.19-0.176-3.176,0,1,0,81,false,stim,false,2,1053.7999999523163,0,0,0,90166,task3,601549,false,false,667,image-keyboard-response,11
true,9,1,1,1,true,z,false,true,0.0-2.0-0.19-0.177-3.177,0,1,0,90,false,stim,false,2,470.60000014305115,0,0,0,90166,task3,603533,false,false,670,image-keyboard-response,12
true,9,1,1,1,true,z,false,true,0.0-2.0-0.19-0.178-3.178,0,1,0,90,false,stim,false,1,853.0999999046326,0,1,1,90166,task3,605901,false,false,673,image-keyboard-response,13
true,9,2,1,2,true,d,false,true,0.0-2.0-0.19-0.179-3.179,0,1,0,68,false,stim,false,0,934.5999999046326,0,0,2,90166,task3,608348,false,false,676,image-keyboard-response,14
true,9,2,1,2,true,d,false,true,0.0-2.0-0.20-0.180-3.180,0,1,0,68,false,stim,false,0,535.8000001907349,0,0,2,90166,task3,610398,false,false,679,image-keyboard-response,15
true,9,1,1,1,true,z,false,true,0.0-2.0-0.20-0.181-3.181,0,1,0,90,false,stim,false,1,457.0,0,1,1,90166,task3,612364,false,false,682,image-keyboard-response,16
true,9,1,1,1,true,z,false,true,0.0-2.0-0.20-0.182-3.182,0,1,0,90,false,stim,false,1,429.5,0,1,1,90166,task3,614308,false,false,685,image-keyboard-response,17
true,9,0,1,1,false,z,true,false,0.0-2.0-0.20-0.183-3.183,0,1,0,81,false,stim,false,2,1160.0,0,0,0,90166,task3,616979,false,false,688,image-keyboard-response,18
true,9,1,1,1,true,z,false,true,0.0-2.0-0.20-0.184-3.184,0,1,0,90,false,stim,false,2,325.60000014305115,0,0,0,90166,task3,618819,false,false,691,image-keyboard-response,19
true,9,2,1,2,true,d,false,true,0.0-2.0-0.20-0.185-3.185,0,1,0,68,false,stim,false,0,696.0,0,0,2,90166,task3,621028,false,false,694,image-keyboard-response,20
true,9,1,1,1,true,z,false,true,0.0-2.0-0.20-0.186-3.186,0,1,0,90,false,stim,false,2,1596.7999999523163,0,0,0,90166,task3,624139,false,false,697,image-keyboard-response,21
true,9,0,1,1,false,z,true,false,0.0-2.0-0.20-0.187-3.187,0,1,0,81,false,stim,false,1,684.9000000953674,0,1,1,90166,task3,626336,false,false,700,image-keyboard-response,22
true,9,2,1,2,true,d,false,true,0.0-2.0-0.20-0.188-3.188,0,1,0,68,false,stim,false,0,842.2000000476837,0,0,2,90166,task3,628691,false,false,703,image-keyboard-response,23
true,9,2,1,2,true,d,false,true,0.0-2.0-0.21-0.189-3.189,0,1,0,68,false,stim,false,0,540.2999999523163,0,1,2,90166,task3,630744,false,false,706,image-keyboard-response,24
true,9,1,1,1,true,z,false,true,0.0-2.0-0.21-0.190-3.190,0,1,0,90,false,stim,false,2,633.0999999046326,0,0,0,90166,task3,632890,false,false,709,image-keyboard-response,25
true,9,1,1,1,true,z,false,true,0.0-2.0-0.21-0.191-3.191,0,1,0,90,false,stim,false,2,1981.4000000953674,0,0,0,90166,task3,636385,false,false,712,image-keyboard-response,26
true,9,1,1,1,true,z,false,true,0.0-2.0-0.21-0.192-3.192,0,1,0,90,false,stim,false,1,752.9000000953674,0,0,1,90166,task3,638649,false,false,715,image-keyboard-response,27
true,9,1,1,1,true,z,false,true,0.0-2.0-0.21-0.193-3.193,0,1,0,90,false,stim,false,2,876.0999999046326,0,0,0,90166,task3,641039,false,false,718,image-keyboard-response,28
true,10,1,1,2,false,d,true,false,0.0-2.0-0.21-0.194-3.194,0,0,1,90,true,stim,false,2,639.0,0,1,2,90166,task3,643191,false,false,721,image-keyboard-response,1
true,10,2,1,0,false,q,true,false,0.0-2.0-0.21-0.195-3.195,0,0,1,68,false,stim,false,1,672.2000000476837,0,0,1,90166,task3,645377,false,false,724,image-keyboard-response,2
true,10,0,1,2,false,d,true,false,0.0-2.0-0.21-0.196-3.196,0,0,1,81,false,stim,false,2,1446.9000000953674,0,1,2,90166,task3,648337,false,false,727,image-keyboard-response,3
true,10,1,1,0,false,q,false,false,0.0-2.0-0.21-0.197-3.197,0,0,1,90,false,stim,true,1,686.5999999046326,0,0,1,90166,task3,650532,false,false,730,image-keyboard-response,4
true,10,2,1,0,false,q,true,false,0.0-2.0-0.22-0.198-3.198,0,0,1,68,false,stim,false,1,577.2000000476837,0,0,1,90166,task3,652623,false,false,733,image-keyboard-response,5
true,10,1,1,0,false,q,false,false,0.0-2.0-0.22-0.199-3.199,0,0,1,90,false,stim,true,1,795.8999998569489,0,0,0,90166,task3,654932,false,false,736,image-keyboard-response,6
true,10,0,1,2,false,d,true,false,0.0-2.0-0.22-0.200-3.200,0,0,1,81,false,stim,false,2,1954.0999999046326,0,1,2,90166,task3,658400,false,false,739,image-keyboard-response,7
true,10,1,1,0,false,q,false,true,0.0-2.0-0.22-0.201-3.201,0,0,1,90,false,stim,true,1,591.4000000953674,0,0,1,90166,task3,660502,false,true,742,image-keyboard-response,8
true,10,0,1,2,false,d,true,true,0.0-2.0-0.22-0.202-3.202,0,0,1,81,false,stim,false,2,1424.3999998569489,0,1,2,90166,task3,663437,false,true,745,image-keyboard-response,9
true,10,1,1,0,false,q,false,false,0.0-2.0-0.22-0.203-3.203,0,0,1,90,false,stim,true,1,1438.6999998092651,0,0,1,90166,task3,666389,false,false,748,image-keyboard-response,10
true,10,0,1,0,true,q,false,true,0.0-2.0-0.22-0.204-3.204,0,0,1,81,false,stim,false,1,1330.9000000953674,0,1,0,90166,task3,669233,false,false,751,image-keyboard-response,11
true,10,0,1,0,true,q,false,true,0.0-2.0-0.22-0.205-3.205,0,0,1,81,false,stim,false,1,1106.3999998569489,0,1,0,90166,task3,671854,false,false,754,image-keyboard-response,12
true,10,2,1,2,true,d,false,true,0.0-2.0-0.22-0.206-3.206,0,0,1,68,false,stim,false,2,1556.2000000476837,0,0,2,90166,task3,674923,false,false,757,image-keyboard-response,13
true,10,1,1,0,false,q,false,false,0.0-2.0-0.23-0.207-3.207,0,0,1,90,false,stim,true,1,933.7999999523163,0,1,1,90166,task3,677371,false,false,760,image-keyboard-response,14
true,10,0,1,0,true,q,false,true,0.0-2.0-0.23-0.208-3.208,0,0,1,81,false,stim,false,1,1529.5,0,1,0,90166,task3,680415,false,false,763,image-keyboard-response,15
true,11,0,2,0,true,q,false,true,0.0-2.0-0.23-0.209-3.209,1,1,0,81,true,stim,false,0,1134.0999999046326,0,1,0,90166,task3,683063,false,false,766,image-keyboard-response,1
true,11,0,2,1,false,z,true,false,0.0-2.0-0.23-0.210-3.210,1,1,0,81,false,stim,false,2,548.9000000953674,0,0,2,90166,task3,685126,false,false,769,image-keyboard-response,2
true,11,1,2,1,true,z,false,true,0.0-2.0-0.23-0.211-3.211,1,1,0,90,false,stim,false,2,863.0,0,0,2,90166,task3,687503,false,false,772,image-keyboard-response,3
true,11,1,2,0,false,q,true,false,0.0-2.0-0.23-0.212-3.212,1,1,0,90,false,stim,false,0,777.1999998092651,0,1,1,90166,task3,689790,false,false,775,image-keyboard-response,4
true,11,2,2,0,false,q,true,false,0.0-2.0-0.23-0.213-3.213,1,1,0,68,false,stim,false,0,692.0,0,1,1,90166,task3,691996,false,false,778,image-keyboard-response,5
true,11,1,2,0,false,q,true,false,0.0-2.0-0.23-0.214-3.214,1,1,0,90,false,stim,false,0,503.7999999523163,0,1,0,90166,task3,694012,false,false,781,image-keyboard-response,6
true,11,0,2,1,false,z,true,false,0.0-2.0-0.23-0.215-3.215,1,1,0,81,false,stim,false,2,889.7000000476837,0,0,2,90166,task3,696416,false,false,784,image-keyboard-response,7
true,11,1,2,1,true,z,false,true,0.0-2.0-0.24-0.216-3.216,1,1,0,90,false,stim,false,2,1105.3000001907349,0,0,2,90166,task3,699035,false,false,787,image-keyboard-response,8
true,11,2,2,0,false,q,true,false,0.0-2.0-0.24-0.217-3.217,1,1,0,68,false,stim,false,0,929.2999999523163,0,1,0,90166,task3,701479,false,false,790,image-keyboard-response,9
true,11,0,2,0,true,q,false,true,0.0-2.0-0.24-0.218-3.218,1,1,0,81,false,stim,false,0,1706.5,0,0,1,90166,task3,704697,false,false,793,image-keyboard-response,10
true,11,0,2,0,true,q,false,true,0.0-2.0-0.24-0.219-3.219,1,1,0,81,false,stim,false,0,651.7999999523163,0,0,1,90166,task3,706862,false,false,796,image-keyboard-response,11
true,11,1,2,1,true,z,false,true,0.0-2.0-0.24-0.220-3.220,1,1,0,90,false,stim,false,2,686.8000001907349,0,1,2,90166,task3,709063,false,false,799,image-keyboard-response,12
true,11,0,2,0,true,q,false,true,0.0-2.0-0.24-0.221-3.221,1,1,0,81,false,stim,false,0,952.0999999046326,0,0,1,90166,task3,711533,false,false,802,image-keyboard-response,13
true,11,2,2,0,false,q,true,false,0.0-2.0-0.24-0.222-3.222,1,1,0,68,false,stim,false,0,840.9000000953674,0,1,0,90166,task3,713887,false,false,805,image-keyboard-response,14
true,12,1,2,1,true,z,false,true,0.0-2.0-0.24-0.223-3.223,1,0,1,90,true,stim,false,1,632.8000001907349,0,1,2,90166,task3,716033,false,false,808,image-keyboard-response,1
true,12,1,2,0,false,q,true,false,0.0-2.0-0.24-0.224-3.224,1,0,1,90,false,stim,false,0,627.7999999523163,0,1,0,90166,task3,718175,false,false,811,image-keyboard-response,2
true,12,0,2,0,true,q,false,true,0.0-2.0-0.25-0.225-3.225,1,0,1,81,false,stim,false,0,606.5,0,1,0,90166,task3,720290,false,false,814,image-keyboard-response,3
true,12,0,2,2,false,d,false,false,0.0-2.0-0.25-0.226-3.226,1,0,1,81,false,stim,true,0,621.5,0,0,1,90166,task3,722426,false,false,817,image-keyboard-response,4
true,12,0,2,1,false,z,true,true,0.0-2.0-0.25-0.227-3.227,1,0,1,81,false,stim,false,1,1572.7999999523163,0,1,2,90166,task3,725512,false,true,820,image-keyboard-response,5
true,12,2,2,0,false,q,true,false,0.0-2.0-0.25-0.228-3.228,1,0,1,68,false,stim,false,0,1885.2999999523163,0,1,0,90166,task3,728910,false,false,823,image-keyboard-response,6
true,12,2,2,2,true,d,false,true,0.0-2.0-0.25-0.229-3.229,1,0,1,68,false,stim,false,0,569.5,0,1,1,90166,task3,730994,false,false,826,image-keyboard-response,7
true,12,2,2,2,true,d,false,true,0.0-2.0-0.25-0.230-3.230,1,0,1,68,false,stim,false,0,816.2999999523163,0,1,1,90166,task3,733324,false,false,829,image-keyboard-response,8
true,12,1,2,1,true,z,false,true,0.0-2.0-0.25-0.231-3.231,1,0,1,90,false,stim,false,1,616.7999999523163,0,1,2,90166,task3,735455,false,false,832,image-keyboard-response,9
true,12,1,2,1,true,z,false,true,0.0-2.0-0.25-0.232-3.232,1,0,1,90,false,stim,false,1,520.7999999523163,0,1,2,90166,task3,737486,false,false,835,image-keyboard-response,10
true,12,0,2,0,true,q,false,true,0.0-2.0-0.25-0.233-3.233,1,0,1,81,false,stim,false,0,502.40000009536743,0,0,0,90166,task3,739502,false,false,838,image-keyboard-response,11
true,13,2,2,2,true,d,false,true,0.0-2.0-0.26-0.234-3.234,0,1,1,68,true,stim,false,2,873.0999999046326,0,1,1,90166,task3,741889,false,false,841,image-keyboard-response,1
true,13,2,2,2,true,d,false,true,0.0-2.0-0.26-0.235-3.235,0,1,1,68,false,stim,false,2,537.5999999046326,0,1,1,90166,task3,743937,false,false,844,image-keyboard-response,2
true,13,1,2,1,true,z,false,false,0.0-2.0-0.26-0.236-3.236,0,1,1,90,false,stim,false,1,409.5,0,1,2,90166,task3,745860,false,true,847,image-keyboard-response,3
true,13,2,2,2,true,d,false,false,0.0-2.0-0.26-0.237-3.237,0,1,1,68,false,stim,false,0,1307.8000001907349,0,0,0,90166,task3,748678,false,true,850,image-keyboard-response,4
true,13,0,2,1,false,z,true,false,0.0-2.0-0.26-0.238-3.238,0,1,1,81,false,stim,false,1,515.3000001907349,0,1,2,90166,task3,750707,false,false,853,image-keyboard-response,5
true,13,0,2,2,false,d,true,false,0.0-2.0-0.26-0.239-3.239,0,1,1,81,false,stim,false,2,1970.1999998092651,0,1,1,90166,task3,754187,false,false,856,image-keyboard-response,6
true,13,1,2,2,false,d,true,false,0.0-2.0-0.26-0.240-3.240,0,1,1,90,false,stim,false,0,1270.3999998569489,0,1,0,90166,task3,756968,false,false,859,image-keyboard-response,7
true,13,2,2,2,true,d,false,true,0.0-2.0-0.26-0.241-3.241,0,1,1,68,false,stim,false,0,1170.5,0,1,0,90166,task3,759653,false,false,862,image-keyboard-response,8
true,13,2,2,1,false,z,true,false,0.0-2.0-0.26-0.242-3.242,0,1,1,68,false,stim,false,1,368.30000019073486,0,0,2,90166,task3,761535,false,false,865,image-keyboard-response,9
true,13,2,2,2,true,d,false,true,0.0-2.0-0.27-0.243-3.243,0,1,1,68,false,stim,false,0,808.7000000476837,0,1,0,90166,task3,763859,false,false,868,image-keyboard-response,10
true,13,2,2,2,true,d,false,true,0.0-2.0-0.27-0.244-3.244,0,1,1,68,false,stim,false,2,621.6999998092651,0,0,1,90166,task3,765994,false,false,871,image-keyboard-response,11
true,14,0,1,2,false,d,true,false,0.0-2.0-0.27-0.245-3.245,1,0,0,81,true,stim,false,2,1297.0,0,1,0,90166,task3,768805,false,false,874,image-keyboard-response,1
true,14,1,1,2,false,d,false,false,0.0-2.0-0.27-0.246-3.246,1,0,0,90,false,stim,true,1,1589.7000000476837,0,0,2,90166,task3,771909,false,false,877,image-keyboard-response,2
true,14,2,1,0,false,q,false,false,0.0-2.0-0.27-0.247-3.247,1,0,0,68,false,stim,true,2,314.0,0,0,1,90166,task3,773737,false,false,880,image-keyboard-response,3
true,14,0,1,2,false,d,true,false,0.0-2.0-0.27-0.248-3.248,1,0,0,81,false,stim,false,1,424.2999999523163,0,0,2,90166,task3,775676,false,false,883,image-keyboard-response,4
true,14,2,1,2,true,d,false,true,0.0-2.0-0.27-0.249-3.249,1,0,0,68,false,stim,false,2,1383.7000000476837,0,1,0,90166,task3,778572,false,false,886,image-keyboard-response,5
true,14,2,1,0,false,q,false,false,0.0-2.0-0.27-0.250-3.250,1,0,0,68,false,stim,true,2,983.2999999523163,0,0,1,90166,task3,781068,false,false,889,image-keyboard-response,6
true,14,1,1,2,false,d,false,false,0.0-2.0-0.27-0.251-3.251,1,0,0,90,false,stim,true,1,1762.8999998569489,0,0,2,90166,task3,784345,false,false,892,image-keyboard-response,7
true,14,0,1,2,false,d,true,false,0.0-2.0-0.28-0.252-3.252,1,0,0,81,false,stim,false,2,965.5,0,1,0,90166,task3,786825,false,false,895,image-keyboard-response,8
true,14,1,1,0,false,q,true,false,0.0-2.0-0.28-0.253-3.253,1,0,0,90,false,stim,false,2,722.2000000476837,0,0,1,90166,task3,789061,false,false,898,image-keyboard-response,9
true,14,0,1,0,true,q,false,true,0.0-2.0-0.28-0.254-3.254,1,0,0,81,false,stim,false,2,906.3999998569489,0,0,1,90166,task3,791485,false,false,901,image-keyboard-response,10
true,14,2,1,2,true,d,false,false,0.0-2.0-0.28-0.255-3.255,1,0,0,68,false,stim,false,1,866.2999999523163,0,0,2,90166,task3,793865,false,true,904,image-keyboard-response,11
true,14,1,1,2,false,d,true,false,0.0-2.0-0.28-0.256-3.256,1,0,0,90,false,stim,false,2,670.1000001430511,0,1,0,90166,task3,796049,false,false,907,image-keyboard-response,12
true,14,0,1,2,false,d,true,false,0.0-2.0-0.28-0.257-3.257,1,0,0,81,false,stim,false,1,1063.0,0,0,2,90166,task3,798623,false,false,910,image-keyboard-response,13
true,14,2,1,2,true,d,false,true,0.0-2.0-0.28-0.258-3.258,1,0,0,68,false,stim,false,1,1225.7999999523163,0,0,2,90166,task3,801362,false,false,913,image-keyboard-response,14
true,14,2,1,2,true,d,false,true,0.0-2.0-0.28-0.259-3.259,1,0,0,68,false,stim,false,2,643.2000000476837,0,1,0,90166,task3,803520,false,false,916,image-keyboard-response,15
true,14,1,1,0,false,q,true,false,0.0-2.0-0.28-0.260-3.260,1,0,0,90,false,stim,false,2,657.6000001430511,0,0,1,90166,task3,805687,false,false,919,image-keyboard-response,16
true,14,2,1,0,false,q,false,true,0.0-2.0-0.29-0.261-3.261,1,0,0,68,false,stim,true,2,413.0,0,0,1,90166,task3,807614,false,true,922,image-keyboard-response,17
true,14,2,1,2,true,d,false,true,0.0-2.0-0.29-0.262-3.262,1,0,0,68,false,stim,false,2,375.7000000476837,0,1,0,90166,task3,809503,false,false,925,image-keyboard-response,18
true,14,2,1,2,true,d,false,true,0.0-2.0-0.29-0.263-3.263,1,0,0,68,false,stim,false,2,353.0,0,1,0,90166,task3,811373,false,false,928,image-keyboard-response,19
true,14,2,1,0,false,q,false,true,0.0-2.0-0.29-0.264-3.264,1,0,0,68,false,stim,true,2,370.10000014305115,0,1,1,90166,task3,813258,false,true,931,image-keyboard-response,20
true,14,2,1,2,true,d,false,true,0.0-2.0-0.29-0.265-3.265,1,0,0,68,false,stim,false,1,390.10000014305115,0,0,2,90166,task3,815163,false,false,934,image-keyboard-response,21
true,14,2,1,0,false,q,false,false,0.0-2.0-0.29-0.266-3.266,1,0,0,68,false,stim,true,2,408.5,0,1,1,90166,task3,817087,false,false,937,image-keyboard-response,22
true,14,1,1,2,false,d,true,false,0.0-2.0-0.29-0.267-3.267,1,0,0,90,false,stim,false,2,656.7999999523163,0,1,0,90166,task3,819258,false,false,940,image-keyboard-response,23
true,14,2,1,2,true,d,false,true,0.0-2.0-0.29-0.268-3.268,1,0,0,68,false,stim,false,1,520.0,0,0,2,90166,task3,821292,false,false,943,image-keyboard-response,24
true,15,2,2,1,false,z,false,true,0.0-2.0-0.29-0.269-3.269,1,1,0,68,true,stim,true,2,523.7000000476837,0,0,2,90166,task3,823325,false,true,946,image-keyboard-response,1
true,15,2,2,1,false,z,false,false,0.0-2.0-0.30-0.270-3.270,1,1,0,68,false,stim,true,2,508.7000000476837,0,0,2,90166,task3,825348,false,false,949,image-keyboard-response,2
true,15,1,2,0,false,q,true,false,0.0-2.0-0.30-0.271-3.271,1,1,0,90,false,stim,false,0,474.2999999523163,0,1,1,90166,task3,827336,false,false,952,image-keyboard-response,3
true,15,2,2,1,false,z,false,false,0.0-2.0-0.30-0.272-3.272,1,1,0,68,false,stim,true,2,757.2000000476837,0,0,2,90166,task3,829605,false,false,955,image-keyboard-response,4
true,15,0,2,2,false,d,true,false,0.0-2.0-0.30-0.273-3.273,1,1,0,81,false,stim,false,2,772.2999999523163,0,1,0,90166,task3,831887,false,false,958,image-keyboard-response,5
true,15,1,2,0,false,q,true,false,0.0-2.0-0.30-0.274-3.274,1,1,0,90,false,stim,false,0,378.89999985694885,0,1,1,90166,task3,833780,false,false,961,image-keyboard-response,6
true,15,2,2,2,true,d,false,true,0.0-2.0-0.30-0.275-3.275,1,1,0,68,false,stim,false,2,315.0,0,1,0,90166,task3,835610,false,false,964,image-keyboard-response,7
true,15,2,2,0,false,q,true,false,0.0-2.0-0.30-0.276-3.276,1,1,0,68,false,stim,false,0,458.39999985694885,0,1,1,90166,task3,837583,false,false,967,image-keyboard-response,8
true,15,1,2,2,false,d,true,true,0.0-2.0-0.30-0.277-3.277,1,1,0,90,false,stim,false,2,277.59999990463257,0,0,0,90166,task3,839376,false,true,970,image-keyboard-response,9
true,15,1,2,1,true,z,false,true,0.0-2.0-0.30-0.278-3.278,1,1,0,90,false,stim,false,2,345.59999990463257,0,1,2,90166,task3,841236,false,false,973,image-keyboard-response,10
true,15,1,2,1,true,z,false,true,0.0-2.0-0.31-0.279-3.279,1,1,0,90,false,stim,false,2,322.2999999523163,0,1,2,90166,task3,843068,false,false,976,image-keyboard-response,11
true,15,1,2,0,false,q,true,false,0.0-2.0-0.31-0.280-3.280,1,1,0,90,false,stim,false,0,449.10000014305115,0,1,1,90166,task3,845032,false,false,979,image-keyboard-response,12
true,16,2,2,1,false,z,false,false,0.0-2.0-0.31-0.281-3.281,0,1,1,68,true,stim,true,2,388.2000000476837,0,0,0,90166,task3,846932,false,false,982,image-keyboard-response,1
true,16,0,2,0,true,q,false,true,0.0-2.0-0.31-0.282-3.282,0,1,1,81,false,stim,false,0,253.29999995231628,0,1,1,90166,task3,848700,false,false,985,image-keyboard-response,2
true,16,0,2,1,false,z,true,false,0.0-2.0-0.31-0.283-3.283,0,1,1,81,false,stim,false,1,306.19999980926514,0,1,2,90166,task3,850520,false,false,988,image-keyboard-response,3
true,16,2,2,1,false,z,false,false,0.0-2.0-0.31-0.284-3.284,0,1,1,68,false,stim,true,2,928.7000000476837,0,0,0,90166,task3,852964,false,false,991,image-keyboard-response,4
true,16,1,2,1,true,z,false,true,0.0-2.0-0.31-0.285-3.285,0,1,1,90,false,stim,false,1,1125.5,0,1,2,90166,task3,855604,false,false,994,image-keyboard-response,5
true,16,1,2,0,false,q,true,false,0.0-2.0-0.31-0.286-3.286,0,1,1,90,false,stim,false,0,547.0999999046326,0,1,1,90166,task3,857665,false,false,997,image-keyboard-response,6
true,16,0,2,1,false,z,true,false,0.0-2.0-0.31-0.287-3.287,0,1,1,81,false,stim,false,2,770.4000000953674,0,1,0,90166,task3,859949,false,false,1000,image-keyboard-response,7
true,16,2,2,1,false,z,false,false,0.0-2.0-0.32-0.288-3.288,0,1,1,68,false,stim,true,2,693.7999999523163,0,1,0,90166,task3,862162,false,false,1003,image-keyboard-response,8
true,16,1,2,1,true,z,false,true,0.0-2.0-0.32-0.289-3.289,0,1,1,90,false,stim,false,1,575.5,0,1,2,90166,task3,864252,false,false,1006,image-keyboard-response,9
true,16,1,2,1,true,z,false,false,0.0-2.0-0.32-0.290-3.290,0,1,1,90,false,stim,false,1,492.39999985694885,0,1,2,90166,task3,866257,false,true,1009,image-keyboard-response,10
true,16,0,2,0,true,q,false,true,0.0-2.0-0.32-0.291-3.291,0,1,1,81,false,stim,false,0,557.6999998092651,0,0,1,90166,task3,868329,false,false,1012,image-keyboard-response,11
true,17,0,2,2,false,d,false,false,0.0-2.0-0.32-0.292-3.292,1,0,1,81,true,stim,true,0,638.3999998569489,0,0,1,90166,task3,870481,false,false,1015,image-keyboard-response,1
true,17,1,2,1,true,z,false,true,0.0-2.0-0.32-0.293-3.293,1,0,1,90,false,stim,false,1,466.5,0,1,2,90166,task3,872462,false,false,1018,image-keyboard-response,2
true,17,2,2,1,false,z,true,false,0.0-2.0-0.32-0.294-3.294,1,0,1,68,false,stim,false,1,774.0,0,1,0,90166,task3,874745,false,false,1021,image-keyboard-response,3
true,17,1,2,2,false,d,true,false,0.0-2.0-0.32-0.295-3.295,1,0,1,90,false,stim,false,0,379.40000009536743,0,0,1,90166,task3,876638,false,false,1024,image-keyboard-response,4
true,17,0,2,1,false,z,true,false,0.0-2.0-0.32-0.296-3.296,1,0,1,81,false,stim,false,1,604.2000000476837,0,1,0,90166,task3,878753,false,false,1027,image-keyboard-response,5
true,17,1,2,1,true,z,false,true,0.0-2.0-0.33-0.297-3.297,1,0,1,90,false,stim,false,1,388.39999985694885,0,1,2,90166,task3,880655,false,false,1030,image-keyboard-response,6
true,17,1,2,1,true,z,false,true,0.0-2.0-0.33-0.298-3.298,1,0,1,90,false,stim,false,1,508.0,0,1,0,90166,task3,882678,false,false,1033,image-keyboard-response,7
true,17,1,2,1,true,z,false,true,0.0-2.0-0.33-0.299-3.299,1,0,1,90,false,stim,false,1,327.90000009536743,0,1,0,90166,task3,884520,false,false,1036,image-keyboard-response,8
true,17,1,2,2,false,d,true,false,0.0-2.0-0.33-0.300-3.300,1,0,1,90,false,stim,false,0,629.7999999523163,0,0,1,90166,task3,886662,false,false,1039,image-keyboard-response,9
true,17,0,2,2,false,d,false,false,0.0-2.0-0.33-0.301-3.301,1,0,1,81,false,stim,true,0,452.0,0,1,1,90166,task3,888628,false,false,1042,image-keyboard-response,10
true,17,2,2,1,false,z,true,false,0.0-2.0-0.33-0.302-3.302,1,0,1,68,false,stim,false,1,290.09999990463257,0,0,0,90166,task3,890433,false,false,1045,image-keyboard-response,11
true,17,1,2,2,false,d,true,false,0.0-2.0-0.33-0.303-3.303,1,0,1,90,false,stim,false,0,268.2000000476837,0,1,1,90166,task3,892216,false,false,1048,image-keyboard-response,12
true,17,2,2,1,false,z,true,false,0.0-2.0-0.33-0.304-3.304,1,0,1,68,false,stim,false,1,442.0,0,0,2,90166,task3,894172,false,false,1051,image-keyboard-response,13
true,17,0,2,1,false,z,true,false,0.0-2.0-0.33-0.305-3.305,1,0,1,81,false,stim,false,1,372.60000014305115,0,0,2,90166,task3,896057,false,false,1054,image-keyboard-response,14
true,18,1,1,0,false,q,false,false,0.0-2.0-0.34-0.306-3.306,0,1,0,90,true,stim,true,1,363.90000009536743,0,0,2,90166,task3,897932,false,false,1057,image-keyboard-response,1
true,18,1,1,2,false,d,false,true,0.0-2.0-0.34-0.307-3.307,0,1,0,90,false,stim,true,1,911.7999999523163,0,0,0,90166,task3,900359,false,true,1060,image-keyboard-response,2
true,18,2,1,0,false,q,true,false,0.0-2.0-0.34-0.308-3.308,0,1,0,68,false,stim,false,1,590.1000001430511,0,0,2,90166,task3,902460,false,false,1063,image-keyboard-response,3
true,18,1,1,2,false,d,false,false,0.0-2.0-0.34-0.309-3.309,0,1,0,90,false,stim,true,1,471.2999999523163,0,0,0,90166,task3,904445,false,false,1066,image-keyboard-response,4
true,18,0,1,2,false,d,true,false,0.0-2.0-0.34-0.310-3.310,0,1,0,81,false,stim,false,1,636.0999999046326,0,0,0,90166,task3,906592,false,false,1069,image-keyboard-response,5
true,18,1,1,2,false,d,true,true,0.0-2.0-0.34-0.311-3.311,0,1,0,90,false,stim,false,2,692.5999999046326,0,1,1,90166,task3,908799,false,true,1072,image-keyboard-response,6
true,18,2,1,0,false,q,true,false,0.0-2.0-0.34-0.312-3.312,0,1,0,68,false,stim,false,1,718.0999999046326,0,0,2,90166,task3,911031,false,false,1075,image-keyboard-response,7
true,18,1,1,2,false,d,true,false,0.0-2.0-0.34-0.313-3.313,0,1,0,90,false,stim,false,2,332.5,0,1,1,90166,task3,912874,false,false,1078,image-keyboard-response,8
true,18,1,1,2,false,d,true,false,0.0-2.0-0.34-0.314-3.314,0,1,0,90,false,stim,false,2,542.0,0,1,1,90166,task3,914931,false,false,1081,image-keyboard-response,9
true,18,0,1,2,false,d,true,false,0.0-2.0-0.35-0.315-3.315,0,1,0,81,false,stim,false,2,602.2999999523163,0,1,1,90166,task3,917047,false,false,1084,image-keyboard-response,10
true,18,1,1,2,false,d,false,true,0.0-2.0-0.35-0.316-3.316,0,1,0,90,false,stim,true,1,289.89999985694885,0,0,0,90166,task3,918849,false,true,1087,image-keyboard-response,11
true,18,0,1,0,true,q,false,true,0.0-2.0-0.35-0.317-3.317,0,1,0,81,false,stim,false,1,1009.2000000476837,0,0,2,90166,task3,921369,false,false,1090,image-keyboard-response,12
true,18,2,1,2,true,d,false,true,0.0-2.0-0.35-0.318-3.318,0,1,0,68,false,stim,false,1,641.6999998092651,0,0,0,90166,task3,923520,false,false,1093,image-keyboard-response,13
true,18,2,1,2,true,d,false,true,0.0-2.0-0.35-0.319-3.319,0,1,0,68,false,stim,false,1,748.2000000476837,0,0,0,90166,task3,925782,false,false,1096,image-keyboard-response,14
true,18,0,1,2,false,d,true,false,0.0-2.0-0.35-0.320-3.320,0,1,0,81,false,stim,false,2,432.5,0,1,1,90166,task3,927728,false,false,1099,image-keyboard-response,15
true,18,1,1,2,false,d,true,false,0.0-2.0-0.35-0.321-3.321,0,1,0,90,false,stim,false,2,500.89999985694885,0,1,1,90166,task3,929741,false,false,1102,image-keyboard-response,16
true,18,2,1,0,false,q,true,true,0.0-2.0-0.35-0.322-3.322,0,1,0,68,false,stim,false,1,1517.3999998569489,0,0,2,90166,task3,932768,false,true,1105,image-keyboard-response,17
true,18,2,1,0,false,q,true,false,0.0-2.0-0.35-0.323-3.323,0,1,0,68,false,stim,false,1,547.3000001907349,0,0,2,90166,task3,934829,false,false,1108,image-keyboard-response,18
true,18,2,1,2,true,d,false,true,0.0-2.0-0.36-0.324-3.324,0,1,0,68,false,stim,false,2,719.2000000476837,0,1,1,90166,task3,937062,false,false,1111,image-keyboard-response,19
true,18,2,1,2,true,d,false,true,0.0-2.0-0.36-0.325-3.325,0,1,0,68,false,stim,false,2,925.7999999523163,0,1,1,90166,task3,939503,false,false,1114,image-keyboard-response,20
true,18,2,1,2,true,d,false,true,0.0-2.0-0.36-0.326-3.326,0,1,0,68,false,stim,false,2,597.7000000476837,0,1,1,90166,task3,941614,false,false,1117,image-keyboard-response,21
true,18,2,1,2,true,d,false,true,0.0-2.0-0.36-0.327-3.327,0,1,0,68,false,stim,false,1,687.6999998092651,0,0,0,90166,task3,943817,false,false,1120,image-keyboard-response,22
true,18,2,1,0,false,q,true,false,0.0-2.0-0.36-0.328-3.328,0,1,0,68,false,stim,false,1,592.5,0,1,2,90166,task3,945923,false,false,1123,image-keyboard-response,23
true,19,1,2,0,false,q,true,false,0.0-2.0-0.36-0.329-3.329,0,1,1,90,true,stim,false,0,603.4000000953674,0,1,2,90166,task3,948041,false,false,1126,image-keyboard-response,1
true,19,0,2,0,true,q,false,true,0.0-2.0-0.36-0.330-3.330,0,1,1,81,false,stim,false,0,466.40000009536743,0,1,2,90166,task3,950018,false,false,1129,image-keyboard-response,2
true,19,1,2,1,true,z,false,true,0.0-2.0-0.36-0.331-3.331,0,1,1,90,false,stim,false,2,928.7999999523163,0,0,0,90166,task3,952463,false,false,1132,image-keyboard-response,3
true,19,1,2,1,true,z,false,true,0.0-2.0-0.36-0.332-3.332,0,1,1,90,false,stim,false,2,892.8999998569489,0,0,0,90166,task3,954870,false,false,1135,image-keyboard-response,4
true,19,0,2,2,false,d,true,false,0.0-2.0-0.37-0.333-3.333,0,1,1,81,false,stim,false,2,1635.8000001907349,0,1,1,90166,task3,958020,false,false,1138,image-keyboard-response,5
true,19,0,2,0,true,q,false,true,0.0-2.0-0.37-0.334-3.334,0,1,1,81,false,stim,false,0,528.7000000476837,0,1,2,90166,task3,960063,false,false,1141,image-keyboard-response,6
true,19,0,2,0,true,q,false,true,0.0-2.0-0.37-0.335-3.335,0,1,1,81,false,stim,false,0,655.2999999523163,0,1,2,90166,task3,962233,false,false,1144,image-keyboard-response,7
true,19,2,2,2,true,d,false,true,0.0-2.0-0.37-0.336-3.336,0,1,1,68,false,stim,false,2,1039.7999999523163,0,1,1,90166,task3,964786,false,false,1147,image-keyboard-response,8
true,19,1,2,1,true,z,false,true,0.0-2.0-0.37-0.337-3.337,0,1,1,90,false,stim,false,2,819.2000000476837,0,0,0,90166,task3,967120,false,false,1150,image-keyboard-response,9
true,19,0,2,0,true,q,false,true,0.0-2.0-0.37-0.338-3.338,0,1,1,81,false,stim,false,0,415.2000000476837,0,1,2,90166,task3,969049,false,false,1153,image-keyboard-response,10
true,19,2,2,2,true,d,false,true,0.0-2.0-0.37-0.339-3.339,0,1,1,68,false,stim,false,2,1182.0,0,1,1,90166,task3,971744,false,false,1156,image-keyboard-response,11
true,19,1,2,1,true,z,false,true,0.0-2.0-0.37-0.340-3.340,0,1,1,90,false,stim,false,2,721.0,0,0,0,90166,task3,973980,false,false,1159,image-keyboard-response,12
true,19,1,2,1,true,z,false,true,0.0-2.0-0.37-0.341-3.341,0,1,1,90,false,stim,false,2,624.6000001430511,0,0,0,90166,task3,976119,false,false,1162,image-keyboard-response,13
true,19,0,2,0,true,q,false,true,0.0-2.0-0.38-0.342-3.342,0,1,1,81,false,stim,false,0,823.1000001430511,0,1,2,90166,task3,978456,false,false,1165,image-keyboard-response,14
true,19,0,2,0,true,q,false,true,0.0-2.0-0.38-0.343-3.343,0,1,1,81,false,stim,false,0,645.0999999046326,0,1,2,90166,task3,980615,false,false,1168,image-keyboard-response,15
true,19,2,2,2,true,d,false,false,0.0-2.0-0.38-0.344-3.344,0,1,1,68,false,stim,false,2,838.0,0,1,1,90166,task3,982963,false,true,1171,image-keyboard-response,16
true,19,0,2,0,true,q,false,true,0.0-2.0-0.38-0.345-3.345,0,1,1,81,false,stim,false,0,758.1000001430511,0,1,2,90166,task3,985230,false,false,1174,image-keyboard-response,17
true,19,1,2,1,true,z,false,true,0.0-2.0-0.38-0.346-3.346,0,1,1,90,false,stim,false,2,840.7000000476837,0,0,0,90166,task3,987585,false,false,1177,image-keyboard-response,18
true,19,1,2,1,true,z,false,true,0.0-2.0-0.38-0.347-3.347,0,1,1,90,false,stim,false,2,523.0,0,0,0,90166,task3,989621,false,false,1180,image-keyboard-response,19
true,19,1,2,1,true,z,false,false,0.0-2.0-0.38-0.348-3.348,0,1,1,90,false,stim,false,2,520.6000001430511,0,0,0,90166,task3,991651,false,true,1183,image-keyboard-response,20
true,19,1,2,2,false,d,true,false,0.0-2.0-0.38-0.349-3.349,0,1,1,90,false,stim,false,2,1041.2000000476837,0,0,1,90166,task3,994206,false,false,1186,image-keyboard-response,21
true,19,0,2,2,false,d,true,true,0.0-2.0-0.38-0.350-3.350,0,1,1,81,false,stim,false,2,1245.2999999523163,0,0,1,90166,task3,996966,false,true,1189,image-keyboard-response,22
true,19,1,2,0,false,q,true,false,0.0-2.0-0.39-0.351-3.351,0,1,1,90,false,stim,false,0,1097.8000001907349,0,1,2,90166,task3,999579,false,false,1192,image-keyboard-response,23
true,19,1,2,1,true,z,false,true,0.0-2.0-0.39-0.352-3.352,0,1,1,90,false,stim,false,2,817.5999999046326,0,0,0,90166,task3,1001910,false,false,1195,image-keyboard-response,24
true,20,1,1,2,false,d,false,false,0.0-2.0-0.39-0.353-3.353,0,0,1,90,true,stim,true,1,661.8999998569489,0,0,0,90166,task3,1004087,false,false,1198,image-keyboard-response,1
true,20,0,1,0,true,q,false,true,0.0-2.0-0.39-0.354-3.354,0,0,1,81,false,stim,false,0,647.8999998569489,0,1,2,90166,task3,1006255,false,false,1201,image-keyboard-response,2
true,20,0,1,0,true,q,false,true,0.0-2.0-0.39-0.355-3.355,0,0,1,81,false,stim,false,2,454.39999985694885,0,0,1,90166,task3,1008222,false,false,1204,image-keyboard-response,3
true,20,0,1,0,true,q,false,true,0.0-2.0-0.39-0.356-3.356,0,0,1,81,false,stim,false,2,353.59999990463257,0,0,1,90166,task3,1010089,false,false,1207,image-keyboard-response,4
true,20,0,1,0,true,q,false,true,0.0-2.0-0.39-0.357-3.357,0,0,1,81,false,stim,false,0,592.5,0,1,2,90166,task3,1012197,false,false,1210,image-keyboard-response,5
true,20,0,1,2,false,d,true,false,0.0-2.0-0.39-0.358-3.358,0,0,1,81,false,stim,false,1,325.2000000476837,0,0,0,90166,task3,1014036,false,false,1213,image-keyboard-response,6
true,20,0,1,0,true,q,false,true,0.0-2.0-0.39-0.359-3.359,0,0,1,81,false,stim,false,2,730.8999998569489,0,0,1,90166,task3,1016278,false,false,1216,image-keyboard-response,7
true,20,0,1,2,false,d,true,false,0.0-2.0-0.40-0.360-3.360,0,0,1,81,false,stim,false,1,695.0,0,0,0,90166,task3,1018488,false,false,1219,image-keyboard-response,8
true,20,1,1,0,false,q,true,false,0.0-2.0-0.40-0.361-3.361,0,0,1,90,false,stim,false,0,765.3000001907349,0,1,2,90166,task3,1020767,false,false,1222,image-keyboard-response,9
true,20,0,1,0,true,q,false,true,0.0-2.0-0.40-0.362-3.362,0,0,1,81,false,stim,false,2,1261.0,0,0,1,90166,task3,1023540,false,false,1225,image-keyboard-response,10
true,20,0,1,2,false,d,true,true,0.0-2.0-0.40-0.363-3.363,0,0,1,81,false,stim,false,1,562.5,0,0,0,90166,task3,1025616,false,true,1228,image-keyboard-response,11
true,20,0,1,2,false,d,true,true,0.0-2.0-0.40-0.364-3.364,0,0,1,81,false,stim,false,1,364.89999985694885,0,0,0,90166,task3,1027494,false,true,1231,image-keyboard-response,12
true,20,0,1,0,true,q,false,true,0.0-2.0-0.40-0.365-3.365,0,0,1,81,false,stim,false,2,537.5,0,0,1,90166,task3,1029537,false,false,1234,image-keyboard-response,13
true,20,0,1,0,true,q,false,true,0.0-2.0-0.40-0.366-3.366,0,0,1,81,false,stim,false,0,384.10000014305115,0,1,2,90166,task3,1031436,false,false,1237,image-keyboard-response,14
true,20,0,1,0,true,q,false,false,0.0-2.0-0.40-0.367-3.367,0,0,1,81,false,stim,false,0,337.7999999523163,0,1,2,90166,task3,1033285,false,true,1240,image-keyboard-response,15
true,20,1,1,0,false,q,true,false,0.0-2.0-0.40-0.368-3.368,0,0,1,90,false,stim,false,2,317.89999985694885,0,0,1,90166,task3,1035118,false,false,1243,image-keyboard-response,16
true,20,2,1,2,true,d,false,true,0.0-2.0-0.41-0.369-3.369,0,0,1,68,false,stim,false,1,503.69999980926514,0,0,0,90166,task3,1037137,false,false,1246,image-keyboard-response,17
true,20,2,1,2,true,d,false,true,0.0-2.0-0.41-0.370-3.370,0,0,1,68,false,stim,false,1,396.40000009536743,0,0,0,90166,task3,1039047,false,false,1249,image-keyboard-response,18
true,20,0,1,0,true,q,false,true,0.0-2.0-0.41-0.371-3.371,0,0,1,81,false,stim,false,0,969.7000000476837,0,1,2,90166,task3,1041533,false,false,1252,image-keyboard-response,19
true,20,2,1,2,true,d,false,true,0.0-2.0-0.41-0.372-3.372,0,0,1,68,false,stim,false,1,594.7000000476837,0,0,0,90166,task3,1043642,false,false,1255,image-keyboard-response,20
true,20,1,1,0,false,q,true,false,0.0-2.0-0.41-0.373-3.373,0,0,1,90,false,stim,false,2,825.2999999523163,0,0,1,90166,task3,1045981,false,false,1258,image-keyboard-response,21
true,20,0,1,0,true,q,false,true,0.0-2.0-0.41-0.374-3.374,0,0,1,81,false,stim,false,0,478.59999990463257,0,1,2,90166,task3,1047975,false,false,1261,image-keyboard-response,22
true,20,0,1,0,true,q,false,true,0.0-2.0-0.41-0.375-3.375,0,0,1,81,false,stim,false,2,387.90000009536743,0,0,1,90166,task3,1049878,false,false,1264,image-keyboard-response,23
true,20,0,1,0,true,q,false,false,0.0-2.0-0.41-0.376-3.376,0,0,1,81,false,stim,false,2,557.7000000476837,0,0,1,90166,task3,1051948,false,true,1267,image-keyboard-response,24
true,20,0,1,0,true,q,false,true,0.0-2.0-0.41-0.377-3.377,0,0,1,81,false,stim,false,0,672.0999999046326,0,0,2,90166,task3,1054134,false,false,1270,image-keyboard-response,25
true,20,0,1,0,true,q,false,true,0.0-2.0-0.42-0.378-3.378,0,0,1,81,false,stim,false,0,565.9000000953674,0,0,2,90166,task3,1056214,false,false,1273,image-keyboard-response,26
true,20,2,1,0,false,q,false,false,0.0-2.0-0.42-0.379-3.379,0,0,1,68,false,stim,true,2,444.7000000476837,0,0,1,90166,task3,1058173,false,false,1276,image-keyboard-response,27
true,21,1,1,1,true,z,false,true,0.0-2.0-0.42-0.380-3.380,1,0,0,90,true,stim,false,0,506.69999980926514,0,0,1,90166,task3,1060195,false,false,1279,image-keyboard-response,1
true,21,2,1,2,true,d,false,true,0.0-2.0-0.42-0.381-3.381,1,0,0,68,false,stim,false,2,1404.5999999046326,0,1,0,90166,task3,1063114,false,false,1282,image-keyboard-response,2
true,21,0,1,1,false,z,false,false,0.0-2.0-0.42-0.382-3.382,1,0,0,81,false,stim,true,0,986.2000000476837,0,0,2,90166,task3,1065610,false,false,1285,image-keyboard-response,3
true,21,1,1,1,true,z,false,true,0.0-2.0-0.42-0.383-3.383,1,0,0,90,false,stim,false,0,413.0,0,0,1,90166,task3,1067536,false,false,1288,image-keyboard-response,4
true,21,2,1,2,true,d,false,true,0.0-2.0-0.42-0.384-3.384,1,0,0,68,false,stim,false,2,684.2999999523163,0,1,0,90166,task3,1069737,false,false,1291,image-keyboard-response,5
true,21,2,1,2,true,d,false,true,0.0-2.0-0.42-0.385-3.385,1,0,0,68,false,stim,false,2,867.0,0,1,0,90166,task3,1072118,false,false,1294,image-keyboard-response,6
true,21,0,1,1,false,z,false,false,0.0-2.0-0.42-0.386-3.386,1,0,0,81,false,stim,true,0,686.0999999046326,0,0,2,90166,task3,1074319,false,false,1297,image-keyboard-response,7
true,21,1,1,1,true,z,false,true,0.0-2.0-0.43-0.387-3.387,1,0,0,90,false,stim,false,0,429.89999985694885,0,0,1,90166,task3,1076259,false,false,1300,image-keyboard-response,8
true,21,1,1,1,true,z,false,true,0.0-2.0-0.43-0.388-3.388,1,0,0,90,false,stim,false,0,503.7000000476837,0,0,2,90166,task3,1078278,false,false,1303,image-keyboard-response,9
true,21,1,1,1,true,z,false,true,0.0-2.0-0.43-0.389-3.389,1,0,0,90,false,stim,false,0,474.2000000476837,0,0,2,90166,task3,1080264,false,false,1306,image-keyboard-response,10
true,21,1,1,1,true,z,false,false,0.0-2.0-0.43-0.390-3.390,1,0,0,90,false,stim,false,0,521.5999999046326,0,0,1,90166,task3,1082299,false,true,1309,image-keyboard-response,11
true,21,0,1,1,false,z,false,false,0.0-2.0-0.43-0.391-3.391,1,0,0,81,false,stim,true,0,421.69999980926514,0,0,1,90166,task3,1084236,false,false,1312,image-keyboard-response,12
true,21,2,1,2,true,d,false,true,0.0-2.0-0.43-0.392-3.392,1,0,0,68,false,stim,false,2,386.10000014305115,0,1,0,90166,task3,1086137,false,false,1315,image-keyboard-response,13
true,21,2,1,2,true,d,false,true,0.0-2.0-0.43-0.393-3.393,1,0,0,68,false,stim,false,2,525.2999999523163,0,1,0,90166,task3,1088178,false,false,1318,image-keyboard-response,14
true,21,2,1,2,true,d,false,true,0.0-2.0-0.43-0.394-3.394,1,0,0,68,false,stim,false,2,399.7000000476837,0,1,0,90166,task3,1090092,false,false,1321,image-keyboard-response,15
true,21,2,1,1,false,z,true,false,0.0-2.0-0.43-0.395-3.395,1,0,0,68,false,stim,false,0,404.0,0,0,2,90166,task3,1092007,false,false,1324,image-keyboard-response,16
true,21,1,1,2,false,d,true,false,0.0-2.0-0.44-0.396-3.396,1,0,0,90,false,stim,false,2,322.7000000476837,0,1,0,90166,task3,1093845,false,false,1327,image-keyboard-response,17
true,21,0,1,1,false,z,false,false,0.0-2.0-0.44-0.397-3.397,1,0,0,81,false,stim,true,0,326.7000000476837,0,0,2,90166,task3,1095687,false,false,1330,image-keyboard-response,18
true,21,2,1,1,false,z,true,false,0.0-2.0-0.44-0.398-3.398,1,0,0,68,false,stim,false,0,487.89999985694885,0,0,2,90166,task3,1097691,false,false,1333,image-keyboard-response,19
true,21,1,1,1,true,z,false,true,0.0-2.0-0.44-0.399-3.399,1,0,0,90,false,stim,false,0,389.89999985694885,0,0,1,90166,task3,1099597,false,false,1336,image-keyboard-response,20
true,21,1,1,1,true,z,false,true,0.0-2.0-0.44-0.400-3.400,1,0,0,90,false,stim,false,0,407.90000009536743,0,0,1,90166,task3,1101520,false,false,1339,image-keyboard-response,21
true,21,0,1,2,false,d,true,false,0.0-2.0-0.44-0.401-3.401,1,0,0,81,false,stim,false,2,759.7000000476837,0,1,0,90166,task3,1103793,false,false,1342,image-keyboard-response,22
true,21,1,1,1,true,z,false,true,0.0-2.0-0.44-0.402-3.402,1,0,0,90,false,stim,false,0,642.0999999046326,0,0,2,90166,task3,1105950,false,false,1345,image-keyboard-response,23
true,21,2,1,1,false,z,true,false,0.0-2.0-0.44-0.403-3.403,1,0,0,68,false,stim,false,0,660.5,0,0,1,90166,task3,1108125,false,false,1348,image-keyboard-response,24
true,21,1,1,2,false,d,true,false,0.0-2.0-0.44-0.404-3.404,1,0,0,90,false,stim,false,2,384.7999999523163,0,0,0,90166,task3,1110024,false,false,1351,image-keyboard-response,25
true,21,1,1,1,true,z,false,true,0.0-2.0-0.45-0.405-3.405,1,0,0,90,false,stim,false,0,480.60000014305115,0,1,1,90166,task3,1112021,false,false,1354,image-keyboard-response,26
true,21,1,1,1,true,z,false,true,0.0-2.0-0.45-0.406-3.406,1,0,0,90,false,stim,false,0,371.7999999523163,0,0,2,90166,task3,1113908,false,false,1357,image-keyboard-response,27
true,21,1,1,1,true,z,false,true,0.0-2.0-0.45-0.407-3.407,1,0,0,90,false,stim,false,0,561.0999999046326,0,0,2,90166,task3,1115984,false,false,1360,image-keyboard-response,28
true,21,0,1,2,false,d,true,false,0.0-2.0-0.45-0.408-3.408,1,0,0,81,false,stim,false,2,567.0999999046326,0,0,0,90166,task3,1118065,false,false,1363,image-keyboard-response,29
true,22,1,1,1,true,z,false,true,0.0-2.0-0.45-0.409-3.409,0,1,0,90,true,stim,false,1,337.39999985694885,0,1,1,90166,task3,1119917,false,false,1366,image-keyboard-response,1
true,22,1,1,1,true,z,false,true,0.0-2.0-0.45-0.410-3.410,0,1,0,90,false,stim,false,1,361.2999999523163,0,1,1,90166,task3,1121793,false,false,1369,image-keyboard-response,2
true,22,0,1,2,false,d,true,false,0.0-2.0-0.45-0.411-3.411,0,1,0,81,false,stim,false,1,799.5999999046326,0,0,2,90166,task3,1124108,false,false,1372,image-keyboard-response,3
true,22,1,1,0,false,q,true,true,0.0-2.0-0.45-0.412-3.412,0,1,0,90,false,stim,false,2,383.59999990463257,0,0,0,90166,task3,1126005,false,true,1375,image-keyboard-response,4
true,22,1,1,0,false,q,true,false,0.0-2.0-0.45-0.413-3.413,0,1,0,90,false,stim,false,2,265.7000000476837,0,0,0,90166,task3,1127786,false,false,1378,image-keyboard-response,5
true,22,1,1,1,true,z,false,true,0.0-2.0-0.46-0.414-3.414,0,1,0,90,false,stim,false,1,465.39999985694885,0,1,1,90166,task3,1129763,false,false,1381,image-keyboard-response,6
true,22,1,1,1,true,z,false,true,0.0-2.0-0.46-0.415-3.415,0,1,0,90,false,stim,false,1,330.89999985694885,0,1,1,90166,task3,1131606,false,false,1384,image-keyboard-response,7
true,22,0,1,2,false,d,true,false,0.0-2.0-0.46-0.416-3.416,0,1,0,81,false,stim,false,1,976.4000000953674,0,0,2,90166,task3,1134098,false,false,1387,image-keyboard-response,8
true,22,2,1,2,true,d,false,true,0.0-2.0-0.46-0.417-3.417,0,1,0,68,false,stim,false,1,743.1999998092651,0,0,2,90166,task3,1136356,false,false,1390,image-keyboard-response,9
true,22,2,1,0,false,q,false,false,0.0-2.0-0.46-0.418-3.418,0,1,0,68,false,stim,true,2,360.60000014305115,0,0,0,90166,task3,1138231,false,false,1393,image-keyboard-response,10
true,22,1,1,0,false,q,true,false,0.0-2.0-0.46-0.419-3.419,0,1,0,90,false,stim,false,2,312.5,0,0,0,90166,task3,1140059,false,false,1396,image-keyboard-response,11
true,22,0,1,0,true,q,false,true,0.0-2.0-0.46-0.420-3.420,0,1,0,81,false,stim,false,2,335.10000014305115,0,0,0,90166,task3,1141910,false,false,1399,image-keyboard-response,12
true,22,0,1,2,false,d,true,false,0.0-2.0-0.46-0.421-3.421,0,1,0,81,false,stim,false,1,365.7000000476837,0,0,2,90166,task3,1143800,false,false,1402,image-keyboard-response,13
true,22,0,1,1,false,z,true,false,0.0-2.0-0.46-0.422-3.422,0,1,0,81,false,stim,false,1,415.09999990463257,0,1,1,90166,task3,1145729,false,false,1405,image-keyboard-response,14
true,22,1,1,1,true,z,false,true,0.0-2.0-0.47-0.423-3.423,0,1,0,90,false,stim,false,1,349.40000009536743,0,1,1,90166,task3,1147595,false,false,1408,image-keyboard-response,15
true,22,1,1,2,false,d,false,false,0.0-2.0-0.47-0.424-3.424,0,1,0,90,false,stim,true,1,522.2999999523163,0,0,2,90166,task3,1149633,false,false,1411,image-keyboard-response,16
true,22,2,1,1,false,z,true,false,0.0-2.0-0.47-0.425-3.425,0,1,0,68,false,stim,false,1,514.9000000953674,0,1,1,90166,task3,1151662,false,false,1414,image-keyboard-response,17
true,22,0,1,0,true,q,false,true,0.0-2.0-0.47-0.426-3.426,0,1,0,81,false,stim,false,2,1080.2999999523163,0,0,0,90166,task3,1154257,false,false,1417,image-keyboard-response,18
true,22,1,1,1,true,z,false,true,0.0-2.0-0.47-0.427-3.427,0,1,0,90,false,stim,false,1,671.1999998092651,0,1,1,90166,task3,1156443,false,false,1420,image-keyboard-response,19
true,22,2,1,2,true,d,false,true,0.0-2.0-0.47-0.428-3.428,0,1,0,68,false,stim,false,1,919.9000000953674,0,0,2,90166,task3,1158874,false,false,1423,image-keyboard-response,20
true,22,2,1,2,true,d,false,false,0.0-2.0-0.47-0.429-3.429,0,1,0,68,false,stim,false,1,675.3999998569489,0,0,2,90166,task3,1161065,false,true,1426,image-keyboard-response,21
true,22,1,1,0,false,q,true,false,0.0-2.0-0.47-0.430-3.430,0,1,0,90,false,stim,false,2,524.9000000953674,0,0,0,90166,task3,1163103,false,false,1429,image-keyboard-response,22
true,22,0,1,0,true,q,false,true,0.0-2.0-0.47-0.431-3.431,0,1,0,81,false,stim,false,2,526.4000000953674,0,0,0,90166,task3,1165142,false,false,1432,image-keyboard-response,23
true,22,1,1,1,true,z,false,true,0.0-2.0-0.48-0.432-3.432,0,1,0,90,false,stim,false,1,507.5,0,0,1,90166,task3,1167164,false,false,1435,image-keyboard-response,24
true,22,0,1,0,true,q,false,true,0.0-2.0-0.48-0.433-3.433,0,1,0,81,false,stim,false,2,1055.2999999523163,0,0,0,90166,task3,1169734,false,false,1438,image-keyboard-response,25
true,22,2,1,2,true,d,false,true,0.0-2.0-0.48-0.434-3.434,0,1,0,68,false,stim,false,1,628.4000000953674,0,1,2,90166,task3,1171877,false,false,1441,image-keyboard-response,26
true,23,0,1,1,false,z,false,false,0.0-2.0-0.48-0.435-3.435,0,0,1,81,true,stim,true,0,1442.1999998092651,0,0,0,90166,task3,1174835,false,false,1444,image-keyboard-response,1
true,23,1,1,0,false,q,false,false,0.0-2.0-0.48-0.436-3.436,0,0,1,90,false,stim,true,1,1103.9000000953674,0,0,1,90166,task3,1177449,false,false,1447,image-keyboard-response,2
true,23,0,1,0,true,q,false,true,0.0-2.0-0.48-0.437-3.437,0,0,1,81,false,stim,false,1,668.7999999523163,0,0,1,90166,task3,1179630,false,false,1450,image-keyboard-response,3
true,23,1,1,2,false,d,true,true,0.0-2.0-0.48-0.438-3.438,0,0,1,90,false,stim,false,2,1239.7000000476837,0,1,2,90166,task3,1182385,false,true,1453,image-keyboard-response,4
true,23,2,1,1,false,z,true,false,0.0-2.0-0.48-0.439-3.439,0,0,1,68,false,stim,false,0,887.2000000476837,0,0,0,90166,task3,1184786,false,false,1456,image-keyboard-response,5
true,23,1,1,2,false,d,true,false,0.0-2.0-0.48-0.440-3.440,0,0,1,90,false,stim,false,2,800.2999999523163,0,1,2,90166,task3,1187100,false,false,1459,image-keyboard-response,6
true,23,0,1,0,true,q,false,false,0.0-2.0-0.49-0.441-3.441,0,0,1,81,false,stim,false,1,899.2000000476837,0,0,1,90166,task3,1189514,false,true,1462,image-keyboard-response,7
true,23,0,1,2,false,d,true,true,0.0-2.0-0.49-0.442-3.442,0,0,1,81,false,stim,false,2,1016.0,0,1,2,90166,task3,1192045,false,true,1465,image-keyboard-response,8
true,23,0,1,2,false,d,true,false,0.0-2.0-0.49-0.443-3.443,0,0,1,81,false,stim,false,2,756.3999998569489,0,1,2,90166,task3,1194316,false,false,1468,image-keyboard-response,9
true,23,0,1,1,false,z,false,true,0.0-2.0-0.49-0.444-3.444,0,0,1,81,false,stim,true,0,1893.7999999523163,0,0,0,90166,task3,1197725,false,true,1471,image-keyboard-response,10
true,23,0,1,0,true,q,false,true,0.0-2.0-0.49-0.445-3.445,0,0,1,81,false,stim,false,1,1676.5,0,0,1,90166,task3,1200914,false,false,1474,image-keyboard-response,11
true,23,0,1,1,false,z,false,false,0.0-2.0-0.49-0.446-3.446,0,0,1,81,false,stim,true,0,1666.5,0,0,0,90166,task3,1204093,false,false,1477,image-keyboard-response,12
true,23,1,1,1,true,z,false,false,0.0-2.0-0.49-0.447-3.447,0,0,1,90,false,stim,false,0,776.2999999523163,0,0,0,90166,task3,1206382,false,true,1480,image-keyboard-response,13
true,23,0,1,0,true,q,false,true,0.0-2.0-0.49-0.448-3.448,0,0,1,81,false,stim,false,1,745.2000000476837,0,0,1,90166,task3,1208642,false,false,1483,image-keyboard-response,14
true,23,1,1,2,false,d,true,false,0.0-2.0-0.49-0.449-3.449,0,0,1,90,false,stim,false,2,409.39999985694885,0,1,2,90166,task3,1210562,false,false,1486,image-keyboard-response,15
true,23,0,1,2,false,d,true,false,0.0-2.0-0.50-0.450-3.450,0,0,1,81,false,stim,false,2,359.0,0,1,2,90166,task3,1212436,false,false,1489,image-keyboard-response,16
true,23,2,1,1,false,z,true,false,0.0-2.0-0.50-0.451-3.451,0,0,1,68,false,stim,false,0,384.7999999523163,0,0,0,90166,task3,1214333,false,false,1492,image-keyboard-response,17
true,23,0,1,0,true,q,false,true,0.0-2.0-0.50-0.452-3.452,0,0,1,81,false,stim,false,1,577.4000000953674,0,0,1,90166,task3,1216426,false,false,1495,image-keyboard-response,18
true,23,1,1,1,true,z,false,true,0.0-2.0-0.50-0.453-3.453,0,0,1,90,false,stim,false,0,943.4000000953674,0,0,0,90166,task3,1218884,false,false,1498,image-keyboard-response,19
true,23,0,1,0,true,q,false,true,0.0-2.0-0.50-0.454-3.454,0,0,1,81,false,stim,false,1,1144.1999998092651,0,0,1,90166,task3,1221552,false,false,1501,image-keyboard-response,20
true,23,2,1,2,true,d,false,true,0.0-2.0-0.50-0.455-3.455,0,0,1,68,false,stim,false,2,475.2999999523163,0,1,2,90166,task3,1223541,false,false,1504,image-keyboard-response,21
true,23,2,1,2,true,d,false,true,0.0-2.0-0.50-0.456-3.456,0,0,1,68,false,stim,false,2,499.89999985694885,0,1,2,90166,task3,1225561,false,false,1507,image-keyboard-response,22
true,23,1,1,0,false,q,false,false,0.0-2.0-0.50-0.457-3.457,0,0,1,90,false,stim,true,1,596.7000000476837,0,0,1,90166,task3,1227672,false,false,1510,image-keyboard-response,23
true,23,1,1,1,true,z,false,true,0.0-2.0-0.50-0.458-3.458,0,0,1,90,false,stim,false,0,544.7999999523163,0,1,0,90166,task3,1229731,false,false,1513,image-keyboard-response,24
true,23,2,1,2,true,d,false,true,0.0-2.0-0.51-0.459-3.459,0,0,1,68,false,stim,false,2,813.7999999523163,0,1,2,90166,task3,1232057,false,false,1516,image-keyboard-response,25
true,23,2,1,2,true,d,false,true,0.0-2.0-0.51-0.460-3.460,0,0,1,68,false,stim,false,2,595.4000000953674,0,1,2,90166,task3,1234167,false,false,1519,image-keyboard-response,26
true,23,1,1,0,false,q,false,false,0.0-2.0-0.51-0.461-3.461,0,0,1,90,false,stim,true,1,885.1000001430511,0,0,1,90166,task3,1236567,false,false,1522,image-keyboard-response,27
true,24,0,2,2,false,d,false,false,0.0-2.0-0.51-0.462-3.462,1,0,1,81,true,stim,true,0,592.5999999046326,0,0,1,90166,task3,1238674,false,false,1525,image-keyboard-response,1
true,24,2,2,2,true,d,false,false,0.0-2.0-0.51-0.463-3.463,1,0,1,68,false,stim,false,2,1429.8999998569489,0,1,2,90166,task3,1241619,false,true,1528,image-keyboard-response,2
true,24,1,2,2,false,d,true,false,0.0-2.0-0.51-0.464-3.464,1,0,1,90,false,stim,false,0,549.2999999523163,0,0,1,90166,task3,1243683,false,false,1531,image-keyboard-response,3
true,24,0,2,1,false,z,true,false,0.0-2.0-0.51-0.465-3.465,1,0,1,81,false,stim,false,1,430.7000000476837,0,1,0,90166,task3,1245625,false,false,1534,image-keyboard-response,4
true,24,1,2,1,true,z,false,true,0.0-2.0-0.51-0.466-3.466,1,0,1,90,false,stim,false,1,601.1000001430511,0,1,0,90166,task3,1247741,false,false,1537,image-keyboard-response,5
true,24,1,2,1,true,z,false,true,0.0-2.0-0.51-0.467-3.467,1,0,1,90,false,stim,false,1,418.7999999523163,0,1,0,90166,task3,1249675,false,false,1540,image-keyboard-response,6
true,24,0,2,2,false,d,true,true,0.0-2.0-0.52-0.468-3.468,1,0,1,81,false,stim,false,2,1016.7999999523163,0,1,2,90166,task3,1252203,false,true,1543,image-keyboard-response,7
true,24,0,2,2,false,d,true,false,0.0-2.0-0.52-0.469-3.469,1,0,1,81,false,stim,false,2,765.2999999523163,0,1,2,90166,task3,1254484,false,false,1546,image-keyboard-response,8
true,24,0,2,2,false,d,true,false,0.0-2.0-0.52-0.470-3.470,1,0,1,81,false,stim,false,2,919.3000001907349,0,1,2,90166,task3,1256914,false,false,1549,image-keyboard-response,9
true,24,1,2,2,false,d,true,false,0.0-2.0-0.52-0.471-3.471,1,0,1,90,false,stim,false,0,551.4000000953674,0,0,1,90166,task3,1258980,false,false,1552,image-keyboard-response,10
true,24,2,2,1,false,z,true,true,0.0-2.0-0.52-0.472-3.472,1,0,1,68,false,stim,false,1,1313.7000000476837,0,1,0,90166,task3,1261808,false,true,1555,image-keyboard-response,11
true,24,2,2,1,false,z,true,false,0.0-2.0-0.52-0.473-3.473,1,0,1,68,false,stim,false,1,563.0,0,1,0,90166,task3,1263887,false,false,1558,image-keyboard-response,12
true,24,1,2,1,true,z,false,true,0.0-2.0-0.52-0.474-3.474,1,0,1,90,false,stim,false,1,466.7000000476837,0,1,0,90166,task3,1265866,false,false,1561,image-keyboard-response,13
true,24,0,2,2,false,d,false,false,0.0-2.0-0.52-0.475-3.475,1,0,1,81,false,stim,true,0,1193.7999999523163,0,0,1,90166,task3,1268576,false,false,1564,image-keyboard-response,14
true,24,2,2,2,true,d,false,true,0.0-2.0-0.52-0.476-3.476,1,0,1,68,false,stim,false,0,1123.5,0,0,1,90166,task3,1271214,false,false,1567,image-keyboard-response,15
true,24,1,2,1,true,z,false,true,0.0-2.0-0.53-0.477-3.477,1,0,1,90,false,stim,false,1,607.8000001907349,0,1,0,90166,task3,1273330,false,false,1570,image-keyboard-response,16
true,24,0,2,2,false,d,true,false,0.0-2.0-0.53-0.478-3.478,1,0,1,81,false,stim,false,2,1021.7999999523163,0,1,2,90166,task3,1275866,false,false,1573,image-keyboard-response,17
true,24,2,2,1,false,z,true,false,0.0-2.0-0.53-0.479-3.479,1,0,1,68,false,stim,false,1,1345.4000000953674,0,1,0,90166,task3,1278727,false,false,1576,image-keyboard-response,18
true,24,1,2,1,true,z,false,true,0.0-2.0-0.53-0.480-3.480,1,0,1,90,false,stim,false,1,1289.2000000476837,0,1,0,90166,task3,1281526,false,false,1579,image-keyboard-response,19
true,24,2,2,2,true,d,false,true,0.0-2.0-0.53-0.481-3.481,1,0,1,68,false,stim,false,0,811.0,0,0,1,90166,task3,1283851,false,false,1582,image-keyboard-response,20
true,24,2,2,2,true,d,false,false,0.0-2.0-0.53-0.482-3.482,1,0,1,68,false,stim,false,0,884.4000000953674,0,0,1,90166,task3,1286251,false,true,1585,image-keyboard-response,21
true,24,2,2,2,true,d,false,true,0.0-2.0-0.53-0.483-3.483,1,0,1,68,false,stim,false,2,1555.7000000476837,0,1,2,90166,task3,1289322,false,false,1588,image-keyboard-response,22
true,24,1,2,2,false,d,true,false,0.0-2.0-0.53-0.484-3.484,1,0,1,90,false,stim,false,0,859.0,0,0,1,90166,task3,1291696,false,false,1591,image-keyboard-response,23
true,24,2,2,2,true,d,false,true,0.0-2.0-0.53-0.485-3.485,1,0,1,68,false,stim,false,2,1088.6999998092651,0,1,2,90166,task3,1294294,false,false,1594,image-keyboard-response,24
true,24,0,2,2,false,d,true,false,0.0-2.0-0.54-0.486-3.486,1,0,1,81,false,stim,false,2,407.2000000476837,0,1,2,90166,task3,1296215,false,false,1597,image-keyboard-response,25
true,25,1,1,2,false,d,false,false,0.0-2.0-0.54-0.487-3.487,0,0,1,90,true,stim,true,1,758.5999999046326,0,0,0,90166,task3,1298485,false,false,1600,image-keyboard-response,1
true,25,2,1,1,false,z,false,false,0.0-2.0-0.54-0.488-3.488,0,0,1,68,false,stim,true,2,756.2000000476837,0,0,1,90166,task3,1300765,false,false,1603,image-keyboard-response,2
true,25,0,1,2,false,d,true,true,0.0-2.0-0.54-0.489-3.489,0,0,1,81,false,stim,false,1,894.0999999046326,0,0,0,90166,task3,1303170,false,true,1606,image-keyboard-response,3
true,25,0,1,1,false,z,true,false,0.0-2.0-0.54-0.490-3.490,0,0,1,81,false,stim,false,2,584.3999998569489,0,0,1,90166,task3,1305269,false,false,1609,image-keyboard-response,4
true,25,1,1,2,false,d,false,false,0.0-2.0-0.54-0.491-3.491,0,0,1,90,false,stim,true,1,1301.2999999523163,0,0,0,90166,task3,1308082,false,false,1612,image-keyboard-response,5
true,25,0,1,1,false,z,true,false,0.0-2.0-0.54-0.492-3.492,0,0,1,81,false,stim,false,2,1428.8000001907349,0,0,1,90166,task3,1311026,false,false,1615,image-keyboard-response,6
true,25,1,1,2,false,d,true,false,0.0-2.0-0.54-0.493-3.493,0,0,1,90,false,stim,false,2,597.8000001907349,0,1,2,90166,task3,1313135,false,false,1618,image-keyboard-response,7
true,25,2,1,2,true,d,false,true,0.0-2.0-0.54-0.494-3.494,0,0,1,68,false,stim,false,2,609.9000000953674,0,1,2,90166,task3,1315255,false,false,1621,image-keyboard-response,8
true,25,1,1,1,true,z,false,true,0.0-2.0-0.55-0.495-3.495,0,0,1,90,false,stim,false,2,734.6999998092651,0,0,1,90166,task3,1317504,false,false,1624,image-keyboard-response,9
true,25,2,1,2,true,d,false,true,0.0-2.0-0.55-0.496-3.496,0,0,1,68,false,stim,false,2,542.4000000953674,0,1,2,90166,task3,1319561,false,false,1627,image-keyboard-response,10
true,25,1,1,1,true,z,false,true,0.0-2.0-0.55-0.497-3.497,0,0,1,90,false,stim,false,2,593.2000000476837,0,1,1,90166,task3,1321668,false,false,1630,image-keyboard-response,11
true,25,0,1,2,false,d,true,false,0.0-2.0-0.55-0.498-3.498,0,0,1,81,false,stim,false,1,1057.7000000476837,0,1,0,90166,task3,1324241,false,false,1633,image-keyboard-response,12
true,25,1,1,2,false,d,true,false,0.0-2.0-0.55-0.499-3.499,0,0,1,90,false,stim,false,2,2716.899999856949,0,1,2,90166,task3,1328470,false,false,1636,image-keyboard-response,13
true,25,0,1,2,false,d,true,false,0.0-2.0-0.55-0.500-3.500,0,0,1,81,false,stim,false,1,1803.2999999523163,0,1,0,90166,task3,1331786,false,false,1639,image-keyboard-response,14
true,25,2,1,2,true,d,false,true,0.0-2.0-0.55-0.501-3.501,0,0,1,68,false,stim,false,1,781.0999999046326,0,1,0,90166,task3,1334080,false,false,1642,image-keyboard-response,15
true,26,1,0,1,true,z,false,true,0.0-2.0-0.55-0.502-3.502,1,1,1,90,true,stim,false,1,2685.7000000476837,0,1,1,90166,task3,1458909,false,false,1765,image-keyboard-response,1
true,26,2,0,2,true,d,false,true,0.0-2.0-0.55-0.503-3.503,1,1,1,68,false,stim,false,2,1724.8999998569489,0,1,2,90166,task3,1462151,false,false,1768,image-keyboard-response,2
true,26,2,0,2,true,d,false,true,0.0-2.0-0.56-0.504-3.504,1,1,1,68,false,stim,false,2,509.5,0,1,2,90166,task3,1464176,false,false,1771,image-keyboard-response,3
true,26,0,0,2,false,d,true,false,0.0-2.0-0.56-0.505-3.505,1,1,1,81,false,stim,false,2,856.0999999046326,0,1,0,90166,task3,1466570,false,false,1774,image-keyboard-response,4
true,26,1,0,1,true,z,false,true,0.0-2.0-0.56-0.506-3.506,1,1,1,90,false,stim,false,1,484.60000014305115,0,1,1,90166,task3,1468570,false,false,1777,image-keyboard-response,5
true,26,1,0,2,false,d,true,false,0.0-2.0-0.56-0.507-3.507,1,1,1,90,false,stim,false,2,754.5,0,1,0,90166,task3,1470839,false,false,1780,image-keyboard-response,6
true,26,1,0,1,true,z,false,true,0.0-2.0-0.56-0.508-3.508,1,1,1,90,false,stim,false,1,522.0,0,1,1,90166,task3,1472877,false,false,1783,image-keyboard-response,7
true,26,2,0,2,true,d,false,true,0.0-2.0-0.56-0.509-3.509,1,1,1,68,false,stim,false,2,364.7999999523163,0,1,2,90166,task3,1474758,false,false,1786,image-keyboard-response,8
true,26,2,0,2,true,d,false,true,0.0-2.0-0.56-0.510-3.510,1,1,1,68,false,stim,false,2,360.39999985694885,0,1,0,90166,task3,1476628,false,false,1789,image-keyboard-response,9
true,26,1,0,1,true,z,false,true,0.0-2.0-0.56-0.511-3.511,1,1,1,90,false,stim,false,1,345.39999985694885,0,1,1,90166,task3,1478487,false,false,1792,image-keyboard-response,10
true,26,2,0,2,true,d,false,true,0.0-2.0-0.56-0.512-3.512,1,1,1,68,false,stim,false,2,407.60000014305115,0,0,2,90166,task3,1480409,false,false,1795,image-keyboard-response,11
true,26,2,0,2,true,d,false,true,0.0-2.0-0.57-0.513-3.513,1,1,1,68,false,stim,false,2,281.60000014305115,0,0,2,90166,task3,1482205,false,false,1798,image-keyboard-response,12
true,26,1,0,2,false,d,true,false,0.0-2.0-0.57-0.514-3.514,1,1,1,90,false,stim,false,2,334.7999999523163,0,0,0,90166,task3,1484061,false,false,1801,image-keyboard-response,13
true,26,1,0,1,true,z,false,true,0.0-2.0-0.57-0.515-3.515,1,1,1,90,false,stim,false,1,421.7999999523163,0,1,1,90166,task3,1485994,false,false,1804,image-keyboard-response,14
true,26,2,0,2,true,d,false,true,0.0-2.0-0.57-0.516-3.516,1,1,1,68,false,stim,false,2,522.2000000476837,0,0,0,90166,task3,1488032,false,false,1807,image-keyboard-response,15
true,27,2,1,1,false,z,false,true,0.0-2.0-0.57-0.517-3.517,0,1,0,68,true,stim,true,2,458.5,0,0,2,90166,task3,1490006,false,true,1810,image-keyboard-response,1
true,27,2,1,1,false,z,false,true,0.0-2.0-0.57-0.518-3.518,0,1,0,68,false,stim,true,2,437.2000000476837,0,0,2,90166,task3,1491958,false,true,1813,image-keyboard-response,2
true,27,2,1,0,false,q,false,false,0.0-2.0-0.57-0.519-3.519,0,1,0,68,false,stim,true,2,664.2000000476837,0,0,0,90166,task3,1494138,false,false,1816,image-keyboard-response,3
true,27,1,1,1,true,z,false,true,0.0-2.0-0.57-0.520-3.520,0,1,0,90,false,stim,false,1,445.90000009536743,0,1,1,90166,task3,1496099,false,false,1819,image-keyboard-response,4
true,27,1,1,1,true,z,false,true,0.0-2.0-0.57-0.521-3.521,0,1,0,90,false,stim,false,1,525.5999999046326,0,1,1,90166,task3,1498140,false,false,1822,image-keyboard-response,5
true,27,0,1,0,true,q,false,true,0.0-2.0-0.58-0.522-3.522,0,1,0,81,false,stim,false,2,678.0999999046326,0,0,0,90166,task3,1500333,false,false,1825,image-keyboard-response,6
true,27,0,1,0,true,q,false,true,0.0-2.0-0.58-0.523-3.523,0,1,0,81,false,stim,false,2,388.19999980926514,0,0,0,90166,task3,1502231,false,false,1828,image-keyboard-response,7
true,27,0,1,1,false,z,true,false,0.0-2.0-0.58-0.524-3.524,0,1,0,81,false,stim,false,2,545.7999999523163,0,0,2,90166,task3,1504294,false,false,1831,image-keyboard-response,8
true,27,0,1,0,true,q,false,true,0.0-2.0-0.58-0.525-3.525,0,1,0,81,false,stim,false,2,959.5,0,0,0,90166,task3,1506768,false,false,1834,image-keyboard-response,9
true,27,1,1,1,true,z,false,true,0.0-2.0-0.58-0.526-3.526,0,1,0,90,false,stim,false,2,314.2999999523163,0,0,2,90166,task3,1508597,false,false,1837,image-keyboard-response,10
true,27,1,1,1,true,z,false,true,0.0-2.0-0.58-0.527-3.527,0,1,0,90,false,stim,false,1,423.19999980926514,0,1,1,90166,task3,1510537,false,false,1840,image-keyboard-response,11
true,27,1,1,1,true,z,false,true,0.0-2.0-0.58-0.528-3.528,0,1,0,90,false,stim,false,1,714.6000001430511,0,1,1,90166,task3,1512765,false,false,1843,image-keyboard-response,12
true,27,1,1,1,true,z,false,true,0.0-2.0-0.58-0.529-3.529,0,1,0,90,false,stim,false,1,319.80000019073486,0,1,1,90166,task3,1514600,false,false,1846,image-keyboard-response,13
true,27,0,1,1,false,z,true,false,0.0-2.0-0.58-0.530-3.530,0,1,0,81,false,stim,false,2,517.4000000953674,0,0,2,90166,task3,1516628,false,false,1849,image-keyboard-response,14
true,27,0,1,0,true,q,false,false,0.0-2.0-0.59-0.531-3.531,0,1,0,81,false,stim,false,2,862.0999999046326,0,0,0,90166,task3,1519006,false,true,1852,image-keyboard-response,15
true,27,0,1,1,false,z,true,false,0.0-2.0-0.59-0.532-3.532,0,1,0,81,false,stim,false,2,1291.7000000476837,0,0,2,90166,task3,1521810,false,false,1855,image-keyboard-response,16
true,27,1,1,1,true,z,false,true,0.0-2.0-0.59-0.533-3.533,0,1,0,90,false,stim,false,1,362.5,0,1,1,90166,task3,1523687,false,false,1858,image-keyboard-response,17
true,27,1,1,0,false,q,true,false,0.0-2.0-0.59-0.534-3.534,0,1,0,90,false,stim,false,2,371.40000009536743,0,0,0,90166,task3,1525575,false,false,1861,image-keyboard-response,18
true,27,1,1,1,true,z,false,true,0.0-2.0-0.59-0.535-3.535,0,1,0,90,false,stim,false,2,535.0999999046326,0,0,2,90166,task3,1527627,false,false,1864,image-keyboard-response,19
true,27,1,1,1,true,z,false,true,0.0-2.0-0.59-0.536-3.536,0,1,0,90,false,stim,false,1,481.30000019073486,0,1,1,90166,task3,1529623,false,false,1867,image-keyboard-response,20
true,27,1,1,1,true,z,false,true,0.0-2.0-0.59-0.537-3.537,0,1,0,90,false,stim,false,1,495.0,0,1,1,90166,task3,1531634,false,false,1870,image-keyboard-response,21
true,27,1,1,1,true,z,false,true,0.0-2.0-0.59-0.538-3.538,0,1,0,90,false,stim,false,2,522.7999999523163,0,0,2,90166,task3,1533673,false,false,1873,image-keyboard-response,22
true,27,2,1,0,false,q,false,false,0.0-2.0-0.59-0.539-3.539,0,1,0,68,false,stim,true,2,511.90000009536743,0,1,0,90166,task3,1535699,false,false,1876,image-keyboard-response,23
true,27,1,1,1,true,z,false,true,0.0-2.0-0.60-0.540-3.540,0,1,0,90,false,stim,false,1,238.10000014305115,0,1,1,90166,task3,1537452,false,false,1879,image-keyboard-response,24
true,28,1,2,1,true,z,false,true,0.0-2.0-0.60-0.541-3.541,1,1,0,90,true,stim,false,1,297.60000014305115,0,1,1,90166,task3,1539262,false,false,1882,image-keyboard-response,1
true,28,1,2,0,false,q,true,true,0.0-2.0-0.60-0.542-3.542,1,1,0,90,false,stim,false,0,373.40000009536743,0,1,0,90166,task3,1541149,false,true,1885,image-keyboard-response,2
true,28,1,2,0,false,q,false,true,0.0-2.0-0.60-0.543-3.543,1,1,0,90,false,stim,true,1,286.59999990463257,0,0,2,90166,task3,1542945,false,true,1888,image-keyboard-response,3
true,28,1,2,0,false,q,true,false,0.0-2.0-0.60-0.544-3.544,1,1,0,90,false,stim,false,0,383.7000000476837,0,1,0,90166,task3,1544842,false,false,1891,image-keyboard-response,4
true,28,1,2,1,true,z,false,true,0.0-2.0-0.60-0.545-3.545,1,1,0,90,false,stim,false,1,386.40000009536743,0,1,1,90166,task3,1546745,false,false,1894,image-keyboard-response,5
true,28,1,2,0,false,q,false,false,0.0-2.0-0.60-0.546-3.546,1,1,0,90,false,stim,true,1,442.2000000476837,0,0,2,90166,task3,1548697,false,false,1897,image-keyboard-response,6
true,28,0,2,0,true,q,false,false,0.0-2.0-0.60-0.547-3.547,1,1,0,81,false,stim,false,1,321.7000000476837,0,0,2,90166,task3,1550535,false,true,1900,image-keyboard-response,7
true,28,2,2,0,false,q,true,false,0.0-2.0-0.60-0.548-3.548,1,1,0,68,false,stim,false,0,739.4000000953674,0,1,0,90166,task3,1552801,false,false,1903,image-keyboard-response,8
true,28,1,2,0,false,q,false,false,0.0-2.0-0.61-0.549-3.549,1,1,0,90,false,stim,true,1,870.9000000953674,0,0,2,90166,task3,1555188,false,false,1906,image-keyboard-response,9
true,28,1,2,1,true,z,false,true,0.0-2.0-0.61-0.550-3.550,1,1,0,90,false,stim,false,1,615.2999999523163,0,1,1,90166,task3,1557318,false,false,1909,image-keyboard-response,10
true,28,2,2,0,false,q,true,false,0.0-2.0-0.61-0.551-3.551,1,1,0,68,false,stim,false,1,720.0,0,0,2,90166,task3,1559553,false,false,1912,image-keyboard-response,11
true,28,1,2,1,true,z,false,true,0.0-2.0-0.61-0.552-3.552,1,1,0,90,false,stim,false,1,694.5999999046326,0,1,1,90166,task3,1561763,false,false,1915,image-keyboard-response,12
true,28,1,2,1,true,z,false,true,0.0-2.0-0.61-0.553-3.553,1,1,0,90,false,stim,false,1,346.10000014305115,0,1,1,90166,task3,1563620,false,false,1918,image-keyboard-response,13
true,28,2,2,0,false,q,true,false,0.0-2.0-0.61-0.554-3.554,1,1,0,68,false,stim,false,0,538.2999999523163,0,1,0,90166,task3,1565670,false,false,1921,image-keyboard-response,14
true,28,1,2,0,false,q,true,false,0.0-2.0-0.61-0.555-3.555,1,1,0,90,false,stim,false,0,301.2000000476837,0,1,0,90166,task3,1567486,false,false,1924,image-keyboard-response,15
true,28,0,2,0,true,q,false,true,0.0-2.0-0.61-0.556-3.556,1,1,0,81,false,stim,false,1,952.1000001430511,0,0,2,90166,task3,1569955,false,false,1927,image-keyboard-response,16
true,28,0,2,0,true,q,false,true,0.0-2.0-0.61-0.557-3.557,1,1,0,81,false,stim,false,0,501.59999990463257,0,1,0,90166,task3,1571972,false,false,1930,image-keyboard-response,17
true,28,0,2,0,true,q,false,true,0.0-2.0-0.62-0.558-3.558,1,1,0,81,false,stim,false,0,554.2000000476837,0,1,0,90166,task3,1574039,false,false,1933,image-keyboard-response,18
true,28,1,2,1,true,z,false,true,0.0-2.0-0.62-0.559-3.559,1,1,0,90,false,stim,false,1,443.40000009536743,0,1,1,90166,task3,1575991,false,false,1936,image-keyboard-response,19
true,28,0,2,0,true,q,false,true,0.0-2.0-0.62-0.560-3.560,1,1,0,81,false,stim,false,0,436.5,0,1,0,90166,task3,1577938,false,false,1939,image-keyboard-response,20
true,28,0,2,0,true,q,false,true,0.0-2.0-0.62-0.561-3.561,1,1,0,81,false,stim,false,0,576.9000000953674,0,1,0,90166,task3,1580032,false,false,1942,image-keyboard-response,21
true,28,1,2,0,false,q,false,false,0.0-2.0-0.62-0.562-3.562,1,1,0,90,false,stim,true,1,756.2000000476837,0,0,2,90166,task3,1582303,false,false,1945,image-keyboard-response,22
true,28,0,2,1,false,z,true,false,0.0-2.0-0.62-0.563-3.563,1,1,0,81,false,stim,false,1,406.2999999523163,0,0,1,90166,task3,1584225,false,false,1948,image-keyboard-response,23
true,28,1,2,1,true,z,false,true,0.0-2.0-0.62-0.564-3.564,1,1,0,90,false,stim,false,1,370.7000000476837,0,0,1,90166,task3,1586110,false,false,1951,image-keyboard-response,24
true,29,0,1,2,false,d,false,false,0.0-2.0-0.62-0.565-3.565,1,0,0,81,true,stim,true,0,852.5,0,0,2,90166,task3,1588474,false,false,1954,image-keyboard-response,1
true,29,2,1,2,true,d,false,true,0.0-2.0-0.62-0.566-3.566,1,0,0,68,false,stim,false,0,834.2999999523163,0,0,2,90166,task3,1590819,false,false,1957,image-keyboard-response,2
true,29,2,1,2,true,d,false,true,0.0-2.0-0.63-0.567-3.567,1,0,0,68,false,stim,false,1,678.4000000953674,0,0,1,90166,task3,1593013,false,false,1960,image-keyboard-response,3
true,29,2,1,0,false,q,true,false,0.0-2.0-0.63-0.568-3.568,1,0,0,68,false,stim,false,0,516.8999998569489,0,1,0,90166,task3,1595045,false,false,1963,image-keyboard-response,4
true,29,2,1,2,true,d,false,true,0.0-2.0-0.63-0.569-3.569,1,0,0,68,false,stim,false,1,358.5,0,0,1,90166,task3,1596915,false,false,1966,image-keyboard-response,5
true,29,1,1,2,false,d,true,false,0.0-2.0-0.63-0.570-3.570,1,0,0,90,false,stim,false,0,671.3000001907349,0,0,2,90166,task3,1599103,false,false,1969,image-keyboard-response,6
true,29,2,1,0,false,q,true,false,0.0-2.0-0.63-0.571-3.571,1,0,0,68,false,stim,false,0,732.2000000476837,0,1,0,90166,task3,1601350,false,false,1972,image-keyboard-response,7
true,29,0,1,2,false,d,false,true,0.0-2.0-0.63-0.572-3.572,1,0,0,81,false,stim,true,0,844.5,0,0,2,90166,task3,1603710,false,true,1975,image-keyboard-response,8
true,29,0,1,2,false,d,false,false,0.0-2.0-0.63-0.573-3.573,1,0,0,81,false,stim,true,0,379.40000009536743,0,0,2,90166,task3,1605604,false,false,1978,image-keyboard-response,9
true,29,0,1,2,false,d,true,false,0.0-2.0-0.63-0.574-3.574,1,0,0,81,false,stim,false,1,1468.0,0,0,1,90166,task3,1608588,false,false,1981,image-keyboard-response,10
true,29,1,1,0,false,q,true,false,0.0-2.0-0.63-0.575-3.575,1,0,0,90,false,stim,false,0,1720.9000000953674,0,1,0,90166,task3,1611825,false,false,1984,image-keyboard-response,11
true,29,2,1,0,false,q,true,false,0.0-2.0-0.64-0.576-3.576,1,0,0,68,false,stim,false,0,459.39999985694885,0,1,0,90166,task3,1613800,false,false,1987,image-keyboard-response,12
true,29,0,1,2,false,d,false,true,0.0-2.0-0.64-0.577-3.577,1,0,0,81,false,stim,true,0,557.9000000953674,0,0,2,90166,task3,1615874,false,true,1990,image-keyboard-response,13
true,29,1,1,2,false,d,true,false,0.0-2.0-0.64-0.578-3.578,1,0,0,90,false,stim,false,0,716.7000000476837,0,0,2,90166,task3,1618102,false,false,1993,image-keyboard-response,14
true,29,0,1,2,false,d,true,false,0.0-2.0-0.64-0.579-3.579,1,0,0,81,false,stim,false,1,396.0,0,0,1,90166,task3,1620013,false,false,1996,image-keyboard-response,15
true,29,1,1,0,false,q,true,true,0.0-2.0-0.64-0.580-3.580,1,0,0,90,false,stim,false,0,531.2999999523163,0,1,0,90166,task3,1622057,false,true,1999,image-keyboard-response,16
true,29,1,1,2,false,d,false,false,0.0-2.0-0.64-0.581-3.581,1,0,0,90,false,stim,true,1,622.5,0,0,1,90166,task3,1624201,false,false,2002,image-keyboard-response,17
true,29,2,1,0,false,q,true,false,0.0-2.0-0.64-0.582-3.582,1,0,0,68,false,stim,false,0,557.6000001430511,0,1,0,90166,task3,1626275,false,false,2005,image-keyboard-response,18
true,29,1,1,2,false,d,false,false,0.0-2.0-0.64-0.583-3.583,1,0,0,90,false,stim,true,1,662.2999999523163,0,0,1,90166,task3,1628452,false,false,2008,image-keyboard-response,19
true,29,0,1,2,false,d,false,false,0.0-2.0-0.64-0.584-3.584,1,0,0,81,false,stim,true,0,521.7000000476837,0,0,2,90166,task3,1630489,false,false,2011,image-keyboard-response,20
true,29,1,1,0,false,q,true,false,0.0-2.0-0.65-0.585-3.585,1,0,0,90,false,stim,false,0,321.60000014305115,0,1,0,90166,task3,1632323,false,false,2014,image-keyboard-response,21
true,29,2,1,2,true,d,false,false,0.0-2.0-0.65-0.586-3.586,1,0,0,68,false,stim,false,1,562.4000000953674,0,0,1,90166,task3,1634402,false,true,2017,image-keyboard-response,22
true,29,1,1,2,false,d,true,false,0.0-2.0-0.65-0.587-3.587,1,0,0,90,false,stim,false,0,507.5,0,0,2,90166,task3,1636425,false,false,2020,image-keyboard-response,23
true,29,0,1,2,false,d,false,false,0.0-2.0-0.65-0.588-3.588,1,0,0,81,false,stim,true,0,663.0,0,1,2,90166,task3,1638604,false,false,2023,image-keyboard-response,24
