answered,blockNum,choice,condition,corResp,correct,correct_response,explo,fb,internal_node_id,isStable_1,isStable_2,isStable_3,key_press,newBlock,part,persev,persevResp,rt,sessNum,stableAS,stimulus,subject,task,time_elapsed,training,trap,trial_index,trial_type,trialsInBlock
true,1,1,0,2,false,d,true,false,0.0-2.0-0.0-0.0-3.0,0,0,0,90,true,stim,false,-1,550.2999999523163,2,0,2,90166,task2,162417,false,false,184,image-keyboard-response,1
true,1,0,0,2,false,d,true,false,0.0-2.0-0.0-0.1-3.1,0,0,0,81,false,stim,false,-1,732.6000001430511,2,0,2,90166,task2,164663,false,false,187,image-keyboard-response,2
true,1,0,0,1,false,z,true,false,0.0-2.0-0.0-0.2-3.2,0,0,0,81,false,stim,false,-1,710.7000000476837,2,0,1,90166,task2,166887,false,false,190,image-keyboard-response,3
true,1,1,0,1,true,z,false,true,0.0-2.0-0.0-0.3-3.3,0,0,0,90,false,stim,false,-1,519.0,2,0,1,90166,task2,168918,false,false,193,image-keyboard-response,4
true,1,2,0,0,false,q,true,false,0.0-2.0-0.0-0.4-3.4,0,0,0,68,false,stim,false,-1,736.2999999523163,2,0,0,90166,task2,171166,false,false,196,image-keyboard-response,5
true,1,1,0,0,false,q,true,false,0.0-2.0-0.0-0.5-3.5,0,0,0,90,false,stim,false,-1,663.5,2,0,0,90166,task2,173342,false,false,199,image-keyboard-response,6
true,1,2,0,2,true,d,false,true,0.0-2.0-0.0-0.6-3.6,0,0,0,68,false,stim,false,-1,843.0999999046326,2,0,2,90166,task2,175702,false,false,202,image-keyboard-response,7
true,1,0,0,0,true,q,false,true,0.0-2.0-0.0-0.7-3.7,0,0,0,81,false,stim,false,-1,456.30000019073486,2,0,0,90166,task2,177668,false,false,205,image-keyboard-response,8
true,1,1,0,1,true,z,false,true,0.0-2.0-0.0-0.8-3.8,0,0,0,90,false,stim,false,-1,401.5,2,0,1,90166,task2,179584,false,false,208,image-keyboard-response,9
true,1,1,0,1,true,z,false,true,0.0-2.0-0.1-0.9-3.9,0,0,0,90,false,stim,false,-1,631.3999998569489,2,0,1,90166,task2,181728,false,false,211,image-keyboard-response,10
true,1,1,0,1,true,z,false,true,0.0-2.0-0.1-0.10-3.10,0,0,0,90,false,stim,false,-1,457.2999999523163,2,0,1,90166,task2,183699,false,false,214,image-keyboard-response,11
true,1,2,0,2,true,d,false,true,0.0-2.0-0.1-0.11-3.11,0,0,0,68,false,stim,false,-1,665.2000000476837,2,0,2,90166,task2,185878,false,false,217,image-keyboard-response,12
true,1,2,0,2,true,d,false,true,0.0-2.0-0.1-0.12-3.12,0,0,0,68,false,stim,false,-1,354.5,2,0,2,90166,task2,187746,false,false,220,image-keyboard-response,13
true,1,2,0,2,true,d,false,true,0.0-2.0-0.1-0.13-3.13,0,0,0,68,false,stim,false,-1,442.2000000476837,2,0,2,90166,task2,189700,false,false,223,image-keyboard-response,14
true,1,0,0,0,true,q,false,true,0.0-2.0-0.1-0.14-3.14,0,0,0,81,false,stim,false,-1,1003.9000000953674,2,0,0,90166,task2,192217,false,false,226,image-keyboard-response,15
true,1,1,0,1,true,z,false,true,0.0-2.0-0.1-0.15-3.15,0,0,0,90,false,stim,false,-1,369.89999985694885,2,0,1,90166,task2,194100,false,false,229,image-keyboard-response,16
true,1,0,0,0,true,q,false,true,0.0-2.0-0.1-0.16-3.16,0,0,0,81,false,stim,false,-1,763.9000000953674,2,0,0,90166,task2,196378,false,false,232,image-keyboard-response,17
true,1,0,0,0,true,q,false,true,0.0-2.0-0.1-0.17-3.17,0,0,0,81,false,stim,false,-1,471.39999985694885,2,0,0,90166,task2,198363,false,false,235,image-keyboard-response,18
true,1,0,0,0,true,q,false,false,0.0-2.0-0.2-0.18-3.18,0,0,0,81,false,stim,false,-1,457.5,2,0,0,90166,task2,200333,false,true,238,image-keyboard-response,19
true,1,2,0,0,false,q,true,false,0.0-2.0-0.2-0.19-3.19,0,0,0,68,false,stim,false,-1,569.7999999523163,2,0,0,90166,task2,202415,false,false,241,image-keyboard-response,20
true,1,1,0,2,false,d,true,true,0.0-2.0-0.2-0.20-3.20,0,0,0,90,false,stim,false,-1,1351.2000000476837,2,0,2,90166,task2,205280,false,true,244,image-keyboard-response,21
true,1,1,0,2,false,d,true,false,0.0-2.0-0.2-0.21-3.21,0,0,0,90,false,stim,false,-1,986.9000000953674,2,1,2,90166,task2,207779,false,false,247,image-keyboard-response,22
true,1,2,0,1,false,z,true,false,0.0-2.0-0.2-0.22-3.22,0,0,0,68,false,stim,false,-1,1185.0999999046326,2,0,1,90166,task2,210477,false,false,250,image-keyboard-response,23
true,1,1,0,2,false,d,true,false,0.0-2.0-0.2-0.23-3.23,0,0,0,90,false,stim,false,-1,969.2000000476837,2,1,2,90166,task2,212955,false,false,253,image-keyboard-response,24
true,1,0,0,1,false,z,true,false,0.0-2.0-0.2-0.24-3.24,0,0,0,81,false,stim,false,-1,704.2000000476837,2,0,1,90166,task2,215172,false,false,256,image-keyboard-response,25
true,1,1,0,0,false,q,true,false,0.0-2.0-0.2-0.25-3.25,0,0,0,90,false,stim,false,-1,501.7999999523163,2,0,0,90166,task2,217184,false,false,259,image-keyboard-response,26
true,2,0,2,0,true,q,false,true,0.0-2.0-0.2-0.26-3.26,0,0,1,81,true,stim,false,1,1142.2000000476837,2,0,1,90166,task2,219840,false,false,262,image-keyboard-response,1
true,2,1,2,1,true,z,false,true,0.0-2.0-0.3-0.27-3.27,0,0,1,90,false,stim,false,0,877.5,2,0,0,90166,task2,222230,false,false,265,image-keyboard-response,2
true,2,2,2,2,true,d,false,true,0.0-2.0-0.3-0.28-3.28,0,0,1,68,false,stim,false,2,561.6000001430511,2,1,2,90166,task2,224305,false,false,268,image-keyboard-response,3
true,2,0,2,1,false,z,false,true,0.0-2.0-0.3-0.29-3.29,0,0,1,81,false,stim,true,0,853.3999998569489,2,0,0,90166,task2,226672,false,true,271,image-keyboard-response,4
true,2,2,2,2,true,d,false,true,0.0-2.0-0.3-0.30-3.30,0,0,1,68,false,stim,false,2,520.8999998569489,2,1,2,90166,task2,228703,false,false,274,image-keyboard-response,5
true,2,1,2,0,false,q,false,false,0.0-2.0-0.3-0.31-3.31,0,0,1,90,false,stim,true,1,358.89999985694885,2,0,1,90166,task2,230572,false,false,277,image-keyboard-response,6
true,2,0,2,2,false,d,true,false,0.0-2.0-0.3-0.32-3.32,0,0,1,81,false,stim,false,2,937.5999999046326,2,1,2,90166,task2,233022,false,false,280,image-keyboard-response,7
true,2,2,2,0,false,q,true,false,0.0-2.0-0.3-0.33-3.33,0,0,1,68,false,stim,false,1,562.9000000953674,2,0,1,90166,task2,235098,false,false,283,image-keyboard-response,8
true,2,1,2,0,false,q,false,false,0.0-2.0-0.3-0.34-3.34,0,0,1,90,false,stim,true,1,771.7999999523163,2,0,1,90166,task2,237383,false,false,286,image-keyboard-response,9
true,2,0,2,1,false,z,false,false,0.0-2.0-0.3-0.35-3.35,0,0,1,81,false,stim,true,0,819.2000000476837,2,0,0,90166,task2,239715,false,false,289,image-keyboard-response,10
true,2,1,2,1,true,z,false,true,0.0-2.0-0.4-0.36-3.36,0,0,1,90,false,stim,false,0,921.8999998569489,2,0,0,90166,task2,242148,false,false,292,image-keyboard-response,11
true,2,2,2,0,false,q,true,false,0.0-2.0-0.4-0.37-3.37,0,0,1,68,false,stim,false,1,1124.9000000953674,2,0,1,90166,task2,244786,false,false,295,image-keyboard-response,12
true,2,0,2,1,false,z,false,false,0.0-2.0-0.4-0.38-3.38,0,0,1,81,false,stim,true,0,600.0,2,0,0,90166,task2,246899,false,false,298,image-keyboard-response,13
true,2,2,2,0,false,q,true,false,0.0-2.0-0.4-0.39-3.39,0,0,1,68,false,stim,false,1,1622.2000000476837,2,0,1,90166,task2,250037,false,false,301,image-keyboard-response,14
true,2,0,2,2,false,d,true,false,0.0-2.0-0.4-0.40-3.40,0,0,1,81,false,stim,false,2,1789.0999999046326,2,1,2,90166,task2,253338,false,false,304,image-keyboard-response,15
true,2,1,2,0,false,q,false,false,0.0-2.0-0.4-0.41-3.41,0,0,1,90,false,stim,true,1,755.9000000953674,2,0,1,90166,task2,255607,false,false,307,image-keyboard-response,16
true,2,2,2,2,true,d,false,true,0.0-2.0-0.4-0.42-3.42,0,0,1,68,false,stim,false,2,2132.2999999523163,2,1,2,90166,task2,259251,false,false,310,image-keyboard-response,17
true,2,0,2,1,false,z,false,false,0.0-2.0-0.4-0.43-3.43,0,0,1,81,false,stim,true,0,854.2000000476837,2,0,0,90166,task2,261615,false,false,313,image-keyboard-response,18
true,2,2,2,2,true,d,false,true,0.0-2.0-0.4-0.44-3.44,0,0,1,68,false,stim,false,2,1081.4000000953674,2,1,2,90166,task2,264210,false,false,316,image-keyboard-response,19
true,2,1,2,0,false,q,false,false,0.0-2.0-0.5-0.45-3.45,0,0,1,90,false,stim,true,1,1298.4000000953674,2,0,1,90166,task2,267016,false,false,319,image-keyboard-response,20
true,2,0,2,0,true,q,false,true,0.0-2.0-0.5-0.46-3.46,0,0,1,81,false,stim,false,1,1159.4000000953674,2,0,1,90166,task2,269689,false,false,322,image-keyboard-response,21
true,2,0,2,2,false,d,true,false,0.0-2.0-0.5-0.47-3.47,0,0,1,81,false,stim,false,2,706.5,2,1,2,90166,task2,271907,false,false,325,image-keyboard-response,22
true,2,0,2,0,true,q,false,true,0.0-2.0-0.5-0.48-3.48,0,0,1,81,false,stim,false,1,774.9000000953674,2,0,1,90166,task2,274195,false,false,328,image-keyboard-response,23
true,2,0,2,1,false,z,false,false,0.0-2.0-0.5-0.49-3.49,0,0,1,81,false,stim,true,0,988.0999999046326,2,0,0,90166,task2,276696,false,false,331,image-keyboard-response,24
true,2,2,2,2,true,d,false,true,0.0-2.0-0.5-0.50-3.50,0,0,1,68,false,stim,false,2,1348.0999999046326,2,1,2,90166,task2,279558,false,false,334,image-keyboard-response,25
true,2,1,2,1,true,z,false,true,0.0-2.0-0.5-0.51-3.51,0,0,1,90,false,stim,false,0,755.2999999523163,2,0,0,90166,task2,281827,false,false,337,image-keyboard-response,26
true,2,2,2,2,true,d,false,true,0.0-2.0-0.5-0.52-3.52,0,0,1,68,false,stim,false,2,337.39999985694885,2,0,2,90166,task2,283678,false,false,340,image-keyboard-response,27
true,2,1,2,1,true,z,false,true,0.0-2.0-0.5-0.53-3.53,0,0,1,90,false,stim,false,0,473.59999990463257,2,1,0,90166,task2,285667,false,false,343,image-keyboard-response,28
true,2,2,2,2,true,d,false,true,0.0-2.0-0.6-0.54-3.54,0,0,1,68,false,stim,false,2,470.90000009536743,2,0,2,90166,task2,287652,false,false,346,image-keyboard-response,29
true,2,2,2,2,true,d,false,false,0.0-2.0-0.6-0.55-3.55,0,0,1,68,false,stim,false,2,481.2999999523163,2,0,2,90166,task2,289647,false,true,349,image-keyboard-response,30
true,2,1,2,1,true,z,false,true,0.0-2.0-0.6-0.56-3.56,0,0,1,90,false,stim,false,0,907.6000001430511,2,1,0,90166,task2,292070,false,false,352,image-keyboard-response,31
true,3,0,2,2,false,d,false,false,0.0-2.0-0.6-0.57-3.57,1,0,0,81,true,stim,true,0,878.2999999523163,2,0,1,90166,task2,294457,false,false,355,image-keyboard-response,1
true,3,1,2,1,true,z,false,true,0.0-2.0-0.6-0.58-3.58,1,0,0,90,false,stim,false,1,683.0999999046326,2,1,0,90166,task2,296653,false,false,358,image-keyboard-response,2
true,3,2,2,0,false,q,false,false,0.0-2.0-0.6-0.59-3.59,1,0,0,68,false,stim,true,2,574.4000000953674,2,0,2,90166,task2,298740,false,false,361,image-keyboard-response,3
true,3,1,2,2,false,d,true,false,0.0-2.0-0.6-0.60-3.60,1,0,0,90,false,stim,false,0,544.7000000476837,2,0,1,90166,task2,300798,false,false,364,image-keyboard-response,4
true,3,0,2,1,false,z,true,false,0.0-2.0-0.6-0.61-3.61,1,0,0,81,false,stim,false,1,550.2999999523163,2,1,0,90166,task2,302861,false,false,367,image-keyboard-response,5
true,3,1,2,2,false,d,true,false,0.0-2.0-0.6-0.62-3.62,1,0,0,90,false,stim,false,0,579.8000001907349,2,0,1,90166,task2,304949,false,false,370,image-keyboard-response,6
true,3,0,2,0,true,q,false,true,0.0-2.0-0.7-0.63-3.63,1,0,0,81,false,stim,false,2,795.0,2,0,2,90166,task2,307259,false,false,373,image-keyboard-response,7
true,3,0,2,2,false,d,false,false,0.0-2.0-0.7-0.64-3.64,1,0,0,81,false,stim,true,0,848.7999999523163,2,0,1,90166,task2,309618,false,false,376,image-keyboard-response,8
true,3,1,2,0,false,q,true,false,0.0-2.0-0.7-0.65-3.65,1,0,0,90,false,stim,false,2,950.0,2,0,2,90166,task2,312078,false,false,379,image-keyboard-response,9
true,3,2,2,1,false,z,true,false,0.0-2.0-0.7-0.66-3.66,1,0,0,68,false,stim,false,1,702.7999999523163,2,1,0,90166,task2,314294,false,false,382,image-keyboard-response,10
true,3,0,2,1,false,z,true,false,0.0-2.0-0.7-0.67-3.67,1,0,0,81,false,stim,false,1,853.4000000953674,2,1,0,90166,task2,316657,false,false,385,image-keyboard-response,11
true,3,1,2,0,false,q,true,false,0.0-2.0-0.7-0.68-3.68,1,0,0,90,false,stim,false,2,625.5999999046326,2,0,2,90166,task2,318795,false,false,388,image-keyboard-response,12
true,3,2,2,1,false,z,true,false,0.0-2.0-0.7-0.69-3.69,1,0,0,68,false,stim,false,1,689.1000001430511,2,1,0,90166,task2,320997,false,false,391,image-keyboard-response,13
true,3,0,2,2,false,d,false,false,0.0-2.0-0.7-0.70-3.70,1,0,0,81,false,stim,true,0,962.5,2,0,1,90166,task2,323472,false,false,394,image-keyboard-response,14
true,3,1,2,2,false,d,true,false,0.0-2.0-0.7-0.71-3.71,1,0,0,90,false,stim,false,0,771.7999999523163,2,0,1,90166,task2,325757,false,false,397,image-keyboard-response,15
true,3,2,2,1,false,z,true,false,0.0-2.0-0.8-0.72-3.72,1,0,0,68,false,stim,false,1,569.0,2,1,0,90166,task2,327839,false,false,400,image-keyboard-response,16
true,3,0,2,0,true,q,false,true,0.0-2.0-0.8-0.73-3.73,1,0,0,81,false,stim,false,2,774.5,2,0,2,90166,task2,330129,false,false,403,image-keyboard-response,17
true,3,1,2,2,false,d,true,false,0.0-2.0-0.8-0.74-3.74,1,0,0,90,false,stim,false,0,1449.1999998092651,2,0,1,90166,task2,333091,false,false,406,image-keyboard-response,18
true,3,2,2,2,true,d,false,true,0.0-2.0-0.8-0.75-3.75,1,0,0,68,false,stim,false,0,683.9000000953674,2,0,1,90166,task2,335289,false,false,409,image-keyboard-response,19
true,3,2,2,2,true,d,false,true,0.0-2.0-0.8-0.76-3.76,1,0,0,68,false,stim,false,0,447.5,2,0,1,90166,task2,337251,false,false,412,image-keyboard-response,20
true,3,0,2,1,false,z,true,false,0.0-2.0-0.8-0.77-3.77,1,0,0,81,false,stim,false,1,526.7999999523163,2,1,0,90166,task2,339292,false,false,415,image-keyboard-response,21
true,3,1,2,0,false,q,true,false,0.0-2.0-0.8-0.78-3.78,1,0,0,90,false,stim,false,2,642.0999999046326,2,0,2,90166,task2,341447,false,false,418,image-keyboard-response,22
true,3,1,2,1,true,z,false,true,0.0-2.0-0.8-0.79-3.79,1,0,0,90,false,stim,false,1,1043.0,2,1,0,90166,task2,344004,false,false,421,image-keyboard-response,23
true,3,1,2,0,false,q,true,false,0.0-2.0-0.8-0.80-3.80,1,0,0,90,false,stim,false,2,1536.2000000476837,2,0,2,90166,task2,347053,false,false,424,image-keyboard-response,24
true,3,1,2,1,true,z,false,true,0.0-2.0-0.9-0.81-3.81,1,0,0,90,false,stim,false,1,639.2999999523163,2,1,0,90166,task2,349202,false,false,427,image-keyboard-response,25
true,3,1,2,1,true,z,false,true,0.0-2.0-0.9-0.82-3.82,1,0,0,90,false,stim,false,1,472.2000000476837,2,1,0,90166,task2,351182,false,false,430,image-keyboard-response,26
true,3,2,2,0,false,q,false,true,0.0-2.0-0.9-0.83-3.83,1,0,0,68,false,stim,true,2,813.7000000476837,2,0,2,90166,task2,353506,false,true,433,image-keyboard-response,27
true,3,0,2,2,false,d,false,true,0.0-2.0-0.9-0.84-3.84,1,0,0,81,false,stim,true,0,667.7000000476837,2,0,1,90166,task2,355687,false,true,436,image-keyboard-response,28
true,3,0,2,2,false,d,false,false,0.0-2.0-0.9-0.85-3.85,1,0,0,81,false,stim,true,0,612.9000000953674,2,0,1,90166,task2,357813,false,false,439,image-keyboard-response,29
true,3,2,2,2,true,d,false,true,0.0-2.0-0.9-0.86-3.86,1,0,0,68,false,stim,false,0,974.8000001907349,2,0,1,90166,task2,360301,false,false,442,image-keyboard-response,30
true,3,1,2,0,false,q,true,false,0.0-2.0-0.9-0.87-3.87,1,0,0,90,false,stim,false,2,658.0,2,0,2,90166,task2,362472,false,false,445,image-keyboard-response,31
true,3,2,2,0,false,q,false,false,0.0-2.0-0.9-0.88-3.88,1,0,0,68,false,stim,true,2,774.3999998569489,2,0,2,90166,task2,364762,false,false,448,image-keyboard-response,32
true,3,0,2,1,false,z,true,false,0.0-2.0-0.9-0.89-3.89,1,0,0,81,false,stim,false,1,638.2999999523163,2,0,0,90166,task2,366913,false,false,451,image-keyboard-response,33
true,3,2,2,0,false,q,false,true,0.0-2.0-0.10-0.90-3.90,1,0,0,68,false,stim,true,2,618.7999999523163,2,0,2,90166,task2,369045,false,true,454,image-keyboard-response,34
true,3,1,2,2,false,d,true,false,0.0-2.0-0.10-0.91-3.91,1,0,0,90,false,stim,false,0,673.7999999523163,2,0,1,90166,task2,371230,false,false,457,image-keyboard-response,35
true,4,0,1,0,true,q,false,false,0.0-2.0-0.10-0.92-3.92,0,0,0,81,true,stim,false,2,947.2999999523163,2,0,1,90166,task2,373691,false,true,460,image-keyboard-response,1
true,4,1,1,1,true,z,false,true,0.0-2.0-0.10-0.93-3.93,0,0,0,90,false,stim,false,0,730.0999999046326,2,0,2,90166,task2,375934,false,false,463,image-keyboard-response,2
true,4,2,1,2,true,d,false,true,0.0-2.0-0.10-0.94-3.94,0,0,0,68,false,stim,false,1,933.7999999523163,2,0,0,90166,task2,378382,false,false,466,image-keyboard-response,3
true,4,2,1,0,false,q,false,false,0.0-2.0-0.10-0.95-3.95,0,0,0,68,false,stim,true,2,1391.2000000476837,2,0,1,90166,task2,381284,false,false,469,image-keyboard-response,4
true,4,0,1,2,false,d,true,false,0.0-2.0-0.10-0.96-3.96,0,0,0,81,false,stim,false,1,820.5999999046326,2,0,0,90166,task2,383617,false,false,472,image-keyboard-response,5
true,4,1,1,1,true,z,false,true,0.0-2.0-0.10-0.97-3.97,0,0,0,90,false,stim,false,0,522.4000000953674,2,0,2,90166,task2,385653,false,false,475,image-keyboard-response,6
true,4,2,1,2,true,d,false,true,0.0-2.0-0.10-0.98-3.98,0,0,0,68,false,stim,false,1,956.5,2,0,0,90166,task2,388123,false,false,478,image-keyboard-response,7
true,4,1,1,1,true,z,false,true,0.0-2.0-0.11-0.99-3.99,0,0,0,90,false,stim,false,0,943.0999999046326,2,0,2,90166,task2,390579,false,false,481,image-keyboard-response,8
true,4,0,1,2,false,d,true,false,0.0-2.0-0.11-0.100-3.100,0,0,0,81,false,stim,false,1,772.7000000476837,2,0,0,90166,task2,392862,false,false,484,image-keyboard-response,9
true,4,1,1,0,false,q,true,false,0.0-2.0-0.11-0.101-3.101,0,0,0,90,false,stim,false,2,479.09999990463257,2,0,1,90166,task2,394851,false,false,487,image-keyboard-response,10
true,4,2,1,0,false,q,false,false,0.0-2.0-0.11-0.102-3.102,0,0,0,68,false,stim,true,2,636.5999999046326,2,0,1,90166,task2,396997,false,false,490,image-keyboard-response,11
true,4,0,1,1,false,z,false,true,0.0-2.0-0.11-0.103-3.103,0,0,0,81,false,stim,true,0,864.0999999046326,2,0,2,90166,task2,399375,false,true,493,image-keyboard-response,12
true,4,1,1,0,false,q,true,false,0.0-2.0-0.11-0.104-3.104,0,0,0,90,false,stim,false,2,1270.2000000476837,2,0,1,90166,task2,402158,false,false,496,image-keyboard-response,13
true,4,2,1,2,true,d,false,true,0.0-2.0-0.11-0.105-3.105,0,0,0,68,false,stim,false,1,961.2999999523163,2,0,0,90166,task2,404633,false,false,499,image-keyboard-response,14
true,4,0,1,1,false,z,false,false,0.0-2.0-0.11-0.106-3.106,0,0,0,81,false,stim,true,0,709.5,2,0,2,90166,task2,406859,false,false,502,image-keyboard-response,15
true,4,2,1,2,true,d,false,true,0.0-2.0-0.11-0.107-3.107,0,0,0,68,false,stim,false,1,730.2000000476837,2,0,0,90166,task2,409100,false,false,505,image-keyboard-response,16
true,4,1,1,2,false,d,false,false,0.0-2.0-0.12-0.108-3.108,0,0,0,90,false,stim,true,1,1650.8999998569489,2,0,0,90166,task2,412265,false,false,508,image-keyboard-response,17
true,4,2,1,2,true,d,false,false,0.0-2.0-0.12-0.109-3.109,0,0,0,68,false,stim,false,1,953.3000001907349,2,0,0,90166,task2,414732,false,true,511,image-keyboard-response,18
true,4,0,1,0,true,q,false,true,0.0-2.0-0.12-0.110-3.110,0,0,0,81,false,stim,false,2,816.2000000476837,2,0,1,90166,task2,417062,false,false,514,image-keyboard-response,19
true,4,0,1,0,true,q,false,true,0.0-2.0-0.12-0.111-3.111,0,0,0,81,false,stim,false,2,965.1000001430511,2,0,1,90166,task2,419540,false,false,517,image-keyboard-response,20
true,4,1,1,1,true,z,false,true,0.0-2.0-0.12-0.112-3.112,0,0,0,90,false,stim,false,0,677.4000000953674,2,0,2,90166,task2,421731,false,false,520,image-keyboard-response,21
true,4,1,1,1,true,z,false,true,0.0-2.0-0.12-0.113-3.113,0,0,0,90,false,stim,false,0,628.2999999523163,2,0,2,90166,task2,423872,false,false,523,image-keyboard-response,22
true,4,1,1,1,true,z,false,true,0.0-2.0-0.12-0.114-3.114,0,0,0,90,false,stim,false,0,364.2000000476837,2,0,2,90166,task2,425749,false,false,526,image-keyboard-response,23
true,4,0,1,0,true,q,false,true,0.0-2.0-0.12-0.115-3.115,0,0,0,81,false,stim,false,2,608.5,2,0,1,90166,task2,427871,false,false,529,image-keyboard-response,24
true,4,2,1,2,true,d,false,true,0.0-2.0-0.12-0.116-3.116,0,0,0,68,false,stim,false,1,692.1999998092651,2,0,0,90166,task2,430077,false,false,532,image-keyboard-response,25
true,4,1,1,0,false,q,true,false,0.0-2.0-0.13-0.117-3.117,0,0,0,90,false,stim,false,2,546.0999999046326,2,0,1,90166,task2,432136,false,false,535,image-keyboard-response,26
true,4,2,1,2,true,d,false,true,0.0-2.0-0.13-0.118-3.118,0,0,0,68,false,stim,false,1,784.0,2,0,0,90166,task2,434433,false,false,538,image-keyboard-response,27
true,4,1,1,0,false,q,true,false,0.0-2.0-0.13-0.119-3.119,0,0,0,90,false,stim,false,2,767.1999998092651,2,0,1,90166,task2,436709,false,false,541,image-keyboard-response,28
true,4,0,1,0,true,q,false,true,0.0-2.0-0.13-0.120-3.120,0,0,0,81,false,stim,false,2,499.09999990463257,2,0,1,90166,task2,438722,false,false,544,image-keyboard-response,29
true,4,2,1,2,true,d,false,true,0.0-2.0-0.13-0.121-3.121,0,0,0,68,false,stim,false,1,481.7000000476837,2,0,0,90166,task2,440716,false,false,547,image-keyboard-response,30
true,4,0,1,1,false,z,false,false,0.0-2.0-0.13-0.122-3.122,0,0,0,81,false,stim,true,0,897.5,2,0,2,90166,task2,443129,false,false,550,image-keyboard-response,31
true,4,1,1,1,true,z,false,true,0.0-2.0-0.13-0.123-3.123,0,0,0,90,false,stim,false,0,894.9000000953674,2,0,2,90166,task2,445537,false,false,553,image-keyboard-response,32
true,4,1,1,1,true,z,false,true,0.0-2.0-0.13-0.124-3.124,0,0,0,90,false,stim,false,0,551.8000001907349,2,0,2,90166,task2,447603,false,false,556,image-keyboard-response,33
true,4,2,1,2,true,d,false,true,0.0-2.0-0.13-0.125-3.125,0,0,0,68,false,stim,false,1,673.5999999046326,2,0,0,90166,task2,449790,false,false,559,image-keyboard-response,34
true,4,2,1,2,true,d,false,true,0.0-2.0-0.14-0.126-3.126,0,0,0,68,false,stim,false,1,415.2000000476837,2,0,0,90166,task2,451718,false,false,562,image-keyboard-response,35
true,5,2,1,2,true,d,false,true,0.0-2.0-0.14-0.127-3.127,0,0,0,68,true,stim,false,0,385.59999990463257,2,0,1,90166,task2,453618,false,false,565,image-keyboard-response,1
true,5,2,1,2,true,d,false,true,0.0-2.0-0.14-0.128-3.128,0,0,0,68,false,stim,false,0,416.60000014305115,2,0,1,90166,task2,455549,false,false,568,image-keyboard-response,2
true,5,2,1,2,true,d,false,true,0.0-2.0-0.14-0.129-3.129,0,0,0,68,false,stim,false,0,350.30000019073486,2,0,1,90166,task2,457414,false,false,571,image-keyboard-response,3
true,5,0,1,2,false,d,true,false,0.0-2.0-0.14-0.130-3.130,0,0,0,81,false,stim,false,1,1197.9000000953674,2,0,2,90166,task2,460126,false,false,574,image-keyboard-response,4
true,5,2,1,1,false,z,false,false,0.0-2.0-0.14-0.131-3.131,0,0,0,68,false,stim,true,2,577.2000000476837,2,0,0,90166,task2,462217,false,false,577,image-keyboard-response,5
true,5,1,1,2,false,d,false,false,0.0-2.0-0.14-0.132-3.132,0,0,0,90,false,stim,true,1,483.5,2,0,2,90166,task2,464215,false,false,580,image-keyboard-response,6
true,5,0,1,1,false,z,true,false,0.0-2.0-0.14-0.133-3.133,0,0,0,81,false,stim,false,2,745.5999999046326,2,0,0,90166,task2,466475,false,false,583,image-keyboard-response,7
true,5,2,1,2,true,d,false,true,0.0-2.0-0.14-0.134-3.134,0,0,0,68,false,stim,false,1,522.2000000476837,2,0,2,90166,task2,468510,false,false,586,image-keyboard-response,8
true,5,2,1,2,true,d,false,true,0.0-2.0-0.15-0.135-3.135,0,0,0,68,false,stim,false,0,356.39999985694885,2,0,1,90166,task2,470381,false,false,589,image-keyboard-response,9
true,5,2,1,2,true,d,false,true,0.0-2.0-0.15-0.136-3.136,0,0,0,68,false,stim,false,0,503.2000000476837,2,0,1,90166,task2,472397,false,false,592,image-keyboard-response,10
true,5,1,1,1,true,z,false,true,0.0-2.0-0.15-0.137-3.137,0,0,0,90,false,stim,false,2,1164.1000001430511,2,0,0,90166,task2,475074,false,false,595,image-keyboard-response,11
true,5,2,1,2,true,d,false,true,0.0-2.0-0.15-0.138-3.138,0,0,0,68,false,stim,false,1,850.0,2,0,2,90166,task2,477436,false,false,598,image-keyboard-response,12
true,5,1,1,1,true,z,false,true,0.0-2.0-0.15-0.139-3.139,0,0,0,90,false,stim,false,2,513.5,2,0,0,90166,task2,479466,false,false,601,image-keyboard-response,13
true,5,2,1,2,true,d,false,true,0.0-2.0-0.15-0.140-3.140,0,0,0,68,false,stim,false,1,419.59999990463257,2,0,2,90166,task2,481398,false,false,604,image-keyboard-response,14
true,5,1,1,2,false,d,true,false,0.0-2.0-0.15-0.141-3.141,0,0,0,90,false,stim,false,0,764.2000000476837,2,0,1,90166,task2,483677,false,false,607,image-keyboard-response,15
true,5,0,1,1,false,z,true,true,0.0-2.0-0.15-0.142-3.142,0,0,0,81,false,stim,false,2,657.0,2,0,0,90166,task2,485844,false,true,610,image-keyboard-response,16
true,5,2,1,2,true,d,false,true,0.0-2.0-0.15-0.143-3.143,0,0,0,68,false,stim,false,1,553.2999999523163,2,0,2,90166,task2,487910,false,false,613,image-keyboard-response,17
true,5,2,1,2,true,d,false,true,0.0-2.0-0.16-0.144-3.144,0,0,0,68,false,stim,false,1,397.60000014305115,2,0,2,90166,task2,489819,false,false,616,image-keyboard-response,18
true,5,2,1,2,true,d,false,true,0.0-2.0-0.16-0.145-3.145,0,0,0,68,false,stim,false,1,370.5,2,0,2,90166,task2,491701,false,false,619,image-keyboard-response,19
true,5,1,1,2,false,d,true,false,0.0-2.0-0.16-0.146-3.146,0,0,0,90,false,stim,false,0,1005.2999999523163,2,0,1,90166,task2,494221,false,false,622,image-keyboard-response,20
true,5,2,1,2,true,d,false,true,0.0-2.0-0.16-0.147-3.147,0,0,0,68,false,stim,false,1,387.0,2,0,2,90166,task2,496121,false,false,625,image-keyboard-response,21
true,5,0,1,2,false,d,false,false,0.0-2.0-0.16-0.148-3.148,0,0,0,81,false,stim,true,0,1049.0,2,0,1,90166,task2,498685,false,false,628,image-keyboard-response,22
true,5,1,1,1,true,z,false,true,0.0-2.0-0.16-0.149-3.149,0,0,0,90,false,stim,false,2,875.6999998092651,2,0,0,90166,task2,501075,false,false,631,image-keyboard-response,23
true,5,1,1,1,true,z,false,true,0.0-2.0-0.16-0.150-3.150,0,0,0,90,false,stim,false,2,389.0,2,0,0,90166,task2,502972,false,false,634,image-keyboard-response,24
true,5,2,1,2,true,d,false,true,0.0-2.0-0.16-0.151-3.151,0,0,0,68,false,stim,false,0,564.8999998569489,2,0,1,90166,task2,505050,false,false,637,image-keyboard-response,25
true,5,1,1,1,true,z,false,true,0.0-2.0-0.16-0.152-3.152,0,0,0,90,false,stim,false,2,578.3999998569489,2,0,0,90166,task2,507139,false,false,640,image-keyboard-response,26
true,5,2,1,2,true,d,false,true,0.0-2.0-0.17-0.153-3.153,0,0,0,68,false,stim,false,0,648.0,2,0,1,90166,task2,509298,false,false,643,image-keyboard-response,27
true,5,2,1,2,true,d,false,true,0.0-2.0-0.17-0.154-3.154,0,0,0,68,false,stim,false,1,1147.0,2,0,2,90166,task2,511958,false,false,646,image-keyboard-response,28
true,5,2,1,2,true,d,false,true,0.0-2.0-0.17-0.155-3.155,0,0,0,68,false,stim,false,1,495.89999985694885,2,0,2,90166,task2,513968,false,false,649,image-keyboard-response,29
true,5,2,1,2,true,d,false,true,0.0-2.0-0.17-0.156-3.156,0,0,0,68,false,stim,false,1,320.60000014305115,2,0,2,90166,task2,515802,false,false,652,image-keyboard-response,30
true,5,2,1,1,false,z,false,false,0.0-2.0-0.17-0.157-3.157,0,0,0,68,false,stim,true,2,611.5,2,0,0,90166,task2,517927,false,false,655,image-keyboard-response,31
true,5,2,1,2,true,d,false,true,0.0-2.0-0.17-0.158-3.158,0,0,0,68,false,stim,false,0,658.4000000953674,2,1,1,90166,task2,520097,false,false,658,image-keyboard-response,32
true,5,1,1,1,true,z,false,true,0.0-2.0-0.17-0.159-3.159,0,0,0,90,false,stim,false,2,567.2000000476837,2,0,0,90166,task2,522178,false,false,661,image-keyboard-response,33
true,5,2,1,2,true,d,false,true,0.0-2.0-0.17-0.160-3.160,0,0,0,68,false,stim,false,0,525.6000001430511,2,1,1,90166,task2,524216,false,false,664,image-keyboard-response,34
true,6,1,2,2,false,d,false,false,0.0-2.0-0.17-0.161-3.161,0,1,0,90,true,stim,true,1,642.4000000953674,2,0,0,90166,task2,526371,false,false,667,image-keyboard-response,1
true,6,2,2,1,false,z,false,false,0.0-2.0-0.18-0.162-3.162,0,1,0,68,false,stim,true,2,774.7999999523163,2,0,2,90166,task2,528660,false,false,670,image-keyboard-response,2
true,6,2,2,2,true,d,false,true,0.0-2.0-0.18-0.163-3.163,0,1,0,68,false,stim,false,2,673.9000000953674,2,1,1,90166,task2,530845,false,false,673,image-keyboard-response,3
true,6,0,2,2,false,d,true,false,0.0-2.0-0.18-0.164-3.164,0,1,0,81,false,stim,false,1,642.1000001430511,2,0,0,90166,task2,533000,false,false,676,image-keyboard-response,4
true,6,1,2,1,true,z,false,true,0.0-2.0-0.18-0.165-3.165,0,1,0,90,false,stim,false,2,822.5,2,0,2,90166,task2,535336,false,false,679,image-keyboard-response,5
true,6,2,2,2,true,d,false,true,0.0-2.0-0.18-0.166-3.166,0,1,0,68,false,stim,false,1,923.0,2,0,0,90166,task2,537768,false,false,682,image-keyboard-response,6
true,6,2,2,1,false,z,false,false,0.0-2.0-0.18-0.167-3.167,0,1,0,68,false,stim,true,2,359.7000000476837,2,0,2,90166,task2,539641,false,false,685,image-keyboard-response,7
true,6,2,2,2,true,d,false,true,0.0-2.0-0.18-0.168-3.168,0,1,0,68,false,stim,false,1,353.0,2,0,0,90166,task2,541508,false,false,688,image-keyboard-response,8
true,6,2,2,2,true,d,false,true,0.0-2.0-0.18-0.169-3.169,0,1,0,68,false,stim,false,2,499.59999990463257,2,1,1,90166,task2,543523,false,false,691,image-keyboard-response,9
true,6,2,2,2,true,d,false,true,0.0-2.0-0.18-0.170-3.170,0,1,0,68,false,stim,false,2,673.1999998092651,2,1,1,90166,task2,545709,false,false,694,image-keyboard-response,10
true,6,1,2,1,true,z,false,true,0.0-2.0-0.19-0.171-3.171,0,1,0,90,false,stim,false,2,866.2999999523163,2,0,2,90166,task2,548090,false,false,697,image-keyboard-response,11
true,6,0,2,2,false,d,true,false,0.0-2.0-0.19-0.172-3.172,0,1,0,81,false,stim,false,1,1118.3999998569489,2,0,0,90166,task2,550716,false,false,700,image-keyboard-response,12
true,6,2,2,2,true,d,false,true,0.0-2.0-0.19-0.173-3.173,0,1,0,68,false,stim,false,1,470.90000009536743,2,0,0,90166,task2,552705,false,false,703,image-keyboard-response,13
true,6,2,2,1,false,z,false,false,0.0-2.0-0.19-0.174-3.174,0,1,0,68,false,stim,true,2,374.60000014305115,2,0,2,90166,task2,554594,false,false,706,image-keyboard-response,14
true,6,2,2,2,true,d,false,true,0.0-2.0-0.19-0.175-3.175,0,1,0,68,false,stim,false,1,715.3999998569489,2,0,0,90166,task2,556821,false,false,709,image-keyboard-response,15
true,6,2,2,2,true,d,false,true,0.0-2.0-0.19-0.176-3.176,0,1,0,68,false,stim,false,2,416.0,2,1,1,90166,task2,558750,false,false,712,image-keyboard-response,16
true,6,1,2,1,true,z,false,false,0.0-2.0-0.19-0.177-3.177,0,1,0,90,false,stim,false,2,703.7999999523163,2,0,2,90166,task2,560969,false,true,715,image-keyboard-response,17
true,6,2,2,2,true,d,false,true,0.0-2.0-0.19-0.178-3.178,0,1,0,68,false,stim,false,2,393.7000000476837,2,1,1,90166,task2,562876,false,false,718,image-keyboard-response,18
true,6,2,2,2,true,d,false,true,0.0-2.0-0.19-0.179-3.179,0,1,0,68,false,stim,false,2,471.40000009536743,2,1,1,90166,task2,564855,false,false,721,image-keyboard-response,19
true,6,2,2,2,true,d,false,true,0.0-2.0-0.20-0.180-3.180,0,1,0,68,false,stim,false,1,653.2000000476837,2,0,0,90166,task2,567024,false,false,724,image-keyboard-response,20
true,6,0,2,1,false,z,true,false,0.0-2.0-0.20-0.181-3.181,0,1,0,81,false,stim,false,2,685.7000000476837,2,0,2,90166,task2,569223,false,false,727,image-keyboard-response,21
true,6,2,2,1,false,z,false,false,0.0-2.0-0.20-0.182-3.182,0,1,0,68,false,stim,true,2,283.7000000476837,2,0,2,90166,task2,571020,false,false,730,image-keyboard-response,22
true,6,1,2,1,true,z,false,true,0.0-2.0-0.20-0.183-3.183,0,1,0,90,false,stim,false,2,461.90000009536743,2,0,2,90166,task2,572990,false,false,733,image-keyboard-response,23
true,6,2,2,2,true,d,false,true,0.0-2.0-0.20-0.184-3.184,0,1,0,68,false,stim,false,1,556.5999999046326,2,0,0,90166,task2,575061,false,false,736,image-keyboard-response,24
true,6,2,2,2,true,d,false,true,0.0-2.0-0.20-0.185-3.185,0,1,0,68,false,stim,false,1,408.09999990463257,2,0,0,90166,task2,576982,false,false,739,image-keyboard-response,25
true,6,2,2,2,true,d,false,true,0.0-2.0-0.20-0.186-3.186,0,1,0,68,false,stim,false,2,1019.9000000953674,2,1,1,90166,task2,579517,false,false,742,image-keyboard-response,26
true,6,2,2,2,true,d,false,false,0.0-2.0-0.20-0.187-3.187,0,1,0,68,false,stim,false,2,730.7000000476837,2,0,1,90166,task2,581761,false,true,745,image-keyboard-response,27
true,6,1,2,2,false,d,true,false,0.0-2.0-0.20-0.188-3.188,0,1,0,90,false,stim,false,2,905.0,2,0,1,90166,task2,584179,false,false,748,image-keyboard-response,28
true,6,2,2,1,false,z,false,false,0.0-2.0-0.21-0.189-3.189,0,1,0,68,false,stim,true,2,595.7999999523163,2,1,2,90166,task2,586288,false,false,751,image-keyboard-response,29
true,6,0,2,2,false,d,true,false,0.0-2.0-0.21-0.190-3.190,0,1,0,81,false,stim,false,2,303.7999999523163,2,0,1,90166,task2,588106,false,false,754,image-keyboard-response,30
true,6,1,2,1,true,z,false,false,0.0-2.0-0.21-0.191-3.191,0,1,0,90,false,stim,false,2,503.90000009536743,2,1,2,90166,task2,590119,false,true,757,image-keyboard-response,31
true,7,2,2,1,false,z,false,false,0.0-2.0-0.21-0.192-3.192,0,0,1,68,true,stim,true,2,349.40000009536743,2,0,1,90166,task2,591981,false,false,760,image-keyboard-response,1
true,7,2,2,1,false,z,false,false,0.0-2.0-0.21-0.193-3.193,0,0,1,68,false,stim,true,2,555.1000001430511,2,0,1,90166,task2,594048,false,false,763,image-keyboard-response,2
true,7,1,2,0,false,q,true,false,0.0-2.0-0.21-0.194-3.194,0,0,1,90,false,stim,false,2,967.7999999523163,2,0,0,90166,task2,596529,false,false,766,image-keyboard-response,3
true,7,2,2,1,false,z,true,true,0.0-2.0-0.21-0.195-3.195,0,0,1,68,false,stim,false,1,545.7999999523163,2,1,2,90166,task2,598588,false,true,769,image-keyboard-response,4
true,7,0,2,0,true,q,false,true,0.0-2.0-0.21-0.196-3.196,0,0,1,81,false,stim,false,2,884.5,2,0,0,90166,task2,600986,false,false,772,image-keyboard-response,5
true,7,0,2,0,true,q,false,true,0.0-2.0-0.21-0.197-3.197,0,0,1,81,false,stim,false,2,539.0999999046326,2,0,0,90166,task2,603039,false,false,775,image-keyboard-response,6
true,7,1,2,1,true,z,false,true,0.0-2.0-0.22-0.198-3.198,0,0,1,90,false,stim,false,1,642.2000000476837,2,1,2,90166,task2,605192,false,false,778,image-keyboard-response,7
true,7,1,2,1,true,z,false,true,0.0-2.0-0.22-0.199-3.199,0,0,1,90,false,stim,false,1,470.09999990463257,2,1,2,90166,task2,607174,false,false,781,image-keyboard-response,8
true,7,2,2,1,false,z,false,false,0.0-2.0-0.22-0.200-3.200,0,0,1,68,false,stim,true,2,452.5,2,0,1,90166,task2,609139,false,false,784,image-keyboard-response,9
true,7,0,2,1,false,z,true,false,0.0-2.0-0.22-0.201-3.201,0,0,1,81,false,stim,false,2,438.5,2,0,1,90166,task2,611093,false,false,787,image-keyboard-response,10
true,7,1,2,0,false,q,true,false,0.0-2.0-0.22-0.202-3.202,0,0,1,90,false,stim,false,2,593.9000000953674,2,0,0,90166,task2,613200,false,false,790,image-keyboard-response,11
true,7,1,2,1,true,z,false,true,0.0-2.0-0.22-0.203-3.203,0,0,1,90,false,stim,false,1,602.2999999523163,2,1,2,90166,task2,615317,false,false,793,image-keyboard-response,12
true,7,2,2,0,false,q,false,true,0.0-2.0-0.22-0.204-3.204,0,0,1,68,false,stim,true,2,533.9000000953674,2,0,0,90166,task2,617364,false,true,796,image-keyboard-response,13
true,7,1,2,1,true,z,false,true,0.0-2.0-0.22-0.205-3.205,0,0,1,90,false,stim,false,2,473.0,2,0,1,90166,task2,619350,false,false,799,image-keyboard-response,14
true,7,2,2,0,false,q,false,false,0.0-2.0-0.22-0.206-3.206,0,0,1,68,false,stim,true,2,462.7999999523163,2,0,0,90166,task2,621332,false,false,802,image-keyboard-response,15
true,7,1,2,1,true,z,false,true,0.0-2.0-0.23-0.207-3.207,0,0,1,90,false,stim,false,2,684.3999998569489,2,0,1,90166,task2,623530,false,false,805,image-keyboard-response,16
true,7,0,2,0,true,q,false,true,0.0-2.0-0.23-0.208-3.208,0,0,1,81,false,stim,false,2,802.6000001430511,2,0,0,90166,task2,625846,false,false,808,image-keyboard-response,17
true,7,0,2,0,true,q,false,true,0.0-2.0-0.23-0.209-3.209,0,0,1,81,false,stim,false,2,725.5,2,0,0,90166,task2,628083,false,false,811,image-keyboard-response,18
true,7,1,2,1,true,z,false,true,0.0-2.0-0.23-0.210-3.210,0,0,1,90,false,stim,false,1,624.2999999523163,2,1,2,90166,task2,630221,false,false,814,image-keyboard-response,19
true,7,0,2,0,true,q,false,true,0.0-2.0-0.23-0.211-3.211,0,0,1,81,false,stim,false,2,495.2000000476837,2,0,0,90166,task2,632229,false,false,817,image-keyboard-response,20
true,7,1,2,1,true,z,false,true,0.0-2.0-0.23-0.212-3.212,0,0,1,90,false,stim,false,1,463.69999980926514,2,1,2,90166,task2,634206,false,false,820,image-keyboard-response,21
true,7,1,2,1,true,z,false,true,0.0-2.0-0.23-0.213-3.213,0,0,1,90,false,stim,false,2,1323.3999998569489,2,0,1,90166,task2,637041,false,false,823,image-keyboard-response,22
true,7,1,2,1,true,z,false,true,0.0-2.0-0.23-0.214-3.214,0,0,1,90,false,stim,false,1,672.0999999046326,2,1,2,90166,task2,639226,false,false,826,image-keyboard-response,23
true,7,1,2,1,true,z,false,true,0.0-2.0-0.23-0.215-3.215,0,0,1,90,false,stim,false,2,476.5,2,0,1,90166,task2,641216,false,false,829,image-keyboard-response,24
true,7,1,2,1,true,z,false,true,0.0-2.0-0.24-0.216-3.216,0,0,1,90,false,stim,false,2,378.39999985694885,2,0,1,90166,task2,643106,false,false,832,image-keyboard-response,25
true,7,1,2,1,true,z,false,true,0.0-2.0-0.24-0.217-3.217,0,0,1,90,false,stim,false,2,328.0,2,0,1,90166,task2,644949,false,false,835,image-keyboard-response,26
true,7,0,2,0,true,q,false,false,0.0-2.0-0.24-0.218-3.218,0,0,1,81,false,stim,false,2,571.2999999523163,2,0,0,90166,task2,647032,false,true,838,image-keyboard-response,27
true,7,1,2,1,true,z,false,true,0.0-2.0-0.24-0.219-3.219,0,0,1,90,false,stim,false,2,599.7000000476837,2,0,1,90166,task2,649145,false,false,841,image-keyboard-response,28
true,7,1,2,0,false,q,true,false,0.0-2.0-0.24-0.220-3.220,0,0,1,90,false,stim,false,2,330.0,2,0,0,90166,task2,650988,false,false,844,image-keyboard-response,29
true,7,1,2,1,true,z,false,true,0.0-2.0-0.24-0.221-3.221,0,0,1,90,false,stim,false,1,574.2000000476837,2,1,2,90166,task2,653076,false,false,847,image-keyboard-response,30
true,7,2,2,0,false,q,false,false,0.0-2.0-0.24-0.222-3.222,0,0,1,68,false,stim,true,2,925.7000000476837,2,0,0,90166,task2,655513,false,false,850,image-keyboard-response,31
true,7,1,2,1,true,z,false,true,0.0-2.0-0.24-0.223-3.223,0,0,1,90,false,stim,false,1,659.4000000953674,2,0,2,90166,task2,657687,false,false,853,image-keyboard-response,32
true,7,1,2,1,true,z,false,true,0.0-2.0-0.24-0.224-3.224,0,0,1,90,false,stim,false,1,520.6000001430511,2,0,2,90166,task2,659721,false,false,856,image-keyboard-response,33
true,7,1,2,1,true,z,false,true,0.0-2.0-0.25-0.225-3.225,0,0,1,90,false,stim,false,1,385.7999999523163,2,0,2,90166,task2,661618,false,false,859,image-keyboard-response,34
true,7,1,2,1,true,z,false,true,0.0-2.0-0.25-0.226-3.226,0,0,1,90,false,stim,false,1,433.40000009536743,2,0,2,90166,task2,663561,false,false,862,image-keyboard-response,35
true,8,1,2,1,true,z,false,true,0.0-2.0-0.25-0.227-3.227,0,1,0,90,true,stim,false,1,814.1000001430511,2,1,1,90166,task2,665891,false,false,865,image-keyboard-response,1
true,8,1,2,2,false,d,true,false,0.0-2.0-0.25-0.228-3.228,0,1,0,90,false,stim,false,0,345.09999990463257,2,0,0,90166,task2,667750,false,false,868,image-keyboard-response,2
true,8,2,2,2,true,d,false,true,0.0-2.0-0.25-0.229-3.229,0,1,0,68,false,stim,false,0,456.40000009536743,2,0,0,90166,task2,669721,false,false,871,image-keyboard-response,3
true,8,1,2,1,true,z,false,true,0.0-2.0-0.25-0.230-3.230,0,1,0,90,false,stim,false,1,486.5,2,1,1,90166,task2,671723,false,false,874,image-keyboard-response,4
true,8,1,2,0,false,q,false,false,0.0-2.0-0.25-0.231-3.231,0,1,0,90,false,stim,true,1,529.0,2,0,2,90166,task2,673762,false,false,877,image-keyboard-response,5
true,8,2,2,2,true,d,false,true,0.0-2.0-0.25-0.232-3.232,0,1,0,68,false,stim,false,0,427.80000019073486,2,0,0,90166,task2,675701,false,false,880,image-keyboard-response,6
true,8,1,2,1,true,z,false,true,0.0-2.0-0.25-0.233-3.233,0,1,0,90,false,stim,false,1,511.90000009536743,2,1,1,90166,task2,677728,false,false,883,image-keyboard-response,7
true,8,1,2,0,false,q,false,false,0.0-2.0-0.26-0.234-3.234,0,1,0,90,false,stim,true,1,779.0999999046326,2,0,2,90166,task2,680021,false,false,886,image-keyboard-response,8
true,8,2,2,1,false,z,true,false,0.0-2.0-0.26-0.235-3.235,0,1,0,68,false,stim,false,1,449.7000000476837,2,1,1,90166,task2,681984,false,false,889,image-keyboard-response,9
true,8,2,2,2,true,d,false,false,0.0-2.0-0.26-0.236-3.236,0,1,0,68,false,stim,false,0,727.2999999523163,2,0,0,90166,task2,684223,false,true,892,image-keyboard-response,10
true,8,1,2,1,true,z,false,true,0.0-2.0-0.26-0.237-3.237,0,1,0,90,false,stim,false,1,687.5,2,1,1,90166,task2,686420,false,false,895,image-keyboard-response,11
true,8,0,2,0,true,q,false,true,0.0-2.0-0.26-0.238-3.238,0,1,0,81,false,stim,false,1,668.9000000953674,2,0,2,90166,task2,688602,false,false,898,image-keyboard-response,12
true,8,1,2,2,false,d,true,true,0.0-2.0-0.26-0.239-3.239,0,1,0,90,false,stim,false,0,1250.8000001907349,2,0,0,90166,task2,691371,false,true,901,image-keyboard-response,13
true,8,0,2,1,false,z,true,false,0.0-2.0-0.26-0.240-3.240,0,1,0,81,false,stim,false,1,661.2999999523163,2,1,1,90166,task2,693547,false,false,904,image-keyboard-response,14
true,8,1,2,2,false,d,true,false,0.0-2.0-0.26-0.241-3.241,0,1,0,90,false,stim,false,0,416.09999990463257,2,0,0,90166,task2,695477,false,false,907,image-keyboard-response,15
true,8,0,2,0,true,q,false,true,0.0-2.0-0.26-0.242-3.242,0,1,0,81,false,stim,false,1,543.8999998569489,2,0,2,90166,task2,697533,false,false,910,image-keyboard-response,16
true,8,0,2,0,true,q,false,true,0.0-2.0-0.27-0.243-3.243,0,1,0,81,false,stim,false,1,540.2999999523163,2,0,2,90166,task2,699587,false,false,913,image-keyboard-response,17
true,8,0,2,0,true,q,false,true,0.0-2.0-0.27-0.244-3.244,0,1,0,81,false,stim,false,1,370.2999999523163,2,0,2,90166,task2,701470,false,false,916,image-keyboard-response,18
true,8,1,2,2,false,d,true,true,0.0-2.0-0.27-0.245-3.245,0,1,0,90,false,stim,false,0,874.3999998569489,2,0,0,90166,task2,703860,false,true,919,image-keyboard-response,19
true,8,1,2,2,false,d,true,false,0.0-2.0-0.27-0.246-3.246,0,1,0,90,false,stim,false,0,400.60000014305115,2,0,0,90166,task2,705774,false,false,922,image-keyboard-response,20
true,8,1,2,2,false,d,true,false,0.0-2.0-0.27-0.247-3.247,0,1,0,90,false,stim,false,0,882.3999998569489,2,0,0,90166,task2,708171,false,false,925,image-keyboard-response,21
true,8,2,2,1,false,z,true,false,0.0-2.0-0.27-0.248-3.248,0,1,0,68,false,stim,false,1,441.19999980926514,2,1,1,90166,task2,710125,false,false,928,image-keyboard-response,22
true,8,0,2,0,true,q,false,true,0.0-2.0-0.27-0.249-3.249,0,1,0,81,false,stim,false,1,615.0999999046326,2,0,2,90166,task2,712255,false,false,931,image-keyboard-response,23
true,8,0,2,1,false,z,true,false,0.0-2.0-0.27-0.250-3.250,0,1,0,81,false,stim,false,1,780.7000000476837,2,1,1,90166,task2,714549,false,false,934,image-keyboard-response,24
true,8,1,2,1,true,z,false,true,0.0-2.0-0.27-0.251-3.251,0,1,0,90,false,stim,false,1,415.40000009536743,2,1,1,90166,task2,716480,false,false,937,image-keyboard-response,25
true,8,0,2,2,false,d,false,false,0.0-2.0-0.28-0.252-3.252,0,1,0,81,false,stim,true,0,1052.7000000476837,2,0,0,90166,task2,719046,false,false,940,image-keyboard-response,26
true,8,2,2,1,false,z,true,false,0.0-2.0-0.28-0.253-3.253,0,1,0,68,false,stim,false,1,616.5,2,1,1,90166,task2,721175,false,false,943,image-keyboard-response,27
true,8,1,2,1,true,z,false,true,0.0-2.0-0.28-0.254-3.254,0,1,0,90,false,stim,false,1,500.10000014305115,2,1,1,90166,task2,723189,false,false,946,image-keyboard-response,28
true,8,0,2,2,false,d,false,false,0.0-2.0-0.28-0.255-3.255,0,1,0,81,false,stim,true,0,714.7000000476837,2,1,0,90166,task2,725417,false,false,949,image-keyboard-response,29
true,8,0,2,0,true,q,false,true,0.0-2.0-0.28-0.256-3.256,0,1,0,81,false,stim,false,1,991.6999998092651,2,0,2,90166,task2,727922,false,false,952,image-keyboard-response,30
true,8,1,2,2,false,d,true,false,0.0-2.0-0.28-0.257-3.257,0,1,0,90,false,stim,false,0,1003.4000000953674,2,1,0,90166,task2,730441,false,false,955,image-keyboard-response,31
true,8,2,2,0,false,q,true,false,0.0-2.0-0.28-0.258-3.258,0,1,0,68,false,stim,false,1,368.2000000476837,2,0,2,90166,task2,732317,false,false,958,image-keyboard-response,32
true,8,0,2,0,true,q,false,true,0.0-2.0-0.28-0.259-3.259,0,1,0,81,false,stim,false,1,448.7999999523163,2,0,2,90166,task2,734281,false,false,961,image-keyboard-response,33
true,9,0,2,0,true,q,false,true,0.0-2.0-0.28-0.260-3.260,1,0,0,81,true,stim,false,1,673.2999999523163,2,0,1,90166,task2,736469,false,false,964,image-keyboard-response,1
true,9,1,2,2,false,d,true,false,0.0-2.0-0.29-0.261-3.261,1,0,0,90,false,stim,false,0,736.6000001430511,2,0,2,90166,task2,738717,false,false,967,image-keyboard-response,2
true,9,2,2,2,true,d,false,true,0.0-2.0-0.29-0.262-3.262,1,0,0,68,false,stim,false,0,419.39999985694885,2,0,2,90166,task2,740650,false,false,970,image-keyboard-response,3
true,9,0,2,2,false,d,true,true,0.0-2.0-0.29-0.263-3.263,1,0,0,81,false,stim,false,2,664.0999999046326,2,1,0,90166,task2,742825,false,true,973,image-keyboard-response,4
true,9,0,2,2,false,d,true,true,0.0-2.0-0.29-0.264-3.264,1,0,0,81,false,stim,false,2,520.3999998569489,2,1,0,90166,task2,744859,false,true,976,image-keyboard-response,5
true,9,2,2,0,false,q,true,false,0.0-2.0-0.29-0.265-3.265,1,0,0,68,false,stim,false,1,1580.2000000476837,2,0,1,90166,task2,747949,false,false,979,image-keyboard-response,6
true,9,0,2,0,true,q,false,true,0.0-2.0-0.29-0.266-3.266,1,0,0,81,false,stim,false,1,750.2000000476837,2,0,1,90166,task2,750213,false,false,982,image-keyboard-response,7
true,9,0,2,0,true,q,false,true,0.0-2.0-0.29-0.267-3.267,1,0,0,81,false,stim,false,1,496.69999980926514,2,0,1,90166,task2,752224,false,false,985,image-keyboard-response,8
true,9,1,2,2,false,d,true,false,0.0-2.0-0.29-0.268-3.268,1,0,0,90,false,stim,false,0,763.3999998569489,2,0,2,90166,task2,754501,false,false,988,image-keyboard-response,9
true,9,2,2,2,true,d,false,true,0.0-2.0-0.29-0.269-3.269,1,0,0,68,false,stim,false,2,857.0,2,1,0,90166,task2,756868,false,false,991,image-keyboard-response,10
true,9,0,2,0,true,q,false,true,0.0-2.0-0.30-0.270-3.270,1,0,0,81,false,stim,false,1,581.0,2,0,1,90166,task2,758963,false,false,994,image-keyboard-response,11
true,9,1,2,2,false,d,true,false,0.0-2.0-0.30-0.271-3.271,1,0,0,90,false,stim,false,2,1154.7999999523163,2,1,0,90166,task2,761631,false,false,997,image-keyboard-response,12
true,9,0,2,2,false,d,false,false,0.0-2.0-0.30-0.272-3.272,1,0,0,81,false,stim,true,0,535.0,2,0,2,90166,task2,763676,false,false,1000,image-keyboard-response,13
true,9,0,2,0,true,q,false,true,0.0-2.0-0.30-0.273-3.273,1,0,0,81,false,stim,false,1,728.1999998092651,2,0,1,90166,task2,765921,false,false,1003,image-keyboard-response,14
true,9,0,2,2,false,d,true,false,0.0-2.0-0.30-0.274-3.274,1,0,0,81,false,stim,false,2,837.8999998569489,2,1,0,90166,task2,768272,false,false,1006,image-keyboard-response,15
true,9,1,2,0,false,q,false,false,0.0-2.0-0.30-0.275-3.275,1,0,0,90,false,stim,true,1,467.59999990463257,2,0,1,90166,task2,770253,false,false,1009,image-keyboard-response,16
true,9,2,2,2,true,d,false,true,0.0-2.0-0.30-0.276-3.276,1,0,0,68,false,stim,false,0,382.0,2,0,2,90166,task2,772150,false,false,1012,image-keyboard-response,17
true,9,0,2,2,false,d,true,false,0.0-2.0-0.30-0.277-3.277,1,0,0,81,false,stim,false,2,989.2000000476837,2,1,0,90166,task2,774656,false,false,1015,image-keyboard-response,18
true,9,2,2,2,true,d,false,true,0.0-2.0-0.30-0.278-3.278,1,0,0,68,false,stim,false,0,565.0999999046326,2,0,2,90166,task2,776734,false,false,1018,image-keyboard-response,19
true,9,2,2,0,false,q,true,false,0.0-2.0-0.31-0.279-3.279,1,0,0,68,false,stim,false,1,1411.3999998569489,2,0,1,90166,task2,779660,false,false,1021,image-keyboard-response,20
true,9,0,2,0,true,q,false,true,0.0-2.0-0.31-0.280-3.280,1,0,0,81,false,stim,false,1,694.5,2,0,1,90166,task2,781868,false,false,1024,image-keyboard-response,21
true,9,0,2,2,false,d,false,false,0.0-2.0-0.31-0.281-3.281,1,0,0,81,false,stim,true,0,625.6000001430511,2,0,2,90166,task2,784007,false,false,1027,image-keyboard-response,22
true,9,2,2,2,true,d,false,true,0.0-2.0-0.31-0.282-3.282,1,0,0,68,false,stim,false,2,587.5,2,1,0,90166,task2,786108,false,false,1030,image-keyboard-response,23
true,9,2,2,2,true,d,false,true,0.0-2.0-0.31-0.283-3.283,1,0,0,68,false,stim,false,2,1097.2000000476837,2,1,0,90166,task2,788720,false,false,1033,image-keyboard-response,24
true,9,2,2,2,true,d,false,true,0.0-2.0-0.31-0.284-3.284,1,0,0,68,false,stim,false,0,655.2999999523163,2,0,2,90166,task2,790889,false,false,1036,image-keyboard-response,25
true,9,0,2,0,true,q,false,true,0.0-2.0-0.31-0.285-3.285,1,0,0,81,false,stim,false,1,509.69999980926514,2,0,1,90166,task2,792912,false,false,1039,image-keyboard-response,26
true,9,0,2,2,false,d,false,false,0.0-2.0-0.31-0.286-3.286,1,0,0,81,false,stim,true,0,761.2000000476837,2,0,2,90166,task2,795186,false,false,1042,image-keyboard-response,27
true,9,2,2,2,true,d,false,true,0.0-2.0-0.31-0.287-3.287,1,0,0,68,false,stim,false,2,652.4000000953674,2,0,0,90166,task2,797352,false,false,1045,image-keyboard-response,28
true,9,2,2,2,true,d,false,true,0.0-2.0-0.32-0.288-3.288,1,0,0,68,false,stim,false,2,1870.9000000953674,2,0,0,90166,task2,800736,false,false,1048,image-keyboard-response,29
true,9,0,2,0,true,q,false,true,0.0-2.0-0.32-0.289-3.289,1,0,0,81,false,stim,false,1,740.7999999523163,2,1,1,90166,task2,802990,false,false,1051,image-keyboard-response,30
true,9,2,2,2,true,d,false,true,0.0-2.0-0.32-0.290-3.290,1,0,0,68,false,stim,false,0,525.0,2,0,2,90166,task2,805027,false,false,1054,image-keyboard-response,31
true,10,0,2,0,true,q,false,true,0.0-2.0-0.32-0.291-3.291,0,1,0,81,true,stim,false,0,984.3999998569489,2,1,1,90166,task2,807525,false,false,1057,image-keyboard-response,1
true,10,2,2,1,false,z,false,false,0.0-2.0-0.32-0.292-3.292,0,1,0,68,false,stim,true,2,908.2999999523163,2,0,2,90166,task2,809947,false,false,1060,image-keyboard-response,2
true,10,1,2,0,false,q,true,false,0.0-2.0-0.32-0.293-3.293,0,1,0,90,false,stim,false,2,664.2999999523163,2,0,0,90166,task2,812125,false,false,1063,image-keyboard-response,3
true,10,0,2,1,false,z,true,false,0.0-2.0-0.32-0.294-3.294,0,1,0,81,false,stim,false,2,507.69999980926514,2,0,2,90166,task2,814145,false,false,1066,image-keyboard-response,4
true,10,2,2,0,false,q,false,false,0.0-2.0-0.32-0.295-3.295,0,1,0,68,false,stim,true,2,460.7999999523163,2,0,0,90166,task2,816120,false,false,1069,image-keyboard-response,5
true,10,0,2,0,true,q,false,true,0.0-2.0-0.32-0.296-3.296,0,1,0,81,false,stim,false,0,410.7000000476837,2,1,1,90166,task2,818045,false,false,1072,image-keyboard-response,6
true,10,0,2,0,true,q,false,true,0.0-2.0-0.33-0.297-3.297,0,1,0,81,false,stim,false,0,385.09999990463257,2,1,1,90166,task2,819945,false,false,1075,image-keyboard-response,7
true,10,1,2,0,false,q,true,false,0.0-2.0-0.33-0.298-3.298,0,1,0,90,false,stim,false,2,882.0999999046326,2,0,0,90166,task2,822343,false,false,1078,image-keyboard-response,8
true,10,0,2,0,true,q,false,true,0.0-2.0-0.33-0.299-3.299,0,1,0,81,false,stim,false,0,502.0,2,1,1,90166,task2,824356,false,false,1081,image-keyboard-response,9
true,10,2,2,1,false,z,false,false,0.0-2.0-0.33-0.300-3.300,0,1,0,68,false,stim,true,2,378.40000009536743,2,0,2,90166,task2,826243,false,false,1084,image-keyboard-response,10
true,10,0,2,0,true,q,false,true,0.0-2.0-0.33-0.301-3.301,0,1,0,81,false,stim,false,2,428.80000019073486,2,0,0,90166,task2,828184,false,false,1087,image-keyboard-response,11
true,10,1,2,0,false,q,true,false,0.0-2.0-0.33-0.302-3.302,0,1,0,90,false,stim,false,0,554.2000000476837,2,1,1,90166,task2,830254,false,false,1090,image-keyboard-response,12
true,10,0,2,1,false,z,true,false,0.0-2.0-0.33-0.303-3.303,0,1,0,81,false,stim,false,2,619.9000000953674,2,0,2,90166,task2,832387,false,false,1093,image-keyboard-response,13
true,10,0,2,0,true,q,false,true,0.0-2.0-0.33-0.304-3.304,0,1,0,81,false,stim,false,2,344.90000009536743,2,0,0,90166,task2,834245,false,false,1096,image-keyboard-response,14
true,10,0,2,1,false,z,true,false,0.0-2.0-0.33-0.305-3.305,0,1,0,81,false,stim,false,2,716.8999998569489,2,0,2,90166,task2,836472,false,false,1099,image-keyboard-response,15
true,10,0,2,0,true,q,false,true,0.0-2.0-0.34-0.306-3.306,0,1,0,81,false,stim,false,2,612.1999998092651,2,0,0,90166,task2,838605,false,false,1102,image-keyboard-response,16
true,10,2,2,1,false,z,false,true,0.0-2.0-0.34-0.307-3.307,0,1,0,68,false,stim,true,2,418.39999985694885,2,0,2,90166,task2,840535,false,true,1105,image-keyboard-response,17
true,10,2,2,1,false,z,false,false,0.0-2.0-0.34-0.308-3.308,0,1,0,68,false,stim,true,2,405.2000000476837,2,0,2,90166,task2,842454,false,false,1108,image-keyboard-response,18
true,10,0,2,0,true,q,false,false,0.0-2.0-0.34-0.309-3.309,0,1,0,81,false,stim,false,0,845.4000000953674,2,1,1,90166,task2,844814,false,true,1111,image-keyboard-response,19
true,10,1,2,0,false,q,true,false,0.0-2.0-0.34-0.310-3.310,0,1,0,90,false,stim,false,0,531.2000000476837,2,1,1,90166,task2,846859,false,false,1114,image-keyboard-response,20
true,10,0,2,0,true,q,false,true,0.0-2.0-0.34-0.311-3.311,0,1,0,81,false,stim,false,2,369.09999990463257,2,0,0,90166,task2,848742,false,false,1117,image-keyboard-response,21
true,10,0,2,1,false,z,true,false,0.0-2.0-0.34-0.312-3.312,0,1,0,81,false,stim,false,2,499.7000000476837,2,0,2,90166,task2,850754,false,false,1120,image-keyboard-response,22
true,10,1,2,0,false,q,true,false,0.0-2.0-0.34-0.313-3.313,0,1,0,90,false,stim,false,0,295.09999990463257,2,1,1,90166,task2,852560,false,false,1123,image-keyboard-response,23
true,10,2,2,0,false,q,false,false,0.0-2.0-0.34-0.314-3.314,0,1,0,68,false,stim,true,2,313.60000014305115,2,0,0,90166,task2,854389,false,false,1126,image-keyboard-response,24
true,10,0,2,0,true,q,false,true,0.0-2.0-0.35-0.315-3.315,0,1,0,81,false,stim,false,2,374.2999999523163,2,0,0,90166,task2,856279,false,false,1129,image-keyboard-response,25
true,10,0,2,1,false,z,true,false,0.0-2.0-0.35-0.316-3.316,0,1,0,81,false,stim,false,2,691.0999999046326,2,0,2,90166,task2,858485,false,false,1132,image-keyboard-response,26
true,10,2,2,0,false,q,false,false,0.0-2.0-0.35-0.317-3.317,0,1,0,68,false,stim,true,2,582.1999998092651,2,0,0,90166,task2,860580,false,false,1135,image-keyboard-response,27
true,10,1,2,0,false,q,true,false,0.0-2.0-0.35-0.318-3.318,0,1,0,90,false,stim,false,0,241.20000004768372,2,1,1,90166,task2,862335,false,false,1138,image-keyboard-response,28
true,10,0,2,1,false,z,true,false,0.0-2.0-0.35-0.319-3.319,0,1,0,81,false,stim,false,2,419.59999990463257,2,0,2,90166,task2,864267,false,false,1141,image-keyboard-response,29
true,10,2,2,1,false,z,false,false,0.0-2.0-0.35-0.320-3.320,0,1,0,68,false,stim,true,2,345.59999990463257,2,0,2,90166,task2,866127,false,false,1144,image-keyboard-response,30
true,10,0,2,0,true,q,false,true,0.0-2.0-0.35-0.321-3.321,0,1,0,81,false,stim,false,0,1184.0,2,0,1,90166,task2,868827,false,false,1147,image-keyboard-response,31
true,10,0,2,0,true,q,false,true,0.0-2.0-0.35-0.322-3.322,0,1,0,81,false,stim,false,2,2576.4000000953674,2,1,0,90166,task2,872917,false,false,1150,image-keyboard-response,32
true,10,0,2,0,true,q,false,true,0.0-2.0-0.35-0.323-3.323,0,1,0,81,false,stim,false,0,626.7000000476837,2,0,1,90166,task2,875058,false,false,1153,image-keyboard-response,33
true,10,0,2,0,true,q,false,true,0.0-2.0-0.36-0.324-3.324,0,1,0,81,false,stim,false,0,401.90000009536743,2,0,1,90166,task2,876975,false,false,1156,image-keyboard-response,34
true,10,0,2,0,true,q,false,true,0.0-2.0-0.36-0.325-3.325,0,1,0,81,false,stim,false,2,686.0,2,1,0,90166,task2,879176,false,false,1159,image-keyboard-response,35
true,11,0,2,2,false,d,true,false,0.0-2.0-0.36-0.326-3.326,1,0,0,81,true,stim,false,1,683.1000001430511,2,0,2,90166,task2,881374,false,false,1162,image-keyboard-response,1
true,11,1,2,2,false,d,false,false,0.0-2.0-0.36-0.327-3.327,1,0,0,90,false,stim,true,1,870.0,2,0,2,90166,task2,883753,false,false,1165,image-keyboard-response,2
true,11,2,2,0,false,q,true,false,0.0-2.0-0.36-0.328-3.328,1,0,0,68,false,stim,false,0,351.0,2,1,0,90166,task2,885618,false,false,1168,image-keyboard-response,3
true,11,0,2,2,false,d,false,false,0.0-2.0-0.36-0.329-3.329,1,0,0,81,false,stim,true,0,467.7000000476837,2,0,1,90166,task2,887600,false,false,1171,image-keyboard-response,4
true,11,0,2,2,false,d,true,false,0.0-2.0-0.36-0.330-3.330,1,0,0,81,false,stim,false,1,1371.9000000953674,2,0,2,90166,task2,890488,false,false,1174,image-keyboard-response,5
true,11,0,2,0,true,q,false,true,0.0-2.0-0.36-0.331-3.331,1,0,0,81,false,stim,false,0,585.5,2,1,0,90166,task2,892587,false,false,1177,image-keyboard-response,6
true,11,2,2,2,true,d,false,false,0.0-2.0-0.36-0.332-3.332,1,0,0,68,false,stim,false,0,863.8999998569489,2,0,1,90166,task2,894966,false,true,1180,image-keyboard-response,7
true,11,0,2,0,true,q,false,true,0.0-2.0-0.37-0.333-3.333,1,0,0,81,false,stim,false,0,569.5,2,1,0,90166,task2,897049,false,false,1183,image-keyboard-response,8
true,11,1,2,2,false,d,false,false,0.0-2.0-0.37-0.334-3.334,1,0,0,90,false,stim,true,1,568.7999999523163,2,0,2,90166,task2,899132,false,false,1186,image-keyboard-response,9
true,11,0,2,2,false,d,false,false,0.0-2.0-0.37-0.335-3.335,1,0,0,81,false,stim,true,0,598.1000001430511,2,0,1,90166,task2,901240,false,false,1189,image-keyboard-response,10
true,11,2,2,2,true,d,false,true,0.0-2.0-0.37-0.336-3.336,1,0,0,68,false,stim,false,0,679.5,2,0,1,90166,task2,903433,false,false,1192,image-keyboard-response,11
true,11,2,2,2,true,d,false,true,0.0-2.0-0.37-0.337-3.337,1,0,0,68,false,stim,false,0,364.5,2,0,1,90166,task2,905311,false,false,1195,image-keyboard-response,12
true,11,0,2,0,true,q,false,true,0.0-2.0-0.37-0.338-3.338,1,0,0,81,false,stim,false,0,1177.1999998092651,2,1,0,90166,task2,908001,false,false,1198,image-keyboard-response,13
true,11,0,2,0,true,q,false,true,0.0-2.0-0.37-0.339-3.339,1,0,0,81,false,stim,false,0,506.09999990463257,2,1,0,90166,task2,910027,false,false,1201,image-keyboard-response,14
true,11,2,2,2,true,d,false,true,0.0-2.0-0.37-0.340-3.340,1,0,0,68,false,stim,false,1,602.1000001430511,2,0,2,90166,task2,912143,false,false,1204,image-keyboard-response,15
true,11,2,2,2,true,d,false,true,0.0-2.0-0.37-0.341-3.341,1,0,0,68,false,stim,false,1,391.19999980926514,2,0,2,90166,task2,914043,false,false,1207,image-keyboard-response,16
true,11,2,2,2,true,d,false,true,0.0-2.0-0.38-0.342-3.342,1,0,0,68,false,stim,false,1,453.90000009536743,2,0,2,90166,task2,916012,false,false,1210,image-keyboard-response,17
true,11,0,2,2,false,d,false,true,0.0-2.0-0.38-0.343-3.343,1,0,0,81,false,stim,true,0,665.7000000476837,2,0,1,90166,task2,918184,false,true,1213,image-keyboard-response,18
true,11,2,2,0,false,q,true,false,0.0-2.0-0.38-0.344-3.344,1,0,0,68,false,stim,false,0,1878.2999999523163,2,1,0,90166,task2,921577,false,false,1216,image-keyboard-response,19
true,11,0,2,0,true,q,false,true,0.0-2.0-0.38-0.345-3.345,1,0,0,81,false,stim,false,0,500.59999990463257,2,1,0,90166,task2,923592,false,false,1219,image-keyboard-response,20
true,11,0,2,2,false,d,false,true,0.0-2.0-0.38-0.346-3.346,1,0,0,81,false,stim,true,0,529.1000001430511,2,0,1,90166,task2,925629,false,true,1222,image-keyboard-response,21
true,11,0,2,2,false,d,true,false,0.0-2.0-0.38-0.347-3.347,1,0,0,81,false,stim,false,1,523.2000000476837,2,0,2,90166,task2,927666,false,false,1225,image-keyboard-response,22
true,11,0,2,2,false,d,false,false,0.0-2.0-0.38-0.348-3.348,1,0,0,81,false,stim,true,0,362.40000009536743,2,0,1,90166,task2,929543,false,false,1228,image-keyboard-response,23
true,11,1,2,2,false,d,false,false,0.0-2.0-0.38-0.349-3.349,1,0,0,90,false,stim,true,1,946.0999999046326,2,0,2,90166,task2,932004,false,false,1231,image-keyboard-response,24
true,11,0,2,0,true,q,false,true,0.0-2.0-0.38-0.350-3.350,1,0,0,81,false,stim,false,0,504.40000009536743,2,1,0,90166,task2,934023,false,false,1234,image-keyboard-response,25
true,11,0,2,0,true,q,false,true,0.0-2.0-0.39-0.351-3.351,1,0,0,81,false,stim,false,0,494.10000014305115,2,1,0,90166,task2,936028,false,false,1237,image-keyboard-response,26
true,11,2,2,2,true,d,false,false,0.0-2.0-0.39-0.352-3.352,1,0,0,68,false,stim,false,1,461.2000000476837,2,0,2,90166,task2,938005,false,true,1240,image-keyboard-response,27
true,11,1,2,2,false,d,false,false,0.0-2.0-0.39-0.353-3.353,1,0,0,90,false,stim,true,1,330.7999999523163,2,0,2,90166,task2,939848,false,false,1243,image-keyboard-response,28
true,11,2,2,2,true,d,false,true,0.0-2.0-0.39-0.354-3.354,1,0,0,68,false,stim,false,1,423.5,2,0,2,90166,task2,941787,false,false,1246,image-keyboard-response,29
true,11,0,2,2,false,d,false,true,0.0-2.0-0.39-0.355-3.355,1,0,0,81,false,stim,true,0,471.0,2,0,1,90166,task2,943773,false,true,1249,image-keyboard-response,30
true,11,0,2,2,false,d,false,false,0.0-2.0-0.39-0.356-3.356,1,0,0,81,false,stim,true,0,447.0,2,0,1,90166,task2,945736,false,false,1252,image-keyboard-response,31
true,11,2,2,2,true,d,false,true,0.0-2.0-0.39-0.357-3.357,1,0,0,68,false,stim,false,0,590.9000000953674,2,0,1,90166,task2,947842,false,false,1255,image-keyboard-response,32
true,11,0,2,0,true,q,false,true,0.0-2.0-0.39-0.358-3.358,1,0,0,81,false,stim,false,0,700.8999998569489,2,0,0,90166,task2,950054,false,false,1258,image-keyboard-response,33
true,11,0,2,0,true,q,false,true,0.0-2.0-0.39-0.359-3.359,1,0,0,81,false,stim,false,0,655.7999999523163,2,0,0,90166,task2,952223,false,false,1261,image-keyboard-response,34
true,12,1,1,1,true,z,false,true,0.0-2.0-0.40-0.360-3.360,0,0,0,90,true,stim,false,2,753.6000001430511,2,0,2,90166,task2,954488,false,false,1264,image-keyboard-response,1
true,12,0,1,1,false,z,true,false,0.0-2.0-0.40-0.361-3.361,0,0,0,81,false,stim,false,2,430.7000000476837,2,0,1,90166,task2,956433,false,false,1267,image-keyboard-response,2
true,12,0,1,2,false,d,false,false,0.0-2.0-0.40-0.362-3.362,0,0,0,81,false,stim,true,0,336.2000000476837,2,0,0,90166,task2,958279,false,false,1270,image-keyboard-response,3
true,12,0,1,2,false,d,false,false,0.0-2.0-0.40-0.363-3.363,0,0,0,81,false,stim,true,0,717.2999999523163,2,0,0,90166,task2,960512,false,false,1273,image-keyboard-response,4
true,12,1,1,1,true,z,false,true,0.0-2.0-0.40-0.364-3.364,0,0,0,90,false,stim,false,2,526.0999999046326,2,0,1,90166,task2,962548,false,false,1276,image-keyboard-response,5
true,12,2,1,2,true,d,false,true,0.0-2.0-0.40-0.365-3.365,0,0,0,68,false,stim,false,0,843.0,2,0,0,90166,task2,964905,false,false,1279,image-keyboard-response,6
true,12,1,1,1,true,z,false,true,0.0-2.0-0.40-0.366-3.366,0,0,0,90,false,stim,false,2,402.89999985694885,2,0,2,90166,task2,966822,false,false,1282,image-keyboard-response,7
true,12,2,1,1,false,z,false,false,0.0-2.0-0.40-0.367-3.367,0,0,0,68,false,stim,true,2,321.0,2,0,2,90166,task2,968658,false,false,1285,image-keyboard-response,8
true,12,1,1,1,true,z,false,true,0.0-2.0-0.40-0.368-3.368,0,0,0,90,false,stim,false,2,363.2999999523163,2,0,1,90166,task2,970536,false,false,1288,image-keyboard-response,9
true,12,1,1,2,false,d,true,false,0.0-2.0-0.41-0.369-3.369,0,0,0,90,false,stim,false,0,769.7000000476837,2,0,0,90166,task2,972822,false,false,1291,image-keyboard-response,10
true,12,2,1,2,true,d,false,true,0.0-2.0-0.41-0.370-3.370,0,0,0,68,false,stim,false,0,396.7000000476837,2,0,0,90166,task2,974731,false,false,1294,image-keyboard-response,11
true,12,1,1,1,true,z,false,false,0.0-2.0-0.41-0.371-3.371,0,0,0,90,false,stim,false,2,1068.7999999523163,2,0,1,90166,task2,977315,false,true,1297,image-keyboard-response,12
true,12,0,1,1,false,z,true,false,0.0-2.0-0.41-0.372-3.372,0,0,0,81,false,stim,false,2,594.2999999523163,2,0,2,90166,task2,979423,false,false,1300,image-keyboard-response,13
true,12,2,1,2,true,d,false,true,0.0-2.0-0.41-0.373-3.373,0,0,0,68,false,stim,false,0,380.2000000476837,2,0,0,90166,task2,981325,false,false,1303,image-keyboard-response,14
true,12,1,1,1,true,z,false,true,0.0-2.0-0.41-0.374-3.374,0,0,0,90,false,stim,false,2,537.5,2,0,1,90166,task2,983378,false,false,1306,image-keyboard-response,15
true,12,1,1,1,true,z,false,true,0.0-2.0-0.41-0.375-3.375,0,0,0,90,false,stim,false,2,519.2000000476837,2,0,1,90166,task2,985407,false,false,1309,image-keyboard-response,16
true,12,0,1,1,false,z,true,false,0.0-2.0-0.41-0.376-3.376,0,0,0,81,false,stim,false,2,682.7999999523163,2,0,2,90166,task2,987600,false,false,1312,image-keyboard-response,17
true,12,2,1,1,false,z,false,false,0.0-2.0-0.41-0.377-3.377,0,0,0,68,false,stim,true,2,795.3000001907349,2,0,2,90166,task2,989910,false,false,1315,image-keyboard-response,18
true,12,1,1,1,true,z,false,true,0.0-2.0-0.42-0.378-3.378,0,0,0,90,false,stim,false,2,740.4000000953674,2,0,2,90166,task2,992162,false,false,1318,image-keyboard-response,19
true,12,2,1,2,true,d,false,true,0.0-2.0-0.42-0.379-3.379,0,0,0,68,false,stim,false,0,1055.1000001430511,2,0,0,90166,task2,994732,false,false,1321,image-keyboard-response,20
true,12,1,1,2,false,d,true,false,0.0-2.0-0.42-0.380-3.380,0,0,0,90,false,stim,false,0,735.7000000476837,2,0,0,90166,task2,996977,false,false,1324,image-keyboard-response,21
true,12,1,1,1,true,z,false,true,0.0-2.0-0.42-0.381-3.381,0,0,0,90,false,stim,false,2,770.9000000953674,2,0,2,90166,task2,999261,false,false,1327,image-keyboard-response,22
true,12,0,1,1,false,z,true,false,0.0-2.0-0.42-0.382-3.382,0,0,0,81,false,stim,false,2,762.7000000476837,2,0,1,90166,task2,1001538,false,false,1330,image-keyboard-response,23
true,12,1,1,1,true,z,false,true,0.0-2.0-0.42-0.383-3.383,0,0,0,90,false,stim,false,2,504.40000009536743,2,0,2,90166,task2,1003557,false,false,1333,image-keyboard-response,24
true,12,1,1,1,true,z,false,true,0.0-2.0-0.42-0.384-3.384,0,0,0,90,false,stim,false,2,343.09999990463257,2,0,1,90166,task2,1005415,false,false,1336,image-keyboard-response,25
true,12,1,1,1,true,z,false,true,0.0-2.0-0.42-0.385-3.385,0,0,0,90,false,stim,false,2,447.09999990463257,2,0,1,90166,task2,1007373,false,false,1339,image-keyboard-response,26
true,12,2,1,2,true,d,false,true,0.0-2.0-0.42-0.386-3.386,0,0,0,68,false,stim,false,0,492.89999985694885,2,0,0,90166,task2,1009382,false,false,1342,image-keyboard-response,27
true,12,1,1,1,true,z,false,false,0.0-2.0-0.43-0.387-3.387,0,0,0,90,false,stim,false,2,635.9000000953674,2,0,1,90166,task2,1011532,false,true,1345,image-keyboard-response,28
true,12,2,1,1,false,z,false,false,0.0-2.0-0.43-0.388-3.388,0,0,0,68,false,stim,true,2,579.8000001907349,2,0,2,90166,task2,1013624,false,false,1348,image-keyboard-response,29
true,12,2,1,1,false,z,false,false,0.0-2.0-0.43-0.389-3.389,0,0,0,68,false,stim,true,2,988.7999999523163,2,0,1,90166,task2,1016126,false,false,1351,image-keyboard-response,30
true,12,0,1,2,false,d,false,true,0.0-2.0-0.43-0.390-3.390,0,0,0,81,false,stim,true,0,519.2999999523163,2,0,0,90166,task2,1018160,false,true,1354,image-keyboard-response,31
true,12,1,1,1,true,z,false,true,0.0-2.0-0.43-0.391-3.391,0,0,0,90,false,stim,false,2,546.5,2,0,2,90166,task2,1020220,false,false,1357,image-keyboard-response,32
true,12,1,1,1,true,z,false,true,0.0-2.0-0.43-0.392-3.392,0,0,0,90,false,stim,false,2,644.5,2,0,2,90166,task2,1022379,false,false,1360,image-keyboard-response,33
true,12,0,1,2,false,d,false,false,0.0-2.0-0.43-0.393-3.393,0,0,0,81,false,stim,true,0,739.5,2,0,0,90166,task2,1024633,false,false,1363,image-keyboard-response,34
true,13,1,1,1,true,z,false,true,0.0-2.0-0.43-0.394-3.394,0,0,0,90,true,stim,false,2,698.2999999523163,2,0,0,90166,task2,1026846,false,false,1366,image-keyboard-response,1
true,13,2,1,0,false,q,true,false,0.0-2.0-0.43-0.395-3.395,0,0,0,68,false,stim,false,1,572.0,2,0,1,90166,task2,1028928,false,false,1369,image-keyboard-response,2
true,13,1,1,1,true,z,false,true,0.0-2.0-0.44-0.396-3.396,0,0,0,90,false,stim,false,2,794.6000001430511,2,0,0,90166,task2,1031238,false,false,1372,image-keyboard-response,3
true,13,1,1,0,false,q,false,false,0.0-2.0-0.44-0.397-3.397,0,0,0,90,false,stim,true,1,364.0,2,0,2,90166,task2,1033114,false,false,1375,image-keyboard-response,4
true,13,0,1,0,true,q,false,false,0.0-2.0-0.44-0.398-3.398,0,0,0,81,false,stim,false,1,410.7999999523163,2,0,1,90166,task2,1035035,false,true,1378,image-keyboard-response,5
true,13,2,1,0,false,q,true,false,0.0-2.0-0.44-0.399-3.399,0,0,0,68,false,stim,false,1,497.5,2,0,2,90166,task2,1037044,false,false,1381,image-keyboard-response,6
true,13,1,1,0,false,q,false,false,0.0-2.0-0.44-0.400-3.400,0,0,0,90,false,stim,true,1,1136.8999998569489,2,0,1,90166,task2,1039694,false,false,1384,image-keyboard-response,7
true,13,0,1,0,true,q,false,true,0.0-2.0-0.44-0.401-3.401,0,0,0,81,false,stim,false,1,480.2999999523163,2,0,2,90166,task2,1041689,false,false,1387,image-keyboard-response,8
true,13,0,1,0,true,q,false,true,0.0-2.0-0.44-0.402-3.402,0,0,0,81,false,stim,false,1,491.59999990463257,2,0,1,90166,task2,1043696,false,false,1390,image-keyboard-response,9
true,13,0,1,1,false,z,true,false,0.0-2.0-0.44-0.403-3.403,0,0,0,81,false,stim,false,2,244.0,2,0,0,90166,task2,1045456,false,false,1393,image-keyboard-response,10
true,13,1,1,1,true,z,false,true,0.0-2.0-0.44-0.404-3.404,0,0,0,90,false,stim,false,2,213.30000019073486,2,0,0,90166,task2,1047185,false,false,1396,image-keyboard-response,11
true,13,1,1,1,true,z,false,true,0.0-2.0-0.45-0.405-3.405,0,0,0,90,false,stim,false,2,484.7999999523163,2,0,0,90166,task2,1049179,false,false,1399,image-keyboard-response,12
true,13,1,1,1,true,z,false,false,0.0-2.0-0.45-0.406-3.406,0,0,0,90,false,stim,false,2,354.7000000476837,2,0,0,90166,task2,1051053,false,true,1402,image-keyboard-response,13
true,13,2,1,0,false,q,true,false,0.0-2.0-0.45-0.407-3.407,0,0,0,68,false,stim,false,1,681.6999998092651,2,0,2,90166,task2,1053251,false,false,1405,image-keyboard-response,14
true,13,2,1,0,false,q,true,false,0.0-2.0-0.45-0.408-3.408,0,0,0,68,false,stim,false,1,506.5,2,0,2,90166,task2,1055272,false,false,1408,image-keyboard-response,15
true,13,1,1,1,true,z,false,true,0.0-2.0-0.45-0.409-3.409,0,0,0,90,false,stim,false,2,378.2999999523163,2,0,0,90166,task2,1057165,false,false,1411,image-keyboard-response,16
true,13,0,1,0,true,q,false,true,0.0-2.0-0.45-0.410-3.410,0,0,0,81,false,stim,false,1,442.19999980926514,2,0,2,90166,task2,1059122,false,false,1414,image-keyboard-response,17
true,13,1,1,0,false,q,false,false,0.0-2.0-0.45-0.411-3.411,0,0,0,90,false,stim,true,1,841.7999999523163,2,0,1,90166,task2,1061475,false,false,1417,image-keyboard-response,18
true,13,0,1,0,true,q,false,true,0.0-2.0-0.45-0.412-3.412,0,0,0,81,false,stim,false,1,813.3999998569489,2,0,1,90166,task2,1063803,false,false,1420,image-keyboard-response,19
true,13,0,1,0,true,q,false,true,0.0-2.0-0.45-0.413-3.413,0,0,0,81,false,stim,false,1,368.40000009536743,2,0,1,90166,task2,1065685,false,false,1423,image-keyboard-response,20
true,13,0,1,1,false,z,true,false,0.0-2.0-0.46-0.414-3.414,0,0,0,81,false,stim,false,2,686.7000000476837,2,0,0,90166,task2,1067888,false,false,1426,image-keyboard-response,21
true,13,1,1,1,true,z,false,true,0.0-2.0-0.46-0.415-3.415,0,0,0,90,false,stim,false,2,698.7000000476837,2,0,0,90166,task2,1070101,false,false,1429,image-keyboard-response,22
true,13,0,1,0,true,q,false,true,0.0-2.0-0.46-0.416-3.416,0,0,0,81,false,stim,false,1,736.9000000953674,2,0,1,90166,task2,1072352,false,false,1432,image-keyboard-response,23
true,13,2,1,0,false,q,true,false,0.0-2.0-0.46-0.417-3.417,0,0,0,68,false,stim,false,1,533.9000000953674,2,0,2,90166,task2,1074401,false,false,1435,image-keyboard-response,24
true,13,1,1,1,true,z,false,true,0.0-2.0-0.46-0.418-3.418,0,0,0,90,false,stim,false,2,649.1999998092651,2,0,0,90166,task2,1076564,false,false,1438,image-keyboard-response,25
true,13,2,1,0,false,q,true,false,0.0-2.0-0.46-0.419-3.419,0,0,0,68,false,stim,false,1,874.4000000953674,2,0,2,90166,task2,1078953,false,false,1441,image-keyboard-response,26
true,13,0,1,0,true,q,false,true,0.0-2.0-0.46-0.420-3.420,0,0,0,81,false,stim,false,1,501.40000009536743,2,0,1,90166,task2,1080968,false,false,1444,image-keyboard-response,27
true,13,0,1,0,true,q,false,true,0.0-2.0-0.46-0.421-3.421,0,0,0,81,false,stim,false,1,455.90000009536743,2,0,1,90166,task2,1082939,false,false,1447,image-keyboard-response,28
true,13,1,1,0,false,q,false,true,0.0-2.0-0.46-0.422-3.422,0,0,0,90,false,stim,true,1,258.90000009536743,2,0,2,90166,task2,1084712,false,true,1450,image-keyboard-response,29
true,13,1,1,0,false,q,false,false,0.0-2.0-0.47-0.423-3.423,0,0,0,90,false,stim,true,1,808.4000000953674,2,0,2,90166,task2,1087036,false,false,1453,image-keyboard-response,30
true,13,0,1,0,true,q,false,false,0.0-2.0-0.47-0.424-3.424,0,0,0,81,false,stim,false,1,454.7000000476837,2,0,2,90166,task2,1089005,false,true,1456,image-keyboard-response,31
true,13,2,1,1,false,z,false,false,0.0-2.0-0.47-0.425-3.425,0,0,0,68,false,stim,true,2,443.19999980926514,2,0,0,90166,task2,1090965,false,false,1459,image-keyboard-response,32
true,13,1,1,0,false,q,false,false,0.0-2.0-0.47-0.426-3.426,0,0,0,90,false,stim,true,1,1296.5,2,0,2,90166,task2,1093768,false,false,1462,image-keyboard-response,33
true,13,0,1,0,true,q,false,true,0.0-2.0-0.47-0.427-3.427,0,0,0,81,false,stim,false,1,394.39999985694885,2,0,1,90166,task2,1095677,false,false,1465,image-keyboard-response,34
true,13,1,1,1,true,z,false,true,0.0-2.0-0.47-0.428-3.428,0,0,0,90,false,stim,false,2,1082.7999999523163,2,0,0,90166,task2,1098276,false,false,1468,image-keyboard-response,35
true,13,1,1,1,true,z,false,false,0.0-2.0-0.47-0.429-3.429,0,0,0,90,false,stim,false,2,371.40000009536743,2,0,0,90166,task2,1100162,false,true,1471,image-keyboard-response,36
true,14,2,1,1,false,z,true,false,0.0-2.0-0.47-0.430-3.430,0,0,0,68,true,stim,false,0,433.2999999523163,2,0,1,90166,task2,1102113,false,false,1474,image-keyboard-response,1
true,14,0,1,1,false,z,false,false,0.0-2.0-0.47-0.431-3.431,0,0,0,81,false,stim,true,0,582.3999998569489,2,0,1,90166,task2,1104211,false,false,1477,image-keyboard-response,2
true,14,1,1,1,true,z,false,true,0.0-2.0-0.48-0.432-3.432,0,0,0,90,false,stim,false,0,388.0,2,0,1,90166,task2,1106114,false,false,1480,image-keyboard-response,3
true,14,1,1,1,true,z,false,true,0.0-2.0-0.48-0.433-3.433,0,0,0,90,false,stim,false,0,428.7000000476837,2,0,1,90166,task2,1108058,false,false,1483,image-keyboard-response,4
true,14,1,1,1,true,z,false,true,0.0-2.0-0.48-0.434-3.434,0,0,0,90,false,stim,false,0,1319.0999999046326,2,0,1,90166,task2,1110892,false,false,1486,image-keyboard-response,5
true,14,0,1,2,false,d,false,false,0.0-2.0-0.48-0.435-3.435,0,0,0,81,false,stim,true,0,2262.5,2,0,2,90166,task2,1114667,false,false,1489,image-keyboard-response,6
true,14,1,1,2,false,d,false,false,0.0-2.0-0.48-0.436-3.436,0,0,0,90,false,stim,true,1,530.2999999523163,2,0,0,90166,task2,1116713,false,false,1492,image-keyboard-response,7
true,14,1,1,2,false,d,false,false,0.0-2.0-0.48-0.437-3.437,0,0,0,90,false,stim,true,1,733.0999999046326,2,0,0,90166,task2,1118956,false,false,1495,image-keyboard-response,8
true,14,0,1,2,false,d,true,false,0.0-2.0-0.48-0.438-3.438,0,0,0,81,false,stim,false,1,830.2999999523163,2,0,0,90166,task2,1121299,false,false,1498,image-keyboard-response,9
true,14,2,1,2,true,d,false,true,0.0-2.0-0.48-0.439-3.439,0,0,0,68,false,stim,false,0,426.09999990463257,2,0,2,90166,task2,1123246,false,false,1501,image-keyboard-response,10
true,14,2,1,2,true,d,false,false,0.0-2.0-0.48-0.440-3.440,0,0,0,68,false,stim,false,0,765.7000000476837,2,0,2,90166,task2,1125524,false,true,1504,image-keyboard-response,11
true,14,1,1,2,false,d,false,false,0.0-2.0-0.49-0.441-3.441,0,0,0,90,false,stim,true,1,842.2000000476837,2,0,0,90166,task2,1127881,false,false,1507,image-keyboard-response,12
true,14,0,1,2,false,d,false,false,0.0-2.0-0.49-0.442-3.442,0,0,0,81,false,stim,true,0,446.7999999523163,2,0,2,90166,task2,1129842,false,false,1510,image-keyboard-response,13
true,14,1,1,1,true,z,false,false,0.0-2.0-0.49-0.443-3.443,0,0,0,90,false,stim,false,0,373.7000000476837,2,0,1,90166,task2,1131729,false,true,1513,image-keyboard-response,14
true,14,0,1,1,false,z,false,false,0.0-2.0-0.49-0.444-3.444,0,0,0,81,false,stim,true,0,976.5999999046326,2,0,1,90166,task2,1134220,false,false,1516,image-keyboard-response,15
true,14,2,1,2,true,d,false,true,0.0-2.0-0.49-0.445-3.445,0,0,0,68,false,stim,false,1,365.89999985694885,2,0,0,90166,task2,1136100,false,false,1519,image-keyboard-response,16
true,14,2,1,2,true,d,false,true,0.0-2.0-0.49-0.446-3.446,0,0,0,68,false,stim,false,0,1299.7999999523163,2,0,2,90166,task2,1138917,false,false,1522,image-keyboard-response,17
true,14,2,1,2,true,d,false,true,0.0-2.0-0.49-0.447-3.447,0,0,0,68,false,stim,false,0,558.5,2,0,2,90166,task2,1140990,false,false,1525,image-keyboard-response,18
true,14,2,1,1,false,z,true,false,0.0-2.0-0.49-0.448-3.448,0,0,0,68,false,stim,false,0,412.5,2,0,1,90166,task2,1142916,false,false,1528,image-keyboard-response,19
true,14,1,1,2,false,d,false,false,0.0-2.0-0.49-0.449-3.449,0,0,0,90,false,stim,true,1,1384.1000001430511,2,0,0,90166,task2,1145815,false,false,1531,image-keyboard-response,20
true,14,0,1,1,false,z,false,false,0.0-2.0-0.50-0.450-3.450,0,0,0,81,false,stim,true,0,494.2999999523163,2,0,1,90166,task2,1147825,false,false,1534,image-keyboard-response,21
true,14,1,1,2,false,d,true,false,0.0-2.0-0.50-0.451-3.451,0,0,0,90,false,stim,false,0,480.7999999523163,2,0,2,90166,task2,1149820,false,false,1537,image-keyboard-response,22
true,14,2,1,2,true,d,false,true,0.0-2.0-0.50-0.452-3.452,0,0,0,68,false,stim,false,0,1110.4000000953674,2,0,2,90166,task2,1152443,false,false,1540,image-keyboard-response,23
true,14,2,1,1,false,z,true,false,0.0-2.0-0.50-0.453-3.453,0,0,0,68,false,stim,false,0,463.7999999523163,2,0,1,90166,task2,1154419,false,false,1543,image-keyboard-response,24
true,14,0,1,2,false,d,true,false,0.0-2.0-0.50-0.454-3.454,0,0,0,81,false,stim,false,1,1521.9000000953674,2,0,0,90166,task2,1157457,false,false,1546,image-keyboard-response,25
true,14,1,1,2,false,d,false,false,0.0-2.0-0.50-0.455-3.455,0,0,0,90,false,stim,true,1,853.2000000476837,2,0,0,90166,task2,1159827,false,false,1549,image-keyboard-response,26
true,14,2,1,2,true,d,false,true,0.0-2.0-0.50-0.456-3.456,0,0,0,68,false,stim,false,1,520.2000000476837,2,0,0,90166,task2,1161863,false,false,1552,image-keyboard-response,27
true,14,0,1,2,false,d,false,true,0.0-2.0-0.50-0.457-3.457,0,0,0,81,false,stim,true,0,825.6999998092651,2,0,2,90166,task2,1164202,false,true,1555,image-keyboard-response,28
true,14,0,1,1,false,z,false,false,0.0-2.0-0.50-0.458-3.458,0,0,0,81,false,stim,true,0,474.40000009536743,2,0,1,90166,task2,1166191,false,false,1558,image-keyboard-response,29
true,14,1,1,1,true,z,false,true,0.0-2.0-0.51-0.459-3.459,0,0,0,90,false,stim,false,0,752.0,2,0,1,90166,task2,1168459,false,false,1561,image-keyboard-response,30
true,14,1,1,1,true,z,false,true,0.0-2.0-0.51-0.460-3.460,0,0,0,90,false,stim,false,0,531.7000000476837,2,0,1,90166,task2,1170505,false,false,1564,image-keyboard-response,31
true,14,0,1,2,false,d,false,false,0.0-2.0-0.51-0.461-3.461,0,0,0,81,false,stim,true,0,828.7000000476837,2,0,2,90166,task2,1172848,false,false,1567,image-keyboard-response,32
true,14,1,1,1,true,z,false,true,0.0-2.0-0.51-0.462-3.462,0,0,0,90,false,stim,false,0,489.09999990463257,2,0,1,90166,task2,1174851,false,false,1570,image-keyboard-response,33
true,14,1,1,2,false,d,true,false,0.0-2.0-0.51-0.463-3.463,0,0,0,90,false,stim,false,0,956.7000000476837,2,0,2,90166,task2,1177325,false,false,1573,image-keyboard-response,34
true,15,0,1,0,true,q,false,true,0.0-2.0-0.51-0.464-3.464,0,0,0,81,true,stim,false,2,637.7000000476837,2,0,2,90166,task2,1179475,false,false,1576,image-keyboard-response,1
true,15,0,1,0,true,q,false,true,0.0-2.0-0.51-0.465-3.465,0,0,0,81,false,stim,false,2,1039.0999999046326,2,0,0,90166,task2,1182030,false,false,1579,image-keyboard-response,2
true,15,0,1,0,true,q,false,true,0.0-2.0-0.51-0.466-3.466,0,0,0,81,false,stim,false,2,441.10000014305115,2,0,0,90166,task2,1183984,false,false,1582,image-keyboard-response,3
true,15,0,1,0,true,q,false,true,0.0-2.0-0.51-0.467-3.467,0,0,0,81,false,stim,false,2,1233.5999999046326,2,0,0,90166,task2,1186733,false,false,1585,image-keyboard-response,4
true,15,0,1,0,true,q,false,true,0.0-2.0-0.52-0.468-3.468,0,0,0,81,false,stim,false,2,580.6000001430511,2,0,2,90166,task2,1188829,false,false,1588,image-keyboard-response,5
true,15,0,1,0,true,q,false,true,0.0-2.0-0.52-0.469-3.469,0,0,0,81,false,stim,false,2,867.9000000953674,2,0,2,90166,task2,1191212,false,false,1591,image-keyboard-response,6
true,15,0,1,2,false,d,true,false,0.0-2.0-0.52-0.470-3.470,0,0,0,81,false,stim,false,1,1073.3999998569489,2,0,1,90166,task2,1193800,false,false,1594,image-keyboard-response,7
true,15,2,1,2,true,d,false,true,0.0-2.0-0.52-0.471-3.471,0,0,0,68,false,stim,false,1,798.0,2,0,1,90166,task2,1196112,false,false,1597,image-keyboard-response,8
true,15,2,1,2,true,d,false,true,0.0-2.0-0.52-0.472-3.472,0,0,0,68,false,stim,false,1,699.7000000476837,2,0,1,90166,task2,1198326,false,false,1600,image-keyboard-response,9
true,15,2,1,0,false,q,false,false,0.0-2.0-0.52-0.473-3.473,0,0,0,68,false,stim,true,2,809.2999999523163,2,0,2,90166,task2,1200661,false,false,1603,image-keyboard-response,10
true,15,0,1,0,true,q,false,true,0.0-2.0-0.52-0.474-3.474,0,0,0,81,false,stim,false,2,1103.5,2,0,0,90166,task2,1203279,false,false,1606,image-keyboard-response,11
true,15,0,1,0,true,q,false,true,0.0-2.0-0.52-0.475-3.475,0,0,0,81,false,stim,false,2,941.5,2,0,0,90166,task2,1205734,false,false,1609,image-keyboard-response,12
true,15,0,1,0,true,q,false,true,0.0-2.0-0.52-0.476-3.476,0,0,0,81,false,stim,false,2,376.2999999523163,2,0,0,90166,task2,1207626,false,false,1612,image-keyboard-response,13
true,15,0,1,0,true,q,false,true,0.0-2.0-0.53-0.477-3.477,0,0,0,81,false,stim,false,2,923.3999998569489,2,0,0,90166,task2,1210066,false,false,1615,image-keyboard-response,14
true,15,0,1,0,true,q,false,true,0.0-2.0-0.53-0.478-3.478,0,0,0,81,false,stim,false,2,392.2999999523163,2,0,2,90166,task2,1211973,false,false,1618,image-keyboard-response,15
true,15,0,1,2,false,d,true,false,0.0-2.0-0.53-0.479-3.479,0,0,0,81,false,stim,false,1,844.8000001907349,2,0,1,90166,task2,1214333,false,false,1621,image-keyboard-response,16
true,15,1,1,2,false,d,false,false,0.0-2.0-0.53-0.480-3.480,0,0,0,90,false,stim,true,1,507.2000000476837,2,0,1,90166,task2,1216354,false,false,1624,image-keyboard-response,17
true,15,0,1,2,false,d,true,false,0.0-2.0-0.53-0.481-3.481,0,0,0,81,false,stim,false,1,461.90000009536743,2,0,1,90166,task2,1218331,false,false,1627,image-keyboard-response,18
true,15,2,1,0,false,q,false,false,0.0-2.0-0.53-0.482-3.482,0,0,0,68,false,stim,true,2,332.10000014305115,2,0,2,90166,task2,1220179,false,false,1630,image-keyboard-response,19
true,15,1,1,0,false,q,true,false,0.0-2.0-0.53-0.483-3.483,0,0,0,90,false,stim,false,2,237.0,2,0,0,90166,task2,1221930,false,false,1633,image-keyboard-response,20
true,15,0,1,0,true,q,false,true,0.0-2.0-0.53-0.484-3.484,0,0,0,81,false,stim,false,2,165.79999995231628,2,0,0,90166,task2,1223612,false,false,1636,image-keyboard-response,21
true,15,0,1,0,true,q,false,true,0.0-2.0-0.53-0.485-3.485,0,0,0,81,false,stim,false,2,506.10000014305115,2,0,2,90166,task2,1225634,false,false,1639,image-keyboard-response,22
true,15,0,1,0,true,q,false,true,0.0-2.0-0.54-0.486-3.486,0,0,0,81,false,stim,false,2,363.09999990463257,2,0,2,90166,task2,1227512,false,false,1642,image-keyboard-response,23
true,15,0,1,0,true,q,false,true,0.0-2.0-0.54-0.487-3.487,0,0,0,81,false,stim,false,2,607.9000000953674,2,0,0,90166,task2,1229636,false,false,1645,image-keyboard-response,24
true,15,0,1,2,false,d,true,false,0.0-2.0-0.54-0.488-3.488,0,0,0,81,false,stim,false,1,393.7000000476837,2,0,1,90166,task2,1231545,false,false,1648,image-keyboard-response,25
true,15,2,1,2,true,d,false,true,0.0-2.0-0.54-0.489-3.489,0,0,0,68,false,stim,false,1,433.5,2,0,1,90166,task2,1233495,false,false,1651,image-keyboard-response,26
true,15,2,1,0,false,q,false,false,0.0-2.0-0.54-0.490-3.490,0,0,0,68,false,stim,true,2,609.9000000953674,2,0,0,90166,task2,1235618,false,false,1654,image-keyboard-response,27
true,15,1,1,0,false,q,true,true,0.0-2.0-0.54-0.491-3.491,0,0,0,90,false,stim,false,2,514.3999998569489,2,0,2,90166,task2,1237646,false,true,1657,image-keyboard-response,28
true,15,2,1,0,false,q,false,false,0.0-2.0-0.54-0.492-3.492,0,0,0,68,false,stim,true,2,666.5999999046326,2,0,0,90166,task2,1239828,false,false,1660,image-keyboard-response,29
true,15,0,1,2,false,d,true,false,0.0-2.0-0.54-0.493-3.493,0,0,0,81,false,stim,false,1,279.60000014305115,2,0,1,90166,task2,1241622,false,false,1663,image-keyboard-response,30
true,15,1,1,0,false,q,true,false,0.0-2.0-0.54-0.494-3.494,0,0,0,90,false,stim,false,2,705.0999999046326,2,1,2,90166,task2,1243843,false,false,1666,image-keyboard-response,31
true,15,2,1,0,false,q,false,false,0.0-2.0-0.55-0.495-3.495,0,0,0,68,false,stim,true,2,332.60000014305115,2,1,0,90166,task2,1245690,false,false,1669,image-keyboard-response,32
true,15,0,1,0,true,q,false,true,0.0-2.0-0.55-0.496-3.496,0,0,0,81,false,stim,false,2,280.2000000476837,2,1,2,90166,task2,1247485,false,false,1672,image-keyboard-response,33
true,15,0,1,0,true,q,false,true,0.0-2.0-0.55-0.497-3.497,0,0,0,81,false,stim,false,2,325.0,2,1,2,90166,task2,1249324,false,false,1675,image-keyboard-response,34
true,15,1,1,2,false,d,false,false,0.0-2.0-0.55-0.498-3.498,0,0,0,90,false,stim,true,1,689.7000000476837,2,1,1,90166,task2,1251530,false,false,1678,image-keyboard-response,35
true,16,1,0,0,false,q,true,false,0.0-2.0-0.55-0.499-3.499,1,1,1,90,true,stim,false,0,1454.0,2,1,0,90166,task2,1369008,false,false,1795,image-keyboard-response,1
true,16,0,0,2,false,d,true,false,0.0-2.0-0.55-0.500-3.500,1,1,1,81,false,stim,false,2,568.4000000953674,2,1,1,90166,task2,1371092,false,false,1798,image-keyboard-response,2
true,16,2,0,0,false,q,true,false,0.0-2.0-0.55-0.501-3.501,1,1,1,68,false,stim,false,0,614.5,2,1,2,90166,task2,1373231,false,false,1801,image-keyboard-response,3
true,16,1,0,2,false,d,true,false,0.0-2.0-0.55-0.502-3.502,1,1,1,90,false,stim,false,2,401.90000009536743,2,1,1,90166,task2,1375143,false,false,1804,image-keyboard-response,4
true,16,2,0,0,false,q,true,false,0.0-2.0-0.55-0.503-3.503,1,1,1,68,false,stim,false,0,470.60000014305115,2,1,0,90166,task2,1377127,false,false,1807,image-keyboard-response,5
true,16,0,0,0,true,q,false,true,0.0-2.0-0.56-0.504-3.504,1,1,1,81,false,stim,false,0,539.7000000476837,2,1,0,90166,task2,1379183,false,false,1810,image-keyboard-response,6
true,16,1,0,2,false,d,true,false,0.0-2.0-0.56-0.505-3.505,1,1,1,90,false,stim,false,2,662.5,2,1,1,90166,task2,1381361,false,false,1813,image-keyboard-response,7
true,16,2,0,0,false,q,true,false,0.0-2.0-0.56-0.506-3.506,1,1,1,68,false,stim,false,0,409.2000000476837,2,1,2,90166,task2,1383283,false,false,1816,image-keyboard-response,8
true,16,0,0,2,false,d,true,false,0.0-2.0-0.56-0.507-3.507,1,1,1,81,false,stim,false,2,314.5,2,0,1,90166,task2,1385114,false,false,1819,image-keyboard-response,9
true,16,2,0,0,false,q,true,false,0.0-2.0-0.56-0.508-3.508,1,1,1,68,false,stim,false,0,594.5,2,0,2,90166,task2,1387222,false,false,1822,image-keyboard-response,10
true,16,2,0,0,false,q,true,true,0.0-2.0-0.56-0.509-3.509,1,1,1,68,false,stim,false,0,506.89999985694885,2,1,0,90166,task2,1389244,false,true,1825,image-keyboard-response,11
true,16,2,0,2,true,d,false,true,0.0-2.0-0.56-0.510-3.510,1,1,1,68,false,stim,false,2,373.7000000476837,2,0,1,90166,task2,1391133,false,false,1828,image-keyboard-response,12
true,16,0,0,0,true,q,false,true,0.0-2.0-0.56-0.511-3.511,1,1,1,81,false,stim,false,0,597.2000000476837,2,1,0,90166,task2,1393239,false,false,1831,image-keyboard-response,13
true,17,1,2,2,false,d,true,false,0.0-2.0-0.56-0.512-3.512,1,0,0,90,true,stim,false,0,689.4000000953674,2,0,2,90166,task2,1395438,false,false,1834,image-keyboard-response,1
true,17,2,2,0,false,q,true,false,0.0-2.0-0.57-0.513-3.513,1,0,0,68,false,stim,false,0,463.90000009536743,2,1,0,90166,task2,1397417,false,false,1837,image-keyboard-response,2
true,17,0,2,0,true,q,false,true,0.0-2.0-0.57-0.514-3.514,1,0,0,81,false,stim,false,2,375.5,2,0,1,90166,task2,1399305,false,false,1840,image-keyboard-response,3
true,17,0,2,0,true,q,false,true,0.0-2.0-0.57-0.515-3.515,1,0,0,81,false,stim,false,2,507.5,2,0,1,90166,task2,1401327,false,false,1843,image-keyboard-response,4
true,17,1,2,2,false,d,true,false,0.0-2.0-0.57-0.516-3.516,1,0,0,90,false,stim,false,0,698.0,2,0,2,90166,task2,1403538,false,false,1846,image-keyboard-response,5
true,17,2,2,0,false,q,false,false,0.0-2.0-0.57-0.517-3.517,1,0,0,68,false,stim,true,2,763.9000000953674,2,0,1,90166,task2,1405817,false,false,1849,image-keyboard-response,6
true,17,0,2,2,false,d,false,false,0.0-2.0-0.57-0.518-3.518,1,0,0,81,false,stim,true,0,2765.0,2,0,2,90166,task2,1410097,false,false,1852,image-keyboard-response,7
true,17,2,2,0,false,q,true,false,0.0-2.0-0.57-0.519-3.519,1,0,0,68,false,stim,false,0,3000.4000000953674,2,1,0,90166,task2,1414613,false,false,1855,image-keyboard-response,8
true,17,2,2,2,true,d,false,true,0.0-2.0-0.57-0.520-3.520,1,0,0,68,false,stim,false,0,1540.2999999523163,2,0,2,90166,task2,1417667,false,false,1858,image-keyboard-response,9
true,17,0,2,0,true,q,false,true,0.0-2.0-0.57-0.521-3.521,1,0,0,81,false,stim,false,0,682.2000000476837,2,1,0,90166,task2,1419865,false,false,1861,image-keyboard-response,10
true,17,0,2,0,true,q,false,true,0.0-2.0-0.58-0.522-3.522,1,0,0,81,false,stim,false,2,762.5,2,0,1,90166,task2,1422139,false,false,1864,image-keyboard-response,11
true,17,1,2,2,false,d,true,false,0.0-2.0-0.58-0.523-3.523,1,0,0,90,false,stim,false,0,626.3999998569489,2,0,2,90166,task2,1424277,false,false,1867,image-keyboard-response,12
true,17,2,2,0,false,q,true,false,0.0-2.0-0.58-0.524-3.524,1,0,0,68,false,stim,false,0,1282.7000000476837,2,1,0,90166,task2,1427075,false,false,1870,image-keyboard-response,13
true,17,1,2,2,false,d,true,false,0.0-2.0-0.58-0.525-3.525,1,0,0,90,false,stim,false,0,617.5,2,0,2,90166,task2,1429207,false,false,1873,image-keyboard-response,14
true,17,2,2,0,false,q,false,false,0.0-2.0-0.58-0.526-3.526,1,0,0,68,false,stim,true,2,575.0,2,0,1,90166,task2,1431298,false,false,1876,image-keyboard-response,15
true,17,0,2,0,true,q,false,true,0.0-2.0-0.58-0.527-3.527,1,0,0,81,false,stim,false,0,779.7999999523163,2,1,0,90166,task2,1433590,false,false,1879,image-keyboard-response,16
true,17,0,2,0,true,q,false,true,0.0-2.0-0.58-0.528-3.528,1,0,0,81,false,stim,false,2,411.10000014305115,2,0,1,90166,task2,1435516,false,false,1882,image-keyboard-response,17
true,17,0,2,2,false,d,false,false,0.0-2.0-0.58-0.529-3.529,1,0,0,81,false,stim,true,0,374.89999985694885,2,0,2,90166,task2,1437407,false,false,1885,image-keyboard-response,18
true,17,0,2,0,true,q,false,true,0.0-2.0-0.58-0.530-3.530,1,0,0,81,false,stim,false,0,435.89999985694885,2,1,0,90166,task2,1439360,false,false,1888,image-keyboard-response,19
true,17,0,2,0,true,q,false,true,0.0-2.0-0.59-0.531-3.531,1,0,0,81,false,stim,false,0,413.60000014305115,2,1,0,90166,task2,1441290,false,false,1891,image-keyboard-response,20
true,17,0,2,0,true,q,false,true,0.0-2.0-0.59-0.532-3.532,1,0,0,81,false,stim,false,0,401.39999985694885,2,1,0,90166,task2,1443203,false,false,1894,image-keyboard-response,21
true,17,0,2,2,false,d,false,false,0.0-2.0-0.59-0.533-3.533,1,0,0,81,false,stim,true,0,683.5,2,0,2,90166,task2,1445403,false,false,1897,image-keyboard-response,22
true,17,0,2,0,true,q,false,true,0.0-2.0-0.59-0.534-3.534,1,0,0,81,false,stim,false,0,503.39999985694885,2,1,0,90166,task2,1447422,false,false,1900,image-keyboard-response,23
true,17,0,2,0,true,q,false,true,0.0-2.0-0.59-0.535-3.535,1,0,0,81,false,stim,false,2,444.0,2,0,1,90166,task2,1449391,false,false,1903,image-keyboard-response,24
true,17,1,2,2,false,d,true,false,0.0-2.0-0.59-0.536-3.536,1,0,0,90,false,stim,false,0,989.3999998569489,2,0,2,90166,task2,1451897,false,false,1906,image-keyboard-response,25
true,17,0,2,0,true,q,false,true,0.0-2.0-0.59-0.537-3.537,1,0,0,81,false,stim,false,2,422.10000014305115,2,0,1,90166,task2,1453835,false,false,1909,image-keyboard-response,26
true,17,2,2,2,true,d,false,true,0.0-2.0-0.59-0.538-3.538,1,0,0,68,false,stim,false,0,963.8000001907349,2,0,2,90166,task2,1456315,false,false,1912,image-keyboard-response,27
true,17,0,2,0,true,q,false,true,0.0-2.0-0.59-0.539-3.539,1,0,0,81,false,stim,false,2,544.8999998569489,2,0,1,90166,task2,1458375,false,false,1915,image-keyboard-response,28
true,17,0,2,0,true,q,false,true,0.0-2.0-0.60-0.540-3.540,1,0,0,81,false,stim,false,0,577.7000000476837,2,1,0,90166,task2,1460466,false,false,1918,image-keyboard-response,29
true,17,0,2,0,true,q,false,true,0.0-2.0-0.60-0.541-3.541,1,0,0,81,false,stim,false,2,377.69999980926514,2,0,1,90166,task2,1462359,false,false,1921,image-keyboard-response,30
true,17,0,2,0,true,q,false,true,0.0-2.0-0.60-0.542-3.542,1,0,0,81,false,stim,false,2,464.90000009536743,2,0,1,90166,task2,1464340,false,false,1924,image-keyboard-response,31
true,17,0,2,0,true,q,false,true,0.0-2.0-0.60-0.543-3.543,1,0,0,81,false,stim,false,0,776.3999998569489,2,1,0,90166,task2,1466633,false,false,1927,image-keyboard-response,32
true,18,2,2,1,false,z,false,false,0.0-2.0-0.60-0.544-3.544,1,0,0,68,true,stim,true,2,498.40000009536743,2,0,2,90166,task2,1468647,false,false,1930,image-keyboard-response,1
true,18,1,2,1,true,z,false,true,0.0-2.0-0.60-0.545-3.545,1,0,0,90,false,stim,false,2,627.3999998569489,2,0,2,90166,task2,1470789,false,false,1933,image-keyboard-response,2
true,18,0,2,2,false,d,false,true,0.0-2.0-0.60-0.546-3.546,1,0,0,81,false,stim,true,0,669.4000000953674,2,0,1,90166,task2,1472968,false,true,1936,image-keyboard-response,3
true,18,1,2,1,true,z,false,true,0.0-2.0-0.60-0.547-3.547,1,0,0,90,false,stim,false,2,434.0,2,0,2,90166,task2,1474917,false,false,1939,image-keyboard-response,4
true,18,0,2,0,true,q,false,true,0.0-2.0-0.60-0.548-3.548,1,0,0,81,false,stim,false,0,633.9000000953674,2,1,0,90166,task2,1477068,false,false,1942,image-keyboard-response,5
true,18,0,2,0,true,q,false,true,0.0-2.0-0.61-0.549-3.549,1,0,0,81,false,stim,false,0,445.7999999523163,2,1,0,90166,task2,1479029,false,false,1945,image-keyboard-response,6
true,18,1,2,1,true,z,false,true,0.0-2.0-0.61-0.550-3.550,1,0,0,90,false,stim,false,2,716.7000000476837,2,0,2,90166,task2,1481257,false,false,1948,image-keyboard-response,7
true,18,0,2,0,true,q,false,true,0.0-2.0-0.61-0.551-3.551,1,0,0,81,false,stim,false,0,575.2999999523163,2,1,0,90166,task2,1483348,false,false,1951,image-keyboard-response,8
true,18,1,2,1,true,z,false,false,0.0-2.0-0.61-0.552-3.552,1,0,0,90,false,stim,false,2,525.9000000953674,2,0,2,90166,task2,1485389,false,true,1954,image-keyboard-response,9
true,18,0,2,2,false,d,false,false,0.0-2.0-0.61-0.553-3.553,1,0,0,81,false,stim,true,0,598.9000000953674,2,0,1,90166,task2,1487503,false,false,1957,image-keyboard-response,10
true,18,2,2,1,false,z,false,false,0.0-2.0-0.61-0.554-3.554,1,0,0,68,false,stim,true,2,721.0999999046326,2,0,2,90166,task2,1489736,false,false,1960,image-keyboard-response,11
true,18,0,2,2,false,d,false,false,0.0-2.0-0.61-0.555-3.555,1,0,0,81,false,stim,true,0,720.2999999523163,2,0,1,90166,task2,1491971,false,false,1963,image-keyboard-response,12
true,18,0,2,0,true,q,false,false,0.0-2.0-0.61-0.556-3.556,1,0,0,81,false,stim,false,0,822.7999999523163,2,1,0,90166,task2,1494309,false,true,1966,image-keyboard-response,13
true,18,2,2,2,true,d,false,true,0.0-2.0-0.61-0.557-3.557,1,0,0,68,false,stim,false,0,377.2000000476837,2,0,1,90166,task2,1496198,false,false,1969,image-keyboard-response,14
true,18,2,2,2,true,d,false,true,0.0-2.0-0.62-0.558-3.558,1,0,0,68,false,stim,false,0,408.09999990463257,2,0,1,90166,task2,1498120,false,false,1972,image-keyboard-response,15
true,18,2,2,2,true,d,false,true,0.0-2.0-0.62-0.559-3.559,1,0,0,68,false,stim,false,0,444.2999999523163,2,0,1,90166,task2,1500081,false,false,1975,image-keyboard-response,16
true,18,2,2,0,false,q,true,true,0.0-2.0-0.62-0.560-3.560,1,0,0,68,false,stim,false,0,734.2999999523163,2,1,0,90166,task2,1502328,false,true,1978,image-keyboard-response,17
true,18,2,2,2,true,d,false,false,0.0-2.0-0.62-0.561-3.561,1,0,0,68,false,stim,false,0,350.89999985694885,2,0,1,90166,task2,1504193,false,true,1981,image-keyboard-response,18
true,18,1,2,1,true,z,false,true,0.0-2.0-0.62-0.562-3.562,1,0,0,90,false,stim,false,2,709.0,2,0,2,90166,task2,1506414,false,false,1984,image-keyboard-response,19
true,18,1,2,0,false,q,true,false,0.0-2.0-0.62-0.563-3.563,1,0,0,90,false,stim,false,0,838.1000001430511,2,1,0,90166,task2,1508768,false,false,1987,image-keyboard-response,20
true,18,1,2,1,true,z,false,true,0.0-2.0-0.62-0.564-3.564,1,0,0,90,false,stim,false,2,1044.2000000476837,2,0,2,90166,task2,1511327,false,false,1990,image-keyboard-response,21
true,18,1,2,1,true,z,false,true,0.0-2.0-0.62-0.565-3.565,1,0,0,90,false,stim,false,2,655.0,2,0,2,90166,task2,1513497,false,false,1993,image-keyboard-response,22
true,18,2,2,0,false,q,true,false,0.0-2.0-0.62-0.566-3.566,1,0,0,68,false,stim,false,0,948.7999999523163,2,1,0,90166,task2,1515961,false,false,1996,image-keyboard-response,23
true,18,1,2,1,true,z,false,true,0.0-2.0-0.63-0.567-3.567,1,0,0,90,false,stim,false,2,573.7000000476837,2,0,2,90166,task2,1518050,false,false,1999,image-keyboard-response,24
true,18,0,2,2,false,d,false,false,0.0-2.0-0.63-0.568-3.568,1,0,0,81,false,stim,true,0,556.5,2,0,1,90166,task2,1520130,false,false,2002,image-keyboard-response,25
true,18,1,2,0,false,q,true,false,0.0-2.0-0.63-0.569-3.569,1,0,0,90,false,stim,false,0,1154.9000000953674,2,1,0,90166,task2,1522801,false,false,2005,image-keyboard-response,26
true,18,2,2,0,false,q,true,false,0.0-2.0-0.63-0.570-3.570,1,0,0,68,false,stim,false,0,472.2000000476837,2,1,0,90166,task2,1524789,false,false,2008,image-keyboard-response,27
true,18,1,2,2,false,d,true,false,0.0-2.0-0.63-0.571-3.571,1,0,0,90,false,stim,false,0,508.7999999523163,2,0,1,90166,task2,1526814,false,false,2011,image-keyboard-response,28
true,18,0,2,0,true,q,false,true,0.0-2.0-0.63-0.572-3.572,1,0,0,81,false,stim,false,0,899.0,2,1,0,90166,task2,1529228,false,false,2014,image-keyboard-response,29
true,18,0,2,1,false,z,true,false,0.0-2.0-0.63-0.573-3.573,1,0,0,81,false,stim,false,2,897.5999999046326,2,0,2,90166,task2,1531641,false,false,2017,image-keyboard-response,30
true,18,1,2,1,true,z,false,true,0.0-2.0-0.63-0.574-3.574,1,0,0,90,false,stim,false,2,155.70000004768372,2,1,2,90166,task2,1533312,false,false,2020,image-keyboard-response,31
true,18,1,2,2,false,d,true,false,0.0-2.0-0.63-0.575-3.575,1,0,0,90,false,stim,false,0,461.2999999523163,2,0,1,90166,task2,1535290,false,false,2023,image-keyboard-response,32
true,18,0,2,0,true,q,false,true,0.0-2.0-0.64-0.576-3.576,1,0,0,81,false,stim,false,0,425.0,2,0,0,90166,task2,1537229,false,false,2026,image-keyboard-response,33
true,18,1,2,1,true,z,false,true,0.0-2.0-0.64-0.577-3.577,1,0,0,90,false,stim,false,2,685.1000001430511,2,1,2,90166,task2,1539425,false,false,2029,image-keyboard-response,34
true,18,2,2,2,true,d,false,true,0.0-2.0-0.64-0.578-3.578,1,0,0,68,false,stim,false,0,899.0,2,0,1,90166,task2,1541839,false,false,2032,image-keyboard-response,35
true,19,2,2,0,false,q,false,true,0.0-2.0-0.64-0.579-3.579,0,0,1,68,true,stim,true,2,415.7000000476837,2,0,1,90166,task2,1543769,false,true,2035,image-keyboard-response,1
true,19,1,2,1,true,z,false,true,0.0-2.0-0.64-0.580-3.580,0,0,1,90,false,stim,false,1,706.3000001907349,2,1,2,90166,task2,1545993,false,false,2038,image-keyboard-response,2
true,19,0,2,0,true,q,false,true,0.0-2.0-0.64-0.581-3.581,0,0,1,81,false,stim,false,2,469.89999985694885,2,0,1,90166,task2,1547978,false,false,2041,image-keyboard-response,3
true,19,1,2,1,true,z,false,true,0.0-2.0-0.64-0.582-3.582,0,0,1,90,false,stim,false,1,527.5999999046326,2,1,2,90166,task2,1550018,false,false,2044,image-keyboard-response,4
true,19,0,2,1,false,z,false,false,0.0-2.0-0.64-0.583-3.583,0,0,1,81,false,stim,true,0,679.1000001430511,2,0,0,90166,task2,1552213,false,false,2047,image-keyboard-response,5
true,19,2,2,1,false,z,true,false,0.0-2.0-0.64-0.584-3.584,0,0,1,68,false,stim,false,0,715.7000000476837,2,0,0,90166,task2,1554444,false,false,2050,image-keyboard-response,6
true,19,1,2,1,true,z,false,true,0.0-2.0-0.65-0.585-3.585,0,0,1,90,false,stim,false,0,703.7999999523163,2,0,0,90166,task2,1556663,false,false,2053,image-keyboard-response,7
true,19,1,2,1,true,z,false,false,0.0-2.0-0.65-0.586-3.586,0,0,1,90,false,stim,false,1,1049.8999998569489,2,1,2,90166,task2,1559228,false,true,2056,image-keyboard-response,8
true,19,1,2,0,false,q,true,false,0.0-2.0-0.65-0.587-3.587,0,0,1,90,false,stim,false,2,732.0999999046326,2,0,1,90166,task2,1561477,false,false,2059,image-keyboard-response,9
true,19,0,2,1,false,z,true,true,0.0-2.0-0.65-0.588-3.588,0,0,1,81,false,stim,false,1,731.0,2,1,2,90166,task2,1563723,false,true,2062,image-keyboard-response,10
true,19,1,2,1,true,z,false,true,0.0-2.0-0.65-0.589-3.589,0,0,1,90,false,stim,false,1,741.7999999523163,2,1,2,90166,task2,1565980,false,false,2065,image-keyboard-response,11
