answered,blockNum,choice,condition,corResp,correct,correct_response,explo,fb,internal_node_id,isStable_1,isStable_2,isStable_3,key_press,newBlock,part,persev,persevResp,rt,sessNum,stableAS,stimulus,subject,task,time_elapsed,training,trap,trial_index,trial_type,trialsInBlock
true,1,1,0,0,false,q,true,false,0.0-2.0-0.0-0.0-3.0,0,0,0,90,true,stim,false,-1,1084.4000000953674,1,0,2,90166,task1,469403,false,false,184,image-keyboard-response,1
true,1,2,0,0,false,q,true,false,0.0-2.0-0.0-0.1-3.1,0,0,0,68,false,stim,false,-1,634.1000001430511,1,0,0,90166,task1,471551,false,false,187,image-keyboard-response,2
true,1,0,0,1,false,z,true,false,0.0-2.0-0.0-0.2-3.2,0,0,0,81,false,stim,false,-1,1224.5999999046326,1,0,1,90166,task1,474284,false,false,190,image-keyboard-response,3
true,1,1,0,1,true,z,false,false,0.0-2.0-0.0-0.3-3.3,0,0,0,90,false,stim,false,-1,1324.3999998569489,1,0,1,90166,task1,477122,false,true,193,image-keyboard-response,4
true,1,2,0,0,false,q,true,true,0.0-2.0-0.0-0.4-3.4,0,0,0,68,false,stim,false,-1,1576.5999999046326,1,0,2,90166,task1,480211,false,true,196,image-keyboard-response,5
true,1,2,0,0,false,q,true,false,0.0-2.0-0.0-0.5-3.5,0,0,0,68,false,stim,false,-1,2234.5999999046326,1,0,0,90166,task1,483959,false,false,199,image-keyboard-response,6
true,1,1,0,1,true,z,false,true,0.0-2.0-0.0-0.6-3.6,0,0,0,90,false,stim,false,-1,653.0,1,0,1,90166,task1,486123,false,false,202,image-keyboard-response,7
true,1,0,0,0,true,q,false,true,0.0-2.0-0.0-0.7-3.7,0,0,0,81,false,stim,false,-1,1498.3999998569489,1,0,0,90166,task1,489132,false,false,205,image-keyboard-response,8
true,1,0,0,0,true,q,false,true,0.0-2.0-0.0-0.8-3.8,0,0,0,81,false,stim,false,-1,1220.0,1,0,2,90166,task1,491867,false,false,208,image-keyboard-response,9
true,1,1,0,1,true,z,false,true,0.0-2.0-0.1-0.9-3.9,0,0,0,90,false,stim,false,-1,874.3999998569489,1,0,1,90166,task1,494256,false,false,211,image-keyboard-response,10
true,1,1,0,1,true,z,false,true,0.0-2.0-0.1-0.10-3.10,0,0,0,90,false,stim,false,-1,835.2999999523163,1,0,1,90166,task1,496604,false,false,214,image-keyboard-response,11
true,1,1,0,0,false,q,true,false,0.0-2.0-0.1-0.11-3.11,0,0,0,90,false,stim,false,-1,899.9000000953674,1,0,2,90166,task1,499018,false,false,217,image-keyboard-response,12
true,1,2,0,0,false,q,true,false,0.0-2.0-0.1-0.12-3.12,0,0,0,68,false,stim,false,-1,1329.0,1,0,2,90166,task1,501860,false,false,220,image-keyboard-response,13
true,1,0,0,0,true,q,false,true,0.0-2.0-0.1-0.13-3.13,0,0,0,81,false,stim,false,-1,841.6000001430511,1,0,0,90166,task1,504214,false,false,223,image-keyboard-response,14
true,1,0,0,0,true,q,false,true,0.0-2.0-0.1-0.14-3.14,0,0,0,81,false,stim,false,-1,471.30000019073486,1,0,0,90166,task1,506196,false,false,226,image-keyboard-response,15
true,1,0,0,0,true,q,false,true,0.0-2.0-0.1-0.15-3.15,0,0,0,81,false,stim,false,-1,473.0,1,0,0,90166,task1,508183,false,false,229,image-keyboard-response,16
true,1,1,0,0,false,q,true,false,0.0-2.0-0.1-0.16-3.16,0,0,0,90,false,stim,false,-1,620.8999998569489,1,0,2,90166,task1,510318,false,false,232,image-keyboard-response,17
true,1,2,0,1,false,z,true,false,0.0-2.0-0.1-0.17-3.17,0,0,0,68,false,stim,false,-1,847.5999999046326,1,0,1,90166,task1,512679,false,false,235,image-keyboard-response,18
true,1,0,0,1,false,z,true,true,0.0-2.0-0.2-0.18-3.18,0,0,0,81,false,stim,false,-1,593.2999999523163,1,0,1,90166,task1,514785,false,true,238,image-keyboard-response,19
true,1,0,0,0,true,q,false,true,0.0-2.0-0.2-0.19-3.19,0,0,0,81,false,stim,false,-1,937.0999999046326,1,0,2,90166,task1,517235,false,false,241,image-keyboard-response,20
true,1,0,0,0,true,q,false,false,0.0-2.0-0.2-0.20-3.20,0,0,0,81,false,stim,false,-1,408.2999999523163,1,0,0,90166,task1,519155,false,true,244,image-keyboard-response,21
true,1,1,0,1,true,z,false,true,0.0-2.0-0.2-0.21-3.21,0,0,0,90,false,stim,false,-1,940.0999999046326,1,0,1,90166,task1,521604,false,false,247,image-keyboard-response,22
true,1,0,0,0,true,q,false,true,0.0-2.0-0.2-0.22-3.22,0,0,0,81,false,stim,false,-1,760.6000001430511,1,0,0,90166,task1,523877,false,false,250,image-keyboard-response,23
true,1,0,0,0,true,q,false,true,0.0-2.0-0.2-0.23-3.23,0,0,0,81,false,stim,false,-1,611.5999999046326,1,0,0,90166,task1,526002,false,false,253,image-keyboard-response,24
true,1,2,0,0,false,q,true,false,0.0-2.0-0.2-0.24-3.24,0,0,0,68,false,stim,false,-1,579.0,1,0,2,90166,task1,528089,false,false,256,image-keyboard-response,25
true,1,1,0,1,true,z,false,true,0.0-2.0-0.2-0.25-3.25,0,0,0,90,false,stim,false,-1,645.7000000476837,1,0,1,90166,task1,530247,false,false,259,image-keyboard-response,26
true,2,0,1,1,false,z,false,false,0.0-2.0-0.2-0.26-3.26,0,0,0,81,true,stim,true,0,399.2000000476837,1,0,2,90166,task1,532155,false,false,262,image-keyboard-response,1
true,2,1,1,0,false,q,false,false,0.0-2.0-0.3-0.27-3.27,0,0,0,90,false,stim,true,1,578.7999999523163,1,0,1,90166,task1,534247,false,false,265,image-keyboard-response,2
true,2,0,1,0,true,q,false,true,0.0-2.0-0.3-0.28-3.28,0,0,0,81,false,stim,false,1,775.8999998569489,1,0,1,90166,task1,536535,false,false,268,image-keyboard-response,3
true,2,0,1,1,false,z,false,false,0.0-2.0-0.3-0.29-3.29,0,0,0,81,false,stim,true,0,1379.2000000476837,1,0,2,90166,task1,539424,false,false,271,image-keyboard-response,4
true,2,0,1,2,false,d,false,false,0.0-2.0-0.3-0.30-3.30,0,0,0,81,false,stim,true,0,864.1000001430511,1,0,0,90166,task1,541802,false,false,274,image-keyboard-response,5
true,2,0,1,0,true,q,false,true,0.0-2.0-0.3-0.31-3.31,0,0,0,81,false,stim,false,1,1396.4000000953674,1,0,1,90166,task1,544711,false,false,277,image-keyboard-response,6
true,2,2,1,1,false,z,true,true,0.0-2.0-0.3-0.32-3.32,0,0,0,68,false,stim,false,0,549.3999998569489,1,0,2,90166,task1,546775,false,true,280,image-keyboard-response,7
true,2,1,1,2,false,d,true,false,0.0-2.0-0.3-0.33-3.33,0,0,0,90,false,stim,false,0,535.0999999046326,1,0,0,90166,task1,548822,false,false,283,image-keyboard-response,8
true,2,2,1,2,true,d,false,true,0.0-2.0-0.3-0.34-3.34,0,0,0,68,false,stim,false,0,805.0999999046326,1,0,0,90166,task1,551140,false,false,286,image-keyboard-response,9
true,2,2,1,1,false,z,true,false,0.0-2.0-0.3-0.35-3.35,0,0,0,68,false,stim,false,0,1490.0999999046326,1,0,2,90166,task1,554144,false,false,289,image-keyboard-response,10
true,2,2,1,2,true,d,false,true,0.0-2.0-0.4-0.36-3.36,0,0,0,68,false,stim,false,0,641.1000001430511,1,0,0,90166,task1,556299,false,false,292,image-keyboard-response,11
true,2,0,1,1,false,z,false,false,0.0-2.0-0.4-0.37-3.37,0,0,0,81,false,stim,true,0,654.0,1,0,2,90166,task1,558465,false,false,295,image-keyboard-response,12
true,2,1,1,1,true,z,false,true,0.0-2.0-0.4-0.38-3.38,0,0,0,90,false,stim,false,0,636.4000000953674,1,0,2,90166,task1,560615,false,false,298,image-keyboard-response,13
true,2,1,1,1,true,z,false,true,0.0-2.0-0.4-0.39-3.39,0,0,0,90,false,stim,false,0,514.0,1,0,2,90166,task1,562644,false,false,301,image-keyboard-response,14
true,2,2,1,0,false,q,true,false,0.0-2.0-0.4-0.40-3.40,0,0,0,68,false,stim,false,1,1139.0999999046326,1,0,1,90166,task1,565293,false,false,304,image-keyboard-response,15
true,2,1,1,0,false,q,false,false,0.0-2.0-0.4-0.41-3.41,0,0,0,90,false,stim,true,1,775.0999999046326,1,0,1,90166,task1,567580,false,false,307,image-keyboard-response,16
true,2,0,1,0,true,q,false,true,0.0-2.0-0.4-0.42-3.42,0,0,0,81,false,stim,false,1,901.8000001907349,1,0,1,90166,task1,569995,false,false,310,image-keyboard-response,17
true,2,2,1,2,true,d,false,true,0.0-2.0-0.4-0.43-3.43,0,0,0,68,false,stim,false,0,930.8000001907349,1,0,0,90166,task1,572439,false,false,313,image-keyboard-response,18
true,2,2,1,2,true,d,false,true,0.0-2.0-0.4-0.44-3.44,0,0,0,68,false,stim,false,0,612.2999999523163,1,0,0,90166,task1,574561,false,false,316,image-keyboard-response,19
true,2,0,1,1,false,z,false,false,0.0-2.0-0.5-0.45-3.45,0,0,0,81,false,stim,true,0,854.1000001430511,1,0,2,90166,task1,576929,false,false,319,image-keyboard-response,20
true,2,1,1,0,false,q,false,true,0.0-2.0-0.5-0.46-3.46,0,0,0,90,false,stim,true,1,1265.8000001907349,1,0,1,90166,task1,579706,false,true,322,image-keyboard-response,21
true,2,2,1,0,false,q,true,false,0.0-2.0-0.5-0.47-3.47,0,0,0,68,false,stim,false,1,1349.6000001430511,1,0,1,90166,task1,582569,false,false,325,image-keyboard-response,22
true,2,1,1,2,false,d,true,false,0.0-2.0-0.5-0.48-3.48,0,0,0,90,false,stim,false,0,931.5,1,0,0,90166,task1,585013,false,false,328,image-keyboard-response,23
true,2,0,1,1,false,z,false,false,0.0-2.0-0.5-0.49-3.49,0,0,0,81,false,stim,true,0,682.5,1,0,2,90166,task1,587208,false,false,331,image-keyboard-response,24
true,2,1,1,0,false,q,false,false,0.0-2.0-0.5-0.50-3.50,0,0,0,90,false,stim,true,1,355.2999999523163,1,0,1,90166,task1,589076,false,false,334,image-keyboard-response,25
true,2,2,1,1,false,z,true,false,0.0-2.0-0.5-0.51-3.51,0,0,0,68,false,stim,false,0,998.7999999523163,1,0,2,90166,task1,591590,false,false,337,image-keyboard-response,26
true,2,1,1,2,false,d,true,false,0.0-2.0-0.5-0.52-3.52,0,0,0,90,false,stim,false,0,780.0999999046326,1,0,0,90166,task1,593883,false,false,340,image-keyboard-response,27
true,2,0,1,2,false,d,false,false,0.0-2.0-0.5-0.53-3.53,0,0,0,81,false,stim,true,0,1102.9000000953674,1,0,0,90166,task1,596499,false,false,343,image-keyboard-response,28
true,2,1,1,0,false,q,false,false,0.0-2.0-0.6-0.54-3.54,0,0,0,90,false,stim,true,1,1049.4000000953674,1,0,1,90166,task1,599063,false,false,346,image-keyboard-response,29
true,2,2,1,0,false,q,true,false,0.0-2.0-0.6-0.55-3.55,0,0,0,68,false,stim,false,1,655.5,1,0,1,90166,task1,601230,false,false,349,image-keyboard-response,30
true,2,0,1,1,false,z,false,true,0.0-2.0-0.6-0.56-3.56,0,0,0,81,false,stim,true,0,627.4000000953674,1,0,2,90166,task1,603370,false,true,352,image-keyboard-response,31
true,2,0,1,1,false,z,false,false,0.0-2.0-0.6-0.57-3.57,0,0,0,81,false,stim,true,0,380.7000000476837,1,0,2,90166,task1,605264,false,false,355,image-keyboard-response,32
true,2,1,1,2,false,d,true,false,0.0-2.0-0.6-0.58-3.58,0,0,0,90,false,stim,false,0,1014.0,1,0,0,90166,task1,607791,false,false,358,image-keyboard-response,33
true,2,0,1,2,false,d,false,false,0.0-2.0-0.6-0.59-3.59,0,0,0,81,false,stim,true,0,902.4000000953674,1,0,0,90166,task1,610206,false,false,361,image-keyboard-response,34
true,2,2,1,1,false,z,true,false,0.0-2.0-0.6-0.60-3.60,0,0,0,68,false,stim,false,0,450.10000014305115,1,0,2,90166,task1,612168,false,false,364,image-keyboard-response,35
true,2,1,1,2,false,d,true,false,0.0-2.0-0.6-0.61-3.61,0,0,0,90,false,stim,false,0,1256.1000001430511,1,0,0,90166,task1,614937,false,false,367,image-keyboard-response,36
true,2,0,1,0,true,q,false,true,0.0-2.0-0.6-0.62-3.62,0,0,0,81,false,stim,false,1,711.6000001430511,1,0,1,90166,task1,617162,false,false,370,image-keyboard-response,37
true,2,0,1,1,false,z,false,true,0.0-2.0-0.7-0.63-3.63,0,0,0,81,false,stim,true,0,511.7999999523163,1,0,2,90166,task1,619187,false,true,373,image-keyboard-response,38
true,2,0,1,2,false,d,false,true,0.0-2.0-0.7-0.64-3.64,0,0,0,81,false,stim,true,0,283.2000000476837,1,0,0,90166,task1,620982,false,true,376,image-keyboard-response,39
true,3,0,1,0,true,q,false,true,0.0-2.0-0.7-0.65-3.65,0,0,0,81,true,stim,false,2,324.0,1,0,0,90166,task1,622818,false,false,379,image-keyboard-response,1
true,3,0,1,0,true,q,false,true,0.0-2.0-0.7-0.66-3.66,0,0,0,81,false,stim,false,1,358.7999999523163,1,0,2,90166,task1,624691,false,false,382,image-keyboard-response,2
true,3,0,1,2,false,d,false,false,0.0-2.0-0.7-0.67-3.67,0,0,0,81,false,stim,true,0,303.90000009536743,1,0,1,90166,task1,626509,false,false,385,image-keyboard-response,3
true,3,0,1,0,true,q,false,true,0.0-2.0-0.7-0.68-3.68,0,0,0,81,false,stim,false,2,382.7999999523163,1,0,0,90166,task1,628405,false,false,388,image-keyboard-response,4
true,3,0,1,0,true,q,false,true,0.0-2.0-0.7-0.69-3.69,0,0,0,81,false,stim,false,1,429.5,1,0,2,90166,task1,630349,false,false,391,image-keyboard-response,5
true,3,1,1,2,false,d,true,false,0.0-2.0-0.7-0.70-3.70,0,0,0,90,false,stim,false,0,531.2999999523163,1,0,1,90166,task1,632390,false,false,394,image-keyboard-response,6
true,3,2,1,2,true,d,false,true,0.0-2.0-0.7-0.71-3.71,0,0,0,68,false,stim,false,0,502.90000009536743,1,0,1,90166,task1,634405,false,false,397,image-keyboard-response,7
true,3,2,1,2,true,d,false,true,0.0-2.0-0.8-0.72-3.72,0,0,0,68,false,stim,false,0,768.4000000953674,1,0,1,90166,task1,636684,false,false,400,image-keyboard-response,8
true,3,0,1,0,true,q,false,true,0.0-2.0-0.8-0.73-3.73,0,0,0,81,false,stim,false,2,382.40000009536743,1,0,0,90166,task1,638583,false,false,403,image-keyboard-response,9
true,3,0,1,0,true,q,false,true,0.0-2.0-0.8-0.74-3.74,0,0,0,81,false,stim,false,2,520.5999999046326,1,0,0,90166,task1,640614,false,false,406,image-keyboard-response,10
true,3,2,1,2,true,d,false,true,0.0-2.0-0.8-0.75-3.75,0,0,0,68,false,stim,false,0,1015.3999998569489,1,0,1,90166,task1,643143,false,false,409,image-keyboard-response,11
true,3,1,1,0,false,q,false,false,0.0-2.0-0.8-0.76-3.76,0,0,0,90,false,stim,true,1,934.0999999046326,1,0,2,90166,task1,645590,false,false,412,image-keyboard-response,12
true,3,2,1,0,false,q,true,false,0.0-2.0-0.8-0.77-3.77,0,0,0,68,false,stim,false,1,454.2000000476837,1,0,2,90166,task1,647557,false,false,415,image-keyboard-response,13
true,3,0,1,0,true,q,false,true,0.0-2.0-0.8-0.78-3.78,0,0,0,81,false,stim,false,1,457.90000009536743,1,0,2,90166,task1,649530,false,false,418,image-keyboard-response,14
true,3,0,1,0,true,q,false,true,0.0-2.0-0.8-0.79-3.79,0,0,0,81,false,stim,false,2,843.5999999046326,1,0,0,90166,task1,651886,false,false,421,image-keyboard-response,15
true,3,2,1,2,true,d,false,true,0.0-2.0-0.8-0.80-3.80,0,0,0,68,false,stim,false,0,929.2000000476837,1,0,1,90166,task1,654329,false,false,424,image-keyboard-response,16
true,3,0,1,0,true,q,false,true,0.0-2.0-0.9-0.81-3.81,0,0,0,81,false,stim,false,1,1152.5,1,0,2,90166,task1,656994,false,false,427,image-keyboard-response,17
true,3,0,1,2,false,d,false,true,0.0-2.0-0.9-0.82-3.82,0,0,0,81,false,stim,true,0,1291.7999999523163,1,0,1,90166,task1,659800,false,true,430,image-keyboard-response,18
true,3,0,1,0,true,q,false,true,0.0-2.0-0.9-0.83-3.83,0,0,0,81,false,stim,false,2,1011.5,1,0,0,90166,task1,662325,false,false,433,image-keyboard-response,19
true,3,0,1,0,true,q,false,true,0.0-2.0-0.9-0.84-3.84,0,0,0,81,false,stim,false,2,724.3999998569489,1,0,0,90166,task1,664558,false,false,436,image-keyboard-response,20
true,3,0,1,2,false,d,false,false,0.0-2.0-0.9-0.85-3.85,0,0,0,81,false,stim,true,0,668.4000000953674,1,0,1,90166,task1,666738,false,false,439,image-keyboard-response,21
true,3,2,1,2,true,d,false,true,0.0-2.0-0.9-0.86-3.86,0,0,0,68,false,stim,false,0,782.2999999523163,1,0,1,90166,task1,669034,false,false,442,image-keyboard-response,22
true,3,0,1,0,true,q,false,false,0.0-2.0-0.9-0.87-3.87,0,0,0,81,false,stim,false,1,1297.0999999046326,1,0,2,90166,task1,671841,false,true,445,image-keyboard-response,23
true,3,2,1,0,false,q,true,false,0.0-2.0-0.9-0.88-3.88,0,0,0,68,false,stim,false,1,894.6999998092651,1,0,2,90166,task1,674249,false,false,448,image-keyboard-response,24
true,3,0,1,0,true,q,false,true,0.0-2.0-0.9-0.89-3.89,0,0,0,81,false,stim,false,2,816.7999999523163,1,0,0,90166,task1,676579,false,false,451,image-keyboard-response,25
true,3,2,1,0,false,q,true,false,0.0-2.0-0.10-0.90-3.90,0,0,0,68,false,stim,false,1,1266.0,1,0,2,90166,task1,679361,false,false,454,image-keyboard-response,26
true,3,2,1,0,false,q,true,false,0.0-2.0-0.10-0.91-3.91,0,0,0,68,false,stim,false,1,967.0,1,0,2,90166,task1,681841,false,false,457,image-keyboard-response,27
true,3,1,1,0,false,q,true,false,0.0-2.0-0.10-0.92-3.92,0,0,0,90,false,stim,false,2,1150.5,1,0,0,90166,task1,684505,false,false,460,image-keyboard-response,28
true,3,0,1,0,true,q,false,true,0.0-2.0-0.10-0.93-3.93,0,0,0,81,false,stim,false,2,641.1000001430511,1,0,0,90166,task1,686658,false,false,463,image-keyboard-response,29
true,3,0,1,2,false,d,false,false,0.0-2.0-0.10-0.94-3.94,0,0,0,81,false,stim,true,0,826.0999999046326,1,0,1,90166,task1,688997,false,false,466,image-keyboard-response,30
true,3,2,1,0,false,q,true,false,0.0-2.0-0.10-0.95-3.95,0,0,0,68,false,stim,false,1,1283.3000001907349,1,0,2,90166,task1,691794,false,false,469,image-keyboard-response,31
true,3,1,1,2,false,d,true,false,0.0-2.0-0.10-0.96-3.96,0,0,0,90,false,stim,false,0,607.4000000953674,1,0,1,90166,task1,693915,false,false,472,image-keyboard-response,32
true,3,0,1,0,true,q,false,true,0.0-2.0-0.10-0.97-3.97,0,0,0,81,false,stim,false,2,664.0,1,0,0,90166,task1,696092,false,false,475,image-keyboard-response,33
true,3,2,1,2,true,d,false,true,0.0-2.0-0.10-0.98-3.98,0,0,0,68,false,stim,false,0,1261.2999999523163,1,0,1,90166,task1,698866,false,false,478,image-keyboard-response,34
true,3,2,1,2,true,d,false,true,0.0-2.0-0.11-0.99-3.99,0,0,0,68,false,stim,false,0,427.5,1,0,1,90166,task1,700808,false,false,481,image-keyboard-response,35
true,3,1,1,0,false,q,false,true,0.0-2.0-0.11-0.100-3.100,0,0,0,90,false,stim,true,1,685.5999999046326,1,0,2,90166,task1,703007,false,true,484,image-keyboard-response,36
true,3,0,1,0,true,q,false,true,0.0-2.0-0.11-0.101-3.101,0,0,0,81,false,stim,false,2,750.9000000953674,1,0,0,90166,task1,705271,false,false,487,image-keyboard-response,37
true,3,0,1,0,true,q,false,true,0.0-2.0-0.11-0.102-3.102,0,0,0,81,false,stim,false,2,748.4000000953674,1,0,0,90166,task1,707533,false,false,490,image-keyboard-response,38
true,3,2,1,0,false,q,true,false,0.0-2.0-0.11-0.103-3.103,0,0,0,68,false,stim,false,1,699.6000001430511,1,0,2,90166,task1,709746,false,false,493,image-keyboard-response,39
true,4,0,1,2,false,d,false,false,0.0-2.0-0.11-0.104-3.104,0,0,0,81,true,stim,true,0,1223.7999999523163,1,0,0,90166,task1,712479,false,false,496,image-keyboard-response,1
true,4,1,1,0,false,q,true,true,0.0-2.0-0.11-0.105-3.105,0,0,0,90,false,stim,false,2,1034.7999999523163,1,0,1,90166,task1,715028,false,true,499,image-keyboard-response,2
true,4,1,1,0,false,q,true,false,0.0-2.0-0.11-0.106-3.106,0,0,0,90,false,stim,false,2,438.7000000476837,1,0,1,90166,task1,716982,false,false,502,image-keyboard-response,3
true,4,2,1,2,true,d,false,true,0.0-2.0-0.11-0.107-3.107,0,0,0,68,false,stim,false,0,779.3999998569489,1,0,2,90166,task1,719276,false,false,505,image-keyboard-response,4
true,4,2,1,2,true,d,false,true,0.0-2.0-0.12-0.108-3.108,0,0,0,68,false,stim,false,0,669.2000000476837,1,0,2,90166,task1,721460,false,false,508,image-keyboard-response,5
true,4,2,1,2,true,d,false,true,0.0-2.0-0.12-0.109-3.109,0,0,0,68,false,stim,false,0,515.0999999046326,1,0,2,90166,task1,723488,false,false,511,image-keyboard-response,6
true,4,0,1,2,false,d,false,false,0.0-2.0-0.12-0.110-3.110,0,0,0,81,false,stim,true,0,647.5999999046326,1,0,0,90166,task1,725644,false,false,514,image-keyboard-response,7
true,4,2,1,0,false,q,false,false,0.0-2.0-0.12-0.111-3.111,0,0,0,68,false,stim,true,2,936.5,1,0,1,90166,task1,728093,false,false,517,image-keyboard-response,8
true,4,1,1,2,false,d,true,false,0.0-2.0-0.12-0.112-3.112,0,0,0,90,false,stim,false,0,939.5999999046326,1,0,2,90166,task1,730546,false,false,520,image-keyboard-response,9
true,4,0,1,0,true,q,false,true,0.0-2.0-0.12-0.113-3.113,0,0,0,81,false,stim,false,2,852.4000000953674,1,0,1,90166,task1,732908,false,false,523,image-keyboard-response,10
true,4,2,1,2,true,d,false,true,0.0-2.0-0.12-0.114-3.114,0,0,0,68,false,stim,false,0,1170.2999999523163,1,0,0,90166,task1,735593,false,false,526,image-keyboard-response,11
true,4,2,1,2,true,d,false,true,0.0-2.0-0.12-0.115-3.115,0,0,0,68,false,stim,false,0,768.7000000476837,1,0,0,90166,task1,737875,false,false,529,image-keyboard-response,12
true,4,1,1,0,false,q,true,false,0.0-2.0-0.12-0.116-3.116,0,0,0,90,false,stim,false,2,772.6000001430511,1,0,1,90166,task1,740158,false,false,532,image-keyboard-response,13
true,4,0,1,2,false,d,false,false,0.0-2.0-0.13-0.117-3.117,0,0,0,81,false,stim,true,0,959.2999999523163,1,0,0,90166,task1,742631,false,false,535,image-keyboard-response,14
true,4,1,1,0,false,q,true,false,0.0-2.0-0.13-0.118-3.118,0,0,0,90,false,stim,false,2,1540.5,1,0,1,90166,task1,745685,false,false,538,image-keyboard-response,15
true,4,2,1,0,false,q,false,false,0.0-2.0-0.13-0.119-3.119,0,0,0,68,false,stim,true,2,790.1000001430511,1,0,1,90166,task1,747989,false,false,541,image-keyboard-response,16
true,4,0,1,2,false,d,false,false,0.0-2.0-0.13-0.120-3.120,0,0,0,81,false,stim,true,0,758.8999998569489,1,0,2,90166,task1,750262,false,false,544,image-keyboard-response,17
true,4,2,1,2,true,d,false,true,0.0-2.0-0.13-0.121-3.121,0,0,0,68,false,stim,false,0,1310.5,1,0,0,90166,task1,753086,false,false,547,image-keyboard-response,18
true,4,1,1,2,false,d,true,false,0.0-2.0-0.13-0.122-3.122,0,0,0,90,false,stim,false,0,2727.0999999046326,1,0,2,90166,task1,757327,false,false,550,image-keyboard-response,19
true,4,0,1,2,false,d,false,false,0.0-2.0-0.13-0.123-3.123,0,0,0,81,false,stim,true,0,795.2000000476837,1,0,0,90166,task1,759636,false,false,553,image-keyboard-response,20
true,4,2,1,2,true,d,false,true,0.0-2.0-0.13-0.124-3.124,0,0,0,68,false,stim,false,0,786.0,1,0,2,90166,task1,761935,false,false,556,image-keyboard-response,21
true,4,2,1,0,false,q,false,false,0.0-2.0-0.13-0.125-3.125,0,0,0,68,false,stim,true,2,954.7999999523163,1,0,1,90166,task1,764402,false,false,559,image-keyboard-response,22
true,4,0,1,2,false,d,false,false,0.0-2.0-0.14-0.126-3.126,0,0,0,81,false,stim,true,0,765.1999998092651,1,0,2,90166,task1,766681,false,false,562,image-keyboard-response,23
true,4,1,1,0,false,q,true,false,0.0-2.0-0.14-0.127-3.127,0,0,0,90,false,stim,false,2,1752.3999998569489,1,0,1,90166,task1,769944,false,false,565,image-keyboard-response,24
true,4,2,1,0,false,q,false,true,0.0-2.0-0.14-0.128-3.128,0,0,0,68,false,stim,true,2,660.5,1,0,1,90166,task1,772118,false,true,568,image-keyboard-response,25
true,4,1,1,2,false,d,true,false,0.0-2.0-0.14-0.129-3.129,0,0,0,90,false,stim,false,0,1635.7000000476837,1,0,2,90166,task1,775266,false,false,571,image-keyboard-response,26
true,4,0,1,2,false,d,false,false,0.0-2.0-0.14-0.130-3.130,0,0,0,81,false,stim,true,0,1133.6000001430511,1,0,0,90166,task1,777914,false,false,574,image-keyboard-response,27
true,4,2,1,2,true,d,false,true,0.0-2.0-0.14-0.131-3.131,0,0,0,68,false,stim,false,0,796.9000000953674,1,0,0,90166,task1,780225,false,false,577,image-keyboard-response,28
true,4,2,1,2,true,d,false,true,0.0-2.0-0.14-0.132-3.132,0,0,0,68,false,stim,false,0,1073.0,1,0,2,90166,task1,782811,false,false,580,image-keyboard-response,29
true,4,2,1,2,true,d,false,false,0.0-2.0-0.14-0.133-3.133,0,0,0,68,false,stim,false,0,2029.3999998569489,1,0,0,90166,task1,786352,false,true,583,image-keyboard-response,30
true,4,1,1,0,false,q,true,false,0.0-2.0-0.14-0.134-3.134,0,0,0,90,false,stim,false,2,798.6999998092651,1,0,1,90166,task1,788665,false,false,586,image-keyboard-response,31
true,4,0,1,0,true,q,false,true,0.0-2.0-0.15-0.135-3.135,0,0,0,81,false,stim,false,2,647.0,1,0,1,90166,task1,790826,false,false,589,image-keyboard-response,32
true,4,0,1,0,true,q,false,true,0.0-2.0-0.15-0.136-3.136,0,0,0,81,false,stim,false,2,556.2000000476837,1,0,1,90166,task1,792896,false,false,592,image-keyboard-response,33
true,4,0,1,2,false,d,false,true,0.0-2.0-0.15-0.137-3.137,0,0,0,81,false,stim,true,0,565.2000000476837,1,0,0,90166,task1,794972,false,true,595,image-keyboard-response,34
true,4,0,1,2,false,d,false,false,0.0-2.0-0.15-0.138-3.138,0,0,0,81,false,stim,true,0,1116.9000000953674,1,0,0,90166,task1,797603,false,false,598,image-keyboard-response,35
true,4,1,1,2,false,d,true,false,0.0-2.0-0.15-0.139-3.139,0,0,0,90,false,stim,false,0,748.8999998569489,1,0,2,90166,task1,799868,false,false,601,image-keyboard-response,36
true,4,2,1,2,true,d,false,true,0.0-2.0-0.15-0.140-3.140,0,0,0,68,false,stim,false,0,740.9000000953674,1,0,0,90166,task1,802118,false,false,604,image-keyboard-response,37
true,4,0,1,0,true,q,false,false,0.0-2.0-0.15-0.141-3.141,0,0,0,81,false,stim,false,2,1324.8999998569489,1,0,1,90166,task1,804956,false,true,607,image-keyboard-response,38
true,4,2,1,2,true,d,false,true,0.0-2.0-0.15-0.142-3.142,0,0,0,68,false,stim,false,0,926.0999999046326,1,0,2,90166,task1,807393,false,false,610,image-keyboard-response,39
true,4,2,1,2,true,d,false,true,0.0-2.0-0.15-0.143-3.143,0,0,0,68,false,stim,false,0,865.1000001430511,1,0,2,90166,task1,809771,false,false,613,image-keyboard-response,40
true,4,2,1,0,false,q,false,false,0.0-2.0-0.16-0.144-3.144,0,0,0,68,false,stim,true,2,1637.7000000476837,1,0,1,90166,task1,812923,false,false,616,image-keyboard-response,41
true,4,0,1,2,false,d,false,false,0.0-2.0-0.16-0.145-3.145,0,0,0,81,false,stim,true,0,735.9000000953674,1,0,0,90166,task1,815173,false,false,619,image-keyboard-response,42
true,4,1,1,2,false,d,true,false,0.0-2.0-0.16-0.146-3.146,0,0,0,90,false,stim,false,0,928.7000000476837,1,0,0,90166,task1,817616,false,false,622,image-keyboard-response,43
true,5,0,1,2,false,d,false,false,0.0-2.0-0.16-0.147-3.147,0,0,0,81,true,stim,true,0,1257.2000000476837,1,0,1,90166,task1,820387,false,false,625,image-keyboard-response,1
true,5,2,1,1,false,z,false,false,0.0-2.0-0.16-0.148-3.148,0,0,0,68,false,stim,true,2,879.0999999046326,1,0,2,90166,task1,822780,false,false,628,image-keyboard-response,2
true,5,0,1,2,false,d,false,false,0.0-2.0-0.16-0.149-3.149,0,0,0,81,false,stim,true,0,1419.5999999046326,1,0,1,90166,task1,825713,false,false,631,image-keyboard-response,3
true,5,2,1,1,false,z,false,false,0.0-2.0-0.16-0.150-3.150,0,0,0,68,false,stim,true,2,897.2000000476837,1,0,0,90166,task1,828124,false,false,634,image-keyboard-response,4
true,5,1,1,1,true,z,false,true,0.0-2.0-0.16-0.151-3.151,0,0,0,90,false,stim,false,2,880.2000000476837,1,0,2,90166,task1,830516,false,false,637,image-keyboard-response,5
true,5,0,1,1,false,z,true,false,0.0-2.0-0.16-0.152-3.152,0,0,0,81,false,stim,false,2,1427.5,1,0,2,90166,task1,833454,false,false,640,image-keyboard-response,6
true,5,1,1,2,false,d,true,false,0.0-2.0-0.17-0.153-3.153,0,0,0,90,false,stim,false,0,1198.7000000476837,1,0,1,90166,task1,836168,false,false,643,image-keyboard-response,7
true,5,2,1,1,false,z,false,false,0.0-2.0-0.17-0.154-3.154,0,0,0,68,false,stim,true,2,562.5999999046326,1,0,0,90166,task1,838245,false,false,646,image-keyboard-response,8
true,5,0,1,2,false,d,false,false,0.0-2.0-0.17-0.155-3.155,0,0,0,81,false,stim,true,0,1346.3999998569489,1,0,1,90166,task1,841106,false,false,649,image-keyboard-response,9
true,5,0,1,1,false,z,true,false,0.0-2.0-0.17-0.156-3.156,0,0,0,81,false,stim,false,2,516.6000001430511,1,0,2,90166,task1,843136,false,false,652,image-keyboard-response,10
true,5,1,1,1,true,z,false,false,0.0-2.0-0.17-0.157-3.157,0,0,0,90,false,stim,false,2,1310.6999998092651,1,0,2,90166,task1,845961,false,true,655,image-keyboard-response,11
true,5,0,1,2,false,d,false,false,0.0-2.0-0.17-0.158-3.158,0,0,0,81,false,stim,true,0,1356.0999999046326,1,0,1,90166,task1,848831,false,false,658,image-keyboard-response,12
true,5,2,1,1,false,z,false,false,0.0-2.0-0.17-0.159-3.159,0,0,0,68,false,stim,true,2,588.7999999523163,1,0,0,90166,task1,850933,false,false,661,image-keyboard-response,13
true,5,1,1,1,true,z,false,true,0.0-2.0-0.17-0.160-3.160,0,0,0,90,false,stim,false,2,694.2000000476837,1,0,0,90166,task1,853141,false,false,664,image-keyboard-response,14
true,5,0,1,1,false,z,true,false,0.0-2.0-0.17-0.161-3.161,0,0,0,81,false,stim,false,2,1286.2999999523163,1,0,2,90166,task1,855938,false,false,667,image-keyboard-response,15
true,5,2,1,1,false,z,false,true,0.0-2.0-0.18-0.162-3.162,0,0,0,68,false,stim,true,2,668.9000000953674,1,0,0,90166,task1,858120,false,true,670,image-keyboard-response,16
true,5,2,1,2,true,d,false,true,0.0-2.0-0.18-0.163-3.163,0,0,0,68,false,stim,false,0,954.8999998569489,1,0,1,90166,task1,860589,false,false,673,image-keyboard-response,17
true,5,0,1,1,false,z,true,false,0.0-2.0-0.18-0.164-3.164,0,0,0,81,false,stim,false,2,1227.5,1,0,0,90166,task1,863331,false,false,676,image-keyboard-response,18
true,5,2,1,1,false,z,false,false,0.0-2.0-0.18-0.165-3.165,0,0,0,68,false,stim,true,2,1848.3999998569489,1,0,2,90166,task1,866693,false,false,679,image-keyboard-response,19
true,5,1,1,1,true,z,false,true,0.0-2.0-0.18-0.166-3.166,0,0,0,90,false,stim,false,2,2097.9000000953674,1,0,2,90166,task1,870303,false,false,682,image-keyboard-response,20
true,5,1,1,1,true,z,false,true,0.0-2.0-0.18-0.167-3.167,0,0,0,90,false,stim,false,2,1371.5,1,0,2,90166,task1,873187,false,false,685,image-keyboard-response,21
true,5,1,1,2,false,d,true,false,0.0-2.0-0.18-0.168-3.168,0,0,0,90,false,stim,false,0,735.5,1,0,1,90166,task1,875436,false,false,688,image-keyboard-response,22
true,5,0,1,2,false,d,false,false,0.0-2.0-0.18-0.169-3.169,0,0,0,81,false,stim,true,0,595.1999998092651,1,0,1,90166,task1,877545,false,false,691,image-keyboard-response,23
true,5,2,1,1,false,z,false,false,0.0-2.0-0.18-0.170-3.170,0,0,0,68,false,stim,true,2,505.59999990463257,1,0,0,90166,task1,879564,false,false,694,image-keyboard-response,24
true,5,1,1,1,true,z,false,true,0.0-2.0-0.19-0.171-3.171,0,0,0,90,false,stim,false,2,1307.8999998569489,1,0,2,90166,task1,882387,false,false,697,image-keyboard-response,25
true,5,1,1,1,true,z,false,false,0.0-2.0-0.19-0.172-3.172,0,0,0,90,false,stim,false,2,1609.7000000476837,1,0,0,90166,task1,885513,false,true,700,image-keyboard-response,26
true,5,0,1,1,false,z,true,false,0.0-2.0-0.19-0.173-3.173,0,0,0,81,false,stim,false,2,2576.7000000476837,1,0,0,90166,task1,889607,false,false,703,image-keyboard-response,27
true,5,2,1,2,true,d,false,false,0.0-2.0-0.19-0.174-3.174,0,0,0,68,false,stim,false,0,619.2000000476837,1,0,1,90166,task1,891741,false,true,706,image-keyboard-response,28
true,5,1,1,2,false,d,true,true,0.0-2.0-0.19-0.175-3.175,0,0,0,90,false,stim,false,0,1120.8999998569489,1,0,1,90166,task1,894376,false,true,709,image-keyboard-response,29
true,5,0,1,1,false,z,true,false,0.0-2.0-0.19-0.176-3.176,0,0,0,81,false,stim,false,2,1064.9000000953674,1,0,0,90166,task1,896955,false,false,712,image-keyboard-response,30
true,5,1,1,2,false,d,true,false,0.0-2.0-0.19-0.177-3.177,0,0,0,90,false,stim,false,0,727.3999998569489,1,0,1,90166,task1,899194,false,false,715,image-keyboard-response,31
true,5,2,1,1,false,z,false,false,0.0-2.0-0.19-0.178-3.178,0,0,0,68,false,stim,true,2,472.5,1,0,2,90166,task1,901181,false,false,718,image-keyboard-response,32
true,5,0,1,1,false,z,true,false,0.0-2.0-0.19-0.179-3.179,0,0,0,81,false,stim,false,2,479.39999985694885,1,0,2,90166,task1,903175,false,false,721,image-keyboard-response,33
true,5,1,1,1,true,z,false,true,0.0-2.0-0.20-0.180-3.180,0,0,0,90,false,stim,false,2,710.7999999523163,1,0,2,90166,task1,905391,false,false,724,image-keyboard-response,34
true,5,1,1,2,false,d,true,false,0.0-2.0-0.20-0.181-3.181,0,0,0,90,false,stim,false,0,1119.7999999523163,1,0,1,90166,task1,908025,false,false,727,image-keyboard-response,35
true,5,0,1,1,false,z,true,false,0.0-2.0-0.20-0.182-3.182,0,0,0,81,false,stim,false,2,653.2999999523163,1,0,0,90166,task1,910193,false,false,730,image-keyboard-response,36
true,5,2,1,1,false,z,false,false,0.0-2.0-0.20-0.183-3.183,0,0,0,68,false,stim,true,2,886.9000000953674,1,0,2,90166,task1,912593,false,false,733,image-keyboard-response,37
true,5,1,1,2,false,d,true,false,0.0-2.0-0.20-0.184-3.184,0,0,0,90,false,stim,false,0,746.5,1,0,1,90166,task1,914853,false,false,736,image-keyboard-response,38
true,5,0,1,1,false,z,true,true,0.0-2.0-0.20-0.185-3.185,0,0,0,81,false,stim,false,2,927.1000001430511,1,0,0,90166,task1,917290,false,true,739,image-keyboard-response,39
true,5,0,1,1,false,z,true,false,0.0-2.0-0.20-0.186-3.186,0,0,0,81,false,stim,false,2,534.2000000476837,1,0,0,90166,task1,919339,false,false,742,image-keyboard-response,40
true,6,1,1,1,true,z,false,true,0.0-2.0-0.20-0.187-3.187,0,0,0,90,true,stim,false,2,1330.1000001430511,1,0,1,90166,task1,922183,false,false,745,image-keyboard-response,1
true,6,2,1,2,true,d,false,true,0.0-2.0-0.20-0.188-3.188,0,0,0,68,false,stim,false,1,1295.6000001430511,1,0,2,90166,task1,924993,false,false,748,image-keyboard-response,2
true,6,2,1,1,false,z,false,false,0.0-2.0-0.21-0.189-3.189,0,0,0,68,false,stim,true,2,1363.6999998092651,1,0,1,90166,task1,927870,false,false,751,image-keyboard-response,3
true,6,1,1,1,true,z,false,true,0.0-2.0-0.21-0.190-3.190,0,0,0,90,false,stim,false,2,613.8999998569489,1,0,1,90166,task1,929998,false,false,754,image-keyboard-response,4
true,6,0,1,0,true,q,false,true,0.0-2.0-0.21-0.191-3.191,0,0,0,81,false,stim,false,1,632.8999998569489,1,0,0,90166,task1,932145,false,false,757,image-keyboard-response,5
true,6,0,1,0,true,q,false,true,0.0-2.0-0.21-0.192-3.192,0,0,0,81,false,stim,false,1,647.5,1,0,0,90166,task1,934306,false,false,760,image-keyboard-response,6
true,6,2,1,2,true,d,false,true,0.0-2.0-0.21-0.193-3.193,0,0,0,68,false,stim,false,1,792.4000000953674,1,0,2,90166,task1,936612,false,false,763,image-keyboard-response,7
true,6,0,1,2,false,d,true,false,0.0-2.0-0.21-0.194-3.194,0,0,0,81,false,stim,false,1,2196.7000000476837,1,0,2,90166,task1,940323,false,false,766,image-keyboard-response,8
true,6,1,1,1,true,z,false,true,0.0-2.0-0.21-0.195-3.195,0,0,0,90,false,stim,false,2,760.2000000476837,1,0,1,90166,task1,942598,false,false,769,image-keyboard-response,9
true,6,0,1,0,true,q,false,true,0.0-2.0-0.21-0.196-3.196,0,0,0,81,false,stim,false,1,752.2999999523163,1,0,0,90166,task1,944864,false,false,772,image-keyboard-response,10
true,6,2,1,2,true,d,false,true,0.0-2.0-0.21-0.197-3.197,0,0,0,68,false,stim,false,1,1158.4000000953674,1,0,2,90166,task1,947533,false,false,775,image-keyboard-response,11
true,6,0,1,0,true,q,false,true,0.0-2.0-0.22-0.198-3.198,0,0,0,81,false,stim,false,1,931.4000000953674,1,0,0,90166,task1,949976,false,false,778,image-keyboard-response,12
true,6,1,1,1,true,z,false,true,0.0-2.0-0.22-0.199-3.199,0,0,0,90,false,stim,false,2,1272.7000000476837,1,0,1,90166,task1,952763,false,false,781,image-keyboard-response,13
true,6,2,1,2,true,d,false,true,0.0-2.0-0.22-0.200-3.200,0,0,0,68,false,stim,false,1,2303.7000000476837,1,0,2,90166,task1,956581,false,false,784,image-keyboard-response,14
true,6,0,1,1,false,z,true,false,0.0-2.0-0.22-0.201-3.201,0,0,0,81,false,stim,false,2,1531.1000001430511,1,0,1,90166,task1,959628,false,false,787,image-keyboard-response,15
true,6,2,1,2,true,d,false,true,0.0-2.0-0.22-0.202-3.202,0,0,0,68,false,stim,false,1,902.3999998569489,1,0,2,90166,task1,962045,false,false,790,image-keyboard-response,16
true,6,1,1,1,true,z,false,true,0.0-2.0-0.22-0.203-3.203,0,0,0,90,false,stim,false,2,1009.5999999046326,1,0,1,90166,task1,964569,false,false,793,image-keyboard-response,17
true,6,0,1,0,true,q,false,true,0.0-2.0-0.22-0.204-3.204,0,0,0,81,false,stim,false,1,1644.9000000953674,1,0,0,90166,task1,967728,false,false,796,image-keyboard-response,18
true,6,0,1,0,true,q,false,true,0.0-2.0-0.22-0.205-3.205,0,0,0,81,false,stim,false,1,908.5999999046326,1,0,0,90166,task1,970151,false,false,799,image-keyboard-response,19
true,6,2,1,2,true,d,false,true,0.0-2.0-0.22-0.206-3.206,0,0,0,68,false,stim,false,1,2987.0999999046326,1,0,2,90166,task1,974657,false,false,802,image-keyboard-response,20
true,6,0,1,0,true,q,false,true,0.0-2.0-0.23-0.207-3.207,0,0,0,81,false,stim,false,1,653.0999999046326,1,0,0,90166,task1,976824,false,false,805,image-keyboard-response,21
true,6,2,1,2,true,d,false,true,0.0-2.0-0.23-0.208-3.208,0,0,0,68,false,stim,false,1,1428.7000000476837,1,0,2,90166,task1,979765,false,false,808,image-keyboard-response,22
true,6,2,1,1,false,z,false,false,0.0-2.0-0.23-0.209-3.209,0,0,0,68,false,stim,true,2,839.0,1,0,1,90166,task1,982120,false,false,811,image-keyboard-response,23
true,6,0,1,2,false,d,true,false,0.0-2.0-0.23-0.210-3.210,0,0,0,81,false,stim,false,1,1232.9000000953674,1,0,2,90166,task1,984866,false,false,814,image-keyboard-response,24
true,6,1,1,1,true,z,false,true,0.0-2.0-0.23-0.211-3.211,0,0,0,90,false,stim,false,2,648.3000001907349,1,0,1,90166,task1,987026,false,false,817,image-keyboard-response,25
false,6,-1,1,2,false,d,true,false,0.0-2.0-0.23-0.212-3.212,0,0,0,,false,stim,false,1,,1,0,2,90166,task1,991543,false,false,820,image-keyboard-response,26
true,6,1,1,0,false,q,false,false,0.0-2.0-0.23-0.213-3.213,0,0,0,90,false,stim,true,1,605.2999999523163,1,0,0,90166,task1,993665,false,false,823,image-keyboard-response,27
true,6,0,1,0,true,q,false,true,0.0-2.0-0.23-0.214-3.214,0,0,0,81,false,stim,false,1,509.40000009536743,1,0,0,90166,task1,995688,false,false,826,image-keyboard-response,28
true,6,0,1,1,false,z,true,false,0.0-2.0-0.23-0.215-3.215,0,0,0,81,false,stim,false,2,723.8000001907349,1,0,1,90166,task1,997926,false,false,829,image-keyboard-response,29
true,6,1,1,1,true,z,false,true,0.0-2.0-0.24-0.216-3.216,0,0,0,90,false,stim,false,2,948.9000000953674,1,0,1,90166,task1,1000387,false,false,832,image-keyboard-response,30
true,6,0,1,2,false,d,true,false,0.0-2.0-0.24-0.217-3.217,0,0,0,81,false,stim,false,1,1505.8999998569489,1,0,2,90166,task1,1003407,false,false,835,image-keyboard-response,31
true,6,2,1,0,false,q,true,false,0.0-2.0-0.24-0.218-3.218,0,0,0,68,false,stim,false,1,1426.9000000953674,1,0,0,90166,task1,1006349,false,false,838,image-keyboard-response,32
true,6,0,1,1,false,z,true,false,0.0-2.0-0.24-0.219-3.219,0,0,0,81,false,stim,false,2,1048.5,1,0,1,90166,task1,1008907,false,false,841,image-keyboard-response,33
true,6,1,1,1,true,z,false,true,0.0-2.0-0.24-0.220-3.220,0,0,0,90,false,stim,false,2,1067.3999998569489,1,0,1,90166,task1,1011484,false,false,844,image-keyboard-response,34
true,6,1,1,2,false,d,false,false,0.0-2.0-0.24-0.221-3.221,0,0,0,90,false,stim,true,1,912.8000001907349,1,0,2,90166,task1,1013911,false,false,847,image-keyboard-response,35
true,6,0,1,2,false,d,true,false,0.0-2.0-0.24-0.222-3.222,0,0,0,81,false,stim,false,1,360.59999990463257,1,0,2,90166,task1,1015787,false,false,850,image-keyboard-response,36
true,6,2,1,0,false,q,true,false,0.0-2.0-0.24-0.223-3.223,0,0,0,68,false,stim,false,1,375.2999999523163,1,0,0,90166,task1,1017677,false,false,853,image-keyboard-response,37
true,6,1,1,0,false,q,false,false,0.0-2.0-0.24-0.224-3.224,0,0,0,90,false,stim,true,1,735.7000000476837,1,0,0,90166,task1,1019924,false,false,856,image-keyboard-response,38
true,6,0,1,0,true,q,false,true,0.0-2.0-0.25-0.225-3.225,0,0,0,81,false,stim,false,1,561.5,1,0,0,90166,task1,1022000,false,false,859,image-keyboard-response,39
true,6,2,1,2,true,d,false,true,0.0-2.0-0.25-0.226-3.226,0,0,0,68,false,stim,false,1,1479.2999999523163,1,0,2,90166,task1,1024994,false,false,862,image-keyboard-response,40
true,6,0,1,1,false,z,true,false,0.0-2.0-0.25-0.227-3.227,0,0,0,81,false,stim,false,2,1271.3000001907349,1,0,1,90166,task1,1027780,false,false,865,image-keyboard-response,41
true,7,1,2,2,false,d,false,false,0.0-2.0-0.25-0.228-3.228,0,0,0,90,true,stim,true,1,453.2000000476837,1,0,1,90166,task1,1029748,false,false,868,image-keyboard-response,1
true,7,2,2,1,false,z,false,false,0.0-2.0-0.25-0.229-3.229,0,0,0,68,false,stim,true,2,677.7000000476837,1,0,2,90166,task1,1031936,false,false,871,image-keyboard-response,2
true,7,0,2,1,false,z,false,false,0.0-2.0-0.25-0.230-3.230,0,0,0,81,false,stim,true,0,756.2999999523163,1,0,0,90166,task1,1034206,false,false,874,image-keyboard-response,3
true,7,0,2,2,false,d,true,false,0.0-2.0-0.25-0.231-3.231,0,0,0,81,false,stim,false,1,904.7999999523163,1,0,1,90166,task1,1036626,false,false,877,image-keyboard-response,4
true,7,1,2,1,true,z,false,true,0.0-2.0-0.25-0.232-3.232,0,0,0,90,false,stim,false,0,878.7999999523163,1,0,0,90166,task1,1039018,false,false,880,image-keyboard-response,5
true,7,2,2,1,false,z,false,false,0.0-2.0-0.25-0.233-3.233,0,0,0,68,false,stim,true,2,833.2999999523163,1,0,2,90166,task1,1041361,false,false,883,image-keyboard-response,6
true,7,1,2,2,false,d,false,false,0.0-2.0-0.26-0.234-3.234,0,0,0,90,false,stim,true,1,652.7000000476837,1,0,1,90166,task1,1043528,false,false,886,image-keyboard-response,7
true,7,0,2,1,false,z,false,false,0.0-2.0-0.26-0.235-3.235,0,0,0,81,false,stim,true,0,649.2999999523163,1,0,0,90166,task1,1045692,false,false,889,image-keyboard-response,8
true,7,1,2,2,false,d,false,false,0.0-2.0-0.26-0.236-3.236,0,0,0,90,false,stim,true,1,781.5,1,0,1,90166,task1,1047987,false,false,892,image-keyboard-response,9
true,7,0,2,1,false,z,false,false,0.0-2.0-0.26-0.237-3.237,0,0,0,81,false,stim,true,0,693.5999999046326,1,0,0,90166,task1,1050195,false,false,895,image-keyboard-response,10
true,7,2,2,1,false,z,false,true,0.0-2.0-0.26-0.238-3.238,0,0,0,68,false,stim,true,2,748.5,1,0,2,90166,task1,1052453,false,true,898,image-keyboard-response,11
true,7,2,2,1,false,z,false,false,0.0-2.0-0.26-0.239-3.239,0,0,0,68,false,stim,true,2,436.39999985694885,1,0,2,90166,task1,1054408,false,false,901,image-keyboard-response,12
true,7,1,2,2,false,d,false,false,0.0-2.0-0.26-0.240-3.240,0,0,0,90,false,stim,true,1,932.2999999523163,1,0,1,90166,task1,1056852,false,false,904,image-keyboard-response,13
true,7,0,2,1,false,z,false,false,0.0-2.0-0.26-0.241-3.241,0,0,0,81,false,stim,true,0,421.7999999523163,1,0,0,90166,task1,1058789,false,false,907,image-keyboard-response,14
true,7,2,2,1,false,z,false,true,0.0-2.0-0.26-0.242-3.242,0,0,0,68,false,stim,true,2,599.2000000476837,1,0,2,90166,task1,1060903,false,true,910,image-keyboard-response,15
true,7,1,2,2,false,d,false,false,0.0-2.0-0.27-0.243-3.243,0,0,0,90,false,stim,true,1,721.7000000476837,1,0,1,90166,task1,1063139,false,false,913,image-keyboard-response,16
true,7,2,2,1,false,z,false,false,0.0-2.0-0.27-0.244-3.244,0,0,0,68,false,stim,true,2,452.89999985694885,1,0,2,90166,task1,1065107,false,false,916,image-keyboard-response,17
true,7,0,2,2,false,d,true,false,0.0-2.0-0.27-0.245-3.245,0,0,0,81,false,stim,false,1,399.0,1,0,1,90166,task1,1067018,false,false,919,image-keyboard-response,18
true,7,2,2,1,false,z,true,false,0.0-2.0-0.27-0.246-3.246,0,0,0,68,false,stim,false,0,417.0,1,0,0,90166,task1,1068950,false,false,922,image-keyboard-response,19
true,7,1,2,1,true,z,false,true,0.0-2.0-0.27-0.247-3.247,0,0,0,90,false,stim,false,0,818.2999999523163,1,0,0,90166,task1,1071282,false,false,925,image-keyboard-response,20
true,7,0,2,1,false,z,false,false,0.0-2.0-0.27-0.248-3.248,0,0,0,81,false,stim,true,0,1277.1999998092651,1,0,0,90166,task1,1074070,false,false,928,image-keyboard-response,21
true,7,2,2,2,true,d,false,true,0.0-2.0-0.27-0.249-3.249,0,0,0,68,false,stim,false,1,1446.5999999046326,1,0,1,90166,task1,1077029,false,false,931,image-keyboard-response,22
true,7,2,2,1,false,z,false,false,0.0-2.0-0.27-0.250-3.250,0,0,0,68,false,stim,true,2,692.0,1,0,2,90166,task1,1079236,false,false,934,image-keyboard-response,23
true,7,0,2,1,false,z,true,false,0.0-2.0-0.27-0.251-3.251,0,0,0,81,false,stim,false,2,1880.2999999523163,1,0,2,90166,task1,1082631,false,false,937,image-keyboard-response,24
true,7,1,2,1,true,z,false,true,0.0-2.0-0.28-0.252-3.252,0,0,0,90,false,stim,false,0,834.5,1,0,0,90166,task1,1084981,false,false,940,image-keyboard-response,25
true,7,2,2,1,false,z,true,false,0.0-2.0-0.28-0.253-3.253,0,0,0,68,false,stim,false,0,1384.9000000953674,1,0,0,90166,task1,1087881,false,false,943,image-keyboard-response,26
true,7,0,2,2,false,d,true,false,0.0-2.0-0.28-0.254-3.254,0,0,0,81,false,stim,false,1,1226.6000001430511,1,0,1,90166,task1,1090622,false,false,946,image-keyboard-response,27
true,7,1,2,2,false,d,false,true,0.0-2.0-0.28-0.255-3.255,0,0,0,90,false,stim,true,1,386.09999990463257,1,0,1,90166,task1,1092522,false,true,949,image-keyboard-response,28
true,7,2,2,1,false,z,true,false,0.0-2.0-0.28-0.256-3.256,0,0,0,68,false,stim,false,0,642.3000001907349,1,0,0,90166,task1,1094675,false,false,952,image-keyboard-response,29
true,7,0,2,2,false,d,true,false,0.0-2.0-0.28-0.257-3.257,0,0,0,81,false,stim,false,1,840.1000001430511,1,0,1,90166,task1,1097030,false,false,955,image-keyboard-response,30
true,7,2,2,1,false,z,false,false,0.0-2.0-0.28-0.258-3.258,0,0,0,68,false,stim,true,2,2028.8999998569489,1,0,2,90166,task1,1100574,false,false,958,image-keyboard-response,31
true,7,1,2,1,true,z,false,true,0.0-2.0-0.28-0.259-3.259,0,0,0,90,false,stim,false,2,1321.2000000476837,1,0,2,90166,task1,1103410,false,false,961,image-keyboard-response,32
true,7,1,2,1,true,z,false,false,0.0-2.0-0.28-0.260-3.260,0,0,0,90,false,stim,false,2,993.7000000476837,1,0,2,90166,task1,1105918,false,true,964,image-keyboard-response,33
true,7,2,2,1,false,z,true,false,0.0-2.0-0.29-0.261-3.261,0,0,0,68,false,stim,false,0,2880.5,1,0,0,90166,task1,1110306,false,false,967,image-keyboard-response,34
true,7,0,2,2,false,d,true,false,0.0-2.0-0.29-0.262-3.262,0,0,0,81,false,stim,false,1,595.0,1,0,1,90166,task1,1112416,false,false,970,image-keyboard-response,35
true,7,1,2,2,false,d,false,false,0.0-2.0-0.29-0.263-3.263,0,0,0,90,false,stim,true,1,643.9000000953674,1,0,1,90166,task1,1114574,false,false,973,image-keyboard-response,36
true,7,2,2,2,true,d,false,true,0.0-2.0-0.29-0.264-3.264,0,0,0,68,false,stim,false,1,305.40000009536743,1,0,1,90166,task1,1116394,false,false,976,image-keyboard-response,37
true,7,0,2,1,false,z,false,false,0.0-2.0-0.29-0.265-3.265,0,0,0,81,false,stim,true,0,707.8000001907349,1,0,0,90166,task1,1118612,false,false,979,image-keyboard-response,38
true,7,2,2,1,false,z,true,false,0.0-2.0-0.29-0.266-3.266,0,0,0,68,false,stim,false,0,1551.2000000476837,1,0,0,90166,task1,1121677,false,false,982,image-keyboard-response,39
true,7,1,2,1,true,z,false,false,0.0-2.0-0.29-0.267-3.267,0,0,0,90,false,stim,false,2,654.2000000476837,1,0,2,90166,task1,1123846,false,true,985,image-keyboard-response,40
true,7,0,2,1,false,z,true,false,0.0-2.0-0.29-0.268-3.268,0,0,0,81,false,stim,false,2,398.2999999523163,1,0,2,90166,task1,1125759,false,false,988,image-keyboard-response,41
true,8,2,2,2,true,d,false,true,0.0-2.0-0.29-0.269-3.269,0,0,0,68,true,stim,false,1,908.7999999523163,1,0,2,90166,task1,1128183,false,false,991,image-keyboard-response,1
true,8,1,2,2,false,d,false,false,0.0-2.0-0.30-0.270-3.270,0,0,0,90,false,stim,true,1,707.4000000953674,1,0,0,90166,task1,1130405,false,false,994,image-keyboard-response,2
true,8,2,2,2,true,d,false,true,0.0-2.0-0.30-0.271-3.271,0,0,0,68,false,stim,false,1,1106.9000000953674,1,0,2,90166,task1,1133027,false,false,997,image-keyboard-response,3
true,8,1,2,0,false,q,true,false,0.0-2.0-0.30-0.272-3.272,0,0,0,90,false,stim,false,2,882.8000001907349,1,0,1,90166,task1,1135421,false,false,1000,image-keyboard-response,4
true,8,0,2,2,false,d,true,false,0.0-2.0-0.30-0.273-3.273,0,0,0,81,false,stim,false,1,675.0,1,0,0,90166,task1,1137615,false,false,1003,image-keyboard-response,5
true,8,2,2,2,true,d,false,true,0.0-2.0-0.30-0.274-3.274,0,0,0,68,false,stim,false,1,459.0,1,0,0,90166,task1,1139589,false,false,1006,image-keyboard-response,6
true,8,2,2,0,false,q,false,false,0.0-2.0-0.30-0.275-3.275,0,0,0,68,false,stim,true,2,728.1000001430511,1,0,1,90166,task1,1141833,false,false,1009,image-keyboard-response,7
false,8,-1,2,2,false,d,true,false,0.0-2.0-0.30-0.276-3.276,0,0,0,,false,stim,false,1,,1,0,2,90166,task1,1146352,false,false,1012,image-keyboard-response,8
true,8,0,2,0,true,q,false,true,0.0-2.0-0.30-0.277-3.277,0,0,0,81,false,stim,false,2,1046.7000000476837,1,0,1,90166,task1,1148910,false,false,1015,image-keyboard-response,9
true,8,2,2,2,true,d,false,true,0.0-2.0-0.30-0.278-3.278,0,0,0,68,false,stim,false,1,903.5999999046326,1,0,2,90166,task1,1151329,false,false,1018,image-keyboard-response,10
true,8,0,2,2,false,d,true,true,0.0-2.0-0.31-0.279-3.279,0,0,0,81,false,stim,false,1,877.3000001907349,1,0,0,90166,task1,1153721,false,true,1021,image-keyboard-response,11
true,8,2,2,2,true,d,false,true,0.0-2.0-0.31-0.280-3.280,0,0,0,68,false,stim,false,1,1116.8000001907349,1,0,2,90166,task1,1156352,false,false,1024,image-keyboard-response,12
true,8,0,2,2,false,d,true,false,0.0-2.0-0.31-0.281-3.281,0,0,0,81,false,stim,false,1,1348.0,1,0,2,90166,task1,1159215,false,false,1027,image-keyboard-response,13
true,8,2,2,2,true,d,false,true,0.0-2.0-0.31-0.282-3.282,0,0,0,68,false,stim,false,1,862.4000000953674,1,0,0,90166,task1,1161591,false,false,1030,image-keyboard-response,14
true,8,2,2,2,true,d,false,true,0.0-2.0-0.31-0.283-3.283,0,0,0,68,false,stim,false,1,983.1000001430511,1,0,0,90166,task1,1164089,false,false,1033,image-keyboard-response,15
true,8,1,2,0,false,q,true,false,0.0-2.0-0.31-0.284-3.284,0,0,0,90,false,stim,false,2,2344.0,1,0,1,90166,task1,1167948,false,false,1036,image-keyboard-response,16
true,8,0,2,0,true,q,false,true,0.0-2.0-0.31-0.285-3.285,0,0,0,81,false,stim,false,2,551.1999998092651,1,0,1,90166,task1,1170012,false,false,1039,image-keyboard-response,17
true,8,0,2,0,true,q,false,false,0.0-2.0-0.31-0.286-3.286,0,0,0,81,false,stim,false,2,1984.0999999046326,1,0,1,90166,task1,1173511,false,true,1042,image-keyboard-response,18
true,8,2,2,2,true,d,false,true,0.0-2.0-0.31-0.287-3.287,0,0,0,68,false,stim,false,1,589.4000000953674,1,0,2,90166,task1,1175615,false,false,1045,image-keyboard-response,19
true,8,2,2,0,false,q,false,false,0.0-2.0-0.32-0.288-3.288,0,0,0,68,false,stim,true,2,1267.5,1,0,1,90166,task1,1178393,false,false,1048,image-keyboard-response,20
true,8,1,2,0,false,q,true,false,0.0-2.0-0.32-0.289-3.289,0,0,0,90,false,stim,false,2,1773.2999999523163,1,0,1,90166,task1,1181681,false,false,1051,image-keyboard-response,21
true,8,2,2,2,true,d,false,true,0.0-2.0-0.32-0.290-3.290,0,0,0,68,false,stim,false,1,1421.5,1,0,0,90166,task1,1184618,false,false,1054,image-keyboard-response,22
true,8,2,2,2,true,d,false,true,0.0-2.0-0.32-0.291-3.291,0,0,0,68,false,stim,false,1,2415.7999999523163,1,0,0,90166,task1,1188548,false,false,1057,image-keyboard-response,23
true,8,2,2,2,true,d,false,true,0.0-2.0-0.32-0.292-3.292,0,0,0,68,false,stim,false,1,815.5999999046326,1,0,2,90166,task1,1190880,false,false,1060,image-keyboard-response,24
true,8,2,2,2,true,d,false,true,0.0-2.0-0.32-0.293-3.293,0,0,0,68,false,stim,false,1,620.0,1,0,2,90166,task1,1193015,false,false,1063,image-keyboard-response,25
true,8,2,2,2,true,d,false,true,0.0-2.0-0.32-0.294-3.294,0,0,0,68,false,stim,false,1,676.0,1,0,0,90166,task1,1195205,false,false,1066,image-keyboard-response,26
true,8,2,2,0,false,q,false,false,0.0-2.0-0.32-0.295-3.295,0,0,0,68,false,stim,true,2,1699.7000000476837,1,0,1,90166,task1,1198417,false,false,1069,image-keyboard-response,27
true,8,0,2,2,false,d,true,false,0.0-2.0-0.32-0.296-3.296,0,0,0,81,false,stim,false,1,2518.600000143051,1,0,2,90166,task1,1202452,false,false,1072,image-keyboard-response,28
true,8,1,2,2,false,d,false,false,0.0-2.0-0.33-0.297-3.297,0,0,0,90,false,stim,true,1,1674.5,1,0,2,90166,task1,1205642,false,false,1075,image-keyboard-response,29
true,8,2,2,2,true,d,false,true,0.0-2.0-0.33-0.298-3.298,0,0,0,68,false,stim,false,1,680.9000000953674,1,0,0,90166,task1,1207834,false,false,1078,image-keyboard-response,30
true,8,2,2,0,false,q,false,false,0.0-2.0-0.33-0.299-3.299,0,0,0,68,false,stim,true,2,1478.0,1,0,1,90166,task1,1210826,false,false,1081,image-keyboard-response,31
true,8,0,2,0,true,q,false,false,0.0-2.0-0.33-0.300-3.300,0,0,0,81,false,stim,false,2,954.6000001430511,1,0,1,90166,task1,1213296,false,true,1084,image-keyboard-response,32
true,8,1,2,2,false,d,false,false,0.0-2.0-0.33-0.301-3.301,0,0,0,90,false,stim,true,1,875.8999998569489,1,0,0,90166,task1,1215682,false,false,1087,image-keyboard-response,33
true,8,2,2,2,true,d,false,true,0.0-2.0-0.33-0.302-3.302,0,0,0,68,false,stim,false,1,924.2999999523163,1,0,2,90166,task1,1218122,false,false,1090,image-keyboard-response,34
true,8,2,2,2,true,d,false,false,0.0-2.0-0.33-0.303-3.303,0,0,0,68,false,stim,false,1,1237.7000000476837,1,0,0,90166,task1,1220875,false,true,1093,image-keyboard-response,35
true,8,0,2,2,false,d,true,false,0.0-2.0-0.33-0.304-3.304,0,0,0,81,false,stim,false,1,638.0,1,0,2,90166,task1,1223027,false,false,1096,image-keyboard-response,36
true,8,1,2,0,false,q,true,false,0.0-2.0-0.33-0.305-3.305,0,0,0,90,false,stim,false,2,827.8999998569489,1,0,1,90166,task1,1225369,false,false,1099,image-keyboard-response,37
true,8,2,2,2,true,d,false,true,0.0-2.0-0.34-0.306-3.306,0,0,0,68,false,stim,false,1,505.59999990463257,1,0,0,90166,task1,1227395,false,false,1102,image-keyboard-response,38
true,8,2,2,2,true,d,false,true,0.0-2.0-0.34-0.307-3.307,0,0,0,68,false,stim,false,1,1549.2999999523163,1,0,0,90166,task1,1230456,false,false,1105,image-keyboard-response,39
true,8,2,2,0,false,q,false,false,0.0-2.0-0.34-0.308-3.308,0,0,0,68,false,stim,true,2,970.4000000953674,1,0,1,90166,task1,1232939,false,false,1108,image-keyboard-response,40
true,8,1,2,2,false,d,false,false,0.0-2.0-0.34-0.309-3.309,0,0,0,90,false,stim,true,1,1344.1999998092651,1,0,2,90166,task1,1235796,false,false,1111,image-keyboard-response,41
true,9,0,2,2,false,d,false,false,0.0-2.0-0.34-0.310-3.310,0,0,0,81,true,stim,true,0,704.6000001430511,1,0,1,90166,task1,1238010,false,false,1114,image-keyboard-response,1
true,9,2,2,1,false,z,false,false,0.0-2.0-0.34-0.311-3.311,0,0,0,68,false,stim,true,2,622.3999998569489,1,0,2,90166,task1,1240149,false,false,1117,image-keyboard-response,2
true,9,1,2,2,false,d,true,true,0.0-2.0-0.34-0.312-3.312,0,0,0,90,false,stim,false,0,657.9000000953674,1,0,1,90166,task1,1242321,false,true,1120,image-keyboard-response,3
true,9,0,2,1,false,z,true,false,0.0-2.0-0.34-0.313-3.313,0,0,0,81,false,stim,false,2,594.2000000476837,1,0,2,90166,task1,1244430,false,false,1123,image-keyboard-response,4
true,9,2,2,1,false,z,false,false,0.0-2.0-0.34-0.314-3.314,0,0,0,68,false,stim,true,2,512.5,1,0,0,90166,task1,1246456,false,false,1126,image-keyboard-response,5
true,9,1,2,1,true,z,false,true,0.0-2.0-0.35-0.315-3.315,0,0,0,90,false,stim,false,2,835.2000000476837,1,0,0,90166,task1,1248805,false,false,1129,image-keyboard-response,6
true,9,1,2,1,true,z,false,true,0.0-2.0-0.35-0.316-3.316,0,0,0,90,false,stim,false,2,563.5999999046326,1,0,2,90166,task1,1250883,false,false,1132,image-keyboard-response,7
true,9,1,2,2,false,d,true,false,0.0-2.0-0.35-0.317-3.317,0,0,0,90,false,stim,false,0,346.5,1,0,1,90166,task1,1252743,false,false,1135,image-keyboard-response,8
true,9,1,2,1,true,z,false,true,0.0-2.0-0.35-0.318-3.318,0,0,0,90,false,stim,false,2,480.89999985694885,1,0,0,90166,task1,1254731,false,false,1138,image-keyboard-response,9
true,9,1,2,1,true,z,false,true,0.0-2.0-0.35-0.319-3.319,0,0,0,90,false,stim,false,2,637.0,1,0,0,90166,task1,1256877,false,false,1141,image-keyboard-response,10
true,9,1,2,1,true,z,false,true,0.0-2.0-0.35-0.320-3.320,0,0,0,90,false,stim,false,2,519.9000000953674,1,0,2,90166,task1,1258909,false,false,1144,image-keyboard-response,11
true,9,1,2,1,true,z,false,true,0.0-2.0-0.35-0.321-3.321,0,0,0,90,false,stim,false,2,439.2999999523163,1,0,2,90166,task1,1260862,false,false,1147,image-keyboard-response,12
true,9,1,2,2,false,d,true,false,0.0-2.0-0.35-0.322-3.322,0,0,0,90,false,stim,false,0,491.90000009536743,1,0,1,90166,task1,1262869,false,false,1150,image-keyboard-response,13
true,9,0,2,2,false,d,false,false,0.0-2.0-0.35-0.323-3.323,0,0,0,81,false,stim,true,0,598.2999999523163,1,0,1,90166,task1,1264982,false,false,1153,image-keyboard-response,14
true,9,2,2,2,true,d,false,true,0.0-2.0-0.36-0.324-3.324,0,0,0,68,false,stim,false,0,472.0,1,0,1,90166,task1,1266968,false,false,1156,image-keyboard-response,15
true,9,1,2,1,true,z,false,true,0.0-2.0-0.36-0.325-3.325,0,0,0,90,false,stim,false,2,373.59999990463257,1,0,2,90166,task1,1268855,false,false,1159,image-keyboard-response,16
true,9,1,2,1,true,z,false,true,0.0-2.0-0.36-0.326-3.326,0,0,0,90,false,stim,false,2,639.5,1,0,0,90166,task1,1271010,false,false,1162,image-keyboard-response,17
true,9,1,2,1,true,z,false,true,0.0-2.0-0.36-0.327-3.327,0,0,0,90,false,stim,false,2,523.9000000953674,1,0,2,90166,task1,1273048,false,false,1165,image-keyboard-response,18
true,9,2,2,2,true,d,false,true,0.0-2.0-0.36-0.328-3.328,0,0,0,68,false,stim,false,0,370.30000019073486,1,0,1,90166,task1,1274932,false,false,1168,image-keyboard-response,19
true,9,1,2,1,true,z,false,true,0.0-2.0-0.36-0.329-3.329,0,0,0,90,false,stim,false,2,656.4000000953674,1,0,0,90166,task1,1277099,false,false,1171,image-keyboard-response,20
true,9,1,2,1,true,z,false,true,0.0-2.0-0.36-0.330-3.330,0,0,0,90,false,stim,false,2,488.2000000476837,1,0,0,90166,task1,1279101,false,false,1174,image-keyboard-response,21
true,9,1,2,1,true,z,false,true,0.0-2.0-0.36-0.331-3.331,0,0,0,90,false,stim,false,2,859.3999998569489,1,0,2,90166,task1,1281476,false,false,1177,image-keyboard-response,22
true,9,2,2,2,true,d,false,true,0.0-2.0-0.36-0.332-3.332,0,0,0,68,false,stim,false,0,361.80000019073486,1,0,1,90166,task1,1283351,false,false,1180,image-keyboard-response,23
true,9,1,2,1,true,z,false,true,0.0-2.0-0.37-0.333-3.333,0,0,0,90,false,stim,false,2,592.2000000476837,1,0,2,90166,task1,1285460,false,false,1183,image-keyboard-response,24
true,9,1,2,1,true,z,false,true,0.0-2.0-0.37-0.334-3.334,0,0,0,90,false,stim,false,2,450.7000000476837,1,0,0,90166,task1,1287423,false,false,1186,image-keyboard-response,25
true,9,1,2,1,true,z,false,true,0.0-2.0-0.37-0.335-3.335,0,0,0,90,false,stim,false,2,618.6000001430511,1,0,2,90166,task1,1289550,false,false,1189,image-keyboard-response,26
true,9,1,2,1,true,z,false,true,0.0-2.0-0.37-0.336-3.336,0,0,0,90,false,stim,false,2,638.7000000476837,1,0,0,90166,task1,1291703,false,false,1192,image-keyboard-response,27
true,9,1,2,1,true,z,false,true,0.0-2.0-0.37-0.337-3.337,0,0,0,90,false,stim,false,2,428.5,1,0,0,90166,task1,1293646,false,false,1195,image-keyboard-response,28
true,9,1,2,2,false,d,true,false,0.0-2.0-0.37-0.338-3.338,0,0,0,90,false,stim,false,0,413.2999999523163,1,0,1,90166,task1,1295574,false,false,1198,image-keyboard-response,29
true,9,2,2,2,true,d,false,true,0.0-2.0-0.37-0.339-3.339,0,0,0,68,false,stim,false,0,448.7999999523163,1,0,1,90166,task1,1297539,false,false,1201,image-keyboard-response,30
true,9,2,2,2,true,d,false,true,0.0-2.0-0.37-0.340-3.340,0,0,0,68,false,stim,false,0,546.7999999523163,1,0,1,90166,task1,1299601,false,false,1204,image-keyboard-response,31
true,9,1,2,1,true,z,false,true,0.0-2.0-0.37-0.341-3.341,0,0,0,90,false,stim,false,2,536.4000000953674,1,0,2,90166,task1,1301652,false,false,1207,image-keyboard-response,32
true,9,2,2,2,true,d,false,true,0.0-2.0-0.38-0.342-3.342,0,0,0,68,false,stim,false,0,875.2999999523163,1,0,1,90166,task1,1304039,false,false,1210,image-keyboard-response,33
true,9,1,2,1,true,z,false,true,0.0-2.0-0.38-0.343-3.343,0,0,0,90,false,stim,false,2,484.39999985694885,1,0,2,90166,task1,1306038,false,false,1213,image-keyboard-response,34
true,9,1,2,1,true,z,false,false,0.0-2.0-0.38-0.344-3.344,0,0,0,90,false,stim,false,2,531.4000000953674,1,0,0,90166,task1,1308086,false,true,1216,image-keyboard-response,35
true,9,1,2,1,true,z,false,false,0.0-2.0-0.38-0.345-3.345,0,0,0,90,false,stim,false,2,502.2000000476837,1,0,2,90166,task1,1310102,false,true,1219,image-keyboard-response,36
true,9,2,2,2,true,d,false,true,0.0-2.0-0.38-0.346-3.346,0,0,0,68,false,stim,false,0,649.2999999523163,1,0,1,90166,task1,1312265,false,false,1222,image-keyboard-response,37
true,9,0,2,1,false,z,true,false,0.0-2.0-0.38-0.347-3.347,0,0,0,81,false,stim,false,2,437.40000009536743,1,0,0,90166,task1,1314215,false,false,1225,image-keyboard-response,38
true,9,2,2,2,true,d,false,true,0.0-2.0-0.38-0.348-3.348,0,0,0,68,false,stim,false,0,640.4000000953674,1,0,1,90166,task1,1316368,false,false,1228,image-keyboard-response,39
true,9,2,2,1,false,z,false,false,0.0-2.0-0.38-0.349-3.349,0,0,0,68,false,stim,true,2,356.30000019073486,1,0,2,90166,task1,1318238,false,false,1231,image-keyboard-response,40
true,10,2,2,2,true,d,false,true,0.0-2.0-0.38-0.350-3.350,0,0,0,68,true,stim,false,1,381.59999990463257,1,0,0,90166,task1,1320135,false,false,1234,image-keyboard-response,1
true,10,0,2,2,false,d,true,false,0.0-2.0-0.39-0.351-3.351,0,0,0,81,false,stim,false,1,540.7999999523163,1,0,2,90166,task1,1322192,false,false,1237,image-keyboard-response,2
true,10,1,2,2,false,d,false,true,0.0-2.0-0.39-0.352-3.352,0,0,0,90,false,stim,true,1,464.40000009536743,1,0,2,90166,task1,1324170,false,true,1240,image-keyboard-response,3
true,10,1,2,2,false,d,false,false,0.0-2.0-0.39-0.353-3.353,0,0,0,90,false,stim,true,1,523.0999999046326,1,0,2,90166,task1,1326206,false,false,1243,image-keyboard-response,4
true,10,0,2,2,false,d,true,false,0.0-2.0-0.39-0.354-3.354,0,0,0,81,false,stim,false,1,751.5,1,0,0,90166,task1,1328471,false,false,1246,image-keyboard-response,5
true,10,2,2,0,false,q,false,false,0.0-2.0-0.39-0.355-3.355,0,0,0,68,false,stim,true,2,684.2999999523163,1,0,1,90166,task1,1330669,false,false,1249,image-keyboard-response,6
true,10,1,2,0,false,q,true,false,0.0-2.0-0.39-0.356-3.356,0,0,0,90,false,stim,false,2,604.1000001430511,1,0,1,90166,task1,1332787,false,false,1252,image-keyboard-response,7
true,10,0,2,2,false,d,true,false,0.0-2.0-0.39-0.357-3.357,0,0,0,81,false,stim,false,1,797.0,1,0,0,90166,task1,1335095,false,false,1255,image-keyboard-response,8
true,10,2,2,0,false,q,false,false,0.0-2.0-0.39-0.358-3.358,0,0,0,68,false,stim,true,2,613.6999998092651,1,0,1,90166,task1,1337222,false,false,1258,image-keyboard-response,9
true,10,2,2,2,true,d,false,true,0.0-2.0-0.39-0.359-3.359,0,0,0,68,false,stim,false,1,644.7999999523163,1,0,0,90166,task1,1339381,false,false,1261,image-keyboard-response,10
true,10,1,2,2,false,d,false,false,0.0-2.0-0.40-0.360-3.360,0,0,0,90,false,stim,true,1,524.1000001430511,1,0,2,90166,task1,1341417,false,false,1264,image-keyboard-response,11
true,10,2,2,0,false,q,false,false,0.0-2.0-0.40-0.361-3.361,0,0,0,68,false,stim,true,2,503.2999999523163,1,0,1,90166,task1,1343435,false,false,1267,image-keyboard-response,12
true,10,2,2,2,true,d,false,true,0.0-2.0-0.40-0.362-3.362,0,0,0,68,false,stim,false,1,483.2999999523163,1,0,2,90166,task1,1345427,false,false,1270,image-keyboard-response,13
true,10,0,2,2,false,d,true,false,0.0-2.0-0.40-0.363-3.363,0,0,0,81,false,stim,false,1,613.5,1,0,0,90166,task1,1347555,false,false,1273,image-keyboard-response,14
true,10,2,2,2,true,d,false,true,0.0-2.0-0.40-0.364-3.364,0,0,0,68,false,stim,false,1,405.0,1,0,0,90166,task1,1349476,false,false,1276,image-keyboard-response,15
true,10,1,2,0,false,q,true,true,0.0-2.0-0.40-0.365-3.365,0,0,0,90,false,stim,false,2,1237.7000000476837,1,0,1,90166,task1,1352229,false,true,1279,image-keyboard-response,16
true,10,2,2,2,true,d,false,false,0.0-2.0-0.40-0.366-3.366,0,0,0,68,false,stim,false,1,1201.4000000953674,1,0,0,90166,task1,1354945,false,true,1282,image-keyboard-response,17
true,10,1,2,0,false,q,true,true,0.0-2.0-0.40-0.367-3.367,0,0,0,90,false,stim,false,2,746.9000000953674,1,0,1,90166,task1,1357203,false,true,1285,image-keyboard-response,18
true,10,2,2,2,true,d,false,true,0.0-2.0-0.40-0.368-3.368,0,0,0,68,false,stim,false,1,893.5999999046326,1,0,2,90166,task1,1359610,false,false,1288,image-keyboard-response,19
true,10,1,2,2,false,d,false,false,0.0-2.0-0.41-0.369-3.369,0,0,0,90,false,stim,true,1,767.5,1,0,0,90166,task1,1361891,false,false,1291,image-keyboard-response,20
true,10,2,2,2,true,d,false,true,0.0-2.0-0.41-0.370-3.370,0,0,0,68,false,stim,false,1,449.59999990463257,1,0,0,90166,task1,1363853,false,false,1294,image-keyboard-response,21
true,10,2,2,2,true,d,false,true,0.0-2.0-0.41-0.371-3.371,0,0,0,68,false,stim,false,1,400.7000000476837,1,0,2,90166,task1,1365770,false,false,1297,image-keyboard-response,22
true,10,2,2,2,true,d,false,true,0.0-2.0-0.41-0.372-3.372,0,0,0,68,false,stim,false,1,436.10000014305115,1,0,2,90166,task1,1367721,false,false,1300,image-keyboard-response,23
true,10,2,2,0,false,q,false,false,0.0-2.0-0.41-0.373-3.373,0,0,0,68,false,stim,true,2,571.0999999046326,1,0,1,90166,task1,1369813,false,false,1303,image-keyboard-response,24
true,10,1,2,0,false,q,true,false,0.0-2.0-0.41-0.374-3.374,0,0,0,90,false,stim,false,2,841.4000000953674,1,0,1,90166,task1,1372169,false,false,1306,image-keyboard-response,25
true,10,0,2,0,true,q,false,true,0.0-2.0-0.41-0.375-3.375,0,0,0,81,false,stim,false,2,602.5,1,0,1,90166,task1,1374281,false,false,1309,image-keyboard-response,26
true,10,2,2,2,true,d,false,true,0.0-2.0-0.41-0.376-3.376,0,0,0,68,false,stim,false,1,569.0,1,0,0,90166,task1,1376364,false,false,1312,image-keyboard-response,27
true,10,1,2,2,false,d,false,false,0.0-2.0-0.41-0.377-3.377,0,0,0,90,false,stim,true,1,848.3999998569489,1,0,2,90166,task1,1378728,false,false,1315,image-keyboard-response,28
true,10,2,2,0,false,q,false,true,0.0-2.0-0.42-0.378-3.378,0,0,0,68,false,stim,true,2,846.3999998569489,1,0,1,90166,task1,1381088,false,true,1318,image-keyboard-response,29
true,10,0,2,2,false,d,true,false,0.0-2.0-0.42-0.379-3.379,0,0,0,81,false,stim,false,1,801.9000000953674,1,0,0,90166,task1,1383404,false,false,1321,image-keyboard-response,30
true,10,2,2,2,true,d,false,true,0.0-2.0-0.42-0.380-3.380,0,0,0,68,false,stim,false,1,565.2000000476837,1,0,0,90166,task1,1385484,false,false,1324,image-keyboard-response,31
true,10,1,2,2,false,d,false,false,0.0-2.0-0.42-0.381-3.381,0,0,0,90,false,stim,true,1,2098.0999999046326,1,0,2,90166,task1,1389097,false,false,1327,image-keyboard-response,32
true,10,2,2,0,false,q,false,false,0.0-2.0-0.42-0.382-3.382,0,0,0,68,false,stim,true,2,872.5999999046326,1,0,1,90166,task1,1391483,false,false,1330,image-keyboard-response,33
true,10,0,2,2,false,d,true,false,0.0-2.0-0.42-0.383-3.383,0,0,0,81,false,stim,false,1,1396.2999999523163,1,0,2,90166,task1,1394391,false,false,1333,image-keyboard-response,34
true,10,2,2,2,true,d,false,true,0.0-2.0-0.42-0.384-3.384,0,0,0,68,false,stim,false,1,1215.4000000953674,1,0,2,90166,task1,1397121,false,false,1336,image-keyboard-response,35
true,10,2,2,0,false,q,false,true,0.0-2.0-0.42-0.385-3.385,0,0,0,68,false,stim,true,2,665.5,1,0,1,90166,task1,1399299,false,true,1339,image-keyboard-response,36
true,10,1,2,2,false,d,false,false,0.0-2.0-0.42-0.386-3.386,0,0,0,90,false,stim,true,1,631.0999999046326,1,0,0,90166,task1,1401445,false,false,1342,image-keyboard-response,37
true,10,2,2,0,false,q,false,false,0.0-2.0-0.43-0.387-3.387,0,0,0,68,false,stim,true,2,624.0999999046326,1,0,1,90166,task1,1403583,false,false,1345,image-keyboard-response,38
true,10,2,2,2,true,d,false,true,0.0-2.0-0.43-0.388-3.388,0,0,0,68,false,stim,false,1,1229.7999999523163,1,0,2,90166,task1,1406326,false,false,1348,image-keyboard-response,39
true,10,2,2,2,true,d,false,true,0.0-2.0-0.43-0.389-3.389,0,0,0,68,false,stim,false,1,736.7000000476837,1,0,0,90166,task1,1408576,false,false,1351,image-keyboard-response,40
true,10,2,2,0,false,q,false,false,0.0-2.0-0.43-0.390-3.390,0,0,0,68,false,stim,true,2,580.9000000953674,1,0,1,90166,task1,1410671,false,false,1354,image-keyboard-response,41
true,10,1,2,2,false,d,false,false,0.0-2.0-0.43-0.391-3.391,0,0,0,90,false,stim,true,1,478.0,1,0,0,90166,task1,1412663,false,false,1357,image-keyboard-response,42
true,11,0,1,1,false,z,false,false,0.0-2.0-0.43-0.392-3.392,0,0,0,81,true,stim,true,0,271.0,1,0,1,90166,task1,1414450,false,false,1360,image-keyboard-response,1
true,11,2,1,1,false,z,false,false,0.0-2.0-0.43-0.393-3.393,0,0,0,68,false,stim,true,2,860.0999999046326,1,0,0,90166,task1,1416826,false,false,1363,image-keyboard-response,2
true,11,1,1,0,false,q,true,false,0.0-2.0-0.43-0.394-3.394,0,0,0,90,false,stim,false,2,408.0,1,0,2,90166,task1,1418748,false,false,1366,image-keyboard-response,3
true,11,1,1,0,false,q,true,false,0.0-2.0-0.43-0.395-3.395,0,0,0,90,false,stim,false,2,1314.3999998569489,1,0,2,90166,task1,1421577,false,false,1369,image-keyboard-response,4
true,11,0,1,1,false,z,false,true,0.0-2.0-0.44-0.396-3.396,0,0,0,81,false,stim,true,0,439.7000000476837,1,0,1,90166,task1,1423528,false,true,1372,image-keyboard-response,5
true,11,0,1,1,false,z,true,false,0.0-2.0-0.44-0.397-3.397,0,0,0,81,false,stim,false,2,319.30000019073486,1,0,0,90166,task1,1425361,false,false,1375,image-keyboard-response,6
true,11,2,1,1,false,z,false,false,0.0-2.0-0.44-0.398-3.398,0,0,0,68,false,stim,true,2,563.0,1,0,0,90166,task1,1427440,false,false,1378,image-keyboard-response,7
true,11,0,1,0,true,q,false,true,0.0-2.0-0.44-0.399-3.399,0,0,0,81,false,stim,false,2,757.8999998569489,1,0,2,90166,task1,1429713,false,false,1381,image-keyboard-response,8
true,11,0,1,0,true,q,false,true,0.0-2.0-0.44-0.400-3.400,0,0,0,81,false,stim,false,2,774.4000000953674,1,0,2,90166,task1,1432002,false,false,1384,image-keyboard-response,9
true,11,0,1,1,false,z,false,false,0.0-2.0-0.44-0.401-3.401,0,0,0,81,false,stim,true,0,388.90000009536743,1,0,1,90166,task1,1433905,false,false,1387,image-keyboard-response,10
true,11,1,1,1,true,z,false,false,0.0-2.0-0.44-0.402-3.402,0,0,0,90,false,stim,false,2,728.7000000476837,1,0,0,90166,task1,1436150,false,true,1390,image-keyboard-response,11
true,11,2,1,1,false,z,true,false,0.0-2.0-0.44-0.403-3.403,0,0,0,68,false,stim,false,0,518.7000000476837,1,0,1,90166,task1,1438180,false,false,1393,image-keyboard-response,12
true,11,1,1,0,false,q,true,false,0.0-2.0-0.44-0.404-3.404,0,0,0,90,false,stim,false,2,660.5,1,0,2,90166,task1,1440355,false,false,1396,image-keyboard-response,13
true,11,0,1,0,true,q,false,true,0.0-2.0-0.45-0.405-3.405,0,0,0,81,false,stim,false,2,815.3000001907349,1,0,2,90166,task1,1442685,false,false,1399,image-keyboard-response,14
true,11,2,1,1,false,z,false,false,0.0-2.0-0.45-0.406-3.406,0,0,0,68,false,stim,true,2,665.2000000476837,1,0,0,90166,task1,1444873,false,false,1402,image-keyboard-response,15
true,11,1,1,1,true,z,false,true,0.0-2.0-0.45-0.407-3.407,0,0,0,90,false,stim,false,2,903.3999998569489,1,0,0,90166,task1,1447291,false,false,1405,image-keyboard-response,16
true,11,0,1,1,false,z,true,false,0.0-2.0-0.45-0.408-3.408,0,0,0,81,false,stim,false,2,1377.8000001907349,1,0,0,90166,task1,1450182,false,false,1408,image-keyboard-response,17
true,11,2,1,0,false,q,false,false,0.0-2.0-0.45-0.409-3.409,0,0,0,68,false,stim,true,2,565.8000001907349,1,0,2,90166,task1,1452259,false,false,1411,image-keyboard-response,18
true,11,1,1,1,true,z,false,true,0.0-2.0-0.45-0.410-3.410,0,0,0,90,false,stim,false,0,466.39999985694885,1,0,1,90166,task1,1454237,false,false,1414,image-keyboard-response,19
true,11,0,1,0,true,q,false,true,0.0-2.0-0.45-0.411-3.411,0,0,0,81,false,stim,false,2,661.7999999523163,1,0,2,90166,task1,1456413,false,false,1417,image-keyboard-response,20
true,11,1,1,1,true,z,false,true,0.0-2.0-0.45-0.412-3.412,0,0,0,90,false,stim,false,0,442.5,1,0,1,90166,task1,1458370,false,false,1420,image-keyboard-response,21
true,11,1,1,1,true,z,false,true,0.0-2.0-0.45-0.413-3.413,0,0,0,90,false,stim,false,0,563.0,1,0,1,90166,task1,1460449,false,false,1423,image-keyboard-response,22
true,11,1,1,1,true,z,false,true,0.0-2.0-0.46-0.414-3.414,0,0,0,90,false,stim,false,0,449.7000000476837,1,0,1,90166,task1,1462413,false,false,1426,image-keyboard-response,23
true,11,0,1,0,true,q,false,true,0.0-2.0-0.46-0.415-3.415,0,0,0,81,false,stim,false,2,585.6999998092651,1,0,2,90166,task1,1464512,false,false,1429,image-keyboard-response,24
true,11,0,1,0,true,q,false,true,0.0-2.0-0.46-0.416-3.416,0,0,0,81,false,stim,false,2,482.0,1,0,2,90166,task1,1466508,false,false,1432,image-keyboard-response,25
true,11,2,1,1,false,z,false,false,0.0-2.0-0.46-0.417-3.417,0,0,0,68,false,stim,true,2,745.5,1,0,0,90166,task1,1468766,false,false,1435,image-keyboard-response,26
true,11,0,1,0,true,q,false,true,0.0-2.0-0.46-0.418-3.418,0,0,0,81,false,stim,false,2,510.0,1,0,2,90166,task1,1470791,false,false,1438,image-keyboard-response,27
true,11,0,1,1,false,z,false,false,0.0-2.0-0.46-0.419-3.419,0,0,0,81,false,stim,true,0,779.9000000953674,1,0,1,90166,task1,1473086,false,false,1441,image-keyboard-response,28
true,11,1,1,1,true,z,false,true,0.0-2.0-0.46-0.420-3.420,0,0,0,90,false,stim,false,2,838.7999999523163,1,0,0,90166,task1,1475435,false,false,1444,image-keyboard-response,29
true,11,0,1,1,false,z,false,false,0.0-2.0-0.46-0.421-3.421,0,0,0,81,false,stim,true,0,1008.0999999046326,1,0,1,90166,task1,1477953,false,false,1447,image-keyboard-response,30
true,11,1,1,1,true,z,false,true,0.0-2.0-0.46-0.422-3.422,0,0,0,90,false,stim,false,2,381.5,1,0,0,90166,task1,1479850,false,false,1450,image-keyboard-response,31
true,11,0,1,0,true,q,false,true,0.0-2.0-0.47-0.423-3.423,0,0,0,81,false,stim,false,2,600.6999998092651,1,0,2,90166,task1,1481966,false,false,1453,image-keyboard-response,32
true,11,1,1,1,true,z,false,true,0.0-2.0-0.47-0.424-3.424,0,0,0,90,false,stim,false,2,504.10000014305115,1,0,0,90166,task1,1483982,false,false,1456,image-keyboard-response,33
true,11,0,1,0,true,q,false,true,0.0-2.0-0.47-0.425-3.425,0,0,0,81,false,stim,false,2,569.7000000476837,1,0,2,90166,task1,1486067,false,false,1459,image-keyboard-response,34
true,11,1,1,1,true,z,false,true,0.0-2.0-0.47-0.426-3.426,0,0,0,90,false,stim,false,0,569.2999999523163,1,0,1,90166,task1,1488149,false,false,1462,image-keyboard-response,35
true,11,2,1,1,false,z,false,false,0.0-2.0-0.47-0.427-3.427,0,0,0,68,false,stim,true,2,1108.0,1,0,0,90166,task1,1490772,false,false,1465,image-keyboard-response,36
true,11,1,1,1,true,z,false,true,0.0-2.0-0.47-0.428-3.428,0,0,0,90,false,stim,false,0,635.5999999046326,1,0,1,90166,task1,1492922,false,false,1468,image-keyboard-response,37
true,11,0,1,0,true,q,false,true,0.0-2.0-0.47-0.429-3.429,0,0,0,81,false,stim,false,2,356.7000000476837,1,0,2,90166,task1,1494796,false,false,1471,image-keyboard-response,38
true,11,1,1,1,true,z,false,true,0.0-2.0-0.47-0.430-3.430,0,0,0,90,false,stim,false,2,724.5999999046326,1,0,0,90166,task1,1497035,false,false,1474,image-keyboard-response,39
true,12,1,2,0,false,q,false,false,0.0-2.0-0.47-0.431-3.431,0,0,0,90,true,stim,true,1,522.5,1,0,1,90166,task1,1499072,false,false,1477,image-keyboard-response,1
true,12,1,2,0,false,q,false,false,0.0-2.0-0.48-0.432-3.432,0,0,0,90,false,stim,true,1,575.0999999046326,1,0,1,90166,task1,1501163,false,false,1480,image-keyboard-response,2
true,12,1,2,2,false,d,false,false,0.0-2.0-0.48-0.433-3.433,0,0,0,90,false,stim,true,1,710.5,1,0,0,90166,task1,1503388,false,false,1483,image-keyboard-response,3
true,12,2,2,0,false,q,true,false,0.0-2.0-0.48-0.434-3.434,0,0,0,68,false,stim,false,1,756.3999998569489,1,0,1,90166,task1,1505654,false,false,1486,image-keyboard-response,4
true,12,0,2,2,false,d,false,false,0.0-2.0-0.48-0.435-3.435,0,0,0,81,false,stim,true,0,556.5999999046326,1,0,2,90166,task1,1507726,false,false,1489,image-keyboard-response,5
true,12,1,2,2,false,d,true,false,0.0-2.0-0.48-0.436-3.436,0,0,0,90,false,stim,false,0,750.2999999523163,1,0,2,90166,task1,1509990,false,false,1492,image-keyboard-response,6
true,12,0,2,2,false,d,true,false,0.0-2.0-0.48-0.437-3.437,0,0,0,81,false,stim,false,1,867.7000000476837,1,0,0,90166,task1,1512373,false,false,1495,image-keyboard-response,7
true,12,2,2,0,false,q,true,false,0.0-2.0-0.48-0.438-3.438,0,0,0,68,false,stim,false,1,460.7000000476837,1,0,1,90166,task1,1514348,false,false,1498,image-keyboard-response,8
true,12,2,2,2,true,d,false,true,0.0-2.0-0.48-0.439-3.439,0,0,0,68,false,stim,false,1,455.40000009536743,1,0,0,90166,task1,1516322,false,false,1501,image-keyboard-response,9
true,12,1,2,2,false,d,true,false,0.0-2.0-0.48-0.440-3.440,0,0,0,90,false,stim,false,0,616.2999999523163,1,0,2,90166,task1,1518450,false,false,1504,image-keyboard-response,10
true,12,1,2,2,false,d,true,false,0.0-2.0-0.49-0.441-3.441,0,0,0,90,false,stim,false,0,394.69999980926514,1,0,2,90166,task1,1520360,false,false,1507,image-keyboard-response,11
true,12,2,2,2,true,d,false,true,0.0-2.0-0.49-0.442-3.442,0,0,0,68,false,stim,false,0,351.59999990463257,1,0,2,90166,task1,1522228,false,false,1510,image-keyboard-response,12
true,12,2,2,2,true,d,false,true,0.0-2.0-0.49-0.443-3.443,0,0,0,68,false,stim,false,1,340.7000000476837,1,0,0,90166,task1,1524077,false,false,1513,image-keyboard-response,13
true,12,2,2,0,false,q,true,false,0.0-2.0-0.49-0.444-3.444,0,0,0,68,false,stim,false,1,371.7000000476837,1,0,1,90166,task1,1525965,false,false,1516,image-keyboard-response,14
true,12,0,2,0,true,q,false,true,0.0-2.0-0.49-0.445-3.445,0,0,0,81,false,stim,false,1,616.2999999523163,1,0,1,90166,task1,1528097,false,false,1519,image-keyboard-response,15
true,12,2,2,2,true,d,false,true,0.0-2.0-0.49-0.446-3.446,0,0,0,68,false,stim,false,1,716.2999999523163,1,0,0,90166,task1,1530326,false,false,1522,image-keyboard-response,16
true,12,2,2,2,true,d,false,true,0.0-2.0-0.49-0.447-3.447,0,0,0,68,false,stim,false,1,459.60000014305115,1,0,0,90166,task1,1532301,false,false,1525,image-keyboard-response,17
true,12,2,2,2,true,d,false,true,0.0-2.0-0.49-0.448-3.448,0,0,0,68,false,stim,false,0,801.3999998569489,1,0,2,90166,task1,1534618,false,false,1528,image-keyboard-response,18
true,12,2,2,0,false,q,true,false,0.0-2.0-0.49-0.449-3.449,0,0,0,68,false,stim,false,1,482.89999985694885,1,0,1,90166,task1,1536617,false,false,1531,image-keyboard-response,19
true,12,0,2,2,false,d,true,false,0.0-2.0-0.50-0.450-3.450,0,0,0,81,false,stim,false,1,408.90000009536743,1,0,0,90166,task1,1538543,false,false,1534,image-keyboard-response,20
true,12,2,2,0,false,q,true,false,0.0-2.0-0.50-0.451-3.451,0,0,0,68,false,stim,false,1,891.0,1,0,1,90166,task1,1540950,false,false,1537,image-keyboard-response,21
true,12,1,2,2,false,d,true,true,0.0-2.0-0.50-0.452-3.452,0,0,0,90,false,stim,false,0,442.7999999523163,1,0,2,90166,task1,1542908,false,true,1540,image-keyboard-response,22
true,12,1,2,2,false,d,true,false,0.0-2.0-0.50-0.453-3.453,0,0,0,90,false,stim,false,0,404.40000009536743,1,0,2,90166,task1,1544828,false,false,1543,image-keyboard-response,23
true,12,0,2,2,false,d,true,false,0.0-2.0-0.50-0.454-3.454,0,0,0,81,false,stim,false,1,375.0,1,0,0,90166,task1,1546717,false,false,1546,image-keyboard-response,24
true,12,2,2,0,false,q,true,false,0.0-2.0-0.50-0.455-3.455,0,0,0,68,false,stim,false,1,371.2000000476837,1,0,1,90166,task1,1548604,false,false,1549,image-keyboard-response,25
true,12,0,2,2,false,d,false,false,0.0-2.0-0.50-0.456-3.456,0,0,0,81,false,stim,true,0,548.5,1,0,2,90166,task1,1550669,false,false,1552,image-keyboard-response,26
true,12,1,2,0,false,q,false,false,0.0-2.0-0.50-0.457-3.457,0,0,0,90,false,stim,true,1,537.7000000476837,1,0,1,90166,task1,1552722,false,false,1555,image-keyboard-response,27
true,12,2,2,2,true,d,false,true,0.0-2.0-0.50-0.458-3.458,0,0,0,68,false,stim,false,1,844.0,1,0,0,90166,task1,1555079,false,false,1558,image-keyboard-response,28
true,12,2,2,0,false,q,true,false,0.0-2.0-0.51-0.459-3.459,0,0,0,68,false,stim,false,1,446.10000014305115,1,0,1,90166,task1,1557041,false,false,1561,image-keyboard-response,29
true,12,1,2,2,false,d,true,false,0.0-2.0-0.51-0.460-3.460,0,0,0,90,false,stim,false,0,685.7999999523163,1,0,2,90166,task1,1559243,false,false,1564,image-keyboard-response,30
true,12,0,2,2,false,d,false,false,0.0-2.0-0.51-0.461-3.461,0,0,0,81,false,stim,true,0,543.5999999046326,1,0,2,90166,task1,1561302,false,false,1567,image-keyboard-response,31
true,12,2,2,2,true,d,false,true,0.0-2.0-0.51-0.462-3.462,0,0,0,68,false,stim,false,1,518.4000000953674,1,0,0,90166,task1,1563335,false,false,1570,image-keyboard-response,32
true,12,2,2,2,true,d,false,true,0.0-2.0-0.51-0.463-3.463,0,0,0,68,false,stim,false,1,546.9000000953674,1,0,0,90166,task1,1565397,false,false,1573,image-keyboard-response,33
true,12,1,2,0,false,q,false,false,0.0-2.0-0.51-0.464-3.464,0,0,0,90,false,stim,true,1,667.2000000476837,1,0,1,90166,task1,1567579,false,false,1576,image-keyboard-response,34
true,12,0,2,0,true,q,false,true,0.0-2.0-0.51-0.465-3.465,0,0,0,81,false,stim,false,1,585.0999999046326,1,0,1,90166,task1,1569674,false,false,1579,image-keyboard-response,35
true,12,0,2,2,false,d,true,false,0.0-2.0-0.51-0.466-3.466,0,0,0,81,false,stim,false,1,742.1000001430511,1,0,0,90166,task1,1571931,false,false,1582,image-keyboard-response,36
true,12,2,2,2,true,d,false,true,0.0-2.0-0.51-0.467-3.467,0,0,0,68,false,stim,false,0,341.2999999523163,1,0,2,90166,task1,1573788,false,false,1585,image-keyboard-response,37
true,12,2,2,2,true,d,false,true,0.0-2.0-0.52-0.468-3.468,0,0,0,68,false,stim,false,0,697.3999998569489,1,0,2,90166,task1,1575997,false,false,1588,image-keyboard-response,38
true,12,2,2,2,true,d,false,true,0.0-2.0-0.52-0.469-3.469,0,0,0,68,false,stim,false,1,455.7999999523163,1,0,0,90166,task1,1577968,false,false,1591,image-keyboard-response,39
true,12,1,2,0,false,q,false,true,0.0-2.0-0.52-0.470-3.470,0,0,0,90,false,stim,true,1,563.1000001430511,1,0,1,90166,task1,1580042,false,true,1594,image-keyboard-response,40
true,12,1,2,2,false,d,true,false,0.0-2.0-0.52-0.471-3.471,0,0,0,90,false,stim,false,0,511.39999985694885,1,0,2,90166,task1,1582068,false,false,1597,image-keyboard-response,41
true,12,2,2,0,false,q,true,false,0.0-2.0-0.52-0.472-3.472,0,0,0,68,false,stim,false,1,1027.7999999523163,1,0,1,90166,task1,1584611,false,false,1600,image-keyboard-response,42
true,12,1,2,2,false,d,false,false,0.0-2.0-0.52-0.473-3.473,0,0,0,90,false,stim,true,1,1966.0999999046326,1,0,0,90166,task1,1588101,false,false,1603,image-keyboard-response,43
true,12,0,2,2,false,d,true,true,0.0-2.0-0.52-0.474-3.474,0,0,0,81,false,stim,false,1,671.2999999523163,1,0,0,90166,task1,1590288,false,true,1606,image-keyboard-response,44
true,13,0,2,2,false,d,false,false,0.0-2.0-0.52-0.475-3.475,0,0,0,81,true,stim,true,0,393.90000009536743,1,0,1,90166,task1,1592197,false,false,1609,image-keyboard-response,1
true,13,2,2,1,false,z,false,false,0.0-2.0-0.52-0.476-3.476,0,0,0,68,false,stim,true,2,485.2999999523163,1,0,2,90166,task1,1594195,false,false,1612,image-keyboard-response,2
true,13,1,2,1,true,z,false,true,0.0-2.0-0.53-0.477-3.477,0,0,0,90,false,stim,false,2,178.5,1,0,0,90166,task1,1595886,false,false,1615,image-keyboard-response,3
true,13,1,2,2,false,d,true,false,0.0-2.0-0.53-0.478-3.478,0,0,0,90,false,stim,false,0,463.39999985694885,1,0,1,90166,task1,1597867,false,false,1618,image-keyboard-response,4
true,13,2,2,1,false,z,false,false,0.0-2.0-0.53-0.479-3.479,0,0,0,68,false,stim,true,2,1088.7999999523163,1,0,2,90166,task1,1600472,false,false,1621,image-keyboard-response,5
true,13,0,2,2,false,d,false,false,0.0-2.0-0.53-0.480-3.480,0,0,0,81,false,stim,true,0,2314.5999999046326,1,0,1,90166,task1,1604301,false,false,1624,image-keyboard-response,6
true,13,0,2,2,false,d,false,false,0.0-2.0-0.53-0.481-3.481,0,0,0,81,false,stim,true,0,317.59999990463257,1,0,1,90166,task1,1606136,false,false,1627,image-keyboard-response,7
true,13,1,2,1,true,z,false,false,0.0-2.0-0.53-0.482-3.482,0,0,0,90,false,stim,false,2,278.0,1,0,2,90166,task1,1607930,false,true,1630,image-keyboard-response,8
true,13,2,2,1,false,z,false,false,0.0-2.0-0.53-0.483-3.483,0,0,0,68,false,stim,true,2,649.7999999523163,1,0,0,90166,task1,1610095,false,false,1633,image-keyboard-response,9
true,13,0,2,1,false,z,true,false,0.0-2.0-0.53-0.484-3.484,0,0,0,81,false,stim,false,2,1533.5,1,0,2,90166,task1,1613144,false,false,1636,image-keyboard-response,10
true,13,0,2,1,false,z,true,true,0.0-2.0-0.53-0.485-3.485,0,0,0,81,false,stim,false,2,105.29999995231628,1,0,0,90166,task1,1614764,false,true,1639,image-keyboard-response,11
true,13,0,2,1,false,z,true,false,0.0-2.0-0.54-0.486-3.486,0,0,0,81,false,stim,false,2,626.8999998569489,1,0,0,90166,task1,1616905,false,false,1642,image-keyboard-response,12
true,13,2,2,2,true,d,false,true,0.0-2.0-0.54-0.487-3.487,0,0,0,68,false,stim,false,0,812.5,1,0,1,90166,task1,1619230,false,false,1645,image-keyboard-response,13
true,13,2,2,2,true,d,false,true,0.0-2.0-0.54-0.488-3.488,0,0,0,68,false,stim,false,0,515.2999999523163,1,0,1,90166,task1,1621261,false,false,1648,image-keyboard-response,14
true,13,2,2,1,false,z,false,false,0.0-2.0-0.54-0.489-3.489,0,0,0,68,false,stim,true,2,501.90000009536743,1,0,0,90166,task1,1623277,false,false,1651,image-keyboard-response,15
true,13,1,2,1,true,z,false,true,0.0-2.0-0.54-0.490-3.490,0,0,0,90,false,stim,false,2,272.7999999523163,1,0,2,90166,task1,1625062,false,false,1654,image-keyboard-response,16
true,13,1,2,1,true,z,false,true,0.0-2.0-0.54-0.491-3.491,0,0,0,90,false,stim,false,2,714.5999999046326,1,0,2,90166,task1,1627291,false,false,1657,image-keyboard-response,17
true,13,2,2,1,false,z,false,false,0.0-2.0-0.54-0.492-3.492,0,0,0,68,false,stim,true,2,581.3000001907349,1,0,0,90166,task1,1629387,false,false,1660,image-keyboard-response,18
true,13,1,2,1,true,z,false,true,0.0-2.0-0.54-0.493-3.493,0,0,0,90,false,stim,false,2,416.2000000476837,1,0,2,90166,task1,1631318,false,false,1663,image-keyboard-response,19
true,13,0,2,2,false,d,false,false,0.0-2.0-0.54-0.494-3.494,0,0,0,81,false,stim,true,0,867.0999999046326,1,0,1,90166,task1,1633702,false,false,1666,image-keyboard-response,20
true,13,2,2,1,false,z,false,false,0.0-2.0-0.55-0.495-3.495,0,0,0,68,false,stim,true,2,984.4000000953674,1,0,0,90166,task1,1636202,false,false,1669,image-keyboard-response,21
true,13,2,2,1,false,z,false,false,0.0-2.0-0.55-0.496-3.496,0,0,0,68,false,stim,true,2,957.1000001430511,1,0,2,90166,task1,1638674,false,false,1672,image-keyboard-response,22
true,13,0,2,2,false,d,false,false,0.0-2.0-0.55-0.497-3.497,0,0,0,81,false,stim,true,0,648.7000000476837,1,0,1,90166,task1,1640838,false,false,1675,image-keyboard-response,23
true,13,1,2,2,false,d,true,false,0.0-2.0-0.55-0.498-3.498,0,0,0,90,false,stim,false,0,348.10000014305115,1,0,1,90166,task1,1642698,false,false,1678,image-keyboard-response,24
true,13,2,2,1,false,z,false,false,0.0-2.0-0.55-0.499-3.499,0,0,0,68,false,stim,true,2,410.2999999523163,1,0,0,90166,task1,1644624,false,false,1681,image-keyboard-response,25
true,13,0,2,1,false,z,true,false,0.0-2.0-0.55-0.500-3.500,0,0,0,81,false,stim,false,2,711.8999998569489,1,0,2,90166,task1,1646853,false,false,1684,image-keyboard-response,26
true,13,1,2,2,false,d,true,false,0.0-2.0-0.55-0.501-3.501,0,0,0,90,false,stim,false,0,1942.3000001907349,1,0,1,90166,task1,1650310,false,false,1687,image-keyboard-response,27
true,13,0,2,1,false,z,true,false,0.0-2.0-0.55-0.502-3.502,0,0,0,81,false,stim,false,2,1203.5,1,0,0,90166,task1,1653029,false,false,1690,image-keyboard-response,28
true,13,2,2,1,false,z,false,false,0.0-2.0-0.55-0.503-3.503,0,0,0,68,false,stim,true,2,440.10000014305115,1,0,2,90166,task1,1654985,false,false,1693,image-keyboard-response,29
true,13,1,2,2,false,d,true,false,0.0-2.0-0.56-0.504-3.504,0,0,0,90,false,stim,false,0,790.7000000476837,1,0,1,90166,task1,1657293,false,false,1696,image-keyboard-response,30
true,13,0,2,1,false,z,true,false,0.0-2.0-0.56-0.505-3.505,0,0,0,81,false,stim,false,2,742.0,1,0,0,90166,task1,1659550,false,false,1699,image-keyboard-response,31
true,13,2,2,1,false,z,false,false,0.0-2.0-0.56-0.506-3.506,0,0,0,68,false,stim,true,2,1487.1000001430511,1,0,0,90166,task1,1662562,false,false,1702,image-keyboard-response,32
true,13,2,2,2,true,d,false,true,0.0-2.0-0.56-0.507-3.507,0,0,0,68,false,stim,false,0,2864.5999999046326,1,0,1,90166,task1,1666938,false,false,1705,image-keyboard-response,33
true,13,1,2,1,true,z,false,true,0.0-2.0-0.56-0.508-3.508,0,0,0,90,false,stim,false,2,805.7999999523163,1,0,0,90166,task1,1669259,false,false,1708,image-keyboard-response,34
true,13,2,2,1,false,z,false,false,0.0-2.0-0.56-0.509-3.509,0,0,0,68,false,stim,true,2,600.0999999046326,1,0,2,90166,task1,1671371,false,false,1711,image-keyboard-response,35
true,13,0,2,2,false,d,false,false,0.0-2.0-0.56-0.510-3.510,0,0,0,81,false,stim,true,0,702.2999999523163,1,0,1,90166,task1,1673588,false,false,1714,image-keyboard-response,36
true,13,2,2,1,false,z,false,false,0.0-2.0-0.56-0.511-3.511,0,0,0,68,false,stim,true,2,714.1999998092651,1,0,2,90166,task1,1675814,false,false,1717,image-keyboard-response,37
true,13,1,2,1,true,z,false,true,0.0-2.0-0.56-0.512-3.512,0,0,0,90,false,stim,false,2,253.10000014305115,1,0,2,90166,task1,1677582,false,false,1720,image-keyboard-response,38
true,13,2,2,2,true,d,false,true,0.0-2.0-0.57-0.513-3.513,0,0,0,68,false,stim,false,0,609.9000000953674,1,1,1,90166,task1,1679705,false,false,1723,image-keyboard-response,39
true,13,0,2,1,false,z,true,false,0.0-2.0-0.57-0.514-3.514,0,0,0,81,false,stim,false,2,1387.5999999046326,1,1,0,90166,task1,1682606,false,false,1726,image-keyboard-response,40
true,13,1,2,2,false,d,true,false,0.0-2.0-0.57-0.515-3.515,0,0,0,90,false,stim,false,0,543.4000000953674,1,1,1,90166,task1,1684665,false,false,1729,image-keyboard-response,41
true,13,2,2,1,false,z,false,false,0.0-2.0-0.57-0.516-3.516,0,0,0,68,false,stim,true,2,455.60000014305115,1,1,0,90166,task1,1686633,false,false,1732,image-keyboard-response,42
true,13,0,2,2,false,d,false,false,0.0-2.0-0.57-0.517-3.517,0,0,0,81,false,stim,true,0,512.7000000476837,1,1,1,90166,task1,1688656,false,false,1735,image-keyboard-response,43
false,14,-1,0,1,false,z,true,false,0.0-2.0-0.57-0.518-3.518,1,1,1,,true,stim,false,1,,1,1,2,90166,task1,1813805,false,false,1858,image-keyboard-response,1
false,14,-1,0,1,false,z,true,false,0.0-2.0-0.57-0.519-3.519,1,1,1,,false,stim,false,1,,1,1,2,90166,task1,1838349,false,false,1862,image-keyboard-response,2
true,14,1,0,1,true,z,false,true,0.0-2.0-0.57-0.520-3.520,1,1,1,90,false,stim,false,1,1660.6000001430511,1,1,0,90166,task1,1841527,false,false,1865,image-keyboard-response,3
true,14,0,0,1,false,z,true,false,0.0-2.0-0.57-0.521-3.521,1,1,1,81,false,stim,false,1,679.9000000953674,1,1,2,90166,task1,1843723,false,false,1868,image-keyboard-response,4
true,14,1,0,1,true,z,false,true,0.0-2.0-0.58-0.522-3.522,1,1,1,90,false,stim,false,1,940.2999999523163,1,1,0,90166,task1,1846179,false,false,1871,image-keyboard-response,5
true,14,1,0,2,false,d,true,false,0.0-2.0-0.58-0.523-3.523,1,1,1,90,false,stim,false,2,26.5,1,1,1,90166,task1,1847721,false,false,1874,image-keyboard-response,6
true,14,2,0,2,true,d,false,true,0.0-2.0-0.58-0.524-3.524,1,1,1,68,false,stim,false,2,465.7999999523163,1,1,1,90166,task1,1849704,false,false,1877,image-keyboard-response,7
true,14,0,0,1,false,z,true,false,0.0-2.0-0.58-0.525-3.525,1,1,1,81,false,stim,false,1,975.7000000476837,1,1,0,90166,task1,1852196,false,false,1880,image-keyboard-response,8
true,14,1,0,2,false,d,true,false,0.0-2.0-0.58-0.526-3.526,1,1,1,90,false,stim,false,2,459.89999985694885,1,0,1,90166,task1,1854172,false,false,1883,image-keyboard-response,9
true,14,2,0,1,false,z,true,false,0.0-2.0-0.58-0.527-3.527,1,1,1,68,false,stim,false,1,449.30000019073486,1,0,2,90166,task1,1856137,false,false,1886,image-keyboard-response,10
true,14,0,0,1,false,z,true,false,0.0-2.0-0.58-0.528-3.528,1,1,1,81,false,stim,false,1,362.80000019073486,1,0,0,90166,task1,1858017,false,false,1889,image-keyboard-response,11
true,14,1,0,1,true,z,false,true,0.0-2.0-0.58-0.529-3.529,1,1,1,90,false,stim,false,1,564.9000000953674,1,0,2,90166,task1,1860096,false,false,1892,image-keyboard-response,12
true,14,1,0,1,true,z,false,true,0.0-2.0-0.58-0.530-3.530,1,1,1,90,false,stim,false,1,371.09999990463257,1,0,2,90166,task1,1861982,false,false,1895,image-keyboard-response,13
true,15,1,2,2,false,d,false,false,0.0-2.0-0.59-0.531-3.531,0,0,0,90,true,stim,true,1,529.2999999523163,1,0,2,90166,task1,1864024,false,false,1898,image-keyboard-response,1
true,15,2,2,0,false,q,false,true,0.0-2.0-0.59-0.532-3.532,0,0,0,68,false,stim,true,2,745.9000000953674,1,0,1,90166,task1,1866292,false,true,1901,image-keyboard-response,2
true,15,2,2,2,true,d,false,true,0.0-2.0-0.59-0.533-3.533,0,0,0,68,false,stim,false,1,627.6000001430511,1,0,0,90166,task1,1868435,false,false,1904,image-keyboard-response,3
true,15,2,2,2,true,d,false,true,0.0-2.0-0.59-0.534-3.534,0,0,0,68,false,stim,false,1,459.90000009536743,1,0,2,90166,task1,1870410,false,false,1907,image-keyboard-response,4
true,15,2,2,2,true,d,false,true,0.0-2.0-0.59-0.535-3.535,0,0,0,68,false,stim,false,1,400.0,1,0,0,90166,task1,1872322,false,false,1910,image-keyboard-response,5
true,15,2,2,0,false,q,false,false,0.0-2.0-0.59-0.536-3.536,0,0,0,68,false,stim,true,2,443.2000000476837,1,0,1,90166,task1,1874277,false,false,1913,image-keyboard-response,6
true,15,0,2,0,true,q,false,false,0.0-2.0-0.59-0.537-3.537,0,0,0,81,false,stim,false,2,1986.7000000476837,1,0,1,90166,task1,1877780,false,true,1916,image-keyboard-response,7
true,15,1,2,2,false,d,false,false,0.0-2.0-0.59-0.538-3.538,0,0,0,90,false,stim,true,1,1586.5,1,0,2,90166,task1,1880884,false,false,1919,image-keyboard-response,8
true,15,2,2,2,true,d,false,true,0.0-2.0-0.59-0.539-3.539,0,0,0,68,false,stim,false,1,1524.0,1,0,0,90166,task1,1883921,false,false,1922,image-keyboard-response,9
true,15,2,2,2,true,d,false,true,0.0-2.0-0.60-0.540-3.540,0,0,0,68,false,stim,false,1,1217.7999999523163,1,0,2,90166,task1,1886655,false,false,1925,image-keyboard-response,10
true,15,2,2,2,true,d,false,true,0.0-2.0-0.60-0.541-3.541,0,0,0,68,false,stim,false,1,1707.0999999046326,1,0,0,90166,task1,1889878,false,false,1928,image-keyboard-response,11
true,15,2,2,0,false,q,false,false,0.0-2.0-0.60-0.542-3.542,0,0,0,68,false,stim,true,2,584.0,1,0,1,90166,task1,1891978,false,false,1931,image-keyboard-response,12
true,15,1,2,0,false,q,true,false,0.0-2.0-0.60-0.543-3.543,0,0,0,90,false,stim,false,2,1049.2999999523163,1,0,1,90166,task1,1894542,false,false,1934,image-keyboard-response,13
true,15,0,2,0,true,q,false,true,0.0-2.0-0.60-0.544-3.544,0,0,0,81,false,stim,false,2,365.2999999523163,1,0,1,90166,task1,1896423,false,false,1937,image-keyboard-response,14
true,15,1,2,2,false,d,false,true,0.0-2.0-0.60-0.545-3.545,0,0,0,90,false,stim,true,1,1021.4000000953674,1,0,0,90166,task1,1898962,false,true,1940,image-keyboard-response,15
true,15,2,2,2,true,d,false,true,0.0-2.0-0.60-0.546-3.546,0,0,0,68,false,stim,false,1,1118.0,1,0,2,90166,task1,1901596,false,false,1943,image-keyboard-response,16
true,15,2,2,2,true,d,false,true,0.0-2.0-0.60-0.547-3.547,0,0,0,68,false,stim,false,1,839.2999999523163,1,0,2,90166,task1,1903951,false,false,1946,image-keyboard-response,17
true,15,1,2,2,false,d,false,false,0.0-2.0-0.60-0.548-3.548,0,0,0,90,false,stim,true,1,1345.8999998569489,1,0,0,90166,task1,1906813,false,false,1949,image-keyboard-response,18
true,15,0,2,2,false,d,true,false,0.0-2.0-0.61-0.549-3.549,0,0,0,81,false,stim,false,1,614.2000000476837,1,0,0,90166,task1,1908943,false,false,1952,image-keyboard-response,19
true,15,2,2,2,true,d,false,true,0.0-2.0-0.61-0.550-3.550,0,0,0,68,false,stim,false,1,693.9000000953674,1,0,2,90166,task1,1911153,false,false,1955,image-keyboard-response,20
true,15,0,2,0,true,q,false,true,0.0-2.0-0.61-0.551-3.551,0,0,0,81,false,stim,false,2,693.0999999046326,1,0,1,90166,task1,1913361,false,false,1958,image-keyboard-response,21
true,15,2,2,2,true,d,false,true,0.0-2.0-0.61-0.552-3.552,0,0,0,68,false,stim,false,1,388.0,1,0,0,90166,task1,1915265,false,false,1961,image-keyboard-response,22
true,15,0,2,0,true,q,false,true,0.0-2.0-0.61-0.553-3.553,0,0,0,81,false,stim,false,2,693.3999998569489,1,0,1,90166,task1,1917475,false,false,1964,image-keyboard-response,23
true,15,0,2,0,true,q,false,true,0.0-2.0-0.61-0.554-3.554,0,0,0,81,false,stim,false,2,816.4000000953674,1,0,1,90166,task1,1919803,false,false,1967,image-keyboard-response,24
true,15,2,2,2,true,d,false,true,0.0-2.0-0.61-0.555-3.555,0,0,0,68,false,stim,false,1,547.5,1,0,0,90166,task1,1921866,false,false,1970,image-keyboard-response,25
true,15,2,2,2,true,d,false,true,0.0-2.0-0.61-0.556-3.556,0,0,0,68,false,stim,false,1,837.3000001907349,1,0,2,90166,task1,1924215,false,false,1973,image-keyboard-response,26
true,15,2,2,2,true,d,false,true,0.0-2.0-0.61-0.557-3.557,0,0,0,68,false,stim,false,1,512.7000000476837,1,0,2,90166,task1,1926241,false,false,1976,image-keyboard-response,27
true,15,2,2,2,true,d,false,true,0.0-2.0-0.62-0.558-3.558,0,0,0,68,false,stim,false,1,660.7999999523163,1,0,2,90166,task1,1928416,false,false,1979,image-keyboard-response,28
true,15,0,2,0,true,q,false,true,0.0-2.0-0.62-0.559-3.559,0,0,0,81,false,stim,false,2,966.5,1,0,1,90166,task1,1930893,false,false,1982,image-keyboard-response,29
true,15,2,2,2,true,d,false,true,0.0-2.0-0.62-0.560-3.560,0,0,0,68,false,stim,false,1,367.40000009536743,1,0,2,90166,task1,1932771,false,false,1985,image-keyboard-response,30
true,15,2,2,2,true,d,false,true,0.0-2.0-0.62-0.561-3.561,0,0,0,68,false,stim,false,1,1196.7999999523163,1,0,0,90166,task1,1935485,false,false,1988,image-keyboard-response,31
true,15,2,2,0,false,q,false,true,0.0-2.0-0.62-0.562-3.562,0,0,0,68,false,stim,true,2,556.5999999046326,1,0,1,90166,task1,1937558,false,true,1991,image-keyboard-response,32
true,15,2,2,0,false,q,false,false,0.0-2.0-0.62-0.563-3.563,0,0,0,68,false,stim,true,2,478.09999990463257,1,0,1,90166,task1,1939550,false,false,1994,image-keyboard-response,33
true,15,2,2,2,true,d,false,true,0.0-2.0-0.62-0.564-3.564,0,0,0,68,false,stim,false,1,343.2999999523163,1,0,0,90166,task1,1941410,false,false,1997,image-keyboard-response,34
true,15,2,2,2,true,d,false,true,0.0-2.0-0.62-0.565-3.565,0,0,0,68,false,stim,false,1,647.3999998569489,1,0,2,90166,task1,1943571,false,false,2000,image-keyboard-response,35
true,15,2,2,2,true,d,false,true,0.0-2.0-0.62-0.566-3.566,0,0,0,68,false,stim,false,1,565.5,1,0,0,90166,task1,1945659,false,false,2003,image-keyboard-response,36
true,15,2,2,2,true,d,false,true,0.0-2.0-0.63-0.567-3.567,0,0,0,68,false,stim,false,1,543.6999998092651,1,0,0,90166,task1,1947717,false,false,2006,image-keyboard-response,37
true,15,2,2,2,true,d,false,true,0.0-2.0-0.63-0.568-3.568,0,0,0,68,false,stim,false,1,1070.2000000476837,1,0,2,90166,task1,1950302,false,false,2009,image-keyboard-response,38
true,15,0,2,0,true,q,false,true,0.0-2.0-0.63-0.569-3.569,0,0,0,81,false,stim,false,2,514.0,1,0,1,90166,task1,1952332,false,false,2012,image-keyboard-response,39
true,15,2,2,2,true,d,false,false,0.0-2.0-0.63-0.570-3.570,0,0,0,68,false,stim,false,1,686.5999999046326,1,0,0,90166,task1,1954534,false,true,2015,image-keyboard-response,40
true,15,2,2,2,true,d,false,true,0.0-2.0-0.63-0.571-3.571,0,0,0,68,false,stim,false,1,970.0,1,0,2,90166,task1,1957020,false,false,2018,image-keyboard-response,41
true,15,0,2,0,true,q,false,true,0.0-2.0-0.63-0.572-3.572,0,0,0,81,false,stim,false,2,756.8999998569489,1,0,1,90166,task1,1959293,false,false,2021,image-keyboard-response,42
true,16,0,2,2,false,d,false,false,0.0-2.0-0.63-0.573-3.573,0,0,0,81,true,stim,true,0,414.40000009536743,1,0,1,90166,task1,1961224,false,false,2024,image-keyboard-response,1
true,16,2,2,1,false,z,false,false,0.0-2.0-0.63-0.574-3.574,0,0,0,68,false,stim,true,2,1930.7999999523163,1,0,0,90166,task1,1964667,false,false,2027,image-keyboard-response,2
true,16,0,2,1,false,z,true,false,0.0-2.0-0.63-0.575-3.575,0,0,0,81,false,stim,false,2,745.1999998092651,1,0,2,90166,task1,1966924,false,false,2030,image-keyboard-response,3
true,16,1,2,2,false,d,true,true,0.0-2.0-0.64-0.576-3.576,0,0,0,90,false,stim,false,0,878.3999998569489,1,0,1,90166,task1,1969319,false,true,2033,image-keyboard-response,4
true,16,1,2,2,false,d,true,false,0.0-2.0-0.64-0.577-3.577,0,0,0,90,false,stim,false,0,479.69999980926514,1,0,1,90166,task1,1971315,false,false,2036,image-keyboard-response,5
true,16,2,2,1,false,z,false,false,0.0-2.0-0.64-0.578-3.578,0,0,0,68,false,stim,true,2,696.7000000476837,1,0,2,90166,task1,1973527,false,false,2039,image-keyboard-response,6
true,16,0,2,2,false,d,false,false,0.0-2.0-0.64-0.579-3.579,0,0,0,81,false,stim,true,0,1041.5,1,0,1,90166,task1,1976085,false,false,2042,image-keyboard-response,7
true,16,2,2,1,false,z,false,false,0.0-2.0-0.64-0.580-3.580,0,0,0,68,false,stim,true,2,1155.0,1,0,2,90166,task1,1978756,false,false,2045,image-keyboard-response,8
true,16,0,2,1,false,z,true,false,0.0-2.0-0.64-0.581-3.581,0,0,0,81,false,stim,false,2,741.7000000476837,1,0,0,90166,task1,1981014,false,false,2048,image-keyboard-response,9
true,16,1,2,1,true,z,false,true,0.0-2.0-0.64-0.582-3.582,0,0,0,90,false,stim,false,2,849.5,1,0,0,90166,task1,1983378,false,false,2051,image-keyboard-response,10
true,16,1,2,1,true,z,false,true,0.0-2.0-0.64-0.583-3.583,0,0,0,90,false,stim,false,2,539.2999999523163,1,0,0,90166,task1,1985431,false,false,2054,image-keyboard-response,11
true,16,1,2,1,true,z,false,true,0.0-2.0-0.64-0.584-3.584,0,0,0,90,false,stim,false,2,530.2999999523163,1,0,2,90166,task1,1987476,false,false,2057,image-keyboard-response,12
true,16,1,2,1,true,z,false,true,0.0-2.0-0.65-0.585-3.585,0,0,0,90,false,stim,false,2,408.60000014305115,1,0,0,90166,task1,1989399,false,false,2060,image-keyboard-response,13
true,16,1,2,1,true,z,false,true,0.0-2.0-0.65-0.586-3.586,0,0,0,90,false,stim,false,2,423.7999999523163,1,0,2,90166,task1,1991340,false,false,2063,image-keyboard-response,14
true,16,1,2,1,true,z,false,true,0.0-2.0-0.65-0.587-3.587,0,0,0,90,false,stim,false,2,436.10000014305115,1,0,2,90166,task1,1993293,false,false,2066,image-keyboard-response,15
true,16,1,2,2,false,d,true,false,0.0-2.0-0.65-0.588-3.588,0,0,0,90,false,stim,false,0,302.2999999523163,1,0,1,90166,task1,1995112,false,false,2069,image-keyboard-response,16
