answered,blockNum,choice,condition,corResp,correct,correct_response,explo,fb,internal_node_id,isStable_1,isStable_2,isStable_3,key_press,newBlock,part,persev,persevResp,rt,sessNum,stableAS,stimulus,subject,task,time_elapsed,training,trap,trial_index,trial_type,trialsInBlock
true,1,0,0,1,false,z,true,false,0.0-2.0-0.0-0.0-3.0,0,0,0,81,true,stim,false,-1,594,2,0,1,92553,task1,117661,false,false,100,image-keyboard-response,1
true,1,1,0,1,true,z,false,false,0.0-2.0-0.0-0.1-3.1,0,0,0,90,false,stim,false,-1,691,2,0,1,92553,task1,119876,false,true,103,image-keyboard-response,2
true,1,0,0,2,false,d,true,false,0.0-2.0-0.0-0.2-3.2,0,0,0,81,false,stim,false,-1,708,2,0,2,92553,task1,122112,false,false,106,image-keyboard-response,3
true,1,0,0,1,false,z,true,false,0.0-2.0-0.0-0.3-3.3,0,0,0,81,false,stim,false,-1,660,2,0,0,92553,task1,124288,false,false,109,image-keyboard-response,4
true,1,2,0,1,false,z,true,false,0.0-2.0-0.0-0.4-3.4,0,0,0,68,false,stim,false,-1,879,2,0,1,92553,task1,126693,false,false,112,image-keyboard-response,5
true,1,1,0,2,false,d,true,false,0.0-2.0-0.0-0.5-3.5,0,0,0,90,false,stim,false,-1,898,2,0,2,92553,task1,129122,false,false,115,image-keyboard-response,6
true,1,1,0,1,true,z,false,true,0.0-2.0-0.0-0.6-3.6,0,0,0,90,false,stim,false,-1,1028,2,0,0,92553,task1,131664,false,false,118,image-keyboard-response,7
true,1,1,0,1,true,z,false,true,0.0-2.0-0.0-0.7-3.7,0,0,0,90,false,stim,false,-1,1192,2,0,0,92553,task1,134375,false,false,121,image-keyboard-response,8
true,1,2,0,2,true,d,false,true,0.0-2.0-0.0-0.8-3.8,0,0,0,68,false,stim,false,-1,899,2,0,2,92553,task1,136802,false,false,124,image-keyboard-response,9
true,1,2,0,2,true,d,false,false,0.0-2.0-0.1-0.9-3.9,0,0,0,68,false,stim,false,-1,1217,2,0,2,92553,task1,139547,false,true,127,image-keyboard-response,10
true,1,2,0,2,true,d,false,true,0.0-2.0-0.1-0.10-3.10,0,0,0,68,false,stim,false,-1,452,2,0,2,92553,task1,141507,false,false,130,image-keyboard-response,11
true,1,2,0,1,false,z,true,false,0.0-2.0-0.1-0.11-3.11,0,0,0,68,false,stim,false,-1,1034,2,0,1,92553,task1,144045,false,false,133,image-keyboard-response,12
true,1,1,0,1,true,z,false,true,0.0-2.0-0.1-0.12-3.12,0,0,0,90,false,stim,false,-1,2203,2,0,0,92553,task1,147778,false,false,136,image-keyboard-response,13
true,1,2,0,2,true,d,false,true,0.0-2.0-0.1-0.13-3.13,0,0,0,68,false,stim,false,-1,842,2,0,2,92553,task1,150148,false,false,139,image-keyboard-response,14
true,1,1,0,1,true,z,false,true,0.0-2.0-0.1-0.14-3.14,0,0,0,90,false,stim,false,-1,461,2,0,0,92553,task1,152130,false,false,142,image-keyboard-response,15
true,1,1,0,1,true,z,false,true,0.0-2.0-0.1-0.15-3.15,0,0,0,90,false,stim,false,-1,1116,2,0,1,92553,task1,154776,false,false,145,image-keyboard-response,16
true,1,1,0,1,true,z,false,true,0.0-2.0-0.1-0.16-3.16,0,0,0,90,false,stim,false,-1,499,2,0,1,92553,task1,156786,false,false,148,image-keyboard-response,17
true,1,1,0,1,true,z,false,true,0.0-2.0-0.1-0.17-3.17,0,0,0,90,false,stim,false,-1,531,2,0,0,92553,task1,158839,false,false,151,image-keyboard-response,18
true,1,1,0,1,true,z,false,true,0.0-2.0-0.2-0.18-3.18,0,0,0,90,false,stim,false,-1,494,2,0,1,92553,task1,160848,false,false,154,image-keyboard-response,19
true,1,1,0,1,true,z,false,true,0.0-2.0-0.2-0.19-3.19,0,0,0,90,false,stim,false,-1,622,2,0,0,92553,task1,162991,false,false,157,image-keyboard-response,20
true,1,1,0,1,true,z,false,false,0.0-2.0-0.2-0.20-3.20,0,0,0,90,false,stim,false,-1,497,2,0,1,92553,task1,165011,false,true,160,image-keyboard-response,21
true,1,2,0,2,true,d,false,true,0.0-2.0-0.2-0.21-3.21,0,0,0,68,false,stim,false,-1,710,2,0,2,92553,task1,167229,false,false,163,image-keyboard-response,22
true,1,1,0,1,true,z,false,false,0.0-2.0-0.2-0.22-3.22,0,0,0,90,false,stim,false,-1,792,2,0,0,92553,task1,169549,false,true,166,image-keyboard-response,23
true,1,2,0,2,true,d,false,true,0.0-2.0-0.2-0.23-3.23,0,0,0,68,false,stim,false,-1,665,2,0,2,92553,task1,171723,false,false,169,image-keyboard-response,24
true,1,2,0,2,true,d,false,true,0.0-2.0-0.2-0.24-3.24,0,0,0,68,false,stim,false,-1,1540,2,0,2,92553,task1,174790,false,false,172,image-keyboard-response,25
true,1,1,0,1,true,z,false,true,0.0-2.0-0.2-0.25-3.25,0,0,0,90,false,stim,false,-1,971,2,0,1,92553,task1,177275,false,false,175,image-keyboard-response,26
true,2,1,1,2,false,d,false,false,0.0-2.0-0.2-0.26-3.26,0,0,0,90,true,stim,true,1,453,2,0,0,92553,task1,179260,false,false,178,image-keyboard-response,1
true,2,1,1,2,false,d,false,false,0.0-2.0-0.3-0.27-3.27,0,0,0,90,false,stim,true,1,523,2,0,0,92553,task1,181302,false,false,181,image-keyboard-response,2
true,2,2,1,2,true,d,false,true,0.0-2.0-0.3-0.28-3.28,0,0,0,68,false,stim,false,1,828,2,0,0,92553,task1,183657,false,false,184,image-keyboard-response,3
true,2,1,1,0,false,q,false,false,0.0-2.0-0.3-0.29-3.29,0,0,0,90,false,stim,true,1,1276,2,0,1,92553,task1,186455,false,false,187,image-keyboard-response,4
true,2,2,1,1,false,z,false,false,0.0-2.0-0.3-0.30-3.30,0,0,0,68,false,stim,true,2,707,2,0,2,92553,task1,188672,false,false,190,image-keyboard-response,5
true,2,2,1,1,false,z,false,false,0.0-2.0-0.3-0.31-3.31,0,0,0,68,false,stim,true,2,1139,2,0,2,92553,task1,191328,false,false,193,image-keyboard-response,6
true,2,1,1,0,false,q,false,false,0.0-2.0-0.3-0.32-3.32,0,0,0,90,false,stim,true,1,1386,2,0,1,92553,task1,194235,false,false,196,image-keyboard-response,7
true,2,1,1,0,false,q,false,false,0.0-2.0-0.3-0.33-3.33,0,0,0,90,false,stim,true,1,1283,2,0,1,92553,task1,197043,false,false,199,image-keyboard-response,8
true,2,2,1,1,false,z,false,false,0.0-2.0-0.3-0.34-3.34,0,0,0,68,false,stim,true,2,914,2,0,2,92553,task1,199472,false,false,202,image-keyboard-response,9
true,2,2,1,2,true,d,false,true,0.0-2.0-0.3-0.35-3.35,0,0,0,68,false,stim,false,1,1068,2,0,0,92553,task1,202053,false,false,205,image-keyboard-response,10
true,2,2,1,2,true,d,false,false,0.0-2.0-0.4-0.36-3.36,0,0,0,68,false,stim,false,1,697,2,0,0,92553,task1,204265,false,true,208,image-keyboard-response,11
true,2,0,1,0,true,q,false,false,0.0-2.0-0.4-0.37-3.37,0,0,0,81,false,stim,false,1,1500,2,0,1,92553,task1,207284,false,true,211,image-keyboard-response,12
true,2,2,1,0,false,q,true,false,0.0-2.0-0.4-0.38-3.38,0,0,0,68,false,stim,false,1,634,2,0,1,92553,task1,209438,false,false,214,image-keyboard-response,13
true,2,2,1,2,true,d,false,true,0.0-2.0-0.4-0.39-3.39,0,0,0,68,false,stim,false,1,2294,2,0,0,92553,task1,213249,false,false,217,image-keyboard-response,14
true,2,2,1,2,true,d,false,true,0.0-2.0-0.4-0.40-3.40,0,0,0,68,false,stim,false,1,501,2,0,0,92553,task1,215284,false,false,220,image-keyboard-response,15
true,2,1,1,0,false,q,false,false,0.0-2.0-0.4-0.41-3.41,0,0,0,90,false,stim,true,1,1040,2,0,1,92553,task1,217838,false,false,223,image-keyboard-response,16
true,2,1,1,1,true,z,false,true,0.0-2.0-0.4-0.42-3.42,0,0,0,90,false,stim,false,2,1091,2,0,2,92553,task1,220450,false,false,226,image-keyboard-response,17
true,2,1,1,1,true,z,false,true,0.0-2.0-0.4-0.43-3.43,0,0,0,90,false,stim,false,2,753,2,0,2,92553,task1,222721,false,false,229,image-keyboard-response,18
true,2,1,1,1,true,z,false,true,0.0-2.0-0.4-0.44-3.44,0,0,0,90,false,stim,false,2,504,2,0,2,92553,task1,224747,false,false,232,image-keyboard-response,19
true,2,2,1,2,true,d,false,true,0.0-2.0-0.5-0.45-3.45,0,0,0,68,false,stim,false,1,624,2,0,0,92553,task1,226892,false,false,235,image-keyboard-response,20
true,2,1,1,0,false,q,false,true,0.0-2.0-0.5-0.46-3.46,0,0,0,90,false,stim,true,1,1121,2,0,1,92553,task1,229525,false,true,238,image-keyboard-response,21
true,2,1,1,1,true,z,false,true,0.0-2.0-0.5-0.47-3.47,0,0,0,90,false,stim,false,2,1119,2,0,2,92553,task1,232162,false,false,241,image-keyboard-response,22
true,2,1,1,0,false,q,false,false,0.0-2.0-0.5-0.48-3.48,0,0,0,90,false,stim,true,1,897,2,0,1,92553,task1,234578,false,false,244,image-keyboard-response,23
true,2,1,1,0,false,q,false,false,0.0-2.0-0.5-0.49-3.49,0,0,0,90,false,stim,true,1,461,2,0,1,92553,task1,236546,false,false,247,image-keyboard-response,24
true,2,1,1,1,true,z,false,true,0.0-2.0-0.5-0.50-3.50,0,0,0,90,false,stim,false,2,764,2,0,2,92553,task1,238833,false,false,250,image-keyboard-response,25
true,2,1,1,1,true,z,false,false,0.0-2.0-0.5-0.51-3.51,0,0,0,90,false,stim,false,2,670,2,0,2,92553,task1,241021,false,true,253,image-keyboard-response,26
true,2,2,1,2,true,d,false,true,0.0-2.0-0.5-0.52-3.52,0,0,0,68,false,stim,false,1,767,2,0,0,92553,task1,243311,false,false,256,image-keyboard-response,27
true,2,2,1,2,true,d,false,true,0.0-2.0-0.5-0.53-3.53,0,0,0,68,false,stim,false,1,438,2,0,0,92553,task1,245282,false,false,259,image-keyboard-response,28
true,2,1,1,1,true,z,false,true,0.0-2.0-0.6-0.54-3.54,0,0,0,90,false,stim,false,2,397,2,0,2,92553,task1,247208,false,false,262,image-keyboard-response,29
true,2,2,1,2,true,d,false,true,0.0-2.0-0.6-0.55-3.55,0,0,0,68,false,stim,false,1,1127,2,0,0,92553,task1,249847,false,false,265,image-keyboard-response,30
true,2,1,1,0,false,q,false,false,0.0-2.0-0.6-0.56-3.56,0,0,0,90,false,stim,true,1,1196,2,0,1,92553,task1,252568,false,false,268,image-keyboard-response,31
true,2,2,1,2,true,d,false,true,0.0-2.0-0.6-0.57-3.57,0,0,0,68,false,stim,false,1,885,2,0,0,92553,task1,254987,false,false,271,image-keyboard-response,32
true,2,1,1,1,true,z,false,true,0.0-2.0-0.6-0.58-3.58,0,0,0,90,false,stim,false,2,1128,2,0,2,92553,task1,257626,false,false,274,image-keyboard-response,33
true,2,2,1,2,true,d,false,true,0.0-2.0-0.6-0.59-3.59,0,0,0,68,false,stim,false,1,773,2,0,0,92553,task1,259910,false,false,277,image-keyboard-response,34
true,2,1,1,1,true,z,false,true,0.0-2.0-0.6-0.60-3.60,0,0,0,90,false,stim,false,2,1290,2,0,2,92553,task1,262719,false,false,280,image-keyboard-response,35
true,2,0,1,0,true,q,false,false,0.0-2.0-0.6-0.61-3.61,0,0,0,81,false,stim,false,1,430,2,0,1,92553,task1,264679,false,true,283,image-keyboard-response,36
true,2,2,1,0,false,q,true,false,0.0-2.0-0.6-0.62-3.62,0,0,0,68,false,stim,false,1,530,2,0,1,92553,task1,266729,false,false,286,image-keyboard-response,37
true,2,1,1,0,false,q,false,true,0.0-2.0-0.7-0.63-3.63,0,0,0,90,false,stim,true,1,407,2,0,1,92553,task1,268664,false,true,289,image-keyboard-response,38
true,2,1,1,0,false,q,false,false,0.0-2.0-0.7-0.64-3.64,0,0,0,90,false,stim,true,1,593,2,0,1,92553,task1,270771,false,false,292,image-keyboard-response,39
true,2,2,1,2,true,d,false,true,0.0-2.0-0.7-0.65-3.65,0,0,0,68,false,stim,false,1,829,2,0,0,92553,task1,273113,false,false,295,image-keyboard-response,40
true,2,2,1,2,true,d,false,true,0.0-2.0-0.7-0.66-3.66,0,0,0,68,false,stim,false,1,1025,2,0,0,92553,task1,275650,false,false,298,image-keyboard-response,41
true,2,2,1,2,true,d,false,true,0.0-2.0-0.7-0.67-3.67,0,0,0,68,false,stim,false,1,489,2,0,0,92553,task1,277670,false,false,301,image-keyboard-response,42
true,2,1,1,1,true,z,false,true,0.0-2.0-0.7-0.68-3.68,0,0,0,90,false,stim,false,2,1075,2,0,2,92553,task1,280278,false,false,304,image-keyboard-response,43
true,2,1,1,1,true,z,false,true,0.0-2.0-0.7-0.69-3.69,0,0,0,90,false,stim,false,2,598,2,0,2,92553,task1,282402,false,false,307,image-keyboard-response,44
true,2,1,1,0,false,q,false,false,0.0-2.0-0.7-0.70-3.70,0,0,0,90,false,stim,true,1,1303,2,0,1,92553,task1,285228,false,false,310,image-keyboard-response,45
true,3,1,1,2,false,d,false,false,0.0-2.0-0.7-0.71-3.71,0,0,0,90,true,stim,true,1,1376,2,0,2,92553,task1,288121,false,false,313,image-keyboard-response,1
true,3,1,1,2,false,d,false,false,0.0-2.0-0.8-0.72-3.72,0,0,0,90,false,stim,true,1,388,2,0,2,92553,task1,290038,false,false,316,image-keyboard-response,2
true,3,1,1,2,false,d,true,false,0.0-2.0-0.8-0.73-3.73,0,0,0,90,false,stim,false,0,1415,2,0,1,92553,task1,292974,false,false,319,image-keyboard-response,3
true,3,1,1,2,false,d,true,false,0.0-2.0-0.8-0.74-3.74,0,0,0,90,false,stim,false,0,457,2,0,1,92553,task1,294937,false,false,322,image-keyboard-response,4
true,3,0,1,2,false,d,false,false,0.0-2.0-0.8-0.75-3.75,0,0,0,81,false,stim,true,0,602,2,0,1,92553,task1,297052,false,false,325,image-keyboard-response,5
true,3,2,1,1,false,z,false,false,0.0-2.0-0.8-0.76-3.76,0,0,0,68,false,stim,true,2,713,2,0,0,92553,task1,299281,false,false,328,image-keyboard-response,6
true,3,2,1,1,false,z,false,false,0.0-2.0-0.8-0.77-3.77,0,0,0,68,false,stim,true,2,1007,2,0,0,92553,task1,301808,false,false,331,image-keyboard-response,7
true,3,2,1,1,false,z,false,false,0.0-2.0-0.8-0.78-3.78,0,0,0,68,false,stim,true,2,739,2,0,0,92553,task1,304077,false,false,334,image-keyboard-response,8
true,3,1,1,2,false,d,false,false,0.0-2.0-0.8-0.79-3.79,0,0,0,90,false,stim,true,1,1706,2,0,2,92553,task1,307295,false,false,337,image-keyboard-response,9
true,3,0,1,2,false,d,true,false,0.0-2.0-0.8-0.80-3.80,0,0,0,81,false,stim,false,1,453,2,0,2,92553,task1,309271,false,false,340,image-keyboard-response,10
true,3,0,1,1,false,z,true,false,0.0-2.0-0.9-0.81-3.81,0,0,0,81,false,stim,false,2,1340,2,0,0,92553,task1,312117,false,false,343,image-keyboard-response,11
true,3,2,1,2,true,d,false,true,0.0-2.0-0.9-0.82-3.82,0,0,0,68,false,stim,false,0,1870,2,0,1,92553,task1,315499,false,false,346,image-keyboard-response,12
true,3,2,1,2,true,d,false,true,0.0-2.0-0.9-0.83-3.83,0,0,0,68,false,stim,false,1,436,2,0,2,92553,task1,317441,false,false,349,image-keyboard-response,13
true,3,2,1,2,true,d,false,false,0.0-2.0-0.9-0.84-3.84,0,0,0,68,false,stim,false,1,707,2,0,2,92553,task1,319654,false,true,352,image-keyboard-response,14
true,3,2,1,2,true,d,false,true,0.0-2.0-0.9-0.85-3.85,0,0,0,68,false,stim,false,0,564,2,0,1,92553,task1,321744,false,false,355,image-keyboard-response,15
true,3,2,1,2,true,d,false,true,0.0-2.0-0.9-0.86-3.86,0,0,0,68,false,stim,false,0,484,2,0,1,92553,task1,323748,false,false,358,image-keyboard-response,16
true,3,1,1,1,true,z,false,true,0.0-2.0-0.9-0.87-3.87,0,0,0,90,false,stim,false,2,774,2,0,0,92553,task1,326042,false,false,361,image-keyboard-response,17
true,3,1,1,1,true,z,false,false,0.0-2.0-0.9-0.88-3.88,0,0,0,90,false,stim,false,2,409,2,0,0,92553,task1,327969,false,true,364,image-keyboard-response,18
true,3,2,1,2,true,d,false,true,0.0-2.0-0.9-0.89-3.89,0,0,0,68,false,stim,false,1,710,2,0,2,92553,task1,330195,false,false,367,image-keyboard-response,19
true,3,1,1,1,true,z,false,true,0.0-2.0-0.10-0.90-3.90,0,0,0,90,false,stim,false,2,828,2,0,0,92553,task1,332542,false,false,370,image-keyboard-response,20
true,3,2,1,2,true,d,false,true,0.0-2.0-0.10-0.91-3.91,0,0,0,68,false,stim,false,0,943,2,0,1,92553,task1,334997,false,false,373,image-keyboard-response,21
true,3,2,1,2,true,d,false,true,0.0-2.0-0.10-0.92-3.92,0,0,0,68,false,stim,false,1,623,2,0,2,92553,task1,337143,false,false,376,image-keyboard-response,22
true,3,2,1,2,true,d,false,true,0.0-2.0-0.10-0.93-3.93,0,0,0,68,false,stim,false,0,622,2,0,1,92553,task1,339287,false,false,379,image-keyboard-response,23
true,3,2,1,2,true,d,false,true,0.0-2.0-0.10-0.94-3.94,0,0,0,68,false,stim,false,1,472,2,0,2,92553,task1,341273,false,false,382,image-keyboard-response,24
true,3,2,1,2,true,d,false,true,0.0-2.0-0.10-0.95-3.95,0,0,0,68,false,stim,false,0,593,2,0,1,92553,task1,343382,false,false,385,image-keyboard-response,25
true,3,1,1,1,true,z,false,true,0.0-2.0-0.10-0.96-3.96,0,0,0,90,false,stim,false,2,1417,2,0,0,92553,task1,346321,false,false,388,image-keyboard-response,26
true,3,1,1,1,true,z,false,true,0.0-2.0-0.10-0.97-3.97,0,0,0,90,false,stim,false,2,575,2,0,0,92553,task1,348421,false,false,391,image-keyboard-response,27
true,3,2,1,2,true,d,false,true,0.0-2.0-0.10-0.98-3.98,0,0,0,68,false,stim,false,1,648,2,0,2,92553,task1,350592,false,false,394,image-keyboard-response,28
true,3,2,1,1,false,z,false,false,0.0-2.0-0.11-0.99-3.99,0,0,0,68,false,stim,true,2,2284,2,0,0,92553,task1,354390,false,false,397,image-keyboard-response,29
true,3,2,1,2,true,d,false,true,0.0-2.0-0.11-0.100-3.100,0,0,0,68,false,stim,false,1,550,2,0,2,92553,task1,356453,false,false,400,image-keyboard-response,30
true,3,2,1,1,false,z,false,false,0.0-2.0-0.11-0.101-3.101,0,0,0,68,false,stim,true,2,2703,2,0,0,92553,task1,360680,false,false,403,image-keyboard-response,31
true,3,2,1,2,true,d,false,true,0.0-2.0-0.11-0.102-3.102,0,0,0,68,false,stim,false,1,876,2,0,2,92553,task1,363084,false,false,406,image-keyboard-response,32
true,3,1,1,1,true,z,false,true,0.0-2.0-0.11-0.103-3.103,0,0,0,90,false,stim,false,2,569,2,0,0,92553,task1,365173,false,false,409,image-keyboard-response,33
true,3,2,1,2,true,d,false,true,0.0-2.0-0.11-0.104-3.104,0,0,0,68,false,stim,false,1,680,2,0,2,92553,task1,367380,false,false,412,image-keyboard-response,34
true,3,2,1,2,true,d,false,true,0.0-2.0-0.11-0.105-3.105,0,0,0,68,false,stim,false,0,1120,2,0,1,92553,task1,370030,false,false,415,image-keyboard-response,35
true,3,2,1,2,true,d,false,true,0.0-2.0-0.11-0.106-3.106,0,0,0,68,false,stim,false,0,1005,2,0,1,92553,task1,372553,false,false,418,image-keyboard-response,36
true,3,2,1,2,true,d,false,true,0.0-2.0-0.11-0.107-3.107,0,0,0,68,false,stim,false,0,455,2,0,1,92553,task1,374529,false,false,421,image-keyboard-response,37
true,3,1,1,1,true,z,false,true,0.0-2.0-0.12-0.108-3.108,0,0,0,90,false,stim,false,2,447,2,0,0,92553,task1,376505,false,false,424,image-keyboard-response,38
true,3,2,1,2,true,d,false,true,0.0-2.0-0.12-0.109-3.109,0,0,0,68,false,stim,false,1,756,2,0,2,92553,task1,378785,false,false,427,image-keyboard-response,39
true,3,1,1,1,true,z,false,true,0.0-2.0-0.12-0.110-3.110,0,0,0,90,false,stim,false,2,1244,2,0,0,92553,task1,381552,false,false,430,image-keyboard-response,40
true,3,2,1,2,true,d,false,true,0.0-2.0-0.12-0.111-3.111,0,0,0,68,false,stim,false,1,629,2,0,2,92553,task1,383704,false,false,433,image-keyboard-response,41
true,4,1,2,2,false,d,false,true,0.0-2.0-0.12-0.112-3.112,0,0,0,90,true,stim,true,1,615,2,0,0,92553,task1,385851,false,true,436,image-keyboard-response,1
true,4,2,2,0,false,q,false,false,0.0-2.0-0.12-0.113-3.113,0,0,0,68,false,stim,true,2,736,2,0,1,92553,task1,388110,false,false,439,image-keyboard-response,2
true,4,2,2,0,false,q,false,false,0.0-2.0-0.12-0.114-3.114,0,0,0,68,false,stim,true,2,1060,2,0,1,92553,task1,390694,false,false,442,image-keyboard-response,3
true,4,1,2,0,false,q,true,false,0.0-2.0-0.12-0.115-3.115,0,0,0,90,false,stim,false,2,695,2,0,1,92553,task1,392913,false,false,445,image-keyboard-response,4
true,4,2,2,1,false,z,false,false,0.0-2.0-0.12-0.116-3.116,0,0,0,68,false,stim,true,2,947,2,0,2,92553,task1,395377,false,false,448,image-keyboard-response,5
true,4,2,2,1,false,z,false,true,0.0-2.0-0.13-0.117-3.117,0,0,0,68,false,stim,true,2,709,2,0,2,92553,task1,397610,false,true,451,image-keyboard-response,6
true,4,2,2,1,false,z,false,false,0.0-2.0-0.13-0.118-3.118,0,0,0,68,false,stim,true,2,570,2,0,2,92553,task1,399696,false,false,454,image-keyboard-response,7
true,4,2,2,1,false,z,false,false,0.0-2.0-0.13-0.119-3.119,0,0,0,68,false,stim,true,2,408,2,0,2,92553,task1,401618,false,false,457,image-keyboard-response,8
true,4,1,2,2,false,d,false,false,0.0-2.0-0.13-0.120-3.120,0,0,0,90,false,stim,true,1,802,2,0,0,92553,task1,403933,false,false,460,image-keyboard-response,9
true,4,0,2,0,true,q,false,true,0.0-2.0-0.13-0.121-3.121,0,0,0,81,false,stim,false,2,877,2,0,1,92553,task1,406324,false,false,463,image-keyboard-response,10
true,4,0,2,0,true,q,false,true,0.0-2.0-0.13-0.122-3.122,0,0,0,81,false,stim,false,2,762,2,0,1,92553,task1,408610,false,false,466,image-keyboard-response,11
true,4,1,2,2,false,d,false,false,0.0-2.0-0.13-0.123-3.123,0,0,0,90,false,stim,true,1,1415,2,0,0,92553,task1,411548,false,false,469,image-keyboard-response,12
true,4,2,2,2,true,d,false,true,0.0-2.0-0.13-0.124-3.124,0,0,0,68,false,stim,false,1,507,2,0,0,92553,task1,413587,false,false,472,image-keyboard-response,13
true,4,0,2,0,true,q,false,true,0.0-2.0-0.13-0.125-3.125,0,0,0,81,false,stim,false,2,959,2,0,1,92553,task1,416057,false,false,475,image-keyboard-response,14
true,4,0,2,0,true,q,false,true,0.0-2.0-0.14-0.126-3.126,0,0,0,81,false,stim,false,2,629,2,0,1,92553,task1,418205,false,false,478,image-keyboard-response,15
true,4,1,2,1,true,z,false,true,0.0-2.0-0.14-0.127-3.127,0,0,0,90,false,stim,false,2,997,2,0,2,92553,task1,420726,false,false,481,image-keyboard-response,16
true,4,2,2,2,true,d,false,true,0.0-2.0-0.14-0.128-3.128,0,0,0,68,false,stim,false,1,870,2,0,0,92553,task1,423124,false,false,484,image-keyboard-response,17
true,4,0,2,0,true,q,false,true,0.0-2.0-0.14-0.129-3.129,0,0,0,81,false,stim,false,2,504,2,0,1,92553,task1,425153,false,false,487,image-keyboard-response,18
true,4,1,2,1,true,z,false,false,0.0-2.0-0.14-0.130-3.130,0,0,0,90,false,stim,false,2,633,2,0,2,92553,task1,427310,false,true,490,image-keyboard-response,19
true,4,2,2,2,true,d,false,true,0.0-2.0-0.14-0.131-3.131,0,0,0,68,false,stim,false,1,587,2,0,0,92553,task1,429408,false,false,493,image-keyboard-response,20
true,4,0,2,0,true,q,false,true,0.0-2.0-0.14-0.132-3.132,0,0,0,81,false,stim,false,2,751,2,0,1,92553,task1,431690,false,false,496,image-keyboard-response,21
true,4,1,2,1,true,z,false,true,0.0-2.0-0.14-0.133-3.133,0,0,0,90,false,stim,false,2,571,2,0,2,92553,task1,433769,false,false,499,image-keyboard-response,22
true,4,2,2,2,true,d,false,true,0.0-2.0-0.14-0.134-3.134,0,0,0,68,false,stim,false,1,410,2,0,0,92553,task1,435708,false,false,502,image-keyboard-response,23
true,4,2,2,2,true,d,false,true,0.0-2.0-0.15-0.135-3.135,0,0,0,68,false,stim,false,1,376,2,0,0,92553,task1,437616,false,false,505,image-keyboard-response,24
true,4,0,2,0,true,q,false,true,0.0-2.0-0.15-0.136-3.136,0,0,0,81,false,stim,false,2,702,2,0,1,92553,task1,439832,false,false,508,image-keyboard-response,25
true,4,0,2,0,true,q,false,true,0.0-2.0-0.15-0.137-3.137,0,0,0,81,false,stim,false,2,596,2,0,1,92553,task1,441945,false,false,511,image-keyboard-response,26
true,4,2,2,2,true,d,false,false,0.0-2.0-0.15-0.138-3.138,0,0,0,68,false,stim,false,1,1256,2,0,0,92553,task1,444714,false,true,514,image-keyboard-response,27
true,4,0,2,1,false,z,true,false,0.0-2.0-0.15-0.139-3.139,0,0,0,81,false,stim,false,2,801,2,0,2,92553,task1,447028,false,false,517,image-keyboard-response,28
true,4,1,2,2,false,d,false,false,0.0-2.0-0.15-0.140-3.140,0,0,0,90,false,stim,true,1,1466,2,0,0,92553,task1,450020,false,false,520,image-keyboard-response,29
true,4,2,2,1,false,z,false,false,0.0-2.0-0.15-0.141-3.141,0,0,0,68,false,stim,true,2,384,2,0,2,92553,task1,451933,false,false,523,image-keyboard-response,30
true,4,1,2,1,true,z,false,true,0.0-2.0-0.15-0.142-3.142,0,0,0,90,false,stim,false,2,849,2,0,2,92553,task1,454307,false,false,526,image-keyboard-response,31
true,4,0,2,0,true,q,false,true,0.0-2.0-0.15-0.143-3.143,0,0,0,81,false,stim,false,2,844,2,0,1,92553,task1,456669,false,false,529,image-keyboard-response,32
true,4,1,2,1,true,z,false,true,0.0-2.0-0.16-0.144-3.144,0,0,0,90,false,stim,false,2,662,2,0,2,92553,task1,458848,false,false,532,image-keyboard-response,33
true,4,0,2,0,true,q,false,true,0.0-2.0-0.16-0.145-3.145,0,0,0,81,false,stim,false,2,999,2,0,1,92553,task1,461377,false,false,535,image-keyboard-response,34
true,4,2,2,2,true,d,false,true,0.0-2.0-0.16-0.146-3.146,0,0,0,68,false,stim,false,1,760,2,0,0,92553,task1,463669,false,false,538,image-keyboard-response,35
true,4,2,2,2,true,d,false,true,0.0-2.0-0.16-0.147-3.147,0,0,0,68,false,stim,false,1,479,2,0,0,92553,task1,465664,false,false,541,image-keyboard-response,36
true,4,0,2,0,true,q,false,true,0.0-2.0-0.16-0.148-3.148,0,0,0,81,false,stim,false,2,909,2,0,1,92553,task1,468086,false,false,544,image-keyboard-response,37
true,4,1,2,1,true,z,false,true,0.0-2.0-0.16-0.149-3.149,0,0,0,90,false,stim,false,2,640,2,0,2,92553,task1,470250,false,false,547,image-keyboard-response,38
true,4,2,2,2,true,d,false,true,0.0-2.0-0.16-0.150-3.150,0,0,0,68,false,stim,false,1,644,2,0,0,92553,task1,472415,false,false,550,image-keyboard-response,39
true,4,0,2,0,true,q,false,true,0.0-2.0-0.16-0.151-3.151,0,0,0,81,false,stim,false,2,726,2,0,1,92553,task1,474652,false,false,553,image-keyboard-response,40
true,4,1,2,1,true,z,false,true,0.0-2.0-0.16-0.152-3.152,0,0,0,90,false,stim,false,2,635,2,0,2,92553,task1,476808,false,false,556,image-keyboard-response,41
true,5,2,1,0,false,q,false,false,0.0-2.0-0.17-0.153-3.153,0,0,0,68,true,stim,true,2,540,2,0,0,92553,task1,478871,false,false,559,image-keyboard-response,1
true,5,1,1,2,false,d,false,false,0.0-2.0-0.17-0.154-3.154,0,0,0,90,false,stim,true,1,1117,2,0,2,92553,task1,481507,false,false,562,image-keyboard-response,2
true,5,0,1,1,false,z,false,false,0.0-2.0-0.17-0.155-3.155,0,0,0,81,false,stim,true,0,718,2,0,1,92553,task1,483743,false,false,565,image-keyboard-response,3
true,5,2,1,0,false,q,false,false,0.0-2.0-0.17-0.156-3.156,0,0,0,68,false,stim,true,2,2352,2,0,0,92553,task1,487626,false,false,568,image-keyboard-response,4
true,5,0,1,1,false,z,false,true,0.0-2.0-0.17-0.157-3.157,0,0,0,81,false,stim,true,0,1802,2,0,1,92553,task1,490948,false,true,571,image-keyboard-response,5
true,5,2,1,0,false,q,false,false,0.0-2.0-0.17-0.158-3.158,0,0,0,68,false,stim,true,2,784,2,0,0,92553,task1,493248,false,false,574,image-keyboard-response,6
true,5,1,1,2,false,d,false,false,0.0-2.0-0.17-0.159-3.159,0,0,0,90,false,stim,true,1,701,2,0,2,92553,task1,495469,false,false,577,image-keyboard-response,7
true,5,1,1,2,false,d,false,false,0.0-2.0-0.17-0.160-3.160,0,0,0,90,false,stim,true,1,780,2,0,2,92553,task1,497769,false,false,580,image-keyboard-response,8
true,5,0,1,1,false,z,false,false,0.0-2.0-0.17-0.161-3.161,0,0,0,81,false,stim,true,0,1379,2,0,1,92553,task1,500666,false,false,583,image-keyboard-response,9
true,5,1,1,0,false,q,true,false,0.0-2.0-0.18-0.162-3.162,0,0,0,90,false,stim,false,2,2190,2,0,0,92553,task1,504373,false,false,586,image-keyboard-response,10
true,5,2,1,2,true,d,false,true,0.0-2.0-0.18-0.163-3.163,0,0,0,68,false,stim,false,1,1035,2,0,2,92553,task1,506929,false,false,589,image-keyboard-response,11
true,5,0,1,1,false,z,false,false,0.0-2.0-0.18-0.164-3.164,0,0,0,81,false,stim,true,0,725,2,0,1,92553,task1,509175,false,false,592,image-keyboard-response,12
true,5,2,1,2,true,d,false,true,0.0-2.0-0.18-0.165-3.165,0,0,0,68,false,stim,false,1,1767,2,0,2,92553,task1,512466,false,false,595,image-keyboard-response,13
true,5,0,1,0,true,q,false,true,0.0-2.0-0.18-0.166-3.166,0,0,0,81,false,stim,false,2,825,2,0,0,92553,task1,514802,false,false,598,image-keyboard-response,14
true,5,1,1,1,true,z,false,true,0.0-2.0-0.18-0.167-3.167,0,0,0,90,false,stim,false,0,494,2,0,1,92553,task1,516832,false,false,601,image-keyboard-response,15
true,5,1,1,1,true,z,false,true,0.0-2.0-0.18-0.168-3.168,0,0,0,90,false,stim,false,0,860,2,0,1,92553,task1,519220,false,false,604,image-keyboard-response,16
true,5,2,1,2,true,d,false,true,0.0-2.0-0.18-0.169-3.169,0,0,0,68,false,stim,false,1,784,2,0,2,92553,task1,521513,false,false,607,image-keyboard-response,17
true,5,0,1,0,true,q,false,true,0.0-2.0-0.18-0.170-3.170,0,0,0,81,false,stim,false,2,636,2,0,0,92553,task1,523683,false,false,610,image-keyboard-response,18
true,5,0,1,0,true,q,false,true,0.0-2.0-0.19-0.171-3.171,0,0,0,81,false,stim,false,2,634,2,0,0,92553,task1,525851,false,false,613,image-keyboard-response,19
true,5,2,1,2,true,d,false,true,0.0-2.0-0.19-0.172-3.172,0,0,0,68,false,stim,false,1,894,2,0,2,92553,task1,528273,false,false,616,image-keyboard-response,20
true,5,2,1,2,true,d,false,true,0.0-2.0-0.19-0.173-3.173,0,0,0,68,false,stim,false,1,423,2,0,2,92553,task1,530222,false,false,619,image-keyboard-response,21
true,5,0,1,0,true,q,false,true,0.0-2.0-0.19-0.174-3.174,0,0,0,81,false,stim,false,2,739,2,0,0,92553,task1,532482,false,false,622,image-keyboard-response,22
true,5,1,1,1,true,z,false,true,0.0-2.0-0.19-0.175-3.175,0,0,0,90,false,stim,false,0,572,2,0,1,92553,task1,534584,false,false,625,image-keyboard-response,23
true,5,2,1,2,true,d,false,true,0.0-2.0-0.19-0.176-3.176,0,0,0,68,false,stim,false,1,899,2,0,2,92553,task1,537004,false,false,628,image-keyboard-response,24
true,5,1,1,1,true,z,false,true,0.0-2.0-0.19-0.177-3.177,0,0,0,90,false,stim,false,0,867,2,0,1,92553,task1,539401,false,false,631,image-keyboard-response,25
true,5,1,1,1,true,z,false,true,0.0-2.0-0.19-0.178-3.178,0,0,0,90,false,stim,false,0,439,2,0,1,92553,task1,541354,false,false,634,image-keyboard-response,26
true,5,0,1,0,true,q,false,false,0.0-2.0-0.19-0.179-3.179,0,0,0,81,false,stim,false,2,847,2,0,0,92553,task1,543731,false,true,637,image-keyboard-response,27
true,5,2,1,2,true,d,false,false,0.0-2.0-0.20-0.180-3.180,0,0,0,68,false,stim,false,1,422,2,0,2,92553,task1,545680,false,true,640,image-keyboard-response,28
true,5,0,1,0,true,q,false,true,0.0-2.0-0.20-0.181-3.181,0,0,0,81,false,stim,false,2,367,2,0,0,92553,task1,547580,false,false,643,image-keyboard-response,29
true,5,1,1,1,true,z,false,true,0.0-2.0-0.20-0.182-3.182,0,0,0,90,false,stim,false,0,639,2,0,1,92553,task1,549738,false,false,646,image-keyboard-response,30
true,5,2,1,2,true,d,false,true,0.0-2.0-0.20-0.183-3.183,0,0,0,68,false,stim,false,1,559,2,0,2,92553,task1,551814,false,false,649,image-keyboard-response,31
true,5,1,1,1,true,z,false,true,0.0-2.0-0.20-0.184-3.184,0,0,0,90,false,stim,false,0,969,2,0,1,92553,task1,554292,false,false,652,image-keyboard-response,32
true,5,0,1,0,true,q,false,false,0.0-2.0-0.20-0.185-3.185,0,0,0,81,false,stim,false,2,1005,2,0,0,92553,task1,556812,false,true,655,image-keyboard-response,33
true,5,1,1,1,true,z,false,true,0.0-2.0-0.20-0.186-3.186,0,0,0,90,false,stim,false,0,1271,2,0,1,92553,task1,559602,false,false,658,image-keyboard-response,34
true,5,0,1,0,true,q,false,true,0.0-2.0-0.20-0.187-3.187,0,0,0,81,false,stim,false,2,882,2,0,0,92553,task1,562004,false,false,661,image-keyboard-response,35
true,5,2,1,2,true,d,false,true,0.0-2.0-0.20-0.188-3.188,0,0,0,68,false,stim,false,1,988,2,0,2,92553,task1,564515,false,false,664,image-keyboard-response,36
true,5,0,1,0,true,q,false,true,0.0-2.0-0.21-0.189-3.189,0,0,0,81,false,stim,false,2,1191,2,0,0,92553,task1,567215,false,false,667,image-keyboard-response,37
true,5,0,1,0,true,q,false,true,0.0-2.0-0.21-0.190-3.190,0,0,0,81,false,stim,false,2,818,2,0,0,92553,task1,569561,false,false,670,image-keyboard-response,38
true,5,1,1,1,true,z,false,false,0.0-2.0-0.21-0.191-3.191,0,0,0,90,false,stim,false,0,873,2,0,1,92553,task1,571948,false,true,673,image-keyboard-response,39
true,5,2,1,2,true,d,false,true,0.0-2.0-0.21-0.192-3.192,0,0,0,68,false,stim,false,1,791,2,0,2,92553,task1,574255,false,false,676,image-keyboard-response,40
true,5,1,1,1,true,z,false,true,0.0-2.0-0.21-0.193-3.193,0,0,0,90,false,stim,false,0,1314,2,0,1,92553,task1,577089,false,false,679,image-keyboard-response,41
true,5,2,1,2,true,d,false,true,0.0-2.0-0.21-0.194-3.194,0,0,0,68,false,stim,false,1,1068,2,0,2,92553,task1,579676,false,false,682,image-keyboard-response,42
true,5,0,1,0,true,q,false,true,0.0-2.0-0.21-0.195-3.195,0,0,0,81,false,stim,false,2,1470,2,0,0,92553,task1,582660,false,false,685,image-keyboard-response,43
true,5,1,1,1,true,z,false,true,0.0-2.0-0.21-0.196-3.196,0,0,0,90,false,stim,false,0,878,2,0,1,92553,task1,585063,false,false,688,image-keyboard-response,44
true,5,2,1,2,true,d,false,true,0.0-2.0-0.21-0.197-3.197,0,0,0,68,false,stim,false,1,582,2,0,2,92553,task1,587159,false,false,691,image-keyboard-response,45
true,6,1,1,0,false,q,false,false,0.0-2.0-0.22-0.198-3.198,0,0,0,90,true,stim,true,1,1078,2,0,1,92553,task1,589762,false,false,694,image-keyboard-response,1
true,6,0,1,1,false,z,false,false,0.0-2.0-0.22-0.199-3.199,0,0,0,81,false,stim,true,0,914,2,0,0,92553,task1,592204,false,false,697,image-keyboard-response,2
true,6,2,1,1,false,z,false,false,0.0-2.0-0.22-0.200-3.200,0,0,0,68,false,stim,true,2,769,2,0,2,92553,task1,594483,false,false,700,image-keyboard-response,3
true,6,2,1,1,false,z,false,false,0.0-2.0-0.22-0.201-3.201,0,0,0,68,false,stim,true,2,839,2,0,2,92553,task1,596867,false,false,703,image-keyboard-response,4
true,6,0,1,0,true,q,false,true,0.0-2.0-0.22-0.202-3.202,0,0,0,81,false,stim,false,1,1003,2,0,1,92553,task1,599402,false,false,706,image-keyboard-response,5
true,6,1,1,1,true,z,false,true,0.0-2.0-0.22-0.203-3.203,0,0,0,90,false,stim,false,0,456,2,0,0,92553,task1,601384,false,false,709,image-keyboard-response,6
true,6,1,1,1,true,z,false,true,0.0-2.0-0.22-0.204-3.204,0,0,0,90,false,stim,false,0,879,2,0,0,92553,task1,603792,false,false,712,image-keyboard-response,7
true,6,0,1,0,true,q,false,false,0.0-2.0-0.22-0.205-3.205,0,0,0,81,false,stim,false,1,1341,2,0,1,92553,task1,606648,false,true,715,image-keyboard-response,8
true,6,2,1,1,false,z,false,false,0.0-2.0-0.22-0.206-3.206,0,0,0,68,false,stim,true,2,755,2,0,2,92553,task1,608930,false,false,718,image-keyboard-response,9
true,6,1,1,1,true,z,false,true,0.0-2.0-0.23-0.207-3.207,0,0,0,90,false,stim,false,0,1153,2,0,0,92553,task1,611597,false,false,721,image-keyboard-response,10
true,6,1,1,1,true,z,false,true,0.0-2.0-0.23-0.208-3.208,0,0,0,90,false,stim,false,2,1383,2,0,2,92553,task1,614501,false,false,724,image-keyboard-response,11
true,6,1,1,1,true,z,false,true,0.0-2.0-0.23-0.209-3.209,0,0,0,90,false,stim,false,0,785,2,0,0,92553,task1,616805,false,false,727,image-keyboard-response,12
true,6,1,1,1,true,z,false,true,0.0-2.0-0.23-0.210-3.210,0,0,0,90,false,stim,false,2,371,2,0,2,92553,task1,618694,false,false,730,image-keyboard-response,13
true,6,0,1,0,true,q,false,true,0.0-2.0-0.23-0.211-3.211,0,0,0,81,false,stim,false,1,1049,2,0,1,92553,task1,621269,false,false,733,image-keyboard-response,14
true,6,0,1,0,true,q,false,true,0.0-2.0-0.23-0.212-3.212,0,0,0,81,false,stim,false,1,811,2,0,1,92553,task1,623599,false,false,736,image-keyboard-response,15
true,6,0,1,0,true,q,false,false,0.0-2.0-0.23-0.213-3.213,0,0,0,81,false,stim,false,1,674,2,0,1,92553,task1,625790,false,true,739,image-keyboard-response,16
true,6,1,1,1,true,z,false,true,0.0-2.0-0.23-0.214-3.214,0,0,0,90,false,stim,false,2,734,2,0,2,92553,task1,628050,false,false,742,image-keyboard-response,17
true,6,1,1,1,true,z,false,true,0.0-2.0-0.23-0.215-3.215,0,0,0,90,false,stim,false,0,407,2,0,0,92553,task1,629974,false,false,745,image-keyboard-response,18
true,6,1,1,1,true,z,false,true,0.0-2.0-0.24-0.216-3.216,0,0,0,90,false,stim,false,0,858,2,0,0,92553,task1,632353,false,false,748,image-keyboard-response,19
true,6,1,1,1,true,z,false,true,0.0-2.0-0.24-0.217-3.217,0,0,0,90,false,stim,false,2,1279,2,0,2,92553,task1,635154,false,false,751,image-keyboard-response,20
true,6,0,1,0,true,q,false,true,0.0-2.0-0.24-0.218-3.218,0,0,0,81,false,stim,false,1,1311,2,0,1,92553,task1,637991,false,false,754,image-keyboard-response,21
true,6,1,1,1,true,z,false,true,0.0-2.0-0.24-0.219-3.219,0,0,0,90,false,stim,false,0,955,2,0,0,92553,task1,640469,false,false,757,image-keyboard-response,22
true,6,1,1,1,true,z,false,true,0.0-2.0-0.24-0.220-3.220,0,0,0,90,false,stim,false,0,778,2,0,0,92553,task1,642769,false,false,760,image-keyboard-response,23
true,6,0,1,0,true,q,false,true,0.0-2.0-0.24-0.221-3.221,0,0,0,81,false,stim,false,1,918,2,0,1,92553,task1,645209,false,false,763,image-keyboard-response,24
true,6,1,1,1,true,z,false,true,0.0-2.0-0.24-0.222-3.222,0,0,0,90,false,stim,false,2,1104,2,0,2,92553,task1,647828,false,false,766,image-keyboard-response,25
true,6,0,1,0,true,q,false,true,0.0-2.0-0.24-0.223-3.223,0,0,0,81,false,stim,false,1,912,2,0,1,92553,task1,650260,false,false,769,image-keyboard-response,26
true,6,1,1,1,true,z,false,true,0.0-2.0-0.24-0.224-3.224,0,0,0,90,false,stim,false,2,913,2,0,2,92553,task1,652680,false,false,772,image-keyboard-response,27
true,6,0,1,0,true,q,false,true,0.0-2.0-0.25-0.225-3.225,0,0,0,81,false,stim,false,1,965,2,0,1,92553,task1,655154,false,false,775,image-keyboard-response,28
true,6,0,1,0,true,q,false,true,0.0-2.0-0.25-0.226-3.226,0,0,0,81,false,stim,false,1,568,2,0,1,92553,task1,657249,false,false,778,image-keyboard-response,29
true,6,0,1,0,true,q,false,true,0.0-2.0-0.25-0.227-3.227,0,0,0,81,false,stim,false,1,460,2,0,1,92553,task1,659231,false,false,781,image-keyboard-response,30
true,6,1,1,1,true,z,false,true,0.0-2.0-0.25-0.228-3.228,0,0,0,90,false,stim,false,2,696,2,0,2,92553,task1,661444,false,false,784,image-keyboard-response,31
true,6,1,1,1,true,z,false,true,0.0-2.0-0.25-0.229-3.229,0,0,0,90,false,stim,false,0,921,2,0,0,92553,task1,663896,false,false,787,image-keyboard-response,32
true,6,1,1,1,true,z,false,false,0.0-2.0-0.25-0.230-3.230,0,0,0,90,false,stim,false,2,1237,2,0,2,92553,task1,666657,false,true,790,image-keyboard-response,33
true,6,1,1,1,true,z,false,true,0.0-2.0-0.25-0.231-3.231,0,0,0,90,false,stim,false,0,974,2,0,0,92553,task1,669158,false,false,793,image-keyboard-response,34
true,6,1,1,1,true,z,false,true,0.0-2.0-0.25-0.232-3.232,0,0,0,90,false,stim,false,0,557,2,0,0,92553,task1,671243,false,false,796,image-keyboard-response,35
true,6,1,1,1,true,z,false,true,0.0-2.0-0.25-0.233-3.233,0,0,0,90,false,stim,false,2,395,2,0,2,92553,task1,673154,false,false,799,image-keyboard-response,36
true,6,1,1,1,true,z,false,true,0.0-2.0-0.26-0.234-3.234,0,0,0,90,false,stim,false,0,537,2,0,0,92553,task1,675217,false,false,802,image-keyboard-response,37
true,6,0,1,1,false,z,true,true,0.0-2.0-0.26-0.235-3.235,0,0,0,81,false,stim,false,2,564,2,0,2,92553,task1,677312,false,true,805,image-keyboard-response,38
true,6,0,1,0,true,q,false,true,0.0-2.0-0.26-0.236-3.236,0,0,0,81,false,stim,false,1,2429,2,0,1,92553,task1,681263,false,false,808,image-keyboard-response,39
true,6,1,1,1,true,z,false,true,0.0-2.0-0.26-0.237-3.237,0,0,0,90,false,stim,false,2,1084,2,0,2,92553,task1,683869,false,false,811,image-keyboard-response,40
true,7,1,1,0,false,q,false,false,0.0-2.0-0.26-0.238-3.238,0,0,0,90,true,stim,true,1,1738,2,0,0,92553,task1,687124,false,false,814,image-keyboard-response,1
true,7,0,1,2,false,d,false,false,0.0-2.0-0.26-0.239-3.239,0,0,0,81,false,stim,true,0,692,2,0,1,92553,task1,689331,false,false,817,image-keyboard-response,2
true,7,0,1,2,false,d,false,false,0.0-2.0-0.26-0.240-3.240,0,0,0,81,false,stim,true,0,769,2,0,1,92553,task1,691627,false,false,820,image-keyboard-response,3
true,7,1,1,0,false,q,false,false,0.0-2.0-0.26-0.241-3.241,0,0,0,90,false,stim,true,1,723,2,0,0,92553,task1,693863,false,false,823,image-keyboard-response,4
true,7,1,1,0,false,q,false,false,0.0-2.0-0.26-0.242-3.242,0,0,0,90,false,stim,true,1,1115,2,0,2,92553,task1,696499,false,false,826,image-keyboard-response,5
true,7,2,1,2,true,d,false,true,0.0-2.0-0.27-0.243-3.243,0,0,0,68,false,stim,false,0,433,2,0,1,92553,task1,698456,false,false,829,image-keyboard-response,6
true,7,0,1,0,true,q,false,true,0.0-2.0-0.27-0.244-3.244,0,0,0,81,false,stim,false,1,1812,2,0,2,92553,task1,701802,false,false,832,image-keyboard-response,7
true,7,1,1,0,false,q,false,false,0.0-2.0-0.27-0.245-3.245,0,0,0,90,false,stim,true,1,639,2,0,0,92553,task1,703954,false,false,835,image-keyboard-response,8
true,7,0,1,0,true,q,false,true,0.0-2.0-0.27-0.246-3.246,0,0,0,81,false,stim,false,1,464,2,0,0,92553,task1,705940,false,false,838,image-keyboard-response,9
true,7,0,1,0,true,q,false,true,0.0-2.0-0.27-0.247-3.247,0,0,0,81,false,stim,false,1,1037,2,0,2,92553,task1,708495,false,false,841,image-keyboard-response,10
true,7,0,1,0,true,q,false,false,0.0-2.0-0.27-0.248-3.248,0,0,0,81,false,stim,false,1,507,2,0,2,92553,task1,710512,false,true,844,image-keyboard-response,11
true,7,2,1,2,true,d,false,true,0.0-2.0-0.27-0.249-3.249,0,0,0,68,false,stim,false,0,435,2,0,1,92553,task1,712453,false,false,847,image-keyboard-response,12
true,7,0,1,0,true,q,false,true,0.0-2.0-0.27-0.250-3.250,0,0,0,81,false,stim,false,1,989,2,0,0,92553,task1,714965,false,false,850,image-keyboard-response,13
true,7,2,1,2,true,d,false,true,0.0-2.0-0.27-0.251-3.251,0,0,0,68,false,stim,false,0,421,2,0,1,92553,task1,716915,false,false,853,image-keyboard-response,14
true,7,0,1,0,true,q,false,true,0.0-2.0-0.28-0.252-3.252,0,0,0,81,false,stim,false,1,554,2,0,2,92553,task1,718992,false,false,856,image-keyboard-response,15
true,7,2,1,2,true,d,false,true,0.0-2.0-0.28-0.253-3.253,0,0,0,68,false,stim,false,0,465,2,0,1,92553,task1,720967,false,false,859,image-keyboard-response,16
true,7,2,1,2,true,d,false,true,0.0-2.0-0.28-0.254-3.254,0,0,0,68,false,stim,false,0,433,2,0,1,92553,task1,722907,false,false,862,image-keyboard-response,17
true,7,0,1,0,true,q,false,true,0.0-2.0-0.28-0.255-3.255,0,0,0,81,false,stim,false,1,1507,2,0,0,92553,task1,725942,false,false,865,image-keyboard-response,18
true,7,0,1,0,true,q,false,true,0.0-2.0-0.28-0.256-3.256,0,0,0,81,false,stim,false,1,596,2,0,0,92553,task1,728056,false,false,868,image-keyboard-response,19
true,7,0,1,0,true,q,false,false,0.0-2.0-0.28-0.257-3.257,0,0,0,81,false,stim,false,1,405,2,0,0,92553,task1,729994,false,true,871,image-keyboard-response,20
true,7,0,1,0,true,q,false,true,0.0-2.0-0.28-0.258-3.258,0,0,0,81,false,stim,false,1,954,2,0,2,92553,task1,732463,false,false,874,image-keyboard-response,21
true,7,0,1,0,true,q,false,true,0.0-2.0-0.28-0.259-3.259,0,0,0,81,false,stim,false,1,753,2,0,2,92553,task1,734735,false,false,877,image-keyboard-response,22
true,7,2,1,2,true,d,false,true,0.0-2.0-0.28-0.260-3.260,0,0,0,68,false,stim,false,0,1846,2,0,1,92553,task1,738112,false,false,880,image-keyboard-response,23
true,7,0,1,0,true,q,false,true,0.0-2.0-0.29-0.261-3.261,0,0,0,81,false,stim,false,1,1037,2,0,0,92553,task1,740670,false,false,883,image-keyboard-response,24
true,7,2,1,2,true,d,false,true,0.0-2.0-0.29-0.262-3.262,0,0,0,68,false,stim,false,0,892,2,0,1,92553,task1,743082,false,false,886,image-keyboard-response,25
true,7,0,1,0,true,q,false,false,0.0-2.0-0.29-0.263-3.263,0,0,0,81,false,stim,false,1,807,2,0,2,92553,task1,745411,false,true,889,image-keyboard-response,26
true,7,0,1,0,true,q,false,true,0.0-2.0-0.29-0.264-3.264,0,0,0,81,false,stim,false,1,1138,2,0,0,92553,task1,748073,false,false,892,image-keyboard-response,27
true,7,0,1,0,true,q,false,true,0.0-2.0-0.29-0.265-3.265,0,0,0,81,false,stim,false,1,438,2,0,2,92553,task1,750031,false,false,895,image-keyboard-response,28
true,7,0,1,0,true,q,false,true,0.0-2.0-0.29-0.266-3.266,0,0,0,81,false,stim,false,1,592,2,0,2,92553,task1,752151,false,false,898,image-keyboard-response,29
true,7,2,1,2,true,d,false,true,0.0-2.0-0.29-0.267-3.267,0,0,0,68,false,stim,false,0,702,2,0,1,92553,task1,754385,false,false,901,image-keyboard-response,30
true,7,0,1,0,true,q,false,true,0.0-2.0-0.29-0.268-3.268,0,0,0,81,false,stim,false,1,740,2,0,0,92553,task1,756654,false,false,904,image-keyboard-response,31
true,7,2,1,2,true,d,false,false,0.0-2.0-0.29-0.269-3.269,0,0,0,68,false,stim,false,0,659,2,0,1,92553,task1,758837,false,true,907,image-keyboard-response,32
true,7,0,1,0,true,q,false,false,0.0-2.0-0.30-0.270-3.270,0,0,0,81,false,stim,false,1,676,2,0,2,92553,task1,761040,false,true,910,image-keyboard-response,33
true,7,0,1,0,true,q,false,true,0.0-2.0-0.30-0.271-3.271,0,0,0,81,false,stim,false,1,610,2,0,2,92553,task1,763169,false,false,913,image-keyboard-response,34
true,7,0,1,0,true,q,false,true,0.0-2.0-0.30-0.272-3.272,0,0,0,81,false,stim,false,1,702,2,0,2,92553,task1,765400,false,false,916,image-keyboard-response,35
true,7,2,1,2,true,d,false,true,0.0-2.0-0.30-0.273-3.273,0,0,0,68,false,stim,false,0,739,2,0,1,92553,task1,767660,false,false,919,image-keyboard-response,36
true,7,0,1,0,true,q,false,true,0.0-2.0-0.30-0.274-3.274,0,0,0,81,false,stim,false,1,769,2,0,0,92553,task1,769957,false,false,922,image-keyboard-response,37
true,7,0,1,0,true,q,false,false,0.0-2.0-0.30-0.275-3.275,0,0,0,81,false,stim,false,1,698,2,0,0,92553,task1,772184,false,true,925,image-keyboard-response,38
true,7,2,1,2,true,d,false,true,0.0-2.0-0.30-0.276-3.276,0,0,0,68,false,stim,false,0,734,2,0,1,92553,task1,774434,false,false,928,image-keyboard-response,39
true,7,0,1,0,true,q,false,true,0.0-2.0-0.30-0.277-3.277,0,0,0,81,false,stim,false,1,712,2,0,0,92553,task1,776661,false,false,931,image-keyboard-response,40
true,8,2,2,0,false,q,false,false,0.0-2.0-0.30-0.278-3.278,0,0,0,68,true,stim,true,2,1050,2,0,1,92553,task1,779225,false,false,934,image-keyboard-response,1
true,8,0,2,2,false,d,false,false,0.0-2.0-0.31-0.279-3.279,0,0,0,81,false,stim,true,0,772,2,0,0,92553,task1,781516,false,false,937,image-keyboard-response,2
true,8,0,2,1,false,z,false,false,0.0-2.0-0.31-0.280-3.280,0,0,0,81,false,stim,true,0,787,2,0,2,92553,task1,783835,false,false,940,image-keyboard-response,3
true,8,0,2,2,false,d,false,false,0.0-2.0-0.31-0.281-3.281,0,0,0,81,false,stim,true,0,510,2,0,0,92553,task1,785864,false,false,943,image-keyboard-response,4
true,8,2,2,0,false,q,false,false,0.0-2.0-0.31-0.282-3.282,0,0,0,68,false,stim,true,2,810,2,0,1,92553,task1,788205,false,false,946,image-keyboard-response,5
true,8,1,2,2,false,d,true,false,0.0-2.0-0.31-0.283-3.283,0,0,0,90,false,stim,false,0,2586,2,0,0,92553,task1,792311,false,false,949,image-keyboard-response,6
true,8,0,2,0,true,q,false,true,0.0-2.0-0.31-0.284-3.284,0,0,0,81,false,stim,false,2,1616,2,0,1,92553,task1,795440,false,false,952,image-keyboard-response,7
true,8,2,2,1,false,z,true,false,0.0-2.0-0.31-0.285-3.285,0,0,0,68,false,stim,false,0,623,2,0,2,92553,task1,797573,false,false,955,image-keyboard-response,8
true,8,1,2,1,true,z,false,true,0.0-2.0-0.31-0.286-3.286,0,0,0,90,false,stim,false,0,501,2,0,2,92553,task1,799592,false,false,958,image-keyboard-response,9
true,8,0,2,0,true,q,false,true,0.0-2.0-0.31-0.287-3.287,0,0,0,81,false,stim,false,2,1321,2,0,1,92553,task1,802433,false,false,961,image-keyboard-response,10
true,8,2,2,2,true,d,false,true,0.0-2.0-0.32-0.288-3.288,0,0,0,68,false,stim,false,0,587,2,0,0,92553,task1,804550,false,false,964,image-keyboard-response,11
true,8,2,2,2,true,d,false,true,0.0-2.0-0.32-0.289-3.289,0,0,0,68,false,stim,false,0,980,2,0,0,92553,task1,807049,false,false,967,image-keyboard-response,12
true,8,1,2,1,true,z,false,true,0.0-2.0-0.32-0.290-3.290,0,0,0,90,false,stim,false,0,441,2,0,2,92553,task1,809021,false,false,970,image-keyboard-response,13
true,8,1,2,1,true,z,false,false,0.0-2.0-0.32-0.291-3.291,0,0,0,90,false,stim,false,0,645,2,0,2,92553,task1,811187,false,true,973,image-keyboard-response,14
true,8,0,2,0,true,q,false,true,0.0-2.0-0.32-0.292-3.292,0,0,0,81,false,stim,false,2,853,2,0,1,92553,task1,813562,false,false,976,image-keyboard-response,15
true,8,2,2,2,true,d,false,true,0.0-2.0-0.32-0.293-3.293,0,0,0,68,false,stim,false,0,496,2,0,0,92553,task1,815584,false,false,979,image-keyboard-response,16
true,8,1,2,1,true,z,false,true,0.0-2.0-0.32-0.294-3.294,0,0,0,90,false,stim,false,0,995,2,0,2,92553,task1,818096,false,false,982,image-keyboard-response,17
true,8,0,2,0,true,q,false,true,0.0-2.0-0.32-0.295-3.295,0,0,0,81,false,stim,false,2,760,2,0,1,92553,task1,820378,false,false,985,image-keyboard-response,18
true,8,0,2,0,true,q,false,true,0.0-2.0-0.32-0.296-3.296,0,0,0,81,false,stim,false,2,529,2,0,1,92553,task1,822424,false,false,988,image-keyboard-response,19
true,8,2,2,2,true,d,false,true,0.0-2.0-0.33-0.297-3.297,0,0,0,68,false,stim,false,0,1020,2,0,0,92553,task1,824970,false,false,991,image-keyboard-response,20
true,8,0,2,0,true,q,false,true,0.0-2.0-0.33-0.298-3.298,0,0,0,81,false,stim,false,2,837,2,0,1,92553,task1,827332,false,false,994,image-keyboard-response,21
true,8,2,2,2,true,d,false,true,0.0-2.0-0.33-0.299-3.299,0,0,0,68,false,stim,false,0,690,2,0,0,92553,task1,829541,false,false,997,image-keyboard-response,22
true,8,0,2,0,true,q,false,true,0.0-2.0-0.33-0.300-3.300,0,0,0,81,false,stim,false,2,761,2,0,1,92553,task1,831829,false,false,1000,image-keyboard-response,23
true,8,2,2,2,true,d,false,true,0.0-2.0-0.33-0.301-3.301,0,0,0,68,false,stim,false,0,722,2,0,0,92553,task1,834101,false,false,1003,image-keyboard-response,24
true,8,1,2,1,true,z,false,false,0.0-2.0-0.33-0.302-3.302,0,0,0,90,false,stim,false,0,820,2,0,2,92553,task1,836441,false,true,1006,image-keyboard-response,25
true,8,1,2,1,true,z,false,true,0.0-2.0-0.33-0.303-3.303,0,0,0,90,false,stim,false,0,807,2,0,2,92553,task1,838768,false,false,1009,image-keyboard-response,26
true,8,0,2,0,true,q,false,false,0.0-2.0-0.33-0.304-3.304,0,0,0,81,false,stim,false,2,652,2,0,1,92553,task1,840947,false,true,1012,image-keyboard-response,27
true,8,1,2,1,true,z,false,true,0.0-2.0-0.33-0.305-3.305,0,0,0,90,false,stim,false,0,700,2,0,2,92553,task1,843171,false,false,1015,image-keyboard-response,28
true,8,0,2,0,true,q,false,false,0.0-2.0-0.34-0.306-3.306,0,0,0,81,false,stim,false,2,889,2,0,1,92553,task1,845566,false,true,1018,image-keyboard-response,29
true,8,2,2,2,true,d,false,true,0.0-2.0-0.34-0.307-3.307,0,0,0,68,false,stim,false,0,710,2,0,0,92553,task1,847804,false,false,1021,image-keyboard-response,30
true,8,2,2,2,true,d,false,true,0.0-2.0-0.34-0.308-3.308,0,0,0,68,false,stim,false,0,1103,2,0,0,92553,task1,850418,false,false,1024,image-keyboard-response,31
true,8,1,2,1,true,z,false,true,0.0-2.0-0.34-0.309-3.309,0,0,0,90,false,stim,false,0,756,2,0,2,92553,task1,852692,false,false,1027,image-keyboard-response,32
true,8,2,2,2,true,d,false,true,0.0-2.0-0.34-0.310-3.310,0,0,0,68,false,stim,false,0,714,2,0,0,92553,task1,854914,false,false,1030,image-keyboard-response,33
true,8,1,2,1,true,z,false,true,0.0-2.0-0.34-0.311-3.311,0,0,0,90,false,stim,false,0,1034,2,0,2,92553,task1,857469,false,false,1033,image-keyboard-response,34
true,8,1,2,1,true,z,false,true,0.0-2.0-0.34-0.312-3.312,0,0,0,90,false,stim,false,0,856,2,0,2,92553,task1,859864,false,false,1036,image-keyboard-response,35
false,8,-1,2,0,false,q,true,false,0.0-2.0-0.34-0.313-3.313,0,0,0,,false,stim,false,2,,2,0,1,92553,task1,864397,false,false,1039,image-keyboard-response,36
true,8,2,2,0,false,q,false,false,0.0-2.0-0.34-0.314-3.314,0,0,0,68,false,stim,true,2,726,2,0,1,92553,task1,866632,false,false,1042,image-keyboard-response,37
true,8,1,2,1,true,z,false,false,0.0-2.0-0.35-0.315-3.315,0,0,0,90,false,stim,false,0,979,2,0,2,92553,task1,869125,false,true,1045,image-keyboard-response,38
true,8,1,2,1,true,z,false,true,0.0-2.0-0.35-0.316-3.316,0,0,0,90,false,stim,false,0,809,2,0,2,92553,task1,871444,false,false,1048,image-keyboard-response,39
true,8,2,2,2,true,d,false,true,0.0-2.0-0.35-0.317-3.317,0,0,0,68,false,stim,false,0,975,2,0,0,92553,task1,873945,false,false,1051,image-keyboard-response,40
true,8,1,2,1,true,z,false,true,0.0-2.0-0.35-0.318-3.318,0,0,0,90,false,stim,false,0,1569,2,0,2,92553,task1,877035,false,false,1054,image-keyboard-response,41
true,8,2,2,2,true,d,false,true,0.0-2.0-0.35-0.319-3.319,0,0,0,68,false,stim,false,0,518,2,0,0,92553,task1,879078,false,false,1057,image-keyboard-response,42
true,9,1,2,2,false,d,true,false,0.0-2.0-0.35-0.320-3.320,0,0,0,90,true,stim,false,0,556,2,0,1,92553,task1,881152,false,false,1060,image-keyboard-response,1
true,9,0,2,2,false,d,false,false,0.0-2.0-0.35-0.321-3.321,0,0,0,81,false,stim,true,0,803,2,0,1,92553,task1,883478,false,false,1063,image-keyboard-response,2
true,9,2,2,2,true,d,false,true,0.0-2.0-0.35-0.322-3.322,0,0,0,68,false,stim,false,0,423,2,0,1,92553,task1,885430,false,false,1066,image-keyboard-response,3
true,9,2,2,1,false,z,false,false,0.0-2.0-0.35-0.323-3.323,0,0,0,68,false,stim,true,2,1459,2,0,0,92553,task1,888408,false,false,1069,image-keyboard-response,4
true,9,2,2,1,false,z,false,false,0.0-2.0-0.36-0.324-3.324,0,0,0,68,false,stim,true,2,1432,2,0,0,92553,task1,891360,false,false,1072,image-keyboard-response,5
true,9,1,2,2,false,d,false,true,0.0-2.0-0.36-0.325-3.325,0,0,0,90,false,stim,true,1,888,2,0,2,92553,task1,893776,false,true,1075,image-keyboard-response,6
true,9,1,2,2,false,d,false,false,0.0-2.0-0.36-0.326-3.326,0,0,0,90,false,stim,true,1,1422,2,0,2,92553,task1,896727,false,false,1078,image-keyboard-response,7
true,9,0,2,1,false,z,true,false,0.0-2.0-0.36-0.327-3.327,0,0,0,81,false,stim,false,2,1113,2,0,0,92553,task1,899360,false,false,1081,image-keyboard-response,8
true,9,1,2,1,true,z,false,true,0.0-2.0-0.36-0.328-3.328,0,0,0,90,false,stim,false,2,1239,2,0,0,92553,task1,902133,false,false,1084,image-keyboard-response,9
true,9,2,2,2,true,d,false,true,0.0-2.0-0.36-0.329-3.329,0,0,0,68,false,stim,false,0,627,2,0,1,92553,task1,904277,false,false,1087,image-keyboard-response,10
true,9,1,2,2,false,d,false,false,0.0-2.0-0.36-0.330-3.330,0,0,0,90,false,stim,true,1,946,2,0,2,92553,task1,906761,false,false,1090,image-keyboard-response,11
true,9,2,2,2,true,d,false,true,0.0-2.0-0.36-0.331-3.331,0,0,0,68,false,stim,false,0,886,2,0,1,92553,task1,909164,false,false,1093,image-keyboard-response,12
true,9,2,2,2,true,d,false,true,0.0-2.0-0.36-0.332-3.332,0,0,0,68,false,stim,false,0,803,2,0,1,92553,task1,911492,false,false,1096,image-keyboard-response,13
true,9,2,2,2,true,d,false,true,0.0-2.0-0.37-0.333-3.333,0,0,0,68,false,stim,false,0,522,2,0,1,92553,task1,913531,false,false,1099,image-keyboard-response,14
true,9,0,2,2,false,d,true,false,0.0-2.0-0.37-0.334-3.334,0,0,0,81,false,stim,false,1,565,2,0,2,92553,task1,915630,false,false,1102,image-keyboard-response,15
true,9,1,2,1,true,z,false,false,0.0-2.0-0.37-0.335-3.335,0,0,0,90,false,stim,false,2,1424,2,0,0,92553,task1,918562,false,true,1105,image-keyboard-response,16
true,9,2,2,2,true,d,false,true,0.0-2.0-0.37-0.336-3.336,0,0,0,68,false,stim,false,0,1141,2,0,1,92553,task1,921225,false,false,1108,image-keyboard-response,17
true,9,1,2,2,false,d,false,false,0.0-2.0-0.37-0.337-3.337,0,0,0,90,false,stim,true,1,470,2,0,2,92553,task1,923209,false,false,1111,image-keyboard-response,18
true,9,2,2,1,false,z,false,false,0.0-2.0-0.37-0.338-3.338,0,0,0,68,false,stim,true,2,678,2,0,0,92553,task1,925408,false,false,1114,image-keyboard-response,19
true,9,2,2,2,true,d,false,true,0.0-2.0-0.37-0.339-3.339,0,0,0,68,false,stim,false,1,1415,2,0,2,92553,task1,928331,false,false,1117,image-keyboard-response,20
true,9,1,2,1,true,z,false,true,0.0-2.0-0.37-0.340-3.340,0,0,0,90,false,stim,false,2,523,2,0,0,92553,task1,930373,false,false,1120,image-keyboard-response,21
true,9,2,2,2,true,d,false,true,0.0-2.0-0.37-0.341-3.341,0,0,0,68,false,stim,false,0,697,2,0,1,92553,task1,932603,false,false,1123,image-keyboard-response,22
true,9,2,2,2,true,d,false,true,0.0-2.0-0.38-0.342-3.342,0,0,0,68,false,stim,false,0,1087,2,0,1,92553,task1,935217,false,false,1126,image-keyboard-response,23
true,9,2,2,2,true,d,false,true,0.0-2.0-0.38-0.343-3.343,0,0,0,68,false,stim,false,1,1002,2,0,2,92553,task1,937733,false,false,1129,image-keyboard-response,24
true,9,2,2,2,true,d,false,true,0.0-2.0-0.38-0.344-3.344,0,0,0,68,false,stim,false,0,722,2,0,1,92553,task1,939979,false,false,1132,image-keyboard-response,25
true,9,1,2,1,true,z,false,true,0.0-2.0-0.38-0.345-3.345,0,0,0,90,false,stim,false,2,1052,2,0,0,92553,task1,942562,false,false,1135,image-keyboard-response,26
true,9,2,2,2,true,d,false,true,0.0-2.0-0.38-0.346-3.346,0,0,0,68,false,stim,false,0,826,2,0,1,92553,task1,944903,false,false,1138,image-keyboard-response,27
true,9,1,2,1,true,z,false,true,0.0-2.0-0.38-0.347-3.347,0,0,0,90,false,stim,false,2,1460,2,0,0,92553,task1,947886,false,false,1141,image-keyboard-response,28
true,9,2,2,2,true,d,false,true,0.0-2.0-0.38-0.348-3.348,0,0,0,68,false,stim,false,1,835,2,0,2,92553,task1,950250,false,false,1144,image-keyboard-response,29
true,9,2,2,2,true,d,false,false,0.0-2.0-0.38-0.349-3.349,0,0,0,68,false,stim,false,1,1706,2,0,2,92553,task1,953494,false,true,1147,image-keyboard-response,30
true,9,1,2,1,true,z,false,true,0.0-2.0-0.38-0.350-3.350,0,0,0,90,false,stim,false,2,800,2,0,0,92553,task1,955825,false,false,1150,image-keyboard-response,31
true,9,1,2,1,true,z,false,true,0.0-2.0-0.39-0.351-3.351,0,0,0,90,false,stim,false,2,612,2,0,0,92553,task1,957967,false,false,1153,image-keyboard-response,32
true,9,2,2,2,true,d,false,true,0.0-2.0-0.39-0.352-3.352,0,0,0,68,false,stim,false,1,789,2,0,2,92553,task1,960289,false,false,1156,image-keyboard-response,33
true,9,2,2,2,true,d,false,true,0.0-2.0-0.39-0.353-3.353,0,0,0,68,false,stim,false,1,802,2,0,2,92553,task1,962610,false,false,1159,image-keyboard-response,34
true,9,2,2,2,true,d,false,true,0.0-2.0-0.39-0.354-3.354,0,0,0,68,false,stim,false,0,538,2,0,1,92553,task1,964669,false,false,1162,image-keyboard-response,35
true,9,2,2,2,true,d,false,true,0.0-2.0-0.39-0.355-3.355,0,0,0,68,false,stim,false,1,608,2,0,2,92553,task1,966802,false,false,1165,image-keyboard-response,36
true,9,2,2,2,true,d,false,true,0.0-2.0-0.39-0.356-3.356,0,0,0,68,false,stim,false,0,780,2,0,1,92553,task1,969104,false,false,1168,image-keyboard-response,37
true,9,1,2,1,true,z,false,true,0.0-2.0-0.39-0.357-3.357,0,0,0,90,false,stim,false,2,643,2,0,0,92553,task1,971264,false,false,1171,image-keyboard-response,38
true,9,1,2,1,true,z,false,true,0.0-2.0-0.39-0.358-3.358,0,0,0,90,false,stim,false,2,479,2,0,0,92553,task1,973260,false,false,1174,image-keyboard-response,39
true,9,2,2,2,true,d,false,true,0.0-2.0-0.39-0.359-3.359,0,0,0,68,false,stim,false,0,1038,2,0,1,92553,task1,975833,false,false,1177,image-keyboard-response,40
true,9,2,2,2,true,d,false,true,0.0-2.0-0.40-0.360-3.360,0,0,0,68,false,stim,false,1,1165,2,0,2,92553,task1,978519,false,false,1180,image-keyboard-response,41
true,9,1,2,1,true,z,false,true,0.0-2.0-0.40-0.361-3.361,0,0,0,90,false,stim,false,2,1172,2,0,0,92553,task1,981222,false,false,1183,image-keyboard-response,42
true,9,2,2,2,true,d,false,true,0.0-2.0-0.40-0.362-3.362,0,0,0,68,false,stim,false,1,993,2,0,2,92553,task1,983738,false,false,1186,image-keyboard-response,43
true,9,2,2,2,true,d,false,true,0.0-2.0-0.40-0.363-3.363,0,0,0,68,false,stim,false,0,963,2,0,1,92553,task1,986213,false,false,1189,image-keyboard-response,44
true,10,2,2,0,false,q,false,false,0.0-2.0-0.40-0.364-3.364,0,0,0,68,true,stim,true,2,639,2,0,1,92553,task1,988380,false,false,1192,image-keyboard-response,1
true,10,2,2,0,false,q,false,false,0.0-2.0-0.40-0.365-3.365,0,0,0,68,false,stim,true,2,924,2,0,1,92553,task1,990829,false,false,1195,image-keyboard-response,2
true,10,1,2,2,false,d,false,true,0.0-2.0-0.40-0.366-3.366,0,0,0,90,false,stim,true,1,2047,2,0,0,92553,task1,994398,false,true,1198,image-keyboard-response,3
true,10,1,2,2,false,d,false,false,0.0-2.0-0.40-0.367-3.367,0,0,0,90,false,stim,true,1,815,2,0,0,92553,task1,996758,false,false,1201,image-keyboard-response,4
true,10,0,2,1,false,z,true,false,0.0-2.0-0.40-0.368-3.368,0,0,0,81,false,stim,false,2,1428,2,0,2,92553,task1,999708,false,false,1204,image-keyboard-response,5
true,10,2,2,1,false,z,false,false,0.0-2.0-0.41-0.369-3.369,0,0,0,68,false,stim,true,2,525,2,0,2,92553,task1,1001760,false,false,1207,image-keyboard-response,6
true,10,1,2,1,true,z,false,true,0.0-2.0-0.41-0.370-3.370,0,0,0,90,false,stim,false,2,535,2,0,2,92553,task1,1003816,false,false,1210,image-keyboard-response,7
true,10,2,2,0,false,q,false,false,0.0-2.0-0.41-0.371-3.371,0,0,0,68,false,stim,true,2,1036,2,0,1,92553,task1,1006377,false,false,1213,image-keyboard-response,8
true,10,2,2,0,false,q,false,false,0.0-2.0-0.41-0.372-3.372,0,0,0,68,false,stim,true,2,588,2,0,1,92553,task1,1008489,false,false,1216,image-keyboard-response,9
true,10,1,2,2,false,d,false,false,0.0-2.0-0.41-0.373-3.373,0,0,0,90,false,stim,true,1,854,2,0,0,92553,task1,1010861,false,false,1219,image-keyboard-response,10
true,10,0,2,2,false,d,true,false,0.0-2.0-0.41-0.374-3.374,0,0,0,81,false,stim,false,1,517,2,0,0,92553,task1,1012907,false,false,1222,image-keyboard-response,11
true,10,2,2,2,true,d,false,true,0.0-2.0-0.41-0.375-3.375,0,0,0,68,false,stim,false,1,439,2,0,0,92553,task1,1014860,false,false,1225,image-keyboard-response,12
true,10,1,2,0,false,q,true,false,0.0-2.0-0.41-0.376-3.376,0,0,0,90,false,stim,false,2,1424,2,0,1,92553,task1,1017803,false,false,1228,image-keyboard-response,13
true,10,1,2,1,true,z,false,true,0.0-2.0-0.41-0.377-3.377,0,0,0,90,false,stim,false,2,957,2,0,2,92553,task1,1020282,false,false,1231,image-keyboard-response,14
true,10,1,2,1,true,z,false,true,0.0-2.0-0.42-0.378-3.378,0,0,0,90,false,stim,false,2,665,2,0,2,92553,task1,1022470,false,false,1234,image-keyboard-response,15
true,10,2,2,0,false,q,false,false,0.0-2.0-0.42-0.379-3.379,0,0,0,68,false,stim,true,2,1310,2,0,1,92553,task1,1025305,false,false,1237,image-keyboard-response,16
true,10,2,2,2,true,d,false,true,0.0-2.0-0.42-0.380-3.380,0,0,0,68,false,stim,false,1,630,2,0,0,92553,task1,1027450,false,false,1240,image-keyboard-response,17
true,10,2,2,2,true,d,false,true,0.0-2.0-0.42-0.381-3.381,0,0,0,68,false,stim,false,1,592,2,0,0,92553,task1,1029551,false,false,1243,image-keyboard-response,18
true,10,1,2,1,true,z,false,true,0.0-2.0-0.42-0.382-3.382,0,0,0,90,false,stim,false,2,692,2,0,2,92553,task1,1031763,false,false,1246,image-keyboard-response,19
true,10,0,2,0,true,q,false,true,0.0-2.0-0.42-0.383-3.383,0,0,0,81,false,stim,false,2,773,2,0,1,92553,task1,1034068,false,false,1249,image-keyboard-response,20
true,10,0,2,0,true,q,false,true,0.0-2.0-0.42-0.384-3.384,0,0,0,81,false,stim,false,2,528,2,0,1,92553,task1,1036118,false,false,1252,image-keyboard-response,21
true,10,2,2,2,true,d,false,true,0.0-2.0-0.42-0.385-3.385,0,0,0,68,false,stim,false,1,1440,2,0,0,92553,task1,1039080,false,false,1255,image-keyboard-response,22
true,10,1,2,1,true,z,false,false,0.0-2.0-0.42-0.386-3.386,0,0,0,90,false,stim,false,2,695,2,0,2,92553,task1,1041290,false,true,1258,image-keyboard-response,23
true,10,1,2,1,true,z,false,true,0.0-2.0-0.43-0.387-3.387,0,0,0,90,false,stim,false,2,2253,2,0,2,92553,task1,1045068,false,false,1261,image-keyboard-response,24
true,10,0,2,0,true,q,false,true,0.0-2.0-0.43-0.388-3.388,0,0,0,81,false,stim,false,2,777,2,0,1,92553,task1,1047385,false,false,1264,image-keyboard-response,25
true,10,2,2,2,true,d,false,true,0.0-2.0-0.43-0.389-3.389,0,0,0,68,false,stim,false,1,516,2,0,0,92553,task1,1049410,false,false,1267,image-keyboard-response,26
true,10,0,2,0,true,q,false,true,0.0-2.0-0.43-0.390-3.390,0,0,0,81,false,stim,false,2,948,2,0,1,92553,task1,1051885,false,false,1270,image-keyboard-response,27
true,10,1,2,1,true,z,false,false,0.0-2.0-0.43-0.391-3.391,0,0,0,90,false,stim,false,2,786,2,0,2,92553,task1,1054187,false,true,1273,image-keyboard-response,28
true,10,0,2,0,true,q,false,true,0.0-2.0-0.43-0.392-3.392,0,0,0,81,false,stim,false,2,1386,2,0,1,92553,task1,1057099,false,false,1276,image-keyboard-response,29
true,10,2,2,2,true,d,false,true,0.0-2.0-0.43-0.393-3.393,0,0,0,68,false,stim,false,1,666,2,0,0,92553,task1,1059278,false,false,1279,image-keyboard-response,30
true,10,2,2,2,true,d,false,true,0.0-2.0-0.43-0.394-3.394,0,0,0,68,false,stim,false,1,542,2,0,0,92553,task1,1061340,false,false,1282,image-keyboard-response,31
true,10,1,2,1,true,z,false,true,0.0-2.0-0.43-0.395-3.395,0,0,0,90,false,stim,false,2,979,2,0,2,92553,task1,1063841,false,false,1285,image-keyboard-response,32
true,10,1,2,1,true,z,false,true,0.0-2.0-0.44-0.396-3.396,0,0,0,90,false,stim,false,2,449,2,0,2,92553,task1,1065802,false,false,1288,image-keyboard-response,33
true,10,2,2,2,true,d,false,true,0.0-2.0-0.44-0.397-3.397,0,0,0,68,false,stim,false,1,1123,2,0,0,92553,task1,1068445,false,false,1291,image-keyboard-response,34
true,10,0,2,0,true,q,false,true,0.0-2.0-0.44-0.398-3.398,0,0,0,81,false,stim,false,2,617,2,0,1,92553,task1,1070582,false,false,1294,image-keyboard-response,35
true,10,1,2,1,true,z,false,true,0.0-2.0-0.44-0.399-3.399,0,0,0,90,false,stim,false,2,777,2,0,2,92553,task1,1072877,false,false,1297,image-keyboard-response,36
true,10,2,2,2,true,d,false,true,0.0-2.0-0.44-0.400-3.400,0,0,0,68,false,stim,false,1,887,2,0,0,92553,task1,1075287,false,false,1300,image-keyboard-response,37
true,10,0,2,0,true,q,false,true,0.0-2.0-0.44-0.401-3.401,0,0,0,81,false,stim,false,2,1411,2,0,1,92553,task1,1078235,false,false,1303,image-keyboard-response,38
true,10,0,2,0,true,q,false,false,0.0-2.0-0.44-0.402-3.402,0,0,0,81,false,stim,false,2,798,2,0,1,92553,task1,1080562,false,true,1306,image-keyboard-response,39
true,11,1,2,2,false,d,false,false,0.0-2.0-0.44-0.403-3.403,0,0,0,90,true,stim,true,1,484,2,0,2,92553,task1,1082560,false,false,1309,image-keyboard-response,1
true,11,2,2,1,false,z,false,false,0.0-2.0-0.44-0.404-3.404,0,0,0,68,false,stim,true,2,452,2,0,0,92553,task1,1084542,false,false,1312,image-keyboard-response,2
true,11,2,2,1,false,z,false,true,0.0-2.0-0.45-0.405-3.405,0,0,0,68,false,stim,true,2,437,2,0,0,92553,task1,1086509,false,true,1315,image-keyboard-response,3
true,11,0,2,2,false,d,false,false,0.0-2.0-0.45-0.406-3.406,0,0,0,81,false,stim,true,0,692,2,0,1,92553,task1,1088717,false,false,1318,image-keyboard-response,4
true,11,1,2,2,false,d,true,false,0.0-2.0-0.45-0.407-3.407,0,0,0,90,false,stim,false,0,649,2,0,1,92553,task1,1090894,false,false,1321,image-keyboard-response,5
true,11,1,2,2,false,d,false,true,0.0-2.0-0.45-0.408-3.408,0,0,0,90,false,stim,true,1,764,2,0,2,92553,task1,1093182,false,true,1324,image-keyboard-response,6
true,11,1,2,2,false,d,false,true,0.0-2.0-0.45-0.409-3.409,0,0,0,90,false,stim,true,1,785,2,0,2,92553,task1,1095485,false,true,1327,image-keyboard-response,7
true,11,1,2,2,false,d,false,false,0.0-2.0-0.45-0.410-3.410,0,0,0,90,false,stim,true,1,663,2,0,2,92553,task1,1097663,false,false,1330,image-keyboard-response,8
true,11,2,2,1,false,z,false,false,0.0-2.0-0.45-0.411-3.411,0,0,0,68,false,stim,true,2,624,2,0,0,92553,task1,1099810,false,false,1333,image-keyboard-response,9
true,11,2,2,1,false,z,false,false,0.0-2.0-0.45-0.412-3.412,0,0,0,68,false,stim,true,2,646,2,0,0,92553,task1,1101981,false,false,1336,image-keyboard-response,10
true,11,2,2,2,true,d,false,true,0.0-2.0-0.45-0.413-3.413,0,0,0,68,false,stim,false,0,836,2,0,1,92553,task1,1104342,false,false,1339,image-keyboard-response,11
true,11,1,2,2,false,d,false,false,0.0-2.0-0.46-0.414-3.414,0,0,0,90,false,stim,true,1,1196,2,0,2,92553,task1,1107071,false,false,1342,image-keyboard-response,12
true,11,0,2,1,false,z,true,false,0.0-2.0-0.46-0.415-3.415,0,0,0,81,false,stim,false,2,902,2,0,0,92553,task1,1109496,false,false,1345,image-keyboard-response,13
true,11,1,2,1,true,z,false,true,0.0-2.0-0.46-0.416-3.416,0,0,0,90,false,stim,false,2,454,2,0,0,92553,task1,1111471,false,false,1348,image-keyboard-response,14
true,11,1,2,1,true,z,false,true,0.0-2.0-0.46-0.417-3.417,0,0,0,90,false,stim,false,2,623,2,0,0,92553,task1,1113631,false,false,1351,image-keyboard-response,15
true,11,2,2,2,true,d,false,true,0.0-2.0-0.46-0.418-3.418,0,0,0,68,false,stim,false,0,724,2,0,1,92553,task1,1115874,false,false,1354,image-keyboard-response,16
true,11,2,2,2,true,d,false,true,0.0-2.0-0.46-0.419-3.419,0,0,0,68,false,stim,false,0,502,2,0,1,92553,task1,1117893,false,false,1357,image-keyboard-response,17
true,11,2,2,2,true,d,false,false,0.0-2.0-0.46-0.420-3.420,0,0,0,68,false,stim,false,0,431,2,0,1,92553,task1,1119849,false,true,1360,image-keyboard-response,18
true,11,0,2,2,false,d,true,false,0.0-2.0-0.46-0.421-3.421,0,0,0,81,false,stim,false,1,1122,2,0,2,92553,task1,1122492,false,false,1363,image-keyboard-response,19
true,11,1,2,2,false,d,false,false,0.0-2.0-0.46-0.422-3.422,0,0,0,90,false,stim,true,1,519,2,0,2,92553,task1,1124533,false,false,1366,image-keyboard-response,20
true,11,2,2,2,true,d,false,true,0.0-2.0-0.47-0.423-3.423,0,0,0,68,false,stim,false,0,1042,2,0,1,92553,task1,1127091,false,false,1369,image-keyboard-response,21
true,11,1,2,1,true,z,false,true,0.0-2.0-0.47-0.424-3.424,0,0,0,90,false,stim,false,2,889,2,0,0,92553,task1,1129514,false,false,1372,image-keyboard-response,22
true,11,2,2,2,true,d,false,true,0.0-2.0-0.47-0.425-3.425,0,0,0,68,false,stim,false,0,713,2,0,1,92553,task1,1131750,false,false,1375,image-keyboard-response,23
true,11,2,2,2,true,d,false,true,0.0-2.0-0.47-0.426-3.426,0,0,0,68,false,stim,false,0,867,2,0,1,92553,task1,1134144,false,false,1378,image-keyboard-response,24
true,11,1,2,1,true,z,false,true,0.0-2.0-0.47-0.427-3.427,0,0,0,90,false,stim,false,2,407,2,0,0,92553,task1,1136063,false,false,1381,image-keyboard-response,25
true,11,2,2,2,true,d,false,true,0.0-2.0-0.47-0.428-3.428,0,0,0,68,false,stim,false,1,891,2,0,2,92553,task1,1138482,false,false,1384,image-keyboard-response,26
true,11,1,2,1,true,z,false,true,0.0-2.0-0.47-0.429-3.429,0,0,0,90,false,stim,false,2,671,2,0,0,92553,task1,1140668,false,false,1387,image-keyboard-response,27
true,11,2,2,2,true,d,false,true,0.0-2.0-0.47-0.430-3.430,0,0,0,68,false,stim,false,1,754,2,0,2,92553,task1,1142945,false,false,1390,image-keyboard-response,28
true,11,2,2,2,true,d,false,false,0.0-2.0-0.47-0.431-3.431,0,0,0,68,false,stim,false,1,901,2,0,2,92553,task1,1145370,false,true,1393,image-keyboard-response,29
true,11,2,2,2,true,d,false,true,0.0-2.0-0.48-0.432-3.432,0,0,0,68,false,stim,false,1,438,2,0,2,92553,task1,1147320,false,false,1396,image-keyboard-response,30
true,11,2,2,2,true,d,false,true,0.0-2.0-0.48-0.433-3.433,0,0,0,68,false,stim,false,0,872,2,0,1,92553,task1,1149714,false,false,1399,image-keyboard-response,31
true,11,2,2,2,true,d,false,true,0.0-2.0-0.48-0.434-3.434,0,0,0,68,false,stim,false,1,940,2,0,2,92553,task1,1152194,false,false,1402,image-keyboard-response,32
true,11,2,2,2,true,d,false,true,0.0-2.0-0.48-0.435-3.435,0,0,0,68,false,stim,false,1,746,2,0,2,92553,task1,1154453,false,false,1405,image-keyboard-response,33
true,11,2,2,2,true,d,false,true,0.0-2.0-0.48-0.436-3.436,0,0,0,68,false,stim,false,0,1308,2,0,1,92553,task1,1157292,false,false,1408,image-keyboard-response,34
true,11,1,2,1,true,z,false,true,0.0-2.0-0.48-0.437-3.437,0,0,0,90,false,stim,false,2,1042,2,0,0,92553,task1,1159847,false,false,1411,image-keyboard-response,35
true,11,1,2,1,true,z,false,true,0.0-2.0-0.48-0.438-3.438,0,0,0,90,false,stim,false,2,505,2,0,0,92553,task1,1161881,false,false,1414,image-keyboard-response,36
true,11,1,2,1,true,z,false,true,0.0-2.0-0.48-0.439-3.439,0,0,0,90,false,stim,false,2,477,2,0,0,92553,task1,1163877,false,false,1417,image-keyboard-response,37
true,11,2,2,2,true,d,false,false,0.0-2.0-0.48-0.440-3.440,0,0,0,68,false,stim,false,0,571,2,0,1,92553,task1,1165971,false,true,1420,image-keyboard-response,38
true,11,2,2,2,true,d,false,true,0.0-2.0-0.49-0.441-3.441,0,0,0,68,false,stim,false,0,553,2,0,1,92553,task1,1168058,false,false,1423,image-keyboard-response,39
true,11,2,2,2,true,d,false,true,0.0-2.0-0.49-0.442-3.442,0,0,0,68,false,stim,false,0,415,2,0,1,92553,task1,1169996,false,false,1426,image-keyboard-response,40
true,11,2,2,1,false,z,false,false,0.0-2.0-0.49-0.443-3.443,0,0,0,68,false,stim,true,2,521,2,0,0,92553,task1,1172042,false,false,1429,image-keyboard-response,41
true,12,1,1,0,false,q,false,true,0.0-2.0-0.49-0.444-3.444,0,0,0,90,true,stim,true,1,461,2,0,0,92553,task1,1174022,false,true,1432,image-keyboard-response,1
true,12,1,1,0,false,q,false,false,0.0-2.0-0.49-0.445-3.445,0,0,0,90,false,stim,true,1,573,2,0,0,92553,task1,1176118,false,false,1435,image-keyboard-response,2
true,12,2,1,1,false,z,false,false,0.0-2.0-0.49-0.446-3.446,0,0,0,68,false,stim,true,2,738,2,0,1,92553,task1,1178373,false,false,1438,image-keyboard-response,3
true,12,2,1,0,false,q,false,false,0.0-2.0-0.49-0.447-3.447,0,0,0,68,false,stim,true,2,656,2,0,2,92553,task1,1180546,false,false,1441,image-keyboard-response,4
true,12,2,1,0,false,q,false,false,0.0-2.0-0.49-0.448-3.448,0,0,0,68,false,stim,true,2,929,2,0,2,92553,task1,1183014,false,false,1444,image-keyboard-response,5
true,12,2,1,0,false,q,false,false,0.0-2.0-0.49-0.449-3.449,0,0,0,68,false,stim,true,2,1554,2,0,2,92553,task1,1186084,false,false,1447,image-keyboard-response,6
true,12,1,1,0,false,q,false,false,0.0-2.0-0.50-0.450-3.450,0,0,0,90,false,stim,true,1,1078,2,0,0,92553,task1,1188679,false,false,1450,image-keyboard-response,7
true,12,0,1,0,true,q,false,true,0.0-2.0-0.50-0.451-3.451,0,0,0,81,false,stim,false,2,1479,2,0,2,92553,task1,1191688,false,false,1453,image-keyboard-response,8
true,12,2,1,0,false,q,true,false,0.0-2.0-0.50-0.452-3.452,0,0,0,68,false,stim,false,1,1758,2,0,0,92553,task1,1194973,false,false,1456,image-keyboard-response,9
true,12,1,1,1,true,z,false,false,0.0-2.0-0.50-0.453-3.453,0,0,0,90,false,stim,false,2,1858,2,0,1,92553,task1,1198357,false,true,1459,image-keyboard-response,10
true,12,0,1,0,true,q,false,true,0.0-2.0-0.50-0.454-3.454,0,0,0,81,false,stim,false,2,1754,2,0,2,92553,task1,1201640,false,false,1462,image-keyboard-response,11
true,12,0,1,0,true,q,false,true,0.0-2.0-0.50-0.455-3.455,0,0,0,81,false,stim,false,1,597,2,0,0,92553,task1,1203759,false,false,1465,image-keyboard-response,12
true,12,0,1,1,false,z,true,false,0.0-2.0-0.50-0.456-3.456,0,0,0,81,false,stim,false,2,348,2,0,1,92553,task1,1205638,false,false,1468,image-keyboard-response,13
true,12,0,1,0,true,q,false,true,0.0-2.0-0.50-0.457-3.457,0,0,0,81,false,stim,false,2,1136,2,0,2,92553,task1,1208291,false,false,1471,image-keyboard-response,14
true,12,1,1,1,true,z,false,true,0.0-2.0-0.50-0.458-3.458,0,0,0,90,false,stim,false,2,816,2,0,1,92553,task1,1210634,false,false,1474,image-keyboard-response,15
true,12,0,1,0,true,q,false,true,0.0-2.0-0.51-0.459-3.459,0,0,0,81,false,stim,false,2,953,2,0,2,92553,task1,1213099,false,false,1477,image-keyboard-response,16
true,12,1,1,1,true,z,false,true,0.0-2.0-0.51-0.460-3.460,0,0,0,90,false,stim,false,2,1565,2,0,1,92553,task1,1216189,false,false,1480,image-keyboard-response,17
true,12,1,1,1,true,z,false,true,0.0-2.0-0.51-0.461-3.461,0,0,0,90,false,stim,false,2,616,2,0,1,92553,task1,1218331,false,false,1483,image-keyboard-response,18
true,12,1,1,1,true,z,false,true,0.0-2.0-0.51-0.462-3.462,0,0,0,90,false,stim,false,2,415,2,0,1,92553,task1,1220262,false,false,1486,image-keyboard-response,19
true,12,0,1,0,true,q,false,true,0.0-2.0-0.51-0.463-3.463,0,0,0,81,false,stim,false,1,2087,2,0,0,92553,task1,1223878,false,false,1489,image-keyboard-response,20
true,12,0,1,0,true,q,false,true,0.0-2.0-0.51-0.464-3.464,0,0,0,81,false,stim,false,1,566,2,0,0,92553,task1,1225972,false,false,1492,image-keyboard-response,21
true,12,0,1,0,true,q,false,true,0.0-2.0-0.51-0.465-3.465,0,0,0,81,false,stim,false,2,1316,2,0,2,92553,task1,1228812,false,false,1495,image-keyboard-response,22
true,12,0,1,0,true,q,false,true,0.0-2.0-0.51-0.466-3.466,0,0,0,81,false,stim,false,2,873,2,0,2,92553,task1,1231197,false,false,1498,image-keyboard-response,23
true,12,0,1,0,true,q,false,true,0.0-2.0-0.51-0.467-3.467,0,0,0,81,false,stim,false,1,1103,2,0,0,92553,task1,1233849,false,false,1501,image-keyboard-response,24
true,12,0,1,0,true,q,false,true,0.0-2.0-0.52-0.468-3.468,0,0,0,81,false,stim,false,2,850,2,0,2,92553,task1,1236218,false,false,1504,image-keyboard-response,25
true,12,0,1,0,true,q,false,true,0.0-2.0-0.52-0.469-3.469,0,0,0,81,false,stim,false,2,440,2,0,2,92553,task1,1238180,false,false,1507,image-keyboard-response,26
true,12,1,1,1,true,z,false,true,0.0-2.0-0.52-0.470-3.470,0,0,0,90,false,stim,false,2,926,2,0,1,92553,task1,1240631,false,false,1510,image-keyboard-response,27
true,12,1,1,1,true,z,false,true,0.0-2.0-0.52-0.471-3.471,0,0,0,90,false,stim,false,2,1641,2,0,1,92553,task1,1243793,false,false,1513,image-keyboard-response,28
true,12,1,1,1,true,z,false,true,0.0-2.0-0.52-0.472-3.472,0,0,0,90,false,stim,false,2,498,2,0,1,92553,task1,1245813,false,false,1516,image-keyboard-response,29
true,12,0,1,0,true,q,false,true,0.0-2.0-0.52-0.473-3.473,0,0,0,81,false,stim,false,1,958,2,0,0,92553,task1,1248292,false,false,1519,image-keyboard-response,30
true,12,0,1,0,true,q,false,true,0.0-2.0-0.52-0.474-3.474,0,0,0,81,false,stim,false,1,1316,2,0,0,92553,task1,1251136,false,false,1522,image-keyboard-response,31
true,12,0,1,0,true,q,false,true,0.0-2.0-0.52-0.475-3.475,0,0,0,81,false,stim,false,2,1636,2,0,2,92553,task1,1254300,false,false,1525,image-keyboard-response,32
true,12,0,1,0,true,q,false,true,0.0-2.0-0.52-0.476-3.476,0,0,0,81,false,stim,false,1,908,2,0,0,92553,task1,1256723,false,false,1528,image-keyboard-response,33
true,12,0,1,0,true,q,false,true,0.0-2.0-0.53-0.477-3.477,0,0,0,81,false,stim,false,1,434,2,0,0,92553,task1,1258676,false,false,1531,image-keyboard-response,34
true,12,1,1,1,true,z,false,true,0.0-2.0-0.53-0.478-3.478,0,0,0,90,false,stim,false,2,600,2,0,1,92553,task1,1260791,false,false,1534,image-keyboard-response,35
true,12,1,1,1,true,z,false,true,0.0-2.0-0.53-0.479-3.479,0,0,0,90,false,stim,false,2,557,2,0,1,92553,task1,1262864,false,false,1537,image-keyboard-response,36
true,12,1,1,1,true,z,false,false,0.0-2.0-0.53-0.480-3.480,0,0,0,90,false,stim,false,2,515,2,0,1,92553,task1,1264901,false,true,1540,image-keyboard-response,37
true,12,0,1,0,true,q,false,true,0.0-2.0-0.53-0.481-3.481,0,0,0,81,false,stim,false,1,959,2,0,0,92553,task1,1267388,false,false,1543,image-keyboard-response,38
true,12,0,1,0,true,q,false,false,0.0-2.0-0.53-0.482-3.482,0,0,0,81,false,stim,false,2,1493,2,0,2,92553,task1,1270412,false,true,1546,image-keyboard-response,39
true,13,0,2,2,false,d,false,false,0.0-2.0-0.53-0.483-3.483,0,0,0,81,true,stim,true,0,802,2,0,2,92553,task1,1272747,false,false,1549,image-keyboard-response,1
true,13,0,2,1,false,z,false,false,0.0-2.0-0.53-0.484-3.484,0,0,0,81,false,stim,true,0,1849,2,0,0,92553,task1,1276114,false,false,1552,image-keyboard-response,2
true,13,1,2,2,false,d,true,false,0.0-2.0-0.53-0.485-3.485,0,0,0,90,false,stim,false,0,1287,2,0,2,92553,task1,1278927,false,false,1555,image-keyboard-response,3
true,13,2,2,2,true,d,false,true,0.0-2.0-0.54-0.486-3.486,0,0,0,68,false,stim,false,0,449,2,0,2,92553,task1,1280896,false,false,1558,image-keyboard-response,4
true,13,1,2,1,true,z,false,false,0.0-2.0-0.54-0.487-3.487,0,0,0,90,false,stim,false,0,720,2,0,0,92553,task1,1283138,false,true,1561,image-keyboard-response,5
true,13,2,2,2,true,d,false,true,0.0-2.0-0.54-0.488-3.488,0,0,0,68,false,stim,false,0,923,2,0,2,92553,task1,1285582,false,false,1564,image-keyboard-response,6
true,13,1,2,2,false,d,false,false,0.0-2.0-0.54-0.489-3.489,0,0,0,90,false,stim,true,1,1628,2,0,1,92553,task1,1288727,false,false,1567,image-keyboard-response,7
true,13,0,2,2,false,d,true,false,0.0-2.0-0.54-0.490-3.490,0,0,0,81,false,stim,false,1,453,2,0,1,92553,task1,1290711,false,false,1570,image-keyboard-response,8
true,13,2,2,1,false,z,true,false,0.0-2.0-0.54-0.491-3.491,0,0,0,68,false,stim,false,0,1373,2,0,0,92553,task1,1293598,false,false,1573,image-keyboard-response,9
true,13,1,2,1,true,z,false,true,0.0-2.0-0.54-0.492-3.492,0,0,0,90,false,stim,false,0,1624,2,0,0,92553,task1,1296739,false,false,1576,image-keyboard-response,10
true,13,2,2,2,true,d,false,true,0.0-2.0-0.54-0.493-3.493,0,0,0,68,false,stim,false,0,465,2,0,2,92553,task1,1298715,false,false,1579,image-keyboard-response,11
true,13,0,2,2,false,d,true,false,0.0-2.0-0.54-0.494-3.494,0,0,0,81,false,stim,false,1,432,2,0,1,92553,task1,1300667,false,false,1582,image-keyboard-response,12
true,13,1,2,1,true,z,false,true,0.0-2.0-0.55-0.495-3.495,0,0,0,90,false,stim,false,0,766,2,0,0,92553,task1,1302954,false,false,1585,image-keyboard-response,13
true,13,2,2,2,true,d,false,false,0.0-2.0-0.55-0.496-3.496,0,0,0,68,false,stim,false,0,468,2,0,2,92553,task1,1304933,false,true,1588,image-keyboard-response,14
true,13,2,2,2,true,d,false,true,0.0-2.0-0.55-0.497-3.497,0,0,0,68,false,stim,false,0,620,2,0,2,92553,task1,1307078,false,false,1591,image-keyboard-response,15
true,13,1,2,2,false,d,false,false,0.0-2.0-0.55-0.498-3.498,0,0,0,90,false,stim,true,1,703,2,0,1,92553,task1,1309302,false,false,1594,image-keyboard-response,16
true,13,1,2,1,true,z,false,true,0.0-2.0-0.55-0.499-3.499,0,0,0,90,false,stim,false,0,1017,2,0,0,92553,task1,1311838,false,false,1597,image-keyboard-response,17
true,13,1,2,1,true,z,false,true,0.0-2.0-0.55-0.500-3.500,0,0,0,90,false,stim,false,0,1668,2,0,0,92553,task1,1315028,false,false,1600,image-keyboard-response,18
true,13,2,2,2,true,d,false,false,0.0-2.0-0.55-0.501-3.501,0,0,0,68,false,stim,false,1,627,2,0,1,92553,task1,1317195,false,true,1603,image-keyboard-response,19
true,13,0,2,2,false,d,true,false,0.0-2.0-0.55-0.502-3.502,0,0,0,81,false,stim,false,1,963,2,0,1,92553,task1,1319673,false,false,1606,image-keyboard-response,20
true,13,2,2,2,true,d,false,true,0.0-2.0-0.55-0.503-3.503,0,0,0,68,false,stim,false,0,1335,2,0,2,92553,task1,1322524,false,false,1609,image-keyboard-response,21
true,13,2,2,2,true,d,false,true,0.0-2.0-0.56-0.504-3.504,0,0,0,68,false,stim,false,0,734,2,0,2,92553,task1,1324780,false,false,1612,image-keyboard-response,22
true,13,2,2,2,true,d,false,true,0.0-2.0-0.56-0.505-3.505,0,0,0,68,false,stim,false,0,893,2,0,2,92553,task1,1327195,false,false,1615,image-keyboard-response,23
true,13,1,2,1,true,z,false,false,0.0-2.0-0.56-0.506-3.506,0,0,0,90,false,stim,false,0,465,2,0,0,92553,task1,1329181,false,true,1618,image-keyboard-response,24
true,13,1,2,2,false,d,false,false,0.0-2.0-0.56-0.507-3.507,0,0,0,90,false,stim,true,1,655,2,0,1,92553,task1,1331369,false,false,1621,image-keyboard-response,25
true,13,1,2,1,true,z,false,true,0.0-2.0-0.56-0.508-3.508,0,0,0,90,false,stim,false,0,1623,2,0,0,92553,task1,1334521,false,false,1624,image-keyboard-response,26
true,13,2,2,2,true,d,false,true,0.0-2.0-0.56-0.509-3.509,0,0,0,68,false,stim,false,1,1070,2,0,1,92553,task1,1337113,false,false,1627,image-keyboard-response,27
true,13,2,2,2,true,d,false,true,0.0-2.0-0.56-0.510-3.510,0,0,0,68,false,stim,false,1,436,2,0,1,92553,task1,1339066,false,false,1630,image-keyboard-response,28
true,13,1,2,1,true,z,false,true,0.0-2.0-0.56-0.511-3.511,0,0,0,90,false,stim,false,0,870,2,0,0,92553,task1,1341464,false,false,1633,image-keyboard-response,29
true,13,2,2,2,true,d,false,true,0.0-2.0-0.56-0.512-3.512,0,0,0,68,false,stim,false,0,679,2,0,2,92553,task1,1343668,false,false,1636,image-keyboard-response,30
true,13,2,2,2,true,d,false,true,0.0-2.0-0.57-0.513-3.513,0,0,0,68,false,stim,false,1,1440,2,0,1,92553,task1,1346630,false,false,1639,image-keyboard-response,31
true,13,1,2,1,true,z,false,false,0.0-2.0-0.57-0.514-3.514,0,0,0,90,false,stim,false,0,1155,2,0,0,92553,task1,1349305,false,true,1642,image-keyboard-response,32
true,13,2,2,2,true,d,false,true,0.0-2.0-0.57-0.515-3.515,0,0,0,68,false,stim,false,1,885,2,0,1,92553,task1,1351719,false,false,1645,image-keyboard-response,33
true,13,2,2,2,true,d,false,true,0.0-2.0-0.57-0.516-3.516,0,0,0,68,false,stim,false,0,687,2,0,2,92553,task1,1353927,false,false,1648,image-keyboard-response,34
true,13,1,2,1,true,z,false,true,0.0-2.0-0.57-0.517-3.517,0,0,0,90,false,stim,false,0,445,2,0,0,92553,task1,1355903,false,false,1651,image-keyboard-response,35
true,13,2,2,2,true,d,false,false,0.0-2.0-0.57-0.518-3.518,0,0,0,68,false,stim,false,0,490,2,0,2,92553,task1,1357922,false,true,1654,image-keyboard-response,36
true,13,1,2,1,true,z,false,true,0.0-2.0-0.57-0.519-3.519,0,0,0,90,false,stim,false,0,736,2,0,0,92553,task1,1360171,false,false,1657,image-keyboard-response,37
true,13,2,2,2,true,d,false,true,0.0-2.0-0.57-0.520-3.520,0,0,0,68,false,stim,false,0,483,2,0,2,92553,task1,1362182,false,false,1660,image-keyboard-response,38
true,13,2,2,2,true,d,false,true,0.0-2.0-0.57-0.521-3.521,0,0,0,68,false,stim,false,1,512,2,1,1,92553,task1,1364212,false,false,1663,image-keyboard-response,39
true,13,1,2,1,true,z,false,true,0.0-2.0-0.58-0.522-3.522,0,0,0,90,false,stim,false,0,685,2,1,0,92553,task1,1366416,false,false,1666,image-keyboard-response,40
true,13,2,2,2,true,d,false,true,0.0-2.0-0.58-0.523-3.523,0,0,0,68,false,stim,false,0,814,2,1,2,92553,task1,1368752,false,false,1669,image-keyboard-response,41
true,13,2,2,2,true,d,false,true,0.0-2.0-0.58-0.524-3.524,0,0,0,68,false,stim,false,0,537,2,1,2,92553,task1,1370813,false,false,1672,image-keyboard-response,42
true,13,2,2,2,true,d,false,false,0.0-2.0-0.58-0.525-3.525,0,0,0,68,false,stim,false,1,811,2,1,1,92553,task1,1373137,false,true,1675,image-keyboard-response,43
true,14,2,0,2,true,d,false,true,0.0-2.0-0.58-0.526-3.526,1,1,1,68,true,stim,false,2,2363,2,1,1,92553,task1,1498152,false,false,1798,image-keyboard-response,1
true,14,1,0,2,false,d,true,false,0.0-2.0-0.58-0.527-3.527,1,1,1,90,false,stim,false,2,2095,2,1,2,92553,task1,1501777,false,false,1801,image-keyboard-response,2
true,14,0,0,1,false,z,true,false,0.0-2.0-0.58-0.528-3.528,1,1,1,81,false,stim,false,1,2692,2,1,0,92553,task1,1506001,false,false,1804,image-keyboard-response,3
true,14,1,0,1,true,z,false,true,0.0-2.0-0.58-0.529-3.529,1,1,1,90,false,stim,false,1,926,2,1,0,92553,task1,1508447,false,false,1807,image-keyboard-response,4
true,14,2,0,2,true,d,false,true,0.0-2.0-0.58-0.530-3.530,1,1,1,68,false,stim,false,2,456,2,1,1,92553,task1,1510420,false,false,1810,image-keyboard-response,5
true,14,2,0,2,true,d,false,true,0.0-2.0-0.59-0.531-3.531,1,1,1,68,false,stim,false,2,725,2,1,1,92553,task1,1512666,false,false,1813,image-keyboard-response,6
true,14,0,0,2,false,d,true,false,0.0-2.0-0.59-0.532-3.532,1,1,1,81,false,stim,false,2,918,2,1,2,92553,task1,1515099,false,false,1816,image-keyboard-response,7
true,14,1,0,1,true,z,false,false,0.0-2.0-0.59-0.533-3.533,1,1,1,90,false,stim,false,1,756,2,1,0,92553,task1,1517368,false,true,1819,image-keyboard-response,8
true,14,1,0,2,false,d,true,false,0.0-2.0-0.59-0.534-3.534,1,1,1,90,false,stim,false,2,1086,2,0,2,92553,task1,1519988,false,false,1822,image-keyboard-response,9
true,14,2,0,2,true,d,false,true,0.0-2.0-0.59-0.535-3.535,1,1,1,68,false,stim,false,2,1713,2,0,2,92553,task1,1523221,false,false,1825,image-keyboard-response,10
true,14,1,0,1,true,z,false,true,0.0-2.0-0.59-0.536-3.536,1,1,1,90,false,stim,false,1,720,2,0,0,92553,task1,1525466,false,false,1828,image-keyboard-response,11
true,14,2,0,2,true,d,false,true,0.0-2.0-0.59-0.537-3.537,1,1,1,68,false,stim,false,2,421,2,0,1,92553,task1,1527402,false,false,1831,image-keyboard-response,12
true,14,2,0,2,true,d,false,true,0.0-2.0-0.59-0.538-3.538,1,1,1,68,false,stim,false,2,557,2,0,1,92553,task1,1529492,false,false,1834,image-keyboard-response,13
true,15,2,1,2,true,d,false,true,0.0-2.0-0.59-0.539-3.539,0,0,0,68,true,stim,false,1,449,2,0,0,92553,task1,1531457,false,false,1837,image-keyboard-response,1
true,15,2,1,0,false,q,false,false,0.0-2.0-0.60-0.540-3.540,0,0,0,68,false,stim,true,2,2639,2,0,1,92553,task1,1535623,false,false,1840,image-keyboard-response,2
true,15,1,1,0,false,q,true,false,0.0-2.0-0.60-0.541-3.541,0,0,0,90,false,stim,false,2,1095,2,0,1,92553,task1,1538233,false,false,1843,image-keyboard-response,3
true,15,2,1,2,true,d,false,true,0.0-2.0-0.60-0.542-3.542,0,0,0,68,false,stim,false,1,1057,2,0,0,92553,task1,1540818,false,false,1846,image-keyboard-response,4
true,15,2,1,2,true,d,false,true,0.0-2.0-0.60-0.543-3.543,0,0,0,68,false,stim,false,1,1072,2,0,0,92553,task1,1543413,false,false,1849,image-keyboard-response,5
true,15,1,1,0,false,q,true,true,0.0-2.0-0.60-0.544-3.544,0,0,0,90,false,stim,false,2,812,2,0,2,92553,task1,1545757,false,true,1852,image-keyboard-response,6
true,15,2,1,2,true,d,false,true,0.0-2.0-0.60-0.545-3.545,0,0,0,68,false,stim,false,1,422,2,0,0,92553,task1,1547702,false,false,1855,image-keyboard-response,7
true,15,1,1,0,false,q,true,false,0.0-2.0-0.60-0.546-3.546,0,0,0,90,false,stim,false,2,946,2,0,2,92553,task1,1550166,false,false,1858,image-keyboard-response,8
true,15,1,1,0,false,q,true,true,0.0-2.0-0.60-0.547-3.547,0,0,0,90,false,stim,false,2,1035,2,0,2,92553,task1,1552716,false,true,1861,image-keyboard-response,9
true,15,2,1,0,false,q,false,false,0.0-2.0-0.60-0.548-3.548,0,0,0,68,false,stim,true,2,718,2,0,1,92553,task1,1554959,false,false,1864,image-keyboard-response,10
true,15,2,1,2,true,d,false,true,0.0-2.0-0.61-0.549-3.549,0,0,0,68,false,stim,false,1,631,2,0,0,92553,task1,1557121,false,false,1867,image-keyboard-response,11
true,15,2,1,0,false,q,false,false,0.0-2.0-0.61-0.550-3.550,0,0,0,68,false,stim,true,2,574,2,0,1,92553,task1,1559224,false,false,1870,image-keyboard-response,12
true,15,2,1,0,false,q,false,false,0.0-2.0-0.61-0.551-3.551,0,0,0,68,false,stim,true,2,1922,2,0,2,92553,task1,1562664,false,false,1873,image-keyboard-response,13
true,15,1,1,0,false,q,true,true,0.0-2.0-0.61-0.552-3.552,0,0,0,90,false,stim,false,2,1415,2,0,1,92553,task1,1565600,false,true,1876,image-keyboard-response,14
true,15,2,1,0,false,q,false,false,0.0-2.0-0.61-0.553-3.553,0,0,0,68,false,stim,true,2,1117,2,0,2,92553,task1,1568252,false,false,1879,image-keyboard-response,15
true,15,0,1,0,true,q,false,true,0.0-2.0-0.61-0.554-3.554,0,0,0,81,false,stim,false,2,711,2,0,2,92553,task1,1570489,false,false,1882,image-keyboard-response,16
true,15,1,1,2,false,d,false,false,0.0-2.0-0.61-0.555-3.555,0,0,0,90,false,stim,true,1,489,2,0,0,92553,task1,1572497,false,false,1885,image-keyboard-response,17
true,15,2,1,2,true,d,false,true,0.0-2.0-0.61-0.556-3.556,0,0,0,68,false,stim,false,1,390,2,0,0,92553,task1,1574405,false,false,1888,image-keyboard-response,18
true,15,1,1,0,false,q,true,false,0.0-2.0-0.61-0.557-3.557,0,0,0,90,false,stim,false,2,418,2,0,1,92553,task1,1576353,false,false,1891,image-keyboard-response,19
true,15,0,1,0,true,q,false,true,0.0-2.0-0.62-0.558-3.558,0,0,0,81,false,stim,false,2,773,2,0,2,92553,task1,1578637,false,false,1894,image-keyboard-response,20
true,15,1,1,0,false,q,true,false,0.0-2.0-0.62-0.559-3.559,0,0,0,90,false,stim,false,2,863,2,0,1,92553,task1,1581021,false,false,1897,image-keyboard-response,21
true,15,2,1,0,false,q,false,false,0.0-2.0-0.62-0.560-3.560,0,0,0,68,false,stim,true,2,642,2,0,1,92553,task1,1583197,false,false,1900,image-keyboard-response,22
true,15,2,1,2,true,d,false,true,0.0-2.0-0.62-0.561-3.561,0,0,0,68,false,stim,false,1,508,2,0,0,92553,task1,1585239,false,false,1903,image-keyboard-response,23
true,15,2,1,2,true,d,false,true,0.0-2.0-0.62-0.562-3.562,0,0,0,68,false,stim,false,1,1347,2,0,0,92553,task1,1588112,false,false,1906,image-keyboard-response,24
true,15,2,1,2,true,d,false,true,0.0-2.0-0.62-0.563-3.563,0,0,0,68,false,stim,false,1,688,2,0,0,92553,task1,1590328,false,false,1909,image-keyboard-response,25
true,15,0,1,0,true,q,false,true,0.0-2.0-0.62-0.564-3.564,0,0,0,81,false,stim,false,2,643,2,0,2,92553,task1,1592492,false,false,1912,image-keyboard-response,26
true,15,0,1,0,true,q,false,true,0.0-2.0-0.62-0.565-3.565,0,0,0,81,false,stim,false,2,411,2,0,1,92553,task1,1594421,false,false,1915,image-keyboard-response,27
true,15,0,1,0,true,q,false,true,0.0-2.0-0.62-0.566-3.566,0,0,0,81,false,stim,false,2,849,2,0,2,92553,task1,1596787,false,false,1918,image-keyboard-response,28
true,15,0,1,0,true,q,false,true,0.0-2.0-0.63-0.567-3.567,0,0,0,81,false,stim,false,2,589,2,0,2,92553,task1,1598890,false,false,1921,image-keyboard-response,29
true,15,0,1,0,true,q,false,true,0.0-2.0-0.63-0.568-3.568,0,0,0,81,false,stim,false,2,452,2,0,2,92553,task1,1600873,false,false,1924,image-keyboard-response,30
true,15,0,1,0,true,q,false,true,0.0-2.0-0.63-0.569-3.569,0,0,0,81,false,stim,false,2,508,2,0,2,92553,task1,1602903,false,false,1927,image-keyboard-response,31
true,15,0,1,0,true,q,false,true,0.0-2.0-0.63-0.570-3.570,0,0,0,81,false,stim,false,2,855,2,0,1,92553,task1,1605281,false,false,1930,image-keyboard-response,32
true,15,2,1,2,true,d,false,true,0.0-2.0-0.63-0.571-3.571,0,0,0,68,false,stim,false,1,636,2,0,0,92553,task1,1607442,false,false,1933,image-keyboard-response,33
true,15,2,1,2,true,d,false,true,0.0-2.0-0.63-0.572-3.572,0,0,0,68,false,stim,false,1,462,2,0,0,92553,task1,1609432,false,false,1936,image-keyboard-response,34
true,15,0,1,0,true,q,false,false,0.0-2.0-0.63-0.573-3.573,0,0,0,81,false,stim,false,2,949,2,0,1,92553,task1,1611900,false,true,1939,image-keyboard-response,35
true,15,2,1,2,true,d,false,true,0.0-2.0-0.63-0.574-3.574,0,0,0,68,false,stim,false,1,673,2,0,0,92553,task1,1614100,false,false,1942,image-keyboard-response,36
true,15,0,1,0,true,q,false,true,0.0-2.0-0.63-0.575-3.575,0,0,0,81,false,stim,false,2,882,2,0,1,92553,task1,1616503,false,false,1945,image-keyboard-response,37
true,15,0,1,0,true,q,false,true,0.0-2.0-0.64-0.576-3.576,0,0,0,81,false,stim,false,2,460,2,0,2,92553,task1,1618491,false,false,1948,image-keyboard-response,38
true,15,2,1,2,true,d,false,true,0.0-2.0-0.64-0.577-3.577,0,0,0,68,false,stim,false,1,584,2,0,0,92553,task1,1620606,false,false,1951,image-keyboard-response,39
true,15,2,1,2,true,d,false,true,0.0-2.0-0.64-0.578-3.578,0,0,0,68,false,stim,false,1,421,2,0,0,92553,task1,1622555,false,false,1954,image-keyboard-response,40
true,15,0,1,0,true,q,false,true,0.0-2.0-0.64-0.579-3.579,0,0,0,81,false,stim,false,2,1039,2,0,2,92553,task1,1625116,false,false,1957,image-keyboard-response,41
true,15,0,1,0,true,q,false,false,0.0-2.0-0.64-0.580-3.580,0,0,0,81,false,stim,false,2,921,2,0,1,92553,task1,1627571,false,true,1960,image-keyboard-response,42
true,15,2,1,2,true,d,false,true,0.0-2.0-0.64-0.581-3.581,0,0,0,68,false,stim,false,1,1039,2,0,0,92553,task1,1630130,false,false,1963,image-keyboard-response,43
true,16,0,2,2,false,d,false,false,0.0-2.0-0.64-0.582-3.582,0,0,0,81,true,stim,true,0,631,2,0,2,92553,task1,1632281,false,false,1966,image-keyboard-response,1
true,16,0,2,2,false,d,false,false,0.0-2.0-0.64-0.583-3.583,0,0,0,81,false,stim,true,0,1564,2,0,1,92553,task1,1635362,false,false,1969,image-keyboard-response,2
true,16,1,2,2,false,d,true,false,0.0-2.0-0.64-0.584-3.584,0,0,0,90,false,stim,false,0,519,2,0,1,92553,task1,1637400,false,false,1972,image-keyboard-response,3
true,16,2,2,1,false,z,false,false,0.0-2.0-0.65-0.585-3.585,0,0,0,68,false,stim,true,2,908,2,0,0,92553,task1,1639828,false,false,1975,image-keyboard-response,4
true,16,2,2,2,true,d,false,true,0.0-2.0-0.65-0.586-3.586,0,0,0,68,false,stim,false,0,424,2,0,1,92553,task1,1641787,false,false,1978,image-keyboard-response,5
true,16,0,2,2,false,d,false,false,0.0-2.0-0.65-0.587-3.587,0,0,0,81,false,stim,true,0,970,2,0,2,92553,task1,1644279,false,false,1981,image-keyboard-response,6
true,16,1,2,2,false,d,true,false,0.0-2.0-0.65-0.588-3.588,0,0,0,90,false,stim,false,0,417,2,0,2,92553,task1,1646221,false,false,1984,image-keyboard-response,7
true,16,1,2,1,true,z,false,true,0.0-2.0-0.65-0.589-3.589,0,0,0,90,false,stim,false,2,1300,2,0,0,92553,task1,1649048,false,false,1987,image-keyboard-response,8
true,16,2,2,2,true,d,false,true,0.0-2.0-0.65-0.590-3.590,0,0,0,68,false,stim,false,0,640,2,0,1,92553,task1,1651219,false,false,1990,image-keyboard-response,9
true,16,2,2,2,true,d,false,true,0.0-2.0-0.65-0.591-3.591,0,0,0,68,false,stim,false,0,407,2,0,2,92553,task1,1653154,false,false,1993,image-keyboard-response,10
true,16,2,2,2,true,d,false,true,0.0-2.0-0.65-0.592-3.592,0,0,0,68,false,stim,false,0,789,2,0,1,92553,task1,1655459,false,false,1996,image-keyboard-response,11
true,16,1,2,1,true,z,false,true,0.0-2.0-0.65-0.593-3.593,0,0,0,90,false,stim,false,2,1072,2,0,0,92553,task1,1658043,false,false,1999,image-keyboard-response,12
true,16,2,2,2,true,d,false,true,0.0-2.0-0.66-0.594-3.594,0,0,0,68,false,stim,false,0,598,2,0,2,92553,task1,1660183,false,false,2002,image-keyboard-response,13
true,16,2,2,2,true,d,false,true,0.0-2.0-0.66-0.595-3.595,0,0,0,68,false,stim,false,0,1055,2,0,1,92553,task1,1662752,false,false,2005,image-keyboard-response,14
true,16,1,2,1,true,z,false,false,0.0-2.0-0.66-0.596-3.596,0,0,0,90,false,stim,false,2,1287,2,0,0,92553,task1,1665565,false,true,2008,image-keyboard-response,15
true,16,2,2,2,true,d,false,true,0.0-2.0-0.66-0.597-3.597,0,0,0,68,false,stim,false,0,635,2,0,2,92553,task1,1667734,false,false,2011,image-keyboard-response,16
true,16,1,2,1,true,z,false,true,0.0-2.0-0.66-0.598-3.598,0,0,0,90,false,stim,false,2,1012,2,0,0,92553,task1,1670278,false,false,2014,image-keyboard-response,17
true,16,2,2,2,true,d,false,true,0.0-2.0-0.66-0.599-3.599,0,0,0,68,false,stim,false,0,609,2,0,1,92553,task1,1672411,false,false,2017,image-keyboard-response,18
true,16,2,2,1,false,z,false,false,0.0-2.0-0.66-0.600-3.600,0,0,0,68,false,stim,true,2,689,2,0,0,92553,task1,1674620,false,false,2020,image-keyboard-response,19
true,16,2,2,2,true,d,false,true,0.0-2.0-0.66-0.601-3.601,0,0,0,68,false,stim,false,0,630,2,0,2,92553,task1,1676775,false,false,2023,image-keyboard-response,20
true,16,2,2,2,true,d,false,true,0.0-2.0-0.66-0.602-3.602,0,0,0,68,false,stim,false,0,633,2,0,1,92553,task1,1678930,false,false,2026,image-keyboard-response,21
true,16,1,2,1,true,z,false,true,0.0-2.0-0.67-0.603-3.603,0,0,0,90,false,stim,false,2,538,2,0,0,92553,task1,1680982,false,false,2029,image-keyboard-response,22
true,16,1,2,1,true,z,false,true,0.0-2.0-0.67-0.604-3.604,0,0,0,90,false,stim,false,2,641,2,0,0,92553,task1,1683142,false,false,2032,image-keyboard-response,23
true,16,2,2,2,true,d,false,true,0.0-2.0-0.67-0.605-3.605,0,0,0,68,false,stim,false,0,653,2,0,1,92553,task1,1685318,false,false,2035,image-keyboard-response,24
true,16,2,2,2,true,d,false,true,0.0-2.0-0.67-0.606-3.606,0,0,0,68,false,stim,false,0,533,2,0,1,92553,task1,1687374,false,false,2038,image-keyboard-response,25
true,16,2,2,2,true,d,false,true,0.0-2.0-0.67-0.607-3.607,0,0,0,68,false,stim,false,0,726,2,0,2,92553,task1,1689630,false,false,2041,image-keyboard-response,26
true,16,2,2,2,true,d,false,true,0.0-2.0-0.67-0.608-3.608,0,0,0,68,false,stim,false,0,665,2,0,1,92553,task1,1691814,false,false,2044,image-keyboard-response,27
true,16,1,2,1,true,z,false,true,0.0-2.0-0.67-0.609-3.609,0,0,0,90,false,stim,false,2,598,2,0,0,92553,task1,1693939,false,false,2047,image-keyboard-response,28
true,16,2,2,2,true,d,false,true,0.0-2.0-0.67-0.610-3.610,0,0,0,68,false,stim,false,0,750,2,0,2,92553,task1,1696215,false,false,2050,image-keyboard-response,29
true,16,2,2,2,true,d,false,true,0.0-2.0-0.67-0.611-3.611,0,0,0,68,false,stim,false,0,529,2,0,2,92553,task1,1698264,false,false,2053,image-keyboard-response,30
true,16,2,2,2,true,d,false,false,0.0-2.0-0.68-0.612-3.612,0,0,0,68,false,stim,false,0,1129,2,0,2,92553,task1,1700918,false,true,2056,image-keyboard-response,31
true,16,2,2,2,true,d,false,true,0.0-2.0-0.68-0.613-3.613,0,0,0,68,false,stim,false,0,865,2,0,1,92553,task1,1703301,false,false,2059,image-keyboard-response,32
true,16,1,2,1,true,z,false,true,0.0-2.0-0.68-0.614-3.614,0,0,0,90,false,stim,false,2,1893,2,0,0,92553,task1,1706731,false,false,2062,image-keyboard-response,33
true,16,2,2,2,true,d,false,true,0.0-2.0-0.68-0.615-3.615,0,0,0,68,false,stim,false,0,751,2,0,2,92553,task1,1709002,false,false,2065,image-keyboard-response,34
true,16,2,2,2,true,d,false,true,0.0-2.0-0.68-0.616-3.616,0,0,0,68,false,stim,false,0,599,2,0,1,92553,task1,1711116,false,false,2068,image-keyboard-response,35
true,16,1,2,1,true,z,false,true,0.0-2.0-0.68-0.617-3.617,0,0,0,90,false,stim,false,2,1129,2,0,0,92553,task1,1713767,false,false,2071,image-keyboard-response,36
true,16,1,2,1,true,z,false,true,0.0-2.0-0.68-0.618-3.618,0,0,0,90,false,stim,false,2,440,2,0,0,92553,task1,1715730,false,false,2074,image-keyboard-response,37
true,16,2,2,2,true,d,false,true,0.0-2.0-0.68-0.619-3.619,0,0,0,68,false,stim,false,0,1247,2,0,1,92553,task1,1718497,false,false,2077,image-keyboard-response,38
true,16,2,2,2,true,d,false,true,0.0-2.0-0.68-0.620-3.620,0,0,0,68,false,stim,false,0,2133,2,0,2,92553,task1,1722160,false,false,2080,image-keyboard-response,39
true,17,2,2,0,false,q,false,true,0.0-2.0-0.69-0.621-3.621,0,0,0,68,true,stim,true,2,1518,2,0,1,92553,task1,1725199,false,true,2083,image-keyboard-response,1
true,17,2,2,1,false,z,false,false,0.0-2.0-0.69-0.622-3.622,0,0,0,68,false,stim,true,2,1928,2,0,2,92553,task1,1728653,false,false,2086,image-keyboard-response,2
true,17,2,2,1,false,z,false,false,0.0-2.0-0.69-0.623-3.623,0,0,0,68,false,stim,true,2,2205,2,0,2,92553,task1,1732373,false,false,2089,image-keyboard-response,3
true,17,1,2,2,false,d,false,false,0.0-2.0-0.69-0.624-3.624,0,0,0,90,false,stim,true,1,563,2,0,0,92553,task1,1734455,false,false,2092,image-keyboard-response,4
true,17,0,2,1,false,z,true,false,0.0-2.0-0.69-0.625-3.625,0,0,0,81,false,stim,false,2,385,2,0,2,92553,task1,1736357,false,false,2095,image-keyboard-response,5
true,17,1,2,2,false,d,false,false,0.0-2.0-0.69-0.626-3.626,0,0,0,90,false,stim,true,1,2003,2,0,0,92553,task1,1739887,false,false,2098,image-keyboard-response,6
true,17,0,2,0,true,q,false,true,0.0-2.0-0.69-0.627-3.627,0,0,0,81,false,stim,false,2,1319,2,0,1,92553,task1,1742761,false,false,2101,image-keyboard-response,7
true,17,1,2,2,false,d,false,false,0.0-2.0-0.69-0.628-3.628,0,0,0,90,false,stim,true,1,388,2,0,0,92553,task1,1744676,false,false,2104,image-keyboard-response,8
true,17,0,2,0,true,q,false,true,0.0-2.0-0.69-0.629-3.629,0,0,0,81,false,stim,false,2,1262,2,0,1,92553,task1,1747459,false,false,2107,image-keyboard-response,9
true,17,1,2,1,true,z,false,true,0.0-2.0-0.70-0.630-3.630,0,0,0,90,false,stim,false,2,860,2,0,2,92553,task1,1749852,false,false,2110,image-keyboard-response,10
true,17,2,2,2,true,d,false,true,0.0-2.0-0.70-0.631-3.631,0,0,0,68,false,stim,false,1,350,2,0,0,92553,task1,1751723,false,false,2113,image-keyboard-response,11
true,17,0,2,0,true,q,false,true,0.0-2.0-0.70-0.632-3.632,0,0,0,81,false,stim,false,2,673,2,0,1,92553,task1,1753924,false,false,2116,image-keyboard-response,12
true,17,2,2,2,true,d,false,true,0.0-2.0-0.70-0.633-3.633,0,0,0,68,false,stim,false,1,812,2,0,0,92553,task1,1756263,false,false,2119,image-keyboard-response,13
