answered,blockNum,choice,condition,corResp,correct,correct_response,explo,fb,internal_node_id,isStable_1,isStable_2,isStable_3,key_press,newBlock,part,persev,persevResp,rt,sessNum,stableAS,stimulus,subject,task,time_elapsed,training,trap,trial_index,trial_type,trialsInBlock
true,1,2,0,0,false,q,true,false,0.0-2.0-0.0-0.0-3.0,0,0,0,68,true,stim,false,-1,680,1,0,2,92553,task3,194238,false,false,114,image-keyboard-response,1
true,1,1,0,2,false,d,true,false,0.0-2.0-0.0-0.1-3.1,0,0,0,90,false,stim,false,-1,538,1,0,1,92553,task3,196290,false,false,117,image-keyboard-response,2
true,1,2,0,2,true,d,false,true,0.0-2.0-0.0-0.2-3.2,0,0,0,68,false,stim,false,-1,836,1,0,1,92553,task3,198651,false,false,120,image-keyboard-response,3
true,1,2,0,2,true,d,false,true,0.0-2.0-0.0-0.3-3.3,0,0,0,68,false,stim,false,-1,483,1,0,1,92553,task3,200651,false,false,123,image-keyboard-response,4
true,1,1,0,0,false,q,true,false,0.0-2.0-0.0-0.4-3.4,0,0,0,90,false,stim,false,-1,750,1,0,2,92553,task3,202930,false,false,126,image-keyboard-response,5
true,1,0,0,0,true,q,false,true,0.0-2.0-0.0-0.5-3.5,0,0,0,81,false,stim,false,-1,789,1,0,2,92553,task3,205241,false,false,129,image-keyboard-response,6
true,1,1,0,0,false,q,true,false,0.0-2.0-0.0-0.6-3.6,0,0,0,90,false,stim,false,-1,898,1,0,0,92553,task3,207666,false,false,132,image-keyboard-response,7
true,1,0,0,0,true,q,false,true,0.0-2.0-0.0-0.7-3.7,0,0,0,81,false,stim,false,-1,669,1,0,0,92553,task3,209843,false,false,135,image-keyboard-response,8
true,1,0,0,0,true,q,false,true,0.0-2.0-0.0-0.8-3.8,0,0,0,81,false,stim,false,-1,705,1,0,0,92553,task3,212061,false,false,138,image-keyboard-response,9
true,1,0,0,0,true,q,false,true,0.0-2.0-0.1-0.9-3.9,0,0,0,81,false,stim,false,-1,626,1,0,2,92553,task3,214194,false,false,141,image-keyboard-response,10
true,1,0,0,0,true,q,false,true,0.0-2.0-0.1-0.10-3.10,0,0,0,81,false,stim,false,-1,426,1,0,2,92553,task3,216145,false,false,144,image-keyboard-response,11
true,1,0,0,0,true,q,false,true,0.0-2.0-0.1-0.11-3.11,0,0,0,81,false,stim,false,-1,930,1,0,0,92553,task3,218593,false,false,147,image-keyboard-response,12
true,1,0,0,0,true,q,false,true,0.0-2.0-0.1-0.12-3.12,0,0,0,81,false,stim,false,-1,443,1,0,0,92553,task3,220554,false,false,150,image-keyboard-response,13
true,1,0,0,0,true,q,false,true,0.0-2.0-0.1-0.13-3.13,0,0,0,81,false,stim,false,-1,868,1,0,2,92553,task3,222942,false,false,153,image-keyboard-response,14
true,1,2,0,2,true,d,false,false,0.0-2.0-0.1-0.14-3.14,0,0,0,68,false,stim,false,-1,932,1,0,1,92553,task3,225394,false,true,156,image-keyboard-response,15
true,1,2,0,2,true,d,false,true,0.0-2.0-0.1-0.15-3.15,0,0,0,68,false,stim,false,-1,800,1,0,1,92553,task3,227722,false,false,159,image-keyboard-response,16
true,1,0,0,0,true,q,false,true,0.0-2.0-0.1-0.16-3.16,0,0,0,81,false,stim,false,-1,550,1,0,0,92553,task3,229798,false,false,162,image-keyboard-response,17
true,1,2,0,2,true,d,false,true,0.0-2.0-0.1-0.17-3.17,0,0,0,68,false,stim,false,-1,949,1,0,1,92553,task3,232275,false,false,165,image-keyboard-response,18
true,1,0,0,0,true,q,false,true,0.0-2.0-0.2-0.18-3.18,0,0,0,81,false,stim,false,-1,1039,1,0,2,92553,task3,234838,false,false,168,image-keyboard-response,19
true,1,0,0,0,true,q,false,true,0.0-2.0-0.2-0.19-3.19,0,0,0,81,false,stim,false,-1,626,1,0,0,92553,task3,236980,false,false,171,image-keyboard-response,20
true,1,2,0,2,true,d,false,true,0.0-2.0-0.2-0.20-3.20,0,0,0,68,false,stim,false,-1,914,1,0,1,92553,task3,239409,false,false,174,image-keyboard-response,21
true,1,2,0,2,true,d,false,true,0.0-2.0-0.2-0.21-3.21,0,0,0,68,false,stim,false,-1,707,1,0,1,92553,task3,241642,false,false,177,image-keyboard-response,22
true,1,0,0,0,true,q,false,true,0.0-2.0-0.2-0.22-3.22,0,0,0,81,false,stim,false,-1,700,1,0,2,92553,task3,243866,false,false,180,image-keyboard-response,23
true,1,0,0,2,false,d,true,true,0.0-2.0-0.2-0.23-3.23,0,0,0,81,false,stim,false,-1,556,1,0,1,92553,task3,245955,false,true,183,image-keyboard-response,24
true,1,0,0,0,true,q,false,true,0.0-2.0-0.2-0.24-3.24,0,0,0,81,false,stim,false,-1,1143,1,1,0,92553,task3,248617,false,false,186,image-keyboard-response,25
true,1,0,0,0,true,q,false,true,0.0-2.0-0.2-0.25-3.25,0,0,0,81,false,stim,false,-1,1438,1,0,2,92553,task3,251569,false,false,189,image-keyboard-response,26
true,1,0,0,0,true,q,false,true,0.0-2.0-0.2-0.26-3.26,0,0,0,81,false,stim,false,-1,692,1,1,0,92553,task3,253786,false,false,192,image-keyboard-response,27
true,2,2,1,1,false,z,false,false,0.0-2.0-0.3-0.27-3.27,1,0,0,68,true,stim,true,2,664,1,0,1,92553,task3,255976,false,false,195,image-keyboard-response,1
true,2,0,1,0,true,q,false,true,0.0-2.0-0.3-0.28-3.28,1,0,0,81,false,stim,false,0,468,1,1,0,92553,task3,257963,false,false,198,image-keyboard-response,2
true,2,0,1,1,false,z,true,false,0.0-2.0-0.3-0.29-3.29,1,0,0,81,false,stim,false,2,754,1,0,1,92553,task3,260236,false,false,201,image-keyboard-response,3
true,2,0,1,1,false,z,false,false,0.0-2.0-0.3-0.30-3.30,1,0,0,81,false,stim,true,0,798,1,0,2,92553,task3,262550,false,false,204,image-keyboard-response,4
true,2,0,1,1,false,z,false,false,0.0-2.0-0.3-0.31-3.31,1,0,0,81,false,stim,true,0,491,1,0,2,92553,task3,264565,false,false,207,image-keyboard-response,5
true,2,0,1,0,true,q,false,true,0.0-2.0-0.3-0.32-3.32,1,0,0,81,false,stim,false,0,853,1,1,0,92553,task3,266944,false,false,210,image-keyboard-response,6
true,2,0,1,0,true,q,false,true,0.0-2.0-0.3-0.33-3.33,1,0,0,81,false,stim,false,0,571,1,1,0,92553,task3,269043,false,false,213,image-keyboard-response,7
true,2,0,1,1,false,z,false,false,0.0-2.0-0.3-0.34-3.34,1,0,0,81,false,stim,true,0,635,1,0,2,92553,task3,271195,false,false,216,image-keyboard-response,8
true,2,2,1,1,false,z,false,false,0.0-2.0-0.3-0.35-3.35,1,0,0,68,false,stim,true,2,1560,1,0,1,92553,task3,274260,false,false,219,image-keyboard-response,9
true,2,0,1,1,false,z,true,false,0.0-2.0-0.4-0.36-3.36,1,0,0,81,false,stim,false,2,661,1,0,1,92553,task3,276450,false,false,222,image-keyboard-response,10
true,2,1,1,1,true,z,false,true,0.0-2.0-0.4-0.37-3.37,1,0,0,90,false,stim,false,0,1298,1,0,2,92553,task3,279259,false,false,225,image-keyboard-response,11
true,2,1,1,1,true,z,false,true,0.0-2.0-0.4-0.38-3.38,1,0,0,90,false,stim,false,2,1022,1,1,1,92553,task3,281806,false,false,228,image-keyboard-response,12
true,2,1,1,1,true,z,false,true,0.0-2.0-0.4-0.39-3.39,1,0,0,90,false,stim,false,2,469,1,1,1,92553,task3,283795,false,false,231,image-keyboard-response,13
true,2,0,1,0,true,q,false,true,0.0-2.0-0.4-0.40-3.40,1,0,0,81,false,stim,false,0,1097,1,0,0,92553,task3,286422,false,false,234,image-keyboard-response,14
true,2,1,1,1,true,z,false,true,0.0-2.0-0.4-0.41-3.41,1,0,0,90,false,stim,false,0,434,1,1,2,92553,task3,288380,false,false,237,image-keyboard-response,15
true,2,1,1,0,false,q,true,false,0.0-2.0-0.4-0.42-3.42,1,0,0,90,false,stim,false,0,405,1,0,0,92553,task3,290314,false,false,240,image-keyboard-response,16
true,3,1,2,1,true,z,false,false,0.0-2.0-0.4-0.43-3.43,0,1,1,90,true,stim,false,1,775,1,1,2,92553,task3,292610,false,true,243,image-keyboard-response,1
true,3,0,2,2,false,d,false,false,0.0-2.0-0.4-0.44-3.44,0,1,1,81,false,stim,true,0,777,1,0,0,92553,task3,294916,false,false,246,image-keyboard-response,2
true,3,1,2,1,true,z,false,true,0.0-2.0-0.5-0.45-3.45,0,1,1,90,false,stim,false,1,1171,1,1,1,92553,task3,297620,false,false,249,image-keyboard-response,3
true,3,1,2,1,true,z,false,true,0.0-2.0-0.5-0.46-3.46,0,1,1,90,false,stim,false,1,879,1,1,2,92553,task3,300014,false,false,252,image-keyboard-response,4
true,3,1,2,1,true,z,false,true,0.0-2.0-0.5-0.47-3.47,0,1,1,90,false,stim,false,1,580,1,1,2,92553,task3,302123,false,false,255,image-keyboard-response,5
true,3,0,2,2,false,d,false,false,0.0-2.0-0.5-0.48-3.48,0,1,1,81,false,stim,true,0,868,1,0,0,92553,task3,304517,false,false,258,image-keyboard-response,6
true,3,1,2,2,false,d,true,false,0.0-2.0-0.5-0.49-3.49,0,1,1,90,false,stim,false,0,1087,1,0,0,92553,task3,307113,false,false,261,image-keyboard-response,7
true,3,1,2,1,true,z,false,true,0.0-2.0-0.5-0.50-3.50,0,1,1,90,false,stim,false,1,1010,1,1,1,92553,task3,309651,false,false,264,image-keyboard-response,8
true,3,1,2,1,true,z,false,true,0.0-2.0-0.5-0.51-3.51,0,1,1,90,false,stim,false,1,445,1,0,2,92553,task3,311619,false,false,267,image-keyboard-response,9
true,3,1,2,2,false,d,true,false,0.0-2.0-0.5-0.52-3.52,0,1,1,90,false,stim,false,0,580,1,1,0,92553,task3,313713,false,false,270,image-keyboard-response,10
true,3,1,2,1,true,z,false,true,0.0-2.0-0.5-0.53-3.53,0,1,1,90,false,stim,false,1,802,1,1,1,92553,task3,316042,false,false,273,image-keyboard-response,11
true,3,1,2,1,true,z,false,true,0.0-2.0-0.6-0.54-3.54,0,1,1,90,false,stim,false,1,523,1,1,1,92553,task3,318084,false,false,276,image-keyboard-response,12
true,4,2,2,2,true,d,false,true,0.0-2.0-0.6-0.55-3.55,1,1,0,68,true,stim,false,2,619,1,1,0,92553,task3,320217,false,false,279,image-keyboard-response,1
true,4,1,2,1,true,z,false,true,0.0-2.0-0.6-0.56-3.56,1,1,0,90,false,stim,false,1,468,1,1,1,92553,task3,322206,false,false,282,image-keyboard-response,2
true,4,1,2,2,false,d,true,true,0.0-2.0-0.6-0.57-3.57,1,1,0,90,false,stim,false,2,486,1,1,0,92553,task3,324223,false,true,285,image-keyboard-response,3
true,4,1,2,1,true,z,false,false,0.0-2.0-0.6-0.58-3.58,1,1,0,90,false,stim,false,1,1153,1,1,1,92553,task3,326894,false,true,288,image-keyboard-response,4
true,4,1,2,0,false,q,false,false,0.0-2.0-0.6-0.59-3.59,1,1,0,90,false,stim,true,1,651,1,0,2,92553,task3,329061,false,false,291,image-keyboard-response,5
true,4,1,2,0,false,q,false,false,0.0-2.0-0.6-0.60-3.60,1,1,0,90,false,stim,true,1,856,1,0,2,92553,task3,331447,false,false,294,image-keyboard-response,6
true,4,0,2,0,true,q,false,true,0.0-2.0-0.6-0.61-3.61,1,1,0,81,false,stim,false,1,483,1,0,2,92553,task3,333464,false,false,297,image-keyboard-response,7
true,4,0,2,2,false,d,true,false,0.0-2.0-0.6-0.62-3.62,1,1,0,81,false,stim,false,2,824,1,1,0,92553,task3,335816,false,false,300,image-keyboard-response,8
true,4,1,2,2,false,d,true,false,0.0-2.0-0.7-0.63-3.63,1,1,0,90,false,stim,false,2,1044,1,1,0,92553,task3,338393,false,false,303,image-keyboard-response,9
true,4,0,2,0,true,q,false,true,0.0-2.0-0.7-0.64-3.64,1,1,0,81,false,stim,false,1,653,1,0,2,92553,task3,340565,false,false,306,image-keyboard-response,10
true,4,2,2,2,true,d,false,true,0.0-2.0-0.7-0.65-3.65,1,1,0,68,false,stim,false,2,1143,1,1,0,92553,task3,343226,false,false,309,image-keyboard-response,11
true,4,1,2,1,true,z,false,false,0.0-2.0-0.7-0.66-3.66,1,1,0,90,false,stim,false,1,692,1,1,1,92553,task3,345451,false,true,312,image-keyboard-response,12
true,4,0,2,0,true,q,false,true,0.0-2.0-0.7-0.67-3.67,1,1,0,81,false,stim,false,1,783,1,0,2,92553,task3,347754,false,false,315,image-keyboard-response,13
true,4,0,2,1,false,z,true,false,0.0-2.0-0.7-0.68-3.68,1,1,0,81,false,stim,false,1,1260,1,1,1,92553,task3,350541,false,false,318,image-keyboard-response,14
true,4,0,2,0,true,q,false,true,0.0-2.0-0.7-0.69-3.69,1,1,0,81,false,stim,false,1,2627,1,0,2,92553,task3,354680,false,false,321,image-keyboard-response,15
true,4,0,2,1,false,z,true,false,0.0-2.0-0.7-0.70-3.70,1,1,0,81,false,stim,false,1,1947,1,1,1,92553,task3,358151,false,false,324,image-keyboard-response,16
true,4,2,2,2,true,d,false,true,0.0-2.0-0.7-0.71-3.71,1,1,0,68,false,stim,false,2,600,1,1,0,92553,task3,360275,false,false,327,image-keyboard-response,17
true,4,1,2,1,true,z,false,true,0.0-2.0-0.8-0.72-3.72,1,1,0,90,false,stim,false,1,1232,1,1,1,92553,task3,363015,false,false,330,image-keyboard-response,18
true,4,0,2,0,true,q,false,false,0.0-2.0-0.8-0.73-3.73,1,1,0,81,false,stim,false,1,785,1,0,2,92553,task3,365314,false,true,333,image-keyboard-response,19
true,4,1,2,1,true,z,false,true,0.0-2.0-0.8-0.74-3.74,1,1,0,90,false,stim,false,1,794,1,1,1,92553,task3,367627,false,false,336,image-keyboard-response,20
true,4,2,2,2,true,d,false,true,0.0-2.0-0.8-0.75-3.75,1,1,0,68,false,stim,false,2,416,1,1,0,92553,task3,369574,false,false,339,image-keyboard-response,21
true,4,1,2,1,true,z,false,true,0.0-2.0-0.8-0.76-3.76,1,1,0,90,false,stim,false,1,926,1,1,1,92553,task3,372017,false,false,342,image-keyboard-response,22
true,4,0,2,0,true,q,false,true,0.0-2.0-0.8-0.77-3.77,1,1,0,81,false,stim,false,1,771,1,0,2,92553,task3,374304,false,false,345,image-keyboard-response,23
true,4,2,2,2,true,d,false,true,0.0-2.0-0.8-0.78-3.78,1,1,0,68,false,stim,false,2,700,1,1,0,92553,task3,376525,false,false,348,image-keyboard-response,24
true,4,0,2,0,true,q,false,true,0.0-2.0-0.8-0.79-3.79,1,1,0,81,false,stim,false,1,1243,1,0,2,92553,task3,379297,false,false,351,image-keyboard-response,25
true,4,2,2,2,true,d,false,true,0.0-2.0-0.8-0.80-3.80,1,1,0,68,false,stim,false,2,929,1,0,0,92553,task3,381752,false,false,354,image-keyboard-response,26
true,4,2,2,2,true,d,false,true,0.0-2.0-0.9-0.81-3.81,1,1,0,68,false,stim,false,2,565,1,0,0,92553,task3,383845,false,false,357,image-keyboard-response,27
true,4,2,2,2,true,d,false,true,0.0-2.0-0.9-0.82-3.82,1,1,0,68,false,stim,false,2,755,1,0,0,92553,task3,386126,false,false,360,image-keyboard-response,28
true,4,0,2,0,true,q,false,true,0.0-2.0-0.9-0.83-3.83,1,1,0,81,false,stim,false,1,662,1,0,2,92553,task3,388301,false,false,363,image-keyboard-response,29
true,4,1,2,1,true,z,false,true,0.0-2.0-0.9-0.84-3.84,1,1,0,90,false,stim,false,1,880,1,1,1,92553,task3,390703,false,false,366,image-keyboard-response,30
true,5,0,1,2,false,d,false,false,0.0-2.0-0.9-0.85-3.85,0,1,0,81,true,stim,true,0,1280,1,0,2,92553,task3,393504,false,false,369,image-keyboard-response,1
true,5,0,1,2,false,d,false,false,0.0-2.0-0.9-0.86-3.86,0,1,0,81,false,stim,true,0,415,1,0,2,92553,task3,395448,false,false,372,image-keyboard-response,2
true,5,1,1,1,true,z,false,false,0.0-2.0-0.9-0.87-3.87,0,1,0,90,false,stim,false,1,764,1,1,1,92553,task3,397732,false,true,375,image-keyboard-response,3
true,5,1,1,1,true,z,false,true,0.0-2.0-0.9-0.88-3.88,0,1,0,90,false,stim,false,1,864,1,1,1,92553,task3,400114,false,false,378,image-keyboard-response,4
true,5,2,1,1,false,z,false,false,0.0-2.0-0.9-0.89-3.89,0,1,0,68,false,stim,true,2,579,1,0,0,92553,task3,402218,false,false,381,image-keyboard-response,5
true,5,1,1,1,true,z,false,true,0.0-2.0-0.10-0.90-3.90,0,1,0,90,false,stim,false,1,1385,1,1,1,92553,task3,405116,false,false,384,image-keyboard-response,6
true,5,0,1,2,false,d,false,false,0.0-2.0-0.10-0.91-3.91,0,1,0,81,false,stim,true,0,686,1,0,2,92553,task3,407323,false,false,387,image-keyboard-response,7
true,5,1,1,1,true,z,false,true,0.0-2.0-0.10-0.92-3.92,0,1,0,90,false,stim,false,1,685,1,1,1,92553,task3,409529,false,false,390,image-keyboard-response,8
true,5,2,1,1,false,z,false,false,0.0-2.0-0.10-0.93-3.93,0,1,0,68,false,stim,true,2,751,1,0,0,92553,task3,411809,false,false,393,image-keyboard-response,9
true,5,1,1,1,true,z,false,false,0.0-2.0-0.10-0.94-3.94,0,1,0,90,false,stim,false,1,897,1,1,1,92553,task3,414230,false,true,396,image-keyboard-response,10
true,5,2,1,2,true,d,false,true,0.0-2.0-0.10-0.95-3.95,0,1,0,68,false,stim,false,0,710,1,0,2,92553,task3,416462,false,false,399,image-keyboard-response,11
true,5,1,1,1,true,z,false,true,0.0-2.0-0.10-0.96-3.96,0,1,0,90,false,stim,false,2,1876,1,0,0,92553,task3,419867,false,false,402,image-keyboard-response,12
true,5,1,1,1,true,z,false,true,0.0-2.0-0.10-0.97-3.97,0,1,0,90,false,stim,false,2,752,1,0,0,92553,task3,422146,false,false,405,image-keyboard-response,13
true,5,1,1,2,false,d,true,false,0.0-2.0-0.10-0.98-3.98,0,1,0,90,false,stim,false,0,1276,1,0,2,92553,task3,424943,false,false,408,image-keyboard-response,14
true,5,2,1,1,false,z,true,false,0.0-2.0-0.11-0.99-3.99,0,1,0,68,false,stim,false,1,2043,1,1,1,92553,task3,428515,false,false,411,image-keyboard-response,15
true,5,1,1,2,false,d,true,false,0.0-2.0-0.11-0.100-3.100,0,1,0,90,false,stim,false,0,1901,1,0,2,92553,task3,431937,false,false,414,image-keyboard-response,16
true,5,2,1,2,true,d,false,true,0.0-2.0-0.11-0.101-3.101,0,1,0,68,false,stim,false,0,886,1,0,2,92553,task3,434348,false,false,417,image-keyboard-response,17
true,5,1,1,1,true,z,false,true,0.0-2.0-0.11-0.102-3.102,0,1,0,90,false,stim,false,1,561,1,1,1,92553,task3,436432,false,false,420,image-keyboard-response,18
true,5,1,1,1,true,z,false,true,0.0-2.0-0.11-0.103-3.103,0,1,0,90,false,stim,false,1,668,1,1,1,92553,task3,438622,false,false,423,image-keyboard-response,19
true,5,0,1,1,false,z,true,false,0.0-2.0-0.11-0.104-3.104,0,1,0,81,false,stim,false,2,1165,1,0,0,92553,task3,441299,false,false,426,image-keyboard-response,20
true,5,1,1,1,true,z,false,true,0.0-2.0-0.11-0.105-3.105,0,1,0,90,false,stim,false,2,769,1,1,0,92553,task3,443588,false,false,429,image-keyboard-response,21
true,5,2,1,2,true,d,false,true,0.0-2.0-0.11-0.106-3.106,0,1,0,68,false,stim,false,0,935,1,0,2,92553,task3,446044,false,false,432,image-keyboard-response,22
true,5,1,1,1,true,z,false,true,0.0-2.0-0.11-0.107-3.107,0,1,0,90,false,stim,false,2,1054,1,1,0,92553,task3,448626,false,false,435,image-keyboard-response,23
true,5,1,1,1,true,z,false,true,0.0-2.0-0.12-0.108-3.108,0,1,0,90,false,stim,false,2,422,1,1,0,92553,task3,450570,false,false,438,image-keyboard-response,24
true,5,2,1,2,true,d,false,true,0.0-2.0-0.12-0.109-3.109,0,1,0,68,false,stim,false,0,793,1,0,2,92553,task3,452887,false,false,441,image-keyboard-response,25
true,6,2,2,0,false,q,false,false,0.0-2.0-0.12-0.110-3.110,1,1,0,68,true,stim,true,2,664,1,0,2,92553,task3,455067,false,false,444,image-keyboard-response,1
true,6,1,2,1,true,z,false,true,0.0-2.0-0.12-0.111-3.111,1,1,0,90,false,stim,false,1,800,1,1,1,92553,task3,457387,false,false,447,image-keyboard-response,2
true,6,1,2,1,true,z,false,true,0.0-2.0-0.12-0.112-3.112,1,1,0,90,false,stim,false,1,676,1,1,0,92553,task3,459593,false,false,450,image-keyboard-response,3
true,6,1,2,1,true,z,false,true,0.0-2.0-0.12-0.113-3.113,1,1,0,90,false,stim,false,1,891,1,1,1,92553,task3,462002,false,false,453,image-keyboard-response,4
true,6,1,2,1,true,z,false,true,0.0-2.0-0.12-0.114-3.114,1,1,0,90,false,stim,false,1,467,1,1,1,92553,task3,463991,false,false,456,image-keyboard-response,5
true,6,1,2,1,true,z,false,true,0.0-2.0-0.12-0.115-3.115,1,1,0,90,false,stim,false,1,909,1,1,0,92553,task3,466423,false,false,459,image-keyboard-response,6
true,6,2,2,0,false,q,false,false,0.0-2.0-0.12-0.116-3.116,1,1,0,68,false,stim,true,2,678,1,0,2,92553,task3,468621,false,false,462,image-keyboard-response,7
true,6,1,2,1,true,z,false,true,0.0-2.0-0.13-0.117-3.117,1,1,0,90,false,stim,false,1,490,1,1,1,92553,task3,470626,false,false,465,image-keyboard-response,8
true,6,1,2,0,false,q,true,false,0.0-2.0-0.13-0.118-3.118,1,1,0,90,false,stim,false,2,742,1,0,2,92553,task3,472889,false,false,468,image-keyboard-response,9
true,6,1,2,0,false,q,true,false,0.0-2.0-0.13-0.119-3.119,1,1,0,90,false,stim,false,2,938,1,0,2,92553,task3,475348,false,false,471,image-keyboard-response,10
true,6,1,2,1,true,z,false,false,0.0-2.0-0.13-0.120-3.120,1,1,0,90,false,stim,false,1,993,1,1,1,92553,task3,477865,false,true,474,image-keyboard-response,11
true,6,1,2,1,true,z,false,true,0.0-2.0-0.13-0.121-3.121,1,1,0,90,false,stim,false,1,671,1,1,0,92553,task3,480050,false,false,477,image-keyboard-response,12
true,6,1,2,1,true,z,false,true,0.0-2.0-0.13-0.122-3.122,1,1,0,90,false,stim,false,1,535,1,1,0,92553,task3,482102,false,false,480,image-keyboard-response,13
true,6,0,2,0,true,q,false,true,0.0-2.0-0.13-0.123-3.123,1,1,0,81,false,stim,false,2,1421,1,0,2,92553,task3,485045,false,false,483,image-keyboard-response,14
true,6,1,2,1,true,z,false,true,0.0-2.0-0.13-0.124-3.124,1,1,0,90,false,stim,false,1,613,1,1,0,92553,task3,487174,false,false,486,image-keyboard-response,15
true,6,2,2,1,false,z,true,false,0.0-2.0-0.13-0.125-3.125,1,1,0,68,false,stim,false,1,1724,1,1,1,92553,task3,490418,false,false,489,image-keyboard-response,16
true,6,1,2,1,true,z,false,true,0.0-2.0-0.14-0.126-3.126,1,1,0,90,false,stim,false,1,514,1,1,1,92553,task3,492449,false,false,492,image-keyboard-response,17
true,6,0,2,0,true,q,false,true,0.0-2.0-0.14-0.127-3.127,1,1,0,81,false,stim,false,2,706,1,0,2,92553,task3,494669,false,false,495,image-keyboard-response,18
true,6,1,2,1,true,z,false,true,0.0-2.0-0.14-0.128-3.128,1,1,0,90,false,stim,false,1,490,1,1,1,92553,task3,496690,false,false,498,image-keyboard-response,19
true,6,1,2,1,true,z,false,true,0.0-2.0-0.14-0.129-3.129,1,1,0,90,false,stim,false,1,565,1,1,0,92553,task3,498784,false,false,501,image-keyboard-response,20
true,6,1,2,1,true,z,false,true,0.0-2.0-0.14-0.130-3.130,1,1,0,90,false,stim,false,1,828,1,1,1,92553,task3,501142,false,false,504,image-keyboard-response,21
true,6,0,2,0,true,q,false,true,0.0-2.0-0.14-0.131-3.131,1,1,0,81,false,stim,false,2,701,1,0,2,92553,task3,503361,false,false,507,image-keyboard-response,22
true,6,1,2,1,true,z,false,true,0.0-2.0-0.14-0.132-3.132,1,1,0,90,false,stim,false,1,522,1,1,0,92553,task3,505396,false,false,510,image-keyboard-response,23
true,6,0,2,0,true,q,false,true,0.0-2.0-0.14-0.133-3.133,1,1,0,81,false,stim,false,2,1136,1,0,2,92553,task3,508054,false,false,513,image-keyboard-response,24
true,6,1,2,1,true,z,false,true,0.0-2.0-0.14-0.134-3.134,1,1,0,90,false,stim,false,1,676,1,1,0,92553,task3,510256,false,false,516,image-keyboard-response,25
true,6,1,2,1,true,z,false,true,0.0-2.0-0.15-0.135-3.135,1,1,0,90,false,stim,false,1,596,1,1,0,92553,task3,512377,false,false,519,image-keyboard-response,26
true,6,1,2,1,true,z,false,true,0.0-2.0-0.15-0.136-3.136,1,1,0,90,false,stim,false,1,1063,1,0,1,92553,task3,514958,false,false,522,image-keyboard-response,27
true,6,0,2,0,true,q,false,true,0.0-2.0-0.15-0.137-3.137,1,1,0,81,false,stim,false,2,550,1,0,2,92553,task3,517026,false,false,525,image-keyboard-response,28
true,6,1,2,1,true,z,false,true,0.0-2.0-0.15-0.138-3.138,1,1,0,90,false,stim,false,1,1145,1,1,0,92553,task3,519699,false,false,528,image-keyboard-response,29
true,7,1,1,1,true,z,false,true,0.0-2.0-0.15-0.139-3.139,1,0,0,90,true,stim,false,1,463,1,1,0,92553,task3,521671,false,false,531,image-keyboard-response,1
true,7,0,1,1,false,z,false,false,0.0-2.0-0.15-0.140-3.140,1,0,0,81,false,stim,true,0,683,1,0,2,92553,task3,523874,false,false,534,image-keyboard-response,2
true,7,1,1,2,false,d,false,false,0.0-2.0-0.15-0.141-3.141,1,0,0,90,false,stim,true,1,596,1,0,1,92553,task3,525978,false,false,537,image-keyboard-response,3
true,7,1,1,2,false,d,false,false,0.0-2.0-0.15-0.142-3.142,1,0,0,90,false,stim,true,1,467,1,0,1,92553,task3,527964,false,false,540,image-keyboard-response,4
true,7,0,1,1,false,z,false,false,0.0-2.0-0.15-0.143-3.143,1,0,0,81,false,stim,true,0,866,1,0,2,92553,task3,530357,false,false,543,image-keyboard-response,5
true,7,1,1,1,true,z,false,true,0.0-2.0-0.16-0.144-3.144,1,0,0,90,false,stim,false,1,474,1,1,0,92553,task3,532338,false,false,546,image-keyboard-response,6
true,7,2,1,2,true,d,false,true,0.0-2.0-0.16-0.145-3.145,1,0,0,68,false,stim,false,1,815,1,0,1,92553,task3,534665,false,false,549,image-keyboard-response,7
true,7,1,1,1,true,z,false,true,0.0-2.0-0.16-0.146-3.146,1,0,0,90,false,stim,false,1,925,1,1,0,92553,task3,537106,false,false,552,image-keyboard-response,8
true,7,2,1,1,false,z,true,false,0.0-2.0-0.16-0.147-3.147,1,0,0,68,false,stim,false,0,1024,1,0,2,92553,task3,539656,false,false,555,image-keyboard-response,9
true,7,2,1,2,true,d,false,true,0.0-2.0-0.16-0.148-3.148,1,0,0,68,false,stim,false,1,907,1,0,1,92553,task3,542090,false,false,558,image-keyboard-response,10
true,7,1,1,1,true,z,false,true,0.0-2.0-0.16-0.149-3.149,1,0,0,90,false,stim,false,0,1101,1,0,2,92553,task3,544719,false,false,561,image-keyboard-response,11
true,7,2,1,2,true,d,false,false,0.0-2.0-0.16-0.150-3.150,1,0,0,68,false,stim,false,1,1402,1,0,1,92553,task3,547639,false,true,564,image-keyboard-response,12
true,7,1,1,1,true,z,false,true,0.0-2.0-0.16-0.151-3.151,1,0,0,90,false,stim,false,0,1388,1,0,2,92553,task3,550554,false,false,567,image-keyboard-response,13
true,7,1,1,1,true,z,false,true,0.0-2.0-0.16-0.152-3.152,1,0,0,90,false,stim,false,1,769,1,1,0,92553,task3,552851,false,false,570,image-keyboard-response,14
true,7,2,1,2,true,d,false,true,0.0-2.0-0.17-0.153-3.153,1,0,0,68,false,stim,false,1,634,1,0,1,92553,task3,555006,false,false,573,image-keyboard-response,15
true,7,2,1,2,true,d,false,true,0.0-2.0-0.17-0.154-3.154,1,0,0,68,false,stim,false,1,570,1,0,1,92553,task3,557084,false,false,576,image-keyboard-response,16
true,7,1,1,1,true,z,false,true,0.0-2.0-0.17-0.155-3.155,1,0,0,90,false,stim,false,0,897,1,0,2,92553,task3,559501,false,false,579,image-keyboard-response,17
true,7,1,1,1,true,z,false,true,0.0-2.0-0.17-0.156-3.156,1,0,0,90,false,stim,false,1,651,1,1,0,92553,task3,561676,false,false,582,image-keyboard-response,18
true,7,1,1,1,true,z,false,true,0.0-2.0-0.17-0.157-3.157,1,0,0,90,false,stim,false,1,495,1,1,0,92553,task3,563691,false,false,585,image-keyboard-response,19
true,7,1,1,1,true,z,false,true,0.0-2.0-0.17-0.158-3.158,1,0,0,90,false,stim,false,0,1311,1,0,2,92553,task3,566526,false,false,588,image-keyboard-response,20
true,7,1,1,1,true,z,false,true,0.0-2.0-0.17-0.159-3.159,1,0,0,90,false,stim,false,1,1129,1,1,0,92553,task3,569186,false,false,591,image-keyboard-response,21
true,7,1,1,1,true,z,false,true,0.0-2.0-0.17-0.160-3.160,1,0,0,90,false,stim,false,0,1031,1,0,2,92553,task3,571738,false,false,594,image-keyboard-response,22
true,7,2,1,2,true,d,false,true,0.0-2.0-0.17-0.161-3.161,1,0,0,68,false,stim,false,1,1174,1,0,1,92553,task3,574428,false,false,597,image-keyboard-response,23
true,7,1,1,1,true,z,false,true,0.0-2.0-0.18-0.162-3.162,1,0,0,90,false,stim,false,1,1447,1,1,0,92553,task3,577411,false,false,600,image-keyboard-response,24
true,7,1,1,1,true,z,false,true,0.0-2.0-0.18-0.163-3.163,1,0,0,90,false,stim,false,0,654,1,0,2,92553,task3,579606,false,false,603,image-keyboard-response,25
true,7,1,1,1,true,z,false,true,0.0-2.0-0.18-0.164-3.164,1,0,0,90,false,stim,false,1,933,1,0,0,92553,task3,582065,false,false,606,image-keyboard-response,26
true,7,2,1,2,true,d,false,true,0.0-2.0-0.18-0.165-3.165,1,0,0,68,false,stim,false,1,369,1,0,1,92553,task3,583957,false,false,609,image-keyboard-response,27
true,7,1,1,1,true,z,false,true,0.0-2.0-0.18-0.166-3.166,1,0,0,90,false,stim,false,0,629,1,1,2,92553,task3,586108,false,false,612,image-keyboard-response,28
true,7,1,1,1,true,z,false,true,0.0-2.0-0.18-0.167-3.167,1,0,0,90,false,stim,false,1,449,1,0,0,92553,task3,588082,false,false,615,image-keyboard-response,29
true,7,2,1,2,true,d,false,false,0.0-2.0-0.18-0.168-3.168,1,0,0,68,false,stim,false,1,444,1,0,1,92553,task3,590058,false,true,618,image-keyboard-response,30
true,8,2,1,0,false,q,false,false,0.0-2.0-0.18-0.169-3.169,0,0,1,68,true,stim,true,2,402,1,0,1,92553,task3,591977,false,false,621,image-keyboard-response,1
true,8,1,1,1,true,z,false,true,0.0-2.0-0.18-0.170-3.170,0,0,1,90,false,stim,false,1,680,1,1,2,92553,task3,594176,false,false,624,image-keyboard-response,2
true,8,1,1,0,false,q,false,false,0.0-2.0-0.19-0.171-3.171,0,0,1,90,false,stim,true,1,403,1,0,0,92553,task3,596099,false,false,627,image-keyboard-response,3
true,8,1,1,0,false,q,false,false,0.0-2.0-0.19-0.172-3.172,0,0,1,90,false,stim,true,1,569,1,0,0,92553,task3,598186,false,false,630,image-keyboard-response,4
true,8,2,1,0,false,q,false,true,0.0-2.0-0.19-0.173-3.173,0,0,1,68,false,stim,true,2,2270,1,0,1,92553,task3,601967,false,true,633,image-keyboard-response,5
true,8,1,1,1,true,z,false,true,0.0-2.0-0.19-0.174-3.174,0,0,1,90,false,stim,false,1,1112,1,1,2,92553,task3,604597,false,false,636,image-keyboard-response,6
true,8,1,1,1,true,z,false,true,0.0-2.0-0.19-0.175-3.175,0,0,1,90,false,stim,false,1,1217,1,1,2,92553,task3,607340,false,false,639,image-keyboard-response,7
true,8,2,1,0,false,q,true,false,0.0-2.0-0.19-0.176-3.176,0,0,1,68,false,stim,false,1,1670,1,0,0,92553,task3,610531,false,false,642,image-keyboard-response,8
true,8,1,1,0,false,q,true,false,0.0-2.0-0.19-0.177-3.177,0,0,1,90,false,stim,false,2,622,1,0,1,92553,task3,612678,false,false,645,image-keyboard-response,9
true,8,1,1,1,true,z,false,true,0.0-2.0-0.19-0.178-3.178,0,0,1,90,false,stim,false,1,1003,1,1,2,92553,task3,615210,false,false,648,image-keyboard-response,10
true,8,0,1,0,true,q,false,true,0.0-2.0-0.19-0.179-3.179,0,0,1,81,false,stim,false,2,999,1,0,1,92553,task3,617736,false,false,651,image-keyboard-response,11
true,8,1,1,1,true,z,false,true,0.0-2.0-0.20-0.180-3.180,0,0,1,90,false,stim,false,1,1166,1,1,2,92553,task3,620414,false,false,654,image-keyboard-response,12
true,8,1,1,1,true,z,false,true,0.0-2.0-0.20-0.181-3.181,0,0,1,90,false,stim,false,1,659,1,1,2,92553,task3,622595,false,false,657,image-keyboard-response,13
true,8,1,1,1,true,z,false,true,0.0-2.0-0.20-0.182-3.182,0,0,1,90,false,stim,false,1,390,1,1,2,92553,task3,624507,false,false,660,image-keyboard-response,14
true,8,0,1,0,true,q,false,true,0.0-2.0-0.20-0.183-3.183,0,0,1,81,false,stim,false,2,881,1,0,1,92553,task3,626895,false,false,663,image-keyboard-response,15
true,8,0,1,0,true,q,false,true,0.0-2.0-0.20-0.184-3.184,0,0,1,81,false,stim,false,1,961,1,0,0,92553,task3,629390,false,false,666,image-keyboard-response,16
true,8,0,1,0,true,q,false,true,0.0-2.0-0.20-0.185-3.185,0,0,1,81,false,stim,false,1,480,1,0,0,92553,task3,631399,false,false,669,image-keyboard-response,17
true,8,0,1,0,true,q,false,true,0.0-2.0-0.20-0.186-3.186,0,0,1,81,false,stim,false,1,531,1,0,0,92553,task3,633446,false,false,672,image-keyboard-response,18
true,8,0,1,0,true,q,false,true,0.0-2.0-0.20-0.187-3.187,0,0,1,81,false,stim,false,2,626,1,0,1,92553,task3,635596,false,false,675,image-keyboard-response,19
true,8,0,1,0,true,q,false,true,0.0-2.0-0.20-0.188-3.188,0,0,1,81,false,stim,false,2,507,1,0,1,92553,task3,637630,false,false,678,image-keyboard-response,20
true,8,0,1,0,true,q,false,true,0.0-2.0-0.21-0.189-3.189,0,0,1,81,false,stim,false,2,461,1,0,1,92553,task3,639609,false,false,681,image-keyboard-response,21
true,8,0,1,0,true,q,false,true,0.0-2.0-0.21-0.190-3.190,0,0,1,81,false,stim,false,1,561,1,0,0,92553,task3,641688,false,false,684,image-keyboard-response,22
true,8,0,1,0,true,q,false,true,0.0-2.0-0.21-0.191-3.191,0,0,1,81,false,stim,false,1,456,1,0,0,92553,task3,643674,false,false,687,image-keyboard-response,23
true,8,0,1,0,true,q,false,true,0.0-2.0-0.21-0.192-3.192,0,0,1,81,false,stim,false,2,542,1,0,1,92553,task3,645737,false,false,690,image-keyboard-response,24
true,8,1,1,1,true,z,false,true,0.0-2.0-0.21-0.193-3.193,0,0,1,90,false,stim,false,1,1275,1,1,2,92553,task3,648539,false,false,693,image-keyboard-response,25
true,8,1,1,1,true,z,false,true,0.0-2.0-0.21-0.194-3.194,0,0,1,90,false,stim,false,1,749,1,0,2,92553,task3,650813,false,false,696,image-keyboard-response,26
true,8,1,1,1,true,z,false,true,0.0-2.0-0.21-0.195-3.195,0,0,1,90,false,stim,false,1,569,1,0,2,92553,task3,652907,false,false,699,image-keyboard-response,27
true,8,0,1,0,true,q,false,true,0.0-2.0-0.21-0.196-3.196,0,0,1,81,false,stim,false,2,1122,1,0,1,92553,task3,655564,false,false,702,image-keyboard-response,28
true,8,0,1,0,true,q,false,true,0.0-2.0-0.21-0.197-3.197,0,0,1,81,false,stim,false,1,880,1,1,0,92553,task3,657958,false,false,705,image-keyboard-response,29
true,8,0,1,0,true,q,false,true,0.0-2.0-0.22-0.198-3.198,0,0,1,81,false,stim,false,2,1115,1,0,1,92553,task3,660594,false,false,708,image-keyboard-response,30
true,9,0,1,0,true,q,false,true,0.0-2.0-0.22-0.199-3.199,1,0,0,81,true,stim,false,0,722,1,1,0,92553,task3,662826,false,false,711,image-keyboard-response,1
true,9,0,1,0,true,q,false,true,0.0-2.0-0.22-0.200-3.200,1,0,0,81,false,stim,false,0,542,1,1,0,92553,task3,664888,false,false,714,image-keyboard-response,2
true,9,1,1,0,false,q,false,false,0.0-2.0-0.22-0.201-3.201,1,0,0,90,false,stim,true,1,947,1,0,2,92553,task3,667359,false,false,717,image-keyboard-response,3
true,9,0,1,0,true,q,false,true,0.0-2.0-0.22-0.202-3.202,1,0,0,81,false,stim,false,0,829,1,1,0,92553,task3,669711,false,false,720,image-keyboard-response,4
true,9,1,1,0,false,q,false,false,0.0-2.0-0.22-0.203-3.203,1,0,0,90,false,stim,true,1,408,1,0,2,92553,task3,671631,false,false,723,image-keyboard-response,5
true,9,0,1,1,false,z,false,false,0.0-2.0-0.22-0.204-3.204,1,0,0,81,false,stim,true,0,581,1,0,1,92553,task3,673739,false,false,726,image-keyboard-response,6
true,9,0,1,1,false,z,false,true,0.0-2.0-0.22-0.205-3.205,1,0,0,81,false,stim,true,0,491,1,0,1,92553,task3,675755,false,true,729,image-keyboard-response,7
true,9,2,1,0,false,q,true,false,0.0-2.0-0.22-0.206-3.206,1,0,0,68,false,stim,false,1,592,1,0,2,92553,task3,677880,false,false,732,image-keyboard-response,8
true,9,0,1,0,true,q,false,true,0.0-2.0-0.23-0.207-3.207,1,0,0,81,false,stim,false,1,810,1,0,2,92553,task3,680212,false,false,735,image-keyboard-response,9
true,9,0,1,1,false,z,false,false,0.0-2.0-0.23-0.208-3.208,1,0,0,81,false,stim,true,0,567,1,0,1,92553,task3,682310,false,false,738,image-keyboard-response,10
true,9,0,1,1,false,z,false,false,0.0-2.0-0.23-0.209-3.209,1,0,0,81,false,stim,true,0,395,1,0,1,92553,task3,684234,false,false,741,image-keyboard-response,11
true,9,2,1,1,false,z,true,false,0.0-2.0-0.23-0.210-3.210,1,0,0,68,false,stim,false,0,1020,1,0,1,92553,task3,686783,false,false,744,image-keyboard-response,12
true,9,0,1,0,true,q,false,true,0.0-2.0-0.23-0.211-3.211,1,0,0,81,false,stim,false,0,832,1,1,0,92553,task3,689143,false,false,747,image-keyboard-response,13
true,9,0,1,0,true,q,false,true,0.0-2.0-0.23-0.212-3.212,1,0,0,81,false,stim,false,0,496,1,1,0,92553,task3,691155,false,false,750,image-keyboard-response,14
true,9,0,1,0,true,q,false,true,0.0-2.0-0.23-0.213-3.213,1,0,0,81,false,stim,false,1,481,1,0,2,92553,task3,693152,false,false,753,image-keyboard-response,15
true,9,0,1,0,true,q,false,true,0.0-2.0-0.23-0.214-3.214,1,0,0,81,false,stim,false,0,704,1,1,0,92553,task3,695377,false,false,756,image-keyboard-response,16
true,9,0,1,0,true,q,false,true,0.0-2.0-0.23-0.215-3.215,1,0,0,81,false,stim,false,1,714,1,0,2,92553,task3,697601,false,false,759,image-keyboard-response,17
true,9,0,1,0,true,q,false,true,0.0-2.0-0.24-0.216-3.216,1,0,0,81,false,stim,false,1,775,1,0,2,92553,task3,699893,false,false,762,image-keyboard-response,18
true,9,1,1,1,true,z,false,true,0.0-2.0-0.24-0.217-3.217,1,0,0,90,false,stim,false,0,801,1,0,1,92553,task3,702223,false,false,765,image-keyboard-response,19
true,9,1,1,1,true,z,false,true,0.0-2.0-0.24-0.218-3.218,1,0,0,90,false,stim,false,0,706,1,0,1,92553,task3,704444,false,false,768,image-keyboard-response,20
true,9,1,1,1,true,z,false,true,0.0-2.0-0.24-0.219-3.219,1,0,0,90,false,stim,false,0,429,1,0,1,92553,task3,706394,false,false,771,image-keyboard-response,21
true,9,0,1,0,true,q,false,true,0.0-2.0-0.24-0.220-3.220,1,0,0,81,false,stim,false,1,623,1,0,2,92553,task3,708542,false,false,774,image-keyboard-response,22
true,9,0,1,0,true,q,false,false,0.0-2.0-0.24-0.221-3.221,1,0,0,81,false,stim,false,0,1114,1,1,0,92553,task3,711175,false,true,777,image-keyboard-response,23
true,9,0,1,0,true,q,false,true,0.0-2.0-0.24-0.222-3.222,1,0,0,81,false,stim,false,0,396,1,1,0,92553,task3,713088,false,false,780,image-keyboard-response,24
true,9,0,1,0,true,q,false,false,0.0-2.0-0.24-0.223-3.223,1,0,0,81,false,stim,false,1,841,1,0,2,92553,task3,715435,false,true,783,image-keyboard-response,25
true,10,0,1,0,true,q,false,true,0.0-2.0-0.24-0.224-3.224,1,0,0,81,true,stim,false,0,980,1,1,0,92553,task3,717938,false,false,786,image-keyboard-response,1
true,10,0,1,0,true,q,false,true,0.0-2.0-0.25-0.225-3.225,1,0,0,81,false,stim,false,0,522,1,1,0,92553,task3,719972,false,false,789,image-keyboard-response,2
true,10,0,1,2,false,d,false,false,0.0-2.0-0.25-0.226-3.226,1,0,0,81,false,stim,true,0,612,1,0,2,92553,task3,722106,false,false,792,image-keyboard-response,3
true,10,1,1,0,false,q,false,false,0.0-2.0-0.25-0.227-3.227,1,0,0,90,false,stim,true,1,762,1,0,1,92553,task3,724384,false,false,795,image-keyboard-response,4
true,10,2,1,2,true,d,false,true,0.0-2.0-0.25-0.228-3.228,1,0,0,68,false,stim,false,0,2204,1,0,2,92553,task3,728108,false,false,798,image-keyboard-response,5
true,10,0,1,0,true,q,false,false,0.0-2.0-0.25-0.229-3.229,1,0,0,81,false,stim,false,0,818,1,1,0,92553,task3,730469,false,true,801,image-keyboard-response,6
true,10,0,1,0,true,q,false,true,0.0-2.0-0.25-0.230-3.230,1,0,0,81,false,stim,false,0,428,1,1,0,92553,task3,732417,false,false,804,image-keyboard-response,7
true,10,1,1,0,false,q,false,false,0.0-2.0-0.25-0.231-3.231,1,0,0,90,false,stim,true,1,1031,1,0,1,92553,task3,734965,false,false,807,image-keyboard-response,8
true,10,0,1,0,true,q,false,true,0.0-2.0-0.25-0.232-3.232,1,0,0,81,false,stim,false,1,537,1,0,1,92553,task3,737021,false,false,810,image-keyboard-response,9
true,10,2,1,2,true,d,false,true,0.0-2.0-0.25-0.233-3.233,1,0,0,68,false,stim,false,0,1488,1,0,2,92553,task3,740031,false,false,813,image-keyboard-response,10
true,10,0,1,0,true,q,false,true,0.0-2.0-0.26-0.234-3.234,1,0,0,81,false,stim,false,0,561,1,1,0,92553,task3,742117,false,false,816,image-keyboard-response,11
true,10,0,1,0,true,q,false,true,0.0-2.0-0.26-0.235-3.235,1,0,0,81,false,stim,false,0,413,1,1,0,92553,task3,744062,false,false,819,image-keyboard-response,12
true,10,2,1,2,true,d,false,true,0.0-2.0-0.26-0.236-3.236,1,0,0,68,false,stim,false,0,617,1,0,2,92553,task3,746188,false,false,822,image-keyboard-response,13
true,10,0,1,0,true,q,false,false,0.0-2.0-0.26-0.237-3.237,1,0,0,81,false,stim,false,1,901,1,0,1,92553,task3,748620,false,true,825,image-keyboard-response,14
true,10,0,1,0,true,q,false,true,0.0-2.0-0.26-0.238-3.238,1,0,0,81,false,stim,false,1,383,1,0,1,92553,task3,750521,false,false,828,image-keyboard-response,15
true,10,0,1,0,true,q,false,true,0.0-2.0-0.26-0.239-3.239,1,0,0,81,false,stim,false,1,428,1,0,1,92553,task3,752466,false,false,831,image-keyboard-response,16
true,10,2,1,2,true,d,false,true,0.0-2.0-0.26-0.240-3.240,1,0,0,68,false,stim,false,0,1066,1,0,2,92553,task3,755050,false,false,834,image-keyboard-response,17
true,10,0,1,0,true,q,false,true,0.0-2.0-0.26-0.241-3.241,1,0,0,81,false,stim,false,0,627,1,1,0,92553,task3,757196,false,false,837,image-keyboard-response,18
true,10,2,1,2,true,d,false,true,0.0-2.0-0.26-0.242-3.242,1,0,0,68,false,stim,false,0,883,1,0,2,92553,task3,759601,false,false,840,image-keyboard-response,19
true,10,0,1,0,true,q,false,true,0.0-2.0-0.27-0.243-3.243,1,0,0,81,false,stim,false,0,961,1,1,0,92553,task3,762075,false,false,843,image-keyboard-response,20
true,10,2,1,2,true,d,false,true,0.0-2.0-0.27-0.244-3.244,1,0,0,68,false,stim,false,0,908,1,0,2,92553,task3,764502,false,false,846,image-keyboard-response,21
true,10,0,1,0,true,q,false,true,0.0-2.0-0.27-0.245-3.245,1,0,0,81,false,stim,false,0,620,1,0,0,92553,task3,766636,false,false,849,image-keyboard-response,22
true,10,2,1,2,true,d,false,false,0.0-2.0-0.27-0.246-3.246,1,0,0,68,false,stim,false,0,683,1,0,2,92553,task3,768842,false,true,852,image-keyboard-response,23
true,10,0,1,0,true,q,false,true,0.0-2.0-0.27-0.247-3.247,1,0,0,81,false,stim,false,1,1031,1,1,1,92553,task3,771389,false,false,855,image-keyboard-response,24
true,10,0,1,0,true,q,false,true,0.0-2.0-0.27-0.248-3.248,1,0,0,81,false,stim,false,1,519,1,1,1,92553,task3,773427,false,false,858,image-keyboard-response,25
true,10,0,1,0,true,q,false,true,0.0-2.0-0.27-0.249-3.249,1,0,0,81,false,stim,false,1,478,1,1,1,92553,task3,775417,false,false,861,image-keyboard-response,26
true,11,0,1,1,false,z,false,false,0.0-2.0-0.27-0.250-3.250,0,1,0,81,true,stim,true,0,523,1,0,0,92553,task3,777451,false,false,864,image-keyboard-response,1
true,11,2,1,0,false,q,false,false,0.0-2.0-0.27-0.251-3.251,0,1,0,68,false,stim,true,2,693,1,0,2,92553,task3,779654,false,false,867,image-keyboard-response,2
true,11,0,1,1,false,z,false,false,0.0-2.0-0.28-0.252-3.252,0,1,0,81,false,stim,true,0,671,1,0,0,92553,task3,781848,false,false,870,image-keyboard-response,3
true,11,1,1,0,false,q,true,false,0.0-2.0-0.28-0.253-3.253,0,1,0,90,false,stim,false,2,704,1,0,2,92553,task3,784080,false,false,873,image-keyboard-response,4
true,11,0,1,0,true,q,false,true,0.0-2.0-0.28-0.254-3.254,0,1,0,81,false,stim,false,2,465,1,0,2,92553,task3,786066,false,false,876,image-keyboard-response,5
true,11,0,1,0,true,q,false,true,0.0-2.0-0.28-0.255-3.255,0,1,0,81,false,stim,false,0,629,1,1,1,92553,task3,788203,false,false,879,image-keyboard-response,6
true,11,0,1,1,false,z,false,false,0.0-2.0-0.28-0.256-3.256,0,1,0,81,false,stim,true,0,468,1,0,0,92553,task3,790191,false,false,882,image-keyboard-response,7
true,11,0,1,0,true,q,false,false,0.0-2.0-0.28-0.257-3.257,0,1,0,81,false,stim,false,0,658,1,1,1,92553,task3,792366,false,true,885,image-keyboard-response,8
true,11,0,1,0,true,q,false,true,0.0-2.0-0.28-0.258-3.258,0,1,0,81,false,stim,false,0,403,1,1,1,92553,task3,794294,false,false,888,image-keyboard-response,9
true,11,0,1,0,true,q,false,true,0.0-2.0-0.28-0.259-3.259,0,1,0,81,false,stim,false,2,385,1,0,2,92553,task3,796198,false,false,891,image-keyboard-response,10
true,11,1,1,1,true,z,false,true,0.0-2.0-0.28-0.260-3.260,0,1,0,90,false,stim,false,0,589,1,0,0,92553,task3,798312,false,false,894,image-keyboard-response,11
true,11,1,1,1,true,z,false,true,0.0-2.0-0.29-0.261-3.261,0,1,0,90,false,stim,false,0,585,1,0,0,92553,task3,800420,false,false,897,image-keyboard-response,12
true,11,1,1,1,true,z,false,false,0.0-2.0-0.29-0.262-3.262,0,1,0,90,false,stim,false,0,369,1,0,0,92553,task3,802319,false,true,900,image-keyboard-response,13
true,11,1,1,1,true,z,false,true,0.0-2.0-0.29-0.263-3.263,0,1,0,90,false,stim,false,0,397,1,0,0,92553,task3,804266,false,false,903,image-keyboard-response,14
true,11,0,1,0,true,q,false,true,0.0-2.0-0.29-0.264-3.264,0,1,0,81,false,stim,false,2,1428,1,0,2,92553,task3,807208,false,false,906,image-keyboard-response,15
true,11,0,1,0,true,q,false,true,0.0-2.0-0.29-0.265-3.265,0,1,0,81,false,stim,false,0,669,1,1,1,92553,task3,809388,false,false,909,image-keyboard-response,16
true,11,1,1,0,false,q,true,false,0.0-2.0-0.29-0.266-3.266,0,1,0,90,false,stim,false,2,760,1,0,2,92553,task3,811664,false,false,912,image-keyboard-response,17
true,11,0,1,0,true,q,false,true,0.0-2.0-0.29-0.267-3.267,0,1,0,81,false,stim,false,2,843,1,0,2,92553,task3,814035,false,false,915,image-keyboard-response,18
true,11,0,1,0,true,q,false,true,0.0-2.0-0.29-0.268-3.268,0,1,0,81,false,stim,false,0,745,1,1,1,92553,task3,816308,false,false,918,image-keyboard-response,19
true,11,0,1,0,true,q,false,true,0.0-2.0-0.29-0.269-3.269,0,1,0,81,false,stim,false,0,454,1,1,1,92553,task3,818286,false,false,921,image-keyboard-response,20
true,11,0,1,0,true,q,false,true,0.0-2.0-0.30-0.270-3.270,0,1,0,81,false,stim,false,0,487,1,1,1,92553,task3,820292,false,false,924,image-keyboard-response,21
true,11,0,1,0,true,q,false,true,0.0-2.0-0.30-0.271-3.271,0,1,0,81,false,stim,false,2,887,1,0,2,92553,task3,822696,false,false,927,image-keyboard-response,22
true,11,0,1,0,true,q,false,true,0.0-2.0-0.30-0.272-3.272,0,1,0,81,false,stim,false,2,435,1,0,2,92553,task3,824659,false,false,930,image-keyboard-response,23
true,11,0,1,1,false,z,false,false,0.0-2.0-0.30-0.273-3.273,0,1,0,81,false,stim,true,0,774,1,1,0,92553,task3,826948,false,false,933,image-keyboard-response,24
true,11,0,1,0,true,q,false,true,0.0-2.0-0.30-0.274-3.274,0,1,0,81,false,stim,false,2,544,1,0,2,92553,task3,829016,false,false,936,image-keyboard-response,25
true,11,0,1,0,true,q,false,true,0.0-2.0-0.30-0.275-3.275,0,1,0,81,false,stim,false,0,658,1,0,1,92553,task3,831196,false,false,939,image-keyboard-response,26
true,12,1,1,1,true,z,false,true,0.0-2.0-0.30-0.276-3.276,1,0,0,90,true,stim,false,1,540,1,1,0,92553,task3,833261,false,false,942,image-keyboard-response,1
true,12,1,1,1,true,z,false,true,0.0-2.0-0.30-0.277-3.277,1,0,0,90,false,stim,false,1,554,1,1,0,92553,task3,835342,false,false,945,image-keyboard-response,2
true,12,0,1,2,false,d,false,false,0.0-2.0-0.30-0.278-3.278,1,0,0,81,false,stim,true,0,699,1,0,1,92553,task3,837564,false,false,948,image-keyboard-response,3
true,12,0,1,2,false,d,false,false,0.0-2.0-0.31-0.279-3.279,1,0,0,81,false,stim,true,0,516,1,0,1,92553,task3,839600,false,false,951,image-keyboard-response,4
true,12,0,1,2,false,d,false,false,0.0-2.0-0.31-0.280-3.280,1,0,0,81,false,stim,true,0,1124,1,0,2,92553,task3,842243,false,false,954,image-keyboard-response,5
true,12,2,1,2,true,d,false,true,0.0-2.0-0.31-0.281-3.281,1,0,0,68,false,stim,false,0,1340,1,0,1,92553,task3,845105,false,false,957,image-keyboard-response,6
true,12,2,1,2,true,d,false,true,0.0-2.0-0.31-0.282-3.282,1,0,0,68,false,stim,false,0,2118,1,0,1,92553,task3,848733,false,false,960,image-keyboard-response,7
true,12,1,1,1,true,z,false,true,0.0-2.0-0.31-0.283-3.283,1,0,0,90,false,stim,false,1,992,1,1,0,92553,task3,851244,false,false,963,image-keyboard-response,8
true,12,0,1,2,false,d,false,false,0.0-2.0-0.31-0.284-3.284,1,0,0,81,false,stim,true,0,748,1,0,2,92553,task3,853516,false,false,966,image-keyboard-response,9
true,12,1,1,1,true,z,false,true,0.0-2.0-0.31-0.285-3.285,1,0,0,90,false,stim,false,1,872,1,1,0,92553,task3,855921,false,false,969,image-keyboard-response,10
true,12,1,1,1,true,z,false,true,0.0-2.0-0.31-0.286-3.286,1,0,0,90,false,stim,false,1,521,1,1,0,92553,task3,857964,false,false,972,image-keyboard-response,11
true,12,1,1,2,false,d,true,false,0.0-2.0-0.31-0.287-3.287,1,0,0,90,false,stim,false,0,1338,1,0,2,92553,task3,860825,false,false,975,image-keyboard-response,12
true,12,2,1,2,true,d,false,false,0.0-2.0-0.32-0.288-3.288,1,0,0,68,false,stim,false,0,576,1,0,1,92553,task3,862920,false,true,978,image-keyboard-response,13
true,12,2,1,2,true,d,false,false,0.0-2.0-0.32-0.289-3.289,1,0,0,68,false,stim,false,0,1078,1,0,2,92553,task3,865525,false,true,981,image-keyboard-response,14
true,12,1,1,1,true,z,false,true,0.0-2.0-0.32-0.290-3.290,1,0,0,90,false,stim,false,1,911,1,1,0,92553,task3,867968,false,false,984,image-keyboard-response,15
true,12,0,1,2,false,d,false,false,0.0-2.0-0.32-0.291-3.291,1,0,0,81,false,stim,true,0,746,1,0,1,92553,task3,870222,false,false,987,image-keyboard-response,16
true,12,1,1,1,true,z,false,true,0.0-2.0-0.32-0.292-3.292,1,0,0,90,false,stim,false,1,464,1,1,0,92553,task3,872206,false,false,990,image-keyboard-response,17
true,12,1,1,1,true,z,false,true,0.0-2.0-0.32-0.293-3.293,1,0,0,90,false,stim,false,1,676,1,1,0,92553,task3,874402,false,false,993,image-keyboard-response,18
true,12,1,1,2,false,d,true,false,0.0-2.0-0.32-0.294-3.294,1,0,0,90,false,stim,false,0,646,1,0,2,92553,task3,876572,false,false,996,image-keyboard-response,19
true,12,1,1,2,false,d,true,false,0.0-2.0-0.32-0.295-3.295,1,0,0,90,false,stim,false,0,791,1,0,1,92553,task3,878892,false,false,999,image-keyboard-response,20
true,12,2,1,2,true,d,false,true,0.0-2.0-0.32-0.296-3.296,1,0,0,68,false,stim,false,0,803,1,0,2,92553,task3,881241,false,false,1002,image-keyboard-response,21
true,12,1,1,1,true,z,false,true,0.0-2.0-0.33-0.297-3.297,1,0,0,90,false,stim,false,1,395,1,1,0,92553,task3,883162,false,false,1005,image-keyboard-response,22
true,12,0,1,2,false,d,false,false,0.0-2.0-0.33-0.298-3.298,1,0,0,81,false,stim,true,0,1310,1,0,1,92553,task3,885995,false,false,1008,image-keyboard-response,23
true,12,2,1,2,true,d,false,true,0.0-2.0-0.33-0.299-3.299,1,0,0,68,false,stim,false,0,866,1,0,2,92553,task3,888379,false,false,1011,image-keyboard-response,24
true,12,1,1,1,true,z,false,true,0.0-2.0-0.33-0.300-3.300,1,0,0,90,false,stim,false,1,428,1,1,0,92553,task3,890320,false,false,1014,image-keyboard-response,25
true,12,1,1,2,false,d,true,false,0.0-2.0-0.33-0.301-3.301,1,0,0,90,false,stim,false,0,782,1,1,1,92553,task3,892630,false,false,1017,image-keyboard-response,26
true,12,1,1,1,true,z,false,true,0.0-2.0-0.33-0.302-3.302,1,0,0,90,false,stim,false,1,692,1,1,0,92553,task3,894842,false,false,1020,image-keyboard-response,27
true,12,2,1,2,true,d,false,true,0.0-2.0-0.33-0.303-3.303,1,0,0,68,false,stim,false,0,717,1,0,2,92553,task3,897082,false,false,1023,image-keyboard-response,28
true,12,2,1,2,true,d,false,true,0.0-2.0-0.33-0.304-3.304,1,0,0,68,false,stim,false,0,938,1,0,2,92553,task3,899552,false,false,1026,image-keyboard-response,29
true,13,2,2,2,true,d,false,true,0.0-2.0-0.33-0.305-3.305,1,1,0,68,true,stim,false,2,558,1,1,1,92553,task3,901637,false,false,1029,image-keyboard-response,1
true,13,2,2,0,false,q,false,false,0.0-2.0-0.34-0.306-3.306,1,1,0,68,false,stim,true,2,874,1,0,2,92553,task3,904043,false,false,1032,image-keyboard-response,2
true,13,2,2,0,false,q,false,false,0.0-2.0-0.34-0.307-3.307,1,1,0,68,false,stim,true,2,375,1,0,2,92553,task3,905944,false,false,1035,image-keyboard-response,3
true,13,2,2,2,true,d,false,true,0.0-2.0-0.34-0.308-3.308,1,1,0,68,false,stim,false,2,757,1,1,1,92553,task3,908221,false,false,1038,image-keyboard-response,4
true,13,1,2,1,true,z,false,true,0.0-2.0-0.34-0.309-3.309,1,1,0,90,false,stim,false,1,784,1,1,0,92553,task3,910532,false,false,1041,image-keyboard-response,5
true,13,2,2,0,false,q,false,false,0.0-2.0-0.34-0.310-3.310,1,1,0,68,false,stim,true,2,872,1,0,2,92553,task3,912920,false,false,1044,image-keyboard-response,6
true,13,1,2,1,true,z,false,true,0.0-2.0-0.34-0.311-3.311,1,1,0,90,false,stim,false,1,895,1,1,0,92553,task3,915324,false,false,1047,image-keyboard-response,7
true,13,2,2,2,true,d,false,true,0.0-2.0-0.34-0.312-3.312,1,1,0,68,false,stim,false,2,659,1,1,1,92553,task3,917499,false,false,1050,image-keyboard-response,8
true,13,1,2,1,true,z,false,true,0.0-2.0-0.34-0.313-3.313,1,1,0,90,false,stim,false,1,812,1,0,0,92553,task3,919845,false,false,1053,image-keyboard-response,9
true,13,2,2,2,true,d,false,true,0.0-2.0-0.34-0.314-3.314,1,1,0,68,false,stim,false,2,1203,1,1,1,92553,task3,922573,false,false,1056,image-keyboard-response,10
true,13,0,2,0,true,q,false,true,0.0-2.0-0.35-0.315-3.315,1,1,0,81,false,stim,false,2,609,1,1,2,92553,task3,924707,false,false,1059,image-keyboard-response,11
true,13,2,2,2,true,d,false,true,0.0-2.0-0.35-0.316-3.316,1,1,0,68,false,stim,false,2,707,1,1,1,92553,task3,926931,false,false,1062,image-keyboard-response,12
true,13,2,2,2,true,d,false,true,0.0-2.0-0.35-0.317-3.317,1,1,0,68,false,stim,false,2,1216,1,1,1,92553,task3,929670,false,false,1065,image-keyboard-response,13
true,14,0,2,0,true,q,false,true,0.0-2.0-0.35-0.318-3.318,0,1,1,81,true,stim,false,0,650,1,1,2,92553,task3,931838,false,false,1068,image-keyboard-response,1
true,14,2,2,2,true,d,false,true,0.0-2.0-0.35-0.319-3.319,0,1,1,68,false,stim,false,2,1273,1,1,1,92553,task3,934638,false,false,1071,image-keyboard-response,2
true,14,1,2,2,false,d,false,false,0.0-2.0-0.35-0.320-3.320,0,1,1,90,false,stim,true,1,771,1,0,0,92553,task3,936934,false,false,1074,image-keyboard-response,3
true,14,0,2,0,true,q,false,true,0.0-2.0-0.35-0.321-3.321,0,1,1,81,false,stim,false,0,667,1,1,2,92553,task3,939120,false,false,1077,image-keyboard-response,4
true,14,1,2,2,false,d,false,false,0.0-2.0-0.35-0.322-3.322,0,1,1,90,false,stim,true,1,1234,1,0,0,92553,task3,941886,false,false,1080,image-keyboard-response,5
true,14,2,2,2,true,d,false,true,0.0-2.0-0.35-0.323-3.323,0,1,1,68,false,stim,false,1,680,1,0,0,92553,task3,944089,false,false,1083,image-keyboard-response,6
true,14,0,2,0,true,q,false,true,0.0-2.0-0.36-0.324-3.324,0,1,1,81,false,stim,false,0,1156,1,1,2,92553,task3,946776,false,false,1086,image-keyboard-response,7
true,14,0,2,0,true,q,false,true,0.0-2.0-0.36-0.325-3.325,0,1,1,81,false,stim,false,0,886,1,1,2,92553,task3,949169,false,false,1089,image-keyboard-response,8
true,14,2,2,2,true,d,false,true,0.0-2.0-0.36-0.326-3.326,0,1,1,68,false,stim,false,1,652,1,0,0,92553,task3,951339,false,false,1092,image-keyboard-response,9
true,14,2,2,2,true,d,false,true,0.0-2.0-0.36-0.327-3.327,0,1,1,68,false,stim,false,2,634,1,1,1,92553,task3,953487,false,false,1095,image-keyboard-response,10
true,14,2,2,2,true,d,false,true,0.0-2.0-0.36-0.328-3.328,0,1,1,68,false,stim,false,1,1626,1,0,0,92553,task3,956641,false,false,1098,image-keyboard-response,11
true,14,2,2,2,true,d,false,true,0.0-2.0-0.36-0.329-3.329,0,1,1,68,false,stim,false,2,686,1,1,1,92553,task3,958870,false,false,1101,image-keyboard-response,12
true,14,2,2,2,true,d,false,false,0.0-2.0-0.36-0.330-3.330,0,1,1,68,false,stim,false,1,684,1,1,0,92553,task3,961078,false,true,1104,image-keyboard-response,13
true,14,2,2,2,true,d,false,true,0.0-2.0-0.36-0.331-3.331,0,1,1,68,false,stim,false,2,1630,1,1,1,92553,task3,964227,false,false,1107,image-keyboard-response,14
true,14,0,2,0,true,q,false,true,0.0-2.0-0.36-0.332-3.332,0,1,1,81,false,stim,false,0,651,1,0,2,92553,task3,966402,false,false,1110,image-keyboard-response,15
true,14,0,2,0,true,q,false,true,0.0-2.0-0.37-0.333-3.333,0,1,1,81,false,stim,false,0,683,1,0,2,92553,task3,968604,false,false,1113,image-keyboard-response,16
true,15,2,2,2,true,d,false,true,0.0-2.0-0.37-0.334-3.334,1,1,0,68,true,stim,false,2,495,1,1,0,92553,task3,970623,false,false,1116,image-keyboard-response,1
true,15,0,2,1,false,z,false,true,0.0-2.0-0.37-0.335-3.335,1,1,0,81,false,stim,true,0,1822,1,0,2,92553,task3,973961,false,true,1119,image-keyboard-response,2
true,15,2,2,2,true,d,false,true,0.0-2.0-0.37-0.336-3.336,1,1,0,68,false,stim,false,2,1291,1,1,1,92553,task3,976780,false,false,1122,image-keyboard-response,3
true,15,2,2,2,true,d,false,true,0.0-2.0-0.37-0.337-3.337,1,1,0,68,false,stim,false,2,1147,1,1,0,92553,task3,979447,false,false,1125,image-keyboard-response,4
true,15,0,2,1,false,z,false,false,0.0-2.0-0.37-0.338-3.338,1,1,0,81,false,stim,true,0,851,1,0,2,92553,task3,981820,false,false,1128,image-keyboard-response,5
true,15,2,2,2,true,d,false,true,0.0-2.0-0.37-0.339-3.339,1,1,0,68,false,stim,false,2,890,1,1,0,92553,task3,984238,false,false,1131,image-keyboard-response,6
true,15,2,2,2,true,d,false,true,0.0-2.0-0.37-0.340-3.340,1,1,0,68,false,stim,false,2,523,1,0,1,92553,task3,986282,false,false,1134,image-keyboard-response,7
true,15,2,2,2,true,d,false,true,0.0-2.0-0.37-0.341-3.341,1,1,0,68,false,stim,false,2,508,1,0,1,92553,task3,988326,false,false,1137,image-keyboard-response,8
true,15,0,2,1,false,z,false,false,0.0-2.0-0.38-0.342-3.342,1,1,0,81,false,stim,true,0,980,1,1,2,92553,task3,990833,false,false,1140,image-keyboard-response,9
true,15,1,2,1,true,z,false,true,0.0-2.0-0.38-0.343-3.343,1,1,0,90,false,stim,false,0,1123,1,1,2,92553,task3,993476,false,false,1143,image-keyboard-response,10
true,15,2,2,2,true,d,false,true,0.0-2.0-0.38-0.344-3.344,1,1,0,68,false,stim,false,2,796,1,0,1,92553,task3,995798,false,false,1146,image-keyboard-response,11
true,16,2,1,0,false,q,false,true,0.0-2.0-0.38-0.345-3.345,0,0,1,68,true,stim,true,2,520,1,0,1,92553,task3,997841,false,true,1149,image-keyboard-response,1
true,16,1,1,1,true,z,false,true,0.0-2.0-0.38-0.346-3.346,0,0,1,90,false,stim,false,1,1063,1,1,2,92553,task3,1000416,false,false,1152,image-keyboard-response,2
true,16,2,1,1,false,z,false,false,0.0-2.0-0.38-0.347-3.347,0,0,1,68,false,stim,true,2,1316,1,0,0,92553,task3,1003260,false,false,1155,image-keyboard-response,3
true,16,2,1,1,false,z,false,false,0.0-2.0-0.38-0.348-3.348,0,0,1,68,false,stim,true,2,665,1,0,0,92553,task3,1005445,false,false,1158,image-keyboard-response,4
true,16,0,1,1,false,z,true,false,0.0-2.0-0.38-0.349-3.349,0,0,1,81,false,stim,false,2,465,1,0,0,92553,task3,1007437,false,false,1161,image-keyboard-response,5
true,16,2,1,0,false,q,false,false,0.0-2.0-0.38-0.350-3.350,0,0,1,68,false,stim,true,2,832,1,0,1,92553,task3,1009803,false,false,1164,image-keyboard-response,6
true,16,1,1,1,true,z,false,true,0.0-2.0-0.39-0.351-3.351,0,0,1,90,false,stim,false,2,1076,1,0,0,92553,task3,1012399,false,false,1167,image-keyboard-response,7
true,16,1,1,1,true,z,false,false,0.0-2.0-0.39-0.352-3.352,0,0,1,90,false,stim,false,1,1247,1,1,2,92553,task3,1015177,false,true,1170,image-keyboard-response,8
true,16,1,1,1,true,z,false,true,0.0-2.0-0.39-0.353-3.353,0,0,1,90,false,stim,false,2,761,1,0,0,92553,task3,1017474,false,false,1173,image-keyboard-response,9
true,16,1,1,1,true,z,false,true,0.0-2.0-0.39-0.354-3.354,0,0,1,90,false,stim,false,2,741,1,0,0,92553,task3,1019741,false,false,1176,image-keyboard-response,10
true,16,1,1,1,true,z,false,true,0.0-2.0-0.39-0.355-3.355,0,0,1,90,false,stim,false,1,472,1,1,2,92553,task3,1021744,false,false,1179,image-keyboard-response,11
true,16,2,1,0,false,q,false,false,0.0-2.0-0.39-0.356-3.356,0,0,1,68,false,stim,true,2,465,1,0,1,92553,task3,1023735,false,false,1182,image-keyboard-response,12
true,16,2,1,0,false,q,false,false,0.0-2.0-0.39-0.357-3.357,0,0,1,68,false,stim,true,2,401,1,0,1,92553,task3,1025644,false,false,1185,image-keyboard-response,13
true,16,1,1,0,false,q,true,false,0.0-2.0-0.39-0.358-3.358,0,0,1,90,false,stim,false,2,1061,1,0,1,92553,task3,1028230,false,false,1188,image-keyboard-response,14
true,16,1,1,1,true,z,false,false,0.0-2.0-0.39-0.359-3.359,0,0,1,90,false,stim,false,1,729,1,1,2,92553,task3,1030490,false,true,1191,image-keyboard-response,15
true,16,1,1,1,true,z,false,true,0.0-2.0-0.40-0.360-3.360,0,0,1,90,false,stim,false,2,751,1,0,0,92553,task3,1032756,false,false,1194,image-keyboard-response,16
true,16,0,1,0,true,q,false,true,0.0-2.0-0.40-0.361-3.361,0,0,1,81,false,stim,false,2,974,1,0,1,92553,task3,1035251,false,false,1197,image-keyboard-response,17
true,16,1,1,1,true,z,false,true,0.0-2.0-0.40-0.362-3.362,0,0,1,90,false,stim,false,1,812,1,1,2,92553,task3,1037582,false,false,1200,image-keyboard-response,18
true,16,1,1,1,true,z,false,true,0.0-2.0-0.40-0.363-3.363,0,0,1,90,false,stim,false,2,1156,1,0,0,92553,task3,1040288,false,false,1203,image-keyboard-response,19
true,16,0,1,0,true,q,false,true,0.0-2.0-0.40-0.364-3.364,0,0,1,81,false,stim,false,2,847,1,0,1,92553,task3,1042662,false,false,1206,image-keyboard-response,20
true,16,0,1,0,true,q,false,true,0.0-2.0-0.40-0.365-3.365,0,0,1,81,false,stim,false,2,861,1,0,1,92553,task3,1045046,false,false,1209,image-keyboard-response,21
true,16,1,1,1,true,z,false,true,0.0-2.0-0.40-0.366-3.366,0,0,1,90,false,stim,false,1,1003,1,1,2,92553,task3,1047556,false,false,1212,image-keyboard-response,22
true,16,1,1,1,true,z,false,true,0.0-2.0-0.40-0.367-3.367,0,0,1,90,false,stim,false,1,429,1,1,2,92553,task3,1049509,false,false,1215,image-keyboard-response,23
true,16,1,1,1,true,z,false,true,0.0-2.0-0.40-0.368-3.368,0,0,1,90,false,stim,false,2,492,1,0,0,92553,task3,1051519,false,false,1218,image-keyboard-response,24
true,16,0,1,0,true,q,false,true,0.0-2.0-0.41-0.369-3.369,0,0,1,81,false,stim,false,2,987,1,0,1,92553,task3,1054023,false,false,1221,image-keyboard-response,25
true,17,1,1,0,false,q,false,false,0.0-2.0-0.41-0.370-3.370,0,0,1,90,true,stim,true,1,930,1,0,0,92553,task3,1056474,false,false,1224,image-keyboard-response,1
true,17,1,1,1,true,z,false,true,0.0-2.0-0.41-0.371-3.371,0,0,1,90,false,stim,false,1,643,1,1,2,92553,task3,1058625,false,false,1227,image-keyboard-response,2
true,17,1,1,0,false,q,false,false,0.0-2.0-0.41-0.372-3.372,0,0,1,90,false,stim,true,1,375,1,0,0,92553,task3,1060517,false,false,1230,image-keyboard-response,3
true,17,0,1,2,false,d,false,true,0.0-2.0-0.41-0.373-3.373,0,0,1,81,false,stim,true,0,683,1,0,1,92553,task3,1062724,false,true,1233,image-keyboard-response,4
true,17,1,1,1,true,z,false,true,0.0-2.0-0.41-0.374-3.374,0,0,1,90,false,stim,false,1,1038,1,1,2,92553,task3,1065284,false,false,1236,image-keyboard-response,5
true,17,0,1,2,false,d,false,false,0.0-2.0-0.41-0.375-3.375,0,0,1,81,false,stim,true,0,1083,1,0,1,92553,task3,1067882,false,false,1239,image-keyboard-response,6
true,17,1,1,0,false,q,false,false,0.0-2.0-0.41-0.376-3.376,0,0,1,90,false,stim,true,1,1513,1,0,0,92553,task3,1070927,false,false,1242,image-keyboard-response,7
true,17,1,1,1,true,z,false,true,0.0-2.0-0.41-0.377-3.377,0,0,1,90,false,stim,false,1,1185,1,1,2,92553,task3,1073643,false,false,1245,image-keyboard-response,8
true,17,2,1,0,false,q,true,false,0.0-2.0-0.42-0.378-3.378,0,0,1,68,false,stim,false,1,889,1,1,0,92553,task3,1076048,false,false,1248,image-keyboard-response,9
true,17,0,1,2,false,d,false,true,0.0-2.0-0.42-0.379-3.379,0,0,1,81,false,stim,true,0,1104,1,1,1,92553,task3,1078666,false,true,1251,image-keyboard-response,10
true,17,0,1,2,false,d,false,false,0.0-2.0-0.42-0.380-3.380,0,0,1,81,false,stim,true,0,678,1,1,1,92553,task3,1080864,false,false,1254,image-keyboard-response,11
true,17,1,1,1,true,z,false,true,0.0-2.0-0.42-0.381-3.381,0,0,1,90,false,stim,false,1,1204,1,0,2,92553,task3,1083577,false,false,1257,image-keyboard-response,12
true,17,1,1,1,true,z,false,true,0.0-2.0-0.42-0.382-3.382,0,0,1,90,false,stim,false,1,913,1,0,2,92553,task3,1086006,false,false,1260,image-keyboard-response,13
true,18,1,2,2,false,d,false,false,0.0-2.0-0.42-0.383-3.383,1,1,0,90,true,stim,true,1,643,1,0,2,92553,task3,1088159,false,false,1263,image-keyboard-response,1
true,18,0,2,0,true,q,false,true,0.0-2.0-0.42-0.384-3.384,1,1,0,81,false,stim,false,0,861,1,1,0,92553,task3,1090530,false,false,1266,image-keyboard-response,2
true,18,0,2,0,true,q,false,true,0.0-2.0-0.42-0.385-3.385,1,1,0,81,false,stim,false,0,970,1,1,0,92553,task3,1093019,false,false,1269,image-keyboard-response,3
true,18,0,2,2,false,d,true,true,0.0-2.0-0.42-0.386-3.386,1,1,0,81,false,stim,false,2,561,1,1,1,92553,task3,1095101,false,true,1272,image-keyboard-response,4
true,18,1,2,2,false,d,false,false,0.0-2.0-0.43-0.387-3.387,1,1,0,90,false,stim,true,1,550,1,0,2,92553,task3,1097179,false,false,1275,image-keyboard-response,5
true,18,0,2,0,true,q,false,false,0.0-2.0-0.43-0.388-3.388,1,1,0,81,false,stim,false,0,751,1,1,0,92553,task3,1099454,false,true,1278,image-keyboard-response,6
true,18,0,2,2,false,d,true,false,0.0-2.0-0.43-0.389-3.389,1,1,0,81,false,stim,false,2,1112,1,1,1,92553,task3,1102092,false,false,1281,image-keyboard-response,7
true,18,1,2,0,false,q,true,false,0.0-2.0-0.43-0.390-3.390,1,1,0,90,false,stim,false,0,1001,1,1,0,92553,task3,1104604,false,false,1284,image-keyboard-response,8
true,18,0,2,2,false,d,true,false,0.0-2.0-0.43-0.391-3.391,1,1,0,81,false,stim,false,1,1211,1,1,2,92553,task3,1107340,false,false,1287,image-keyboard-response,9
true,18,1,2,2,false,d,true,false,0.0-2.0-0.43-0.392-3.392,1,1,0,90,false,stim,false,2,1565,1,0,1,92553,task3,1110431,false,false,1290,image-keyboard-response,10
true,18,2,2,2,true,d,false,true,0.0-2.0-0.43-0.393-3.393,1,1,0,68,false,stim,false,2,624,1,0,1,92553,task3,1112566,false,false,1293,image-keyboard-response,11
true,18,2,2,0,false,q,true,false,0.0-2.0-0.43-0.394-3.394,1,1,0,68,false,stim,false,0,519,1,1,0,92553,task3,1114614,false,false,1296,image-keyboard-response,12
true,19,2,2,2,true,d,false,true,0.0-2.0-0.43-0.395-3.395,1,0,1,68,true,stim,false,2,399,1,1,2,92553,task3,1116531,false,false,1299,image-keyboard-response,1
true,19,1,2,0,false,q,true,false,0.0-2.0-0.44-0.396-3.396,1,0,1,90,false,stim,false,0,542,1,1,0,92553,task3,1118621,false,false,1302,image-keyboard-response,2
true,19,0,2,0,true,q,false,true,0.0-2.0-0.44-0.397-3.397,1,0,1,81,false,stim,false,0,551,1,1,0,92553,task3,1120690,false,false,1305,image-keyboard-response,3
true,19,2,2,1,false,z,false,false,0.0-2.0-0.44-0.398-3.398,1,0,1,68,false,stim,true,2,1169,1,0,1,92553,task3,1123378,false,false,1308,image-keyboard-response,4
true,19,2,2,2,true,d,false,true,0.0-2.0-0.44-0.399-3.399,1,0,1,68,false,stim,false,2,805,1,1,2,92553,task3,1125707,false,false,1311,image-keyboard-response,5
true,19,0,2,1,false,z,true,false,0.0-2.0-0.44-0.400-3.400,1,0,1,81,false,stim,false,2,1440,1,0,1,92553,task3,1128674,false,false,1314,image-keyboard-response,6
true,19,2,2,2,true,d,false,true,0.0-2.0-0.44-0.401-3.401,1,0,1,68,false,stim,false,2,1852,1,1,2,92553,task3,1132056,false,false,1317,image-keyboard-response,7
true,19,2,2,1,false,z,false,false,0.0-2.0-0.44-0.402-3.402,1,0,1,68,false,stim,true,2,973,1,0,1,92553,task3,1134555,false,false,1320,image-keyboard-response,8
true,19,2,2,2,true,d,false,false,0.0-2.0-0.44-0.403-3.403,1,0,1,68,false,stim,false,2,644,1,1,2,92553,task3,1136729,false,true,1323,image-keyboard-response,9
true,19,2,2,0,false,q,true,false,0.0-2.0-0.44-0.404-3.404,1,0,1,68,false,stim,false,0,498,1,1,0,92553,task3,1138746,false,false,1326,image-keyboard-response,10
true,19,0,2,0,true,q,false,true,0.0-2.0-0.45-0.405-3.405,1,0,1,81,false,stim,false,0,661,1,0,0,92553,task3,1140929,false,false,1329,image-keyboard-response,11
true,19,2,2,2,true,d,false,true,0.0-2.0-0.45-0.406-3.406,1,0,1,68,false,stim,false,2,999,1,1,2,92553,task3,1143454,false,false,1332,image-keyboard-response,12
true,19,2,2,1,false,z,false,false,0.0-2.0-0.45-0.407-3.407,1,0,1,68,false,stim,true,2,925,1,1,1,92553,task3,1145903,false,false,1335,image-keyboard-response,13
true,19,1,2,1,true,z,false,true,0.0-2.0-0.45-0.408-3.408,1,0,1,90,false,stim,false,2,907,1,1,1,92553,task3,1148340,false,false,1338,image-keyboard-response,14
true,19,2,2,2,true,d,false,true,0.0-2.0-0.45-0.409-3.409,1,0,1,68,false,stim,false,2,710,1,1,2,92553,task3,1150563,false,false,1341,image-keyboard-response,15
true,20,0,2,2,false,d,false,false,0.0-2.0-0.45-0.410-3.410,0,1,1,81,true,stim,true,0,628,1,0,0,92553,task3,1152713,false,false,1344,image-keyboard-response,1
true,20,0,2,2,false,d,false,false,0.0-2.0-0.45-0.411-3.411,0,1,1,81,false,stim,true,0,723,1,0,0,92553,task3,1154956,false,false,1347,image-keyboard-response,2
true,20,1,2,1,true,z,false,true,0.0-2.0-0.45-0.412-3.412,0,1,1,90,false,stim,false,1,625,1,1,1,92553,task3,1157097,false,false,1350,image-keyboard-response,3
true,20,2,2,2,true,d,false,true,0.0-2.0-0.45-0.413-3.413,0,1,1,68,false,stim,false,2,501,1,1,2,92553,task3,1159129,false,false,1353,image-keyboard-response,4
true,20,2,2,2,true,d,false,true,0.0-2.0-0.46-0.414-3.414,0,1,1,68,false,stim,false,2,1039,1,1,2,92553,task3,1161689,false,false,1356,image-keyboard-response,5
true,20,2,2,2,true,d,false,false,0.0-2.0-0.46-0.415-3.415,0,1,1,68,false,stim,false,2,488,1,1,2,92553,task3,1163698,false,true,1359,image-keyboard-response,6
true,20,1,2,2,false,d,true,false,0.0-2.0-0.46-0.416-3.416,0,1,1,90,false,stim,false,0,1420,1,0,0,92553,task3,1166649,false,false,1362,image-keyboard-response,7
true,20,0,2,2,false,d,false,false,0.0-2.0-0.46-0.417-3.417,0,1,1,81,false,stim,true,0,963,1,0,0,92553,task3,1169140,false,false,1365,image-keyboard-response,8
true,20,2,2,2,true,d,false,true,0.0-2.0-0.46-0.418-3.418,0,1,1,68,false,stim,false,0,448,1,0,0,92553,task3,1171122,false,false,1368,image-keyboard-response,9
true,20,1,2,1,true,z,false,true,0.0-2.0-0.46-0.419-3.419,0,1,1,90,false,stim,false,1,1387,1,1,1,92553,task3,1174037,false,false,1371,image-keyboard-response,10
true,20,1,2,1,true,z,false,true,0.0-2.0-0.46-0.420-3.420,0,1,1,90,false,stim,false,1,659,1,1,1,92553,task3,1176216,false,false,1374,image-keyboard-response,11
true,20,2,2,2,true,d,false,true,0.0-2.0-0.46-0.421-3.421,0,1,1,68,false,stim,false,2,1052,1,1,2,92553,task3,1178794,false,false,1377,image-keyboard-response,12
true,20,1,2,1,true,z,false,false,0.0-2.0-0.46-0.422-3.422,0,1,1,90,false,stim,false,1,1190,1,0,1,92553,task3,1181510,false,true,1380,image-keyboard-response,13
true,20,2,2,2,true,d,false,true,0.0-2.0-0.47-0.423-3.423,0,1,1,68,false,stim,false,2,916,1,1,2,92553,task3,1183951,false,false,1383,image-keyboard-response,14
true,20,2,2,2,true,d,false,true,0.0-2.0-0.47-0.424-3.424,0,1,1,68,false,stim,false,2,478,1,1,2,92553,task3,1185947,false,false,1386,image-keyboard-response,15
true,20,2,2,2,true,d,false,true,0.0-2.0-0.47-0.425-3.425,0,1,1,68,false,stim,false,0,893,1,1,0,92553,task3,1188361,false,false,1389,image-keyboard-response,16
true,21,1,2,0,false,q,false,false,0.0-2.0-0.47-0.426-3.426,1,0,1,90,true,stim,true,1,1197,1,0,1,92553,task3,1191083,false,false,1392,image-keyboard-response,1
true,21,2,2,2,true,d,false,true,0.0-2.0-0.47-0.427-3.427,1,0,1,68,false,stim,false,2,845,1,1,2,92553,task3,1193450,false,false,1395,image-keyboard-response,2
true,21,1,2,0,false,q,false,false,0.0-2.0-0.47-0.428-3.428,1,0,1,90,false,stim,true,1,1052,1,0,1,92553,task3,1196032,false,false,1398,image-keyboard-response,3
true,21,2,2,2,true,d,false,true,0.0-2.0-0.47-0.429-3.429,1,0,1,68,false,stim,false,2,601,1,1,0,92553,task3,1198177,false,false,1401,image-keyboard-response,4
true,21,2,2,2,true,d,false,true,0.0-2.0-0.47-0.430-3.430,1,0,1,68,false,stim,false,2,588,1,1,0,92553,task3,1200282,false,false,1404,image-keyboard-response,5
true,21,0,2,0,true,q,false,true,0.0-2.0-0.47-0.431-3.431,1,0,1,81,false,stim,false,1,1082,1,0,1,92553,task3,1202885,false,false,1407,image-keyboard-response,6
true,21,2,2,2,true,d,false,true,0.0-2.0-0.48-0.432-3.432,1,0,1,68,false,stim,false,2,996,1,1,0,92553,task3,1205412,false,false,1410,image-keyboard-response,7
true,21,2,2,2,true,d,false,true,0.0-2.0-0.48-0.433-3.433,1,0,1,68,false,stim,false,2,796,1,0,2,92553,task3,1207738,false,false,1413,image-keyboard-response,8
true,21,2,2,2,true,d,false,true,0.0-2.0-0.48-0.434-3.434,1,0,1,68,false,stim,false,2,634,1,0,2,92553,task3,1209903,false,false,1416,image-keyboard-response,9
true,21,2,2,2,true,d,false,true,0.0-2.0-0.48-0.435-3.435,1,0,1,68,false,stim,false,2,546,1,1,0,92553,task3,1211980,false,false,1419,image-keyboard-response,10
true,21,0,2,0,true,q,false,true,0.0-2.0-0.48-0.436-3.436,1,0,1,81,false,stim,false,1,1062,1,1,1,92553,task3,1214567,false,false,1422,image-keyboard-response,11
true,21,0,2,0,true,q,false,true,0.0-2.0-0.48-0.437-3.437,1,0,1,81,false,stim,false,1,660,1,1,1,92553,task3,1216746,false,false,1425,image-keyboard-response,12
true,22,2,2,0,false,q,false,false,0.0-2.0-0.48-0.438-3.438,1,1,0,68,true,stim,true,2,887,1,0,2,92553,task3,1219159,false,false,1428,image-keyboard-response,1
true,22,0,2,0,true,q,false,true,0.0-2.0-0.48-0.439-3.439,1,1,0,81,false,stim,false,0,1247,1,1,1,92553,task3,1221932,false,false,1431,image-keyboard-response,2
true,22,2,2,2,true,d,false,true,0.0-2.0-0.48-0.440-3.440,1,1,0,68,false,stim,false,2,856,1,1,0,92553,task3,1224317,false,false,1434,image-keyboard-response,3
true,22,2,2,2,true,d,false,true,0.0-2.0-0.49-0.441-3.441,1,1,0,68,false,stim,false,2,489,1,1,0,92553,task3,1226328,false,false,1437,image-keyboard-response,4
true,22,2,2,0,false,q,false,false,0.0-2.0-0.49-0.442-3.442,1,1,0,68,false,stim,true,2,1193,1,0,2,92553,task3,1229044,false,false,1440,image-keyboard-response,5
true,22,2,2,0,false,q,false,false,0.0-2.0-0.49-0.443-3.443,1,1,0,68,false,stim,true,2,691,1,0,2,92553,task3,1231257,false,false,1443,image-keyboard-response,6
true,22,2,2,2,true,d,false,true,0.0-2.0-0.49-0.444-3.444,1,1,0,68,false,stim,false,2,863,1,1,0,92553,task3,1233657,false,false,1446,image-keyboard-response,7
true,22,1,2,0,false,q,true,true,0.0-2.0-0.49-0.445-3.445,1,1,0,90,false,stim,false,2,718,1,0,2,92553,task3,1235891,false,true,1449,image-keyboard-response,8
true,22,0,2,0,true,q,false,true,0.0-2.0-0.49-0.446-3.446,1,1,0,81,false,stim,false,0,1054,1,1,1,92553,task3,1238466,false,false,1452,image-keyboard-response,9
true,22,0,2,0,true,q,false,true,0.0-2.0-0.49-0.447-3.447,1,1,0,81,false,stim,false,0,911,1,1,1,92553,task3,1240899,false,false,1455,image-keyboard-response,10
true,22,0,2,0,true,q,false,true,0.0-2.0-0.49-0.448-3.448,1,1,0,81,false,stim,false,0,782,1,0,1,92553,task3,1243204,false,false,1458,image-keyboard-response,11
true,22,1,2,2,false,d,true,false,0.0-2.0-0.49-0.449-3.449,1,1,0,90,false,stim,false,2,1766,1,0,0,92553,task3,1246499,false,false,1461,image-keyboard-response,12
true,22,2,2,2,true,d,false,true,0.0-2.0-0.50-0.450-3.450,1,1,0,68,false,stim,false,2,471,1,0,0,92553,task3,1248489,false,false,1464,image-keyboard-response,13
true,22,0,2,0,true,q,false,true,0.0-2.0-0.50-0.451-3.451,1,1,0,81,false,stim,false,0,1031,1,0,1,92553,task3,1251036,false,false,1467,image-keyboard-response,14
true,22,0,2,0,true,q,false,true,0.0-2.0-0.50-0.452-3.452,1,1,0,81,false,stim,false,0,940,1,0,1,92553,task3,1253493,false,false,1470,image-keyboard-response,15
true,23,2,1,0,false,q,true,false,0.0-2.0-0.50-0.453-3.453,0,0,1,68,true,stim,false,0,640,1,1,2,92553,task3,1255658,false,false,1473,image-keyboard-response,1
true,23,0,1,2,false,d,false,false,0.0-2.0-0.50-0.454-3.454,0,0,1,81,false,stim,true,0,918,1,0,1,92553,task3,1258102,false,false,1476,image-keyboard-response,2
true,23,2,1,0,false,q,true,false,0.0-2.0-0.50-0.455-3.455,0,0,1,68,false,stim,false,0,968,1,1,2,92553,task3,1260592,false,false,1479,image-keyboard-response,3
true,23,1,1,0,false,q,true,false,0.0-2.0-0.50-0.456-3.456,0,0,1,90,false,stim,false,0,580,1,1,2,92553,task3,1262691,false,false,1482,image-keyboard-response,4
true,23,2,1,0,false,q,false,false,0.0-2.0-0.50-0.457-3.457,0,0,1,68,false,stim,true,2,1949,1,0,0,92553,task3,1266147,false,false,1485,image-keyboard-response,5
true,23,1,1,0,false,q,true,false,0.0-2.0-0.50-0.458-3.458,0,0,1,90,false,stim,false,2,502,1,0,0,92553,task3,1268161,false,false,1488,image-keyboard-response,6
true,23,0,1,0,true,q,false,true,0.0-2.0-0.51-0.459-3.459,0,0,1,81,false,stim,false,0,1715,1,1,2,92553,task3,1271409,false,false,1491,image-keyboard-response,7
true,23,0,1,0,true,q,false,false,0.0-2.0-0.51-0.460-3.460,0,0,1,81,false,stim,false,0,613,1,1,2,92553,task3,1273552,false,true,1494,image-keyboard-response,8
true,23,1,1,0,false,q,true,false,0.0-2.0-0.51-0.461-3.461,0,0,1,90,false,stim,false,2,1746,1,0,0,92553,task3,1276818,false,false,1497,image-keyboard-response,9
true,23,0,1,2,false,d,false,true,0.0-2.0-0.51-0.462-3.462,0,0,1,81,false,stim,true,0,779,1,0,1,92553,task3,1279119,false,true,1500,image-keyboard-response,10
true,23,0,1,0,true,q,false,true,0.0-2.0-0.51-0.463-3.463,0,0,1,81,false,stim,false,2,943,1,0,0,92553,task3,1281612,false,false,1503,image-keyboard-response,11
true,23,0,1,0,true,q,false,false,0.0-2.0-0.51-0.464-3.464,0,0,1,81,false,stim,false,0,699,1,1,2,92553,task3,1283831,false,true,1506,image-keyboard-response,12
true,23,0,1,2,false,d,false,false,0.0-2.0-0.51-0.465-3.465,0,0,1,81,false,stim,true,0,706,1,0,1,92553,task3,1286060,false,false,1509,image-keyboard-response,13
true,23,0,1,2,false,d,false,true,0.0-2.0-0.51-0.466-3.466,0,0,1,81,false,stim,true,0,373,1,0,1,92553,task3,1287941,false,true,1512,image-keyboard-response,14
true,23,0,1,0,true,q,false,true,0.0-2.0-0.51-0.467-3.467,0,0,1,81,false,stim,false,2,456,1,0,0,92553,task3,1289909,false,false,1515,image-keyboard-response,15
true,23,0,1,0,true,q,false,true,0.0-2.0-0.52-0.468-3.468,0,0,1,81,false,stim,false,2,502,1,0,0,92553,task3,1291932,false,false,1518,image-keyboard-response,16
true,23,0,1,0,true,q,false,true,0.0-2.0-0.52-0.469-3.469,0,0,1,81,false,stim,false,2,537,1,0,0,92553,task3,1294002,false,false,1521,image-keyboard-response,17
true,23,1,1,0,false,q,true,false,0.0-2.0-0.52-0.470-3.470,0,0,1,90,false,stim,false,0,731,1,1,2,92553,task3,1296255,false,false,1524,image-keyboard-response,18
true,23,0,1,0,true,q,false,true,0.0-2.0-0.52-0.471-3.471,0,0,1,81,false,stim,false,2,885,1,0,0,92553,task3,1298651,false,false,1527,image-keyboard-response,19
true,23,0,1,2,false,d,false,false,0.0-2.0-0.52-0.472-3.472,0,0,1,81,false,stim,true,0,530,1,0,1,92553,task3,1300695,false,false,1530,image-keyboard-response,20
true,23,2,1,0,false,q,true,false,0.0-2.0-0.52-0.473-3.473,0,0,1,68,false,stim,false,0,906,1,0,2,92553,task3,1303136,false,false,1533,image-keyboard-response,21
true,23,0,1,2,false,d,false,false,0.0-2.0-0.52-0.474-3.474,0,0,1,81,false,stim,true,0,985,1,0,1,92553,task3,1305653,false,false,1536,image-keyboard-response,22
true,23,0,1,2,false,d,false,true,0.0-2.0-0.52-0.475-3.475,0,0,1,81,false,stim,true,0,553,1,0,1,92553,task3,1307737,false,true,1539,image-keyboard-response,23
true,23,0,1,0,true,q,false,true,0.0-2.0-0.52-0.476-3.476,0,0,1,81,false,stim,false,0,1362,1,0,2,92553,task3,1310620,false,false,1542,image-keyboard-response,24
true,23,0,1,0,true,q,false,true,0.0-2.0-0.53-0.477-3.477,0,0,1,81,false,stim,false,2,860,1,1,0,92553,task3,1313013,false,false,1545,image-keyboard-response,25
true,24,0,1,1,false,z,false,false,0.0-2.0-0.53-0.478-3.478,1,0,0,81,true,stim,true,0,729,1,0,2,92553,task3,1315267,false,false,1548,image-keyboard-response,1
true,24,0,1,1,false,z,true,false,0.0-2.0-0.53-0.479-3.479,1,0,0,81,false,stim,false,2,629,1,0,1,92553,task3,1317426,false,false,1551,image-keyboard-response,2
true,24,0,1,1,false,z,true,false,0.0-2.0-0.53-0.480-3.480,1,0,0,81,false,stim,false,2,592,1,0,1,92553,task3,1319540,false,false,1554,image-keyboard-response,3
true,24,0,1,0,true,q,false,true,0.0-2.0-0.53-0.481-3.481,1,0,0,81,false,stim,false,0,1000,1,1,0,92553,task3,1322068,false,false,1557,image-keyboard-response,4
true,24,1,1,1,true,z,false,true,0.0-2.0-0.53-0.482-3.482,1,0,0,90,false,stim,false,2,928,1,0,1,92553,task3,1324530,false,false,1560,image-keyboard-response,5
true,24,0,1,1,false,z,false,false,0.0-2.0-0.53-0.483-3.483,1,0,0,81,false,stim,true,0,1333,1,0,2,92553,task3,1327383,false,false,1563,image-keyboard-response,6
true,24,1,1,1,true,z,false,true,0.0-2.0-0.53-0.484-3.484,1,0,0,90,false,stim,false,0,948,1,0,2,92553,task3,1329849,false,false,1566,image-keyboard-response,7
true,24,0,1,0,true,q,false,true,0.0-2.0-0.53-0.485-3.485,1,0,0,81,false,stim,false,0,1592,1,1,0,92553,task3,1332975,false,false,1569,image-keyboard-response,8
true,24,1,1,1,true,z,false,true,0.0-2.0-0.54-0.486-3.486,1,0,0,90,false,stim,false,0,867,1,0,2,92553,task3,1335365,false,false,1572,image-keyboard-response,9
true,24,1,1,1,true,z,false,false,0.0-2.0-0.54-0.487-3.487,1,0,0,90,false,stim,false,0,712,1,0,2,92553,task3,1337597,false,true,1575,image-keyboard-response,10
true,24,1,1,1,true,z,false,true,0.0-2.0-0.54-0.488-3.488,1,0,0,90,false,stim,false,2,705,1,1,1,92553,task3,1339836,false,false,1578,image-keyboard-response,11
true,24,1,1,0,false,q,true,false,0.0-2.0-0.54-0.489-3.489,1,0,0,90,false,stim,false,0,1024,1,0,0,92553,task3,1342386,false,false,1581,image-keyboard-response,12
true,24,1,1,1,true,z,false,true,0.0-2.0-0.54-0.490-3.490,1,0,0,90,false,stim,false,2,540,1,1,1,92553,task3,1344444,false,false,1584,image-keyboard-response,13
true,24,1,1,1,true,z,false,true,0.0-2.0-0.54-0.491-3.491,1,0,0,90,false,stim,false,0,736,1,1,2,92553,task3,1346700,false,false,1587,image-keyboard-response,14
true,24,1,1,1,true,z,false,true,0.0-2.0-0.54-0.492-3.492,1,0,0,90,false,stim,false,2,1282,1,1,1,92553,task3,1349502,false,false,1590,image-keyboard-response,15
true,25,0,2,2,false,d,false,false,0.0-2.0-0.54-0.493-3.493,0,1,1,81,true,stim,true,0,608,1,0,0,92553,task3,1351638,false,false,1593,image-keyboard-response,1
true,25,0,2,2,false,d,false,true,0.0-2.0-0.54-0.494-3.494,0,1,1,81,false,stim,true,0,463,1,0,0,92553,task3,1353617,false,true,1596,image-keyboard-response,2
true,25,1,2,1,true,z,false,true,0.0-2.0-0.55-0.495-3.495,0,1,1,90,false,stim,false,1,984,1,1,1,92553,task3,1356125,false,false,1599,image-keyboard-response,3
true,25,0,2,2,false,d,false,true,0.0-2.0-0.55-0.496-3.496,0,1,1,81,false,stim,true,0,679,1,0,0,92553,task3,1358353,false,true,1602,image-keyboard-response,4
true,25,1,2,1,true,z,false,true,0.0-2.0-0.55-0.497-3.497,0,1,1,90,false,stim,false,1,901,1,1,2,92553,task3,1360774,false,false,1605,image-keyboard-response,5
true,25,1,2,1,true,z,false,true,0.0-2.0-0.55-0.498-3.498,0,1,1,90,false,stim,false,1,799,1,1,1,92553,task3,1363094,false,false,1608,image-keyboard-response,6
true,25,1,2,2,false,d,true,false,0.0-2.0-0.55-0.499-3.499,0,1,1,90,false,stim,false,0,568,1,0,0,92553,task3,1365173,false,false,1611,image-keyboard-response,7
true,25,1,2,1,true,z,false,true,0.0-2.0-0.55-0.500-3.500,0,1,1,90,false,stim,false,1,552,1,1,1,92553,task3,1367248,false,false,1614,image-keyboard-response,8
true,25,1,2,1,true,z,false,true,0.0-2.0-0.55-0.501-3.501,0,1,1,90,false,stim,false,1,578,1,1,2,92553,task3,1369341,false,false,1617,image-keyboard-response,9
true,25,1,2,1,true,z,false,true,0.0-2.0-0.55-0.502-3.502,0,1,1,90,false,stim,false,1,575,1,1,2,92553,task3,1371445,false,false,1620,image-keyboard-response,10
true,25,0,2,2,false,d,false,false,0.0-2.0-0.55-0.503-3.503,0,1,1,81,false,stim,true,0,436,1,1,0,92553,task3,1373411,false,false,1623,image-keyboard-response,11
true,25,0,2,2,false,d,false,false,0.0-2.0-0.56-0.504-3.504,0,1,1,81,false,stim,true,0,378,1,1,0,92553,task3,1375312,false,false,1626,image-keyboard-response,12
true,26,2,0,1,false,z,true,true,0.0-2.0-0.56-0.505-3.505,1,1,1,68,true,stim,false,1,857,1,1,1,92553,task3,1480881,false,true,1732,image-keyboard-response,1
true,26,1,0,2,false,d,true,true,0.0-2.0-0.56-0.506-3.506,1,1,1,90,false,stim,false,2,597,1,1,0,92553,task3,1483008,false,true,1735,image-keyboard-response,2
true,26,2,0,1,false,z,true,false,0.0-2.0-0.56-0.507-3.507,1,1,1,68,false,stim,false,1,989,1,1,1,92553,task3,1485520,false,false,1738,image-keyboard-response,3
true,26,1,0,2,false,d,true,false,0.0-2.0-0.56-0.508-3.508,1,1,1,90,false,stim,false,2,604,1,1,0,92553,task3,1487650,false,false,1741,image-keyboard-response,4
true,26,0,0,1,false,z,true,false,0.0-2.0-0.56-0.509-3.509,1,1,1,81,false,stim,false,1,759,1,1,2,92553,task3,1489940,false,false,1744,image-keyboard-response,5
true,26,1,0,1,true,z,false,true,0.0-2.0-0.56-0.510-3.510,1,1,1,90,false,stim,false,1,570,1,1,2,92553,task3,1492036,false,false,1747,image-keyboard-response,6
true,26,2,0,1,false,z,true,false,0.0-2.0-0.56-0.511-3.511,1,1,1,68,false,stim,false,1,1912,1,1,1,92553,task3,1495463,false,false,1750,image-keyboard-response,7
true,26,2,0,1,false,z,true,false,0.0-2.0-0.56-0.512-3.512,1,1,1,68,false,stim,false,1,1235,1,1,2,92553,task3,1498230,false,false,1753,image-keyboard-response,8
true,26,1,0,1,true,z,false,true,0.0-2.0-0.57-0.513-3.513,1,1,1,90,false,stim,false,1,721,1,1,1,92553,task3,1500481,false,false,1756,image-keyboard-response,9
true,26,1,0,2,false,d,true,false,0.0-2.0-0.57-0.514-3.514,1,1,1,90,false,stim,false,2,1674,1,0,0,92553,task3,1503683,false,false,1759,image-keyboard-response,10
true,26,1,0,1,true,z,false,true,0.0-2.0-0.57-0.515-3.515,1,1,1,90,false,stim,false,1,788,1,1,1,92553,task3,1505998,false,false,1762,image-keyboard-response,11
true,26,1,0,1,true,z,false,true,0.0-2.0-0.57-0.516-3.516,1,1,1,90,false,stim,false,1,811,1,0,2,92553,task3,1508330,false,false,1765,image-keyboard-response,12
true,26,0,0,2,false,d,true,false,0.0-2.0-0.57-0.517-3.517,1,1,1,81,false,stim,false,2,966,1,0,0,92553,task3,1510818,false,false,1768,image-keyboard-response,13
true,26,1,0,1,true,z,false,false,0.0-2.0-0.57-0.518-3.518,1,1,1,90,false,stim,false,1,804,1,0,2,92553,task3,1513137,false,true,1771,image-keyboard-response,14
true,27,1,1,1,true,z,false,true,0.0-2.0-0.57-0.519-3.519,0,1,0,90,true,stim,false,1,382,1,1,1,92553,task3,1515040,false,false,1774,image-keyboard-response,1
true,27,1,1,0,false,q,false,false,0.0-2.0-0.57-0.520-3.520,0,1,0,90,false,stim,true,1,394,1,0,2,92553,task3,1516957,false,false,1777,image-keyboard-response,2
true,27,2,1,1,false,z,false,false,0.0-2.0-0.57-0.521-3.521,0,1,0,68,false,stim,true,2,375,1,0,0,92553,task3,1518867,false,false,1780,image-keyboard-response,3
true,27,1,1,1,true,z,false,true,0.0-2.0-0.58-0.522-3.522,0,1,0,90,false,stim,false,1,965,1,1,1,92553,task3,1521354,false,false,1783,image-keyboard-response,4
true,27,1,1,1,true,z,false,true,0.0-2.0-0.58-0.523-3.523,0,1,0,90,false,stim,false,2,1502,1,0,0,92553,task3,1524388,false,false,1786,image-keyboard-response,5
true,27,1,1,0,false,q,false,false,0.0-2.0-0.58-0.524-3.524,0,1,0,90,false,stim,true,1,513,1,0,2,92553,task3,1526411,false,false,1789,image-keyboard-response,6
true,27,2,1,0,false,q,true,true,0.0-2.0-0.58-0.525-3.525,0,1,0,68,false,stim,false,1,381,1,0,2,92553,task3,1528314,false,true,1792,image-keyboard-response,7
true,27,1,1,1,true,z,false,true,0.0-2.0-0.58-0.526-3.526,0,1,0,90,false,stim,false,1,1122,1,1,1,92553,task3,1530954,false,false,1795,image-keyboard-response,8
true,27,1,1,1,true,z,false,true,0.0-2.0-0.58-0.527-3.527,0,1,0,90,false,stim,false,2,411,1,0,0,92553,task3,1532881,false,false,1798,image-keyboard-response,9
true,27,1,1,1,true,z,false,true,0.0-2.0-0.58-0.528-3.528,0,1,0,90,false,stim,false,2,442,1,0,0,92553,task3,1534866,false,false,1801,image-keyboard-response,10
true,27,2,1,0,false,q,true,true,0.0-2.0-0.58-0.529-3.529,0,1,0,68,false,stim,false,1,514,1,0,2,92553,task3,1536903,false,true,1804,image-keyboard-response,11
true,27,1,1,1,true,z,false,true,0.0-2.0-0.58-0.530-3.530,0,1,0,90,false,stim,false,1,767,1,1,1,92553,task3,1539187,false,false,1807,image-keyboard-response,12
true,27,2,1,0,false,q,true,false,0.0-2.0-0.59-0.531-3.531,0,1,0,68,false,stim,false,1,591,1,0,2,92553,task3,1541314,false,false,1810,image-keyboard-response,13
true,27,1,1,1,true,z,false,true,0.0-2.0-0.59-0.532-3.532,0,1,0,90,false,stim,false,2,1090,1,0,0,92553,task3,1543924,false,false,1813,image-keyboard-response,14
true,27,1,1,1,true,z,false,true,0.0-2.0-0.59-0.533-3.533,0,1,0,90,false,stim,false,2,523,1,0,0,92553,task3,1545968,false,false,1816,image-keyboard-response,15
true,27,1,1,1,true,z,false,true,0.0-2.0-0.59-0.534-3.534,0,1,0,90,false,stim,false,1,687,1,1,1,92553,task3,1548183,false,false,1819,image-keyboard-response,16
true,27,2,1,0,false,q,true,false,0.0-2.0-0.59-0.535-3.535,0,1,0,68,false,stim,false,1,492,1,0,2,92553,task3,1550191,false,false,1822,image-keyboard-response,17
true,27,2,1,0,false,q,true,false,0.0-2.0-0.59-0.536-3.536,0,1,0,68,false,stim,false,1,686,1,0,2,92553,task3,1552394,false,false,1825,image-keyboard-response,18
true,27,1,1,1,true,z,false,true,0.0-2.0-0.59-0.537-3.537,0,1,0,90,false,stim,false,1,689,1,1,1,92553,task3,1554613,false,false,1828,image-keyboard-response,19
true,27,1,1,1,true,z,false,true,0.0-2.0-0.59-0.538-3.538,0,1,0,90,false,stim,false,1,636,1,1,1,92553,task3,1556764,false,false,1831,image-keyboard-response,20
true,27,0,1,1,false,z,true,false,0.0-2.0-0.59-0.539-3.539,0,1,0,81,false,stim,false,2,1036,1,0,0,92553,task3,1559321,false,false,1834,image-keyboard-response,21
true,27,1,1,1,true,z,false,true,0.0-2.0-0.60-0.540-3.540,0,1,0,90,false,stim,false,1,566,1,1,1,92553,task3,1561405,false,false,1837,image-keyboard-response,22
true,27,1,1,1,true,z,false,true,0.0-2.0-0.60-0.541-3.541,0,1,0,90,false,stim,false,1,754,1,1,1,92553,task3,1563694,false,false,1840,image-keyboard-response,23
true,27,1,1,0,false,q,false,false,0.0-2.0-0.60-0.542-3.542,0,1,0,90,false,stim,true,1,1265,1,0,2,92553,task3,1566476,false,false,1843,image-keyboard-response,24
true,27,1,1,1,true,z,false,true,0.0-2.0-0.60-0.543-3.543,0,1,0,90,false,stim,false,2,951,1,0,0,92553,task3,1568949,false,false,1846,image-keyboard-response,25
true,27,1,1,1,true,z,false,true,0.0-2.0-0.60-0.544-3.544,0,1,0,90,false,stim,false,2,535,1,0,0,92553,task3,1571009,false,false,1849,image-keyboard-response,26
true,27,1,1,1,true,z,false,true,0.0-2.0-0.60-0.545-3.545,0,1,0,90,false,stim,false,1,722,1,1,1,92553,task3,1573257,false,false,1852,image-keyboard-response,27
true,27,1,1,1,true,z,false,true,0.0-2.0-0.60-0.546-3.546,0,1,0,90,false,stim,false,2,662,1,1,0,92553,task3,1575435,false,false,1855,image-keyboard-response,28
true,27,0,1,0,true,q,false,true,0.0-2.0-0.60-0.547-3.547,0,1,0,81,false,stim,false,1,423,1,0,2,92553,task3,1577383,false,false,1858,image-keyboard-response,29
true,27,0,1,0,true,q,false,true,0.0-2.0-0.60-0.548-3.548,0,1,0,81,false,stim,false,1,457,1,0,2,92553,task3,1579353,false,false,1861,image-keyboard-response,30
true,27,0,1,0,true,q,false,true,0.0-2.0-0.61-0.549-3.549,0,1,0,81,false,stim,false,1,382,1,0,2,92553,task3,1581252,false,false,1864,image-keyboard-response,31
true,28,1,2,1,true,z,false,true,0.0-2.0-0.61-0.550-3.550,1,1,0,90,true,stim,false,1,750,1,1,0,92553,task3,1583533,false,false,1867,image-keyboard-response,1
true,28,1,2,1,true,z,false,true,0.0-2.0-0.61-0.551-3.551,1,1,0,90,false,stim,false,1,680,1,1,1,92553,task3,1585734,false,false,1870,image-keyboard-response,2
true,28,0,2,2,false,d,false,false,0.0-2.0-0.61-0.552-3.552,1,1,0,81,false,stim,true,0,1112,1,0,2,92553,task3,1588366,false,false,1873,image-keyboard-response,3
true,28,0,2,2,false,d,false,true,0.0-2.0-0.61-0.553-3.553,1,1,0,81,false,stim,true,0,488,1,0,2,92553,task3,1590382,false,true,1876,image-keyboard-response,4
true,28,1,2,1,true,z,false,true,0.0-2.0-0.61-0.554-3.554,1,1,0,90,false,stim,false,1,806,1,1,0,92553,task3,1592709,false,false,1879,image-keyboard-response,5
true,28,1,2,1,true,z,false,true,0.0-2.0-0.61-0.555-3.555,1,1,0,90,false,stim,false,1,956,1,1,1,92553,task3,1595195,false,false,1882,image-keyboard-response,6
true,28,1,2,1,true,z,false,false,0.0-2.0-0.61-0.556-3.556,1,1,0,90,false,stim,false,1,616,1,1,0,92553,task3,1597335,false,true,1885,image-keyboard-response,7
true,28,1,2,1,true,z,false,true,0.0-2.0-0.61-0.557-3.557,1,1,0,90,false,stim,false,1,590,1,1,1,92553,task3,1599445,false,false,1888,image-keyboard-response,8
true,28,0,2,2,false,d,false,true,0.0-2.0-0.62-0.558-3.558,1,1,0,81,false,stim,true,0,614,1,0,2,92553,task3,1601583,false,true,1891,image-keyboard-response,9
true,28,0,2,2,false,d,false,false,0.0-2.0-0.62-0.559-3.559,1,1,0,81,false,stim,true,0,674,1,0,2,92553,task3,1603783,false,false,1894,image-keyboard-response,10
true,28,1,2,1,true,z,false,true,0.0-2.0-0.62-0.560-3.560,1,1,0,90,false,stim,false,1,674,1,1,1,92553,task3,1605973,false,false,1897,image-keyboard-response,11
true,28,1,2,1,true,z,false,true,0.0-2.0-0.62-0.561-3.561,1,1,0,90,false,stim,false,1,464,1,1,0,92553,task3,1607955,false,false,1900,image-keyboard-response,12
true,28,1,2,1,true,z,false,true,0.0-2.0-0.62-0.562-3.562,1,1,0,90,false,stim,false,1,461,1,1,0,92553,task3,1609973,false,false,1903,image-keyboard-response,13
true,28,1,2,1,true,z,false,true,0.0-2.0-0.62-0.563-3.563,1,1,0,90,false,stim,false,1,463,1,1,0,92553,task3,1611952,false,false,1906,image-keyboard-response,14
true,28,1,2,1,true,z,false,false,0.0-2.0-0.62-0.564-3.564,1,1,0,90,false,stim,false,1,1738,1,1,1,92553,task3,1615214,false,true,1909,image-keyboard-response,15
true,28,0,2,2,false,d,false,false,0.0-2.0-0.62-0.565-3.565,1,1,0,81,false,stim,true,0,1427,1,0,2,92553,task3,1618168,false,false,1912,image-keyboard-response,16
true,28,1,2,1,true,z,false,true,0.0-2.0-0.62-0.566-3.566,1,1,0,90,false,stim,false,1,1566,1,1,1,92553,task3,1621260,false,false,1915,image-keyboard-response,17
true,28,0,2,2,false,d,false,false,0.0-2.0-0.63-0.567-3.567,1,1,0,81,false,stim,true,0,757,1,0,2,92553,task3,1623546,false,false,1918,image-keyboard-response,18
true,28,1,2,1,true,z,false,false,0.0-2.0-0.63-0.568-3.568,1,1,0,90,false,stim,false,1,430,1,1,0,92553,task3,1625507,false,true,1921,image-keyboard-response,19
true,28,2,2,1,false,z,true,false,0.0-2.0-0.63-0.569-3.569,1,1,0,68,false,stim,false,1,2226,1,1,0,92553,task3,1629247,false,false,1924,image-keyboard-response,20
true,28,0,2,1,false,z,true,false,0.0-2.0-0.63-0.570-3.570,1,1,0,81,false,stim,false,1,918,1,1,0,92553,task3,1631693,false,false,1927,image-keyboard-response,21
true,28,2,2,2,true,d,false,true,0.0-2.0-0.63-0.571-3.571,1,1,0,68,false,stim,false,0,1059,1,0,2,92553,task3,1634279,false,false,1930,image-keyboard-response,22
true,28,1,2,1,true,z,false,true,0.0-2.0-0.63-0.572-3.572,1,1,0,90,false,stim,false,1,538,1,1,1,92553,task3,1636351,false,false,1933,image-keyboard-response,23
true,28,2,2,2,true,d,false,true,0.0-2.0-0.63-0.573-3.573,1,1,0,68,false,stim,false,0,1677,1,0,2,92553,task3,1639546,false,false,1936,image-keyboard-response,24
true,28,1,2,1,true,z,false,false,0.0-2.0-0.63-0.574-3.574,1,1,0,90,false,stim,false,1,701,1,1,1,92553,task3,1641771,false,true,1939,image-keyboard-response,25
true,28,1,2,1,true,z,false,true,0.0-2.0-0.63-0.575-3.575,1,1,0,90,false,stim,false,1,1119,1,1,1,92553,task3,1644414,false,false,1942,image-keyboard-response,26
true,28,1,2,1,true,z,false,true,0.0-2.0-0.64-0.576-3.576,1,1,0,90,false,stim,false,1,544,1,1,1,92553,task3,1646493,false,false,1945,image-keyboard-response,27
true,28,0,2,1,false,z,true,false,0.0-2.0-0.64-0.577-3.577,1,1,0,81,false,stim,false,1,563,1,0,0,92553,task3,1648577,false,false,1948,image-keyboard-response,28
true,28,1,2,1,true,z,false,false,0.0-2.0-0.64-0.578-3.578,1,1,0,90,false,stim,false,1,436,1,0,0,92553,task3,1650541,false,true,1951,image-keyboard-response,29
true,29,2,1,0,false,q,false,false,0.0-2.0-0.64-0.579-3.579,0,1,0,68,true,stim,true,2,779,1,0,2,92553,task3,1652852,false,false,1954,image-keyboard-response,1
true,29,2,1,2,true,d,false,true,0.0-2.0-0.64-0.580-3.580,0,1,0,68,false,stim,false,1,1559,1,0,0,92553,task3,1655943,false,false,1957,image-keyboard-response,2
true,29,2,1,0,false,q,false,false,0.0-2.0-0.64-0.581-3.581,0,1,0,68,false,stim,true,2,718,1,0,2,92553,task3,1658178,false,false,1960,image-keyboard-response,3
true,29,1,1,1,true,z,false,true,0.0-2.0-0.64-0.582-3.582,0,1,0,90,false,stim,false,1,885,1,1,1,92553,task3,1660577,false,false,1963,image-keyboard-response,4
true,29,1,1,1,true,z,false,true,0.0-2.0-0.64-0.583-3.583,0,1,0,90,false,stim,false,1,756,1,1,1,92553,task3,1662861,false,false,1966,image-keyboard-response,5
true,29,1,1,0,false,q,true,false,0.0-2.0-0.64-0.584-3.584,0,1,0,90,false,stim,false,2,623,1,0,2,92553,task3,1665007,false,false,1969,image-keyboard-response,6
true,29,1,1,1,true,z,false,true,0.0-2.0-0.65-0.585-3.585,0,1,0,90,false,stim,false,1,671,1,1,1,92553,task3,1667203,false,false,1972,image-keyboard-response,7
true,29,2,1,2,true,d,false,true,0.0-2.0-0.65-0.586-3.586,0,1,0,68,false,stim,false,1,668,1,0,0,92553,task3,1669397,false,false,1975,image-keyboard-response,8
true,29,1,1,1,true,z,false,true,0.0-2.0-0.65-0.587-3.587,0,1,0,90,false,stim,false,1,672,1,1,1,92553,task3,1671589,false,false,1978,image-keyboard-response,9
true,29,0,1,0,true,q,false,true,0.0-2.0-0.65-0.588-3.588,0,1,0,81,false,stim,false,2,713,1,0,2,92553,task3,1673824,false,false,1981,image-keyboard-response,10
true,29,2,1,0,false,q,false,false,0.0-2.0-0.65-0.589-3.589,0,1,0,68,false,stim,true,2,1098,1,0,2,92553,task3,1676443,false,false,1984,image-keyboard-response,11
true,29,2,1,2,true,d,false,false,0.0-2.0-0.65-0.590-3.590,0,1,0,68,false,stim,false,1,811,1,0,0,92553,task3,1678782,false,true,1987,image-keyboard-response,12
true,29,1,1,1,true,z,false,true,0.0-2.0-0.65-0.591-3.591,0,1,0,90,false,stim,false,1,919,1,1,1,92553,task3,1681221,false,false,1990,image-keyboard-response,13
true,29,0,1,0,true,q,false,true,0.0-2.0-0.65-0.592-3.592,0,1,0,81,false,stim,false,2,466,1,0,2,92553,task3,1683207,false,false,1993,image-keyboard-response,14
true,29,2,1,2,true,d,false,true,0.0-2.0-0.65-0.593-3.593,0,1,0,68,false,stim,false,1,1884,1,0,0,92553,task3,1686624,false,false,1996,image-keyboard-response,15
true,29,1,1,1,true,z,false,true,0.0-2.0-0.66-0.594-3.594,0,1,0,90,false,stim,false,1,1097,1,1,1,92553,task3,1689236,false,false,1999,image-keyboard-response,16
true,29,2,1,2,true,d,false,true,0.0-2.0-0.66-0.595-3.595,0,1,0,68,false,stim,false,1,1211,1,0,0,92553,task3,1692006,false,false,2002,image-keyboard-response,17
true,29,2,1,2,true,d,false,true,0.0-2.0-0.66-0.596-3.596,0,1,0,68,false,stim,false,1,563,1,0,0,92553,task3,1694092,false,false,2005,image-keyboard-response,18
true,29,1,1,1,true,z,false,true,0.0-2.0-0.66-0.597-3.597,0,1,0,90,false,stim,false,1,885,1,1,1,92553,task3,1696504,false,false,2008,image-keyboard-response,19
true,29,2,1,2,true,d,false,true,0.0-2.0-0.66-0.598-3.598,0,1,0,68,false,stim,false,1,721,1,0,0,92553,task3,1698747,false,false,2011,image-keyboard-response,20
true,29,1,1,1,true,z,false,true,0.0-2.0-0.66-0.599-3.599,0,1,0,90,false,stim,false,1,852,1,1,1,92553,task3,1701123,false,false,2014,image-keyboard-response,21
true,29,0,1,0,true,q,false,true,0.0-2.0-0.66-0.600-3.600,0,1,0,81,false,stim,false,2,870,1,0,2,92553,task3,1703528,false,false,2017,image-keyboard-response,22
true,29,0,1,0,true,q,false,true,0.0-2.0-0.66-0.601-3.601,0,1,0,81,false,stim,false,2,445,1,0,2,92553,task3,1705501,false,false,2020,image-keyboard-response,23
true,29,0,1,0,true,q,false,true,0.0-2.0-0.66-0.602-3.602,0,1,0,81,false,stim,false,2,522,1,1,2,92553,task3,1707540,false,false,2023,image-keyboard-response,24
true,29,1,1,1,true,z,false,true,0.0-2.0-0.67-0.603-3.603,0,1,0,90,false,stim,false,1,820,1,1,1,92553,task3,1709884,false,false,2026,image-keyboard-response,25
true,29,0,1,0,true,q,false,true,0.0-2.0-0.67-0.604-3.604,0,1,0,81,false,stim,false,2,985,1,1,2,92553,task3,1712403,false,false,2029,image-keyboard-response,26
true,29,2,1,2,true,d,false,true,0.0-2.0-0.67-0.605-3.605,0,1,0,68,false,stim,false,1,741,1,0,0,92553,task3,1714671,false,false,2032,image-keyboard-response,27
true,29,0,1,0,true,q,false,true,0.0-2.0-0.67-0.606-3.606,0,1,0,81,false,stim,false,2,1063,1,1,2,92553,task3,1717271,false,false,2035,image-keyboard-response,28
true,30,2,2,1,false,z,true,false,0.0-2.0-0.67-0.607-3.607,0,1,1,68,true,stim,false,1,717,1,1,1,92553,task3,1719517,false,false,2038,image-keyboard-response,1
true,30,2,2,0,false,q,false,false,0.0-2.0-0.67-0.608-3.608,0,1,1,68,false,stim,true,2,821,1,0,0,92553,task3,1721863,false,false,2041,image-keyboard-response,2
true,30,1,2,1,true,z,false,true,0.0-2.0-0.67-0.609-3.609,0,1,1,90,false,stim,false,1,494,1,1,1,92553,task3,1723889,false,false,2044,image-keyboard-response,3
true,30,2,2,0,false,q,false,false,0.0-2.0-0.67-0.610-3.610,0,1,1,68,false,stim,true,2,1372,1,0,0,92553,task3,1726780,false,false,2047,image-keyboard-response,4
true,30,0,2,0,true,q,false,true,0.0-2.0-0.67-0.611-3.611,0,1,1,81,false,stim,false,0,743,1,1,2,92553,task3,1729049,false,false,2050,image-keyboard-response,5
true,30,2,2,0,false,q,false,false,0.0-2.0-0.68-0.612-3.612,0,1,1,68,false,stim,true,2,770,1,0,0,92553,task3,1731342,false,false,2053,image-keyboard-response,6
true,30,1,2,0,false,q,true,false,0.0-2.0-0.68-0.613-3.613,0,1,1,90,false,stim,false,2,598,1,0,0,92553,task3,1733461,false,false,2056,image-keyboard-response,7
true,30,0,2,0,true,q,false,true,0.0-2.0-0.68-0.614-3.614,0,1,1,81,false,stim,false,0,740,1,1,2,92553,task3,1735725,false,false,2059,image-keyboard-response,8
true,30,1,2,1,true,z,false,true,0.0-2.0-0.68-0.615-3.615,0,1,1,90,false,stim,false,1,479,1,0,1,92553,task3,1737725,false,false,2062,image-keyboard-response,9
true,30,1,2,1,true,z,false,true,0.0-2.0-0.68-0.616-3.616,0,1,1,90,false,stim,false,1,520,1,0,1,92553,task3,1739766,false,false,2065,image-keyboard-response,10
true,30,1,2,1,true,z,false,true,0.0-2.0-0.68-0.617-3.617,0,1,1,90,false,stim,false,1,548,1,0,1,92553,task3,1741847,false,false,2068,image-keyboard-response,11
true,30,0,2,0,true,q,false,true,0.0-2.0-0.68-0.618-3.618,0,1,1,81,false,stim,false,0,1208,1,0,2,92553,task3,1744570,false,false,2071,image-keyboard-response,12
true,30,0,2,0,true,q,false,true,0.0-2.0-0.68-0.619-3.619,0,1,1,81,false,stim,false,2,594,1,1,0,92553,task3,1746689,false,false,2074,image-keyboard-response,13
true,31,0,1,1,false,z,false,false,0.0-2.0-0.68-0.620-3.620,1,0,0,81,true,stim,true,0,952,1,0,2,92553,task3,1749167,false,false,2077,image-keyboard-response,1
true,31,0,1,1,false,z,false,false,0.0-2.0-0.69-0.621-3.621,1,0,0,81,false,stim,true,0,392,1,0,2,92553,task3,1751080,false,false,2080,image-keyboard-response,2
true,31,1,1,1,true,z,false,true,0.0-2.0-0.69-0.622-3.622,1,0,0,90,false,stim,false,0,866,1,0,2,92553,task3,1753469,false,false,2083,image-keyboard-response,3
true,31,1,1,1,true,z,false,false,0.0-2.0-0.69-0.623-3.623,1,0,0,90,false,stim,false,0,1847,1,0,2,92553,task3,1756826,false,true,2086,image-keyboard-response,4
true,31,1,1,0,false,q,true,true,0.0-2.0-0.69-0.624-3.624,1,0,0,90,false,stim,false,0,738,1,1,0,92553,task3,1759083,false,true,2089,image-keyboard-response,5
true,31,0,1,0,true,q,false,true,0.0-2.0-0.69-0.625-3.625,1,0,0,81,false,stim,false,1,886,1,0,1,92553,task3,1761492,false,false,2092,image-keyboard-response,6
true,31,0,1,0,true,q,false,true,0.0-2.0-0.69-0.626-3.626,1,0,0,81,false,stim,false,1,863,1,0,1,92553,task3,1763888,false,false,2095,image-keyboard-response,7
true,31,1,1,0,false,q,true,false,0.0-2.0-0.69-0.627-3.627,1,0,0,90,false,stim,false,0,1216,1,1,0,92553,task3,1766625,false,false,2098,image-keyboard-response,8
true,31,1,1,0,false,q,true,false,0.0-2.0-0.69-0.628-3.628,1,0,0,90,false,stim,false,0,648,1,1,0,92553,task3,1768840,false,false,2101,image-keyboard-response,9
true,31,0,1,0,true,q,false,true,0.0-2.0-0.69-0.629-3.629,1,0,0,81,false,stim,false,1,942,1,0,1,92553,task3,1771312,false,false,2104,image-keyboard-response,10
true,31,2,1,0,false,q,true,false,0.0-2.0-0.70-0.630-3.630,1,0,0,68,false,stim,false,0,440,1,1,0,92553,task3,1773280,false,false,2107,image-keyboard-response,11
true,31,1,1,1,true,z,false,true,0.0-2.0-0.70-0.631-3.631,1,0,0,90,false,stim,false,0,589,1,0,2,92553,task3,1775399,false,false,2110,image-keyboard-response,12
true,31,0,1,0,true,q,false,true,0.0-2.0-0.70-0.632-3.632,1,0,0,81,false,stim,false,0,539,1,1,0,92553,task3,1777455,false,false,2113,image-keyboard-response,13
true,31,0,1,0,true,q,false,true,0.0-2.0-0.70-0.633-3.633,1,0,0,81,false,stim,false,1,736,1,0,1,92553,task3,1779725,false,false,2116,image-keyboard-response,14
