answered,blockNum,choice,condition,corResp,correct,correct_response,explo,fb,internal_node_id,isStable_1,isStable_2,isStable_3,key_press,newBlock,part,persev,persevResp,rt,sessNum,stableAS,stimulus,subject,task,time_elapsed,training,trap,trial_index,trial_type,trialsInBlock
true,1,1,0,2,false,d,true,false,0.0-2.0-0.0-0.0-3.0,0,0,0,90,true,stim,false,-1,1123,0,0,1,92553,task2,224610,false,false,85,image-keyboard-response,1
true,1,2,0,2,true,d,false,true,0.0-2.0-0.0-0.1-3.1,0,0,0,68,false,stim,false,-1,1938,0,0,0,92553,task2,228065,false,false,88,image-keyboard-response,2
true,1,0,0,2,false,d,true,false,0.0-2.0-0.0-0.2-3.2,0,0,0,81,false,stim,false,-1,1138,0,0,1,92553,task2,230715,false,false,91,image-keyboard-response,3
true,1,2,0,2,true,d,false,true,0.0-2.0-0.0-0.3-3.3,0,0,0,68,false,stim,false,-1,988,0,0,0,92553,task2,233219,false,false,94,image-keyboard-response,4
true,1,1,0,1,true,z,false,true,0.0-2.0-0.0-0.4-3.4,0,0,0,90,false,stim,false,-1,1678,0,0,2,92553,task2,236415,false,false,97,image-keyboard-response,5
true,1,2,0,2,true,d,false,true,0.0-2.0-0.0-0.5-3.5,0,0,0,68,false,stim,false,-1,1035,0,0,1,92553,task2,238966,false,false,100,image-keyboard-response,6
true,1,1,0,1,true,z,false,true,0.0-2.0-0.0-0.6-3.6,0,0,0,90,false,stim,false,-1,1365,0,0,2,92553,task2,241847,false,false,103,image-keyboard-response,7
true,1,2,0,2,true,d,false,true,0.0-2.0-0.0-0.7-3.7,0,0,0,68,false,stim,false,-1,792,0,0,0,92553,task2,244155,false,false,106,image-keyboard-response,8
true,1,1,0,1,true,z,false,true,0.0-2.0-0.0-0.8-3.8,0,0,0,90,false,stim,false,-1,1755,0,0,2,92553,task2,247436,false,false,109,image-keyboard-response,9
true,1,2,0,2,true,d,false,true,0.0-2.0-0.1-0.9-3.9,0,0,0,68,false,stim,false,-1,776,0,0,0,92553,task2,249730,false,false,112,image-keyboard-response,10
true,1,2,0,2,true,d,false,true,0.0-2.0-0.1-0.10-3.10,0,0,0,68,false,stim,false,-1,1067,0,0,0,92553,task2,252313,false,false,115,image-keyboard-response,11
true,1,2,0,2,true,d,false,true,0.0-2.0-0.1-0.11-3.11,0,0,0,68,false,stim,false,-1,2150,0,0,1,92553,task2,255994,false,false,118,image-keyboard-response,12
true,1,1,0,1,true,z,false,false,0.0-2.0-0.1-0.12-3.12,0,0,0,90,false,stim,false,-1,858,0,0,2,92553,task2,258370,false,true,121,image-keyboard-response,13
true,1,2,0,1,false,z,true,false,0.0-2.0-0.1-0.13-3.13,0,0,0,68,false,stim,false,-1,1065,0,0,2,92553,task2,260963,false,false,124,image-keyboard-response,14
true,1,2,0,2,true,d,false,true,0.0-2.0-0.1-0.14-3.14,0,0,0,68,false,stim,false,-1,1646,0,0,1,92553,task2,264131,false,false,127,image-keyboard-response,15
true,1,2,0,2,true,d,false,true,0.0-2.0-0.1-0.15-3.15,0,0,0,68,false,stim,false,-1,843,0,0,1,92553,task2,266486,false,false,130,image-keyboard-response,16
true,1,2,0,2,true,d,false,true,0.0-2.0-0.1-0.16-3.16,0,0,0,68,false,stim,false,-1,1070,0,0,0,92553,task2,269072,false,false,133,image-keyboard-response,17
true,1,0,0,1,false,z,true,false,0.0-2.0-0.1-0.17-3.17,0,0,0,81,false,stim,false,-1,1156,0,0,2,92553,task2,271745,false,false,136,image-keyboard-response,18
true,1,1,0,2,false,d,true,false,0.0-2.0-0.2-0.18-3.18,0,0,0,90,false,stim,false,-1,1851,0,0,1,92553,task2,275112,false,false,139,image-keyboard-response,19
true,1,1,0,1,true,z,false,true,0.0-2.0-0.2-0.19-3.19,0,0,0,90,false,stim,false,-1,2372,0,0,2,92553,task2,279003,false,false,142,image-keyboard-response,20
true,1,0,0,2,false,d,true,false,0.0-2.0-0.2-0.20-3.20,0,0,0,81,false,stim,false,-1,2030,0,0,1,92553,task2,282546,false,false,145,image-keyboard-response,21
true,1,2,0,2,true,d,false,true,0.0-2.0-0.2-0.21-3.21,0,0,0,68,false,stim,false,-1,727,0,0,1,92553,task2,284795,false,false,148,image-keyboard-response,22
true,1,1,0,1,true,z,false,true,0.0-2.0-0.2-0.22-3.22,0,0,0,90,false,stim,false,-1,1247,0,0,2,92553,task2,287564,false,false,151,image-keyboard-response,23
true,1,0,0,2,false,d,true,false,0.0-2.0-0.2-0.23-3.23,0,0,0,81,false,stim,false,-1,1898,0,1,0,92553,task2,290989,false,false,154,image-keyboard-response,24
true,1,1,0,2,false,d,true,false,0.0-2.0-0.2-0.24-3.24,0,0,0,90,false,stim,false,-1,1001,0,1,0,92553,task2,293515,false,false,157,image-keyboard-response,25
true,1,1,0,1,true,z,false,true,0.0-2.0-0.2-0.25-3.25,0,0,0,90,false,stim,false,-1,2626,0,0,2,92553,task2,297657,false,false,160,image-keyboard-response,26
true,2,2,2,2,true,d,false,true,0.0-2.0-0.2-0.26-3.26,1,0,0,68,true,stim,false,2,1740,0,1,0,92553,task2,300923,false,false,163,image-keyboard-response,1
true,2,2,2,2,true,d,false,true,0.0-2.0-0.3-0.27-3.27,1,0,0,68,false,stim,false,2,1039,0,1,0,92553,task2,303487,false,false,166,image-keyboard-response,2
true,2,2,2,2,true,d,false,true,0.0-2.0-0.3-0.28-3.28,1,0,0,68,false,stim,false,2,1135,0,1,0,92553,task2,306141,false,false,169,image-keyboard-response,3
true,2,2,2,1,false,z,false,false,0.0-2.0-0.3-0.29-3.29,1,0,0,68,false,stim,true,2,1554,0,0,1,92553,task2,309216,false,false,172,image-keyboard-response,4
true,2,1,2,1,true,z,false,true,0.0-2.0-0.3-0.30-3.30,1,0,0,90,false,stim,false,2,1566,0,0,1,92553,task2,312307,false,false,175,image-keyboard-response,5
true,2,2,2,2,true,d,false,true,0.0-2.0-0.3-0.31-3.31,1,0,0,68,false,stim,false,1,1810,0,0,2,92553,task2,315645,false,false,178,image-keyboard-response,6
true,2,2,2,2,true,d,false,true,0.0-2.0-0.3-0.32-3.32,1,0,0,68,false,stim,false,1,860,0,0,2,92553,task2,318026,false,false,181,image-keyboard-response,7
true,2,2,2,2,true,d,false,true,0.0-2.0-0.3-0.33-3.33,1,0,0,68,false,stim,false,2,987,0,1,0,92553,task2,320536,false,false,184,image-keyboard-response,8
true,2,2,2,2,true,d,false,true,0.0-2.0-0.3-0.34-3.34,1,0,0,68,false,stim,false,1,1074,0,0,2,92553,task2,323127,false,false,187,image-keyboard-response,9
true,2,2,2,1,false,z,false,false,0.0-2.0-0.3-0.35-3.35,1,0,0,68,false,stim,true,2,1219,0,0,1,92553,task2,325860,false,false,190,image-keyboard-response,10
true,2,1,2,1,true,z,false,true,0.0-2.0-0.4-0.36-3.36,1,0,0,90,false,stim,false,2,880,0,0,1,92553,task2,328256,false,false,193,image-keyboard-response,11
true,2,1,2,1,true,z,false,true,0.0-2.0-0.4-0.37-3.37,1,0,0,90,false,stim,false,2,709,0,0,1,92553,task2,330477,false,false,196,image-keyboard-response,12
true,2,2,2,2,true,d,false,true,0.0-2.0-0.4-0.38-3.38,1,0,0,68,false,stim,false,1,1467,0,0,2,92553,task2,333460,false,false,199,image-keyboard-response,13
true,2,2,2,2,true,d,false,true,0.0-2.0-0.4-0.39-3.39,1,0,0,68,false,stim,false,2,1173,0,1,0,92553,task2,336155,false,false,202,image-keyboard-response,14
true,2,2,2,2,true,d,false,true,0.0-2.0-0.4-0.40-3.40,1,0,0,68,false,stim,false,1,1488,0,0,2,92553,task2,339159,false,false,205,image-keyboard-response,15
true,2,2,2,2,true,d,false,true,0.0-2.0-0.4-0.41-3.41,1,0,0,68,false,stim,false,2,745,0,1,0,92553,task2,341419,false,false,208,image-keyboard-response,16
true,2,2,2,2,true,d,false,true,0.0-2.0-0.4-0.42-3.42,1,0,0,68,false,stim,false,1,940,0,0,2,92553,task2,343874,false,false,211,image-keyboard-response,17
true,2,1,2,1,true,z,false,true,0.0-2.0-0.4-0.43-3.43,1,0,0,90,false,stim,false,2,1023,0,0,1,92553,task2,346413,false,false,214,image-keyboard-response,18
true,2,2,2,2,true,d,false,true,0.0-2.0-0.4-0.44-3.44,1,0,0,68,false,stim,false,2,1194,0,1,0,92553,task2,349127,false,false,217,image-keyboard-response,19
true,2,2,2,1,false,z,false,false,0.0-2.0-0.5-0.45-3.45,1,0,0,68,false,stim,true,2,569,0,0,1,92553,task2,351220,false,false,220,image-keyboard-response,20
true,2,2,2,2,true,d,false,true,0.0-2.0-0.5-0.46-3.46,1,0,0,68,false,stim,false,2,682,0,1,0,92553,task2,353422,false,false,223,image-keyboard-response,21
true,2,2,2,2,true,d,false,true,0.0-2.0-0.5-0.47-3.47,1,0,0,68,false,stim,false,1,843,0,0,2,92553,task2,355786,false,false,226,image-keyboard-response,22
true,2,2,2,2,true,d,false,true,0.0-2.0-0.5-0.48-3.48,1,0,0,68,false,stim,false,2,967,0,1,0,92553,task2,358287,false,false,229,image-keyboard-response,23
true,2,1,2,1,true,z,false,true,0.0-2.0-0.5-0.49-3.49,1,0,0,90,false,stim,false,2,863,0,0,1,92553,task2,360673,false,false,232,image-keyboard-response,24
true,2,2,2,2,true,d,false,true,0.0-2.0-0.5-0.50-3.50,1,0,0,68,false,stim,false,2,649,0,1,0,92553,task2,362845,false,false,235,image-keyboard-response,25
true,2,2,2,2,true,d,false,true,0.0-2.0-0.5-0.51-3.51,1,0,0,68,false,stim,false,1,793,0,0,2,92553,task2,365153,false,false,238,image-keyboard-response,26
true,2,2,2,2,true,d,false,true,0.0-2.0-0.5-0.52-3.52,1,0,0,68,false,stim,false,1,646,0,0,2,92553,task2,367315,false,false,241,image-keyboard-response,27
true,2,1,2,1,true,z,false,false,0.0-2.0-0.5-0.53-3.53,1,0,0,90,false,stim,false,2,728,0,0,1,92553,task2,369571,false,true,244,image-keyboard-response,28
true,2,0,2,1,false,z,true,false,0.0-2.0-0.6-0.54-3.54,1,0,0,81,false,stim,false,2,950,0,0,1,92553,task2,372032,false,false,247,image-keyboard-response,29
true,2,2,2,2,true,d,false,true,0.0-2.0-0.6-0.55-3.55,1,0,0,68,false,stim,false,2,1337,0,1,0,92553,task2,374899,false,false,250,image-keyboard-response,30
true,2,2,2,1,false,z,false,false,0.0-2.0-0.6-0.56-3.56,1,0,0,68,false,stim,true,2,825,0,0,1,92553,task2,377245,false,false,253,image-keyboard-response,31
true,2,2,2,2,true,d,false,false,0.0-2.0-0.6-0.57-3.57,1,0,0,68,false,stim,false,2,983,0,1,0,92553,task2,379753,false,true,256,image-keyboard-response,32
true,2,1,2,2,false,d,false,false,0.0-2.0-0.6-0.58-3.58,1,0,0,90,false,stim,true,1,2323,0,0,2,92553,task2,383592,false,false,259,image-keyboard-response,33
true,2,1,2,2,false,d,true,false,0.0-2.0-0.6-0.59-3.59,1,0,0,90,false,stim,false,2,1067,0,1,0,92553,task2,386179,false,false,262,image-keyboard-response,34
true,2,2,2,2,true,d,false,true,0.0-2.0-0.6-0.60-3.60,1,0,0,68,false,stim,false,1,2007,0,0,2,92553,task2,389709,false,false,265,image-keyboard-response,35
true,3,2,2,0,false,q,false,false,0.0-2.0-0.6-0.61-3.61,1,0,0,68,true,stim,true,2,565,0,0,2,92553,task2,391795,false,false,268,image-keyboard-response,1
true,3,1,2,0,false,q,false,false,0.0-2.0-0.6-0.62-3.62,1,0,0,90,false,stim,true,1,2568,0,0,1,92553,task2,395890,false,false,271,image-keyboard-response,2
true,3,2,2,0,false,q,true,false,0.0-2.0-0.7-0.63-3.63,1,0,0,68,false,stim,false,1,1673,0,0,1,92553,task2,399075,false,false,274,image-keyboard-response,3
true,3,2,2,0,false,q,false,true,0.0-2.0-0.7-0.64-3.64,1,0,0,68,false,stim,true,2,2650,0,0,2,92553,task2,403251,false,true,277,image-keyboard-response,4
true,3,2,2,2,true,d,false,true,0.0-2.0-0.7-0.65-3.65,1,0,0,68,false,stim,false,2,1755,0,1,0,92553,task2,406522,false,false,280,image-keyboard-response,5
true,3,2,2,0,false,q,false,false,0.0-2.0-0.7-0.66-3.66,1,0,0,68,false,stim,true,2,1970,0,0,2,92553,task2,410011,false,false,283,image-keyboard-response,6
true,3,2,2,2,true,d,false,true,0.0-2.0-0.7-0.67-3.67,1,0,0,68,false,stim,false,2,1091,0,1,0,92553,task2,412624,false,false,286,image-keyboard-response,7
true,3,1,2,0,false,q,true,false,0.0-2.0-0.7-0.68-3.68,1,0,0,90,false,stim,false,2,937,0,0,2,92553,task2,415081,false,false,289,image-keyboard-response,8
true,3,2,2,0,false,q,true,false,0.0-2.0-0.7-0.69-3.69,1,0,0,68,false,stim,false,1,1269,0,0,1,92553,task2,417867,false,false,292,image-keyboard-response,9
true,3,2,2,2,true,d,false,false,0.0-2.0-0.7-0.70-3.70,1,0,0,68,false,stim,false,2,1827,0,1,0,92553,task2,421211,false,true,295,image-keyboard-response,10
true,3,0,2,0,true,q,false,true,0.0-2.0-0.7-0.71-3.71,1,0,0,81,false,stim,false,1,2315,0,0,1,92553,task2,425047,false,false,298,image-keyboard-response,11
true,3,0,2,0,true,q,false,true,0.0-2.0-0.8-0.72-3.72,1,0,0,81,false,stim,false,1,681,0,0,1,92553,task2,427256,false,false,301,image-keyboard-response,12
true,3,2,2,2,true,d,false,false,0.0-2.0-0.8-0.73-3.73,1,0,0,68,false,stim,false,2,1395,0,1,0,92553,task2,430175,false,true,304,image-keyboard-response,13
true,3,2,2,0,false,q,false,false,0.0-2.0-0.8-0.74-3.74,1,0,0,68,false,stim,true,2,1406,0,0,2,92553,task2,433099,false,false,307,image-keyboard-response,14
true,3,1,2,0,false,q,true,false,0.0-2.0-0.8-0.75-3.75,1,0,0,90,false,stim,false,2,934,0,0,2,92553,task2,435555,false,false,310,image-keyboard-response,15
true,3,0,2,2,false,d,true,false,0.0-2.0-0.8-0.76-3.76,1,0,0,81,false,stim,false,2,1130,0,1,0,92553,task2,438200,false,false,313,image-keyboard-response,16
true,3,1,2,2,false,d,true,false,0.0-2.0-0.8-0.77-3.77,1,0,0,90,false,stim,false,2,1484,0,1,0,92553,task2,441203,false,false,316,image-keyboard-response,17
true,3,0,2,0,true,q,false,true,0.0-2.0-0.8-0.78-3.78,1,0,0,81,false,stim,false,1,1599,0,0,1,92553,task2,444318,false,false,319,image-keyboard-response,18
true,3,0,2,0,true,q,false,true,0.0-2.0-0.8-0.79-3.79,1,0,0,81,false,stim,false,2,2037,0,0,2,92553,task2,447877,false,false,322,image-keyboard-response,19
true,3,0,2,0,true,q,false,true,0.0-2.0-0.8-0.80-3.80,1,0,0,81,false,stim,false,1,1203,0,0,1,92553,task2,450599,false,false,325,image-keyboard-response,20
true,3,0,2,0,true,q,false,true,0.0-2.0-0.9-0.81-3.81,1,0,0,81,false,stim,false,1,866,0,0,1,92553,task2,452986,false,false,328,image-keyboard-response,21
true,3,0,2,0,true,q,false,true,0.0-2.0-0.9-0.82-3.82,1,0,0,81,false,stim,false,2,1485,0,0,2,92553,task2,455990,false,false,331,image-keyboard-response,22
true,3,0,2,0,true,q,false,true,0.0-2.0-0.9-0.83-3.83,1,0,0,81,false,stim,false,1,895,0,0,1,92553,task2,458402,false,false,334,image-keyboard-response,23
true,3,0,2,2,false,d,true,false,0.0-2.0-0.9-0.84-3.84,1,0,0,81,false,stim,false,2,1418,0,1,0,92553,task2,461331,false,false,337,image-keyboard-response,24
true,3,1,2,0,false,q,true,true,0.0-2.0-0.9-0.85-3.85,1,0,0,90,false,stim,false,2,1104,0,0,2,92553,task2,463954,false,true,340,image-keyboard-response,25
true,3,0,2,2,false,d,true,false,0.0-2.0-0.9-0.86-3.86,1,0,0,81,false,stim,false,2,2588,0,1,0,92553,task2,468063,false,false,343,image-keyboard-response,26
true,3,0,2,0,true,q,false,true,0.0-2.0-0.9-0.87-3.87,1,0,0,81,false,stim,false,1,1318,0,0,1,92553,task2,470908,false,false,346,image-keyboard-response,27
true,3,0,2,0,true,q,false,true,0.0-2.0-0.9-0.88-3.88,1,0,0,81,false,stim,false,2,925,0,1,2,92553,task2,473358,false,false,349,image-keyboard-response,28
true,3,1,2,2,false,d,true,false,0.0-2.0-0.9-0.89-3.89,1,0,0,90,false,stim,false,2,2233,0,0,0,92553,task2,477107,false,false,352,image-keyboard-response,29
true,3,2,2,2,true,d,false,true,0.0-2.0-0.10-0.90-3.90,1,0,0,68,false,stim,false,2,998,0,0,0,92553,task2,479618,false,false,355,image-keyboard-response,30
true,3,0,2,0,true,q,false,false,0.0-2.0-0.10-0.91-3.91,1,0,0,81,false,stim,false,1,1096,0,0,1,92553,task2,482241,false,true,358,image-keyboard-response,31
true,3,0,2,0,true,q,false,true,0.0-2.0-0.10-0.92-3.92,1,0,0,81,false,stim,false,2,1453,0,1,2,92553,task2,485216,false,false,361,image-keyboard-response,32
true,4,0,2,0,true,q,false,true,0.0-2.0-0.10-0.93-3.93,0,0,1,81,true,stim,false,0,752,0,1,2,92553,task2,487482,false,false,364,image-keyboard-response,1
true,4,2,2,1,false,z,true,false,0.0-2.0-0.10-0.94-3.94,0,0,1,68,false,stim,false,0,2407,0,0,1,92553,task2,491409,false,false,367,image-keyboard-response,2
true,4,0,2,0,true,q,false,true,0.0-2.0-0.10-0.95-3.95,0,0,1,81,false,stim,false,0,1388,0,1,2,92553,task2,494315,false,false,370,image-keyboard-response,3
true,4,1,2,1,true,z,false,true,0.0-2.0-0.10-0.96-3.96,0,0,1,90,false,stim,false,0,1005,0,0,1,92553,task2,496828,false,false,373,image-keyboard-response,4
true,4,2,2,0,false,q,false,false,0.0-2.0-0.10-0.97-3.97,0,0,1,68,false,stim,true,2,1664,0,0,0,92553,task2,500017,false,false,376,image-keyboard-response,5
true,4,0,2,0,true,q,false,true,0.0-2.0-0.10-0.98-3.98,0,0,1,81,false,stim,false,2,942,0,0,0,92553,task2,502481,false,false,379,image-keyboard-response,6
true,4,0,2,0,true,q,false,true,0.0-2.0-0.11-0.99-3.99,0,0,1,81,false,stim,false,0,830,0,1,2,92553,task2,504831,false,false,382,image-keyboard-response,7
true,4,1,2,1,true,z,false,true,0.0-2.0-0.11-0.100-3.100,0,0,1,90,false,stim,false,0,1175,0,0,1,92553,task2,507532,false,false,385,image-keyboard-response,8
true,4,0,2,0,true,q,false,true,0.0-2.0-0.11-0.101-3.101,0,0,1,81,false,stim,false,0,864,0,1,2,92553,task2,509916,false,false,388,image-keyboard-response,9
true,4,0,2,0,true,q,false,true,0.0-2.0-0.11-0.102-3.102,0,0,1,81,false,stim,false,2,1151,0,0,0,92553,task2,512591,false,false,391,image-keyboard-response,10
true,4,1,2,1,true,z,false,true,0.0-2.0-0.11-0.103-3.103,0,0,1,90,false,stim,false,0,1622,0,0,1,92553,task2,515722,false,false,394,image-keyboard-response,11
true,4,1,2,1,true,z,false,true,0.0-2.0-0.11-0.104-3.104,0,0,1,90,false,stim,false,0,765,0,0,1,92553,task2,518008,false,false,397,image-keyboard-response,12
true,4,0,2,0,true,q,false,true,0.0-2.0-0.11-0.105-3.105,0,0,1,81,false,stim,false,2,831,0,0,0,92553,task2,520364,false,false,400,image-keyboard-response,13
true,4,0,2,0,true,q,false,true,0.0-2.0-0.11-0.106-3.106,0,0,1,81,false,stim,false,0,1567,0,1,2,92553,task2,523460,false,false,403,image-keyboard-response,14
true,4,0,2,0,true,q,false,true,0.0-2.0-0.11-0.107-3.107,0,0,1,81,false,stim,false,2,1262,0,0,0,92553,task2,526232,false,false,406,image-keyboard-response,15
true,4,1,2,0,false,q,true,false,0.0-2.0-0.12-0.108-3.108,0,0,1,90,false,stim,false,0,1573,0,1,2,92553,task2,529330,false,false,409,image-keyboard-response,16
true,4,0,2,0,true,q,false,true,0.0-2.0-0.12-0.109-3.109,0,0,1,81,false,stim,false,0,832,0,1,2,92553,task2,531685,false,false,412,image-keyboard-response,17
true,4,1,2,1,true,z,false,true,0.0-2.0-0.12-0.110-3.110,0,0,1,90,false,stim,false,0,1301,0,0,1,92553,task2,534499,false,false,415,image-keyboard-response,18
true,4,0,2,0,true,q,false,true,0.0-2.0-0.12-0.111-3.111,0,0,1,81,false,stim,false,0,910,0,1,2,92553,task2,536936,false,false,418,image-keyboard-response,19
true,4,0,2,1,false,z,false,false,0.0-2.0-0.12-0.112-3.112,0,0,1,81,false,stim,true,0,1125,0,0,1,92553,task2,539589,false,false,421,image-keyboard-response,20
true,4,0,2,0,true,q,false,true,0.0-2.0-0.12-0.113-3.113,0,0,1,81,false,stim,false,2,681,0,0,0,92553,task2,541781,false,false,424,image-keyboard-response,21
true,4,1,2,1,true,z,false,true,0.0-2.0-0.12-0.114-3.114,0,0,1,90,false,stim,false,0,1538,0,0,1,92553,task2,544830,false,false,427,image-keyboard-response,22
true,4,0,2,0,true,q,false,true,0.0-2.0-0.12-0.115-3.115,0,0,1,81,false,stim,false,2,1092,0,0,0,92553,task2,547437,false,false,430,image-keyboard-response,23
true,4,0,2,0,true,q,false,true,0.0-2.0-0.12-0.116-3.116,0,0,1,81,false,stim,false,2,1366,0,0,0,92553,task2,550326,false,false,433,image-keyboard-response,24
true,4,0,2,0,true,q,false,true,0.0-2.0-0.13-0.117-3.117,0,0,1,81,false,stim,false,2,951,0,0,0,92553,task2,552796,false,false,436,image-keyboard-response,25
true,4,1,2,1,true,z,false,true,0.0-2.0-0.13-0.118-3.118,0,0,1,90,false,stim,false,0,831,0,0,1,92553,task2,555154,false,false,439,image-keyboard-response,26
true,4,0,2,0,true,q,false,true,0.0-2.0-0.13-0.119-3.119,0,0,1,81,false,stim,false,0,1442,0,0,2,92553,task2,558102,false,false,442,image-keyboard-response,27
true,4,0,2,0,true,q,false,true,0.0-2.0-0.13-0.120-3.120,0,0,1,81,false,stim,false,2,1332,0,0,0,92553,task2,560953,false,false,445,image-keyboard-response,28
true,4,0,2,0,true,q,false,true,0.0-2.0-0.13-0.121-3.121,0,0,1,81,false,stim,false,2,1336,0,0,0,92553,task2,563816,false,false,448,image-keyboard-response,29
true,4,0,2,0,true,q,false,true,0.0-2.0-0.13-0.122-3.122,0,0,1,81,false,stim,false,0,723,0,0,2,92553,task2,566056,false,false,451,image-keyboard-response,30
true,4,0,2,0,true,q,false,true,0.0-2.0-0.13-0.123-3.123,0,0,1,81,false,stim,false,0,638,0,0,2,92553,task2,568220,false,false,454,image-keyboard-response,31
true,5,1,2,1,true,z,false,true,0.0-2.0-0.13-0.124-3.124,0,1,0,90,true,stim,false,1,899,0,1,1,92553,task2,570632,false,false,457,image-keyboard-response,1
true,5,1,2,1,true,z,false,true,0.0-2.0-0.13-0.125-3.125,0,1,0,90,false,stim,false,1,824,0,1,1,92553,task2,572969,false,false,460,image-keyboard-response,2
true,5,0,2,1,false,z,false,false,0.0-2.0-0.14-0.126-3.126,0,1,0,81,false,stim,true,0,1036,0,0,2,92553,task2,575516,false,false,463,image-keyboard-response,3
true,5,1,2,1,true,z,false,false,0.0-2.0-0.14-0.127-3.127,0,1,0,90,false,stim,false,1,1003,0,1,1,92553,task2,578034,false,true,466,image-keyboard-response,4
true,5,0,2,2,false,d,false,false,0.0-2.0-0.14-0.128-3.128,0,1,0,81,false,stim,true,0,1372,0,0,0,92553,task2,580921,false,false,469,image-keyboard-response,5
true,5,2,2,2,true,d,false,true,0.0-2.0-0.14-0.129-3.129,0,1,0,68,false,stim,false,0,1302,0,0,0,92553,task2,583739,false,false,472,image-keyboard-response,6
true,5,0,2,1,false,z,true,false,0.0-2.0-0.14-0.130-3.130,0,1,0,81,false,stim,false,1,2115,0,1,1,92553,task2,587376,false,false,475,image-keyboard-response,7
true,5,0,2,1,false,z,false,false,0.0-2.0-0.14-0.131-3.131,0,1,0,81,false,stim,true,0,2818,0,0,2,92553,task2,591716,false,false,478,image-keyboard-response,8
true,5,2,2,1,false,z,true,false,0.0-2.0-0.14-0.132-3.132,0,1,0,68,false,stim,false,0,1163,0,0,2,92553,task2,594413,false,false,481,image-keyboard-response,9
true,5,2,2,2,true,d,false,true,0.0-2.0-0.14-0.133-3.133,0,1,0,68,false,stim,false,0,1451,0,0,0,92553,task2,597374,false,false,484,image-keyboard-response,10
true,5,2,2,1,false,z,true,true,0.0-2.0-0.14-0.134-3.134,0,1,0,68,false,stim,false,1,1667,0,1,1,92553,task2,600563,false,true,487,image-keyboard-response,11
true,5,2,2,1,false,z,true,false,0.0-2.0-0.15-0.135-3.135,0,1,0,68,false,stim,false,1,1649,0,1,1,92553,task2,603731,false,false,490,image-keyboard-response,12
true,5,2,2,1,false,z,true,false,0.0-2.0-0.15-0.136-3.136,0,1,0,68,false,stim,false,0,2096,0,0,2,92553,task2,607346,false,false,493,image-keyboard-response,13
true,5,2,2,2,true,d,false,true,0.0-2.0-0.15-0.137-3.137,0,1,0,68,false,stim,false,0,1386,0,0,0,92553,task2,610262,false,false,496,image-keyboard-response,14
true,5,1,2,1,true,z,false,true,0.0-2.0-0.15-0.138-3.138,0,1,0,90,false,stim,false,1,1197,0,1,1,92553,task2,612988,false,false,499,image-keyboard-response,15
true,5,2,2,1,false,z,true,false,0.0-2.0-0.15-0.139-3.139,0,1,0,68,false,stim,false,0,1792,0,0,2,92553,task2,616300,false,false,502,image-keyboard-response,16
true,5,1,2,1,true,z,false,true,0.0-2.0-0.15-0.140-3.140,0,1,0,90,false,stim,false,1,1170,0,1,1,92553,task2,618995,false,false,505,image-keyboard-response,17
true,5,2,2,2,true,d,false,true,0.0-2.0-0.15-0.141-3.141,0,1,0,68,false,stim,false,0,1078,0,0,0,92553,task2,621598,false,false,508,image-keyboard-response,18
true,5,2,2,2,true,d,false,true,0.0-2.0-0.15-0.142-3.142,0,1,0,68,false,stim,false,0,987,0,0,0,92553,task2,624110,false,false,511,image-keyboard-response,19
true,5,1,2,1,true,z,false,true,0.0-2.0-0.15-0.143-3.143,0,1,0,90,false,stim,false,0,1553,0,0,2,92553,task2,627184,false,false,514,image-keyboard-response,20
true,5,1,2,1,true,z,false,true,0.0-2.0-0.16-0.144-3.144,0,1,0,90,false,stim,false,0,712,0,0,2,92553,task2,629425,false,false,517,image-keyboard-response,21
true,5,2,2,2,true,d,false,true,0.0-2.0-0.16-0.145-3.145,0,1,0,68,false,stim,false,0,926,0,0,0,92553,task2,631872,false,false,520,image-keyboard-response,22
true,5,2,2,2,true,d,false,true,0.0-2.0-0.16-0.146-3.146,0,1,0,68,false,stim,false,0,957,0,0,0,92553,task2,634347,false,false,523,image-keyboard-response,23
true,5,1,2,1,true,z,false,true,0.0-2.0-0.16-0.147-3.147,0,1,0,90,false,stim,false,1,872,0,1,1,92553,task2,636736,false,false,526,image-keyboard-response,24
true,5,2,2,2,true,d,false,true,0.0-2.0-0.16-0.148-3.148,0,1,0,68,false,stim,false,0,1132,0,0,0,92553,task2,639386,false,false,529,image-keyboard-response,25
true,5,1,2,1,true,z,false,false,0.0-2.0-0.16-0.149-3.149,0,1,0,90,false,stim,false,0,1350,0,0,2,92553,task2,642265,false,true,532,image-keyboard-response,26
true,5,2,2,1,false,z,true,false,0.0-2.0-0.16-0.150-3.150,0,1,0,68,false,stim,false,1,1401,0,1,1,92553,task2,645184,false,false,535,image-keyboard-response,27
true,5,1,2,1,true,z,false,false,0.0-2.0-0.16-0.151-3.151,0,1,0,90,false,stim,false,1,597,0,1,1,92553,task2,647297,false,true,538,image-keyboard-response,28
true,5,1,2,1,true,z,false,true,0.0-2.0-0.16-0.152-3.152,0,1,0,90,false,stim,false,0,1787,0,0,2,92553,task2,650610,false,false,541,image-keyboard-response,29
true,5,1,2,1,true,z,false,true,0.0-2.0-0.17-0.153-3.153,0,1,0,90,false,stim,false,1,2435,0,0,1,92553,task2,654559,false,false,544,image-keyboard-response,30
true,5,2,2,2,true,d,false,true,0.0-2.0-0.17-0.154-3.154,0,1,0,68,false,stim,false,0,1058,0,1,0,92553,task2,657139,false,false,547,image-keyboard-response,31
true,5,1,2,1,true,z,false,true,0.0-2.0-0.17-0.155-3.155,0,1,0,90,false,stim,false,0,1526,0,0,2,92553,task2,660181,false,false,550,image-keyboard-response,32
true,5,1,2,1,true,z,false,true,0.0-2.0-0.17-0.156-3.156,0,1,0,90,false,stim,false,1,1536,0,0,1,92553,task2,663241,false,false,553,image-keyboard-response,33
true,6,1,2,0,false,q,false,false,0.0-2.0-0.17-0.157-3.157,1,0,0,90,true,stim,true,1,988,0,0,1,92553,task2,665750,false,false,556,image-keyboard-response,1
true,6,2,2,2,true,d,false,true,0.0-2.0-0.17-0.158-3.158,1,0,0,68,false,stim,false,1,1897,0,0,2,92553,task2,669172,false,false,559,image-keyboard-response,2
true,6,2,2,2,true,d,false,true,0.0-2.0-0.17-0.159-3.159,1,0,0,68,false,stim,false,1,578,0,0,2,92553,task2,671280,false,false,562,image-keyboard-response,3
true,6,1,2,2,false,d,true,false,0.0-2.0-0.17-0.160-3.160,1,0,0,90,false,stim,false,2,955,0,1,0,92553,task2,673748,false,false,565,image-keyboard-response,4
true,6,0,2,2,false,d,true,false,0.0-2.0-0.17-0.161-3.161,1,0,0,81,false,stim,false,2,810,0,1,0,92553,task2,676080,false,false,568,image-keyboard-response,5
true,6,2,2,0,false,q,true,false,0.0-2.0-0.18-0.162-3.162,1,0,0,68,false,stim,false,1,1214,0,0,1,92553,task2,678815,false,false,571,image-keyboard-response,6
true,6,1,2,2,false,d,true,false,0.0-2.0-0.18-0.163-3.163,1,0,0,90,false,stim,false,2,1738,0,1,0,92553,task2,682073,false,false,574,image-keyboard-response,7
true,6,1,2,0,false,q,false,false,0.0-2.0-0.18-0.164-3.164,1,0,0,90,false,stim,true,1,1731,0,0,1,92553,task2,685319,false,false,577,image-keyboard-response,8
true,6,2,2,2,true,d,false,true,0.0-2.0-0.18-0.165-3.165,1,0,0,68,false,stim,false,2,1720,0,1,0,92553,task2,688553,false,false,580,image-keyboard-response,9
true,6,2,2,2,true,d,false,true,0.0-2.0-0.18-0.166-3.166,1,0,0,68,false,stim,false,1,1750,0,0,2,92553,task2,691820,false,false,583,image-keyboard-response,10
true,6,2,2,2,true,d,false,true,0.0-2.0-0.18-0.167-3.167,1,0,0,68,false,stim,false,1,917,0,0,2,92553,task2,694254,false,false,586,image-keyboard-response,11
true,6,2,2,2,true,d,false,true,0.0-2.0-0.18-0.168-3.168,1,0,0,68,false,stim,false,1,917,0,0,2,92553,task2,696694,false,false,589,image-keyboard-response,12
true,6,0,2,0,true,q,false,true,0.0-2.0-0.18-0.169-3.169,1,0,0,81,false,stim,false,1,1469,0,0,1,92553,task2,699691,false,false,592,image-keyboard-response,13
true,6,2,2,2,true,d,false,true,0.0-2.0-0.18-0.170-3.170,1,0,0,68,false,stim,false,2,872,0,1,0,92553,task2,702084,false,false,595,image-keyboard-response,14
true,6,2,2,2,true,d,false,true,0.0-2.0-0.19-0.171-3.171,1,0,0,68,false,stim,false,2,811,0,1,0,92553,task2,704414,false,false,598,image-keyboard-response,15
true,6,2,2,2,true,d,false,true,0.0-2.0-0.19-0.172-3.172,1,0,0,68,false,stim,false,1,1228,0,0,2,92553,task2,707181,false,false,601,image-keyboard-response,16
true,6,0,2,0,true,q,false,true,0.0-2.0-0.19-0.173-3.173,1,0,0,81,false,stim,false,1,838,0,0,1,92553,task2,709541,false,false,604,image-keyboard-response,17
true,6,2,2,2,true,d,false,true,0.0-2.0-0.19-0.174-3.174,1,0,0,68,false,stim,false,1,1102,0,0,2,92553,task2,712154,false,false,607,image-keyboard-response,18
true,6,2,2,2,true,d,false,true,0.0-2.0-0.19-0.175-3.175,1,0,0,68,false,stim,false,2,849,0,1,0,92553,task2,714513,false,false,610,image-keyboard-response,19
true,6,0,2,0,true,q,false,true,0.0-2.0-0.19-0.176-3.176,1,0,0,81,false,stim,false,1,1048,0,0,1,92553,task2,717087,false,false,613,image-keyboard-response,20
true,6,0,2,0,true,q,false,true,0.0-2.0-0.19-0.177-3.177,1,0,0,81,false,stim,false,1,663,0,0,1,92553,task2,719277,false,false,616,image-keyboard-response,21
true,6,2,2,2,true,d,false,true,0.0-2.0-0.19-0.178-3.178,1,0,0,68,false,stim,false,1,898,0,0,2,92553,task2,721698,false,false,619,image-keyboard-response,22
true,6,2,2,2,true,d,false,true,0.0-2.0-0.19-0.179-3.179,1,0,0,68,false,stim,false,2,1139,0,1,0,92553,task2,724352,false,false,622,image-keyboard-response,23
true,6,2,2,2,true,d,false,true,0.0-2.0-0.20-0.180-3.180,1,0,0,68,false,stim,false,1,906,0,0,2,92553,task2,726780,false,false,625,image-keyboard-response,24
true,6,0,2,0,true,q,false,true,0.0-2.0-0.20-0.181-3.181,1,0,0,81,false,stim,false,1,899,0,0,1,92553,task2,729188,false,false,628,image-keyboard-response,25
true,6,0,2,0,true,q,false,true,0.0-2.0-0.20-0.182-3.182,1,0,0,81,false,stim,false,1,676,0,0,1,92553,task2,731393,false,false,631,image-keyboard-response,26
true,6,2,2,2,true,d,false,true,0.0-2.0-0.20-0.183-3.183,1,0,0,68,false,stim,false,1,1123,0,0,2,92553,task2,734038,false,false,634,image-keyboard-response,27
true,6,2,2,2,true,d,false,true,0.0-2.0-0.20-0.184-3.184,1,0,0,68,false,stim,false,1,707,0,0,2,92553,task2,736261,false,false,637,image-keyboard-response,28
true,6,0,2,0,true,q,false,true,0.0-2.0-0.20-0.185-3.185,1,0,0,81,false,stim,false,1,810,0,0,1,92553,task2,738601,false,false,640,image-keyboard-response,29
true,6,2,2,2,true,d,false,true,0.0-2.0-0.20-0.186-3.186,1,0,0,68,false,stim,false,2,1617,0,0,0,92553,task2,741733,false,false,643,image-keyboard-response,30
true,6,2,2,2,true,d,false,true,0.0-2.0-0.20-0.187-3.187,1,0,0,68,false,stim,false,2,794,0,0,0,92553,task2,744048,false,false,646,image-keyboard-response,31
true,6,2,2,2,true,d,false,true,0.0-2.0-0.20-0.188-3.188,1,0,0,68,false,stim,false,2,617,0,0,0,92553,task2,746194,false,false,649,image-keyboard-response,32
true,6,0,2,0,true,q,false,false,0.0-2.0-0.21-0.189-3.189,1,0,0,81,false,stim,false,1,833,0,0,1,92553,task2,748543,false,true,652,image-keyboard-response,33
true,7,2,2,2,true,d,false,true,0.0-2.0-0.21-0.190-3.190,0,0,1,68,true,stim,false,2,1410,0,1,2,92553,task2,751475,false,false,655,image-keyboard-response,1
true,7,2,2,2,true,d,false,true,0.0-2.0-0.21-0.191-3.191,0,0,1,68,false,stim,false,2,1078,0,1,2,92553,task2,754074,false,false,658,image-keyboard-response,2
true,7,2,2,1,false,z,false,false,0.0-2.0-0.21-0.192-3.192,0,0,1,68,false,stim,true,2,785,0,0,0,92553,task2,756382,false,false,661,image-keyboard-response,3
true,7,1,2,2,false,d,true,false,0.0-2.0-0.21-0.193-3.193,0,0,1,90,false,stim,false,0,1341,0,0,1,92553,task2,759244,false,false,664,image-keyboard-response,4
true,7,2,2,2,true,d,false,true,0.0-2.0-0.21-0.194-3.194,0,0,1,68,false,stim,false,2,2226,0,1,2,92553,task2,762991,false,false,667,image-keyboard-response,5
true,7,0,2,1,false,z,true,true,0.0-2.0-0.21-0.195-3.195,0,0,1,81,false,stim,false,2,1078,0,0,0,92553,task2,765598,false,true,670,image-keyboard-response,6
true,7,0,2,1,false,z,true,false,0.0-2.0-0.21-0.196-3.196,0,0,1,81,false,stim,false,2,1003,0,0,0,92553,task2,768123,false,false,673,image-keyboard-response,7
true,7,2,2,2,true,d,false,true,0.0-2.0-0.21-0.197-3.197,0,0,1,68,false,stim,false,0,1005,0,0,1,92553,task2,770646,false,false,676,image-keyboard-response,8
true,7,2,2,1,false,z,false,false,0.0-2.0-0.22-0.198-3.198,0,0,1,68,false,stim,true,2,1229,0,0,0,92553,task2,773385,false,false,679,image-keyboard-response,9
true,7,2,2,2,true,d,false,true,0.0-2.0-0.22-0.199-3.199,0,0,1,68,false,stim,false,0,854,0,0,1,92553,task2,775758,false,false,682,image-keyboard-response,10
true,7,0,2,1,false,z,true,false,0.0-2.0-0.22-0.200-3.200,0,0,1,81,false,stim,false,2,964,0,0,0,92553,task2,778254,false,false,685,image-keyboard-response,11
true,7,2,2,2,true,d,false,true,0.0-2.0-0.22-0.201-3.201,0,0,1,68,false,stim,false,2,1012,0,1,2,92553,task2,780783,false,false,688,image-keyboard-response,12
true,7,2,2,2,true,d,false,true,0.0-2.0-0.22-0.202-3.202,0,0,1,68,false,stim,false,2,895,0,1,2,92553,task2,783195,false,false,691,image-keyboard-response,13
true,7,2,2,2,true,d,false,true,0.0-2.0-0.22-0.203-3.203,0,0,1,68,false,stim,false,2,770,0,1,2,92553,task2,785486,false,false,694,image-keyboard-response,14
true,7,2,2,2,true,d,false,true,0.0-2.0-0.22-0.204-3.204,0,0,1,68,false,stim,false,0,1038,0,0,1,92553,task2,788048,false,false,697,image-keyboard-response,15
true,7,1,2,1,true,z,false,true,0.0-2.0-0.22-0.205-3.205,0,0,1,90,false,stim,false,2,898,0,0,0,92553,task2,790460,false,false,700,image-keyboard-response,16
true,7,2,2,2,true,d,false,true,0.0-2.0-0.22-0.206-3.206,0,0,1,68,false,stim,false,0,917,0,0,1,92553,task2,792901,false,false,703,image-keyboard-response,17
true,7,2,2,1,false,z,false,false,0.0-2.0-0.23-0.207-3.207,0,0,1,68,false,stim,true,2,1054,0,0,0,92553,task2,795482,false,false,706,image-keyboard-response,18
true,7,1,2,1,true,z,false,false,0.0-2.0-0.23-0.208-3.208,0,0,1,90,false,stim,false,2,655,0,0,0,92553,task2,797658,false,true,709,image-keyboard-response,19
true,7,0,2,1,false,z,true,true,0.0-2.0-0.23-0.209-3.209,0,0,1,81,false,stim,false,2,1048,0,0,0,92553,task2,800223,false,true,712,image-keyboard-response,20
true,7,2,2,2,true,d,false,true,0.0-2.0-0.23-0.210-3.210,0,0,1,68,false,stim,false,0,2256,0,0,1,92553,task2,804013,false,false,715,image-keyboard-response,21
true,7,2,2,2,true,d,false,true,0.0-2.0-0.23-0.211-3.211,0,0,1,68,false,stim,false,2,894,0,1,2,92553,task2,806431,false,false,718,image-keyboard-response,22
true,7,2,2,2,true,d,false,true,0.0-2.0-0.23-0.212-3.212,0,0,1,68,false,stim,false,0,743,0,0,1,92553,task2,808695,false,false,721,image-keyboard-response,23
true,7,2,2,2,true,d,false,true,0.0-2.0-0.23-0.213-3.213,0,0,1,68,false,stim,false,0,494,0,0,1,92553,task2,810708,false,false,724,image-keyboard-response,24
true,7,2,2,2,true,d,false,true,0.0-2.0-0.23-0.214-3.214,0,0,1,68,false,stim,false,2,621,0,1,2,92553,task2,812847,false,false,727,image-keyboard-response,25
true,7,2,2,2,true,d,false,true,0.0-2.0-0.23-0.215-3.215,0,0,1,68,false,stim,false,2,456,0,1,2,92553,task2,814836,false,false,730,image-keyboard-response,26
true,7,2,2,2,true,d,false,true,0.0-2.0-0.24-0.216-3.216,0,0,1,68,false,stim,false,2,493,0,1,2,92553,task2,816850,false,false,733,image-keyboard-response,27
true,7,0,2,1,false,z,true,false,0.0-2.0-0.24-0.217-3.217,0,0,1,81,false,stim,false,2,660,0,0,0,92553,task2,819043,false,false,736,image-keyboard-response,28
true,7,2,2,2,true,d,false,true,0.0-2.0-0.24-0.218-3.218,0,0,1,68,false,stim,false,2,1248,0,1,2,92553,task2,821813,false,false,739,image-keyboard-response,29
true,7,2,2,2,true,d,false,true,0.0-2.0-0.24-0.219-3.219,0,0,1,68,false,stim,false,0,1076,0,0,1,92553,task2,824418,false,false,742,image-keyboard-response,30
true,7,1,2,1,true,z,false,true,0.0-2.0-0.24-0.220-3.220,0,0,1,90,false,stim,false,2,974,0,1,0,92553,task2,826908,false,false,745,image-keyboard-response,31
true,7,1,2,1,true,z,false,false,0.0-2.0-0.24-0.221-3.221,0,0,1,90,false,stim,false,2,811,0,1,0,92553,task2,829247,false,true,748,image-keyboard-response,32
true,7,2,2,2,true,d,false,true,0.0-2.0-0.24-0.222-3.222,0,0,1,68,false,stim,false,0,1004,0,0,1,92553,task2,831769,false,false,751,image-keyboard-response,33
true,7,2,2,2,true,d,false,true,0.0-2.0-0.24-0.223-3.223,0,0,1,68,false,stim,false,0,437,0,0,1,92553,task2,833732,false,false,754,image-keyboard-response,34
true,7,2,2,2,true,d,false,true,0.0-2.0-0.24-0.224-3.224,0,0,1,68,false,stim,false,2,586,0,0,2,92553,task2,835848,false,false,757,image-keyboard-response,35
true,8,2,2,1,false,z,false,false,0.0-2.0-0.25-0.225-3.225,1,0,0,68,true,stim,true,2,388,0,0,2,92553,task2,837761,false,false,760,image-keyboard-response,1
true,8,2,2,0,false,q,false,false,0.0-2.0-0.25-0.226-3.226,1,0,0,68,false,stim,true,2,1942,0,0,1,92553,task2,841235,false,false,763,image-keyboard-response,2
true,8,1,2,1,true,z,false,true,0.0-2.0-0.25-0.227-3.227,1,0,0,90,false,stim,false,2,1360,0,0,2,92553,task2,844121,false,false,766,image-keyboard-response,3
true,8,0,2,0,true,q,false,true,0.0-2.0-0.25-0.228-3.228,1,0,0,81,false,stim,false,2,1716,0,0,1,92553,task2,847366,false,false,769,image-keyboard-response,4
true,8,2,2,1,false,z,true,false,0.0-2.0-0.25-0.229-3.229,1,0,0,68,false,stim,false,1,1776,0,1,0,92553,task2,850663,false,false,772,image-keyboard-response,5
true,8,1,2,1,true,z,false,true,0.0-2.0-0.25-0.230-3.230,1,0,0,90,false,stim,false,2,820,0,0,2,92553,task2,853003,false,false,775,image-keyboard-response,6
true,8,0,2,0,true,q,false,true,0.0-2.0-0.25-0.231-3.231,1,0,0,81,false,stim,false,2,712,0,0,1,92553,task2,855229,false,false,778,image-keyboard-response,7
true,8,0,2,1,false,z,true,false,0.0-2.0-0.25-0.232-3.232,1,0,0,81,false,stim,false,1,899,0,1,0,92553,task2,857645,false,false,781,image-keyboard-response,8
true,8,1,2,1,true,z,false,true,0.0-2.0-0.25-0.233-3.233,1,0,0,90,false,stim,false,1,832,0,1,0,92553,task2,859997,false,false,784,image-keyboard-response,9
true,8,1,2,1,true,z,false,true,0.0-2.0-0.26-0.234-3.234,1,0,0,90,false,stim,false,1,839,0,1,0,92553,task2,862352,false,false,787,image-keyboard-response,10
true,8,0,2,1,false,z,true,false,0.0-2.0-0.26-0.235-3.235,1,0,0,81,false,stim,false,2,1848,0,0,2,92553,task2,865726,false,false,790,image-keyboard-response,11
true,8,0,2,1,false,z,true,false,0.0-2.0-0.26-0.236-3.236,1,0,0,81,false,stim,false,1,1120,0,1,0,92553,task2,868363,false,false,793,image-keyboard-response,12
true,8,1,2,1,true,z,false,true,0.0-2.0-0.26-0.237-3.237,1,0,0,90,false,stim,false,1,580,0,1,0,92553,task2,870456,false,false,796,image-keyboard-response,13
true,8,0,2,0,true,q,false,true,0.0-2.0-0.26-0.238-3.238,1,0,0,81,false,stim,false,2,1234,0,0,1,92553,task2,873214,false,false,799,image-keyboard-response,14
true,8,0,2,0,true,q,false,true,0.0-2.0-0.26-0.239-3.239,1,0,0,81,false,stim,false,2,721,0,0,1,92553,task2,875465,false,false,802,image-keyboard-response,15
true,8,1,2,1,true,z,false,true,0.0-2.0-0.26-0.240-3.240,1,0,0,90,false,stim,false,2,801,0,0,2,92553,task2,877792,false,false,805,image-keyboard-response,16
true,8,0,2,0,true,q,false,true,0.0-2.0-0.26-0.241-3.241,1,0,0,81,false,stim,false,2,1005,0,0,1,92553,task2,880325,false,false,808,image-keyboard-response,17
true,8,1,2,1,true,z,false,true,0.0-2.0-0.26-0.242-3.242,1,0,0,90,false,stim,false,2,1408,0,0,2,92553,task2,883245,false,false,811,image-keyboard-response,18
true,8,0,2,0,true,q,false,true,0.0-2.0-0.27-0.243-3.243,1,0,0,81,false,stim,false,2,608,0,0,1,92553,task2,885374,false,false,814,image-keyboard-response,19
true,8,1,2,1,true,z,false,true,0.0-2.0-0.27-0.244-3.244,1,0,0,90,false,stim,false,2,757,0,0,2,92553,task2,887651,false,false,817,image-keyboard-response,20
true,8,1,2,1,true,z,false,true,0.0-2.0-0.27-0.245-3.245,1,0,0,90,false,stim,false,1,2313,0,1,0,92553,task2,891471,false,false,820,image-keyboard-response,21
true,8,1,2,1,true,z,false,true,0.0-2.0-0.27-0.246-3.246,1,0,0,90,false,stim,false,1,398,0,1,0,92553,task2,893400,false,false,823,image-keyboard-response,22
true,8,0,2,0,true,q,false,true,0.0-2.0-0.27-0.247-3.247,1,0,0,81,false,stim,false,2,714,0,0,1,92553,task2,895641,false,false,826,image-keyboard-response,23
true,8,0,2,0,true,q,false,true,0.0-2.0-0.27-0.248-3.248,1,0,0,81,false,stim,false,2,602,0,0,1,92553,task2,897773,false,false,829,image-keyboard-response,24
true,8,1,2,1,true,z,false,true,0.0-2.0-0.27-0.249-3.249,1,0,0,90,false,stim,false,1,1052,0,1,0,92553,task2,900330,false,false,832,image-keyboard-response,25
true,8,0,2,1,false,z,true,false,0.0-2.0-0.27-0.250-3.250,1,0,0,81,false,stim,false,2,703,0,0,2,92553,task2,902558,false,false,835,image-keyboard-response,26
true,8,1,2,1,true,z,false,true,0.0-2.0-0.27-0.251-3.251,1,0,0,90,false,stim,false,2,444,0,0,2,92553,task2,904525,false,false,838,image-keyboard-response,27
true,8,0,2,0,true,q,false,true,0.0-2.0-0.28-0.252-3.252,1,0,0,81,false,stim,false,2,512,0,0,1,92553,task2,906564,false,false,841,image-keyboard-response,28
true,8,0,2,0,true,q,false,true,0.0-2.0-0.28-0.253-3.253,1,0,0,81,false,stim,false,2,786,0,0,1,92553,task2,908860,false,false,844,image-keyboard-response,29
true,8,1,2,1,true,z,false,true,0.0-2.0-0.28-0.254-3.254,1,0,0,90,false,stim,false,2,574,0,0,2,92553,task2,910953,false,false,847,image-keyboard-response,30
true,8,1,2,1,true,z,false,true,0.0-2.0-0.28-0.255-3.255,1,0,0,90,false,stim,false,2,626,0,0,2,92553,task2,913097,false,false,850,image-keyboard-response,31
true,8,1,2,0,false,q,true,false,0.0-2.0-0.28-0.256-3.256,1,0,0,90,false,stim,false,2,465,0,0,1,92553,task2,915084,false,false,853,image-keyboard-response,32
true,9,1,1,2,false,d,false,false,0.0-2.0-0.28-0.257-3.257,0,0,0,90,true,stim,true,1,539,0,0,2,92553,task2,917147,false,false,856,image-keyboard-response,1
true,9,2,1,0,false,q,true,false,0.0-2.0-0.28-0.258-3.258,0,0,0,68,false,stim,false,1,1201,0,0,0,92553,task2,919871,false,false,859,image-keyboard-response,2
true,9,1,1,0,false,q,false,false,0.0-2.0-0.28-0.259-3.259,0,0,0,90,false,stim,true,1,1280,0,0,0,92553,task2,922680,false,false,862,image-keyboard-response,3
true,9,0,1,0,true,q,false,true,0.0-2.0-0.28-0.260-3.260,0,0,0,81,false,stim,false,1,588,0,0,0,92553,task2,924785,false,false,865,image-keyboard-response,4
true,9,1,1,2,false,d,true,false,0.0-2.0-0.29-0.261-3.261,0,0,0,90,false,stim,false,0,1641,0,0,1,92553,task2,927945,false,false,868,image-keyboard-response,5
true,9,2,1,2,true,d,false,true,0.0-2.0-0.29-0.262-3.262,0,0,0,68,false,stim,false,1,1818,0,0,2,92553,task2,931292,false,false,871,image-keyboard-response,6
true,9,2,1,2,true,d,false,true,0.0-2.0-0.29-0.263-3.263,0,0,0,68,false,stim,false,1,1057,0,0,2,92553,task2,933873,false,false,874,image-keyboard-response,7
true,9,0,1,0,true,q,false,true,0.0-2.0-0.29-0.264-3.264,0,0,0,81,false,stim,false,1,1433,0,0,0,92553,task2,936825,false,false,877,image-keyboard-response,8
true,9,2,1,2,true,d,false,true,0.0-2.0-0.29-0.265-3.265,0,0,0,68,false,stim,false,1,815,0,0,2,92553,task2,939158,false,false,880,image-keyboard-response,9
true,9,2,1,2,true,d,false,true,0.0-2.0-0.29-0.266-3.266,0,0,0,68,false,stim,false,0,1342,0,0,1,92553,task2,942015,false,false,883,image-keyboard-response,10
true,9,0,1,0,true,q,false,false,0.0-2.0-0.29-0.267-3.267,0,0,0,81,false,stim,false,1,1242,0,0,0,92553,task2,944784,false,true,886,image-keyboard-response,11
true,9,1,1,0,false,q,false,false,0.0-2.0-0.29-0.268-3.268,0,0,0,90,false,stim,true,1,740,0,0,0,92553,task2,947050,false,false,889,image-keyboard-response,12
true,9,0,1,2,false,d,false,false,0.0-2.0-0.29-0.269-3.269,0,0,0,81,false,stim,true,0,1930,0,0,1,92553,task2,950493,false,false,892,image-keyboard-response,13
true,9,2,1,0,false,q,true,false,0.0-2.0-0.30-0.270-3.270,0,0,0,68,false,stim,false,1,1262,0,0,0,92553,task2,953275,false,false,895,image-keyboard-response,14
true,9,2,1,2,true,d,false,true,0.0-2.0-0.30-0.271-3.271,0,0,0,68,false,stim,false,0,812,0,0,1,92553,task2,955610,false,false,898,image-keyboard-response,15
true,9,2,1,2,true,d,false,true,0.0-2.0-0.30-0.272-3.272,0,0,0,68,false,stim,false,1,1304,0,0,2,92553,task2,958443,false,false,901,image-keyboard-response,16
true,9,2,1,0,false,q,true,false,0.0-2.0-0.30-0.273-3.273,0,0,0,68,false,stim,false,1,1237,0,0,0,92553,task2,961194,false,false,904,image-keyboard-response,17
true,9,2,1,2,true,d,false,true,0.0-2.0-0.30-0.274-3.274,0,0,0,68,false,stim,false,0,726,0,0,1,92553,task2,963444,false,false,907,image-keyboard-response,18
true,9,2,1,2,true,d,false,true,0.0-2.0-0.30-0.275-3.275,0,0,0,68,false,stim,false,0,794,0,0,1,92553,task2,965766,false,false,910,image-keyboard-response,19
true,9,2,1,2,true,d,false,true,0.0-2.0-0.30-0.276-3.276,0,0,0,68,false,stim,false,1,579,0,0,2,92553,task2,967864,false,false,913,image-keyboard-response,20
true,9,2,1,2,true,d,false,true,0.0-2.0-0.30-0.277-3.277,0,0,0,68,false,stim,false,1,430,0,0,2,92553,task2,969820,false,false,916,image-keyboard-response,21
true,9,1,1,0,false,q,false,false,0.0-2.0-0.30-0.278-3.278,0,0,0,90,false,stim,true,1,2194,0,0,0,92553,task2,973540,false,false,919,image-keyboard-response,22
true,9,2,1,2,true,d,false,true,0.0-2.0-0.31-0.279-3.279,0,0,0,68,false,stim,false,0,719,0,0,1,92553,task2,975774,false,false,922,image-keyboard-response,23
true,9,2,1,2,true,d,false,true,0.0-2.0-0.31-0.280-3.280,0,0,0,68,false,stim,false,1,1298,0,0,2,92553,task2,978602,false,false,925,image-keyboard-response,24
true,9,2,1,2,true,d,false,true,0.0-2.0-0.31-0.281-3.281,0,0,0,68,false,stim,false,1,430,0,0,2,92553,task2,980546,false,false,928,image-keyboard-response,25
true,9,2,1,2,true,d,false,false,0.0-2.0-0.31-0.282-3.282,0,0,0,68,false,stim,false,1,356,0,0,2,92553,task2,982415,false,true,931,image-keyboard-response,26
true,9,0,1,0,true,q,false,true,0.0-2.0-0.31-0.283-3.283,0,0,0,81,false,stim,false,1,1428,0,0,0,92553,task2,985365,false,false,934,image-keyboard-response,27
true,9,2,1,2,true,d,false,true,0.0-2.0-0.31-0.284-3.284,0,0,0,68,false,stim,false,0,1264,0,0,1,92553,task2,988155,false,false,937,image-keyboard-response,28
true,9,0,1,0,true,q,false,true,0.0-2.0-0.31-0.285-3.285,0,0,0,81,false,stim,false,1,1138,0,0,0,92553,task2,990816,false,false,940,image-keyboard-response,29
true,9,0,1,0,true,q,false,true,0.0-2.0-0.31-0.286-3.286,0,0,0,81,false,stim,false,1,751,0,0,0,92553,task2,993090,false,false,943,image-keyboard-response,30
true,9,2,1,2,true,d,false,true,0.0-2.0-0.31-0.287-3.287,0,0,0,68,false,stim,false,0,989,0,0,1,92553,task2,995596,false,false,946,image-keyboard-response,31
true,9,1,1,2,false,d,false,false,0.0-2.0-0.32-0.288-3.288,0,0,0,90,false,stim,true,1,769,0,0,2,92553,task2,997881,false,false,949,image-keyboard-response,32
true,9,2,1,2,true,d,false,true,0.0-2.0-0.32-0.289-3.289,0,0,0,68,false,stim,false,0,679,0,0,1,92553,task2,1000075,false,false,952,image-keyboard-response,33
true,9,0,1,2,false,d,true,false,0.0-2.0-0.32-0.290-3.290,0,0,0,81,false,stim,false,1,952,0,0,2,92553,task2,1002544,false,false,955,image-keyboard-response,34
true,9,2,1,2,true,d,false,true,0.0-2.0-0.32-0.291-3.291,0,0,0,68,false,stim,false,0,943,0,0,1,92553,task2,1005002,false,false,958,image-keyboard-response,35
true,9,0,1,0,true,q,false,false,0.0-2.0-0.32-0.292-3.292,0,0,0,81,false,stim,false,1,1305,0,0,0,92553,task2,1007828,false,true,961,image-keyboard-response,36
true,10,1,1,1,true,z,false,true,0.0-2.0-0.32-0.293-3.293,0,0,0,90,true,stim,false,0,1377,0,0,0,92553,task2,1010720,false,false,964,image-keyboard-response,1
true,10,1,1,1,true,z,false,true,0.0-2.0-0.32-0.294-3.294,0,0,0,90,false,stim,false,0,876,0,0,0,92553,task2,1013116,false,false,967,image-keyboard-response,2
true,10,2,1,0,false,q,false,false,0.0-2.0-0.32-0.295-3.295,0,0,0,68,false,stim,true,2,993,0,0,2,92553,task2,1015625,false,false,970,image-keyboard-response,3
true,10,2,1,0,false,q,false,false,0.0-2.0-0.32-0.296-3.296,0,0,0,68,false,stim,true,2,1165,0,0,1,92553,task2,1018306,false,false,973,image-keyboard-response,4
true,10,1,1,1,true,z,false,true,0.0-2.0-0.33-0.297-3.297,0,0,0,90,false,stim,false,0,2082,0,0,0,92553,task2,1021900,false,false,976,image-keyboard-response,5
true,10,0,1,0,true,q,false,true,0.0-2.0-0.33-0.298-3.298,0,0,0,81,false,stim,false,2,931,0,0,1,92553,task2,1024347,false,false,979,image-keyboard-response,6
true,10,0,1,0,true,q,false,false,0.0-2.0-0.33-0.299-3.299,0,0,0,81,false,stim,false,2,1092,0,0,2,92553,task2,1026957,false,true,982,image-keyboard-response,7
true,10,1,1,0,false,q,true,false,0.0-2.0-0.33-0.300-3.300,0,0,0,90,false,stim,false,2,1345,0,0,2,92553,task2,1029815,false,false,985,image-keyboard-response,8
true,10,1,1,0,false,q,true,false,0.0-2.0-0.33-0.301-3.301,0,0,0,90,false,stim,false,2,1663,0,0,1,92553,task2,1033001,false,false,988,image-keyboard-response,9
true,10,1,1,1,true,z,false,false,0.0-2.0-0.33-0.302-3.302,0,0,0,90,false,stim,false,0,864,0,0,0,92553,task2,1035383,false,true,991,image-keyboard-response,10
true,10,2,1,0,false,q,false,false,0.0-2.0-0.33-0.303-3.303,0,0,0,68,false,stim,true,2,1590,0,0,2,92553,task2,1038502,false,false,994,image-keyboard-response,11
true,10,0,1,1,false,z,false,false,0.0-2.0-0.33-0.304-3.304,0,0,0,81,false,stim,true,0,1079,0,0,0,92553,task2,1041112,false,false,997,image-keyboard-response,12
true,10,0,1,0,true,q,false,true,0.0-2.0-0.33-0.305-3.305,0,0,0,81,false,stim,false,2,1747,0,0,1,92553,task2,1044389,false,false,1000,image-keyboard-response,13
true,10,1,1,1,true,z,false,true,0.0-2.0-0.34-0.306-3.306,0,0,0,90,false,stim,false,0,1335,0,0,0,92553,task2,1047256,false,false,1003,image-keyboard-response,14
true,10,1,1,1,true,z,false,true,0.0-2.0-0.34-0.307-3.307,0,0,0,90,false,stim,false,0,814,0,0,0,92553,task2,1049594,false,false,1006,image-keyboard-response,15
true,10,0,1,0,true,q,false,true,0.0-2.0-0.34-0.308-3.308,0,0,0,81,false,stim,false,2,685,0,0,1,92553,task2,1051790,false,false,1009,image-keyboard-response,16
true,10,2,1,0,false,q,false,true,0.0-2.0-0.34-0.309-3.309,0,0,0,68,false,stim,true,2,1035,0,0,2,92553,task2,1054345,false,true,1012,image-keyboard-response,17
true,10,0,1,0,true,q,false,true,0.0-2.0-0.34-0.310-3.310,0,0,0,81,false,stim,false,2,1336,0,0,1,92553,task2,1057205,false,false,1015,image-keyboard-response,18
true,10,0,1,0,true,q,false,true,0.0-2.0-0.34-0.311-3.311,0,0,0,81,false,stim,false,2,839,0,0,1,92553,task2,1059563,false,false,1018,image-keyboard-response,19
true,10,2,1,0,false,q,false,false,0.0-2.0-0.34-0.312-3.312,0,0,0,68,false,stim,true,2,1271,0,0,2,92553,task2,1062362,false,false,1021,image-keyboard-response,20
true,10,1,1,0,false,q,true,false,0.0-2.0-0.34-0.313-3.313,0,0,0,90,false,stim,false,2,831,0,0,2,92553,task2,1064721,false,false,1024,image-keyboard-response,21
true,10,1,1,1,true,z,false,true,0.0-2.0-0.34-0.314-3.314,0,0,0,90,false,stim,false,0,1171,0,0,0,92553,task2,1067420,false,false,1027,image-keyboard-response,22
true,10,0,1,0,true,q,false,true,0.0-2.0-0.35-0.315-3.315,0,0,0,81,false,stim,false,2,994,0,0,1,92553,task2,1069940,false,false,1030,image-keyboard-response,23
true,10,1,1,1,true,z,false,true,0.0-2.0-0.35-0.316-3.316,0,0,0,90,false,stim,false,0,829,0,0,0,92553,task2,1072285,false,false,1033,image-keyboard-response,24
true,10,0,1,0,true,q,false,true,0.0-2.0-0.35-0.317-3.317,0,0,0,81,false,stim,false,2,687,0,0,1,92553,task2,1074487,false,false,1036,image-keyboard-response,25
true,10,0,1,0,true,q,false,true,0.0-2.0-0.35-0.318-3.318,0,0,0,81,false,stim,false,2,2239,0,0,2,92553,task2,1078252,false,false,1039,image-keyboard-response,26
true,10,0,1,0,true,q,false,true,0.0-2.0-0.35-0.319-3.319,0,0,0,81,false,stim,false,2,583,0,0,2,92553,task2,1080354,false,false,1042,image-keyboard-response,27
true,10,1,1,1,true,z,false,true,0.0-2.0-0.35-0.320-3.320,0,0,0,90,false,stim,false,0,497,0,0,0,92553,task2,1082380,false,false,1045,image-keyboard-response,28
true,10,0,1,0,true,q,false,true,0.0-2.0-0.35-0.321-3.321,0,0,0,81,false,stim,false,2,766,0,0,2,92553,task2,1084670,false,false,1048,image-keyboard-response,29
true,10,1,1,1,true,z,false,false,0.0-2.0-0.35-0.322-3.322,0,0,0,90,false,stim,false,0,1650,0,0,0,92553,task2,1087833,false,true,1051,image-keyboard-response,30
true,10,1,1,0,false,q,true,true,0.0-2.0-0.35-0.323-3.323,0,0,0,90,false,stim,false,2,1901,0,0,1,92553,task2,1091268,false,true,1054,image-keyboard-response,31
true,10,1,1,0,false,q,true,false,0.0-2.0-0.36-0.324-3.324,0,0,0,90,false,stim,false,2,1044,0,0,1,92553,task2,1093841,false,false,1057,image-keyboard-response,32
true,10,1,1,0,false,q,true,false,0.0-2.0-0.36-0.325-3.325,0,0,0,90,false,stim,false,2,803,0,0,1,92553,task2,1096174,false,false,1060,image-keyboard-response,33
true,10,0,1,1,false,z,false,false,0.0-2.0-0.36-0.326-3.326,0,0,0,81,false,stim,true,0,2617,0,0,0,92553,task2,1100297,false,false,1063,image-keyboard-response,34
true,11,0,1,1,false,z,false,false,0.0-2.0-0.36-0.327-3.327,0,0,0,81,true,stim,true,0,1273,0,0,2,92553,task2,1103079,false,false,1066,image-keyboard-response,1
true,11,2,1,2,true,d,false,false,0.0-2.0-0.36-0.328-3.328,0,0,0,68,false,stim,false,0,1182,0,0,1,92553,task2,1105774,false,true,1069,image-keyboard-response,2
true,11,2,1,1,false,z,true,false,0.0-2.0-0.36-0.329-3.329,0,0,0,68,false,stim,false,0,973,0,0,2,92553,task2,1108277,false,false,1072,image-keyboard-response,3
true,11,2,1,0,false,q,true,false,0.0-2.0-0.36-0.330-3.330,0,0,0,68,false,stim,false,1,1243,0,0,0,92553,task2,1111033,false,false,1075,image-keyboard-response,4
true,11,1,1,1,true,z,false,true,0.0-2.0-0.36-0.331-3.331,0,0,0,90,false,stim,false,0,1346,0,0,2,92553,task2,1113897,false,false,1078,image-keyboard-response,5
true,11,1,1,0,false,q,false,false,0.0-2.0-0.36-0.332-3.332,0,0,0,90,false,stim,true,1,1441,0,0,0,92553,task2,1116868,false,false,1081,image-keyboard-response,6
true,11,1,1,1,true,z,false,true,0.0-2.0-0.37-0.333-3.333,0,0,0,90,false,stim,false,0,1170,0,0,2,92553,task2,1119566,false,false,1084,image-keyboard-response,7
true,11,0,1,0,true,q,false,true,0.0-2.0-0.37-0.334-3.334,0,0,0,81,false,stim,false,1,599,0,0,0,92553,task2,1121693,false,false,1087,image-keyboard-response,8
true,11,2,1,2,true,d,false,true,0.0-2.0-0.37-0.335-3.335,0,0,0,68,false,stim,false,0,2062,0,0,1,92553,task2,1125292,false,false,1090,image-keyboard-response,9
true,11,0,1,0,true,q,false,true,0.0-2.0-0.37-0.336-3.336,0,0,0,81,false,stim,false,1,2191,0,0,0,92553,task2,1129002,false,false,1093,image-keyboard-response,10
true,11,1,1,1,true,z,false,true,0.0-2.0-0.37-0.337-3.337,0,0,0,90,false,stim,false,0,872,0,0,2,92553,task2,1131408,false,false,1096,image-keyboard-response,11
true,11,2,1,2,true,d,false,true,0.0-2.0-0.37-0.338-3.338,0,0,0,68,false,stim,false,0,1863,0,0,1,92553,task2,1134787,false,false,1099,image-keyboard-response,12
true,11,1,1,1,true,z,false,true,0.0-2.0-0.37-0.339-3.339,0,0,0,90,false,stim,false,0,1516,0,0,2,92553,task2,1137822,false,false,1102,image-keyboard-response,13
true,11,0,1,0,true,q,false,true,0.0-2.0-0.37-0.340-3.340,0,0,0,81,false,stim,false,1,1046,0,0,0,92553,task2,1140393,false,false,1105,image-keyboard-response,14
true,11,2,1,2,true,d,false,true,0.0-2.0-0.37-0.341-3.341,0,0,0,68,false,stim,false,0,809,0,0,1,92553,task2,1142715,false,false,1108,image-keyboard-response,15
true,11,0,1,0,true,q,false,true,0.0-2.0-0.38-0.342-3.342,0,0,0,81,false,stim,false,1,801,0,0,0,92553,task2,1145044,false,false,1111,image-keyboard-response,16
true,11,1,1,1,true,z,false,true,0.0-2.0-0.38-0.343-3.343,0,0,0,90,false,stim,false,0,554,0,0,2,92553,task2,1147124,false,false,1114,image-keyboard-response,17
true,11,0,1,0,true,q,false,true,0.0-2.0-0.38-0.344-3.344,0,0,0,81,false,stim,false,1,881,0,0,0,92553,task2,1149528,false,false,1117,image-keyboard-response,18
true,11,1,1,1,true,z,false,true,0.0-2.0-0.38-0.345-3.345,0,0,0,90,false,stim,false,0,907,0,0,2,92553,task2,1151954,false,false,1120,image-keyboard-response,19
true,11,1,1,1,true,z,false,true,0.0-2.0-0.38-0.346-3.346,0,0,0,90,false,stim,false,0,894,0,0,2,92553,task2,1154363,false,false,1123,image-keyboard-response,20
true,11,2,1,2,true,d,false,true,0.0-2.0-0.38-0.347-3.347,0,0,0,68,false,stim,false,0,765,0,0,1,92553,task2,1156645,false,false,1126,image-keyboard-response,21
true,11,2,1,2,true,d,false,true,0.0-2.0-0.38-0.348-3.348,0,0,0,68,false,stim,false,0,676,0,0,1,92553,task2,1158833,false,false,1129,image-keyboard-response,22
true,11,2,1,2,true,d,false,true,0.0-2.0-0.38-0.349-3.349,0,0,0,68,false,stim,false,0,538,0,0,1,92553,task2,1160894,false,false,1132,image-keyboard-response,23
true,11,0,1,0,true,q,false,true,0.0-2.0-0.38-0.350-3.350,0,0,0,81,false,stim,false,1,1085,0,0,0,92553,task2,1163502,false,false,1135,image-keyboard-response,24
true,11,0,1,0,true,q,false,true,0.0-2.0-0.39-0.351-3.351,0,0,0,81,false,stim,false,1,753,0,0,0,92553,task2,1165784,false,false,1138,image-keyboard-response,25
true,11,2,1,2,true,d,false,true,0.0-2.0-0.39-0.352-3.352,0,0,0,68,false,stim,false,0,949,0,0,1,92553,task2,1168254,false,false,1141,image-keyboard-response,26
true,11,1,1,1,true,z,false,true,0.0-2.0-0.39-0.353-3.353,0,0,0,90,false,stim,false,0,983,0,0,2,92553,task2,1170763,false,false,1144,image-keyboard-response,27
true,11,1,1,1,true,z,false,false,0.0-2.0-0.39-0.354-3.354,0,0,0,90,false,stim,false,0,977,0,0,2,92553,task2,1173267,false,true,1147,image-keyboard-response,28
true,11,2,1,2,true,d,false,true,0.0-2.0-0.39-0.355-3.355,0,0,0,68,false,stim,false,0,1071,0,0,1,92553,task2,1175855,false,false,1150,image-keyboard-response,29
true,11,2,1,1,false,z,true,false,0.0-2.0-0.39-0.356-3.356,0,0,0,68,false,stim,false,0,699,0,0,2,92553,task2,1178074,false,false,1153,image-keyboard-response,30
true,11,0,1,0,true,q,false,true,0.0-2.0-0.39-0.357-3.357,0,0,0,81,false,stim,false,1,989,0,0,0,92553,task2,1180588,false,false,1156,image-keyboard-response,31
true,11,2,1,2,true,d,false,true,0.0-2.0-0.39-0.358-3.358,0,0,0,68,false,stim,false,0,731,0,0,1,92553,task2,1182833,false,false,1159,image-keyboard-response,32
true,11,0,1,0,true,q,false,true,0.0-2.0-0.39-0.359-3.359,0,0,0,81,false,stim,false,1,745,0,0,0,92553,task2,1185101,false,false,1162,image-keyboard-response,33
true,11,0,1,1,false,z,false,false,0.0-2.0-0.40-0.360-3.360,0,0,0,81,false,stim,true,0,558,0,0,2,92553,task2,1187184,false,false,1165,image-keyboard-response,34
true,11,2,1,2,true,d,false,true,0.0-2.0-0.40-0.361-3.361,0,0,0,68,false,stim,false,0,1223,0,1,1,92553,task2,1189928,false,false,1168,image-keyboard-response,35
true,11,0,1,0,true,q,false,false,0.0-2.0-0.40-0.362-3.362,0,0,0,81,false,stim,false,1,652,0,0,0,92553,task2,1192092,false,true,1171,image-keyboard-response,36
true,11,2,1,2,true,d,false,true,0.0-2.0-0.40-0.363-3.363,0,0,0,68,false,stim,false,0,962,0,1,1,92553,task2,1194576,false,false,1174,image-keyboard-response,37
true,11,1,1,0,false,q,false,true,0.0-2.0-0.40-0.364-3.364,0,0,0,90,false,stim,true,1,853,0,0,0,92553,task2,1196954,false,true,1177,image-keyboard-response,38
true,12,0,2,0,true,q,false,true,0.0-2.0-0.40-0.365-3.365,0,1,0,81,true,stim,false,1,1134,0,0,2,92553,task2,1199609,false,false,1180,image-keyboard-response,1
true,12,2,2,2,true,d,false,true,0.0-2.0-0.40-0.366-3.366,0,1,0,68,false,stim,false,2,410,0,1,1,92553,task2,1201545,false,false,1183,image-keyboard-response,2
true,12,1,2,1,true,z,false,false,0.0-2.0-0.40-0.367-3.367,0,1,0,90,false,stim,false,0,1731,0,0,0,92553,task2,1204796,false,true,1186,image-keyboard-response,3
true,12,2,2,0,false,q,true,false,0.0-2.0-0.40-0.368-3.368,0,1,0,68,false,stim,false,1,1161,0,0,2,92553,task2,1207487,false,false,1189,image-keyboard-response,4
true,12,0,2,1,false,z,false,false,0.0-2.0-0.41-0.369-3.369,0,1,0,81,false,stim,true,0,2699,0,0,0,92553,task2,1211713,false,false,1192,image-keyboard-response,5
true,12,2,2,1,false,z,true,false,0.0-2.0-0.41-0.370-3.370,0,1,0,68,false,stim,false,0,539,0,0,0,92553,task2,1213784,false,false,1195,image-keyboard-response,6
true,12,0,2,0,true,q,false,true,0.0-2.0-0.41-0.371-3.371,0,1,0,81,false,stim,false,1,2621,0,0,2,92553,task2,1217917,false,false,1198,image-keyboard-response,7
true,12,0,2,0,true,q,false,true,0.0-2.0-0.41-0.372-3.372,0,1,0,81,false,stim,false,1,880,0,0,2,92553,task2,1220338,false,false,1201,image-keyboard-response,8
true,12,1,2,2,false,d,true,true,0.0-2.0-0.41-0.373-3.373,0,1,0,90,false,stim,false,2,1481,0,1,1,92553,task2,1223344,false,true,1204,image-keyboard-response,9
true,12,1,2,2,false,d,true,false,0.0-2.0-0.41-0.374-3.374,0,1,0,90,false,stim,false,2,964,0,1,1,92553,task2,1225834,false,false,1207,image-keyboard-response,10
true,12,2,2,2,true,d,false,true,0.0-2.0-0.41-0.375-3.375,0,1,0,68,false,stim,false,2,833,0,1,1,92553,task2,1228204,false,false,1210,image-keyboard-response,11
true,12,1,2,1,true,z,false,false,0.0-2.0-0.41-0.376-3.376,0,1,0,90,false,stim,false,0,1234,0,0,0,92553,task2,1230958,false,true,1213,image-keyboard-response,12
true,12,0,2,0,true,q,false,true,0.0-2.0-0.41-0.377-3.377,0,1,0,81,false,stim,false,1,472,0,0,2,92553,task2,1232948,false,false,1216,image-keyboard-response,13
true,12,2,2,1,false,z,true,false,0.0-2.0-0.42-0.378-3.378,0,1,0,68,false,stim,false,0,1194,0,0,0,92553,task2,1235668,false,false,1219,image-keyboard-response,14
true,12,0,2,0,true,q,false,true,0.0-2.0-0.42-0.379-3.379,0,1,0,81,false,stim,false,1,1230,0,0,2,92553,task2,1238420,false,false,1222,image-keyboard-response,15
true,12,2,2,2,true,d,false,true,0.0-2.0-0.42-0.380-3.380,0,1,0,68,false,stim,false,2,800,0,1,1,92553,task2,1240731,false,false,1225,image-keyboard-response,16
true,12,2,2,2,true,d,false,true,0.0-2.0-0.42-0.381-3.381,0,1,0,68,false,stim,false,2,964,0,1,1,92553,task2,1243225,false,false,1228,image-keyboard-response,17
true,12,0,2,1,false,z,false,false,0.0-2.0-0.42-0.382-3.382,0,1,0,81,false,stim,true,0,2153,0,0,0,92553,task2,1246906,false,false,1231,image-keyboard-response,18
true,12,0,2,0,true,q,false,true,0.0-2.0-0.42-0.383-3.383,0,1,0,81,false,stim,false,1,776,0,0,2,92553,task2,1249210,false,false,1234,image-keyboard-response,19
true,12,1,2,1,true,z,false,true,0.0-2.0-0.42-0.384-3.384,0,1,0,90,false,stim,false,0,759,0,0,0,92553,task2,1251492,false,false,1237,image-keyboard-response,20
true,12,2,2,2,true,d,false,true,0.0-2.0-0.42-0.385-3.385,0,1,0,68,false,stim,false,2,833,0,1,1,92553,task2,1253854,false,false,1240,image-keyboard-response,21
true,12,0,2,0,true,q,false,true,0.0-2.0-0.42-0.386-3.386,0,1,0,81,false,stim,false,1,401,0,0,2,92553,task2,1255791,false,false,1243,image-keyboard-response,22
true,12,1,2,1,true,z,false,true,0.0-2.0-0.43-0.387-3.387,0,1,0,90,false,stim,false,0,540,0,0,0,92553,task2,1257864,false,false,1246,image-keyboard-response,23
true,12,2,2,2,true,d,false,true,0.0-2.0-0.43-0.388-3.388,0,1,0,68,false,stim,false,2,1043,0,1,1,92553,task2,1260426,false,false,1249,image-keyboard-response,24
true,12,1,2,1,true,z,false,true,0.0-2.0-0.43-0.389-3.389,0,1,0,90,false,stim,false,0,1786,0,0,0,92553,task2,1263737,false,false,1252,image-keyboard-response,25
true,12,0,2,0,true,q,false,true,0.0-2.0-0.43-0.390-3.390,0,1,0,81,false,stim,false,1,666,0,0,2,92553,task2,1265926,false,false,1255,image-keyboard-response,26
true,12,0,2,0,true,q,false,true,0.0-2.0-0.43-0.391-3.391,0,1,0,81,false,stim,false,1,768,0,0,2,92553,task2,1268223,false,false,1258,image-keyboard-response,27
true,12,1,2,1,true,z,false,true,0.0-2.0-0.43-0.392-3.392,0,1,0,90,false,stim,false,0,686,0,0,0,92553,task2,1270426,false,false,1261,image-keyboard-response,28
true,12,2,2,2,true,d,false,false,0.0-2.0-0.43-0.393-3.393,0,1,0,68,false,stim,false,2,951,0,1,1,92553,task2,1272895,false,true,1264,image-keyboard-response,29
true,12,0,2,0,true,q,false,true,0.0-2.0-0.43-0.394-3.394,0,1,0,81,false,stim,false,1,1363,0,0,2,92553,task2,1275783,false,false,1267,image-keyboard-response,30
true,12,1,2,2,false,d,true,false,0.0-2.0-0.43-0.395-3.395,0,1,0,90,false,stim,false,2,802,0,0,1,92553,task2,1278113,false,false,1270,image-keyboard-response,31
true,12,0,2,0,true,q,false,true,0.0-2.0-0.44-0.396-3.396,0,1,0,81,false,stim,false,1,812,0,0,2,92553,task2,1280446,false,false,1273,image-keyboard-response,32
true,12,1,2,1,true,z,false,true,0.0-2.0-0.44-0.397-3.397,0,1,0,90,false,stim,false,0,1665,0,0,0,92553,task2,1283630,false,false,1276,image-keyboard-response,33
true,12,0,2,2,false,d,true,false,0.0-2.0-0.44-0.398-3.398,0,1,0,81,false,stim,false,2,752,0,0,1,92553,task2,1285916,false,false,1279,image-keyboard-response,34
true,13,2,1,1,false,z,false,false,0.0-2.0-0.44-0.399-3.399,0,0,0,68,true,stim,true,2,881,0,0,1,92553,task2,1288332,false,false,1282,image-keyboard-response,1
true,13,1,1,1,true,z,false,true,0.0-2.0-0.44-0.400-3.400,0,0,0,90,false,stim,false,2,500,0,0,1,92553,task2,1290356,false,false,1285,image-keyboard-response,2
true,13,0,1,2,false,d,false,false,0.0-2.0-0.44-0.401-3.401,0,0,0,81,false,stim,true,0,1219,0,0,2,92553,task2,1293101,false,false,1288,image-keyboard-response,3
true,13,2,1,2,true,d,false,true,0.0-2.0-0.44-0.402-3.402,0,0,0,68,false,stim,false,0,714,0,0,2,92553,task2,1295334,false,false,1291,image-keyboard-response,4
true,13,1,1,0,false,q,false,true,0.0-2.0-0.44-0.403-3.403,0,0,0,90,false,stim,true,1,1493,0,0,0,92553,task2,1298354,false,true,1294,image-keyboard-response,5
true,13,1,1,0,false,q,false,false,0.0-2.0-0.44-0.404-3.404,0,0,0,90,false,stim,true,1,751,0,0,0,92553,task2,1300621,false,false,1297,image-keyboard-response,6
true,13,2,1,2,true,d,false,true,0.0-2.0-0.45-0.405-3.405,0,0,0,68,false,stim,false,0,1175,0,0,2,92553,task2,1303314,false,false,1300,image-keyboard-response,7
true,13,1,1,1,true,z,false,true,0.0-2.0-0.45-0.406-3.406,0,0,0,90,false,stim,false,2,1123,0,0,1,92553,task2,1305963,false,false,1303,image-keyboard-response,8
true,13,0,1,0,true,q,false,true,0.0-2.0-0.45-0.407-3.407,0,0,0,81,false,stim,false,1,850,0,0,0,92553,task2,1308333,false,false,1306,image-keyboard-response,9
true,13,1,1,1,true,z,false,true,0.0-2.0-0.45-0.408-3.408,0,0,0,90,false,stim,false,2,1110,0,0,1,92553,task2,1310963,false,false,1309,image-keyboard-response,10
true,13,0,1,0,true,q,false,true,0.0-2.0-0.45-0.409-3.409,0,0,0,81,false,stim,false,1,592,0,0,0,92553,task2,1313081,false,false,1312,image-keyboard-response,11
true,13,2,1,2,true,d,false,true,0.0-2.0-0.45-0.410-3.410,0,0,0,68,false,stim,false,0,800,0,0,2,92553,task2,1315402,false,false,1315,image-keyboard-response,12
true,13,0,1,0,true,q,false,true,0.0-2.0-0.45-0.411-3.411,0,0,0,81,false,stim,false,1,1071,0,0,0,92553,task2,1317992,false,false,1318,image-keyboard-response,13
true,13,2,1,2,true,d,false,true,0.0-2.0-0.45-0.412-3.412,0,0,0,68,false,stim,false,0,669,0,0,2,92553,task2,1320184,false,false,1321,image-keyboard-response,14
true,13,1,1,1,true,z,false,false,0.0-2.0-0.45-0.413-3.413,0,0,0,90,false,stim,false,2,778,0,0,1,92553,task2,1322481,false,true,1324,image-keyboard-response,15
true,13,2,1,2,true,d,false,true,0.0-2.0-0.46-0.414-3.414,0,0,0,68,false,stim,false,0,892,0,0,2,92553,task2,1324893,false,false,1327,image-keyboard-response,16
true,13,2,1,2,true,d,false,true,0.0-2.0-0.46-0.415-3.415,0,0,0,68,false,stim,false,0,583,0,0,2,92553,task2,1327007,false,false,1330,image-keyboard-response,17
true,13,1,1,0,false,q,false,true,0.0-2.0-0.46-0.416-3.416,0,0,0,90,false,stim,true,1,2174,0,0,0,92553,task2,1330711,false,true,1333,image-keyboard-response,18
true,13,0,1,1,false,z,true,false,0.0-2.0-0.46-0.417-3.417,0,0,0,81,false,stim,false,2,2032,0,0,1,92553,task2,1334265,false,false,1336,image-keyboard-response,19
true,13,2,1,2,true,d,false,true,0.0-2.0-0.46-0.418-3.418,0,0,0,68,false,stim,false,0,627,0,0,2,92553,task2,1336407,false,false,1339,image-keyboard-response,20
true,13,1,1,1,true,z,false,true,0.0-2.0-0.46-0.419-3.419,0,0,0,90,false,stim,false,2,1163,0,0,1,92553,task2,1339102,false,false,1342,image-keyboard-response,21
true,13,1,1,0,false,q,false,false,0.0-2.0-0.46-0.420-3.420,0,0,0,90,false,stim,true,1,509,0,0,0,92553,task2,1341119,false,false,1345,image-keyboard-response,22
true,13,1,1,1,true,z,false,true,0.0-2.0-0.46-0.421-3.421,0,0,0,90,false,stim,false,2,773,0,0,1,92553,task2,1343409,false,false,1348,image-keyboard-response,23
true,13,0,1,0,true,q,false,true,0.0-2.0-0.46-0.422-3.422,0,0,0,81,false,stim,false,1,548,0,0,0,92553,task2,1345490,false,false,1351,image-keyboard-response,24
true,13,0,1,0,true,q,false,true,0.0-2.0-0.47-0.423-3.423,0,0,0,81,false,stim,false,1,1087,0,0,0,92553,task2,1348100,false,false,1354,image-keyboard-response,25
true,13,2,1,2,true,d,false,true,0.0-2.0-0.47-0.424-3.424,0,0,0,68,false,stim,false,0,829,0,0,2,92553,task2,1350470,false,false,1357,image-keyboard-response,26
true,13,1,1,1,true,z,false,true,0.0-2.0-0.47-0.425-3.425,0,0,0,90,false,stim,false,2,595,0,0,1,92553,task2,1352587,false,false,1360,image-keyboard-response,27
true,13,2,1,2,true,d,false,true,0.0-2.0-0.47-0.426-3.426,0,0,0,68,false,stim,false,0,851,0,0,2,92553,task2,1354962,false,false,1363,image-keyboard-response,28
true,13,1,1,1,true,z,false,true,0.0-2.0-0.47-0.427-3.427,0,0,0,90,false,stim,false,2,893,0,0,1,92553,task2,1357379,false,false,1366,image-keyboard-response,29
true,13,0,1,0,true,q,false,false,0.0-2.0-0.47-0.428-3.428,0,0,0,81,false,stim,false,1,876,0,0,0,92553,task2,1359773,false,true,1369,image-keyboard-response,30
true,13,2,1,2,true,d,false,true,0.0-2.0-0.47-0.429-3.429,0,0,0,68,false,stim,false,0,493,0,0,2,92553,task2,1361788,false,false,1372,image-keyboard-response,31
true,13,1,1,0,false,q,false,false,0.0-2.0-0.47-0.430-3.430,0,0,0,90,false,stim,true,1,754,0,0,0,92553,task2,1364062,false,false,1375,image-keyboard-response,32
true,13,1,1,1,true,z,false,true,0.0-2.0-0.47-0.431-3.431,0,0,0,90,false,stim,false,2,662,0,0,1,92553,task2,1366253,false,false,1378,image-keyboard-response,33
true,13,2,1,2,true,d,false,true,0.0-2.0-0.48-0.432-3.432,0,0,0,68,false,stim,false,0,632,0,0,2,92553,task2,1368422,false,false,1381,image-keyboard-response,34
true,13,2,1,0,false,q,true,false,0.0-2.0-0.48-0.433-3.433,0,0,0,68,false,stim,false,1,553,0,0,0,92553,task2,1370490,false,false,1384,image-keyboard-response,35
true,13,0,1,0,true,q,false,true,0.0-2.0-0.48-0.434-3.434,0,0,0,81,false,stim,false,1,680,0,0,0,92553,task2,1372701,false,false,1387,image-keyboard-response,36
true,14,0,1,1,false,z,false,false,0.0-2.0-0.48-0.435-3.435,0,0,0,81,true,stim,true,0,614,0,0,0,92553,task2,1374848,false,false,1390,image-keyboard-response,1
true,14,1,1,2,false,d,false,false,0.0-2.0-0.48-0.436-3.436,0,0,0,90,false,stim,true,1,1449,0,0,1,92553,task2,1377820,false,false,1393,image-keyboard-response,2
true,14,2,1,1,false,z,false,false,0.0-2.0-0.48-0.437-3.437,0,0,0,68,false,stim,true,2,970,0,0,2,92553,task2,1380320,false,false,1396,image-keyboard-response,3
true,14,2,1,2,true,d,false,true,0.0-2.0-0.48-0.438-3.438,0,0,0,68,false,stim,false,1,1950,0,0,1,92553,task2,1383791,false,false,1399,image-keyboard-response,4
true,14,2,1,2,true,d,false,true,0.0-2.0-0.48-0.439-3.439,0,0,0,68,false,stim,false,1,744,0,0,1,92553,task2,1386055,false,false,1402,image-keyboard-response,5
true,14,1,1,1,true,z,false,true,0.0-2.0-0.48-0.440-3.440,0,0,0,90,false,stim,false,2,728,0,0,2,92553,task2,1388301,false,false,1405,image-keyboard-response,6
true,14,0,1,1,false,z,false,false,0.0-2.0-0.49-0.441-3.441,0,0,0,81,false,stim,true,0,595,0,0,0,92553,task2,1390418,false,false,1408,image-keyboard-response,7
true,14,1,1,1,true,z,false,true,0.0-2.0-0.49-0.442-3.442,0,0,0,90,false,stim,false,0,721,0,0,0,92553,task2,1392671,false,false,1411,image-keyboard-response,8
true,14,1,1,1,true,z,false,false,0.0-2.0-0.49-0.443-3.443,0,0,0,90,false,stim,false,2,824,0,0,2,92553,task2,1395023,false,true,1414,image-keyboard-response,9
true,14,1,1,2,false,d,false,false,0.0-2.0-0.49-0.444-3.444,0,0,0,90,false,stim,true,1,1130,0,0,1,92553,task2,1397673,false,false,1417,image-keyboard-response,10
true,14,2,1,2,true,d,false,true,0.0-2.0-0.49-0.445-3.445,0,0,0,68,false,stim,false,1,517,0,0,1,92553,task2,1399710,false,false,1420,image-keyboard-response,11
true,14,0,1,1,false,z,true,false,0.0-2.0-0.49-0.446-3.446,0,0,0,81,false,stim,false,2,686,0,0,2,92553,task2,1401926,false,false,1423,image-keyboard-response,12
true,14,2,1,2,true,d,false,true,0.0-2.0-0.49-0.447-3.447,0,0,0,68,false,stim,false,1,928,0,0,1,92553,task2,1404374,false,false,1426,image-keyboard-response,13
true,14,1,1,1,true,z,false,true,0.0-2.0-0.49-0.448-3.448,0,0,0,90,false,stim,false,0,1473,0,0,0,92553,task2,1407364,false,false,1429,image-keyboard-response,14
true,14,1,1,1,true,z,false,true,0.0-2.0-0.49-0.449-3.449,0,0,0,90,false,stim,false,2,774,0,0,2,92553,task2,1409655,false,false,1432,image-keyboard-response,15
true,14,1,1,1,true,z,false,true,0.0-2.0-0.50-0.450-3.450,0,0,0,90,false,stim,false,0,849,0,0,0,92553,task2,1412033,false,false,1435,image-keyboard-response,16
true,14,2,1,2,true,d,false,true,0.0-2.0-0.50-0.451-3.451,0,0,0,68,false,stim,false,1,365,0,0,1,92553,task2,1413929,false,false,1438,image-keyboard-response,17
true,14,1,1,1,true,z,false,true,0.0-2.0-0.50-0.452-3.452,0,0,0,90,false,stim,false,2,761,0,0,2,92553,task2,1416211,false,false,1441,image-keyboard-response,18
true,14,2,1,2,true,d,false,true,0.0-2.0-0.50-0.453-3.453,0,0,0,68,false,stim,false,1,1943,0,0,1,92553,task2,1419687,false,false,1444,image-keyboard-response,19
true,14,2,1,2,true,d,false,true,0.0-2.0-0.50-0.454-3.454,0,0,0,68,false,stim,false,1,657,0,0,1,92553,task2,1421875,false,false,1447,image-keyboard-response,20
true,14,1,1,1,true,z,false,true,0.0-2.0-0.50-0.455-3.455,0,0,0,90,false,stim,false,0,1036,0,0,0,92553,task2,1424437,false,false,1450,image-keyboard-response,21
true,14,1,1,1,true,z,false,true,0.0-2.0-0.50-0.456-3.456,0,0,0,90,false,stim,false,2,1748,0,0,2,92553,task2,1427709,false,false,1453,image-keyboard-response,22
true,14,1,1,1,true,z,false,true,0.0-2.0-0.50-0.457-3.457,0,0,0,90,false,stim,false,0,1439,0,0,0,92553,task2,1430670,false,false,1456,image-keyboard-response,23
true,14,1,1,1,true,z,false,true,0.0-2.0-0.50-0.458-3.458,0,0,0,90,false,stim,false,2,1064,0,0,2,92553,task2,1433255,false,false,1459,image-keyboard-response,24
true,14,1,1,1,true,z,false,true,0.0-2.0-0.51-0.459-3.459,0,0,0,90,false,stim,false,0,703,0,0,0,92553,task2,1435483,false,false,1462,image-keyboard-response,25
true,14,2,1,2,true,d,false,true,0.0-2.0-0.51-0.460-3.460,0,0,0,68,false,stim,false,1,773,0,0,1,92553,task2,1437777,false,false,1465,image-keyboard-response,26
true,14,2,1,2,true,d,false,true,0.0-2.0-0.51-0.461-3.461,0,0,0,68,false,stim,false,1,385,0,0,1,92553,task2,1439675,false,false,1468,image-keyboard-response,27
true,14,1,1,1,true,z,false,true,0.0-2.0-0.51-0.462-3.462,0,0,0,90,false,stim,false,2,675,0,0,2,92553,task2,1441879,false,false,1471,image-keyboard-response,28
true,14,1,1,1,true,z,false,false,0.0-2.0-0.51-0.463-3.463,0,0,0,90,false,stim,false,0,660,0,0,0,92553,task2,1444070,false,true,1474,image-keyboard-response,29
true,14,2,1,2,true,d,false,true,0.0-2.0-0.51-0.464-3.464,0,0,0,68,false,stim,false,1,787,0,0,1,92553,task2,1446378,false,false,1477,image-keyboard-response,30
true,14,1,1,1,true,z,false,true,0.0-2.0-0.51-0.465-3.465,0,0,0,90,false,stim,false,2,631,0,0,2,92553,task2,1448533,false,false,1480,image-keyboard-response,31
true,14,0,1,1,false,z,false,false,0.0-2.0-0.51-0.466-3.466,0,0,0,81,false,stim,true,0,567,0,0,0,92553,task2,1450631,false,false,1483,image-keyboard-response,32
true,14,1,1,1,true,z,false,true,0.0-2.0-0.51-0.467-3.467,0,0,0,90,false,stim,false,2,979,0,0,2,92553,task2,1453139,false,false,1486,image-keyboard-response,33
true,14,2,1,2,true,d,false,true,0.0-2.0-0.52-0.468-3.468,0,0,0,68,false,stim,false,1,824,0,0,1,92553,task2,1455484,false,false,1489,image-keyboard-response,34
true,14,1,1,1,true,z,false,true,0.0-2.0-0.52-0.469-3.469,0,0,0,90,false,stim,false,0,1649,0,0,0,92553,task2,1458656,false,false,1492,image-keyboard-response,35
true,15,2,1,0,false,q,true,true,0.0-2.0-0.52-0.470-3.470,0,0,0,68,true,stim,false,1,1251,0,0,2,92553,task2,1461421,false,true,1495,image-keyboard-response,1
true,15,2,1,1,false,z,false,false,0.0-2.0-0.52-0.471-3.471,0,0,0,68,false,stim,true,2,599,0,0,1,92553,task2,1463535,false,false,1498,image-keyboard-response,2
true,15,2,1,0,false,q,true,false,0.0-2.0-0.52-0.472-3.472,0,0,0,68,false,stim,false,1,851,0,0,2,92553,task2,1465932,false,false,1501,image-keyboard-response,3
true,15,1,1,0,false,q,false,false,0.0-2.0-0.52-0.473-3.473,0,0,0,90,false,stim,true,1,1045,0,0,2,92553,task2,1468493,false,false,1504,image-keyboard-response,4
true,15,1,1,2,false,d,false,false,0.0-2.0-0.52-0.474-3.474,0,0,0,90,false,stim,true,1,1416,0,0,0,92553,task2,1471434,false,false,1507,image-keyboard-response,5
true,15,0,1,1,false,z,true,false,0.0-2.0-0.52-0.475-3.475,0,0,0,81,false,stim,false,2,981,0,0,1,92553,task2,1473950,false,false,1510,image-keyboard-response,6
true,15,0,1,2,false,d,true,false,0.0-2.0-0.52-0.476-3.476,0,0,0,81,false,stim,false,1,1538,0,0,0,92553,task2,1477022,false,false,1513,image-keyboard-response,7
true,15,1,1,2,false,d,false,false,0.0-2.0-0.53-0.477-3.477,0,0,0,90,false,stim,true,1,1116,0,0,0,92553,task2,1479649,false,false,1516,image-keyboard-response,8
true,15,2,1,2,true,d,false,true,0.0-2.0-0.53-0.478-3.478,0,0,0,68,false,stim,false,1,469,0,0,0,92553,task2,1481654,false,false,1519,image-keyboard-response,9
true,15,1,1,1,true,z,false,true,0.0-2.0-0.53-0.479-3.479,0,0,0,90,false,stim,false,2,1378,0,0,1,92553,task2,1484562,false,false,1522,image-keyboard-response,10
true,15,1,1,1,true,z,false,true,0.0-2.0-0.53-0.480-3.480,0,0,0,90,false,stim,false,2,633,0,0,1,92553,task2,1486716,false,false,1525,image-keyboard-response,11
true,15,2,1,2,true,d,false,true,0.0-2.0-0.53-0.481-3.481,0,0,0,68,false,stim,false,1,662,0,0,0,92553,task2,1488894,false,false,1528,image-keyboard-response,12
true,15,0,1,0,true,q,false,false,0.0-2.0-0.53-0.482-3.482,0,0,0,81,false,stim,false,1,997,0,0,2,92553,task2,1491417,false,true,1531,image-keyboard-response,13
true,15,1,1,0,false,q,false,false,0.0-2.0-0.53-0.483-3.483,0,0,0,90,false,stim,true,1,789,0,0,2,92553,task2,1493726,false,false,1534,image-keyboard-response,14
true,15,2,1,0,false,q,true,false,0.0-2.0-0.53-0.484-3.484,0,0,0,68,false,stim,false,1,446,0,0,2,92553,task2,1495688,false,false,1537,image-keyboard-response,15
true,15,1,1,1,true,z,false,true,0.0-2.0-0.53-0.485-3.485,0,0,0,90,false,stim,false,2,2151,0,0,1,92553,task2,1499363,false,false,1540,image-keyboard-response,16
true,15,1,1,1,true,z,false,true,0.0-2.0-0.54-0.486-3.486,0,0,0,90,false,stim,false,2,595,0,0,1,92553,task2,1501482,false,false,1543,image-keyboard-response,17
true,15,1,1,1,true,z,false,true,0.0-2.0-0.54-0.487-3.487,0,0,0,90,false,stim,false,2,365,0,0,1,92553,task2,1503373,false,false,1546,image-keyboard-response,18
true,15,0,1,2,false,d,true,false,0.0-2.0-0.54-0.488-3.488,0,0,0,81,false,stim,false,1,1925,0,0,0,92553,task2,1506827,false,false,1549,image-keyboard-response,19
true,15,2,1,2,true,d,false,false,0.0-2.0-0.54-0.489-3.489,0,0,0,68,false,stim,false,1,451,0,0,0,92553,task2,1508798,false,true,1552,image-keyboard-response,20
true,15,1,1,2,false,d,false,false,0.0-2.0-0.54-0.490-3.490,0,0,0,90,false,stim,true,1,419,0,0,0,92553,task2,1510748,false,false,1555,image-keyboard-response,21
true,15,0,1,0,true,q,false,false,0.0-2.0-0.54-0.491-3.491,0,0,0,81,false,stim,false,1,2519,0,0,2,92553,task2,1514799,false,true,1558,image-keyboard-response,22
true,15,2,1,0,false,q,true,false,0.0-2.0-0.54-0.492-3.492,0,0,0,68,false,stim,false,1,518,0,0,2,92553,task2,1516843,false,false,1561,image-keyboard-response,23
true,15,1,1,0,false,q,false,false,0.0-2.0-0.54-0.493-3.493,0,0,0,90,false,stim,true,1,426,0,0,2,92553,task2,1518804,false,false,1564,image-keyboard-response,24
true,15,1,1,1,true,z,false,true,0.0-2.0-0.54-0.494-3.494,0,0,0,90,false,stim,false,2,2047,0,0,1,92553,task2,1522372,false,false,1567,image-keyboard-response,25
true,15,2,1,2,true,d,false,true,0.0-2.0-0.55-0.495-3.495,0,0,0,68,false,stim,false,1,1696,0,0,0,92553,task2,1525579,false,false,1570,image-keyboard-response,26
true,15,2,1,2,true,d,false,true,0.0-2.0-0.55-0.496-3.496,0,0,0,68,false,stim,false,1,1107,0,0,0,92553,task2,1528199,false,false,1573,image-keyboard-response,27
true,15,1,1,1,true,z,false,true,0.0-2.0-0.55-0.497-3.497,0,0,0,90,false,stim,false,2,1258,0,0,1,92553,task2,1530979,false,false,1576,image-keyboard-response,28
true,15,0,1,0,true,q,false,true,0.0-2.0-0.55-0.498-3.498,0,0,0,81,false,stim,false,1,1114,0,0,2,92553,task2,1533614,false,false,1579,image-keyboard-response,29
true,15,0,1,0,true,q,false,true,0.0-2.0-0.55-0.499-3.499,0,0,0,81,false,stim,false,1,1202,0,0,2,92553,task2,1536333,false,false,1582,image-keyboard-response,30
true,15,2,1,2,true,d,false,true,0.0-2.0-0.55-0.500-3.500,0,0,0,68,false,stim,false,1,1105,0,0,0,92553,task2,1538956,false,false,1585,image-keyboard-response,31
true,15,1,1,1,true,z,false,true,0.0-2.0-0.55-0.501-3.501,0,0,0,90,false,stim,false,2,775,0,0,1,92553,task2,1541257,false,false,1588,image-keyboard-response,32
true,15,1,1,1,true,z,false,true,0.0-2.0-0.55-0.502-3.502,0,0,0,90,false,stim,false,2,788,0,0,1,92553,task2,1543565,false,false,1591,image-keyboard-response,33
true,15,0,1,0,true,q,false,true,0.0-2.0-0.55-0.503-3.503,0,0,0,81,false,stim,false,1,884,0,0,2,92553,task2,1545975,false,false,1594,image-keyboard-response,34
true,15,0,1,0,true,q,false,true,0.0-2.0-0.56-0.504-3.504,0,0,0,81,false,stim,false,1,612,0,0,2,92553,task2,1548114,false,false,1597,image-keyboard-response,35
true,15,2,1,2,true,d,false,true,0.0-2.0-0.56-0.505-3.505,0,0,0,68,false,stim,false,1,1418,0,0,0,92553,task2,1551059,false,false,1600,image-keyboard-response,36
true,15,1,1,1,true,z,false,true,0.0-2.0-0.56-0.506-3.506,0,0,0,90,false,stim,false,2,609,0,0,1,92553,task2,1553203,false,false,1603,image-keyboard-response,37
true,15,0,1,0,true,q,false,true,0.0-2.0-0.56-0.507-3.507,0,0,0,81,false,stim,false,1,1102,0,0,2,92553,task2,1555825,false,false,1606,image-keyboard-response,38
true,16,2,1,1,false,z,false,true,0.0-2.0-0.56-0.508-3.508,0,0,0,68,true,stim,true,2,1173,0,0,0,92553,task2,1558523,false,true,1609,image-keyboard-response,1
true,16,1,1,0,false,q,false,false,0.0-2.0-0.56-0.509-3.509,0,0,0,90,false,stim,true,1,654,0,0,1,92553,task2,1560703,false,false,1612,image-keyboard-response,2
true,16,0,1,2,false,d,false,false,0.0-2.0-0.56-0.510-3.510,0,0,0,81,false,stim,true,0,839,0,0,2,92553,task2,1563053,false,false,1615,image-keyboard-response,3
true,16,2,1,1,false,z,false,false,0.0-2.0-0.56-0.511-3.511,0,0,0,68,false,stim,true,2,711,0,0,0,92553,task2,1565284,false,false,1618,image-keyboard-response,4
true,16,2,1,0,false,q,true,false,0.0-2.0-0.56-0.512-3.512,0,0,0,68,false,stim,false,1,1270,0,0,1,92553,task2,1568072,false,false,1621,image-keyboard-response,5
true,16,1,1,2,false,d,true,false,0.0-2.0-0.57-0.513-3.513,0,0,0,90,false,stim,false,0,1017,0,0,2,92553,task2,1570606,false,false,1624,image-keyboard-response,6
true,16,0,1,2,false,d,false,false,0.0-2.0-0.57-0.514-3.514,0,0,0,81,false,stim,true,0,1059,0,0,2,92553,task2,1573189,false,false,1627,image-keyboard-response,7
true,16,0,1,2,false,d,false,false,0.0-2.0-0.57-0.515-3.515,0,0,0,81,false,stim,true,0,566,0,0,2,92553,task2,1575276,false,false,1630,image-keyboard-response,8
true,16,2,1,0,false,q,true,false,0.0-2.0-0.57-0.516-3.516,0,0,0,68,false,stim,false,1,2399,0,0,1,92553,task2,1579196,false,false,1633,image-keyboard-response,9
true,16,1,1,1,true,z,false,true,0.0-2.0-0.57-0.517-3.517,0,0,0,90,false,stim,false,2,1451,0,0,0,92553,task2,1582169,false,false,1636,image-keyboard-response,10
true,16,1,1,1,true,z,false,true,0.0-2.0-0.57-0.518-3.518,0,0,0,90,false,stim,false,2,637,0,0,0,92553,task2,1584332,false,false,1639,image-keyboard-response,11
true,16,0,1,0,true,q,false,true,0.0-2.0-0.57-0.519-3.519,0,0,0,81,false,stim,false,1,696,0,0,1,92553,task2,1586560,false,false,1642,image-keyboard-response,12
true,16,0,1,0,true,q,false,true,0.0-2.0-0.57-0.520-3.520,0,0,0,81,false,stim,false,1,1599,0,0,1,92553,task2,1589686,false,false,1645,image-keyboard-response,13
true,16,1,1,1,true,z,false,true,0.0-2.0-0.57-0.521-3.521,0,0,0,90,false,stim,false,2,1137,0,0,0,92553,task2,1592348,false,false,1648,image-keyboard-response,14
true,16,0,1,0,true,q,false,true,0.0-2.0-0.58-0.522-3.522,0,0,0,81,false,stim,false,1,978,0,0,1,92553,task2,1594851,false,false,1651,image-keyboard-response,15
true,16,1,1,1,true,z,false,true,0.0-2.0-0.58-0.523-3.523,0,0,0,90,false,stim,false,2,483,0,0,0,92553,task2,1596859,false,false,1654,image-keyboard-response,16
true,16,0,1,0,true,q,false,true,0.0-2.0-0.58-0.524-3.524,0,0,0,81,false,stim,false,1,627,0,0,1,92553,task2,1599016,false,false,1657,image-keyboard-response,17
true,16,1,1,1,true,z,false,true,0.0-2.0-0.58-0.525-3.525,0,0,0,90,false,stim,false,2,525,0,0,0,92553,task2,1601058,false,false,1660,image-keyboard-response,18
true,16,1,1,1,true,z,false,true,0.0-2.0-0.58-0.526-3.526,0,0,0,90,false,stim,false,2,461,0,0,0,92553,task2,1603051,false,false,1663,image-keyboard-response,19
true,16,2,1,2,true,d,false,true,0.0-2.0-0.58-0.527-3.527,0,0,0,68,false,stim,false,0,974,0,0,2,92553,task2,1605551,false,false,1666,image-keyboard-response,20
true,16,2,1,2,true,d,false,true,0.0-2.0-0.58-0.528-3.528,0,0,0,68,false,stim,false,0,760,0,0,2,92553,task2,1607834,false,false,1669,image-keyboard-response,21
true,16,0,1,0,true,q,false,false,0.0-2.0-0.58-0.529-3.529,0,0,0,81,false,stim,false,1,691,0,0,1,92553,task2,1610042,false,true,1672,image-keyboard-response,22
true,16,1,1,2,false,d,true,false,0.0-2.0-0.58-0.530-3.530,0,0,0,90,false,stim,false,0,395,0,0,2,92553,task2,1611952,false,false,1675,image-keyboard-response,23
true,16,2,1,2,true,d,false,true,0.0-2.0-0.59-0.531-3.531,0,0,0,68,false,stim,false,0,485,0,0,2,92553,task2,1613956,false,false,1678,image-keyboard-response,24
true,16,0,1,0,true,q,false,true,0.0-2.0-0.59-0.532-3.532,0,0,0,81,false,stim,false,1,991,0,0,1,92553,task2,1616471,false,false,1681,image-keyboard-response,25
true,16,2,1,2,true,d,false,true,0.0-2.0-0.59-0.533-3.533,0,0,0,68,false,stim,false,0,638,0,0,2,92553,task2,1618635,false,false,1684,image-keyboard-response,26
true,16,0,1,0,true,q,false,true,0.0-2.0-0.59-0.534-3.534,0,0,0,81,false,stim,false,1,905,0,0,1,92553,task2,1621056,false,false,1687,image-keyboard-response,27
true,16,1,1,1,true,z,false,true,0.0-2.0-0.59-0.535-3.535,0,0,0,90,false,stim,false,2,494,0,0,0,92553,task2,1623077,false,false,1690,image-keyboard-response,28
true,16,2,1,2,true,d,false,true,0.0-2.0-0.59-0.536-3.536,0,0,0,68,false,stim,false,0,659,0,0,2,92553,task2,1625260,false,false,1693,image-keyboard-response,29
true,16,0,1,0,true,q,false,false,0.0-2.0-0.59-0.537-3.537,0,0,0,81,false,stim,false,1,689,0,0,1,92553,task2,1627479,false,true,1696,image-keyboard-response,30
true,16,1,1,1,true,z,false,true,0.0-2.0-0.59-0.538-3.538,0,0,0,90,false,stim,false,2,620,0,0,0,92553,task2,1629621,false,false,1699,image-keyboard-response,31
true,16,1,1,1,true,z,false,true,0.0-2.0-0.59-0.539-3.539,0,0,0,90,false,stim,false,2,895,0,1,0,92553,task2,1632056,false,false,1702,image-keyboard-response,32
true,16,1,1,1,true,z,false,true,0.0-2.0-0.60-0.540-3.540,0,0,0,90,false,stim,false,2,548,0,1,0,92553,task2,1634121,false,false,1705,image-keyboard-response,33
true,16,1,1,1,true,z,false,true,0.0-2.0-0.60-0.541-3.541,0,0,0,90,false,stim,false,2,674,0,1,0,92553,task2,1636306,false,false,1708,image-keyboard-response,34
true,16,0,1,0,true,q,false,true,0.0-2.0-0.60-0.542-3.542,0,0,0,81,false,stim,false,1,1156,0,1,1,92553,task2,1638992,false,false,1711,image-keyboard-response,35
true,16,1,1,1,true,z,false,true,0.0-2.0-0.60-0.543-3.543,0,0,0,90,false,stim,false,2,555,0,1,0,92553,task2,1641088,false,false,1714,image-keyboard-response,36
true,17,2,0,0,false,q,true,false,0.0-2.0-0.60-0.544-3.544,1,1,1,68,true,stim,false,0,1222,0,1,1,92553,task2,1694882,false,false,1768,image-keyboard-response,1
true,17,2,0,2,true,d,false,true,0.0-2.0-0.60-0.545-3.545,1,1,1,68,false,stim,false,2,1383,0,1,2,92553,task2,1697784,false,false,1771,image-keyboard-response,2
true,17,1,0,0,false,q,true,false,0.0-2.0-0.60-0.546-3.546,1,1,1,90,false,stim,false,0,702,0,1,1,92553,task2,1700013,false,false,1774,image-keyboard-response,3
true,17,2,0,2,true,d,false,false,0.0-2.0-0.60-0.547-3.547,1,1,1,68,false,stim,false,2,724,0,1,2,92553,task2,1702268,false,true,1777,image-keyboard-response,4
true,17,1,0,2,false,d,true,false,0.0-2.0-0.60-0.548-3.548,1,1,1,90,false,stim,false,2,552,0,1,2,92553,task2,1704346,false,false,1780,image-keyboard-response,5
true,17,1,0,1,true,z,false,true,0.0-2.0-0.61-0.549-3.549,1,1,1,90,false,stim,false,1,1101,0,1,0,92553,task2,1706967,false,false,1783,image-keyboard-response,6
true,17,0,0,0,true,q,false,true,0.0-2.0-0.61-0.550-3.550,1,1,1,81,false,stim,false,0,1104,0,1,1,92553,task2,1709594,false,false,1786,image-keyboard-response,7
true,17,2,0,2,true,d,false,true,0.0-2.0-0.61-0.551-3.551,1,1,1,68,false,stim,false,2,1175,0,1,2,92553,task2,1712282,false,false,1789,image-keyboard-response,8
true,17,0,0,0,true,q,false,false,0.0-2.0-0.61-0.552-3.552,1,1,1,81,false,stim,false,0,2014,0,0,1,92553,task2,1715821,false,true,1792,image-keyboard-response,9
true,17,2,0,2,true,d,false,true,0.0-2.0-0.61-0.553-3.553,1,1,1,68,false,stim,false,2,666,0,0,2,92553,task2,1718013,false,false,1795,image-keyboard-response,10
true,17,1,0,1,true,z,false,true,0.0-2.0-0.61-0.554-3.554,1,1,1,90,false,stim,false,1,1070,0,0,0,92553,task2,1720597,false,false,1798,image-keyboard-response,11
true,17,2,0,0,false,q,true,false,0.0-2.0-0.61-0.555-3.555,1,1,1,68,false,stim,false,0,891,0,0,1,92553,task2,1723025,false,false,1801,image-keyboard-response,12
true,17,1,0,1,true,z,false,false,0.0-2.0-0.61-0.556-3.556,1,1,1,90,false,stim,false,1,1635,0,0,0,92553,task2,1726184,false,true,1804,image-keyboard-response,13
true,18,0,1,0,true,q,false,false,0.0-2.0-0.61-0.557-3.557,0,0,0,81,true,stim,false,2,742,0,0,2,92553,task2,1728452,false,true,1807,image-keyboard-response,1
true,18,0,1,2,false,d,false,true,0.0-2.0-0.62-0.558-3.558,0,0,0,81,false,stim,true,0,1577,0,0,1,92553,task2,1731560,false,true,1810,image-keyboard-response,2
true,18,1,1,2,false,d,false,false,0.0-2.0-0.62-0.559-3.559,0,0,0,90,false,stim,true,1,672,0,0,0,92553,task2,1733743,false,false,1813,image-keyboard-response,3
true,18,2,1,2,true,d,false,true,0.0-2.0-0.62-0.560-3.560,0,0,0,68,false,stim,false,1,1078,0,0,0,92553,task2,1736334,false,false,1816,image-keyboard-response,4
true,18,2,1,2,true,d,false,true,0.0-2.0-0.62-0.561-3.561,0,0,0,68,false,stim,false,1,594,0,0,0,92553,task2,1738440,false,false,1819,image-keyboard-response,5
true,18,1,1,0,false,q,true,true,0.0-2.0-0.62-0.562-3.562,0,0,0,90,false,stim,false,2,1491,0,0,2,92553,task2,1741455,false,true,1822,image-keyboard-response,6
true,18,0,1,2,false,d,false,false,0.0-2.0-0.62-0.563-3.563,0,0,0,81,false,stim,true,0,1066,0,0,1,92553,task2,1744046,false,false,1825,image-keyboard-response,7
true,18,1,1,0,false,q,true,true,0.0-2.0-0.62-0.564-3.564,0,0,0,90,false,stim,false,2,1429,0,0,2,92553,task2,1747006,false,true,1828,image-keyboard-response,8
true,18,2,1,2,true,d,false,true,0.0-2.0-0.62-0.565-3.565,0,0,0,68,false,stim,false,0,2470,0,0,1,92553,task2,1751004,false,false,1831,image-keyboard-response,9
true,18,1,1,0,false,q,true,false,0.0-2.0-0.62-0.566-3.566,0,0,0,90,false,stim,false,2,1002,0,0,2,92553,task2,1753537,false,false,1834,image-keyboard-response,10
true,18,0,1,0,true,q,false,true,0.0-2.0-0.63-0.567-3.567,0,0,0,81,false,stim,false,2,639,0,0,2,92553,task2,1755692,false,false,1837,image-keyboard-response,11
true,18,0,1,0,true,q,false,true,0.0-2.0-0.63-0.568-3.568,0,0,0,81,false,stim,false,2,896,0,0,2,92553,task2,1758111,false,false,1840,image-keyboard-response,12
true,18,1,1,2,false,d,true,false,0.0-2.0-0.63-0.569-3.569,0,0,0,90,false,stim,false,0,1870,0,0,1,92553,task2,1761512,false,false,1843,image-keyboard-response,13
true,18,1,1,2,false,d,false,false,0.0-2.0-0.63-0.570-3.570,0,0,0,90,false,stim,true,1,784,0,0,0,92553,task2,1763808,false,false,1846,image-keyboard-response,14
true,18,0,1,0,true,q,false,true,0.0-2.0-0.63-0.571-3.571,0,0,0,81,false,stim,false,2,725,0,0,2,92553,task2,1766058,false,false,1849,image-keyboard-response,15
true,18,2,1,2,true,d,false,true,0.0-2.0-0.63-0.572-3.572,0,0,0,68,false,stim,false,0,813,0,0,1,92553,task2,1768390,false,false,1852,image-keyboard-response,16
true,18,2,1,2,true,d,false,true,0.0-2.0-0.63-0.573-3.573,0,0,0,68,false,stim,false,1,799,0,0,0,92553,task2,1770714,false,false,1855,image-keyboard-response,17
true,18,2,1,2,true,d,false,true,0.0-2.0-0.63-0.574-3.574,0,0,0,68,false,stim,false,1,1853,0,0,0,92553,task2,1774089,false,false,1858,image-keyboard-response,18
true,18,2,1,2,true,d,false,true,0.0-2.0-0.63-0.575-3.575,0,0,0,68,false,stim,false,0,1493,0,0,1,92553,task2,1777093,false,false,1861,image-keyboard-response,19
true,18,0,1,0,true,q,false,true,0.0-2.0-0.64-0.576-3.576,0,0,0,81,false,stim,false,2,439,0,0,2,92553,task2,1779057,false,false,1864,image-keyboard-response,20
true,18,0,1,0,true,q,false,true,0.0-2.0-0.64-0.577-3.577,0,0,0,81,false,stim,false,2,881,0,0,2,92553,task2,1781448,false,false,1867,image-keyboard-response,21
true,18,2,1,2,true,d,false,true,0.0-2.0-0.64-0.578-3.578,0,0,0,68,false,stim,false,0,692,0,0,1,92553,task2,1783663,false,false,1870,image-keyboard-response,22
true,18,2,1,2,true,d,false,true,0.0-2.0-0.64-0.579-3.579,0,0,0,68,false,stim,false,0,840,0,0,1,92553,task2,1786030,false,false,1873,image-keyboard-response,23
true,18,0,1,0,true,q,false,true,0.0-2.0-0.64-0.580-3.580,0,0,0,81,false,stim,false,2,802,0,0,2,92553,task2,1788364,false,false,1876,image-keyboard-response,24
true,18,2,1,2,true,d,false,true,0.0-2.0-0.64-0.581-3.581,0,0,0,68,false,stim,false,1,846,0,0,0,92553,task2,1790729,false,false,1879,image-keyboard-response,25
true,18,2,1,2,true,d,false,true,0.0-2.0-0.64-0.582-3.582,0,0,0,68,false,stim,false,0,805,0,0,1,92553,task2,1793058,false,false,1882,image-keyboard-response,26
true,18,2,1,2,true,d,false,true,0.0-2.0-0.64-0.583-3.583,0,0,0,68,false,stim,false,1,625,0,0,0,92553,task2,1795219,false,false,1885,image-keyboard-response,27
true,18,2,1,2,true,d,false,true,0.0-2.0-0.64-0.584-3.584,0,0,0,68,false,stim,false,1,718,0,0,0,92553,task2,1797459,false,false,1888,image-keyboard-response,28
true,18,2,1,2,true,d,false,true,0.0-2.0-0.65-0.585-3.585,0,0,0,68,false,stim,false,1,674,0,0,0,92553,task2,1799657,false,false,1891,image-keyboard-response,29
true,18,2,1,2,true,d,false,true,0.0-2.0-0.65-0.586-3.586,0,0,0,68,false,stim,false,0,837,0,0,1,92553,task2,1802020,false,false,1894,image-keyboard-response,30
true,18,2,1,2,true,d,false,true,0.0-2.0-0.65-0.587-3.587,0,0,0,68,false,stim,false,1,581,0,0,0,92553,task2,1804137,false,false,1897,image-keyboard-response,31
true,18,2,1,2,true,d,false,true,0.0-2.0-0.65-0.588-3.588,0,0,0,68,false,stim,false,1,518,0,0,0,92553,task2,1806175,false,false,1900,image-keyboard-response,32
true,18,0,1,0,true,q,false,true,0.0-2.0-0.65-0.589-3.589,0,0,0,81,false,stim,false,2,1044,0,0,2,92553,task2,1808768,false,false,1903,image-keyboard-response,33
true,18,2,1,2,true,d,false,true,0.0-2.0-0.65-0.590-3.590,0,0,0,68,false,stim,false,0,574,0,0,1,92553,task2,1810864,false,false,1906,image-keyboard-response,34
true,18,2,1,0,false,q,false,false,0.0-2.0-0.65-0.591-3.591,0,0,0,68,false,stim,true,2,417,0,0,2,92553,task2,1812798,false,false,1909,image-keyboard-response,35
true,19,0,1,2,false,d,false,false,0.0-2.0-0.65-0.592-3.592,0,0,0,81,true,stim,true,0,892,0,0,2,92553,task2,1815213,false,false,1912,image-keyboard-response,1
true,19,1,1,1,true,z,false,true,0.0-2.0-0.65-0.593-3.593,0,0,0,90,false,stim,false,2,434,0,0,1,92553,task2,1817173,false,false,1915,image-keyboard-response,2
true,19,0,1,2,false,d,false,false,0.0-2.0-0.66-0.594-3.594,0,0,0,81,false,stim,true,0,2212,0,0,2,92553,task2,1820896,false,false,1918,image-keyboard-response,3
true,19,0,1,1,false,z,true,false,0.0-2.0-0.66-0.595-3.595,0,0,0,81,false,stim,false,2,1551,0,0,0,92553,task2,1823962,false,false,1921,image-keyboard-response,4
true,19,1,1,1,true,z,false,true,0.0-2.0-0.66-0.596-3.596,0,0,0,90,false,stim,false,2,832,0,0,0,92553,task2,1826314,false,false,1924,image-keyboard-response,5
true,19,1,1,2,false,d,true,true,0.0-2.0-0.66-0.597-3.597,0,0,0,90,false,stim,false,0,960,0,0,2,92553,task2,1828804,false,true,1927,image-keyboard-response,6
true,19,1,1,1,true,z,false,true,0.0-2.0-0.66-0.598-3.598,0,0,0,90,false,stim,false,2,592,0,0,1,92553,task2,1830909,false,false,1930,image-keyboard-response,7
true,19,1,1,1,true,z,false,true,0.0-2.0-0.66-0.599-3.599,0,0,0,90,false,stim,false,2,526,0,0,0,92553,task2,1832964,false,false,1933,image-keyboard-response,8
true,19,1,1,1,true,z,false,true,0.0-2.0-0.66-0.600-3.600,0,0,0,90,false,stim,false,2,825,0,0,1,92553,task2,1835311,false,false,1936,image-keyboard-response,9
true,19,1,1,2,false,d,true,false,0.0-2.0-0.66-0.601-3.601,0,0,0,90,false,stim,false,0,366,0,0,2,92553,task2,1837207,false,false,1939,image-keyboard-response,10
true,19,1,1,1,true,z,false,true,0.0-2.0-0.66-0.602-3.602,0,0,0,90,false,stim,false,2,650,0,0,1,92553,task2,1839375,false,false,1942,image-keyboard-response,11
true,19,1,1,1,true,z,false,true,0.0-2.0-0.67-0.603-3.603,0,0,0,90,false,stim,false,2,414,0,0,0,92553,task2,1841312,false,false,1945,image-keyboard-response,12
true,19,2,1,2,true,d,false,true,0.0-2.0-0.67-0.604-3.604,0,0,0,68,false,stim,false,0,505,0,0,2,92553,task2,1843342,false,false,1948,image-keyboard-response,13
true,19,1,1,1,true,z,false,true,0.0-2.0-0.67-0.605-3.605,0,0,0,90,false,stim,false,2,412,0,0,1,92553,task2,1845270,false,false,1951,image-keyboard-response,14
true,19,1,1,1,true,z,false,true,0.0-2.0-0.67-0.606-3.606,0,0,0,90,false,stim,false,2,524,0,0,0,92553,task2,1847303,false,false,1954,image-keyboard-response,15
true,19,2,1,2,true,d,false,true,0.0-2.0-0.67-0.607-3.607,0,0,0,68,false,stim,false,0,446,0,0,2,92553,task2,1849269,false,false,1957,image-keyboard-response,16
true,19,1,1,1,true,z,false,true,0.0-2.0-0.67-0.608-3.608,0,0,0,90,false,stim,false,2,991,0,0,0,92553,task2,1851774,false,false,1960,image-keyboard-response,17
true,19,1,1,1,true,z,false,true,0.0-2.0-0.67-0.609-3.609,0,0,0,90,false,stim,false,2,1253,0,0,1,92553,task2,1854545,false,false,1963,image-keyboard-response,18
true,19,2,1,2,true,d,false,true,0.0-2.0-0.67-0.610-3.610,0,0,0,68,false,stim,false,0,505,0,0,2,92553,task2,1856565,false,false,1966,image-keyboard-response,19
true,19,1,1,1,true,z,false,true,0.0-2.0-0.67-0.611-3.611,0,0,0,90,false,stim,false,2,1054,0,0,1,92553,task2,1859140,false,false,1969,image-keyboard-response,20
true,19,2,1,2,true,d,false,true,0.0-2.0-0.68-0.612-3.612,0,0,0,68,false,stim,false,0,859,0,0,2,92553,task2,1861512,false,false,1972,image-keyboard-response,21
true,19,1,1,1,true,z,false,true,0.0-2.0-0.68-0.613-3.613,0,0,0,90,false,stim,false,2,465,0,0,0,92553,task2,1863499,false,false,1975,image-keyboard-response,22
true,19,1,1,1,true,z,false,true,0.0-2.0-0.68-0.614-3.614,0,0,0,90,false,stim,false,2,499,0,0,1,92553,task2,1865525,false,false,1978,image-keyboard-response,23
true,19,1,1,1,true,z,false,true,0.0-2.0-0.68-0.615-3.615,0,0,0,90,false,stim,false,2,932,0,0,0,92553,task2,1867983,false,false,1981,image-keyboard-response,24
true,19,1,1,1,true,z,false,true,0.0-2.0-0.68-0.616-3.616,0,0,0,90,false,stim,false,2,543,0,0,1,92553,task2,1870042,false,false,1984,image-keyboard-response,25
true,19,2,1,2,true,d,false,true,0.0-2.0-0.68-0.617-3.617,0,0,0,68,false,stim,false,0,1035,0,0,2,92553,task2,1872604,false,false,1987,image-keyboard-response,26
true,19,1,1,1,true,z,false,false,0.0-2.0-0.68-0.618-3.618,0,0,0,90,false,stim,false,2,841,0,0,0,92553,task2,1874955,false,true,1990,image-keyboard-response,27
true,19,1,1,1,true,z,false,true,0.0-2.0-0.68-0.619-3.619,0,0,0,90,false,stim,false,2,874,0,0,1,92553,task2,1877354,false,false,1993,image-keyboard-response,28
true,19,2,1,2,true,d,false,true,0.0-2.0-0.68-0.620-3.620,0,0,0,68,false,stim,false,0,606,0,0,2,92553,task2,1879485,false,false,1996,image-keyboard-response,29
true,19,0,1,1,false,z,true,true,0.0-2.0-0.69-0.621-3.621,0,0,0,81,false,stim,false,2,561,0,0,0,92553,task2,1881553,false,true,1999,image-keyboard-response,30
true,19,1,1,1,true,z,false,true,0.0-2.0-0.69-0.622-3.622,0,0,0,90,false,stim,false,2,436,0,0,1,92553,task2,1883517,false,false,2002,image-keyboard-response,31
true,19,2,1,2,true,d,false,true,0.0-2.0-0.69-0.623-3.623,0,0,0,68,false,stim,false,0,486,0,0,2,92553,task2,1885528,false,false,2005,image-keyboard-response,32
true,19,0,1,1,false,z,true,false,0.0-2.0-0.69-0.624-3.624,0,0,0,81,false,stim,false,2,764,0,0,0,92553,task2,1887822,false,false,2008,image-keyboard-response,33
true,19,1,1,1,true,z,false,false,0.0-2.0-0.69-0.625-3.625,0,0,0,90,false,stim,false,2,573,0,0,1,92553,task2,1889925,false,true,2011,image-keyboard-response,34
true,19,2,1,1,false,z,false,false,0.0-2.0-0.69-0.626-3.626,0,0,0,68,false,stim,true,2,495,0,0,0,92553,task2,1891932,false,false,2014,image-keyboard-response,35
true,20,0,1,1,false,z,true,false,0.0-2.0-0.69-0.627-3.627,0,0,0,81,true,stim,false,2,1727,0,0,2,92553,task2,1895188,false,false,2017,image-keyboard-response,1
true,20,0,1,0,true,q,false,true,0.0-2.0-0.69-0.628-3.628,0,0,0,81,false,stim,false,1,2007,0,0,1,92553,task2,1898712,false,false,2020,image-keyboard-response,2
true,20,1,1,1,true,z,false,true,0.0-2.0-0.69-0.629-3.629,0,0,0,90,false,stim,false,2,1337,0,0,2,92553,task2,1901573,false,false,2023,image-keyboard-response,3
true,20,2,1,2,true,d,false,true,0.0-2.0-0.70-0.630-3.630,0,0,0,68,false,stim,false,1,399,0,0,0,92553,task2,1903500,false,false,2026,image-keyboard-response,4
true,20,1,1,1,true,z,false,true,0.0-2.0-0.70-0.631-3.631,0,0,0,90,false,stim,false,2,1017,0,0,2,92553,task2,1906030,false,false,2029,image-keyboard-response,5
true,20,1,1,1,true,z,false,true,0.0-2.0-0.70-0.632-3.632,0,0,0,90,false,stim,false,2,641,0,0,2,92553,task2,1908195,false,false,2032,image-keyboard-response,6
