answered,blockNum,choice,condition,corResp,correct,correct_response,explo,fb,internal_node_id,isStable_1,isStable_2,isStable_3,key_press,newBlock,part,persev,persevResp,rt,sessNum,stableAS,stimulus,subject,task,time_elapsed,training,trap,trial_index,trial_type,trialsInBlock
true,1,0,0,2,false,d,true,false,0.0-2.0-0.0-0.0-3.0,0,0,0,81,true,stim,false,-1,852,0,0,2,95405,task3,264024,false,false,152,image-keyboard-response,1
true,1,1,0,2,false,d,true,false,0.0-2.0-0.0-0.1-3.1,0,0,0,90,false,stim,false,-1,935,0,0,2,95405,task3,266485,false,false,155,image-keyboard-response,2
true,1,1,0,0,false,q,true,false,0.0-2.0-0.0-0.2-3.2,0,0,0,90,false,stim,false,-1,831,0,0,1,95405,task3,268842,false,false,158,image-keyboard-response,3
false,1,-1,0,0,false,q,false,false,0.0-2.0-0.0-0.3-3.3,0,0,0,,false,stim,true,-1,,0,0,0,95405,task3,273370,false,false,161,image-keyboard-response,4
true,1,2,0,0,false,q,true,false,0.0-2.0-0.0-0.4-3.4,0,0,0,68,false,stim,false,-1,646,0,0,0,95405,task3,275543,false,false,164,image-keyboard-response,5
true,1,0,0,0,true,q,false,true,0.0-2.0-0.0-0.5-3.5,0,0,0,81,false,stim,false,-1,1212,0,0,1,95405,task3,278292,false,false,167,image-keyboard-response,6
true,1,0,0,0,true,q,false,true,0.0-2.0-0.0-0.6-3.6,0,0,0,81,false,stim,false,-1,1951,0,0,1,95405,task3,281757,false,false,170,image-keyboard-response,7
true,1,1,0,0,false,q,true,false,0.0-2.0-0.0-0.7-3.7,0,0,0,90,false,stim,false,-1,804,0,0,0,95405,task3,284084,false,false,173,image-keyboard-response,8
true,1,0,0,2,false,d,true,false,0.0-2.0-0.0-0.8-3.8,0,0,0,81,false,stim,false,-1,1134,0,0,2,95405,task3,286742,false,false,176,image-keyboard-response,9
true,1,2,0,0,false,q,true,false,0.0-2.0-0.1-0.9-3.9,0,0,0,68,false,stim,false,-1,1570,0,0,0,95405,task3,289840,false,false,179,image-keyboard-response,10
true,1,0,0,0,true,q,false,true,0.0-2.0-0.1-0.10-3.10,0,0,0,81,false,stim,false,-1,1272,0,0,1,95405,task3,292644,false,false,182,image-keyboard-response,11
true,1,0,0,0,true,q,false,true,0.0-2.0-0.1-0.11-3.11,0,0,0,81,false,stim,false,-1,471,0,0,1,95405,task3,294652,false,false,185,image-keyboard-response,12
true,1,0,0,2,false,d,true,false,0.0-2.0-0.1-0.12-3.12,0,0,0,81,false,stim,false,-1,1563,0,0,2,95405,task3,297743,false,false,188,image-keyboard-response,13
true,1,0,0,2,false,d,true,false,0.0-2.0-0.1-0.13-3.13,0,0,0,81,false,stim,false,-1,1155,0,0,2,95405,task3,300426,false,false,191,image-keyboard-response,14
true,1,1,0,2,false,d,true,false,0.0-2.0-0.1-0.14-3.14,0,0,0,90,false,stim,false,-1,424,0,0,2,95405,task3,302375,false,false,194,image-keyboard-response,15
true,1,2,0,0,false,q,true,false,0.0-2.0-0.1-0.15-3.15,0,0,0,68,false,stim,false,-1,1295,0,0,0,95405,task3,305195,false,false,197,image-keyboard-response,16
true,1,0,0,0,true,q,false,true,0.0-2.0-0.1-0.16-3.16,0,0,0,81,false,stim,false,-1,399,0,0,1,95405,task3,307130,false,false,200,image-keyboard-response,17
true,1,0,0,0,true,q,false,true,0.0-2.0-0.1-0.17-3.17,0,0,0,81,false,stim,false,-1,802,0,0,0,95405,task3,309453,false,false,203,image-keyboard-response,18
true,1,0,0,0,true,q,false,true,0.0-2.0-0.2-0.18-3.18,0,0,0,81,false,stim,false,-1,477,0,0,0,95405,task3,311449,false,false,206,image-keyboard-response,19
true,1,0,0,2,false,d,true,false,0.0-2.0-0.2-0.19-3.19,0,0,0,81,false,stim,false,-1,873,0,0,2,95405,task3,313830,false,false,209,image-keyboard-response,20
true,1,1,0,0,false,q,true,false,0.0-2.0-0.2-0.20-3.20,0,0,0,90,false,stim,false,-1,804,0,0,0,95405,task3,316175,false,false,212,image-keyboard-response,21
true,1,0,0,2,false,d,true,false,0.0-2.0-0.2-0.21-3.21,0,0,0,81,false,stim,false,-1,1896,0,0,2,95405,task3,319596,false,false,215,image-keyboard-response,22
true,1,2,0,0,false,q,true,false,0.0-2.0-0.2-0.22-3.22,0,0,0,68,false,stim,false,-1,887,0,0,1,95405,task3,322017,false,false,218,image-keyboard-response,23
true,1,0,0,0,true,q,false,true,0.0-2.0-0.2-0.23-3.23,0,0,0,81,false,stim,false,-1,662,0,0,1,95405,task3,324202,false,false,221,image-keyboard-response,24
true,1,0,0,0,true,q,false,true,0.0-2.0-0.2-0.24-3.24,0,0,0,81,false,stim,false,-1,303,0,0,1,95405,task3,326039,false,false,224,image-keyboard-response,25
true,1,2,0,2,true,d,false,true,0.0-2.0-0.2-0.25-3.25,0,0,0,68,false,stim,false,-1,329,0,1,2,95405,task3,327899,false,false,227,image-keyboard-response,26
true,1,0,0,0,true,q,false,true,0.0-2.0-0.2-0.26-3.26,0,0,0,81,false,stim,false,-1,705,0,1,0,95405,task3,330128,false,false,230,image-keyboard-response,27
true,1,2,0,2,true,d,false,true,0.0-2.0-0.3-0.27-3.27,0,0,0,68,false,stim,false,-1,268,0,1,2,95405,task3,331909,false,false,233,image-keyboard-response,28
true,1,0,0,0,true,q,false,true,0.0-2.0-0.3-0.28-3.28,0,0,0,81,false,stim,false,-1,472,0,1,0,95405,task3,333914,false,false,236,image-keyboard-response,29
true,1,2,0,2,true,d,false,true,0.0-2.0-0.3-0.29-3.29,0,0,0,68,false,stim,false,-1,232,0,1,2,95405,task3,335667,false,false,239,image-keyboard-response,30
true,2,0,2,1,false,z,false,false,0.0-2.0-0.3-0.30-3.30,1,0,1,81,true,stim,true,0,272,0,0,1,95405,task3,337473,false,false,242,image-keyboard-response,1
true,2,1,2,0,false,q,true,true,0.0-2.0-0.3-0.31-3.31,1,0,1,90,false,stim,false,0,576,0,1,0,95405,task3,339586,false,true,245,image-keyboard-response,2
true,2,2,2,1,false,z,true,false,0.0-2.0-0.3-0.32-3.32,1,0,1,68,false,stim,false,0,1240,0,0,1,95405,task3,342351,false,false,248,image-keyboard-response,3
true,2,1,2,2,false,d,true,false,0.0-2.0-0.3-0.33-3.33,1,0,1,90,false,stim,false,2,240,0,1,2,95405,task3,344120,false,false,251,image-keyboard-response,4
true,2,0,2,1,false,z,false,false,0.0-2.0-0.3-0.34-3.34,1,0,1,81,false,stim,true,0,258,0,0,1,95405,task3,345908,false,false,254,image-keyboard-response,5
true,2,1,2,0,false,q,true,true,0.0-2.0-0.3-0.35-3.35,1,0,1,90,false,stim,false,0,298,0,1,0,95405,task3,347733,false,true,257,image-keyboard-response,6
true,2,0,2,2,false,d,true,false,0.0-2.0-0.4-0.36-3.36,1,0,1,81,false,stim,false,2,245,0,0,2,95405,task3,349505,false,false,260,image-keyboard-response,7
true,2,1,2,1,true,z,false,true,0.0-2.0-0.4-0.37-3.37,1,0,1,90,false,stim,false,0,276,0,1,1,95405,task3,351312,false,false,263,image-keyboard-response,8
true,2,0,2,0,true,q,false,true,0.0-2.0-0.4-0.38-3.38,1,0,1,81,false,stim,false,0,702,0,1,0,95405,task3,353554,false,false,266,image-keyboard-response,9
true,2,1,2,2,false,d,true,false,0.0-2.0-0.4-0.39-3.39,1,0,1,90,false,stim,false,2,585,0,0,2,95405,task3,355666,false,false,269,image-keyboard-response,10
true,2,0,2,1,false,z,false,false,0.0-2.0-0.4-0.40-3.40,1,0,1,81,false,stim,true,0,301,0,1,1,95405,task3,357502,false,false,272,image-keyboard-response,11
true,3,0,2,1,false,z,true,false,0.0-2.0-0.4-0.41-3.41,1,1,0,81,true,stim,false,1,485,0,1,1,95405,task3,359516,false,false,275,image-keyboard-response,1
true,3,2,2,0,false,q,true,false,0.0-2.0-0.4-0.42-3.42,1,1,0,68,false,stim,false,0,625,0,1,0,95405,task3,361662,false,false,278,image-keyboard-response,2
true,3,1,2,0,false,q,true,false,0.0-2.0-0.4-0.43-3.43,1,1,0,90,false,stim,false,2,1355,0,0,2,95405,task3,364546,false,false,281,image-keyboard-response,3
true,3,0,2,0,true,q,false,true,0.0-2.0-0.4-0.44-3.44,1,1,0,81,false,stim,false,0,494,0,1,0,95405,task3,366554,false,false,284,image-keyboard-response,4
true,3,0,2,1,false,z,true,false,0.0-2.0-0.5-0.45-3.45,1,1,0,81,false,stim,false,1,310,0,1,1,95405,task3,368391,false,false,287,image-keyboard-response,5
true,3,2,2,1,false,z,true,false,0.0-2.0-0.5-0.46-3.46,1,1,0,68,false,stim,false,1,883,0,1,1,95405,task3,370792,false,false,290,image-keyboard-response,6
true,3,1,2,0,false,q,true,false,0.0-2.0-0.5-0.47-3.47,1,1,0,90,false,stim,false,2,1352,0,0,2,95405,task3,373662,false,false,293,image-keyboard-response,7
true,3,0,2,0,true,q,false,true,0.0-2.0-0.5-0.48-3.48,1,1,0,81,false,stim,false,2,315,0,0,2,95405,task3,375510,false,false,296,image-keyboard-response,8
true,3,0,2,0,true,q,false,false,0.0-2.0-0.5-0.49-3.49,1,1,0,81,false,stim,false,0,254,0,1,0,95405,task3,377275,false,true,299,image-keyboard-response,9
true,3,2,2,0,false,q,true,false,0.0-2.0-0.5-0.50-3.50,1,1,0,68,false,stim,false,0,1064,0,1,0,95405,task3,379866,false,false,302,image-keyboard-response,10
true,3,1,2,1,true,z,false,true,0.0-2.0-0.5-0.51-3.51,1,1,0,90,false,stim,false,1,1417,0,1,1,95405,task3,382818,false,false,305,image-keyboard-response,11
true,3,1,2,0,false,q,true,true,0.0-2.0-0.5-0.52-3.52,1,1,0,90,false,stim,false,0,698,0,1,0,95405,task3,385048,false,true,308,image-keyboard-response,12
true,3,0,2,0,true,q,false,true,0.0-2.0-0.5-0.53-3.53,1,1,0,81,false,stim,false,2,298,0,0,2,95405,task3,386879,false,false,311,image-keyboard-response,13
true,3,0,2,1,false,z,true,false,0.0-2.0-0.6-0.54-3.54,1,1,0,81,false,stim,false,1,539,0,1,1,95405,task3,388950,false,false,314,image-keyboard-response,14
true,3,2,2,0,false,q,true,false,0.0-2.0-0.6-0.55-3.55,1,1,0,68,false,stim,false,0,277,0,1,0,95405,task3,390749,false,false,317,image-keyboard-response,15
true,3,1,2,0,false,q,true,false,0.0-2.0-0.6-0.56-3.56,1,1,0,90,false,stim,false,0,387,0,1,0,95405,task3,392658,false,false,320,image-keyboard-response,16
true,3,0,2,1,false,z,true,false,0.0-2.0-0.6-0.57-3.57,1,1,0,81,false,stim,false,1,393,0,1,1,95405,task3,394574,false,false,323,image-keyboard-response,17
true,3,0,2,0,true,q,false,true,0.0-2.0-0.6-0.58-3.58,1,1,0,81,false,stim,false,0,323,0,1,0,95405,task3,396423,false,false,326,image-keyboard-response,18
true,3,0,2,1,false,z,true,false,0.0-2.0-0.6-0.59-3.59,1,1,0,81,false,stim,false,1,327,0,1,1,95405,task3,398263,false,false,329,image-keyboard-response,19
true,3,2,2,0,false,q,false,false,0.0-2.0-0.6-0.60-3.60,1,1,0,68,false,stim,true,2,284,0,0,2,95405,task3,400084,false,false,332,image-keyboard-response,20
true,3,1,2,0,false,q,true,false,0.0-2.0-0.6-0.61-3.61,1,1,0,90,false,stim,false,2,1272,0,0,2,95405,task3,402867,false,false,335,image-keyboard-response,21
true,3,1,2,0,false,q,true,false,0.0-2.0-0.6-0.62-3.62,1,1,0,90,false,stim,false,2,1815,0,0,2,95405,task3,406205,false,false,338,image-keyboard-response,22
true,3,0,2,0,true,q,false,true,0.0-2.0-0.7-0.63-3.63,1,1,0,81,false,stim,false,0,1442,0,1,0,95405,task3,409168,false,false,341,image-keyboard-response,23
true,3,0,2,0,true,q,false,false,0.0-2.0-0.7-0.64-3.64,1,1,0,81,false,stim,false,0,661,0,1,0,95405,task3,411342,false,true,344,image-keyboard-response,24
true,3,2,2,0,false,q,false,false,0.0-2.0-0.7-0.65-3.65,1,1,0,68,false,stim,true,2,383,0,0,2,95405,task3,413255,false,false,347,image-keyboard-response,25
true,3,1,2,0,false,q,true,false,0.0-2.0-0.7-0.66-3.66,1,1,0,90,false,stim,false,2,1222,0,0,2,95405,task3,416013,false,false,350,image-keyboard-response,26
false,3,-1,2,1,false,z,true,false,0.0-2.0-0.7-0.67-3.67,1,1,0,,false,stim,false,1,,0,0,1,95405,task3,420556,false,false,353,image-keyboard-response,27
true,3,2,2,0,false,q,true,false,0.0-2.0-0.7-0.68-3.68,1,1,0,68,false,stim,false,0,323,0,1,0,95405,task3,422408,false,false,356,image-keyboard-response,28
true,3,0,2,1,false,z,true,false,0.0-2.0-0.7-0.69-3.69,1,1,0,81,false,stim,false,1,400,0,0,1,95405,task3,424320,false,false,359,image-keyboard-response,29
true,4,1,1,1,true,z,false,true,0.0-2.0-0.7-0.70-3.70,1,0,0,90,true,stim,false,0,342,0,0,2,95405,task3,426203,false,false,362,image-keyboard-response,1
true,4,1,1,2,false,d,false,false,0.0-2.0-0.7-0.71-3.71,1,0,0,90,false,stim,true,1,406,0,0,1,95405,task3,428127,false,false,365,image-keyboard-response,2
true,4,0,1,1,false,z,false,false,0.0-2.0-0.8-0.72-3.72,1,0,0,81,false,stim,true,0,492,0,0,2,95405,task3,430143,false,false,368,image-keyboard-response,3
true,4,0,1,1,false,z,false,false,0.0-2.0-0.8-0.73-3.73,1,0,0,81,false,stim,true,0,314,0,0,2,95405,task3,431974,false,false,371,image-keyboard-response,4
true,4,0,1,2,false,d,true,false,0.0-2.0-0.8-0.74-3.74,1,0,0,81,false,stim,false,1,765,0,0,1,95405,task3,434266,false,false,374,image-keyboard-response,5
true,4,1,1,2,false,d,false,false,0.0-2.0-0.8-0.75-3.75,1,0,0,90,false,stim,true,1,691,0,0,1,95405,task3,436482,false,false,377,image-keyboard-response,6
true,4,2,1,0,false,q,true,false,0.0-2.0-0.8-0.76-3.76,1,0,0,68,false,stim,false,0,651,0,1,0,95405,task3,438662,false,false,380,image-keyboard-response,7
true,4,0,1,2,false,d,true,false,0.0-2.0-0.8-0.77-3.77,1,0,0,81,false,stim,false,1,1076,0,0,1,95405,task3,441267,false,false,383,image-keyboard-response,8
true,4,0,1,1,false,z,false,true,0.0-2.0-0.8-0.78-3.78,1,0,0,81,false,stim,true,0,756,0,0,2,95405,task3,443546,false,true,386,image-keyboard-response,9
true,4,0,1,0,true,q,false,true,0.0-2.0-0.8-0.79-3.79,1,0,0,81,false,stim,false,0,267,0,1,0,95405,task3,445340,false,false,389,image-keyboard-response,10
true,4,2,1,0,false,q,true,false,0.0-2.0-0.8-0.80-3.80,1,0,0,68,false,stim,false,0,303,0,1,0,95405,task3,447154,false,false,392,image-keyboard-response,11
true,4,1,1,0,false,q,true,false,0.0-2.0-0.9-0.81-3.81,1,0,0,90,false,stim,false,0,326,0,1,0,95405,task3,448996,false,false,395,image-keyboard-response,12
true,4,0,1,1,false,z,false,false,0.0-2.0-0.9-0.82-3.82,1,0,0,81,false,stim,true,0,387,0,0,2,95405,task3,450918,false,false,398,image-keyboard-response,13
true,4,0,1,1,false,z,false,false,0.0-2.0-0.9-0.83-3.83,1,0,0,81,false,stim,true,0,377,0,0,2,95405,task3,452830,false,false,401,image-keyboard-response,14
true,4,1,1,2,false,d,false,false,0.0-2.0-0.9-0.84-3.84,1,0,0,90,false,stim,true,1,581,0,0,1,95405,task3,454942,false,false,404,image-keyboard-response,15
true,4,1,1,1,true,z,false,true,0.0-2.0-0.9-0.85-3.85,1,0,0,90,false,stim,false,0,307,0,0,2,95405,task3,456787,false,false,407,image-keyboard-response,16
true,4,1,1,2,false,d,false,false,0.0-2.0-0.9-0.86-3.86,1,0,0,90,false,stim,true,1,339,0,0,1,95405,task3,458650,false,false,410,image-keyboard-response,17
true,4,0,1,2,false,d,true,false,0.0-2.0-0.9-0.87-3.87,1,0,0,81,false,stim,false,1,870,0,0,1,95405,task3,461040,false,false,413,image-keyboard-response,18
true,4,0,1,0,true,q,false,true,0.0-2.0-0.9-0.88-3.88,1,0,0,81,false,stim,false,0,882,0,1,0,95405,task3,463433,false,false,416,image-keyboard-response,19
true,4,0,1,0,true,q,false,true,0.0-2.0-0.9-0.89-3.89,1,0,0,81,false,stim,false,0,1393,0,1,0,95405,task3,466333,false,false,419,image-keyboard-response,20
true,4,0,1,1,false,z,false,false,0.0-2.0-0.10-0.90-3.90,1,0,0,81,false,stim,true,0,1050,0,0,2,95405,task3,468907,false,false,422,image-keyboard-response,21
true,4,0,1,0,true,q,false,true,0.0-2.0-0.10-0.91-3.91,1,0,0,81,false,stim,false,0,361,0,1,0,95405,task3,470803,false,false,425,image-keyboard-response,22
true,4,0,1,1,false,z,false,false,0.0-2.0-0.10-0.92-3.92,1,0,0,81,false,stim,true,0,618,0,0,2,95405,task3,472949,false,false,428,image-keyboard-response,23
true,4,1,1,0,false,q,true,false,0.0-2.0-0.10-0.93-3.93,1,0,0,90,false,stim,false,0,348,0,1,0,95405,task3,474818,false,false,431,image-keyboard-response,24
true,4,1,1,2,false,d,false,false,0.0-2.0-0.10-0.94-3.94,1,0,0,90,false,stim,true,1,340,0,0,1,95405,task3,476670,false,false,434,image-keyboard-response,25
true,4,2,1,0,false,q,true,false,0.0-2.0-0.10-0.95-3.95,1,0,0,68,false,stim,false,0,761,0,0,0,95405,task3,478951,false,false,437,image-keyboard-response,26
true,4,1,1,1,true,z,false,true,0.0-2.0-0.10-0.96-3.96,1,0,0,90,false,stim,false,0,413,0,1,2,95405,task3,480894,false,false,440,image-keyboard-response,27
true,4,1,1,2,false,d,false,false,0.0-2.0-0.10-0.97-3.97,1,0,0,90,false,stim,true,1,414,0,0,1,95405,task3,482834,false,false,443,image-keyboard-response,28
true,4,0,1,2,false,d,true,true,0.0-2.0-0.10-0.98-3.98,1,0,0,81,false,stim,false,1,640,0,0,1,95405,task3,485001,false,true,446,image-keyboard-response,29
true,5,0,1,1,false,z,false,false,0.0-2.0-0.11-0.99-3.99,0,0,1,81,true,stim,true,0,834,0,0,0,95405,task3,487366,false,false,449,image-keyboard-response,1
true,5,1,1,1,true,z,false,false,0.0-2.0-0.11-0.100-3.100,0,0,1,90,false,stim,false,0,457,0,0,0,95405,task3,489347,false,true,452,image-keyboard-response,2
true,5,0,1,0,true,q,false,true,0.0-2.0-0.11-0.101-3.101,0,0,1,81,false,stim,false,2,1464,0,0,1,95405,task3,492336,false,false,455,image-keyboard-response,3
true,5,0,1,1,false,z,true,false,0.0-2.0-0.11-0.102-3.102,0,0,1,81,false,stim,false,1,441,0,1,2,95405,task3,494313,false,false,458,image-keyboard-response,4
true,5,0,1,0,true,q,false,true,0.0-2.0-0.11-0.103-3.103,0,0,1,81,false,stim,false,2,312,0,0,1,95405,task3,496164,false,false,461,image-keyboard-response,5
true,5,0,1,1,false,z,true,true,0.0-2.0-0.11-0.104-3.104,0,0,1,81,false,stim,false,1,349,0,1,2,95405,task3,498041,false,true,464,image-keyboard-response,6
true,5,0,1,0,true,q,false,false,0.0-2.0-0.11-0.105-3.105,0,0,1,81,false,stim,false,2,313,0,0,1,95405,task3,499884,false,true,467,image-keyboard-response,7
true,5,1,1,1,true,z,false,true,0.0-2.0-0.11-0.106-3.106,0,0,1,90,false,stim,false,0,598,0,0,0,95405,task3,502011,false,false,470,image-keyboard-response,8
true,5,0,1,1,false,z,true,false,0.0-2.0-0.11-0.107-3.107,0,0,1,81,false,stim,false,1,321,0,1,2,95405,task3,503873,false,false,473,image-keyboard-response,9
true,5,2,1,1,false,z,true,false,0.0-2.0-0.12-0.108-3.108,0,0,1,68,false,stim,false,0,252,0,0,0,95405,task3,505664,false,false,476,image-keyboard-response,10
true,5,0,1,0,true,q,false,true,0.0-2.0-0.12-0.109-3.109,0,0,1,81,false,stim,false,2,325,0,0,1,95405,task3,507528,false,false,479,image-keyboard-response,11
true,5,0,1,1,false,z,false,false,0.0-2.0-0.12-0.110-3.110,0,0,1,81,false,stim,true,0,370,0,0,0,95405,task3,509433,false,false,482,image-keyboard-response,12
true,5,0,1,0,true,q,false,true,0.0-2.0-0.12-0.111-3.111,0,0,1,81,false,stim,false,2,667,0,0,1,95405,task3,511629,false,false,485,image-keyboard-response,13
true,5,0,1,0,true,q,false,true,0.0-2.0-0.12-0.112-3.112,0,0,1,81,false,stim,false,2,625,0,0,1,95405,task3,513788,false,false,488,image-keyboard-response,14
true,5,1,1,1,true,z,false,true,0.0-2.0-0.12-0.113-3.113,0,0,1,90,false,stim,false,1,776,0,1,2,95405,task3,516098,false,false,491,image-keyboard-response,15
true,5,1,1,1,true,z,false,true,0.0-2.0-0.12-0.114-3.114,0,0,1,90,false,stim,false,1,399,0,1,2,95405,task3,518022,false,false,494,image-keyboard-response,16
true,5,1,1,1,true,z,false,true,0.0-2.0-0.12-0.115-3.115,0,0,1,90,false,stim,false,1,595,0,1,2,95405,task3,520156,false,false,497,image-keyboard-response,17
true,5,2,1,1,false,z,true,false,0.0-2.0-0.12-0.116-3.116,0,0,1,68,false,stim,false,0,994,0,0,0,95405,task3,522665,false,false,500,image-keyboard-response,18
true,5,1,1,1,true,z,false,true,0.0-2.0-0.13-0.117-3.117,0,0,1,90,false,stim,false,0,521,0,0,0,95405,task3,524723,false,false,503,image-keyboard-response,19
true,5,1,1,1,true,z,false,true,0.0-2.0-0.13-0.118-3.118,0,0,1,90,false,stim,false,0,375,0,0,0,95405,task3,526638,false,false,506,image-keyboard-response,20
true,5,1,1,1,true,z,false,true,0.0-2.0-0.13-0.119-3.119,0,0,1,90,false,stim,false,0,393,0,0,0,95405,task3,528555,false,false,509,image-keyboard-response,21
true,5,1,1,1,true,z,false,true,0.0-2.0-0.13-0.120-3.120,0,0,1,90,false,stim,false,1,946,0,1,2,95405,task3,531028,false,false,512,image-keyboard-response,22
true,5,0,1,0,true,q,false,true,0.0-2.0-0.13-0.121-3.121,0,0,1,81,false,stim,false,2,518,0,0,1,95405,task3,533062,false,false,515,image-keyboard-response,23
true,5,0,1,0,true,q,false,true,0.0-2.0-0.13-0.122-3.122,0,0,1,81,false,stim,false,2,545,0,0,1,95405,task3,535147,false,false,518,image-keyboard-response,24
true,5,1,1,1,true,z,false,false,0.0-2.0-0.13-0.123-3.123,0,0,1,90,false,stim,false,1,596,0,1,2,95405,task3,537278,false,true,521,image-keyboard-response,25
true,5,1,1,0,false,q,true,false,0.0-2.0-0.13-0.124-3.124,0,0,1,90,false,stim,false,2,872,0,0,1,95405,task3,539684,false,false,524,image-keyboard-response,26
true,5,0,1,1,false,z,true,false,0.0-2.0-0.13-0.125-3.125,0,0,1,81,false,stim,false,1,499,0,0,2,95405,task3,541710,false,false,527,image-keyboard-response,27
true,5,2,1,1,false,z,true,false,0.0-2.0-0.14-0.126-3.126,0,0,1,68,false,stim,false,0,432,0,1,0,95405,task3,543685,false,false,530,image-keyboard-response,28
true,5,0,1,0,true,q,false,true,0.0-2.0-0.14-0.127-3.127,0,0,1,81,false,stim,false,2,564,0,0,1,95405,task3,545777,false,false,533,image-keyboard-response,29
true,5,0,1,0,true,q,false,true,0.0-2.0-0.14-0.128-3.128,0,0,1,81,false,stim,false,2,429,0,0,1,95405,task3,547742,false,false,536,image-keyboard-response,30
true,6,0,1,1,false,z,false,false,0.0-2.0-0.14-0.129-3.129,1,0,0,81,true,stim,true,0,435,0,0,1,95405,task3,549708,false,false,539,image-keyboard-response,1
true,6,1,1,1,true,z,false,true,0.0-2.0-0.14-0.130-3.130,1,0,0,90,false,stim,false,1,1040,0,1,0,95405,task3,552282,false,false,542,image-keyboard-response,2
true,6,1,1,0,false,q,false,false,0.0-2.0-0.14-0.131-3.131,1,0,0,90,false,stim,true,1,692,0,0,2,95405,task3,554514,false,false,545,image-keyboard-response,3
true,6,0,1,0,true,q,false,false,0.0-2.0-0.14-0.132-3.132,1,0,0,81,false,stim,false,1,744,0,0,2,95405,task3,556786,false,true,548,image-keyboard-response,4
true,6,1,1,0,false,q,false,false,0.0-2.0-0.14-0.133-3.133,1,0,0,90,false,stim,true,1,507,0,0,2,95405,task3,558830,false,false,551,image-keyboard-response,5
true,6,2,1,1,false,z,true,false,0.0-2.0-0.14-0.134-3.134,1,0,0,68,false,stim,false,1,534,0,1,0,95405,task3,560906,false,false,554,image-keyboard-response,6
true,6,0,1,1,false,z,false,false,0.0-2.0-0.15-0.135-3.135,1,0,0,81,false,stim,true,0,1107,0,0,1,95405,task3,563539,false,false,557,image-keyboard-response,7
true,6,1,1,1,true,z,false,true,0.0-2.0-0.15-0.136-3.136,1,0,0,90,false,stim,false,1,973,0,1,0,95405,task3,566046,false,false,560,image-keyboard-response,8
true,6,1,1,0,false,q,false,false,0.0-2.0-0.15-0.137-3.137,1,0,0,90,false,stim,true,1,407,0,0,2,95405,task3,567978,false,false,563,image-keyboard-response,9
true,6,1,1,1,true,z,false,true,0.0-2.0-0.15-0.138-3.138,1,0,0,90,false,stim,false,1,751,0,1,0,95405,task3,570264,false,false,566,image-keyboard-response,10
true,6,0,1,1,false,z,false,false,0.0-2.0-0.15-0.139-3.139,1,0,0,81,false,stim,true,0,752,0,0,1,95405,task3,572543,false,false,569,image-keyboard-response,11
true,6,0,1,1,false,z,false,false,0.0-2.0-0.15-0.140-3.140,1,0,0,81,false,stim,true,0,735,0,0,1,95405,task3,574807,false,false,572,image-keyboard-response,12
true,6,1,1,0,false,q,false,false,0.0-2.0-0.15-0.141-3.141,1,0,0,90,false,stim,true,1,1071,0,0,2,95405,task3,577411,false,false,575,image-keyboard-response,13
true,6,2,1,0,false,q,true,false,0.0-2.0-0.15-0.142-3.142,1,0,0,68,false,stim,false,1,544,0,0,2,95405,task3,579494,false,false,578,image-keyboard-response,14
true,6,0,1,1,false,z,true,false,0.0-2.0-0.15-0.143-3.143,1,0,0,81,false,stim,false,1,674,0,1,0,95405,task3,581706,false,false,581,image-keyboard-response,15
true,6,0,1,1,false,z,false,false,0.0-2.0-0.16-0.144-3.144,1,0,0,81,false,stim,true,0,601,0,0,1,95405,task3,583833,false,false,584,image-keyboard-response,16
true,6,0,1,1,false,z,false,false,0.0-2.0-0.16-0.145-3.145,1,0,0,81,false,stim,true,0,680,0,0,1,95405,task3,586053,false,false,587,image-keyboard-response,17
true,6,1,1,0,false,q,false,false,0.0-2.0-0.16-0.146-3.146,1,0,0,90,false,stim,true,1,547,0,0,2,95405,task3,588130,false,false,590,image-keyboard-response,18
true,6,0,1,1,false,z,true,false,0.0-2.0-0.16-0.147-3.147,1,0,0,81,false,stim,false,1,269,0,1,0,95405,task3,589931,false,false,593,image-keyboard-response,19
true,6,0,1,1,false,z,false,false,0.0-2.0-0.16-0.148-3.148,1,0,0,81,false,stim,true,0,265,0,0,1,95405,task3,591727,false,false,596,image-keyboard-response,20
true,6,2,1,1,false,z,true,false,0.0-2.0-0.16-0.149-3.149,1,0,0,68,false,stim,false,1,1035,0,1,0,95405,task3,594296,false,false,599,image-keyboard-response,21
true,6,1,1,1,true,z,false,true,0.0-2.0-0.16-0.150-3.150,1,0,0,90,false,stim,false,1,701,0,1,0,95405,task3,596518,false,false,602,image-keyboard-response,22
true,6,1,1,0,false,q,false,false,0.0-2.0-0.16-0.151-3.151,1,0,0,90,false,stim,true,1,1479,0,1,2,95405,task3,599520,false,false,605,image-keyboard-response,23
true,7,0,2,0,true,q,false,true,0.0-2.0-0.16-0.152-3.152,1,0,1,81,true,stim,false,0,617,0,1,2,95405,task3,601680,false,false,608,image-keyboard-response,1
true,7,0,2,1,false,z,true,false,0.0-2.0-0.17-0.153-3.153,1,0,1,81,false,stim,false,1,861,0,1,0,95405,task3,604064,false,false,611,image-keyboard-response,2
true,7,0,2,0,true,q,false,true,0.0-2.0-0.17-0.154-3.154,1,0,1,81,false,stim,false,0,654,0,1,2,95405,task3,606256,false,false,614,image-keyboard-response,3
true,7,0,2,0,true,q,false,true,0.0-2.0-0.17-0.155-3.155,1,0,1,81,false,stim,false,0,633,0,1,2,95405,task3,608416,false,false,617,image-keyboard-response,4
true,7,0,2,1,false,z,true,false,0.0-2.0-0.17-0.156-3.156,1,0,1,81,false,stim,false,1,797,0,1,0,95405,task3,610740,false,false,620,image-keyboard-response,5
true,7,1,2,2,false,d,false,false,0.0-2.0-0.17-0.157-3.157,1,0,1,90,false,stim,true,1,1165,0,0,1,95405,task3,613448,false,false,623,image-keyboard-response,6
true,7,0,2,2,false,d,true,false,0.0-2.0-0.17-0.158-3.158,1,0,1,81,false,stim,false,1,1565,0,0,1,95405,task3,616549,false,false,626,image-keyboard-response,7
true,7,1,2,0,false,q,true,false,0.0-2.0-0.17-0.159-3.159,1,0,1,90,false,stim,false,0,2156,0,1,2,95405,task3,620216,false,false,629,image-keyboard-response,8
true,7,0,2,1,false,z,true,false,0.0-2.0-0.17-0.160-3.160,1,0,1,81,false,stim,false,1,1209,0,1,0,95405,task3,622951,false,false,632,image-keyboard-response,9
true,7,1,2,2,false,d,false,false,0.0-2.0-0.17-0.161-3.161,1,0,1,90,false,stim,true,1,912,0,1,1,95405,task3,625395,false,false,635,image-keyboard-response,10
true,7,1,2,2,false,d,false,false,0.0-2.0-0.18-0.162-3.162,1,0,1,90,false,stim,true,1,683,0,1,1,95405,task3,627605,false,false,638,image-keyboard-response,11
true,7,1,2,1,true,z,false,true,0.0-2.0-0.18-0.163-3.163,1,0,1,90,false,stim,false,1,369,0,1,0,95405,task3,629512,false,false,641,image-keyboard-response,12
true,7,1,2,1,true,z,false,true,0.0-2.0-0.18-0.164-3.164,1,0,1,90,false,stim,false,1,482,0,1,0,95405,task3,631525,false,false,644,image-keyboard-response,13
true,8,1,2,2,false,d,true,false,0.0-2.0-0.18-0.165-3.165,1,1,0,90,true,stim,false,2,453,0,1,1,95405,task3,633516,false,false,647,image-keyboard-response,1
true,8,0,2,1,false,z,false,false,0.0-2.0-0.18-0.166-3.166,1,1,0,81,false,stim,true,0,743,0,0,2,95405,task3,635786,false,false,650,image-keyboard-response,2
true,8,0,2,1,false,z,false,false,0.0-2.0-0.18-0.167-3.167,1,1,0,81,false,stim,true,0,878,0,0,2,95405,task3,638200,false,false,653,image-keyboard-response,3
true,8,2,2,1,false,z,true,false,0.0-2.0-0.18-0.168-3.168,1,1,0,68,false,stim,false,1,251,0,1,0,95405,task3,639973,false,false,656,image-keyboard-response,4
true,8,1,2,1,true,z,false,false,0.0-2.0-0.18-0.169-3.169,1,1,0,90,false,stim,false,0,364,0,0,2,95405,task3,641866,false,true,659,image-keyboard-response,5
true,8,0,2,2,false,d,true,false,0.0-2.0-0.18-0.170-3.170,1,1,0,81,false,stim,false,2,455,0,1,1,95405,task3,643858,false,false,662,image-keyboard-response,6
true,8,0,2,1,false,z,false,true,0.0-2.0-0.19-0.171-3.171,1,1,0,81,false,stim,true,0,729,0,0,2,95405,task3,646112,false,true,665,image-keyboard-response,7
true,8,1,2,1,true,z,false,true,0.0-2.0-0.19-0.172-3.172,1,1,0,90,false,stim,false,1,1033,0,1,0,95405,task3,648675,false,false,668,image-keyboard-response,8
true,8,0,2,2,false,d,true,false,0.0-2.0-0.19-0.173-3.173,1,1,0,81,false,stim,false,2,907,0,1,1,95405,task3,651109,false,false,671,image-keyboard-response,9
true,8,1,2,1,true,z,false,true,0.0-2.0-0.19-0.174-3.174,1,1,0,90,false,stim,false,0,1236,0,1,2,95405,task3,653880,false,false,674,image-keyboard-response,10
true,8,1,2,2,false,d,true,false,0.0-2.0-0.19-0.175-3.175,1,1,0,90,false,stim,false,2,1823,0,0,1,95405,task3,657225,false,false,677,image-keyboard-response,11
true,8,0,2,1,false,z,true,false,0.0-2.0-0.19-0.176-3.176,1,1,0,81,false,stim,false,1,1431,0,0,0,95405,task3,660183,false,false,680,image-keyboard-response,12
true,8,0,2,1,false,z,true,false,0.0-2.0-0.19-0.177-3.177,1,1,0,81,false,stim,false,1,1351,0,0,0,95405,task3,663064,false,false,683,image-keyboard-response,13
true,8,0,2,1,false,z,false,false,0.0-2.0-0.19-0.178-3.178,1,1,0,81,false,stim,true,0,1961,0,1,2,95405,task3,666554,false,false,686,image-keyboard-response,14
true,9,0,1,0,true,q,false,true,0.0-2.0-0.19-0.179-3.179,0,0,1,81,true,stim,false,2,1005,0,0,1,95405,task3,669098,false,false,689,image-keyboard-response,1
true,9,1,1,1,true,z,false,true,0.0-2.0-0.20-0.180-3.180,0,0,1,90,false,stim,false,1,874,0,1,2,95405,task3,671507,false,false,692,image-keyboard-response,2
true,9,0,1,0,true,q,false,true,0.0-2.0-0.20-0.181-3.181,0,0,1,81,false,stim,false,2,986,0,0,1,95405,task3,674018,false,false,695,image-keyboard-response,3
true,9,1,1,0,false,q,false,false,0.0-2.0-0.20-0.182-3.182,0,0,1,90,false,stim,true,1,651,0,0,0,95405,task3,676193,false,false,698,image-keyboard-response,4
true,9,0,1,0,true,q,false,true,0.0-2.0-0.20-0.183-3.183,0,0,1,81,false,stim,false,2,431,0,0,1,95405,task3,678158,false,false,701,image-keyboard-response,5
true,9,2,1,0,false,q,true,false,0.0-2.0-0.20-0.184-3.184,0,0,1,68,false,stim,false,1,793,0,0,0,95405,task3,680485,false,false,704,image-keyboard-response,6
true,9,1,1,1,true,z,false,true,0.0-2.0-0.20-0.185-3.185,0,0,1,90,false,stim,false,1,709,0,1,2,95405,task3,682722,false,false,707,image-keyboard-response,7
true,9,0,1,1,false,z,true,false,0.0-2.0-0.20-0.186-3.186,0,0,1,81,false,stim,false,1,376,0,1,2,95405,task3,684628,false,false,710,image-keyboard-response,8
true,9,1,1,0,false,q,false,false,0.0-2.0-0.20-0.187-3.187,0,0,1,90,false,stim,true,1,571,0,0,0,95405,task3,686725,false,false,713,image-keyboard-response,9
true,9,0,1,0,true,q,false,true,0.0-2.0-0.20-0.188-3.188,0,0,1,81,false,stim,false,2,825,0,0,1,95405,task3,689077,false,false,716,image-keyboard-response,10
true,9,2,1,0,false,q,true,false,0.0-2.0-0.21-0.189-3.189,0,0,1,68,false,stim,false,1,1041,0,0,0,95405,task3,691654,false,false,719,image-keyboard-response,11
true,9,1,1,0,false,q,false,false,0.0-2.0-0.21-0.190-3.190,0,0,1,90,false,stim,true,1,844,0,0,0,95405,task3,694036,false,false,722,image-keyboard-response,12
true,9,0,1,0,true,q,false,false,0.0-2.0-0.21-0.191-3.191,0,0,1,81,false,stim,false,2,641,0,0,1,95405,task3,696214,false,true,725,image-keyboard-response,13
true,9,0,1,0,true,q,false,true,0.0-2.0-0.21-0.192-3.192,0,0,1,81,false,stim,false,2,421,0,0,1,95405,task3,698173,false,false,728,image-keyboard-response,14
true,9,0,1,0,true,q,false,true,0.0-2.0-0.21-0.193-3.193,0,0,1,81,false,stim,false,2,1027,0,0,1,95405,task3,700739,false,false,731,image-keyboard-response,15
true,9,1,1,0,false,q,false,false,0.0-2.0-0.21-0.194-3.194,0,0,1,90,false,stim,true,1,551,0,0,0,95405,task3,702825,false,false,734,image-keyboard-response,16
true,9,2,1,1,false,z,true,false,0.0-2.0-0.21-0.195-3.195,0,0,1,68,false,stim,false,1,634,0,1,2,95405,task3,704987,false,false,737,image-keyboard-response,17
true,9,2,1,1,false,z,true,false,0.0-2.0-0.21-0.196-3.196,0,0,1,68,false,stim,false,1,334,0,1,2,95405,task3,706858,false,false,740,image-keyboard-response,18
true,9,2,1,1,false,z,true,false,0.0-2.0-0.21-0.197-3.197,0,0,1,68,false,stim,false,1,567,0,1,2,95405,task3,708950,false,false,743,image-keyboard-response,19
true,9,0,1,0,true,q,false,true,0.0-2.0-0.22-0.198-3.198,0,0,1,81,false,stim,false,1,346,0,0,0,95405,task3,710839,false,false,746,image-keyboard-response,20
true,9,0,1,0,true,q,false,true,0.0-2.0-0.22-0.199-3.199,0,0,1,81,false,stim,false,2,621,0,0,1,95405,task3,712994,false,false,749,image-keyboard-response,21
true,9,0,1,0,true,q,false,true,0.0-2.0-0.22-0.200-3.200,0,0,1,81,false,stim,false,1,497,0,1,0,95405,task3,715029,false,false,752,image-keyboard-response,22
true,9,1,1,1,true,z,false,false,0.0-2.0-0.22-0.201-3.201,0,0,1,90,false,stim,false,1,322,0,1,2,95405,task3,716877,false,true,755,image-keyboard-response,23
true,9,0,1,0,true,q,false,false,0.0-2.0-0.22-0.202-3.202,0,0,1,81,false,stim,false,2,342,0,0,1,95405,task3,718755,false,true,758,image-keyboard-response,24
true,9,0,1,1,false,z,true,false,0.0-2.0-0.22-0.203-3.203,0,0,1,81,false,stim,false,1,1234,0,1,2,95405,task3,721528,false,false,761,image-keyboard-response,25
true,9,0,1,1,false,z,true,false,0.0-2.0-0.22-0.204-3.204,0,0,1,81,false,stim,false,1,1733,0,1,2,95405,task3,724786,false,false,764,image-keyboard-response,26
true,10,1,2,0,false,q,true,false,0.0-2.0-0.22-0.205-3.205,1,0,1,90,true,stim,false,0,1287,0,1,0,95405,task3,727600,false,false,767,image-keyboard-response,1
true,10,0,2,1,false,z,false,false,0.0-2.0-0.22-0.206-3.206,1,0,1,81,false,stim,true,0,860,0,0,1,95405,task3,729993,false,false,770,image-keyboard-response,2
true,10,2,2,0,false,q,true,false,0.0-2.0-0.23-0.207-3.207,1,0,1,68,false,stim,false,0,905,0,1,0,95405,task3,732437,false,false,773,image-keyboard-response,3
false,10,-1,2,1,false,z,true,false,0.0-2.0-0.23-0.208-3.208,1,0,1,,false,stim,false,0,,0,0,1,95405,task3,736991,false,false,776,image-keyboard-response,4
true,10,0,2,0,true,q,false,true,0.0-2.0-0.23-0.209-3.209,1,0,1,81,false,stim,false,0,1449,0,1,0,95405,task3,739983,false,false,779,image-keyboard-response,5
true,10,0,2,1,false,z,true,false,0.0-2.0-0.23-0.210-3.210,1,0,1,81,false,stim,false,1,1410,0,1,2,95405,task3,742923,false,false,782,image-keyboard-response,6
true,10,0,2,1,false,z,false,false,0.0-2.0-0.23-0.211-3.211,1,0,1,81,false,stim,true,0,491,0,0,1,95405,task3,744944,false,false,785,image-keyboard-response,7
true,10,0,2,1,false,z,true,false,0.0-2.0-0.23-0.212-3.212,1,0,1,81,false,stim,false,1,894,0,1,2,95405,task3,747377,false,false,788,image-keyboard-response,8
true,10,1,2,1,true,z,false,false,0.0-2.0-0.23-0.213-3.213,1,0,1,90,false,stim,false,1,730,0,1,2,95405,task3,749634,false,true,791,image-keyboard-response,9
true,10,2,2,0,false,q,true,false,0.0-2.0-0.23-0.214-3.214,1,0,1,68,false,stim,false,0,841,0,1,0,95405,task3,752004,false,false,794,image-keyboard-response,10
true,10,0,2,1,false,z,false,false,0.0-2.0-0.23-0.215-3.215,1,0,1,81,false,stim,true,0,837,0,0,1,95405,task3,754380,false,false,797,image-keyboard-response,11
true,10,0,2,1,false,z,false,false,0.0-2.0-0.24-0.216-3.216,1,0,1,81,false,stim,true,0,594,0,0,1,95405,task3,756497,false,false,800,image-keyboard-response,12
true,10,0,2,1,false,z,false,false,0.0-2.0-0.24-0.217-3.217,1,0,1,81,false,stim,true,0,761,0,0,1,95405,task3,758803,false,false,803,image-keyboard-response,13
true,10,1,2,0,false,q,true,false,0.0-2.0-0.24-0.218-3.218,1,0,1,90,false,stim,false,0,822,0,1,0,95405,task3,761163,false,false,806,image-keyboard-response,14
true,10,0,2,1,false,z,false,false,0.0-2.0-0.24-0.219-3.219,1,0,1,81,false,stim,true,0,791,0,0,1,95405,task3,763494,false,false,809,image-keyboard-response,15
true,10,1,2,1,true,z,false,true,0.0-2.0-0.24-0.220-3.220,1,0,1,90,false,stim,false,1,989,0,1,2,95405,task3,766011,false,false,812,image-keyboard-response,16
true,10,1,2,0,false,q,true,false,0.0-2.0-0.24-0.221-3.221,1,0,1,90,false,stim,false,0,520,0,1,0,95405,task3,768064,false,false,815,image-keyboard-response,17
true,10,2,2,0,false,q,true,true,0.0-2.0-0.24-0.222-3.222,1,0,1,68,false,stim,false,0,639,0,1,0,95405,task3,770243,false,true,818,image-keyboard-response,18
true,10,0,2,1,false,z,true,true,0.0-2.0-0.24-0.223-3.223,1,0,1,81,false,stim,false,1,500,0,1,2,95405,task3,772282,false,true,821,image-keyboard-response,19
true,10,0,2,1,false,z,true,false,0.0-2.0-0.24-0.224-3.224,1,0,1,81,false,stim,false,1,566,0,1,2,95405,task3,774388,false,false,824,image-keyboard-response,20
true,10,0,2,1,false,z,true,false,0.0-2.0-0.25-0.225-3.225,1,0,1,81,false,stim,false,1,1327,0,1,2,95405,task3,777249,false,false,827,image-keyboard-response,21
true,10,0,2,0,true,q,false,true,0.0-2.0-0.25-0.226-3.226,1,0,1,81,false,stim,false,0,429,0,1,0,95405,task3,779212,false,false,830,image-keyboard-response,22
true,10,0,2,1,false,z,true,false,0.0-2.0-0.25-0.227-3.227,1,0,1,81,false,stim,false,1,512,0,1,2,95405,task3,781255,false,false,833,image-keyboard-response,23
true,10,2,2,0,false,q,true,false,0.0-2.0-0.25-0.228-3.228,1,0,1,68,false,stim,false,0,2078,0,0,0,95405,task3,784861,false,false,836,image-keyboard-response,24
true,10,0,2,1,false,z,false,false,0.0-2.0-0.25-0.229-3.229,1,0,1,81,false,stim,true,0,736,0,0,1,95405,task3,787127,false,false,839,image-keyboard-response,25
true,10,1,2,0,false,q,true,false,0.0-2.0-0.25-0.230-3.230,1,0,1,90,false,stim,false,0,675,0,0,0,95405,task3,789327,false,false,842,image-keyboard-response,26
true,10,0,2,1,false,z,true,false,0.0-2.0-0.25-0.231-3.231,1,0,1,81,false,stim,false,1,440,0,1,2,95405,task3,791293,false,false,845,image-keyboard-response,27
true,10,0,2,1,false,z,false,false,0.0-2.0-0.25-0.232-3.232,1,0,1,81,false,stim,true,0,719,0,0,1,95405,task3,793551,false,false,848,image-keyboard-response,28
true,11,0,1,0,true,q,false,true,0.0-2.0-0.25-0.233-3.233,0,0,1,81,true,stim,false,1,1848,0,0,1,95405,task3,796941,false,false,851,image-keyboard-response,1
true,11,0,1,1,false,z,true,false,0.0-2.0-0.26-0.234-3.234,0,0,1,81,false,stim,false,1,560,0,1,2,95405,task3,799033,false,false,854,image-keyboard-response,2
true,11,1,1,2,false,d,true,false,0.0-2.0-0.26-0.235-3.235,0,0,1,90,false,stim,false,0,706,0,0,0,95405,task3,801269,false,false,857,image-keyboard-response,3
true,11,0,1,0,true,q,false,true,0.0-2.0-0.26-0.236-3.236,0,0,1,81,false,stim,false,1,616,0,0,1,95405,task3,803420,false,false,860,image-keyboard-response,4
true,11,2,1,2,true,d,false,true,0.0-2.0-0.26-0.237-3.237,0,0,1,68,false,stim,false,0,822,0,0,0,95405,task3,805784,false,false,863,image-keyboard-response,5
true,11,0,1,0,true,q,false,false,0.0-2.0-0.26-0.238-3.238,0,0,1,81,false,stim,false,1,471,0,0,1,95405,task3,807794,false,true,866,image-keyboard-response,6
true,11,2,1,1,false,z,true,false,0.0-2.0-0.26-0.239-3.239,0,0,1,68,false,stim,false,1,1070,0,1,2,95405,task3,810393,false,false,869,image-keyboard-response,7
true,11,0,1,0,true,q,false,true,0.0-2.0-0.26-0.240-3.240,0,0,1,81,false,stim,false,1,1838,0,0,1,95405,task3,813761,false,false,872,image-keyboard-response,8
true,11,2,1,1,false,z,true,false,0.0-2.0-0.26-0.241-3.241,0,0,1,68,false,stim,false,1,571,0,1,2,95405,task3,815874,false,false,875,image-keyboard-response,9
true,11,1,1,2,false,d,true,true,0.0-2.0-0.26-0.242-3.242,0,0,1,90,false,stim,false,0,1540,0,0,0,95405,task3,818943,false,true,878,image-keyboard-response,10
true,11,0,1,0,true,q,false,false,0.0-2.0-0.27-0.243-3.243,0,0,1,81,false,stim,false,1,627,0,1,1,95405,task3,821110,false,true,881,image-keyboard-response,11
true,11,0,1,0,true,q,false,true,0.0-2.0-0.27-0.244-3.244,0,0,1,81,false,stim,false,1,542,0,1,1,95405,task3,823185,false,false,884,image-keyboard-response,12
true,11,1,1,1,true,z,false,true,0.0-2.0-0.27-0.245-3.245,0,0,1,90,false,stim,false,1,849,0,0,2,95405,task3,825572,false,false,887,image-keyboard-response,13
true,11,1,1,1,true,z,false,true,0.0-2.0-0.27-0.246-3.246,0,0,1,90,false,stim,false,1,376,0,0,2,95405,task3,827490,false,false,890,image-keyboard-response,14
true,11,2,1,2,true,d,false,true,0.0-2.0-0.27-0.247-3.247,0,0,1,68,false,stim,false,0,549,0,1,0,95405,task3,829562,false,false,893,image-keyboard-response,15
true,12,2,2,2,true,d,false,true,0.0-2.0-0.27-0.248-3.248,1,1,0,68,true,stim,false,2,410,0,1,0,95405,task3,831493,false,false,896,image-keyboard-response,1
true,12,0,2,2,false,d,true,false,0.0-2.0-0.27-0.249-3.249,1,1,0,81,false,stim,false,2,1430,0,1,0,95405,task3,834453,false,false,899,image-keyboard-response,2
true,12,2,2,0,false,q,true,false,0.0-2.0-0.27-0.250-3.250,1,1,0,68,false,stim,false,1,854,0,0,2,95405,task3,836834,false,false,902,image-keyboard-response,3
true,12,1,2,0,false,q,true,false,0.0-2.0-0.27-0.251-3.251,1,1,0,90,false,stim,false,0,348,0,1,1,95405,task3,838713,false,false,905,image-keyboard-response,4
true,12,1,2,0,false,q,false,false,0.0-2.0-0.28-0.252-3.252,1,1,0,90,false,stim,true,1,636,0,0,2,95405,task3,840880,false,false,908,image-keyboard-response,5
true,12,1,2,0,false,q,false,false,0.0-2.0-0.28-0.253-3.253,1,1,0,90,false,stim,true,1,401,0,0,2,95405,task3,842804,false,false,911,image-keyboard-response,6
true,12,2,2,0,false,q,true,false,0.0-2.0-0.28-0.254-3.254,1,1,0,68,false,stim,false,1,372,0,0,2,95405,task3,844714,false,false,914,image-keyboard-response,7
true,12,0,2,0,true,q,false,true,0.0-2.0-0.28-0.255-3.255,1,1,0,81,false,stim,false,0,382,0,1,1,95405,task3,846625,false,false,917,image-keyboard-response,8
true,12,0,2,0,true,q,false,true,0.0-2.0-0.28-0.256-3.256,1,1,0,81,false,stim,false,0,267,0,1,1,95405,task3,848431,false,false,920,image-keyboard-response,9
true,12,1,2,2,false,d,true,true,0.0-2.0-0.28-0.257-3.257,1,1,0,90,false,stim,false,2,518,0,1,0,95405,task3,850481,false,true,923,image-keyboard-response,10
true,12,1,2,0,false,q,true,false,0.0-2.0-0.28-0.258-3.258,1,1,0,90,false,stim,false,0,261,0,1,1,95405,task3,852284,false,false,926,image-keyboard-response,11
true,12,2,2,2,true,d,false,true,0.0-2.0-0.28-0.259-3.259,1,1,0,68,false,stim,false,2,690,0,1,0,95405,task3,854513,false,false,929,image-keyboard-response,12
true,12,2,2,2,true,d,false,true,0.0-2.0-0.28-0.260-3.260,1,1,0,68,false,stim,false,2,426,0,1,0,95405,task3,856469,false,false,932,image-keyboard-response,13
true,12,0,2,0,true,q,false,true,0.0-2.0-0.29-0.261-3.261,1,1,0,81,false,stim,false,0,332,0,1,1,95405,task3,858334,false,false,935,image-keyboard-response,14
true,12,0,2,0,true,q,false,false,0.0-2.0-0.29-0.262-3.262,1,1,0,81,false,stim,false,0,315,0,1,1,95405,task3,860178,false,true,938,image-keyboard-response,15
true,12,1,2,2,false,d,true,false,0.0-2.0-0.29-0.263-3.263,1,1,0,90,false,stim,false,2,886,0,1,0,95405,task3,862587,false,false,941,image-keyboard-response,16
true,12,1,2,2,false,d,true,false,0.0-2.0-0.29-0.264-3.264,1,1,0,90,false,stim,false,2,766,0,1,0,95405,task3,864890,false,false,944,image-keyboard-response,17
true,12,2,2,0,false,q,true,false,0.0-2.0-0.29-0.265-3.265,1,1,0,68,false,stim,false,1,392,0,0,2,95405,task3,866814,false,false,947,image-keyboard-response,18
true,12,0,2,0,true,q,false,true,0.0-2.0-0.29-0.266-3.266,1,1,0,81,false,stim,false,0,961,0,1,1,95405,task3,869304,false,false,950,image-keyboard-response,19
true,12,0,2,0,true,q,false,true,0.0-2.0-0.29-0.267-3.267,1,1,0,81,false,stim,false,1,309,0,0,2,95405,task3,871152,false,false,953,image-keyboard-response,20
true,12,1,2,2,false,d,true,false,0.0-2.0-0.29-0.268-3.268,1,1,0,90,false,stim,false,2,385,0,1,0,95405,task3,873067,false,false,956,image-keyboard-response,21
true,12,2,2,0,false,q,true,false,0.0-2.0-0.29-0.269-3.269,1,1,0,68,false,stim,false,1,621,0,0,2,95405,task3,875224,false,false,959,image-keyboard-response,22
true,12,0,2,0,true,q,false,true,0.0-2.0-0.30-0.270-3.270,1,1,0,81,false,stim,false,0,675,0,0,1,95405,task3,877436,false,false,962,image-keyboard-response,23
true,12,0,2,2,false,d,true,true,0.0-2.0-0.30-0.271-3.271,1,1,0,81,false,stim,false,2,289,0,1,0,95405,task3,879251,false,true,965,image-keyboard-response,24
true,13,1,1,1,true,z,false,true,0.0-2.0-0.30-0.272-3.272,1,0,0,90,true,stim,false,0,457,0,0,1,95405,task3,881239,false,false,968,image-keyboard-response,1
true,13,1,1,1,true,z,false,false,0.0-2.0-0.30-0.273-3.273,1,0,0,90,false,stim,false,0,222,0,0,1,95405,task3,882984,false,true,971,image-keyboard-response,2
true,13,2,1,2,true,d,false,true,0.0-2.0-0.30-0.274-3.274,1,0,0,68,false,stim,false,0,320,0,0,2,95405,task3,884844,false,false,974,image-keyboard-response,3
true,13,2,1,2,true,d,false,true,0.0-2.0-0.30-0.275-3.275,1,0,0,68,false,stim,false,0,302,0,0,2,95405,task3,886676,false,false,977,image-keyboard-response,4
true,13,0,1,2,false,d,true,false,0.0-2.0-0.30-0.276-3.276,1,0,0,81,false,stim,false,2,436,0,1,0,95405,task3,888649,false,false,980,image-keyboard-response,5
true,13,1,1,2,false,d,true,false,0.0-2.0-0.30-0.277-3.277,1,0,0,90,false,stim,false,0,331,0,0,2,95405,task3,890504,false,false,983,image-keyboard-response,6
true,13,0,1,2,false,d,true,true,0.0-2.0-0.30-0.278-3.278,1,0,0,81,false,stim,false,2,273,0,1,0,95405,task3,892306,false,true,986,image-keyboard-response,7
true,13,0,1,2,false,d,false,false,0.0-2.0-0.31-0.279-3.279,1,0,0,81,false,stim,true,0,242,0,0,2,95405,task3,894065,false,false,989,image-keyboard-response,8
true,13,1,1,2,false,d,true,false,0.0-2.0-0.31-0.280-3.280,1,0,0,90,false,stim,false,2,670,0,1,0,95405,task3,896263,false,false,992,image-keyboard-response,9
true,13,2,1,2,true,d,false,false,0.0-2.0-0.31-0.281-3.281,1,0,0,68,false,stim,false,2,267,0,1,0,95405,task3,898050,false,true,995,image-keyboard-response,10
true,13,0,1,2,false,d,false,false,0.0-2.0-0.31-0.282-3.282,1,0,0,81,false,stim,true,0,256,0,0,2,95405,task3,899840,false,false,998,image-keyboard-response,11
true,13,1,1,1,true,z,false,true,0.0-2.0-0.31-0.283-3.283,1,0,0,90,false,stim,false,0,188,0,0,1,95405,task3,901578,false,false,1001,image-keyboard-response,12
true,13,0,1,2,false,d,false,false,0.0-2.0-0.31-0.284-3.284,1,0,0,81,false,stim,true,0,271,0,0,2,95405,task3,903374,false,false,1004,image-keyboard-response,13
true,13,2,1,1,false,z,true,false,0.0-2.0-0.31-0.285-3.285,1,0,0,68,false,stim,false,0,307,0,0,1,95405,task3,905211,false,false,1007,image-keyboard-response,14
true,13,1,1,2,false,d,true,false,0.0-2.0-0.31-0.286-3.286,1,0,0,90,false,stim,false,2,339,0,1,0,95405,task3,907082,false,false,1010,image-keyboard-response,15
true,13,0,1,1,false,z,false,false,0.0-2.0-0.31-0.287-3.287,1,0,0,81,false,stim,true,0,59,0,0,1,95405,task3,908670,false,false,1013,image-keyboard-response,16
true,13,0,1,1,false,z,false,false,0.0-2.0-0.32-0.288-3.288,1,0,0,81,false,stim,true,0,240,0,0,1,95405,task3,910443,false,false,1016,image-keyboard-response,17
true,13,0,1,1,false,z,false,true,0.0-2.0-0.32-0.289-3.289,1,0,0,81,false,stim,true,0,367,0,0,1,95405,task3,912349,false,true,1019,image-keyboard-response,18
true,13,0,1,2,false,d,true,false,0.0-2.0-0.32-0.290-3.290,1,0,0,81,false,stim,false,2,214,0,1,0,95405,task3,914097,false,false,1022,image-keyboard-response,19
true,13,0,1,1,false,z,false,false,0.0-2.0-0.32-0.291-3.291,1,0,0,81,false,stim,true,0,430,0,0,1,95405,task3,916052,false,false,1025,image-keyboard-response,20
true,13,1,1,2,false,d,true,false,0.0-2.0-0.32-0.292-3.292,1,0,0,90,false,stim,false,0,318,0,0,2,95405,task3,917900,false,false,1028,image-keyboard-response,21
true,13,2,1,2,true,d,false,true,0.0-2.0-0.32-0.293-3.293,1,0,0,68,false,stim,false,2,304,0,1,0,95405,task3,919727,false,false,1031,image-keyboard-response,22
true,13,2,1,2,true,d,false,true,0.0-2.0-0.32-0.294-3.294,1,0,0,68,false,stim,false,2,220,0,1,0,95405,task3,921484,false,false,1034,image-keyboard-response,23
true,13,0,1,2,false,d,false,true,0.0-2.0-0.32-0.295-3.295,1,0,0,81,false,stim,true,0,697,0,0,2,95405,task3,923720,false,true,1037,image-keyboard-response,24
true,13,0,1,2,false,d,false,false,0.0-2.0-0.32-0.296-3.296,1,0,0,81,false,stim,true,0,382,0,0,2,95405,task3,925620,false,false,1040,image-keyboard-response,25
true,13,1,1,1,true,z,false,true,0.0-2.0-0.33-0.297-3.297,1,0,0,90,false,stim,false,0,641,0,0,1,95405,task3,927783,false,false,1043,image-keyboard-response,26
true,13,1,1,2,false,d,true,false,0.0-2.0-0.33-0.298-3.298,1,0,0,90,false,stim,false,0,302,0,0,2,95405,task3,929626,false,false,1046,image-keyboard-response,27
true,13,0,1,2,false,d,false,false,0.0-2.0-0.33-0.299-3.299,1,0,0,81,false,stim,true,0,501,0,0,2,95405,task3,931663,false,false,1049,image-keyboard-response,28
true,14,0,1,2,false,d,true,false,0.0-2.0-0.33-0.300-3.300,1,0,0,81,true,stim,false,2,1485,0,1,0,95405,task3,934689,false,false,1052,image-keyboard-response,1
true,14,0,1,2,false,d,true,false,0.0-2.0-0.33-0.301-3.301,1,0,0,81,false,stim,false,1,1005,0,0,1,95405,task3,937218,false,false,1055,image-keyboard-response,2
true,14,2,1,2,true,d,false,true,0.0-2.0-0.33-0.302-3.302,1,0,0,68,false,stim,false,2,558,0,1,0,95405,task3,939301,false,false,1058,image-keyboard-response,3
true,14,2,1,1,false,z,false,false,0.0-2.0-0.33-0.303-3.303,1,0,0,68,false,stim,true,2,336,0,0,2,95405,task3,941178,false,false,1061,image-keyboard-response,4
true,14,0,1,2,false,d,true,false,0.0-2.0-0.33-0.304-3.304,1,0,0,81,false,stim,false,1,469,0,0,1,95405,task3,943172,false,false,1064,image-keyboard-response,5
true,14,1,1,2,false,d,true,false,0.0-2.0-0.33-0.305-3.305,1,0,0,90,false,stim,false,2,1865,0,1,0,95405,task3,946567,false,false,1067,image-keyboard-response,6
true,14,0,1,1,false,z,true,false,0.0-2.0-0.34-0.306-3.306,1,0,0,81,false,stim,false,2,707,0,0,2,95405,task3,948801,false,false,1070,image-keyboard-response,7
true,14,0,1,2,false,d,true,false,0.0-2.0-0.34-0.307-3.307,1,0,0,81,false,stim,false,1,617,0,0,1,95405,task3,950950,false,false,1073,image-keyboard-response,8
true,14,1,1,1,true,z,false,true,0.0-2.0-0.34-0.308-3.308,1,0,0,90,false,stim,false,2,545,0,0,2,95405,task3,953028,false,false,1076,image-keyboard-response,9
true,14,2,1,2,true,d,false,true,0.0-2.0-0.34-0.309-3.309,1,0,0,68,false,stim,false,2,309,0,1,0,95405,task3,954872,false,false,1079,image-keyboard-response,10
true,14,2,1,2,true,d,false,true,0.0-2.0-0.34-0.310-3.310,1,0,0,68,false,stim,false,2,304,0,1,0,95405,task3,956707,false,false,1082,image-keyboard-response,11
true,14,0,1,1,false,z,true,false,0.0-2.0-0.34-0.311-3.311,1,0,0,81,false,stim,false,2,577,0,0,2,95405,task3,958819,false,false,1085,image-keyboard-response,12
true,14,0,1,2,false,d,true,false,0.0-2.0-0.34-0.312-3.312,1,0,0,81,false,stim,false,2,399,0,1,0,95405,task3,960742,false,false,1088,image-keyboard-response,13
true,14,0,1,2,false,d,true,false,0.0-2.0-0.34-0.313-3.313,1,0,0,81,false,stim,false,1,685,0,0,1,95405,task3,962967,false,false,1091,image-keyboard-response,14
true,14,1,1,2,false,d,false,false,0.0-2.0-0.34-0.314-3.314,1,0,0,90,false,stim,true,1,243,0,0,1,95405,task3,964745,false,false,1094,image-keyboard-response,15
true,14,2,1,2,true,d,false,true,0.0-2.0-0.35-0.315-3.315,1,0,0,68,false,stim,false,1,4,0,0,1,95405,task3,966286,false,false,1097,image-keyboard-response,16
true,14,2,1,1,false,z,false,true,0.0-2.0-0.35-0.316-3.316,1,0,0,68,false,stim,true,2,349,0,0,2,95405,task3,968172,false,true,1100,image-keyboard-response,17
true,14,0,1,2,false,d,true,false,0.0-2.0-0.35-0.317-3.317,1,0,0,81,false,stim,false,2,766,0,1,0,95405,task3,970486,false,false,1103,image-keyboard-response,18
true,14,0,1,2,false,d,true,false,0.0-2.0-0.35-0.318-3.318,1,0,0,81,false,stim,false,1,1497,0,0,1,95405,task3,973520,false,false,1106,image-keyboard-response,19
true,14,0,1,2,false,d,true,false,0.0-2.0-0.35-0.319-3.319,1,0,0,81,false,stim,false,2,1122,0,1,0,95405,task3,976184,false,false,1109,image-keyboard-response,20
true,14,1,1,2,false,d,false,false,0.0-2.0-0.35-0.320-3.320,1,0,0,90,false,stim,true,1,1012,0,1,1,95405,task3,978736,false,false,1112,image-keyboard-response,21
true,14,0,1,1,false,z,true,false,0.0-2.0-0.35-0.321-3.321,1,0,0,81,false,stim,false,2,801,0,0,2,95405,task3,981064,false,false,1115,image-keyboard-response,22
true,14,0,1,1,false,z,true,false,0.0-2.0-0.35-0.322-3.322,1,0,0,81,false,stim,false,2,368,0,0,2,95405,task3,982970,false,false,1118,image-keyboard-response,23
true,14,0,1,2,false,d,true,false,0.0-2.0-0.35-0.323-3.323,1,0,0,81,false,stim,false,2,1002,0,0,0,95405,task3,985506,false,false,1121,image-keyboard-response,24
true,14,2,1,2,true,d,false,true,0.0-2.0-0.36-0.324-3.324,1,0,0,68,false,stim,false,2,576,0,0,0,95405,task3,987618,false,false,1124,image-keyboard-response,25
true,15,0,1,2,false,d,true,false,0.0-2.0-0.36-0.325-3.325,0,1,0,81,true,stim,false,2,670,0,1,1,95405,task3,989813,false,false,1127,image-keyboard-response,1
true,15,1,1,0,false,q,false,false,0.0-2.0-0.36-0.326-3.326,0,1,0,90,false,stim,true,1,581,0,0,2,95405,task3,991926,false,false,1130,image-keyboard-response,2
true,15,0,1,2,false,d,true,false,0.0-2.0-0.36-0.327-3.327,0,1,0,81,false,stim,false,2,754,0,1,1,95405,task3,994216,false,false,1133,image-keyboard-response,3
true,15,2,1,0,false,q,true,true,0.0-2.0-0.36-0.328-3.328,0,1,0,68,false,stim,false,1,606,0,0,2,95405,task3,996349,false,true,1136,image-keyboard-response,4
true,15,2,1,0,false,q,false,false,0.0-2.0-0.36-0.329-3.329,0,1,0,68,false,stim,true,2,545,0,0,0,95405,task3,998427,false,false,1139,image-keyboard-response,5
true,15,1,1,0,false,q,false,false,0.0-2.0-0.36-0.330-3.330,0,1,0,90,false,stim,true,1,575,0,0,2,95405,task3,1000529,false,false,1142,image-keyboard-response,6
true,15,0,1,2,false,d,true,false,0.0-2.0-0.36-0.331-3.331,0,1,0,81,false,stim,false,2,468,0,1,1,95405,task3,1002520,false,false,1145,image-keyboard-response,7
true,15,0,1,0,true,q,false,true,0.0-2.0-0.36-0.332-3.332,0,1,0,81,false,stim,false,2,571,0,0,0,95405,task3,1004625,false,false,1148,image-keyboard-response,8
true,15,0,1,0,true,q,false,true,0.0-2.0-0.37-0.333-3.333,0,1,0,81,false,stim,false,2,491,0,0,0,95405,task3,1006645,false,false,1151,image-keyboard-response,9
true,15,0,1,0,true,q,false,true,0.0-2.0-0.37-0.334-3.334,0,1,0,81,false,stim,false,2,577,0,0,0,95405,task3,1008730,false,false,1154,image-keyboard-response,10
true,15,1,1,2,false,d,true,false,0.0-2.0-0.37-0.335-3.335,0,1,0,90,false,stim,false,2,492,0,1,1,95405,task3,1010766,false,false,1157,image-keyboard-response,11
true,15,0,1,2,false,d,true,false,0.0-2.0-0.37-0.336-3.336,0,1,0,81,false,stim,false,2,598,0,1,1,95405,task3,1012892,false,false,1160,image-keyboard-response,12
true,15,0,1,0,true,q,false,true,0.0-2.0-0.37-0.337-3.337,0,1,0,81,false,stim,false,2,1075,0,0,0,95405,task3,1015499,false,false,1163,image-keyboard-response,13
true,15,0,1,0,true,q,false,true,0.0-2.0-0.37-0.338-3.338,0,1,0,81,false,stim,false,1,464,0,0,2,95405,task3,1017488,false,false,1166,image-keyboard-response,14
true,15,2,1,0,false,q,true,false,0.0-2.0-0.37-0.339-3.339,0,1,0,68,false,stim,false,1,1067,0,0,2,95405,task3,1020085,false,false,1169,image-keyboard-response,15
true,15,1,1,0,false,q,false,false,0.0-2.0-0.37-0.340-3.340,0,1,0,90,false,stim,true,1,577,0,0,2,95405,task3,1022191,false,false,1172,image-keyboard-response,16
true,15,0,1,2,false,d,true,false,0.0-2.0-0.37-0.341-3.341,0,1,0,81,false,stim,false,2,2688,0,1,1,95405,task3,1026422,false,false,1175,image-keyboard-response,17
true,15,0,1,0,true,q,false,true,0.0-2.0-0.38-0.342-3.342,0,1,0,81,false,stim,false,1,1361,0,0,2,95405,task3,1029324,false,false,1178,image-keyboard-response,18
true,15,0,1,2,false,d,true,false,0.0-2.0-0.38-0.343-3.343,0,1,0,81,false,stim,false,2,1253,0,1,1,95405,task3,1032116,false,false,1181,image-keyboard-response,19
true,15,1,1,0,false,q,true,false,0.0-2.0-0.38-0.344-3.344,0,1,0,90,false,stim,false,2,1193,0,0,0,95405,task3,1034846,false,false,1184,image-keyboard-response,20
true,15,2,1,2,true,d,false,true,0.0-2.0-0.38-0.345-3.345,0,1,0,68,false,stim,false,2,854,0,1,1,95405,task3,1037238,false,false,1187,image-keyboard-response,21
true,15,0,1,0,true,q,false,false,0.0-2.0-0.38-0.346-3.346,0,1,0,81,false,stim,false,2,1002,0,0,0,95405,task3,1039765,false,true,1190,image-keyboard-response,22
true,15,1,1,2,false,d,true,false,0.0-2.0-0.38-0.347-3.347,0,1,0,90,false,stim,false,2,684,0,1,1,95405,task3,1041977,false,false,1193,image-keyboard-response,23
true,15,0,1,0,true,q,false,true,0.0-2.0-0.38-0.348-3.348,0,1,0,81,false,stim,false,2,901,0,0,0,95405,task3,1044414,false,false,1196,image-keyboard-response,24
true,15,0,1,0,true,q,false,true,0.0-2.0-0.38-0.349-3.349,0,1,0,81,false,stim,false,1,1091,0,0,2,95405,task3,1047034,false,false,1199,image-keyboard-response,25
true,15,0,1,0,true,q,false,true,0.0-2.0-0.38-0.350-3.350,0,1,0,81,false,stim,false,1,815,0,0,2,95405,task3,1049377,false,false,1202,image-keyboard-response,26
true,15,0,1,2,false,d,true,false,0.0-2.0-0.39-0.351-3.351,0,1,0,81,false,stim,false,2,2464,0,1,1,95405,task3,1053386,false,false,1205,image-keyboard-response,27
true,15,2,1,2,true,d,false,true,0.0-2.0-0.39-0.352-3.352,0,1,0,68,false,stim,false,2,607,0,1,1,95405,task3,1055530,false,false,1208,image-keyboard-response,28
true,16,2,1,1,false,z,true,false,0.0-2.0-0.39-0.353-3.353,0,1,0,68,true,stim,false,0,1215,0,0,0,95405,task3,1058277,false,false,1211,image-keyboard-response,1
true,16,0,1,1,false,z,false,false,0.0-2.0-0.39-0.354-3.354,0,1,0,81,false,stim,true,0,640,0,0,0,95405,task3,1060443,false,false,1214,image-keyboard-response,2
true,16,1,1,1,true,z,false,true,0.0-2.0-0.39-0.355-3.355,0,1,0,90,false,stim,false,0,348,0,0,0,95405,task3,1062321,false,false,1217,image-keyboard-response,3
true,16,1,1,2,false,d,true,false,0.0-2.0-0.39-0.356-3.356,0,1,0,90,false,stim,false,0,160,0,0,2,95405,task3,1064014,false,false,1220,image-keyboard-response,4
true,16,0,1,2,false,d,true,true,0.0-2.0-0.39-0.357-3.357,0,1,0,81,false,stim,false,2,586,0,1,1,95405,task3,1066139,false,true,1223,image-keyboard-response,5
true,16,2,1,2,true,d,false,false,0.0-2.0-0.39-0.358-3.358,0,1,0,68,false,stim,false,0,829,0,0,2,95405,task3,1068492,false,true,1226,image-keyboard-response,6
true,16,0,1,2,false,d,false,false,0.0-2.0-0.39-0.359-3.359,0,1,0,81,false,stim,true,0,397,0,0,2,95405,task3,1070419,false,false,1229,image-keyboard-response,7
true,16,1,1,2,false,d,true,false,0.0-2.0-0.40-0.360-3.360,0,1,0,90,false,stim,false,2,831,0,0,1,95405,task3,1072794,false,false,1232,image-keyboard-response,8
true,16,0,1,1,false,z,false,false,0.0-2.0-0.40-0.361-3.361,0,1,0,81,false,stim,true,0,743,0,1,0,95405,task3,1075066,false,false,1235,image-keyboard-response,9
true,16,0,1,2,false,d,false,false,0.0-2.0-0.40-0.362-3.362,0,1,0,81,false,stim,true,0,1189,0,1,2,95405,task3,1077793,false,false,1238,image-keyboard-response,10
true,16,0,1,2,false,d,false,false,0.0-2.0-0.40-0.363-3.363,0,1,0,81,false,stim,true,0,336,0,1,2,95405,task3,1079660,false,false,1241,image-keyboard-response,11
true,16,0,1,1,false,z,false,false,0.0-2.0-0.40-0.364-3.364,0,1,0,81,false,stim,true,0,1093,0,1,0,95405,task3,1082275,false,false,1244,image-keyboard-response,12
true,17,0,2,1,false,z,true,false,0.0-2.0-0.40-0.365-3.365,1,0,1,81,true,stim,false,2,1768,0,0,1,95405,task3,1085571,false,false,1247,image-keyboard-response,1
true,17,0,2,1,false,z,true,false,0.0-2.0-0.40-0.366-3.366,1,0,1,81,false,stim,false,2,938,0,0,1,95405,task3,1088042,false,false,1250,image-keyboard-response,2
true,17,1,2,2,false,d,true,false,0.0-2.0-0.40-0.367-3.367,1,0,1,90,false,stim,false,2,1358,0,1,2,95405,task3,1090941,false,false,1253,image-keyboard-response,3
true,17,2,2,1,false,z,true,false,0.0-2.0-0.40-0.368-3.368,1,0,1,68,false,stim,false,1,592,0,1,0,95405,task3,1093076,false,false,1256,image-keyboard-response,4
true,17,0,2,2,false,d,true,false,0.0-2.0-0.41-0.369-3.369,1,0,1,81,false,stim,false,2,1197,0,1,2,95405,task3,1095800,false,false,1259,image-keyboard-response,5
true,17,0,2,1,false,z,true,false,0.0-2.0-0.41-0.370-3.370,1,0,1,81,false,stim,false,2,695,0,0,1,95405,task3,1098018,false,false,1262,image-keyboard-response,6
true,17,1,2,1,true,z,false,true,0.0-2.0-0.41-0.371-3.371,1,0,1,90,false,stim,false,2,607,0,0,1,95405,task3,1100160,false,false,1265,image-keyboard-response,7
true,17,0,2,2,false,d,true,false,0.0-2.0-0.41-0.372-3.372,1,0,1,81,false,stim,false,2,590,0,1,2,95405,task3,1102283,false,false,1268,image-keyboard-response,8
true,17,0,2,1,false,z,true,false,0.0-2.0-0.41-0.373-3.373,1,0,1,81,false,stim,false,1,397,0,1,0,95405,task3,1104219,false,false,1271,image-keyboard-response,9
true,17,0,2,2,false,d,true,false,0.0-2.0-0.41-0.374-3.374,1,0,1,81,false,stim,false,2,640,0,1,2,95405,task3,1106383,false,false,1274,image-keyboard-response,10
true,17,0,2,1,false,z,true,false,0.0-2.0-0.41-0.375-3.375,1,0,1,81,false,stim,false,2,475,0,0,1,95405,task3,1108399,false,false,1277,image-keyboard-response,11
true,17,0,2,1,false,z,true,false,0.0-2.0-0.41-0.376-3.376,1,0,1,81,false,stim,false,1,1147,0,1,0,95405,task3,1111091,false,false,1280,image-keyboard-response,12
true,17,2,2,1,false,z,true,false,0.0-2.0-0.41-0.377-3.377,1,0,1,68,false,stim,false,1,1412,0,1,0,95405,task3,1114034,false,false,1283,image-keyboard-response,13
true,17,0,2,2,false,d,true,false,0.0-2.0-0.42-0.378-3.378,1,0,1,81,false,stim,false,2,1180,0,1,2,95405,task3,1116744,false,false,1286,image-keyboard-response,14
true,17,2,2,2,true,d,false,true,0.0-2.0-0.42-0.379-3.379,1,0,1,68,false,stim,false,2,697,0,1,2,95405,task3,1118981,false,false,1289,image-keyboard-response,15
true,17,2,2,1,false,z,false,false,0.0-2.0-0.42-0.380-3.380,1,0,1,68,false,stim,true,2,606,0,0,1,95405,task3,1121129,false,false,1292,image-keyboard-response,16
true,17,0,2,1,false,z,true,false,0.0-2.0-0.42-0.381-3.381,1,0,1,81,false,stim,false,2,490,0,0,1,95405,task3,1123154,false,false,1295,image-keyboard-response,17
true,17,0,2,1,false,z,true,false,0.0-2.0-0.42-0.382-3.382,1,0,1,81,false,stim,false,1,704,0,1,0,95405,task3,1125387,false,false,1298,image-keyboard-response,18
true,17,1,2,2,false,d,true,false,0.0-2.0-0.42-0.383-3.383,1,0,1,90,false,stim,false,2,1711,0,1,2,95405,task3,1128642,false,false,1301,image-keyboard-response,19
true,17,2,2,1,false,z,true,false,0.0-2.0-0.42-0.384-3.384,1,0,1,68,false,stim,false,1,716,0,1,0,95405,task3,1130890,false,false,1304,image-keyboard-response,20
true,17,0,2,1,false,z,true,false,0.0-2.0-0.42-0.385-3.385,1,0,1,81,false,stim,false,2,578,0,0,1,95405,task3,1132992,false,false,1307,image-keyboard-response,21
true,17,1,2,1,true,z,false,true,0.0-2.0-0.42-0.386-3.386,1,0,1,90,false,stim,false,1,2730,0,1,0,95405,task3,1137264,false,false,1310,image-keyboard-response,22
true,17,0,2,1,false,z,true,false,0.0-2.0-0.43-0.387-3.387,1,0,1,81,false,stim,false,2,597,0,0,1,95405,task3,1139390,false,false,1313,image-keyboard-response,23
true,17,0,2,1,false,z,true,false,0.0-2.0-0.43-0.388-3.388,1,0,1,81,false,stim,false,2,545,0,0,1,95405,task3,1141479,false,false,1316,image-keyboard-response,24
true,17,2,2,2,true,d,false,true,0.0-2.0-0.43-0.389-3.389,1,0,1,68,false,stim,false,2,1447,0,1,2,95405,task3,1144460,false,false,1319,image-keyboard-response,25
true,18,0,2,0,true,q,false,true,0.0-2.0-0.43-0.390-3.390,1,0,1,81,true,stim,false,1,614,0,0,1,95405,task3,1146598,false,false,1322,image-keyboard-response,1
true,18,2,2,2,true,d,false,true,0.0-2.0-0.43-0.391-3.391,1,0,1,68,false,stim,false,2,1048,0,1,2,95405,task3,1149171,false,false,1325,image-keyboard-response,2
true,18,0,2,2,false,d,true,false,0.0-2.0-0.43-0.392-3.392,1,0,1,81,false,stim,false,2,1755,0,1,2,95405,task3,1152457,false,false,1328,image-keyboard-response,3
true,18,2,2,1,false,z,true,true,0.0-2.0-0.43-0.393-3.393,1,0,1,68,false,stim,false,1,1494,0,1,0,95405,task3,1155478,false,true,1331,image-keyboard-response,4
true,18,0,2,1,false,z,true,false,0.0-2.0-0.43-0.394-3.394,1,0,1,81,false,stim,false,1,949,0,1,0,95405,task3,1157953,false,false,1334,image-keyboard-response,5
true,18,1,2,1,true,z,false,true,0.0-2.0-0.43-0.395-3.395,1,0,1,90,false,stim,false,1,805,0,1,0,95405,task3,1160289,false,false,1337,image-keyboard-response,6
true,18,1,2,2,false,d,true,false,0.0-2.0-0.44-0.396-3.396,1,0,1,90,false,stim,false,2,1192,0,1,2,95405,task3,1163015,false,false,1340,image-keyboard-response,7
true,18,0,2,2,false,d,true,false,0.0-2.0-0.44-0.397-3.397,1,0,1,81,false,stim,false,2,1533,0,1,2,95405,task3,1166077,false,false,1343,image-keyboard-response,8
true,18,0,2,1,false,z,true,false,0.0-2.0-0.44-0.398-3.398,1,0,1,81,false,stim,false,1,573,0,0,0,95405,task3,1168176,false,false,1346,image-keyboard-response,9
true,18,0,2,1,false,z,true,false,0.0-2.0-0.44-0.399-3.399,1,0,1,81,false,stim,false,1,1389,0,0,0,95405,task3,1171094,false,false,1349,image-keyboard-response,10
true,18,0,2,0,true,q,false,true,0.0-2.0-0.44-0.400-3.400,1,0,1,81,false,stim,false,1,888,0,1,1,95405,task3,1173512,false,false,1352,image-keyboard-response,11
true,18,0,2,0,true,q,false,true,0.0-2.0-0.44-0.401-3.401,1,0,1,81,false,stim,false,1,596,0,1,1,95405,task3,1175641,false,false,1355,image-keyboard-response,12
true,19,0,2,0,true,q,false,true,0.0-2.0-0.44-0.402-3.402,0,1,1,81,true,stim,false,0,1740,0,1,1,95405,task3,1178923,false,false,1358,image-keyboard-response,1
true,19,1,2,2,false,d,false,false,0.0-2.0-0.44-0.403-3.403,0,1,1,90,false,stim,true,1,554,0,0,0,95405,task3,1181017,false,false,1361,image-keyboard-response,2
true,19,2,2,2,true,d,false,true,0.0-2.0-0.44-0.404-3.404,0,1,1,68,false,stim,false,2,1202,0,1,2,95405,task3,1183745,false,false,1364,image-keyboard-response,3
true,19,2,2,2,true,d,false,true,0.0-2.0-0.45-0.405-3.405,0,1,1,68,false,stim,false,2,453,0,1,2,95405,task3,1185737,false,false,1367,image-keyboard-response,4
true,19,0,2,0,true,q,false,true,0.0-2.0-0.45-0.406-3.406,0,1,1,81,false,stim,false,0,554,0,1,1,95405,task3,1187818,false,false,1370,image-keyboard-response,5
true,19,0,2,0,true,q,false,false,0.0-2.0-0.45-0.407-3.407,0,1,1,81,false,stim,false,0,483,0,1,1,95405,task3,1189826,false,true,1373,image-keyboard-response,6
true,19,2,2,0,false,q,true,false,0.0-2.0-0.45-0.408-3.408,0,1,1,68,false,stim,false,0,401,0,0,1,95405,task3,1191764,false,false,1376,image-keyboard-response,7
true,19,0,2,2,false,d,true,true,0.0-2.0-0.45-0.409-3.409,0,1,1,81,false,stim,false,2,1893,0,0,2,95405,task3,1195196,false,true,1379,image-keyboard-response,8
true,19,0,2,2,false,d,true,false,0.0-2.0-0.45-0.410-3.410,0,1,1,81,false,stim,false,1,606,0,1,0,95405,task3,1197329,false,false,1382,image-keyboard-response,9
true,19,2,2,2,true,d,false,true,0.0-2.0-0.45-0.411-3.411,0,1,1,68,false,stim,false,2,1293,0,0,2,95405,task3,1200157,false,false,1385,image-keyboard-response,10
true,19,1,2,2,false,d,false,false,0.0-2.0-0.45-0.412-3.412,0,1,1,90,false,stim,true,1,1060,0,1,0,95405,task3,1202744,false,false,1388,image-keyboard-response,11
true,20,0,1,2,false,d,true,false,0.0-2.0-0.45-0.413-3.413,1,0,0,81,true,stim,false,2,1649,0,1,0,95405,task3,1205932,false,false,1391,image-keyboard-response,1
true,20,1,1,0,false,q,true,false,0.0-2.0-0.46-0.414-3.414,1,0,0,90,false,stim,false,2,2831,0,0,2,95405,task3,1210295,false,false,1394,image-keyboard-response,2
true,20,0,1,2,false,d,true,false,0.0-2.0-0.46-0.415-3.415,1,0,0,81,false,stim,false,2,2790,0,1,0,95405,task3,1214615,false,false,1397,image-keyboard-response,3
true,20,1,1,2,false,d,true,false,0.0-2.0-0.46-0.416-3.416,1,0,0,90,false,stim,false,0,1145,0,0,1,95405,task3,1217299,false,false,1400,image-keyboard-response,4
false,20,-1,1,2,false,d,true,false,0.0-2.0-0.46-0.417-3.417,1,0,0,,false,stim,false,2,,0,1,0,95405,task3,1221862,false,false,1403,image-keyboard-response,5
false,20,-1,1,2,false,d,true,false,0.0-2.0-0.46-0.418-3.418,1,0,0,,false,stim,false,0,,0,0,1,95405,task3,1226411,false,false,1406,image-keyboard-response,6
true,20,1,1,0,false,q,true,false,0.0-2.0-0.46-0.419-3.419,1,0,0,90,false,stim,false,2,933,0,0,2,95405,task3,1228887,false,false,1409,image-keyboard-response,7
true,20,0,1,0,true,q,false,true,0.0-2.0-0.46-0.420-3.420,1,0,0,81,false,stim,false,2,2804,0,0,2,95405,task3,1233218,false,false,1412,image-keyboard-response,8
true,20,1,1,2,false,d,true,false,0.0-2.0-0.46-0.421-3.421,1,0,0,90,false,stim,false,2,2517,0,1,0,95405,task3,1237269,false,false,1415,image-keyboard-response,9
false,20,-1,1,2,false,d,true,false,0.0-2.0-0.46-0.422-3.422,1,0,0,,false,stim,false,0,,0,0,1,95405,task3,1241822,false,false,1418,image-keyboard-response,10
true,20,0,1,2,false,d,false,false,0.0-2.0-0.47-0.423-3.423,1,0,0,81,false,stim,true,0,1526,0,0,1,95405,task3,1244889,false,false,1421,image-keyboard-response,11
true,20,1,1,0,false,q,true,false,0.0-2.0-0.47-0.424-3.424,1,0,0,90,false,stim,false,2,2173,0,0,2,95405,task3,1248597,false,false,1424,image-keyboard-response,12
true,20,0,1,0,true,q,false,true,0.0-2.0-0.47-0.425-3.425,1,0,0,81,false,stim,false,2,1740,0,0,2,95405,task3,1251865,false,false,1427,image-keyboard-response,13
false,20,-1,1,2,false,d,true,false,0.0-2.0-0.47-0.426-3.426,1,0,0,,false,stim,false,2,,0,1,0,95405,task3,1256421,false,false,1430,image-keyboard-response,14
true,20,0,1,2,false,d,true,false,0.0-2.0-0.47-0.427-3.427,1,0,0,81,false,stim,false,2,1463,0,1,0,95405,task3,1259426,false,false,1433,image-keyboard-response,15
false,20,-1,1,2,false,d,true,false,0.0-2.0-0.47-0.428-3.428,1,0,0,,false,stim,false,0,,0,0,1,95405,task3,1263982,false,false,1436,image-keyboard-response,16
true,20,0,1,2,false,d,true,false,0.0-2.0-0.47-0.429-3.429,1,0,0,81,false,stim,false,2,1081,0,1,0,95405,task3,1266604,false,false,1439,image-keyboard-response,17
true,20,0,1,0,true,q,false,false,0.0-2.0-0.47-0.430-3.430,1,0,0,81,false,stim,false,2,828,0,0,2,95405,task3,1268972,false,true,1442,image-keyboard-response,18
true,20,1,1,2,false,d,true,false,0.0-2.0-0.47-0.431-3.431,1,0,0,90,false,stim,false,0,2248,0,0,1,95405,task3,1272751,false,false,1445,image-keyboard-response,19
true,20,1,1,2,false,d,true,false,0.0-2.0-0.48-0.432-3.432,1,0,0,90,false,stim,false,0,1984,0,0,1,95405,task3,1276268,false,false,1448,image-keyboard-response,20
true,20,0,1,2,false,d,true,false,0.0-2.0-0.48-0.433-3.433,1,0,0,81,false,stim,false,2,1739,0,1,0,95405,task3,1279543,false,false,1451,image-keyboard-response,21
true,20,2,1,2,true,d,false,true,0.0-2.0-0.48-0.434-3.434,1,0,0,68,false,stim,false,0,1314,0,0,1,95405,task3,1282397,false,false,1454,image-keyboard-response,22
true,20,2,1,0,false,q,false,false,0.0-2.0-0.48-0.435-3.435,1,0,0,68,false,stim,true,2,1196,0,0,2,95405,task3,1285120,false,false,1457,image-keyboard-response,23
true,20,0,1,2,false,d,false,false,0.0-2.0-0.48-0.436-3.436,1,0,0,81,false,stim,true,0,2189,0,0,1,95405,task3,1288833,false,false,1460,image-keyboard-response,24
false,20,-1,1,2,false,d,true,false,0.0-2.0-0.48-0.437-3.437,1,0,0,,false,stim,false,2,,0,1,0,95405,task3,1293371,false,false,1463,image-keyboard-response,25
true,20,2,1,2,true,d,false,true,0.0-2.0-0.48-0.438-3.438,1,0,0,68,false,stim,false,2,2334,0,1,0,95405,task3,1297237,false,false,1466,image-keyboard-response,26
false,20,-1,1,0,false,q,true,false,0.0-2.0-0.48-0.439-3.439,1,0,0,,false,stim,false,2,,0,1,2,95405,task3,1301771,false,false,1469,image-keyboard-response,27
true,20,0,1,0,true,q,false,true,0.0-2.0-0.48-0.440-3.440,1,0,0,81,false,stim,false,2,811,0,1,2,95405,task3,1304124,false,false,1472,image-keyboard-response,28
true,21,1,2,2,false,d,true,false,0.0-2.0-0.49-0.441-3.441,1,0,1,90,true,stim,false,2,1373,0,1,0,95405,task3,1307028,false,false,1475,image-keyboard-response,1
true,21,0,2,1,false,z,true,false,0.0-2.0-0.49-0.442-3.442,1,0,1,81,false,stim,false,2,1221,0,0,1,95405,task3,1309775,false,false,1478,image-keyboard-response,2
true,21,0,2,0,true,q,false,true,0.0-2.0-0.49-0.443-3.443,1,0,1,81,false,stim,false,0,991,0,1,2,95405,task3,1312304,false,false,1481,image-keyboard-response,3
true,21,2,2,2,true,d,false,true,0.0-2.0-0.49-0.444-3.444,1,0,1,68,false,stim,false,2,1788,0,1,0,95405,task3,1315621,false,false,1484,image-keyboard-response,4
true,21,0,2,1,false,z,true,false,0.0-2.0-0.49-0.445-3.445,1,0,1,81,false,stim,false,2,803,0,0,1,95405,task3,1317957,false,false,1487,image-keyboard-response,5
true,21,1,2,2,false,d,true,true,0.0-2.0-0.49-0.446-3.446,1,0,1,90,false,stim,false,2,1030,0,1,0,95405,task3,1320523,false,true,1490,image-keyboard-response,6
true,21,0,2,1,false,z,true,false,0.0-2.0-0.49-0.447-3.447,1,0,1,81,false,stim,false,2,1821,0,0,1,95405,task3,1323876,false,false,1493,image-keyboard-response,7
true,21,2,2,0,false,q,true,false,0.0-2.0-0.49-0.448-3.448,1,0,1,68,false,stim,false,0,1089,0,1,2,95405,task3,1326502,false,false,1496,image-keyboard-response,8
true,21,0,2,0,true,q,false,true,0.0-2.0-0.49-0.449-3.449,1,0,1,81,false,stim,false,0,1591,0,1,2,95405,task3,1329626,false,false,1499,image-keyboard-response,9
true,21,0,2,2,false,d,true,false,0.0-2.0-0.50-0.450-3.450,1,0,1,81,false,stim,false,2,2762,0,1,0,95405,task3,1333916,false,false,1502,image-keyboard-response,10
true,21,0,2,0,true,q,false,true,0.0-2.0-0.50-0.451-3.451,1,0,1,81,false,stim,false,0,2609,0,0,2,95405,task3,1338064,false,false,1505,image-keyboard-response,11
true,21,0,2,0,true,q,false,true,0.0-2.0-0.50-0.452-3.452,1,0,1,81,false,stim,false,0,1262,0,0,2,95405,task3,1340866,false,false,1508,image-keyboard-response,12
true,21,1,2,1,true,z,false,true,0.0-2.0-0.50-0.453-3.453,1,0,1,90,false,stim,false,2,2150,0,1,1,95405,task3,1344553,false,false,1511,image-keyboard-response,13
true,21,0,2,2,false,d,true,false,0.0-2.0-0.50-0.454-3.454,1,0,1,81,false,stim,false,2,1104,0,1,0,95405,task3,1347188,false,false,1514,image-keyboard-response,14
true,21,2,2,0,false,q,true,false,0.0-2.0-0.50-0.455-3.455,1,0,1,68,false,stim,false,0,1512,0,0,2,95405,task3,1350235,false,false,1517,image-keyboard-response,15
true,22,0,2,1,false,z,true,false,0.0-2.0-0.50-0.456-3.456,1,1,0,81,true,stim,false,1,1174,0,1,1,95405,task3,1352937,false,false,1520,image-keyboard-response,1
false,22,-1,2,2,false,d,true,false,0.0-2.0-0.50-0.457-3.457,1,1,0,,false,stim,false,2,,0,1,0,95405,task3,1357481,false,false,1523,image-keyboard-response,2
true,22,0,2,1,false,z,true,false,0.0-2.0-0.50-0.458-3.458,1,1,0,81,false,stim,false,1,953,0,1,1,95405,task3,1359977,false,false,1526,image-keyboard-response,3
true,22,0,2,1,false,z,true,false,0.0-2.0-0.51-0.459-3.459,1,1,0,81,false,stim,false,1,2812,0,1,1,95405,task3,1364325,false,false,1529,image-keyboard-response,4
true,22,0,2,1,false,z,false,false,0.0-2.0-0.51-0.460-3.460,1,1,0,81,false,stim,true,0,953,0,0,2,95405,task3,1366807,false,false,1532,image-keyboard-response,5
true,22,1,2,1,true,z,false,true,0.0-2.0-0.51-0.461-3.461,1,1,0,90,false,stim,false,0,696,0,0,2,95405,task3,1369029,false,false,1535,image-keyboard-response,6
true,22,1,2,1,true,z,false,true,0.0-2.0-0.51-0.462-3.462,1,1,0,90,false,stim,false,0,2300,0,0,2,95405,task3,1372855,false,false,1538,image-keyboard-response,7
true,22,0,2,1,false,z,true,false,0.0-2.0-0.51-0.463-3.463,1,1,0,81,false,stim,false,1,922,0,1,1,95405,task3,1375304,false,false,1541,image-keyboard-response,8
true,22,1,2,1,true,z,false,true,0.0-2.0-0.51-0.464-3.464,1,1,0,90,false,stim,false,1,585,0,1,1,95405,task3,1377431,false,false,1544,image-keyboard-response,9
true,22,2,2,2,true,d,false,false,0.0-2.0-0.51-0.465-3.465,1,1,0,68,false,stim,false,2,455,0,1,0,95405,task3,1379419,false,true,1547,image-keyboard-response,10
true,22,0,2,2,false,d,true,true,0.0-2.0-0.51-0.466-3.466,1,1,0,81,false,stim,false,2,721,0,1,0,95405,task3,1381674,false,true,1550,image-keyboard-response,11
true,22,0,2,2,false,d,true,true,0.0-2.0-0.51-0.467-3.467,1,1,0,81,false,stim,false,2,436,0,1,0,95405,task3,1383649,false,true,1553,image-keyboard-response,12
true,22,1,2,1,true,z,false,true,0.0-2.0-0.52-0.468-3.468,1,1,0,90,false,stim,false,1,588,0,1,1,95405,task3,1385770,false,false,1556,image-keyboard-response,13
true,22,1,2,2,false,d,true,false,0.0-2.0-0.52-0.469-3.469,1,1,0,90,false,stim,false,2,805,0,1,0,95405,task3,1388109,false,false,1559,image-keyboard-response,14
true,22,2,2,1,false,z,true,false,0.0-2.0-0.52-0.470-3.470,1,1,0,68,false,stim,false,0,1185,0,0,2,95405,task3,1390830,false,false,1562,image-keyboard-response,15
true,22,1,2,1,true,z,false,true,0.0-2.0-0.52-0.471-3.471,1,1,0,90,false,stim,false,0,547,0,0,2,95405,task3,1392900,false,false,1565,image-keyboard-response,16
true,22,0,2,1,false,z,true,false,0.0-2.0-0.52-0.472-3.472,1,1,0,81,false,stim,false,1,566,0,1,1,95405,task3,1394998,false,false,1568,image-keyboard-response,17
true,22,1,2,1,true,z,false,true,0.0-2.0-0.52-0.473-3.473,1,1,0,90,false,stim,false,1,673,0,1,1,95405,task3,1397206,false,false,1571,image-keyboard-response,18
true,22,0,2,1,false,z,false,false,0.0-2.0-0.52-0.474-3.474,1,1,0,81,false,stim,true,0,627,0,0,2,95405,task3,1399360,false,false,1574,image-keyboard-response,19
true,22,1,2,2,false,d,true,false,0.0-2.0-0.52-0.475-3.475,1,1,0,90,false,stim,false,2,425,0,0,0,95405,task3,1401319,false,false,1577,image-keyboard-response,20
true,22,0,2,2,false,d,true,false,0.0-2.0-0.52-0.476-3.476,1,1,0,81,false,stim,false,2,323,0,0,0,95405,task3,1403177,false,false,1580,image-keyboard-response,21
true,22,1,2,1,true,z,false,true,0.0-2.0-0.53-0.477-3.477,1,1,0,90,false,stim,false,0,804,0,0,2,95405,task3,1405507,false,false,1583,image-keyboard-response,22
true,22,2,2,1,false,z,true,false,0.0-2.0-0.53-0.478-3.478,1,1,0,68,false,stim,false,1,664,0,1,1,95405,task3,1407708,false,false,1586,image-keyboard-response,23
true,22,1,2,2,false,d,true,false,0.0-2.0-0.53-0.479-3.479,1,1,0,90,false,stim,false,2,634,0,0,0,95405,task3,1409877,false,false,1589,image-keyboard-response,24
true,23,1,1,0,false,q,true,false,0.0-2.0-0.53-0.480-3.480,0,1,0,90,true,stim,false,2,566,0,0,0,95405,task3,1411990,false,false,1592,image-keyboard-response,1
true,23,0,1,1,false,z,true,false,0.0-2.0-0.53-0.481-3.481,0,1,0,81,false,stim,false,1,686,0,1,1,95405,task3,1414209,false,false,1595,image-keyboard-response,2
true,23,2,1,0,false,q,false,false,0.0-2.0-0.53-0.482-3.482,0,1,0,68,false,stim,true,2,905,0,0,0,95405,task3,1416649,false,false,1598,image-keyboard-response,3
true,23,0,1,2,false,d,true,false,0.0-2.0-0.53-0.483-3.483,0,1,0,81,false,stim,false,1,670,0,0,2,95405,task3,1418874,false,false,1601,image-keyboard-response,4
true,23,1,1,1,true,z,false,true,0.0-2.0-0.53-0.484-3.484,0,1,0,90,false,stim,false,1,693,0,1,1,95405,task3,1421097,false,false,1604,image-keyboard-response,5
true,23,1,1,2,false,d,false,false,0.0-2.0-0.53-0.485-3.485,0,1,0,90,false,stim,true,1,570,0,0,2,95405,task3,1423214,false,false,1607,image-keyboard-response,6
true,23,2,1,0,false,q,false,false,0.0-2.0-0.54-0.486-3.486,0,1,0,68,false,stim,true,2,853,0,0,0,95405,task3,1425597,false,false,1610,image-keyboard-response,7
true,23,0,1,1,false,z,true,false,0.0-2.0-0.54-0.487-3.487,0,1,0,81,false,stim,false,1,984,0,1,1,95405,task3,1428107,false,false,1613,image-keyboard-response,8
true,23,1,1,1,true,z,false,true,0.0-2.0-0.54-0.488-3.488,0,1,0,90,false,stim,false,1,795,0,1,1,95405,task3,1430439,false,false,1616,image-keyboard-response,9
true,23,1,1,2,false,d,false,false,0.0-2.0-0.54-0.489-3.489,0,1,0,90,false,stim,true,1,503,0,1,2,95405,task3,1432467,false,false,1619,image-keyboard-response,10
true,23,0,1,0,true,q,false,true,0.0-2.0-0.54-0.490-3.490,0,1,0,81,false,stim,false,2,505,0,1,0,95405,task3,1434510,false,false,1622,image-keyboard-response,11
true,23,2,1,2,true,d,false,true,0.0-2.0-0.54-0.491-3.491,0,1,0,68,false,stim,false,1,988,0,1,2,95405,task3,1437033,false,false,1625,image-keyboard-response,12
true,23,2,1,2,true,d,false,true,0.0-2.0-0.54-0.492-3.492,0,1,0,68,false,stim,false,1,508,0,1,2,95405,task3,1439072,false,false,1628,image-keyboard-response,13
true,23,0,1,1,false,z,true,false,0.0-2.0-0.54-0.493-3.493,0,1,0,81,false,stim,false,1,1100,0,0,1,95405,task3,1441704,false,false,1631,image-keyboard-response,14
true,24,1,2,0,false,q,true,false,0.0-2.0-0.54-0.494-3.494,1,0,1,90,true,stim,false,0,626,0,1,0,95405,task3,1443869,false,false,1634,image-keyboard-response,1
true,24,2,2,2,true,d,false,true,0.0-2.0-0.55-0.495-3.495,1,0,1,68,false,stim,false,2,432,0,1,2,95405,task3,1445836,false,false,1637,image-keyboard-response,2
true,24,2,2,2,true,d,false,true,0.0-2.0-0.55-0.496-3.496,1,0,1,68,false,stim,false,1,666,0,0,1,95405,task3,1448029,false,false,1640,image-keyboard-response,3
true,24,0,2,0,true,q,false,true,0.0-2.0-0.55-0.497-3.497,1,0,1,81,false,stim,false,0,409,0,1,0,95405,task3,1449973,false,false,1643,image-keyboard-response,4
true,24,2,2,2,true,d,false,true,0.0-2.0-0.55-0.498-3.498,1,0,1,68,false,stim,false,2,545,0,1,2,95405,task3,1452049,false,false,1646,image-keyboard-response,5
true,24,0,2,2,false,d,true,false,0.0-2.0-0.55-0.499-3.499,1,0,1,81,false,stim,false,1,351,0,0,1,95405,task3,1453926,false,false,1649,image-keyboard-response,6
true,24,1,2,0,false,q,true,false,0.0-2.0-0.55-0.500-3.500,1,0,1,90,false,stim,false,0,266,0,1,0,95405,task3,1455720,false,false,1652,image-keyboard-response,7
true,24,2,2,2,true,d,false,false,0.0-2.0-0.55-0.501-3.501,1,0,1,68,false,stim,false,2,540,0,1,2,95405,task3,1457794,false,true,1655,image-keyboard-response,8
true,24,0,2,2,false,d,true,false,0.0-2.0-0.55-0.502-3.502,1,0,1,81,false,stim,false,1,343,0,0,1,95405,task3,1459677,false,false,1658,image-keyboard-response,9
true,24,0,2,0,true,q,false,true,0.0-2.0-0.55-0.503-3.503,1,0,1,81,false,stim,false,0,510,0,1,0,95405,task3,1461724,false,false,1661,image-keyboard-response,10
true,24,0,2,0,true,q,false,false,0.0-2.0-0.56-0.504-3.504,1,0,1,81,false,stim,false,0,524,0,1,0,95405,task3,1463778,false,true,1664,image-keyboard-response,11
true,24,1,2,0,false,q,true,false,0.0-2.0-0.56-0.505-3.505,1,0,1,90,false,stim,false,0,343,0,1,0,95405,task3,1465658,false,false,1667,image-keyboard-response,12
true,24,1,2,2,false,d,true,false,0.0-2.0-0.56-0.506-3.506,1,0,1,90,false,stim,false,2,388,0,1,2,95405,task3,1467580,false,false,1670,image-keyboard-response,13
true,24,2,2,2,true,d,false,true,0.0-2.0-0.56-0.507-3.507,1,0,1,68,false,stim,false,1,1033,0,0,1,95405,task3,1470147,false,false,1673,image-keyboard-response,14
true,24,2,2,2,true,d,false,false,0.0-2.0-0.56-0.508-3.508,1,0,1,68,false,stim,false,1,543,0,0,1,95405,task3,1472207,false,true,1676,image-keyboard-response,15
true,24,0,2,0,true,q,false,true,0.0-2.0-0.56-0.509-3.509,1,0,1,81,false,stim,false,0,609,0,1,0,95405,task3,1474353,false,false,1679,image-keyboard-response,16
true,24,1,2,2,false,d,true,false,0.0-2.0-0.56-0.510-3.510,1,0,1,90,false,stim,false,2,871,0,1,2,95405,task3,1476754,false,false,1682,image-keyboard-response,17
true,24,0,2,2,false,d,true,false,0.0-2.0-0.56-0.511-3.511,1,0,1,81,false,stim,false,1,1556,0,0,1,95405,task3,1479840,false,false,1685,image-keyboard-response,18
true,24,1,2,2,false,d,true,false,0.0-2.0-0.56-0.512-3.512,1,0,1,90,false,stim,false,2,840,0,1,2,95405,task3,1482204,false,false,1688,image-keyboard-response,19
true,24,1,2,0,false,q,true,false,0.0-2.0-0.57-0.513-3.513,1,0,1,90,false,stim,false,0,1647,0,1,0,95405,task3,1485390,false,false,1691,image-keyboard-response,20
true,24,0,2,2,false,d,true,false,0.0-2.0-0.57-0.514-3.514,1,0,1,81,false,stim,false,1,223,0,0,1,95405,task3,1487148,false,false,1694,image-keyboard-response,21
true,24,1,2,0,false,q,true,false,0.0-2.0-0.57-0.515-3.515,1,0,1,90,false,stim,false,0,643,0,1,0,95405,task3,1489327,false,false,1697,image-keyboard-response,22
true,24,0,2,2,false,d,true,false,0.0-2.0-0.57-0.516-3.516,1,0,1,81,false,stim,false,2,438,0,1,2,95405,task3,1491302,false,false,1700,image-keyboard-response,23
true,24,2,2,2,true,d,false,true,0.0-2.0-0.57-0.517-3.517,1,0,1,68,false,stim,false,1,986,0,0,1,95405,task3,1493850,false,false,1703,image-keyboard-response,24
true,24,2,2,2,true,d,false,true,0.0-2.0-0.57-0.518-3.518,1,0,1,68,false,stim,false,2,1236,0,0,2,95405,task3,1496620,false,false,1706,image-keyboard-response,25
true,24,2,2,2,true,d,false,true,0.0-2.0-0.57-0.519-3.519,1,0,1,68,false,stim,false,2,378,0,0,2,95405,task3,1498523,false,false,1709,image-keyboard-response,26
true,24,0,2,2,false,d,true,true,0.0-2.0-0.57-0.520-3.520,1,0,1,81,false,stim,false,1,1251,0,0,1,95405,task3,1501316,false,true,1712,image-keyboard-response,27
true,24,0,2,0,true,q,false,true,0.0-2.0-0.57-0.521-3.521,1,0,1,81,false,stim,false,0,1291,0,1,0,95405,task3,1504135,false,false,1715,image-keyboard-response,28
true,25,1,1,1,true,z,false,true,0.0-2.0-0.58-0.522-3.522,1,0,0,90,true,stim,false,2,1043,0,0,1,95405,task3,1506708,false,false,1718,image-keyboard-response,1
true,25,0,1,0,true,q,false,true,0.0-2.0-0.58-0.523-3.523,1,0,0,81,false,stim,false,2,915,0,0,2,95405,task3,1509160,false,false,1721,image-keyboard-response,2
true,25,0,1,1,false,z,true,false,0.0-2.0-0.58-0.524-3.524,1,0,0,81,false,stim,false,2,1138,0,0,1,95405,task3,1511842,false,false,1724,image-keyboard-response,3
true,25,1,1,0,false,q,true,false,0.0-2.0-0.58-0.525-3.525,1,0,0,90,false,stim,false,2,729,0,0,2,95405,task3,1514114,false,false,1727,image-keyboard-response,4
true,25,1,1,0,false,q,true,false,0.0-2.0-0.58-0.526-3.526,1,0,0,90,false,stim,false,0,860,0,1,0,95405,task3,1516495,false,false,1730,image-keyboard-response,5
true,25,1,1,0,false,q,true,false,0.0-2.0-0.58-0.527-3.527,1,0,0,90,false,stim,false,0,1733,0,1,0,95405,task3,1519766,false,false,1733,image-keyboard-response,6
true,25,2,1,0,false,q,true,true,0.0-2.0-0.58-0.528-3.528,1,0,0,68,false,stim,false,0,301,0,1,0,95405,task3,1521591,false,true,1736,image-keyboard-response,7
true,25,0,1,1,false,z,true,true,0.0-2.0-0.58-0.529-3.529,1,0,0,81,false,stim,false,2,308,0,0,1,95405,task3,1523441,false,true,1739,image-keyboard-response,8
true,25,1,1,0,false,q,true,false,0.0-2.0-0.58-0.530-3.530,1,0,0,90,false,stim,false,2,330,0,0,2,95405,task3,1525305,false,false,1742,image-keyboard-response,9
true,25,0,1,0,true,q,false,true,0.0-2.0-0.59-0.531-3.531,1,0,0,81,false,stim,false,0,2110,0,1,0,95405,task3,1528945,false,false,1745,image-keyboard-response,10
true,25,2,1,0,false,q,false,false,0.0-2.0-0.59-0.532-3.532,1,0,0,68,false,stim,true,2,1101,0,1,2,95405,task3,1531575,false,false,1748,image-keyboard-response,11
true,25,0,1,1,false,z,true,false,0.0-2.0-0.59-0.533-3.533,1,0,0,81,false,stim,false,2,1028,0,1,1,95405,task3,1534143,false,false,1751,image-keyboard-response,12
true,25,1,1,0,false,q,true,false,0.0-2.0-0.59-0.534-3.534,1,0,0,90,false,stim,false,2,518,0,1,2,95405,task3,1536192,false,false,1754,image-keyboard-response,13
true,25,0,1,0,true,q,false,true,0.0-2.0-0.59-0.535-3.535,1,0,0,81,false,stim,false,2,1231,0,1,2,95405,task3,1538965,false,false,1757,image-keyboard-response,14
true,25,2,1,1,false,z,false,false,0.0-2.0-0.59-0.536-3.536,1,0,0,68,false,stim,true,2,615,0,1,1,95405,task3,1541109,false,false,1760,image-keyboard-response,15
true,26,0,0,1,false,z,true,false,0.0-2.0-0.59-0.537-3.537,1,1,1,81,true,stim,false,1,809,0,1,1,95405,task3,1554271,false,false,1774,image-keyboard-response,1
true,26,2,0,0,false,q,true,false,0.0-2.0-0.59-0.538-3.538,1,1,1,68,false,stim,false,0,571,0,1,0,95405,task3,1556384,false,false,1777,image-keyboard-response,2
true,26,1,0,0,false,q,true,false,0.0-2.0-0.59-0.539-3.539,1,1,1,90,false,stim,false,0,514,0,1,0,95405,task3,1558418,false,false,1780,image-keyboard-response,3
true,26,1,0,1,true,z,false,true,0.0-2.0-0.60-0.540-3.540,1,1,1,90,false,stim,false,1,412,0,1,1,95405,task3,1560357,false,false,1783,image-keyboard-response,4
true,26,0,0,0,true,q,false,true,0.0-2.0-0.60-0.541-3.541,1,1,1,81,false,stim,false,0,903,0,1,0,95405,task3,1562788,false,false,1786,image-keyboard-response,5
true,26,1,0,1,true,z,false,true,0.0-2.0-0.60-0.542-3.542,1,1,1,90,false,stim,false,1,593,0,1,1,95405,task3,1564917,false,false,1789,image-keyboard-response,6
true,26,0,0,0,true,q,false,true,0.0-2.0-0.60-0.543-3.543,1,1,1,81,false,stim,false,0,434,0,1,0,95405,task3,1566879,false,false,1792,image-keyboard-response,7
true,26,1,0,0,false,q,true,false,0.0-2.0-0.60-0.544-3.544,1,1,1,90,false,stim,false,0,491,0,1,2,95405,task3,1568894,false,false,1795,image-keyboard-response,8
true,26,0,0,0,true,q,false,false,0.0-2.0-0.60-0.545-3.545,1,1,1,81,false,stim,false,0,690,0,0,0,95405,task3,1571114,false,true,1798,image-keyboard-response,9
true,26,1,0,0,false,q,true,false,0.0-2.0-0.60-0.546-3.546,1,1,1,90,false,stim,false,0,400,0,1,2,95405,task3,1573055,false,false,1801,image-keyboard-response,10
true,26,2,0,0,false,q,true,false,0.0-2.0-0.60-0.547-3.547,1,1,1,68,false,stim,false,0,466,0,1,2,95405,task3,1575050,false,false,1804,image-keyboard-response,11
true,26,1,0,1,true,z,false,true,0.0-2.0-0.60-0.548-3.548,1,1,1,90,false,stim,false,1,582,0,1,1,95405,task3,1577166,false,false,1807,image-keyboard-response,12
true,26,0,0,0,true,q,false,true,0.0-2.0-0.61-0.549-3.549,1,1,1,81,false,stim,false,0,522,0,0,0,95405,task3,1579225,false,false,1810,image-keyboard-response,13
true,27,0,2,1,false,z,false,false,0.0-2.0-0.61-0.550-3.550,0,1,1,81,true,stim,true,0,529,0,0,0,95405,task3,1581293,false,false,1813,image-keyboard-response,1
true,27,1,2,1,true,z,false,true,0.0-2.0-0.61-0.551-3.551,0,1,1,90,false,stim,false,1,698,0,1,1,95405,task3,1583523,false,false,1816,image-keyboard-response,2
true,27,2,2,0,false,q,true,false,0.0-2.0-0.61-0.552-3.552,0,1,1,68,false,stim,false,0,461,0,1,2,95405,task3,1585524,false,false,1819,image-keyboard-response,3
true,27,0,2,0,true,q,false,true,0.0-2.0-0.61-0.553-3.553,0,1,1,81,false,stim,false,0,404,0,1,2,95405,task3,1587469,false,false,1822,image-keyboard-response,4
true,27,1,2,1,true,z,false,true,0.0-2.0-0.61-0.554-3.554,0,1,1,90,false,stim,false,1,468,0,1,1,95405,task3,1589473,false,false,1825,image-keyboard-response,5
true,27,0,2,0,true,q,false,true,0.0-2.0-0.61-0.555-3.555,0,1,1,81,false,stim,false,0,416,0,1,2,95405,task3,1591421,false,false,1828,image-keyboard-response,6
true,27,0,2,1,false,z,true,false,0.0-2.0-0.61-0.556-3.556,0,1,1,81,false,stim,false,1,776,0,1,1,95405,task3,1593741,false,false,1831,image-keyboard-response,7
true,27,1,2,1,true,z,false,true,0.0-2.0-0.61-0.557-3.557,0,1,1,90,false,stim,false,0,507,0,0,0,95405,task3,1595790,false,false,1834,image-keyboard-response,8
true,27,1,2,1,true,z,false,true,0.0-2.0-0.62-0.558-3.558,0,1,1,90,false,stim,false,1,339,0,1,1,95405,task3,1597663,false,false,1837,image-keyboard-response,9
true,27,1,2,1,true,z,false,true,0.0-2.0-0.62-0.559-3.559,0,1,1,90,false,stim,false,1,485,0,1,1,95405,task3,1599690,false,false,1840,image-keyboard-response,10
true,27,0,2,1,false,z,false,false,0.0-2.0-0.62-0.560-3.560,0,1,1,81,false,stim,true,0,384,0,0,0,95405,task3,1601607,false,false,1843,image-keyboard-response,11
true,27,1,2,1,true,z,false,true,0.0-2.0-0.62-0.561-3.561,0,1,1,90,false,stim,false,0,247,0,1,0,95405,task3,1603391,false,false,1846,image-keyboard-response,12
true,27,1,2,1,true,z,false,true,0.0-2.0-0.62-0.562-3.562,0,1,1,90,false,stim,false,1,108,0,0,1,95405,task3,1605043,false,false,1849,image-keyboard-response,13
true,27,1,2,0,false,q,true,false,0.0-2.0-0.62-0.563-3.563,0,1,1,90,false,stim,false,0,299,0,0,2,95405,task3,1606875,false,false,1852,image-keyboard-response,14
true,27,0,2,0,true,q,false,true,0.0-2.0-0.62-0.564-3.564,0,1,1,81,false,stim,false,0,501,0,0,2,95405,task3,1608905,false,false,1855,image-keyboard-response,15
true,27,0,2,1,false,z,false,false,0.0-2.0-0.62-0.565-3.565,0,1,1,81,false,stim,true,0,216,0,1,0,95405,task3,1610661,false,false,1858,image-keyboard-response,16
true,28,2,1,1,false,z,true,false,0.0-2.0-0.62-0.566-3.566,1,0,0,68,true,stim,false,0,292,0,0,2,95405,task3,1612496,false,false,1861,image-keyboard-response,1
true,28,1,1,0,false,q,false,true,0.0-2.0-0.63-0.567-3.567,1,0,0,90,false,stim,true,1,301,0,0,1,95405,task3,1614325,false,true,1864,image-keyboard-response,2
true,28,1,1,1,true,z,false,true,0.0-2.0-0.63-0.568-3.568,1,0,0,90,false,stim,false,0,662,0,0,2,95405,task3,1616525,false,false,1867,image-keyboard-response,3
true,28,1,1,0,false,q,false,false,0.0-2.0-0.63-0.569-3.569,1,0,0,90,false,stim,true,1,139,0,0,1,95405,task3,1618202,false,false,1870,image-keyboard-response,4
true,28,0,1,1,false,z,false,false,0.0-2.0-0.63-0.570-3.570,1,0,0,81,false,stim,true,0,262,0,0,2,95405,task3,1620005,false,false,1873,image-keyboard-response,5
true,28,1,1,1,true,z,false,true,0.0-2.0-0.63-0.571-3.571,1,0,0,90,false,stim,false,1,322,0,1,0,95405,task3,1621865,false,false,1876,image-keyboard-response,6
true,28,1,1,1,true,z,false,true,0.0-2.0-0.63-0.572-3.572,1,0,0,90,false,stim,false,1,489,0,1,0,95405,task3,1623890,false,false,1879,image-keyboard-response,7
true,28,0,1,1,false,z,false,false,0.0-2.0-0.63-0.573-3.573,1,0,0,81,false,stim,true,0,530,0,0,2,95405,task3,1625954,false,false,1882,image-keyboard-response,8
true,28,2,1,0,false,q,true,false,0.0-2.0-0.63-0.574-3.574,1,0,0,68,false,stim,false,1,279,0,0,1,95405,task3,1627764,false,false,1885,image-keyboard-response,9
true,28,1,1,1,true,z,false,true,0.0-2.0-0.63-0.575-3.575,1,0,0,90,false,stim,false,1,685,0,1,0,95405,task3,1629990,false,false,1888,image-keyboard-response,10
true,28,1,1,0,false,q,false,false,0.0-2.0-0.64-0.576-3.576,1,0,0,90,false,stim,true,1,792,0,0,1,95405,task3,1632315,false,false,1891,image-keyboard-response,11
true,28,0,1,0,true,q,false,true,0.0-2.0-0.64-0.577-3.577,1,0,0,81,false,stim,false,1,667,0,0,1,95405,task3,1634512,false,false,1894,image-keyboard-response,12
true,28,0,1,1,false,z,false,false,0.0-2.0-0.64-0.578-3.578,1,0,0,81,false,stim,true,0,875,0,0,2,95405,task3,1636921,false,false,1897,image-keyboard-response,13
true,28,1,1,1,true,z,false,true,0.0-2.0-0.64-0.579-3.579,1,0,0,90,false,stim,false,1,1481,0,1,0,95405,task3,1639946,false,false,1900,image-keyboard-response,14
true,28,0,1,1,false,z,false,false,0.0-2.0-0.64-0.580-3.580,1,0,0,81,false,stim,true,0,1233,0,0,2,95405,task3,1642718,false,false,1903,image-keyboard-response,15
true,28,1,1,1,true,z,false,true,0.0-2.0-0.64-0.581-3.581,1,0,0,90,false,stim,false,1,1407,0,1,0,95405,task3,1645650,false,false,1906,image-keyboard-response,16
true,28,2,1,1,false,z,true,false,0.0-2.0-0.64-0.582-3.582,1,0,0,68,false,stim,false,0,885,0,0,2,95405,task3,1648057,false,false,1909,image-keyboard-response,17
true,28,0,1,0,true,q,false,false,0.0-2.0-0.64-0.583-3.583,1,0,0,81,false,stim,false,1,1340,0,0,1,95405,task3,1650934,false,true,1912,image-keyboard-response,18
true,28,1,1,1,true,z,false,true,0.0-2.0-0.64-0.584-3.584,1,0,0,90,false,stim,false,1,1019,0,1,0,95405,task3,1653480,false,false,1915,image-keyboard-response,19
true,28,1,1,1,true,z,false,true,0.0-2.0-0.65-0.585-3.585,1,0,0,90,false,stim,false,1,612,0,1,0,95405,task3,1655616,false,false,1918,image-keyboard-response,20
true,28,1,1,0,false,q,false,false,0.0-2.0-0.65-0.586-3.586,1,0,0,90,false,stim,true,1,516,0,0,1,95405,task3,1657660,false,false,1921,image-keyboard-response,21
true,28,0,1,0,true,q,false,true,0.0-2.0-0.65-0.587-3.587,1,0,0,81,false,stim,false,1,834,0,0,1,95405,task3,1660037,false,false,1924,image-keyboard-response,22
true,28,2,1,1,false,z,true,false,0.0-2.0-0.65-0.588-3.588,1,0,0,68,false,stim,false,0,471,0,0,2,95405,task3,1662035,false,false,1927,image-keyboard-response,23
true,28,0,1,0,true,q,false,true,0.0-2.0-0.65-0.589-3.589,1,0,0,81,false,stim,false,1,455,0,0,1,95405,task3,1664020,false,false,1930,image-keyboard-response,24
true,28,1,1,1,true,z,false,true,0.0-2.0-0.65-0.590-3.590,1,0,0,90,false,stim,false,0,635,0,0,2,95405,task3,1666179,false,false,1933,image-keyboard-response,25
true,28,2,1,1,false,z,true,false,0.0-2.0-0.65-0.591-3.591,1,0,0,68,false,stim,false,1,582,0,1,0,95405,task3,1668287,false,false,1936,image-keyboard-response,26
true,28,0,1,1,false,z,true,true,0.0-2.0-0.65-0.592-3.592,1,0,0,81,false,stim,false,1,455,0,1,0,95405,task3,1670279,false,true,1939,image-keyboard-response,27
true,28,1,1,1,true,z,false,true,0.0-2.0-0.65-0.593-3.593,1,0,0,90,false,stim,false,0,505,0,1,2,95405,task3,1672329,false,false,1942,image-keyboard-response,28
true,28,1,1,1,true,z,false,true,0.0-2.0-0.66-0.594-3.594,1,0,0,90,false,stim,false,0,399,0,1,2,95405,task3,1674262,false,false,1945,image-keyboard-response,29
true,28,2,1,1,false,z,true,false,0.0-2.0-0.66-0.595-3.595,1,0,0,68,false,stim,false,1,543,0,1,0,95405,task3,1676347,false,false,1948,image-keyboard-response,30
true,29,0,2,2,false,d,false,false,0.0-2.0-0.66-0.596-3.596,1,0,1,81,true,stim,true,0,373,0,0,1,95405,task3,1678257,false,false,1951,image-keyboard-response,1
true,29,1,2,1,true,z,false,true,0.0-2.0-0.66-0.597-3.597,1,0,1,90,false,stim,false,1,442,0,1,0,95405,task3,1680226,false,false,1954,image-keyboard-response,2
true,29,1,2,2,false,d,true,true,0.0-2.0-0.66-0.598-3.598,1,0,1,90,false,stim,false,0,337,0,0,1,95405,task3,1682102,false,true,1957,image-keyboard-response,3
true,29,2,2,1,false,z,true,false,0.0-2.0-0.66-0.599-3.599,1,0,1,68,false,stim,false,1,386,0,1,2,95405,task3,1684032,false,false,1960,image-keyboard-response,4
true,29,0,2,1,false,z,true,false,0.0-2.0-0.66-0.600-3.600,1,0,1,81,false,stim,false,1,285,0,1,0,95405,task3,1685848,false,false,1963,image-keyboard-response,5
true,29,1,2,1,true,z,false,true,0.0-2.0-0.66-0.601-3.601,1,0,1,90,false,stim,false,1,244,0,1,2,95405,task3,1687629,false,false,1966,image-keyboard-response,6
true,29,2,2,2,true,d,false,true,0.0-2.0-0.66-0.602-3.602,1,0,1,68,false,stim,false,0,518,0,1,1,95405,task3,1689683,false,false,1969,image-keyboard-response,7
true,29,2,2,2,true,d,false,true,0.0-2.0-0.67-0.603-3.603,1,0,1,68,false,stim,false,0,499,0,1,1,95405,task3,1691723,false,false,1972,image-keyboard-response,8
true,29,0,2,1,false,z,true,false,0.0-2.0-0.67-0.604-3.604,1,0,1,81,false,stim,false,1,565,0,0,2,95405,task3,1693828,false,false,1975,image-keyboard-response,9
true,29,1,2,1,true,z,false,true,0.0-2.0-0.67-0.605-3.605,1,0,1,90,false,stim,false,1,371,0,0,2,95405,task3,1695726,false,false,1978,image-keyboard-response,10
true,29,2,2,1,false,z,true,false,0.0-2.0-0.67-0.606-3.606,1,0,1,68,false,stim,false,1,1264,0,1,0,95405,task3,1698519,false,false,1981,image-keyboard-response,11
true,30,0,2,2,false,d,true,false,0.0-2.0-0.67-0.607-3.607,1,1,0,81,true,stim,false,2,449,0,1,1,95405,task3,1700503,false,false,1984,image-keyboard-response,1
true,30,1,2,1,true,z,false,true,0.0-2.0-0.67-0.608-3.608,1,1,0,90,false,stim,false,1,267,0,1,0,95405,task3,1702301,false,false,1987,image-keyboard-response,2
true,30,1,2,1,true,z,false,true,0.0-2.0-0.67-0.609-3.609,1,1,0,90,false,stim,false,1,513,0,1,0,95405,task3,1704348,false,false,1990,image-keyboard-response,3
true,30,2,2,2,true,d,false,true,0.0-2.0-0.67-0.610-3.610,1,1,0,68,false,stim,false,2,832,0,1,1,95405,task3,1706706,false,false,1993,image-keyboard-response,4
true,30,0,2,0,true,q,false,true,0.0-2.0-0.67-0.611-3.611,1,1,0,81,false,stim,false,1,515,0,0,2,95405,task3,1708749,false,false,1996,image-keyboard-response,5
true,30,2,2,2,true,d,false,true,0.0-2.0-0.68-0.612-3.612,1,1,0,68,false,stim,false,2,893,0,1,1,95405,task3,1711166,false,false,1999,image-keyboard-response,6
true,30,2,2,2,true,d,false,true,0.0-2.0-0.68-0.613-3.613,1,1,0,68,false,stim,false,2,671,0,1,1,95405,task3,1713385,false,false,2002,image-keyboard-response,7
true,30,2,2,2,true,d,false,true,0.0-2.0-0.68-0.614-3.614,1,1,0,68,false,stim,false,2,606,0,1,1,95405,task3,1715509,false,false,2005,image-keyboard-response,8
true,30,1,2,0,false,q,false,false,0.0-2.0-0.68-0.615-3.615,1,1,0,90,false,stim,true,1,459,0,0,2,95405,task3,1717503,false,false,2008,image-keyboard-response,9
true,30,0,2,0,true,q,false,false,0.0-2.0-0.68-0.616-3.616,1,1,0,81,false,stim,false,1,303,0,0,2,95405,task3,1719347,false,true,2011,image-keyboard-response,10
true,30,1,2,1,true,z,false,true,0.0-2.0-0.68-0.617-3.617,1,1,0,90,false,stim,false,1,790,0,1,0,95405,task3,1721673,false,false,2014,image-keyboard-response,11
true,30,1,2,1,true,z,false,true,0.0-2.0-0.68-0.618-3.618,1,1,0,90,false,stim,false,1,358,0,1,0,95405,task3,1723557,false,false,2017,image-keyboard-response,12
true,30,1,2,0,false,q,false,false,0.0-2.0-0.68-0.619-3.619,1,1,0,90,false,stim,true,1,496,0,1,2,95405,task3,1725591,false,false,2020,image-keyboard-response,13
true,30,1,2,1,true,z,false,true,0.0-2.0-0.68-0.620-3.620,1,1,0,90,false,stim,false,1,549,0,1,0,95405,task3,1727684,false,false,2023,image-keyboard-response,14
true,30,0,2,1,false,z,true,false,0.0-2.0-0.69-0.621-3.621,1,1,0,81,false,stim,false,1,553,0,1,0,95405,task3,1729776,false,false,2026,image-keyboard-response,15
true,31,1,2,1,true,z,false,true,0.0-2.0-0.69-0.622-3.622,1,0,1,90,true,stim,false,1,514,0,1,0,95405,task3,1731818,false,false,2029,image-keyboard-response,1
true,31,2,2,0,false,q,true,false,0.0-2.0-0.69-0.623-3.623,1,0,1,68,false,stim,false,0,530,0,1,2,95405,task3,1733885,false,false,2032,image-keyboard-response,2
true,31,0,2,0,true,q,false,true,0.0-2.0-0.69-0.624-3.624,1,0,1,81,false,stim,false,2,487,0,0,1,95405,task3,1735901,false,false,2035,image-keyboard-response,3
true,31,1,2,0,false,q,true,false,0.0-2.0-0.69-0.625-3.625,1,0,1,90,false,stim,false,0,587,0,1,2,95405,task3,1738020,false,false,2038,image-keyboard-response,4
true,31,0,2,0,true,q,false,true,0.0-2.0-0.69-0.626-3.626,1,0,1,81,false,stim,false,2,575,0,0,1,95405,task3,1740130,false,false,2041,image-keyboard-response,5
true,31,0,2,1,false,z,true,false,0.0-2.0-0.69-0.627-3.627,1,0,1,81,false,stim,false,1,569,0,1,0,95405,task3,1742244,false,false,2044,image-keyboard-response,6
true,31,1,2,0,false,q,true,false,0.0-2.0-0.69-0.628-3.628,1,0,1,90,false,stim,false,2,700,0,1,1,95405,task3,1744464,false,false,2047,image-keyboard-response,7
true,31,2,2,0,false,q,true,false,0.0-2.0-0.69-0.629-3.629,1,0,1,68,false,stim,false,0,591,0,0,2,95405,task3,1746594,false,false,2050,image-keyboard-response,8
true,31,0,2,0,true,q,false,true,0.0-2.0-0.70-0.630-3.630,1,0,1,81,false,stim,false,2,765,0,1,1,95405,task3,1748890,false,false,2053,image-keyboard-response,9
true,31,1,2,1,true,z,false,true,0.0-2.0-0.70-0.631-3.631,1,0,1,90,false,stim,false,1,432,0,0,0,95405,task3,1750857,false,false,2056,image-keyboard-response,10
true,31,1,2,0,false,q,true,false,0.0-2.0-0.70-0.632-3.632,1,0,1,90,false,stim,false,0,516,0,0,2,95405,task3,1752921,false,false,2059,image-keyboard-response,11
