answered,blockNum,choice,condition,corResp,correct,correct_response,explo,fb,internal_node_id,isStable_1,isStable_2,isStable_3,key_press,newBlock,part,persev,persevResp,rt,sessNum,stableAS,stimulus,subject,task,time_elapsed,training,trap,trial_index,trial_type,trialsInBlock
true,1,1,0,0,false,q,true,false,0.0-2.0-0.0-0.0-3.0,0,0,0,90,true,stim,false,-1,355,1,0,2,95405,task2,267646,false,false,184,image-keyboard-response,1
true,1,0,0,0,true,q,false,false,0.0-2.0-0.0-0.1-3.1,0,0,0,81,false,stim,false,-1,240,1,0,2,95405,task2,269417,false,true,187,image-keyboard-response,2
true,1,2,0,0,false,q,true,false,0.0-2.0-0.0-0.2-3.2,0,0,0,68,false,stim,false,-1,285,1,0,0,95405,task2,271206,false,false,190,image-keyboard-response,3
true,1,1,0,0,false,q,true,false,0.0-2.0-0.0-0.3-3.3,0,0,0,90,false,stim,false,-1,208,1,0,0,95405,task2,272940,false,false,193,image-keyboard-response,4
true,1,0,0,0,true,q,false,false,0.0-2.0-0.0-0.4-3.4,0,0,0,81,false,stim,false,-1,204,1,0,0,95405,task2,274668,false,true,196,image-keyboard-response,5
true,1,0,0,2,false,d,true,false,0.0-2.0-0.0-0.5-3.5,0,0,0,81,false,stim,false,-1,240,1,0,1,95405,task2,276440,false,false,199,image-keyboard-response,6
true,1,1,0,2,false,d,true,false,0.0-2.0-0.0-0.6-3.6,0,0,0,90,false,stim,false,-1,302,1,0,1,95405,task2,278283,false,false,202,image-keyboard-response,7
true,1,2,0,2,true,d,false,false,0.0-2.0-0.0-0.7-3.7,0,0,0,68,false,stim,false,-1,283,1,0,1,95405,task2,280105,false,true,205,image-keyboard-response,8
true,1,0,0,0,true,q,false,true,0.0-2.0-0.0-0.8-3.8,0,0,0,81,false,stim,false,-1,564,1,0,2,95405,task2,282195,false,false,208,image-keyboard-response,9
true,1,0,0,0,true,q,false,true,0.0-2.0-0.1-0.9-3.9,0,0,0,81,false,stim,false,-1,413,1,0,2,95405,task2,284144,false,false,211,image-keyboard-response,10
true,1,1,0,0,false,q,true,false,0.0-2.0-0.1-0.10-3.10,0,0,0,90,false,stim,false,-1,514,1,0,0,95405,task2,286175,false,false,214,image-keyboard-response,11
true,1,0,0,0,true,q,false,false,0.0-2.0-0.1-0.11-3.11,0,0,0,81,false,stim,false,-1,518,1,0,2,95405,task2,288210,false,true,217,image-keyboard-response,12
true,1,0,0,0,true,q,false,false,0.0-2.0-0.1-0.12-3.12,0,0,0,81,false,stim,false,-1,612,1,0,0,95405,task2,290363,false,true,220,image-keyboard-response,13
true,1,2,0,0,false,q,true,false,0.0-2.0-0.1-0.13-3.13,0,0,0,68,false,stim,false,-1,1111,1,0,0,95405,task2,293003,false,false,223,image-keyboard-response,14
true,1,2,0,0,false,q,true,false,0.0-2.0-0.1-0.14-3.14,0,0,0,68,false,stim,false,-1,698,1,0,2,95405,task2,295239,false,false,226,image-keyboard-response,15
true,1,1,0,2,false,d,true,true,0.0-2.0-0.1-0.15-3.15,0,0,0,90,false,stim,false,-1,559,1,0,1,95405,task2,297315,false,true,229,image-keyboard-response,16
true,1,1,0,2,false,d,true,false,0.0-2.0-0.1-0.16-3.16,0,0,0,90,false,stim,false,-1,480,1,0,1,95405,task2,299311,false,false,232,image-keyboard-response,17
true,1,0,0,2,false,d,true,false,0.0-2.0-0.1-0.17-3.17,0,0,0,81,false,stim,false,-1,1004,1,0,1,95405,task2,301846,false,false,235,image-keyboard-response,18
true,1,1,0,0,false,q,true,false,0.0-2.0-0.2-0.18-3.18,0,0,0,90,false,stim,false,-1,849,1,0,2,95405,task2,304215,false,false,238,image-keyboard-response,19
false,1,-1,0,0,false,q,false,false,0.0-2.0-0.2-0.19-3.19,0,0,0,,false,stim,true,-1,,1,0,0,95405,task2,308751,false,false,241,image-keyboard-response,20
true,1,1,0,0,false,q,true,false,0.0-2.0-0.2-0.20-3.20,0,0,0,90,false,stim,false,-1,756,1,0,0,95405,task2,311043,false,false,244,image-keyboard-response,21
true,1,2,0,0,false,q,true,false,0.0-2.0-0.2-0.21-3.21,0,0,0,68,false,stim,false,-1,360,1,0,2,95405,task2,312919,false,false,247,image-keyboard-response,22
true,1,0,0,2,false,d,true,false,0.0-2.0-0.2-0.22-3.22,0,0,0,81,false,stim,false,-1,291,1,0,1,95405,task2,314742,false,false,250,image-keyboard-response,23
true,1,1,0,2,false,d,true,false,0.0-2.0-0.2-0.23-3.23,0,0,0,90,false,stim,false,-1,349,1,0,1,95405,task2,316610,false,false,253,image-keyboard-response,24
true,1,1,0,0,false,q,true,false,0.0-2.0-0.2-0.24-3.24,0,0,0,90,false,stim,false,-1,292,1,0,0,95405,task2,318427,false,false,256,image-keyboard-response,25
true,1,2,0,2,true,d,false,true,0.0-2.0-0.2-0.25-3.25,0,0,0,68,false,stim,false,-1,285,1,0,1,95405,task2,320225,false,false,259,image-keyboard-response,26
true,2,0,1,2,false,d,false,false,0.0-2.0-0.2-0.26-3.26,0,0,0,81,true,stim,true,0,497,1,0,2,95405,task2,322256,false,false,262,image-keyboard-response,1
true,2,1,1,2,false,d,true,false,0.0-2.0-0.3-0.27-3.27,0,0,0,90,false,stim,false,0,261,1,0,2,95405,task2,324042,false,false,265,image-keyboard-response,2
true,2,2,1,1,false,z,false,true,0.0-2.0-0.3-0.28-3.28,0,0,0,68,false,stim,true,2,365,1,0,1,95405,task2,325931,false,true,268,image-keyboard-response,3
true,2,0,1,2,false,d,false,false,0.0-2.0-0.3-0.29-3.29,0,0,0,81,false,stim,true,0,614,1,0,2,95405,task2,328074,false,false,271,image-keyboard-response,4
true,2,1,1,2,false,d,true,true,0.0-2.0-0.3-0.30-3.30,0,0,0,90,false,stim,false,0,311,1,0,0,95405,task2,329902,false,true,274,image-keyboard-response,5
true,2,1,1,1,true,z,false,false,0.0-2.0-0.3-0.31-3.31,0,0,0,90,false,stim,false,2,322,1,0,1,95405,task2,331752,false,true,277,image-keyboard-response,6
true,2,1,1,2,false,d,true,false,0.0-2.0-0.3-0.32-3.32,0,0,0,90,false,stim,false,0,660,1,0,0,95405,task2,333942,false,false,280,image-keyboard-response,7
true,2,2,1,2,true,d,false,true,0.0-2.0-0.3-0.33-3.33,0,0,0,68,false,stim,false,0,590,1,0,2,95405,task2,336056,false,false,283,image-keyboard-response,8
true,2,0,1,2,false,d,false,false,0.0-2.0-0.3-0.34-3.34,0,0,0,81,false,stim,true,0,479,1,0,0,95405,task2,338060,false,false,286,image-keyboard-response,9
true,2,2,1,1,false,z,false,false,0.0-2.0-0.3-0.35-3.35,0,0,0,68,false,stim,true,2,727,1,0,1,95405,task2,340317,false,false,289,image-keyboard-response,10
true,2,1,1,1,true,z,false,true,0.0-2.0-0.4-0.36-3.36,0,0,0,90,false,stim,false,2,286,1,0,1,95405,task2,342126,false,false,292,image-keyboard-response,11
true,2,1,1,1,true,z,false,true,0.0-2.0-0.4-0.37-3.37,0,0,0,90,false,stim,false,2,376,1,0,1,95405,task2,344038,false,false,295,image-keyboard-response,12
true,2,0,1,2,false,d,false,false,0.0-2.0-0.4-0.38-3.38,0,0,0,81,false,stim,true,0,517,1,0,2,95405,task2,346077,false,false,298,image-keyboard-response,13
true,2,2,1,2,true,d,false,true,0.0-2.0-0.4-0.39-3.39,0,0,0,68,false,stim,false,0,408,1,0,0,95405,task2,348021,false,false,301,image-keyboard-response,14
true,2,1,1,2,false,d,true,false,0.0-2.0-0.4-0.40-3.40,0,0,0,90,false,stim,false,0,530,1,0,2,95405,task2,350066,false,false,304,image-keyboard-response,15
true,2,0,1,1,false,z,true,false,0.0-2.0-0.4-0.41-3.41,0,0,0,81,false,stim,false,2,309,1,0,1,95405,task2,351888,false,false,307,image-keyboard-response,16
true,2,1,1,2,false,d,true,false,0.0-2.0-0.4-0.42-3.42,0,0,0,90,false,stim,false,0,344,1,0,0,95405,task2,353775,false,false,310,image-keyboard-response,17
true,2,2,1,2,true,d,false,false,0.0-2.0-0.4-0.43-3.43,0,0,0,68,false,stim,false,0,380,1,0,0,95405,task2,355678,false,true,313,image-keyboard-response,18
true,2,1,1,2,false,d,true,false,0.0-2.0-0.4-0.44-3.44,0,0,0,90,false,stim,false,0,412,1,0,2,95405,task2,357613,false,false,316,image-keyboard-response,19
true,2,0,1,2,false,d,false,false,0.0-2.0-0.5-0.45-3.45,0,0,0,81,false,stim,true,0,422,1,0,0,95405,task2,359564,false,false,319,image-keyboard-response,20
true,2,1,1,1,true,z,false,true,0.0-2.0-0.5-0.46-3.46,0,0,0,90,false,stim,false,2,234,1,0,1,95405,task2,361326,false,false,322,image-keyboard-response,21
true,2,1,1,2,false,d,true,false,0.0-2.0-0.5-0.47-3.47,0,0,0,90,false,stim,false,0,234,1,0,0,95405,task2,363094,false,false,325,image-keyboard-response,22
true,2,2,1,2,true,d,false,true,0.0-2.0-0.5-0.48-3.48,0,0,0,68,false,stim,false,0,365,1,0,0,95405,task2,364987,false,false,328,image-keyboard-response,23
true,2,0,1,2,false,d,false,true,0.0-2.0-0.5-0.49-3.49,0,0,0,81,false,stim,true,0,455,1,0,2,95405,task2,366965,false,true,331,image-keyboard-response,24
true,2,0,1,2,false,d,false,false,0.0-2.0-0.5-0.50-3.50,0,0,0,81,false,stim,true,0,700,1,0,2,95405,task2,369201,false,false,334,image-keyboard-response,25
true,2,1,1,1,true,z,false,true,0.0-2.0-0.5-0.51-3.51,0,0,0,90,false,stim,false,2,403,1,0,1,95405,task2,371138,false,false,337,image-keyboard-response,26
true,2,2,1,1,false,z,false,false,0.0-2.0-0.5-0.52-3.52,0,0,0,68,false,stim,true,2,259,1,0,1,95405,task2,372910,false,false,340,image-keyboard-response,27
true,2,1,1,2,false,d,true,false,0.0-2.0-0.5-0.53-3.53,0,0,0,90,false,stim,false,0,236,1,0,2,95405,task2,374666,false,false,343,image-keyboard-response,28
true,2,2,1,2,true,d,false,true,0.0-2.0-0.6-0.54-3.54,0,0,0,68,false,stim,false,0,360,1,0,0,95405,task2,376550,false,false,346,image-keyboard-response,29
true,2,2,1,2,true,d,false,true,0.0-2.0-0.6-0.55-3.55,0,0,0,68,false,stim,false,0,304,1,0,2,95405,task2,378385,false,false,349,image-keyboard-response,30
true,2,2,1,2,true,d,false,true,0.0-2.0-0.6-0.56-3.56,0,0,0,68,false,stim,false,0,265,1,0,0,95405,task2,380176,false,false,352,image-keyboard-response,31
true,2,0,1,1,false,z,true,false,0.0-2.0-0.6-0.57-3.57,0,0,0,81,false,stim,false,2,263,1,0,1,95405,task2,381964,false,false,355,image-keyboard-response,32
true,2,1,1,1,true,z,false,true,0.0-2.0-0.6-0.58-3.58,0,0,0,90,false,stim,false,2,293,1,0,1,95405,task2,383793,false,false,358,image-keyboard-response,33
true,2,1,1,2,false,d,true,false,0.0-2.0-0.6-0.59-3.59,0,0,0,90,false,stim,false,0,163,1,1,2,95405,task2,385473,false,false,361,image-keyboard-response,34
true,2,2,1,2,true,d,false,true,0.0-2.0-0.6-0.60-3.60,0,0,0,68,false,stim,false,0,224,1,0,0,95405,task2,387235,false,false,364,image-keyboard-response,35
true,2,2,1,1,false,z,false,false,0.0-2.0-0.6-0.61-3.61,0,0,0,68,false,stim,true,2,215,1,0,1,95405,task2,388975,false,false,367,image-keyboard-response,36
true,2,0,1,2,false,d,false,false,0.0-2.0-0.6-0.62-3.62,0,0,0,81,false,stim,true,0,286,1,1,2,95405,task2,390777,false,false,370,image-keyboard-response,37
true,3,1,2,1,true,z,false,true,0.0-2.0-0.7-0.63-3.63,0,0,1,90,true,stim,false,2,264,1,0,0,95405,task2,392565,false,false,373,image-keyboard-response,1
true,3,1,2,2,false,d,false,false,0.0-2.0-0.7-0.64-3.64,0,0,1,90,false,stim,true,1,321,1,0,1,95405,task2,394406,false,false,376,image-keyboard-response,2
true,3,2,2,1,false,z,false,false,0.0-2.0-0.7-0.65-3.65,0,0,1,68,false,stim,true,2,288,1,0,0,95405,task2,396218,false,false,379,image-keyboard-response,3
true,3,0,2,2,false,d,true,false,0.0-2.0-0.7-0.66-3.66,0,0,1,81,false,stim,false,2,270,1,1,2,95405,task2,398020,false,false,382,image-keyboard-response,4
true,3,1,2,2,false,d,true,false,0.0-2.0-0.7-0.67-3.67,0,0,1,90,false,stim,false,2,341,1,1,2,95405,task2,399892,false,false,385,image-keyboard-response,5
true,3,2,2,2,true,d,false,true,0.0-2.0-0.7-0.68-3.68,0,0,1,68,false,stim,false,1,661,1,0,1,95405,task2,402081,false,false,388,image-keyboard-response,6
true,3,2,2,1,false,z,false,false,0.0-2.0-0.7-0.69-3.69,0,0,1,68,false,stim,true,2,273,1,0,0,95405,task2,403874,false,false,391,image-keyboard-response,7
true,3,0,2,2,false,d,true,false,0.0-2.0-0.7-0.70-3.70,0,0,1,81,false,stim,false,2,289,1,1,2,95405,task2,405678,false,false,394,image-keyboard-response,8
true,3,1,2,2,false,d,false,false,0.0-2.0-0.7-0.71-3.71,0,0,1,90,false,stim,true,1,335,1,0,1,95405,task2,407527,false,false,397,image-keyboard-response,9
true,3,0,2,1,false,z,true,false,0.0-2.0-0.8-0.72-3.72,0,0,1,81,false,stim,false,2,476,1,0,0,95405,task2,409527,false,false,400,image-keyboard-response,10
true,3,1,2,2,false,d,true,false,0.0-2.0-0.8-0.73-3.73,0,0,1,90,false,stim,false,2,635,1,1,2,95405,task2,411684,false,false,403,image-keyboard-response,11
true,3,2,2,2,true,d,false,true,0.0-2.0-0.8-0.74-3.74,0,0,1,68,false,stim,false,2,440,1,1,2,95405,task2,413647,false,false,406,image-keyboard-response,12
true,3,2,2,1,false,z,false,false,0.0-2.0-0.8-0.75-3.75,0,0,1,68,false,stim,true,2,278,1,0,0,95405,task2,415449,false,false,409,image-keyboard-response,13
true,3,0,2,2,false,d,true,false,0.0-2.0-0.8-0.76-3.76,0,0,1,81,false,stim,false,1,423,1,0,1,95405,task2,417381,false,false,412,image-keyboard-response,14
true,3,1,2,1,true,z,false,true,0.0-2.0-0.8-0.77-3.77,0,0,1,90,false,stim,false,2,245,1,0,0,95405,task2,419146,false,false,415,image-keyboard-response,15
true,3,2,2,2,true,d,false,false,0.0-2.0-0.8-0.78-3.78,0,0,1,68,false,stim,false,2,381,1,1,2,95405,task2,421063,false,true,418,image-keyboard-response,16
true,3,0,2,2,false,d,true,false,0.0-2.0-0.8-0.79-3.79,0,0,1,81,false,stim,false,1,256,1,0,1,95405,task2,422860,false,false,421,image-keyboard-response,17
true,3,1,2,2,false,d,false,false,0.0-2.0-0.8-0.80-3.80,0,0,1,90,false,stim,true,1,248,1,0,1,95405,task2,424651,false,false,424,image-keyboard-response,18
true,3,1,2,2,false,d,true,false,0.0-2.0-0.9-0.81-3.81,0,0,1,90,false,stim,false,2,330,1,1,2,95405,task2,426513,false,false,427,image-keyboard-response,19
true,3,0,2,2,false,d,true,false,0.0-2.0-0.9-0.82-3.82,0,0,1,81,false,stim,false,2,313,1,1,2,95405,task2,428355,false,false,430,image-keyboard-response,20
true,3,2,2,1,false,z,false,false,0.0-2.0-0.9-0.83-3.83,0,0,1,68,false,stim,true,2,255,1,0,0,95405,task2,430137,false,false,433,image-keyboard-response,21
true,3,1,2,2,false,d,true,true,0.0-2.0-0.9-0.84-3.84,0,0,1,90,false,stim,false,2,371,1,1,2,95405,task2,432034,false,true,436,image-keyboard-response,22
true,3,1,2,2,false,d,false,false,0.0-2.0-0.9-0.85-3.85,0,0,1,90,false,stim,true,1,234,1,0,1,95405,task2,433797,false,false,439,image-keyboard-response,23
true,3,0,2,2,false,d,true,false,0.0-2.0-0.9-0.86-3.86,0,0,1,81,false,stim,false,1,204,1,0,1,95405,task2,435527,false,false,442,image-keyboard-response,24
true,3,1,2,2,false,d,false,false,0.0-2.0-0.9-0.87-3.87,0,0,1,90,false,stim,true,1,330,1,0,1,95405,task2,437389,false,false,445,image-keyboard-response,25
true,3,2,2,1,false,z,false,false,0.0-2.0-0.9-0.88-3.88,0,0,1,68,false,stim,true,2,295,1,0,0,95405,task2,439218,false,false,448,image-keyboard-response,26
true,3,0,2,1,false,z,true,false,0.0-2.0-0.9-0.89-3.89,0,0,1,81,false,stim,false,2,243,1,0,0,95405,task2,440985,false,false,451,image-keyboard-response,27
true,3,1,2,1,true,z,false,true,0.0-2.0-0.10-0.90-3.90,0,0,1,90,false,stim,false,2,230,1,0,0,95405,task2,442754,false,false,454,image-keyboard-response,28
true,3,1,2,2,false,d,true,false,0.0-2.0-0.10-0.91-3.91,0,0,1,90,false,stim,false,2,342,1,1,2,95405,task2,444623,false,false,457,image-keyboard-response,29
true,3,2,2,2,true,d,false,false,0.0-2.0-0.10-0.92-3.92,0,0,1,68,false,stim,false,1,816,1,0,1,95405,task2,446978,false,true,460,image-keyboard-response,30
true,3,0,2,2,false,d,true,false,0.0-2.0-0.10-0.93-3.93,0,0,1,81,false,stim,false,2,395,1,0,2,95405,task2,448906,false,false,463,image-keyboard-response,31
true,3,1,2,2,false,d,false,false,0.0-2.0-0.10-0.94-3.94,0,0,1,90,false,stim,true,1,773,1,0,1,95405,task2,451214,false,false,466,image-keyboard-response,32
true,3,1,2,1,true,z,false,true,0.0-2.0-0.10-0.95-3.95,0,0,1,90,false,stim,false,2,751,1,0,0,95405,task2,453492,false,false,469,image-keyboard-response,33
true,3,1,2,2,false,d,true,true,0.0-2.0-0.10-0.96-3.96,0,0,1,90,false,stim,false,2,311,1,0,2,95405,task2,455333,false,true,472,image-keyboard-response,34
true,4,1,1,0,false,q,true,false,0.0-2.0-0.10-0.97-3.97,0,0,0,90,true,stim,false,2,228,1,0,1,95405,task2,457069,false,false,475,image-keyboard-response,1
true,4,2,1,0,false,q,true,false,0.0-2.0-0.10-0.98-3.98,0,0,0,68,false,stim,false,1,297,1,0,0,95405,task2,458898,false,false,478,image-keyboard-response,2
true,4,0,1,0,true,q,false,true,0.0-2.0-0.11-0.99-3.99,0,0,0,81,false,stim,false,1,241,1,0,0,95405,task2,460664,false,false,481,image-keyboard-response,3
true,4,0,1,1,false,z,true,false,0.0-2.0-0.11-0.100-3.100,0,0,0,81,false,stim,false,2,283,1,0,2,95405,task2,462486,false,false,484,image-keyboard-response,4
true,4,1,1,0,false,q,true,false,0.0-2.0-0.11-0.101-3.101,0,0,0,90,false,stim,false,2,346,1,0,1,95405,task2,464369,false,false,487,image-keyboard-response,5
true,4,2,1,1,false,z,false,false,0.0-2.0-0.11-0.102-3.102,0,0,0,68,false,stim,true,2,789,1,0,2,95405,task2,466692,false,false,490,image-keyboard-response,6
true,4,0,1,0,true,q,false,true,0.0-2.0-0.11-0.103-3.103,0,0,0,81,false,stim,false,2,808,1,0,1,95405,task2,469020,false,false,493,image-keyboard-response,7
true,4,0,1,1,false,z,true,true,0.0-2.0-0.11-0.104-3.104,0,0,0,81,false,stim,false,2,482,1,0,2,95405,task2,471034,false,true,496,image-keyboard-response,8
true,4,0,1,0,true,q,false,true,0.0-2.0-0.11-0.105-3.105,0,0,0,81,false,stim,false,1,316,1,0,0,95405,task2,472889,false,false,499,image-keyboard-response,9
true,4,0,1,0,true,q,false,true,0.0-2.0-0.11-0.106-3.106,0,0,0,81,false,stim,false,2,245,1,0,1,95405,task2,474667,false,false,502,image-keyboard-response,10
true,4,0,1,0,true,q,false,true,0.0-2.0-0.11-0.107-3.107,0,0,0,81,false,stim,false,1,318,1,0,0,95405,task2,476520,false,false,505,image-keyboard-response,11
true,4,0,1,0,true,q,false,true,0.0-2.0-0.12-0.108-3.108,0,0,0,81,false,stim,false,2,310,1,0,1,95405,task2,478367,false,false,508,image-keyboard-response,12
true,4,0,1,0,true,q,false,true,0.0-2.0-0.12-0.109-3.109,0,0,0,81,false,stim,false,2,254,1,0,1,95405,task2,480154,false,false,511,image-keyboard-response,13
true,4,0,1,0,true,q,false,true,0.0-2.0-0.12-0.110-3.110,0,0,0,81,false,stim,false,1,259,1,0,0,95405,task2,481940,false,false,514,image-keyboard-response,14
true,4,0,1,1,false,z,true,false,0.0-2.0-0.12-0.111-3.111,0,0,0,81,false,stim,false,2,254,1,0,2,95405,task2,483736,false,false,517,image-keyboard-response,15
true,4,0,1,0,true,q,false,true,0.0-2.0-0.12-0.112-3.112,0,0,0,81,false,stim,false,1,264,1,0,0,95405,task2,485526,false,false,520,image-keyboard-response,16
true,4,0,1,1,false,z,true,false,0.0-2.0-0.12-0.113-3.113,0,0,0,81,false,stim,false,2,283,1,0,2,95405,task2,487345,false,false,523,image-keyboard-response,17
true,4,0,1,0,true,q,false,true,0.0-2.0-0.12-0.114-3.114,0,0,0,81,false,stim,false,2,254,1,0,1,95405,task2,489135,false,false,526,image-keyboard-response,18
true,4,1,1,1,true,z,false,true,0.0-2.0-0.12-0.115-3.115,0,0,0,90,false,stim,false,2,490,1,0,2,95405,task2,491153,false,false,529,image-keyboard-response,19
true,4,0,1,0,true,q,false,true,0.0-2.0-0.12-0.116-3.116,0,0,0,81,false,stim,false,1,245,1,0,0,95405,task2,492927,false,false,532,image-keyboard-response,20
true,4,1,1,0,false,q,true,false,0.0-2.0-0.13-0.117-3.117,0,0,0,90,false,stim,false,2,191,1,0,1,95405,task2,494654,false,false,535,image-keyboard-response,21
true,4,0,1,0,true,q,false,true,0.0-2.0-0.13-0.118-3.118,0,0,0,81,false,stim,false,2,112,1,0,1,95405,task2,496294,false,false,538,image-keyboard-response,22
true,4,2,1,1,false,z,false,true,0.0-2.0-0.13-0.119-3.119,0,0,0,68,false,stim,true,2,287,1,0,2,95405,task2,498109,false,true,541,image-keyboard-response,23
true,4,0,1,0,true,q,false,true,0.0-2.0-0.13-0.120-3.120,0,0,0,81,false,stim,false,1,267,1,0,0,95405,task2,499909,false,false,544,image-keyboard-response,24
true,4,2,1,0,false,q,true,false,0.0-2.0-0.13-0.121-3.121,0,0,0,68,false,stim,false,1,278,1,0,0,95405,task2,501721,false,false,547,image-keyboard-response,25
true,4,0,1,0,true,q,false,true,0.0-2.0-0.13-0.122-3.122,0,0,0,81,false,stim,false,1,326,1,0,0,95405,task2,503589,false,false,550,image-keyboard-response,26
true,4,1,1,1,true,z,false,true,0.0-2.0-0.13-0.123-3.123,0,0,0,90,false,stim,false,2,305,1,0,2,95405,task2,505428,false,false,553,image-keyboard-response,27
true,4,0,1,1,false,z,true,false,0.0-2.0-0.13-0.124-3.124,0,0,0,81,false,stim,false,2,317,1,0,2,95405,task2,507279,false,false,556,image-keyboard-response,28
true,4,2,1,0,false,q,false,true,0.0-2.0-0.13-0.125-3.125,0,0,0,68,false,stim,true,2,237,1,0,1,95405,task2,509039,false,true,559,image-keyboard-response,29
true,4,1,1,0,false,q,false,false,0.0-2.0-0.14-0.126-3.126,0,0,0,90,false,stim,true,1,372,1,0,0,95405,task2,510934,false,false,562,image-keyboard-response,30
true,4,2,1,1,false,z,false,false,0.0-2.0-0.14-0.127-3.127,0,0,0,68,false,stim,true,2,529,1,0,2,95405,task2,512991,false,false,565,image-keyboard-response,31
true,4,0,1,1,false,z,true,false,0.0-2.0-0.14-0.128-3.128,0,0,0,81,false,stim,false,2,208,1,0,2,95405,task2,514741,false,false,568,image-keyboard-response,32
true,4,1,1,0,false,q,true,false,0.0-2.0-0.14-0.129-3.129,0,0,0,90,false,stim,false,2,56,1,1,1,95405,task2,516338,false,false,571,image-keyboard-response,33
true,4,2,1,0,false,q,true,false,0.0-2.0-0.14-0.130-3.130,0,0,0,68,false,stim,false,1,399,1,0,0,95405,task2,518260,false,false,574,image-keyboard-response,34
true,4,0,1,0,true,q,false,true,0.0-2.0-0.14-0.131-3.131,0,0,0,81,false,stim,false,2,337,1,1,1,95405,task2,520139,false,false,577,image-keyboard-response,35
true,5,1,2,0,false,q,false,true,0.0-2.0-0.14-0.132-3.132,0,1,0,90,true,stim,true,1,233,1,0,2,95405,task2,521895,false,true,580,image-keyboard-response,1
true,5,0,2,0,true,q,false,true,0.0-2.0-0.14-0.133-3.133,0,1,0,81,false,stim,false,0,321,1,1,1,95405,task2,523744,false,false,583,image-keyboard-response,2
true,5,1,2,1,true,z,false,false,0.0-2.0-0.14-0.134-3.134,0,1,0,90,false,stim,false,0,355,1,0,0,95405,task2,525638,false,true,586,image-keyboard-response,3
true,5,0,2,0,true,q,false,true,0.0-2.0-0.15-0.135-3.135,0,1,0,81,false,stim,false,1,222,1,0,2,95405,task2,527383,false,false,589,image-keyboard-response,4
true,5,2,2,1,false,z,true,false,0.0-2.0-0.15-0.136-3.136,0,1,0,68,false,stim,false,0,235,1,0,0,95405,task2,529156,false,false,592,image-keyboard-response,5
true,5,0,2,0,true,q,false,true,0.0-2.0-0.15-0.137-3.137,0,1,0,81,false,stim,false,0,238,1,1,1,95405,task2,530919,false,false,595,image-keyboard-response,6
true,5,1,2,0,false,q,false,false,0.0-2.0-0.15-0.138-3.138,0,1,0,90,false,stim,true,1,201,1,0,2,95405,task2,532643,false,false,598,image-keyboard-response,7
true,5,0,2,1,false,z,false,false,0.0-2.0-0.15-0.139-3.139,0,1,0,81,false,stim,true,0,365,1,0,0,95405,task2,534557,false,false,601,image-keyboard-response,8
true,5,1,2,0,false,q,true,false,0.0-2.0-0.15-0.140-3.140,0,1,0,90,false,stim,false,0,225,1,1,1,95405,task2,536305,false,false,604,image-keyboard-response,9
true,5,0,2,0,true,q,false,true,0.0-2.0-0.15-0.141-3.141,0,1,0,81,false,stim,false,0,326,1,1,1,95405,task2,538168,false,false,607,image-keyboard-response,10
true,5,0,2,1,false,z,false,false,0.0-2.0-0.15-0.142-3.142,0,1,0,81,false,stim,true,0,329,1,0,0,95405,task2,540031,false,false,610,image-keyboard-response,11
true,5,1,2,0,false,q,false,false,0.0-2.0-0.15-0.143-3.143,0,1,0,90,false,stim,true,1,451,1,0,2,95405,task2,542013,false,false,613,image-keyboard-response,12
true,5,1,2,0,false,q,false,false,0.0-2.0-0.16-0.144-3.144,0,1,0,90,false,stim,true,1,398,1,0,2,95405,task2,543941,false,false,616,image-keyboard-response,13
true,5,0,2,1,false,z,false,false,0.0-2.0-0.16-0.145-3.145,0,1,0,81,false,stim,true,0,292,1,0,0,95405,task2,545765,false,false,619,image-keyboard-response,14
true,5,2,2,0,false,q,true,true,0.0-2.0-0.16-0.146-3.146,0,1,0,68,false,stim,false,1,375,1,0,2,95405,task2,547677,false,true,622,image-keyboard-response,15
true,5,0,2,0,true,q,false,true,0.0-2.0-0.16-0.147-3.147,0,1,0,81,false,stim,false,0,216,1,1,1,95405,task2,549418,false,false,625,image-keyboard-response,16
true,5,2,2,0,false,q,true,false,0.0-2.0-0.16-0.148-3.148,0,1,0,68,false,stim,false,1,212,1,0,2,95405,task2,551154,false,false,628,image-keyboard-response,17
true,5,0,2,1,false,z,false,false,0.0-2.0-0.16-0.149-3.149,0,1,0,81,false,stim,true,0,239,1,0,0,95405,task2,552921,false,false,631,image-keyboard-response,18
true,5,1,2,0,false,q,true,false,0.0-2.0-0.16-0.150-3.150,0,1,0,90,false,stim,false,0,374,1,1,1,95405,task2,554836,false,false,634,image-keyboard-response,19
true,5,2,2,0,false,q,true,false,0.0-2.0-0.16-0.151-3.151,0,1,0,68,false,stim,false,0,253,1,1,1,95405,task2,556615,false,false,637,image-keyboard-response,20
true,5,0,2,1,false,z,false,true,0.0-2.0-0.16-0.152-3.152,0,1,0,81,false,stim,true,0,229,1,0,0,95405,task2,558372,false,true,640,image-keyboard-response,21
true,5,1,2,0,false,q,true,false,0.0-2.0-0.17-0.153-3.153,0,1,0,90,false,stim,false,0,106,1,1,1,95405,task2,560008,false,false,643,image-keyboard-response,22
true,5,0,2,0,true,q,false,true,0.0-2.0-0.17-0.154-3.154,0,1,0,81,false,stim,false,1,371,1,0,2,95405,task2,561904,false,false,646,image-keyboard-response,23
true,5,2,2,0,false,q,true,false,0.0-2.0-0.17-0.155-3.155,0,1,0,68,false,stim,false,0,284,1,1,1,95405,task2,563716,false,false,649,image-keyboard-response,24
true,5,0,2,1,false,z,false,false,0.0-2.0-0.17-0.156-3.156,0,1,0,81,false,stim,true,0,199,1,0,0,95405,task2,565452,false,false,652,image-keyboard-response,25
true,5,1,2,0,false,q,false,false,0.0-2.0-0.17-0.157-3.157,0,1,0,90,false,stim,true,1,439,1,0,2,95405,task2,567431,false,false,655,image-keyboard-response,26
true,5,2,2,1,false,z,true,false,0.0-2.0-0.17-0.158-3.158,0,1,0,68,false,stim,false,0,1295,1,0,0,95405,task2,570267,false,false,658,image-keyboard-response,27
true,5,0,2,1,false,z,false,false,0.0-2.0-0.17-0.159-3.159,0,1,0,81,false,stim,true,0,429,1,0,0,95405,task2,572231,false,false,661,image-keyboard-response,28
true,5,1,2,0,false,q,false,false,0.0-2.0-0.17-0.160-3.160,0,1,0,90,false,stim,true,1,585,1,0,2,95405,task2,574348,false,false,664,image-keyboard-response,29
true,5,1,2,0,false,q,true,false,0.0-2.0-0.17-0.161-3.161,0,1,0,90,false,stim,false,0,450,1,0,1,95405,task2,576323,false,false,667,image-keyboard-response,30
true,5,2,2,1,false,z,true,false,0.0-2.0-0.18-0.162-3.162,0,1,0,68,false,stim,false,0,346,1,0,0,95405,task2,578200,false,false,670,image-keyboard-response,31
true,5,0,2,0,true,q,false,true,0.0-2.0-0.18-0.163-3.163,0,1,0,81,false,stim,false,1,498,1,0,2,95405,task2,580240,false,false,673,image-keyboard-response,32
true,5,0,2,0,true,q,false,true,0.0-2.0-0.18-0.164-3.164,0,1,0,81,false,stim,false,1,236,1,0,2,95405,task2,582018,false,false,676,image-keyboard-response,33
true,6,0,1,2,false,d,true,false,0.0-2.0-0.18-0.165-3.165,0,0,0,81,true,stim,false,1,369,1,0,0,95405,task2,583910,false,false,679,image-keyboard-response,1
true,6,1,1,1,true,z,false,true,0.0-2.0-0.18-0.166-3.166,0,0,0,90,false,stim,false,0,277,1,0,2,95405,task2,585718,false,false,682,image-keyboard-response,2
true,6,0,1,1,false,z,false,false,0.0-2.0-0.18-0.167-3.167,0,0,0,81,false,stim,true,0,298,1,0,1,95405,task2,587540,false,false,685,image-keyboard-response,3
true,6,0,1,1,false,z,false,true,0.0-2.0-0.18-0.168-3.168,0,0,0,81,false,stim,true,0,258,1,0,1,95405,task2,589340,false,true,688,image-keyboard-response,4
true,6,0,1,2,false,d,true,false,0.0-2.0-0.18-0.169-3.169,0,0,0,81,false,stim,false,1,300,1,0,0,95405,task2,591162,false,false,691,image-keyboard-response,5
true,6,1,1,1,true,z,false,true,0.0-2.0-0.18-0.170-3.170,0,0,0,90,false,stim,false,0,320,1,0,1,95405,task2,593022,false,false,694,image-keyboard-response,6
true,6,1,1,1,true,z,false,true,0.0-2.0-0.19-0.171-3.171,0,0,0,90,false,stim,false,0,255,1,0,2,95405,task2,594807,false,false,697,image-keyboard-response,7
true,6,1,1,1,true,z,false,true,0.0-2.0-0.19-0.172-3.172,0,0,0,90,false,stim,false,0,222,1,0,1,95405,task2,596554,false,false,700,image-keyboard-response,8
true,6,1,1,1,true,z,false,true,0.0-2.0-0.19-0.173-3.173,0,0,0,90,false,stim,false,0,84,1,0,2,95405,task2,598171,false,false,703,image-keyboard-response,9
true,6,1,1,2,false,d,false,false,0.0-2.0-0.19-0.174-3.174,0,0,0,90,false,stim,true,1,1067,1,0,0,95405,task2,600769,false,false,706,image-keyboard-response,10
true,6,0,1,2,false,d,true,false,0.0-2.0-0.19-0.175-3.175,0,0,0,81,false,stim,false,1,312,1,0,0,95405,task2,602614,false,false,709,image-keyboard-response,11
true,6,2,1,2,true,d,false,true,0.0-2.0-0.19-0.176-3.176,0,0,0,68,false,stim,false,1,394,1,0,0,95405,task2,604537,false,false,712,image-keyboard-response,12
true,6,2,1,1,false,z,true,false,0.0-2.0-0.19-0.177-3.177,0,0,0,68,false,stim,false,0,225,1,0,1,95405,task2,606287,false,false,715,image-keyboard-response,13
true,6,1,1,1,true,z,false,true,0.0-2.0-0.19-0.178-3.178,0,0,0,90,false,stim,false,0,248,1,0,2,95405,task2,608060,false,false,718,image-keyboard-response,14
true,6,2,1,1,false,z,true,false,0.0-2.0-0.19-0.179-3.179,0,0,0,68,false,stim,false,0,260,1,0,1,95405,task2,609851,false,false,721,image-keyboard-response,15
true,6,0,1,2,false,d,true,false,0.0-2.0-0.20-0.180-3.180,0,0,0,81,false,stim,false,1,310,1,0,0,95405,task2,611703,false,false,724,image-keyboard-response,16
true,6,1,1,1,true,z,false,true,0.0-2.0-0.20-0.181-3.181,0,0,0,90,false,stim,false,0,286,1,0,1,95405,task2,613518,false,false,727,image-keyboard-response,17
true,6,1,1,2,false,d,false,true,0.0-2.0-0.20-0.182-3.182,0,0,0,90,false,stim,true,1,317,1,0,0,95405,task2,615369,false,true,730,image-keyboard-response,18
true,6,1,1,1,true,z,false,true,0.0-2.0-0.20-0.183-3.183,0,0,0,90,false,stim,false,0,301,1,0,2,95405,task2,617213,false,false,733,image-keyboard-response,19
true,6,1,1,1,true,z,false,true,0.0-2.0-0.20-0.184-3.184,0,0,0,90,false,stim,false,0,105,1,0,1,95405,task2,618858,false,false,736,image-keyboard-response,20
true,6,1,1,2,false,d,false,false,0.0-2.0-0.20-0.185-3.185,0,0,0,90,false,stim,true,1,223,1,0,0,95405,task2,620615,false,false,739,image-keyboard-response,21
true,6,2,1,1,false,z,true,false,0.0-2.0-0.20-0.186-3.186,0,0,0,68,false,stim,false,0,247,1,0,2,95405,task2,622398,false,false,742,image-keyboard-response,22
true,6,0,1,1,false,z,false,false,0.0-2.0-0.20-0.187-3.187,0,0,0,81,false,stim,true,0,198,1,0,2,95405,task2,624127,false,false,745,image-keyboard-response,23
true,6,1,1,1,true,z,false,true,0.0-2.0-0.20-0.188-3.188,0,0,0,90,false,stim,false,0,177,1,0,1,95405,task2,625838,false,false,748,image-keyboard-response,24
true,6,1,1,1,true,z,false,true,0.0-2.0-0.21-0.189-3.189,0,0,0,90,false,stim,false,0,308,1,0,2,95405,task2,627671,false,false,751,image-keyboard-response,25
true,6,1,1,1,true,z,false,false,0.0-2.0-0.21-0.190-3.190,0,0,0,90,false,stim,false,0,321,1,0,1,95405,task2,629523,false,true,754,image-keyboard-response,26
true,6,0,1,1,false,z,false,false,0.0-2.0-0.21-0.191-3.191,0,0,0,81,false,stim,true,0,283,1,0,1,95405,task2,631345,false,false,757,image-keyboard-response,27
true,6,2,1,1,false,z,true,true,0.0-2.0-0.21-0.192-3.192,0,0,0,68,false,stim,false,0,282,1,0,2,95405,task2,633164,false,true,760,image-keyboard-response,28
true,6,2,1,1,false,z,true,true,0.0-2.0-0.21-0.193-3.193,0,0,0,68,false,stim,false,0,258,1,0,2,95405,task2,634960,false,true,763,image-keyboard-response,29
true,6,2,1,2,true,d,false,true,0.0-2.0-0.21-0.194-3.194,0,0,0,68,false,stim,false,1,244,1,0,0,95405,task2,636746,false,false,766,image-keyboard-response,30
true,6,2,1,1,false,z,true,false,0.0-2.0-0.21-0.195-3.195,0,0,0,68,false,stim,false,0,231,1,0,1,95405,task2,638513,false,false,769,image-keyboard-response,31
true,6,1,1,2,false,d,false,false,0.0-2.0-0.21-0.196-3.196,0,0,0,90,false,stim,true,1,264,1,0,0,95405,task2,640316,false,false,772,image-keyboard-response,32
true,6,0,1,2,false,d,true,true,0.0-2.0-0.21-0.197-3.197,0,0,0,81,false,stim,false,1,217,1,0,0,95405,task2,642068,false,true,775,image-keyboard-response,33
true,6,0,1,1,false,z,false,false,0.0-2.0-0.22-0.198-3.198,0,0,0,81,false,stim,true,0,240,1,0,1,95405,task2,643833,false,false,778,image-keyboard-response,34
true,7,1,1,1,true,z,false,true,0.0-2.0-0.22-0.199-3.199,0,0,0,90,true,stim,false,2,134,1,0,0,95405,task2,645503,false,false,781,image-keyboard-response,1
true,7,1,1,2,false,d,false,false,0.0-2.0-0.22-0.200-3.200,0,0,0,90,false,stim,true,1,240,1,0,2,95405,task2,647273,false,false,784,image-keyboard-response,2
true,7,2,1,1,false,z,false,false,0.0-2.0-0.22-0.201-3.201,0,0,0,68,false,stim,true,2,268,1,0,0,95405,task2,649069,false,false,787,image-keyboard-response,3
true,7,0,1,0,true,q,false,true,0.0-2.0-0.22-0.202-3.202,0,0,0,81,false,stim,false,1,347,1,0,1,95405,task2,650938,false,false,790,image-keyboard-response,4
true,7,0,1,2,false,d,true,false,0.0-2.0-0.22-0.203-3.203,0,0,0,81,false,stim,false,1,241,1,0,2,95405,task2,652713,false,false,793,image-keyboard-response,5
true,7,1,1,2,false,d,false,false,0.0-2.0-0.22-0.204-3.204,0,0,0,90,false,stim,true,1,215,1,0,2,95405,task2,654457,false,false,796,image-keyboard-response,6
true,7,2,1,1,false,z,false,false,0.0-2.0-0.22-0.205-3.205,0,0,0,68,false,stim,true,2,281,1,0,0,95405,task2,656264,false,false,799,image-keyboard-response,7
true,7,0,1,0,true,q,false,true,0.0-2.0-0.22-0.206-3.206,0,0,0,81,false,stim,false,1,308,1,0,1,95405,task2,658110,false,false,802,image-keyboard-response,8
true,7,0,1,0,true,q,false,false,0.0-2.0-0.23-0.207-3.207,0,0,0,81,false,stim,false,1,346,1,0,1,95405,task2,659988,false,true,805,image-keyboard-response,9
true,7,1,1,1,true,z,false,true,0.0-2.0-0.23-0.208-3.208,0,0,0,90,false,stim,false,2,219,1,0,0,95405,task2,661741,false,false,808,image-keyboard-response,10
true,7,1,1,2,false,d,false,false,0.0-2.0-0.23-0.209-3.209,0,0,0,90,false,stim,true,1,220,1,0,2,95405,task2,663492,false,false,811,image-keyboard-response,11
true,7,2,1,2,true,d,false,true,0.0-2.0-0.23-0.210-3.210,0,0,0,68,false,stim,false,1,279,1,0,2,95405,task2,665310,false,false,814,image-keyboard-response,12
true,7,2,1,2,true,d,false,false,0.0-2.0-0.23-0.211-3.211,0,0,0,68,false,stim,false,1,309,1,0,2,95405,task2,667161,false,true,817,image-keyboard-response,13
true,7,0,1,1,false,z,true,false,0.0-2.0-0.23-0.212-3.212,0,0,0,81,false,stim,false,2,300,1,0,0,95405,task2,669003,false,false,820,image-keyboard-response,14
true,7,1,1,0,false,q,false,false,0.0-2.0-0.23-0.213-3.213,0,0,0,90,false,stim,true,1,384,1,0,1,95405,task2,670927,false,false,823,image-keyboard-response,15
true,7,2,1,0,false,q,true,false,0.0-2.0-0.23-0.214-3.214,0,0,0,68,false,stim,false,1,303,1,0,1,95405,task2,672765,false,false,826,image-keyboard-response,16
true,7,0,1,1,false,z,true,false,0.0-2.0-0.23-0.215-3.215,0,0,0,81,false,stim,false,2,267,1,0,0,95405,task2,674570,false,false,829,image-keyboard-response,17
true,7,1,1,2,false,d,false,false,0.0-2.0-0.24-0.216-3.216,0,0,0,90,false,stim,true,1,235,1,0,2,95405,task2,676347,false,false,832,image-keyboard-response,18
true,7,2,1,0,false,q,true,false,0.0-2.0-0.24-0.217-3.217,0,0,0,68,false,stim,false,1,307,1,0,1,95405,task2,678179,false,false,835,image-keyboard-response,19
true,7,0,1,0,true,q,false,true,0.0-2.0-0.24-0.218-3.218,0,0,0,81,false,stim,false,1,226,1,0,1,95405,task2,679947,false,false,838,image-keyboard-response,20
true,7,0,1,1,false,z,true,false,0.0-2.0-0.24-0.219-3.219,0,0,0,81,false,stim,false,2,327,1,0,0,95405,task2,681809,false,false,841,image-keyboard-response,21
true,7,1,1,1,true,z,false,true,0.0-2.0-0.24-0.220-3.220,0,0,0,90,false,stim,false,2,319,1,0,0,95405,task2,683663,false,false,844,image-keyboard-response,22
true,7,1,1,2,false,d,false,false,0.0-2.0-0.24-0.221-3.221,0,0,0,90,false,stim,true,1,254,1,0,2,95405,task2,685455,false,false,847,image-keyboard-response,23
true,7,2,1,2,true,d,false,true,0.0-2.0-0.24-0.222-3.222,0,0,0,68,false,stim,false,1,237,1,0,2,95405,task2,687219,false,false,850,image-keyboard-response,24
true,7,2,1,0,false,q,true,true,0.0-2.0-0.24-0.223-3.223,0,0,0,68,false,stim,false,1,197,1,0,1,95405,task2,688939,false,true,853,image-keyboard-response,25
true,7,2,1,1,false,z,false,false,0.0-2.0-0.24-0.224-3.224,0,0,0,68,false,stim,true,2,341,1,0,0,95405,task2,690803,false,false,856,image-keyboard-response,26
true,7,0,1,0,true,q,false,true,0.0-2.0-0.25-0.225-3.225,0,0,0,81,false,stim,false,1,97,1,0,1,95405,task2,692439,false,false,859,image-keyboard-response,27
true,7,0,1,0,true,q,false,true,0.0-2.0-0.25-0.226-3.226,0,0,0,81,false,stim,false,1,318,1,0,1,95405,task2,694300,false,false,862,image-keyboard-response,28
true,7,0,1,1,false,z,true,false,0.0-2.0-0.25-0.227-3.227,0,0,0,81,false,stim,false,2,374,1,0,0,95405,task2,696216,false,false,865,image-keyboard-response,29
true,7,1,1,2,false,d,false,true,0.0-2.0-0.25-0.228-3.228,0,0,0,90,false,stim,true,1,241,1,0,2,95405,task2,697983,false,true,868,image-keyboard-response,30
true,7,1,1,2,false,d,false,false,0.0-2.0-0.25-0.229-3.229,0,0,0,90,false,stim,true,1,231,1,0,2,95405,task2,699754,false,false,871,image-keyboard-response,31
true,7,0,1,0,true,q,false,true,0.0-2.0-0.25-0.230-3.230,0,0,0,81,false,stim,false,1,318,1,0,1,95405,task2,701600,false,false,874,image-keyboard-response,32
true,7,0,1,2,false,d,true,false,0.0-2.0-0.25-0.231-3.231,0,0,0,81,false,stim,false,1,211,1,0,2,95405,task2,703351,false,false,877,image-keyboard-response,33
true,7,1,1,1,true,z,false,true,0.0-2.0-0.25-0.232-3.232,0,0,0,90,false,stim,false,2,70,1,0,0,95405,task2,704951,false,false,880,image-keyboard-response,34
true,7,1,1,1,true,z,false,true,0.0-2.0-0.25-0.233-3.233,0,0,0,90,false,stim,false,2,88,1,0,0,95405,task2,706570,false,false,883,image-keyboard-response,35
true,7,1,1,1,true,z,false,false,0.0-2.0-0.26-0.234-3.234,0,0,0,90,false,stim,false,2,62,1,0,0,95405,task2,708164,false,true,886,image-keyboard-response,36
true,7,2,1,0,false,q,true,false,0.0-2.0-0.26-0.235-3.235,0,0,0,68,false,stim,false,1,290,1,0,1,95405,task2,709983,false,false,889,image-keyboard-response,37
true,8,0,1,1,false,z,true,false,0.0-2.0-0.26-0.236-3.236,0,0,0,81,true,stim,false,2,270,1,0,2,95405,task2,711781,false,false,892,image-keyboard-response,1
true,8,1,1,1,true,z,false,true,0.0-2.0-0.26-0.237-3.237,0,0,0,90,false,stim,false,2,327,1,0,2,95405,task2,713649,false,false,895,image-keyboard-response,2
true,8,1,1,2,false,d,false,false,0.0-2.0-0.26-0.238-3.238,0,0,0,90,false,stim,true,1,224,1,0,0,95405,task2,715405,false,false,898,image-keyboard-response,3
true,8,2,1,2,true,d,false,true,0.0-2.0-0.26-0.239-3.239,0,0,0,68,false,stim,false,1,279,1,0,0,95405,task2,717235,false,false,901,image-keyboard-response,4
true,8,2,1,1,false,z,false,true,0.0-2.0-0.26-0.240-3.240,0,0,0,68,false,stim,true,2,274,1,0,2,95405,task2,719037,false,true,904,image-keyboard-response,5
true,8,2,1,2,true,d,false,true,0.0-2.0-0.26-0.241-3.241,0,0,0,68,false,stim,false,0,224,1,0,1,95405,task2,720786,false,false,907,image-keyboard-response,6
true,8,2,1,2,true,d,false,true,0.0-2.0-0.26-0.242-3.242,0,0,0,68,false,stim,false,0,236,1,0,1,95405,task2,722558,false,false,910,image-keyboard-response,7
true,8,2,1,2,true,d,false,true,0.0-2.0-0.27-0.243-3.243,0,0,0,68,false,stim,false,0,201,1,0,1,95405,task2,724282,false,false,913,image-keyboard-response,8
true,8,2,1,1,false,z,false,false,0.0-2.0-0.27-0.244-3.244,0,0,0,68,false,stim,true,2,531,1,0,2,95405,task2,726354,false,false,916,image-keyboard-response,9
true,8,0,1,2,false,d,true,false,0.0-2.0-0.27-0.245-3.245,0,0,0,81,false,stim,false,1,287,1,0,0,95405,task2,728168,false,false,919,image-keyboard-response,10
true,8,1,1,2,false,d,true,false,0.0-2.0-0.27-0.246-3.246,0,0,0,90,false,stim,false,0,187,1,0,1,95405,task2,729888,false,false,922,image-keyboard-response,11
true,8,2,1,1,false,z,false,false,0.0-2.0-0.27-0.247-3.247,0,0,0,68,false,stim,true,2,251,1,0,2,95405,task2,731674,false,false,925,image-keyboard-response,12
true,8,0,1,2,false,d,true,false,0.0-2.0-0.27-0.248-3.248,0,0,0,81,false,stim,false,1,267,1,0,0,95405,task2,733469,false,false,928,image-keyboard-response,13
true,8,1,1,1,true,z,false,true,0.0-2.0-0.27-0.249-3.249,0,0,0,90,false,stim,false,2,261,1,0,2,95405,task2,735262,false,false,931,image-keyboard-response,14
true,8,1,1,2,false,d,true,true,0.0-2.0-0.27-0.250-3.250,0,0,0,90,false,stim,false,0,349,1,0,1,95405,task2,737152,false,true,934,image-keyboard-response,15
true,8,1,1,2,false,d,false,false,0.0-2.0-0.27-0.251-3.251,0,0,0,90,false,stim,true,1,286,1,0,0,95405,task2,738968,false,false,937,image-keyboard-response,16
true,8,2,1,2,true,d,false,true,0.0-2.0-0.28-0.252-3.252,0,0,0,68,false,stim,false,1,326,1,0,0,95405,task2,740828,false,false,940,image-keyboard-response,17
true,8,2,1,2,true,d,false,true,0.0-2.0-0.28-0.253-3.253,0,0,0,68,false,stim,false,0,306,1,0,1,95405,task2,742668,false,false,943,image-keyboard-response,18
true,8,2,1,2,true,d,false,true,0.0-2.0-0.28-0.254-3.254,0,0,0,68,false,stim,false,0,259,1,0,1,95405,task2,744462,false,false,946,image-keyboard-response,19
true,8,2,1,1,false,z,false,false,0.0-2.0-0.28-0.255-3.255,0,0,0,68,false,stim,true,2,264,1,0,2,95405,task2,746266,false,false,949,image-keyboard-response,20
true,8,0,1,1,false,z,true,false,0.0-2.0-0.28-0.256-3.256,0,0,0,81,false,stim,false,2,322,1,0,2,95405,task2,748124,false,false,952,image-keyboard-response,21
true,8,1,1,2,false,d,true,false,0.0-2.0-0.28-0.257-3.257,0,0,0,90,false,stim,false,0,338,1,0,1,95405,task2,750000,false,false,955,image-keyboard-response,22
true,8,2,1,1,false,z,false,false,0.0-2.0-0.28-0.258-3.258,0,0,0,68,false,stim,true,2,326,1,0,2,95405,task2,751868,false,false,958,image-keyboard-response,23
true,8,2,1,2,true,d,false,true,0.0-2.0-0.28-0.259-3.259,0,0,0,68,false,stim,false,1,254,1,0,0,95405,task2,753657,false,false,961,image-keyboard-response,24
true,8,2,1,2,true,d,false,true,0.0-2.0-0.28-0.260-3.260,0,0,0,68,false,stim,false,1,213,1,0,0,95405,task2,755396,false,false,964,image-keyboard-response,25
true,8,2,1,1,false,z,false,false,0.0-2.0-0.29-0.261-3.261,0,0,0,68,false,stim,true,2,149,1,0,2,95405,task2,757070,false,false,967,image-keyboard-response,26
true,8,1,1,1,true,z,false,true,0.0-2.0-0.29-0.262-3.262,0,0,0,90,false,stim,false,2,89,1,0,2,95405,task2,758692,false,false,970,image-keyboard-response,27
true,8,1,1,2,false,d,false,false,0.0-2.0-0.29-0.263-3.263,0,0,0,90,false,stim,true,1,310,1,0,0,95405,task2,760533,false,false,973,image-keyboard-response,28
true,8,0,1,2,false,d,false,false,0.0-2.0-0.29-0.264-3.264,0,0,0,81,false,stim,true,0,219,1,0,1,95405,task2,762280,false,false,976,image-keyboard-response,29
true,8,0,1,2,false,d,true,false,0.0-2.0-0.29-0.265-3.265,0,0,0,81,false,stim,false,1,349,1,0,0,95405,task2,764172,false,false,979,image-keyboard-response,30
true,8,2,1,2,true,d,false,true,0.0-2.0-0.29-0.266-3.266,0,0,0,68,false,stim,false,0,689,1,0,1,95405,task2,766392,false,false,982,image-keyboard-response,31
true,8,2,1,2,true,d,false,true,0.0-2.0-0.29-0.267-3.267,0,0,0,68,false,stim,false,1,252,1,1,0,95405,task2,768174,false,false,985,image-keyboard-response,32
true,8,2,1,2,true,d,false,true,0.0-2.0-0.29-0.268-3.268,0,0,0,68,false,stim,false,0,273,1,0,1,95405,task2,769974,false,false,988,image-keyboard-response,33
true,8,2,1,1,false,z,false,false,0.0-2.0-0.29-0.269-3.269,0,0,0,68,false,stim,true,2,209,1,0,2,95405,task2,771710,false,false,991,image-keyboard-response,34
true,8,1,1,1,true,z,false,true,0.0-2.0-0.30-0.270-3.270,0,0,0,90,false,stim,false,2,173,1,0,2,95405,task2,773413,false,false,994,image-keyboard-response,35
true,8,1,1,2,false,d,false,true,0.0-2.0-0.30-0.271-3.271,0,0,0,90,false,stim,true,1,171,1,1,0,95405,task2,775112,false,true,997,image-keyboard-response,36
true,9,1,2,0,false,q,false,false,0.0-2.0-0.30-0.272-3.272,1,0,0,90,true,stim,true,1,199,1,0,2,95405,task2,776842,false,false,1000,image-keyboard-response,1
true,9,0,2,2,false,d,true,false,0.0-2.0-0.30-0.273-3.273,1,0,0,81,false,stim,false,2,451,1,1,0,95405,task2,778832,false,false,1003,image-keyboard-response,2
true,9,0,2,1,false,z,true,false,0.0-2.0-0.30-0.274-3.274,1,0,0,81,false,stim,false,2,439,1,0,1,95405,task2,780801,false,false,1006,image-keyboard-response,3
true,9,2,2,0,false,q,true,false,0.0-2.0-0.30-0.275-3.275,1,0,0,68,false,stim,false,1,271,1,0,2,95405,task2,782601,false,false,1009,image-keyboard-response,4
true,9,1,2,2,false,d,true,false,0.0-2.0-0.30-0.276-3.276,1,0,0,90,false,stim,false,2,278,1,1,0,95405,task2,784404,false,false,1012,image-keyboard-response,5
true,9,1,2,1,true,z,false,true,0.0-2.0-0.30-0.277-3.277,1,0,0,90,false,stim,false,2,477,1,0,1,95405,task2,786417,false,false,1015,image-keyboard-response,6
true,9,1,2,1,true,z,false,true,0.0-2.0-0.30-0.278-3.278,1,0,0,90,false,stim,false,2,1157,1,0,1,95405,task2,789098,false,false,1018,image-keyboard-response,7
true,9,1,2,2,false,d,true,false,0.0-2.0-0.31-0.279-3.279,1,0,0,90,false,stim,false,2,1037,1,1,0,95405,task2,791669,false,false,1021,image-keyboard-response,8
true,9,0,2,1,false,z,true,false,0.0-2.0-0.31-0.280-3.280,1,0,0,81,false,stim,false,2,762,1,0,1,95405,task2,793974,false,false,1024,image-keyboard-response,9
true,9,2,2,0,false,q,true,false,0.0-2.0-0.31-0.281-3.281,1,0,0,68,false,stim,false,1,251,1,0,2,95405,task2,795764,false,false,1027,image-keyboard-response,10
true,9,0,2,1,false,z,true,false,0.0-2.0-0.31-0.282-3.282,1,0,0,81,false,stim,false,2,280,1,0,1,95405,task2,797573,false,false,1030,image-keyboard-response,11
true,9,1,2,0,false,q,false,true,0.0-2.0-0.31-0.283-3.283,1,0,0,90,false,stim,true,1,299,1,0,2,95405,task2,799412,false,true,1033,image-keyboard-response,12
true,9,1,2,2,false,d,true,false,0.0-2.0-0.31-0.284-3.284,1,0,0,90,false,stim,false,2,389,1,1,0,95405,task2,801330,false,false,1036,image-keyboard-response,13
true,9,0,2,2,false,d,true,false,0.0-2.0-0.31-0.285-3.285,1,0,0,81,false,stim,false,2,1106,1,1,0,95405,task2,803968,false,false,1039,image-keyboard-response,14
true,9,2,2,1,false,z,false,false,0.0-2.0-0.31-0.286-3.286,1,0,0,68,false,stim,true,2,356,1,0,1,95405,task2,805858,false,false,1042,image-keyboard-response,15
true,9,0,2,0,true,q,false,true,0.0-2.0-0.31-0.287-3.287,1,0,0,81,false,stim,false,1,707,1,0,2,95405,task2,808089,false,false,1045,image-keyboard-response,16
true,9,2,2,2,true,d,false,true,0.0-2.0-0.32-0.288-3.288,1,0,0,68,false,stim,false,2,1752,1,1,0,95405,task2,811374,false,false,1048,image-keyboard-response,17
true,9,0,2,0,true,q,false,true,0.0-2.0-0.32-0.289-3.289,1,0,0,81,false,stim,false,1,786,1,0,2,95405,task2,813689,false,false,1051,image-keyboard-response,18
true,9,2,2,2,true,d,false,false,0.0-2.0-0.32-0.290-3.290,1,0,0,68,false,stim,false,2,1597,1,1,0,95405,task2,816819,false,true,1054,image-keyboard-response,19
true,9,1,2,1,true,z,false,true,0.0-2.0-0.32-0.291-3.291,1,0,0,90,false,stim,false,2,279,1,0,1,95405,task2,818631,false,false,1057,image-keyboard-response,20
true,9,1,2,2,false,d,true,false,0.0-2.0-0.32-0.292-3.292,1,0,0,90,false,stim,false,2,944,1,1,0,95405,task2,821112,false,false,1060,image-keyboard-response,21
true,9,1,2,1,true,z,false,true,0.0-2.0-0.32-0.293-3.293,1,0,0,90,false,stim,false,2,1285,1,0,1,95405,task2,823937,false,false,1063,image-keyboard-response,22
true,9,1,2,0,false,q,false,false,0.0-2.0-0.32-0.294-3.294,1,0,0,90,false,stim,true,1,196,1,0,2,95405,task2,825669,false,false,1066,image-keyboard-response,23
true,9,0,2,1,false,z,true,false,0.0-2.0-0.32-0.295-3.295,1,0,0,81,false,stim,false,2,1216,1,0,1,95405,task2,828427,false,false,1069,image-keyboard-response,24
true,9,2,2,0,false,q,true,false,0.0-2.0-0.32-0.296-3.296,1,0,0,68,false,stim,false,1,731,1,0,2,95405,task2,830683,false,false,1072,image-keyboard-response,25
true,9,1,2,0,false,q,false,false,0.0-2.0-0.33-0.297-3.297,1,0,0,90,false,stim,true,1,1,1,0,2,95405,task2,832216,false,false,1075,image-keyboard-response,26
true,9,1,2,1,true,z,false,true,0.0-2.0-0.33-0.298-3.298,1,0,0,90,false,stim,false,2,749,1,0,1,95405,task2,834492,false,false,1078,image-keyboard-response,27
true,9,1,2,1,true,z,false,true,0.0-2.0-0.33-0.299-3.299,1,0,0,90,false,stim,false,2,458,1,0,1,95405,task2,836481,false,false,1081,image-keyboard-response,28
true,9,1,2,0,false,q,false,false,0.0-2.0-0.33-0.300-3.300,1,0,0,90,false,stim,true,1,601,1,0,2,95405,task2,838593,false,false,1084,image-keyboard-response,29
true,9,0,2,2,false,d,true,false,0.0-2.0-0.33-0.301-3.301,1,0,0,81,false,stim,false,2,2567,1,1,0,95405,task2,842699,false,false,1087,image-keyboard-response,30
true,9,1,2,1,true,z,false,true,0.0-2.0-0.33-0.302-3.302,1,0,0,90,false,stim,false,2,490,1,0,1,95405,task2,844723,false,false,1090,image-keyboard-response,31
true,9,1,2,2,false,d,true,false,0.0-2.0-0.33-0.303-3.303,1,0,0,90,false,stim,false,2,548,1,0,0,95405,task2,846801,false,false,1093,image-keyboard-response,32
true,9,2,2,2,true,d,false,true,0.0-2.0-0.33-0.304-3.304,1,0,0,68,false,stim,false,2,245,1,0,0,95405,task2,848577,false,false,1096,image-keyboard-response,33
true,9,2,2,0,false,q,true,false,0.0-2.0-0.33-0.305-3.305,1,0,0,68,false,stim,false,1,248,1,0,2,95405,task2,850351,false,false,1099,image-keyboard-response,34
true,9,0,2,2,false,d,true,false,0.0-2.0-0.34-0.306-3.306,1,0,0,81,false,stim,false,2,807,1,0,0,95405,task2,852687,false,false,1102,image-keyboard-response,35
true,10,1,1,2,false,d,false,true,0.0-2.0-0.34-0.307-3.307,0,0,0,90,true,stim,true,1,378,1,0,1,95405,task2,854589,false,true,1105,image-keyboard-response,1
true,10,1,1,2,false,d,true,false,0.0-2.0-0.34-0.308-3.308,0,0,0,90,false,stim,false,0,581,1,0,2,95405,task2,856713,false,false,1108,image-keyboard-response,2
true,10,2,1,2,true,d,false,true,0.0-2.0-0.34-0.309-3.309,0,0,0,68,false,stim,false,1,496,1,0,1,95405,task2,858746,false,false,1111,image-keyboard-response,3
true,10,2,1,2,true,d,false,true,0.0-2.0-0.34-0.310-3.310,0,0,0,68,false,stim,false,0,717,1,0,2,95405,task2,860999,false,false,1114,image-keyboard-response,4
true,10,2,1,2,true,d,false,true,0.0-2.0-0.34-0.311-3.311,0,0,0,68,false,stim,false,1,334,1,0,1,95405,task2,862876,false,false,1117,image-keyboard-response,5
true,10,2,1,2,true,d,false,true,0.0-2.0-0.34-0.312-3.312,0,0,0,68,false,stim,false,0,534,1,0,2,95405,task2,864931,false,false,1120,image-keyboard-response,6
true,10,2,1,0,false,q,false,false,0.0-2.0-0.34-0.313-3.313,0,0,0,68,false,stim,true,2,617,1,0,0,95405,task2,867079,false,false,1123,image-keyboard-response,7
true,10,1,1,0,false,q,true,false,0.0-2.0-0.34-0.314-3.314,0,0,0,90,false,stim,false,2,1252,1,0,0,95405,task2,869874,false,false,1126,image-keyboard-response,8
true,10,0,1,2,false,d,false,false,0.0-2.0-0.35-0.315-3.315,0,0,0,81,false,stim,true,0,399,1,0,2,95405,task2,871802,false,false,1129,image-keyboard-response,9
true,10,1,1,2,false,d,true,false,0.0-2.0-0.35-0.316-3.316,0,0,0,90,false,stim,false,0,604,1,0,2,95405,task2,873945,false,false,1132,image-keyboard-response,10
true,10,1,1,2,false,d,false,false,0.0-2.0-0.35-0.317-3.317,0,0,0,90,false,stim,true,1,754,1,0,1,95405,task2,876236,false,false,1135,image-keyboard-response,11
true,10,0,1,2,false,d,true,false,0.0-2.0-0.35-0.318-3.318,0,0,0,81,false,stim,false,1,312,1,0,1,95405,task2,878073,false,false,1138,image-keyboard-response,12
true,10,1,1,0,false,q,true,false,0.0-2.0-0.35-0.319-3.319,0,0,0,90,false,stim,false,2,683,1,0,0,95405,task2,880286,false,false,1141,image-keyboard-response,13
true,10,2,1,0,false,q,false,false,0.0-2.0-0.35-0.320-3.320,0,0,0,68,false,stim,true,2,670,1,0,0,95405,task2,882493,false,false,1144,image-keyboard-response,14
true,10,0,1,0,true,q,false,true,0.0-2.0-0.35-0.321-3.321,0,0,0,81,false,stim,false,2,136,1,0,0,95405,task2,884158,false,false,1147,image-keyboard-response,15
true,10,0,1,2,false,d,false,false,0.0-2.0-0.35-0.322-3.322,0,0,0,81,false,stim,true,0,402,1,0,2,95405,task2,886086,false,false,1150,image-keyboard-response,16
true,10,1,1,2,false,d,false,false,0.0-2.0-0.35-0.323-3.323,0,0,0,90,false,stim,true,1,451,1,0,1,95405,task2,888062,false,false,1153,image-keyboard-response,17
true,10,1,1,0,false,q,true,false,0.0-2.0-0.36-0.324-3.324,0,0,0,90,false,stim,false,2,564,1,0,0,95405,task2,890156,false,false,1156,image-keyboard-response,18
true,10,1,1,2,false,d,true,false,0.0-2.0-0.36-0.325-3.325,0,0,0,90,false,stim,false,0,1393,1,0,2,95405,task2,893085,false,false,1159,image-keyboard-response,19
true,10,2,1,0,false,q,false,false,0.0-2.0-0.36-0.326-3.326,0,0,0,68,false,stim,true,2,743,1,0,0,95405,task2,895366,false,false,1162,image-keyboard-response,20
true,10,1,1,2,false,d,true,false,0.0-2.0-0.36-0.327-3.327,0,0,0,90,false,stim,false,0,711,1,0,2,95405,task2,897613,false,false,1165,image-keyboard-response,21
true,10,1,1,2,false,d,false,false,0.0-2.0-0.36-0.328-3.328,0,0,0,90,false,stim,true,1,515,1,0,1,95405,task2,899668,false,false,1168,image-keyboard-response,22
true,10,0,1,0,true,q,false,true,0.0-2.0-0.36-0.329-3.329,0,0,0,81,false,stim,false,2,615,1,0,0,95405,task2,901807,false,false,1171,image-keyboard-response,23
true,10,0,1,2,false,d,false,true,0.0-2.0-0.36-0.330-3.330,0,0,0,81,false,stim,true,0,457,1,0,2,95405,task2,903789,false,true,1174,image-keyboard-response,24
true,10,0,1,2,false,d,true,false,0.0-2.0-0.36-0.331-3.331,0,0,0,81,false,stim,false,1,758,1,0,1,95405,task2,906089,false,false,1177,image-keyboard-response,25
true,10,1,1,2,false,d,false,false,0.0-2.0-0.36-0.332-3.332,0,0,0,90,false,stim,true,1,655,1,0,1,95405,task2,908288,false,false,1180,image-keyboard-response,26
true,10,2,1,2,true,d,false,true,0.0-2.0-0.37-0.333-3.333,0,0,0,68,false,stim,false,0,757,1,0,2,95405,task2,910559,false,false,1183,image-keyboard-response,27
true,10,2,1,0,false,q,false,false,0.0-2.0-0.37-0.334-3.334,0,0,0,68,false,stim,true,2,327,1,0,0,95405,task2,912429,false,false,1186,image-keyboard-response,28
true,10,1,1,2,false,d,false,false,0.0-2.0-0.37-0.335-3.335,0,0,0,90,false,stim,true,1,816,1,0,1,95405,task2,914778,false,false,1189,image-keyboard-response,29
true,10,0,1,2,false,d,true,false,0.0-2.0-0.37-0.336-3.336,0,0,0,81,false,stim,false,1,806,1,0,1,95405,task2,917128,false,false,1192,image-keyboard-response,30
true,10,1,1,0,false,q,true,true,0.0-2.0-0.37-0.337-3.337,0,0,0,90,false,stim,false,2,1059,1,0,0,95405,task2,919722,false,true,1195,image-keyboard-response,31
true,10,1,1,2,false,d,false,false,0.0-2.0-0.37-0.338-3.338,0,0,0,90,false,stim,true,1,1341,1,0,1,95405,task2,922603,false,false,1198,image-keyboard-response,32
true,10,2,1,0,false,q,false,false,0.0-2.0-0.37-0.339-3.339,0,0,0,68,false,stim,true,2,1254,1,0,0,95405,task2,925405,false,false,1201,image-keyboard-response,33
true,10,0,1,2,false,d,false,false,0.0-2.0-0.37-0.340-3.340,0,0,0,81,false,stim,true,0,876,1,0,2,95405,task2,927818,false,false,1204,image-keyboard-response,34
true,10,1,1,2,false,d,true,false,0.0-2.0-0.37-0.341-3.341,0,0,0,90,false,stim,false,0,1161,1,0,2,95405,task2,930503,false,false,1207,image-keyboard-response,35
true,10,1,1,0,false,q,true,true,0.0-2.0-0.38-0.342-3.342,0,0,0,90,false,stim,false,2,612,1,0,0,95405,task2,932655,false,true,1210,image-keyboard-response,36
true,10,1,1,2,false,d,true,false,0.0-2.0-0.38-0.343-3.343,0,0,0,90,false,stim,false,0,1048,1,0,2,95405,task2,935230,false,false,1213,image-keyboard-response,37
true,11,2,2,2,true,d,false,true,0.0-2.0-0.38-0.344-3.344,0,1,0,68,true,stim,false,2,965,1,1,1,95405,task2,937727,false,false,1216,image-keyboard-response,1
true,11,2,2,2,true,d,false,true,0.0-2.0-0.38-0.345-3.345,0,1,0,68,false,stim,false,0,785,1,0,0,95405,task2,940047,false,false,1219,image-keyboard-response,2
true,11,2,2,2,true,d,false,false,0.0-2.0-0.38-0.346-3.346,0,1,0,68,false,stim,false,2,839,1,1,1,95405,task2,942422,false,true,1222,image-keyboard-response,3
true,11,2,2,2,true,d,false,true,0.0-2.0-0.38-0.347-3.347,0,1,0,68,false,stim,false,2,1271,1,1,1,95405,task2,945233,false,false,1225,image-keyboard-response,4
true,11,2,2,2,true,d,false,true,0.0-2.0-0.38-0.348-3.348,0,1,0,68,false,stim,false,0,761,1,0,0,95405,task2,947523,false,false,1228,image-keyboard-response,5
true,11,2,2,0,false,q,false,false,0.0-2.0-0.38-0.349-3.349,0,1,0,68,false,stim,true,2,734,1,0,2,95405,task2,949796,false,false,1231,image-keyboard-response,6
true,11,2,2,0,false,q,false,false,0.0-2.0-0.38-0.350-3.350,0,1,0,68,false,stim,true,2,1366,1,0,2,95405,task2,952687,false,false,1234,image-keyboard-response,7
true,11,0,2,2,false,d,true,false,0.0-2.0-0.39-0.351-3.351,0,1,0,81,false,stim,false,2,660,1,1,1,95405,task2,954883,false,false,1237,image-keyboard-response,8
true,11,1,2,0,false,q,true,false,0.0-2.0-0.39-0.352-3.352,0,1,0,90,false,stim,false,2,405,1,0,2,95405,task2,956827,false,false,1240,image-keyboard-response,9
true,11,1,2,2,false,d,true,false,0.0-2.0-0.39-0.353-3.353,0,1,0,90,false,stim,false,2,265,1,1,1,95405,task2,958627,false,false,1243,image-keyboard-response,10
true,11,0,2,2,false,d,false,true,0.0-2.0-0.39-0.354-3.354,0,1,0,81,false,stim,true,0,503,1,0,0,95405,task2,960656,false,true,1246,image-keyboard-response,11
true,11,0,2,0,true,q,false,true,0.0-2.0-0.39-0.355-3.355,0,1,0,81,false,stim,false,2,685,1,0,2,95405,task2,962877,false,false,1249,image-keyboard-response,12
true,11,0,2,2,false,d,false,true,0.0-2.0-0.39-0.356-3.356,0,1,0,81,false,stim,true,0,824,1,0,0,95405,task2,965235,false,true,1252,image-keyboard-response,13
true,11,0,2,2,false,d,false,false,0.0-2.0-0.39-0.357-3.357,0,1,0,81,false,stim,true,0,450,1,0,0,95405,task2,967211,false,false,1255,image-keyboard-response,14
true,11,2,2,2,true,d,false,true,0.0-2.0-0.39-0.358-3.358,0,1,0,68,false,stim,false,2,459,1,1,1,95405,task2,969201,false,false,1258,image-keyboard-response,15
true,11,2,2,0,false,q,false,false,0.0-2.0-0.39-0.359-3.359,0,1,0,68,false,stim,true,2,471,1,0,2,95405,task2,971214,false,false,1261,image-keyboard-response,16
true,11,1,2,0,false,q,true,false,0.0-2.0-0.40-0.360-3.360,0,1,0,90,false,stim,false,2,416,1,0,2,95405,task2,973159,false,false,1264,image-keyboard-response,17
true,11,0,2,2,false,d,true,false,0.0-2.0-0.40-0.361-3.361,0,1,0,81,false,stim,false,2,615,1,1,1,95405,task2,975313,false,false,1267,image-keyboard-response,18
true,11,1,2,0,false,q,true,true,0.0-2.0-0.40-0.362-3.362,0,1,0,90,false,stim,false,2,345,1,0,2,95405,task2,977187,false,true,1270,image-keyboard-response,19
true,11,1,2,2,false,d,true,false,0.0-2.0-0.40-0.363-3.363,0,1,0,90,false,stim,false,2,1401,1,1,1,95405,task2,980123,false,false,1273,image-keyboard-response,20
true,11,2,2,2,true,d,false,true,0.0-2.0-0.40-0.364-3.364,0,1,0,68,false,stim,false,0,978,1,0,0,95405,task2,982641,false,false,1276,image-keyboard-response,21
true,11,2,2,2,true,d,false,true,0.0-2.0-0.40-0.365-3.365,0,1,0,68,false,stim,false,2,368,1,1,1,95405,task2,984551,false,false,1279,image-keyboard-response,22
true,11,2,2,0,false,q,false,false,0.0-2.0-0.40-0.366-3.366,0,1,0,68,false,stim,true,2,713,1,0,2,95405,task2,986795,false,false,1282,image-keyboard-response,23
true,11,1,2,2,false,d,true,false,0.0-2.0-0.40-0.367-3.367,0,1,0,90,false,stim,false,0,901,1,0,0,95405,task2,989224,false,false,1285,image-keyboard-response,24
true,11,0,2,2,false,d,false,false,0.0-2.0-0.40-0.368-3.368,0,1,0,81,false,stim,true,0,1139,1,0,0,95405,task2,991901,false,false,1288,image-keyboard-response,25
true,11,1,2,2,false,d,true,false,0.0-2.0-0.41-0.369-3.369,0,1,0,90,false,stim,false,2,886,1,1,1,95405,task2,994329,false,false,1291,image-keyboard-response,26
true,11,2,2,0,false,q,false,true,0.0-2.0-0.41-0.370-3.370,0,1,0,68,false,stim,true,2,587,1,0,2,95405,task2,996448,false,true,1294,image-keyboard-response,27
true,11,2,2,2,true,d,false,true,0.0-2.0-0.41-0.371-3.371,0,1,0,68,false,stim,false,0,315,1,1,0,95405,task2,998298,false,false,1297,image-keyboard-response,28
true,11,2,2,0,false,q,false,false,0.0-2.0-0.41-0.372-3.372,0,1,0,68,false,stim,true,2,460,1,0,2,95405,task2,1000281,false,false,1300,image-keyboard-response,29
true,11,1,2,2,false,d,true,true,0.0-2.0-0.41-0.373-3.373,0,1,0,90,false,stim,false,0,134,1,1,0,95405,task2,1001956,false,true,1303,image-keyboard-response,30
true,11,1,2,2,false,d,true,false,0.0-2.0-0.41-0.374-3.374,0,1,0,90,false,stim,false,2,505,1,0,1,95405,task2,1003988,false,false,1306,image-keyboard-response,31
true,11,0,2,2,false,d,true,false,0.0-2.0-0.41-0.375-3.375,0,1,0,81,false,stim,false,2,604,1,0,1,95405,task2,1006124,false,false,1309,image-keyboard-response,32
true,12,2,2,2,true,d,false,true,0.0-2.0-0.41-0.376-3.376,1,0,0,68,true,stim,false,0,1009,1,0,2,95405,task2,1008669,false,false,1312,image-keyboard-response,1
true,12,2,2,2,true,d,false,true,0.0-2.0-0.41-0.377-3.377,1,0,0,68,false,stim,false,2,1209,1,1,0,95405,task2,1011412,false,false,1315,image-keyboard-response,2
true,12,2,2,2,true,d,false,true,0.0-2.0-0.42-0.378-3.378,1,0,0,68,false,stim,false,0,660,1,0,2,95405,task2,1013601,false,false,1318,image-keyboard-response,3
true,12,2,2,0,false,q,false,false,0.0-2.0-0.42-0.379-3.379,1,0,0,68,false,stim,true,2,558,1,0,1,95405,task2,1015700,false,false,1321,image-keyboard-response,4
true,12,1,2,2,false,d,true,true,0.0-2.0-0.42-0.380-3.380,1,0,0,90,false,stim,false,2,916,1,1,0,95405,task2,1018157,false,true,1324,image-keyboard-response,5
true,12,1,2,2,false,d,true,false,0.0-2.0-0.42-0.381-3.381,1,0,0,90,false,stim,false,0,360,1,0,2,95405,task2,1020041,false,false,1327,image-keyboard-response,6
true,12,0,2,2,false,d,true,false,0.0-2.0-0.42-0.382-3.382,1,0,0,81,false,stim,false,2,766,1,1,0,95405,task2,1022348,false,false,1330,image-keyboard-response,7
true,12,1,2,0,false,q,true,false,0.0-2.0-0.42-0.383-3.383,1,0,0,90,false,stim,false,2,1037,1,0,1,95405,task2,1024918,false,false,1333,image-keyboard-response,8
true,12,1,2,2,false,d,true,false,0.0-2.0-0.42-0.384-3.384,1,0,0,90,false,stim,false,0,1135,1,0,2,95405,task2,1027577,false,false,1336,image-keyboard-response,9
true,12,2,2,0,false,q,false,true,0.0-2.0-0.42-0.385-3.385,1,0,0,68,false,stim,true,2,730,1,0,1,95405,task2,1029827,false,true,1339,image-keyboard-response,10
true,12,1,2,2,false,d,true,false,0.0-2.0-0.42-0.386-3.386,1,0,0,90,false,stim,false,2,317,1,1,0,95405,task2,1031680,false,false,1342,image-keyboard-response,11
true,12,0,2,2,false,d,true,false,0.0-2.0-0.43-0.387-3.387,1,0,0,81,false,stim,false,2,1156,1,1,0,95405,task2,1034378,false,false,1345,image-keyboard-response,12
true,12,1,2,0,false,q,true,false,0.0-2.0-0.43-0.388-3.388,1,0,0,90,false,stim,false,2,587,1,0,1,95405,task2,1036509,false,false,1348,image-keyboard-response,13
true,12,2,2,2,true,d,false,true,0.0-2.0-0.43-0.389-3.389,1,0,0,68,false,stim,false,2,484,1,1,0,95405,task2,1038527,false,false,1351,image-keyboard-response,14
true,12,2,2,2,true,d,false,true,0.0-2.0-0.43-0.390-3.390,1,0,0,68,false,stim,false,2,1305,1,1,0,95405,task2,1041367,false,false,1354,image-keyboard-response,15
true,12,2,2,2,true,d,false,true,0.0-2.0-0.43-0.391-3.391,1,0,0,68,false,stim,false,0,305,1,0,2,95405,task2,1043198,false,false,1357,image-keyboard-response,16
true,12,2,2,0,false,q,false,false,0.0-2.0-0.43-0.392-3.392,1,0,0,68,false,stim,true,2,473,1,0,1,95405,task2,1045203,false,false,1360,image-keyboard-response,17
true,12,1,2,2,false,d,true,false,0.0-2.0-0.43-0.393-3.393,1,0,0,90,false,stim,false,0,459,1,0,2,95405,task2,1047182,false,false,1363,image-keyboard-response,18
true,12,0,2,0,true,q,false,true,0.0-2.0-0.43-0.394-3.394,1,0,0,81,false,stim,false,2,464,1,0,1,95405,task2,1049185,false,false,1366,image-keyboard-response,19
true,12,0,2,2,false,d,false,false,0.0-2.0-0.43-0.395-3.395,1,0,0,81,false,stim,true,0,564,1,0,2,95405,task2,1051286,false,false,1369,image-keyboard-response,20
true,12,1,2,2,false,d,true,false,0.0-2.0-0.44-0.396-3.396,1,0,0,90,false,stim,false,2,422,1,1,0,95405,task2,1053227,false,false,1372,image-keyboard-response,21
true,12,1,2,2,false,d,true,false,0.0-2.0-0.44-0.397-3.397,1,0,0,90,false,stim,false,2,252,1,1,0,95405,task2,1055004,false,false,1375,image-keyboard-response,22
true,12,2,2,2,true,d,false,true,0.0-2.0-0.44-0.398-3.398,1,0,0,68,false,stim,false,0,381,1,0,2,95405,task2,1056901,false,false,1378,image-keyboard-response,23
true,12,2,2,2,true,d,false,true,0.0-2.0-0.44-0.399-3.399,1,0,0,68,false,stim,false,0,611,1,0,2,95405,task2,1059026,false,false,1381,image-keyboard-response,24
true,12,2,2,0,false,q,false,false,0.0-2.0-0.44-0.400-3.400,1,0,0,68,false,stim,true,2,911,1,0,1,95405,task2,1061464,false,false,1384,image-keyboard-response,25
true,12,2,2,0,false,q,false,false,0.0-2.0-0.44-0.401-3.401,1,0,0,68,false,stim,true,2,858,1,0,1,95405,task2,1063851,false,false,1387,image-keyboard-response,26
true,12,0,2,0,true,q,false,true,0.0-2.0-0.44-0.402-3.402,1,0,0,81,false,stim,false,2,285,1,0,1,95405,task2,1065677,false,false,1390,image-keyboard-response,27
true,12,0,2,2,false,d,false,false,0.0-2.0-0.44-0.403-3.403,1,0,0,81,false,stim,true,0,398,1,0,2,95405,task2,1067601,false,false,1393,image-keyboard-response,28
true,12,1,2,2,false,d,true,false,0.0-2.0-0.44-0.404-3.404,1,0,0,90,false,stim,false,2,405,1,1,0,95405,task2,1069546,false,false,1396,image-keyboard-response,29
true,12,1,2,2,false,d,true,false,0.0-2.0-0.45-0.405-3.405,1,0,0,90,false,stim,false,0,425,1,0,2,95405,task2,1071507,false,false,1399,image-keyboard-response,30
true,12,1,2,2,false,d,true,false,0.0-2.0-0.45-0.406-3.406,1,0,0,90,false,stim,false,0,107,1,0,2,95405,task2,1073150,false,false,1402,image-keyboard-response,31
true,12,0,2,0,true,q,false,true,0.0-2.0-0.45-0.407-3.407,1,0,0,81,false,stim,false,2,711,1,0,1,95405,task2,1075393,false,false,1405,image-keyboard-response,32
true,12,0,2,2,false,d,true,false,0.0-2.0-0.45-0.408-3.408,1,0,0,81,false,stim,false,2,1837,1,0,0,95405,task2,1078748,false,false,1408,image-keyboard-response,33
true,12,2,2,2,true,d,false,true,0.0-2.0-0.45-0.409-3.409,1,0,0,68,false,stim,false,0,959,1,0,2,95405,task2,1081229,false,false,1411,image-keyboard-response,34
true,12,2,2,2,true,d,false,true,0.0-2.0-0.45-0.410-3.410,1,0,0,68,false,stim,false,2,1060,1,0,0,95405,task2,1083832,false,false,1414,image-keyboard-response,35
true,13,2,1,2,true,d,false,true,0.0-2.0-0.45-0.411-3.411,0,0,0,68,true,stim,false,0,966,1,0,1,95405,task2,1086339,false,false,1417,image-keyboard-response,1
true,13,2,1,1,false,z,false,false,0.0-2.0-0.45-0.412-3.412,0,0,0,68,false,stim,true,2,491,1,0,0,95405,task2,1088364,false,false,1420,image-keyboard-response,2
true,13,1,1,2,false,d,true,false,0.0-2.0-0.45-0.413-3.413,0,0,0,90,false,stim,false,0,1637,1,0,1,95405,task2,1091539,false,false,1423,image-keyboard-response,3
true,13,0,1,1,false,z,true,false,0.0-2.0-0.46-0.414-3.414,0,0,0,81,false,stim,false,2,827,1,0,0,95405,task2,1093909,false,false,1426,image-keyboard-response,4
true,13,1,1,0,false,q,true,false,0.0-2.0-0.46-0.415-3.415,0,0,0,90,false,stim,false,2,629,1,0,2,95405,task2,1096082,false,false,1429,image-keyboard-response,5
true,13,2,1,2,true,d,false,true,0.0-2.0-0.46-0.416-3.416,0,0,0,68,false,stim,false,0,665,1,0,1,95405,task2,1098277,false,false,1432,image-keyboard-response,6
true,13,2,1,0,false,q,false,false,0.0-2.0-0.46-0.417-3.417,0,0,0,68,false,stim,true,2,830,1,0,2,95405,task2,1100642,false,false,1435,image-keyboard-response,7
true,13,1,1,2,false,d,true,false,0.0-2.0-0.46-0.418-3.418,0,0,0,90,false,stim,false,0,218,1,0,1,95405,task2,1102388,false,false,1438,image-keyboard-response,8
true,13,0,1,2,false,d,false,true,0.0-2.0-0.46-0.419-3.419,0,0,0,81,false,stim,true,0,493,1,0,1,95405,task2,1104404,false,true,1441,image-keyboard-response,9
true,13,0,1,0,true,q,false,true,0.0-2.0-0.46-0.420-3.420,0,0,0,81,false,stim,false,2,1244,1,0,2,95405,task2,1107177,false,false,1444,image-keyboard-response,10
true,13,0,1,1,false,z,true,false,0.0-2.0-0.46-0.421-3.421,0,0,0,81,false,stim,false,2,340,1,0,0,95405,task2,1109052,false,false,1447,image-keyboard-response,11
true,13,0,1,1,false,z,true,false,0.0-2.0-0.46-0.422-3.422,0,0,0,81,false,stim,false,2,735,1,0,0,95405,task2,1111326,false,false,1450,image-keyboard-response,12
true,13,1,1,2,false,d,true,false,0.0-2.0-0.47-0.423-3.423,0,0,0,90,false,stim,false,0,1,1,0,1,95405,task2,1112852,false,false,1453,image-keyboard-response,13
true,13,1,1,0,false,q,true,true,0.0-2.0-0.47-0.424-3.424,0,0,0,90,false,stim,false,2,735,1,0,2,95405,task2,1115128,false,true,1456,image-keyboard-response,14
true,13,1,1,0,false,q,true,false,0.0-2.0-0.47-0.425-3.425,0,0,0,90,false,stim,false,2,467,1,0,2,95405,task2,1117119,false,false,1459,image-keyboard-response,15
true,13,2,1,1,false,z,false,false,0.0-2.0-0.47-0.426-3.426,0,0,0,68,false,stim,true,2,1318,1,0,0,95405,task2,1119970,false,false,1462,image-keyboard-response,16
true,13,1,1,2,false,d,true,false,0.0-2.0-0.47-0.427-3.427,0,0,0,90,false,stim,false,0,877,1,0,1,95405,task2,1122389,false,false,1465,image-keyboard-response,17
true,13,1,1,1,true,z,false,true,0.0-2.0-0.47-0.428-3.428,0,0,0,90,false,stim,false,2,857,1,0,0,95405,task2,1124787,false,false,1468,image-keyboard-response,18
true,13,0,1,0,true,q,false,true,0.0-2.0-0.47-0.429-3.429,0,0,0,81,false,stim,false,2,780,1,0,2,95405,task2,1127091,false,false,1471,image-keyboard-response,19
true,13,1,1,1,true,z,false,true,0.0-2.0-0.47-0.430-3.430,0,0,0,90,false,stim,false,2,167,1,0,0,95405,task2,1128799,false,false,1474,image-keyboard-response,20
true,13,2,1,2,true,d,false,true,0.0-2.0-0.47-0.431-3.431,0,0,0,68,false,stim,false,0,257,1,0,1,95405,task2,1130588,false,false,1477,image-keyboard-response,21
true,13,0,1,0,true,q,false,true,0.0-2.0-0.48-0.432-3.432,0,0,0,81,false,stim,false,2,310,1,0,2,95405,task2,1132443,false,false,1480,image-keyboard-response,22
true,13,1,1,1,true,z,false,true,0.0-2.0-0.48-0.433-3.433,0,0,0,90,false,stim,false,2,362,1,0,0,95405,task2,1134333,false,false,1483,image-keyboard-response,23
true,13,2,1,1,false,z,false,false,0.0-2.0-0.48-0.434-3.434,0,0,0,68,false,stim,true,2,309,1,0,0,95405,task2,1136183,false,false,1486,image-keyboard-response,24
true,13,0,1,0,true,q,false,true,0.0-2.0-0.48-0.435-3.435,0,0,0,81,false,stim,false,2,377,1,0,2,95405,task2,1138088,false,false,1489,image-keyboard-response,25
true,13,1,1,2,false,d,true,false,0.0-2.0-0.48-0.436-3.436,0,0,0,90,false,stim,false,0,281,1,0,1,95405,task2,1139892,false,false,1492,image-keyboard-response,26
true,13,2,1,0,false,q,false,false,0.0-2.0-0.48-0.437-3.437,0,0,0,68,false,stim,true,2,211,1,0,2,95405,task2,1141643,false,false,1495,image-keyboard-response,27
true,13,0,1,1,false,z,true,false,0.0-2.0-0.48-0.438-3.438,0,0,0,81,false,stim,false,2,345,1,0,0,95405,task2,1143518,false,false,1498,image-keyboard-response,28
true,13,0,1,2,false,d,false,false,0.0-2.0-0.48-0.439-3.439,0,0,0,81,false,stim,true,0,429,1,0,1,95405,task2,1145490,false,false,1501,image-keyboard-response,29
true,13,1,1,2,false,d,true,false,0.0-2.0-0.48-0.440-3.440,0,0,0,90,false,stim,false,0,150,1,0,1,95405,task2,1147182,false,false,1504,image-keyboard-response,30
true,13,2,1,1,false,z,false,false,0.0-2.0-0.49-0.441-3.441,0,0,0,68,false,stim,true,2,44,1,0,0,95405,task2,1148757,false,false,1507,image-keyboard-response,31
true,13,0,1,0,true,q,false,true,0.0-2.0-0.49-0.442-3.442,0,0,0,81,false,stim,false,2,1279,1,0,2,95405,task2,1151571,false,false,1510,image-keyboard-response,32
true,13,1,1,2,false,d,true,false,0.0-2.0-0.49-0.443-3.443,0,0,0,90,false,stim,false,0,1879,1,0,1,95405,task2,1154991,false,false,1513,image-keyboard-response,33
true,13,0,1,2,false,d,false,false,0.0-2.0-0.49-0.444-3.444,0,0,0,81,false,stim,true,0,1044,1,0,1,95405,task2,1157575,false,false,1516,image-keyboard-response,34
true,13,2,1,1,false,z,false,false,0.0-2.0-0.49-0.445-3.445,0,0,0,68,false,stim,true,2,371,1,1,0,95405,task2,1159483,false,false,1519,image-keyboard-response,35
true,13,1,1,1,true,z,false,true,0.0-2.0-0.49-0.446-3.446,0,0,0,90,false,stim,false,2,533,1,1,0,95405,task2,1161545,false,false,1522,image-keyboard-response,36
true,13,1,1,2,false,d,true,true,0.0-2.0-0.49-0.447-3.447,0,0,0,90,false,stim,false,0,726,1,0,1,95405,task2,1163798,false,true,1525,image-keyboard-response,37
true,13,1,1,0,false,q,true,true,0.0-2.0-0.49-0.448-3.448,0,0,0,90,false,stim,false,2,543,1,0,2,95405,task2,1165876,false,true,1528,image-keyboard-response,38
true,14,1,2,1,true,z,false,true,0.0-2.0-0.49-0.449-3.449,1,0,0,90,true,stim,false,0,487,1,0,2,95405,task2,1167899,false,false,1531,image-keyboard-response,1
true,14,1,2,1,true,z,false,true,0.0-2.0-0.50-0.450-3.450,1,0,0,90,false,stim,false,1,560,1,1,0,95405,task2,1169992,false,false,1534,image-keyboard-response,2
true,14,1,2,1,true,z,false,true,0.0-2.0-0.50-0.451-3.451,1,0,0,90,false,stim,false,0,279,1,0,2,95405,task2,1171811,false,false,1537,image-keyboard-response,3
true,14,1,2,0,false,q,true,false,0.0-2.0-0.50-0.452-3.452,1,0,0,90,false,stim,false,2,361,1,0,1,95405,task2,1173713,false,false,1540,image-keyboard-response,4
true,14,0,2,1,false,z,false,false,0.0-2.0-0.50-0.453-3.453,1,0,0,81,false,stim,true,0,426,1,0,2,95405,task2,1175678,false,false,1543,image-keyboard-response,5
true,14,0,2,0,true,q,false,true,0.0-2.0-0.50-0.454-3.454,1,0,0,81,false,stim,false,2,1049,1,0,1,95405,task2,1178262,false,false,1546,image-keyboard-response,6
true,14,2,2,0,false,q,false,false,0.0-2.0-0.50-0.455-3.455,1,0,0,68,false,stim,true,2,1039,1,0,1,95405,task2,1180832,false,false,1549,image-keyboard-response,7
true,14,1,2,1,true,z,false,true,0.0-2.0-0.50-0.456-3.456,1,0,0,90,false,stim,false,1,862,1,1,0,95405,task2,1183234,false,false,1552,image-keyboard-response,8
true,14,1,2,1,true,z,false,true,0.0-2.0-0.50-0.457-3.457,1,0,0,90,false,stim,false,1,870,1,1,0,95405,task2,1185642,false,false,1555,image-keyboard-response,9
true,14,1,2,1,true,z,false,false,0.0-2.0-0.50-0.458-3.458,1,0,0,90,false,stim,false,0,919,1,0,2,95405,task2,1188092,false,true,1558,image-keyboard-response,10
true,14,0,2,1,false,z,true,false,0.0-2.0-0.51-0.459-3.459,1,0,0,81,false,stim,false,1,720,1,1,0,95405,task2,1190352,false,false,1561,image-keyboard-response,11
true,14,0,2,1,false,z,false,false,0.0-2.0-0.51-0.460-3.460,1,0,0,81,false,stim,true,0,1107,1,0,2,95405,task2,1192998,false,false,1564,image-keyboard-response,12
true,14,1,2,1,true,z,false,true,0.0-2.0-0.51-0.461-3.461,1,0,0,90,false,stim,false,1,998,1,1,0,95405,task2,1195529,false,false,1567,image-keyboard-response,13
true,14,1,2,0,false,q,true,false,0.0-2.0-0.51-0.462-3.462,1,0,0,90,false,stim,false,2,1086,1,0,1,95405,task2,1198159,false,false,1570,image-keyboard-response,14
true,14,2,2,1,false,z,true,false,0.0-2.0-0.51-0.463-3.463,1,0,0,68,false,stim,false,0,1054,1,0,2,95405,task2,1200756,false,false,1573,image-keyboard-response,15
true,14,1,2,0,false,q,true,false,0.0-2.0-0.51-0.464-3.464,1,0,0,90,false,stim,false,2,662,1,0,1,95405,task2,1202943,false,false,1576,image-keyboard-response,16
true,14,0,2,1,false,z,false,false,0.0-2.0-0.51-0.465-3.465,1,0,0,81,false,stim,true,0,882,1,0,2,95405,task2,1205365,false,false,1579,image-keyboard-response,17
true,14,1,2,1,true,z,false,true,0.0-2.0-0.51-0.466-3.466,1,0,0,90,false,stim,false,1,670,1,1,0,95405,task2,1207563,false,false,1582,image-keyboard-response,18
true,14,1,2,0,false,q,true,false,0.0-2.0-0.51-0.467-3.467,1,0,0,90,false,stim,false,2,725,1,0,1,95405,task2,1209816,false,false,1585,image-keyboard-response,19
true,14,2,2,1,false,z,true,false,0.0-2.0-0.52-0.468-3.468,1,0,0,68,false,stim,false,1,1024,1,1,0,95405,task2,1212367,false,false,1588,image-keyboard-response,20
true,14,0,2,0,true,q,false,false,0.0-2.0-0.52-0.469-3.469,1,0,0,81,false,stim,false,2,1009,1,0,1,95405,task2,1214912,false,true,1591,image-keyboard-response,21
true,14,1,2,1,true,z,false,true,0.0-2.0-0.52-0.470-3.470,1,0,0,90,false,stim,false,1,451,1,1,0,95405,task2,1216893,false,false,1594,image-keyboard-response,22
true,14,1,2,1,true,z,false,true,0.0-2.0-0.52-0.471-3.471,1,0,0,90,false,stim,false,0,278,1,0,2,95405,task2,1218699,false,false,1597,image-keyboard-response,23
true,14,1,2,0,false,q,true,false,0.0-2.0-0.52-0.472-3.472,1,0,0,90,false,stim,false,2,400,1,0,1,95405,task2,1220642,false,false,1600,image-keyboard-response,24
true,14,2,2,1,false,z,true,false,0.0-2.0-0.52-0.473-3.473,1,0,0,68,false,stim,false,0,521,1,0,2,95405,task2,1222713,false,false,1603,image-keyboard-response,25
true,14,0,2,1,false,z,false,false,0.0-2.0-0.52-0.474-3.474,1,0,0,81,false,stim,true,0,732,1,0,2,95405,task2,1224984,false,false,1606,image-keyboard-response,26
true,14,1,2,1,true,z,false,true,0.0-2.0-0.52-0.475-3.475,1,0,0,90,false,stim,false,1,726,1,1,0,95405,task2,1227237,false,false,1609,image-keyboard-response,27
true,14,1,2,0,false,q,true,false,0.0-2.0-0.52-0.476-3.476,1,0,0,90,false,stim,false,2,412,1,0,1,95405,task2,1229182,false,false,1612,image-keyboard-response,28
true,14,0,2,0,true,q,false,true,0.0-2.0-0.53-0.477-3.477,1,0,0,81,false,stim,false,2,350,1,0,1,95405,task2,1231062,false,false,1615,image-keyboard-response,29
true,14,2,2,1,false,z,true,true,0.0-2.0-0.53-0.478-3.478,1,0,0,68,false,stim,false,0,402,1,0,2,95405,task2,1232994,false,true,1618,image-keyboard-response,30
true,14,1,2,1,true,z,false,true,0.0-2.0-0.53-0.479-3.479,1,0,0,90,false,stim,false,1,1035,1,0,0,95405,task2,1235566,false,false,1621,image-keyboard-response,31
true,14,1,2,1,true,z,false,true,0.0-2.0-0.53-0.480-3.480,1,0,0,90,false,stim,false,0,233,1,0,2,95405,task2,1237325,false,false,1624,image-keyboard-response,32
true,14,1,2,1,true,z,false,false,0.0-2.0-0.53-0.481-3.481,1,0,0,90,false,stim,false,1,363,1,0,0,95405,task2,1239215,false,true,1627,image-keyboard-response,33
true,14,0,2,0,true,q,false,true,0.0-2.0-0.53-0.482-3.482,1,0,0,81,false,stim,false,2,521,1,1,1,95405,task2,1241263,false,false,1630,image-keyboard-response,34
true,14,0,2,1,false,z,true,false,0.0-2.0-0.53-0.483-3.483,1,0,0,81,false,stim,false,1,107,1,0,0,95405,task2,1242908,false,false,1633,image-keyboard-response,35
true,15,2,2,0,false,q,true,false,0.0-2.0-0.53-0.484-3.484,0,1,0,68,true,stim,false,0,411,1,1,1,95405,task2,1244853,false,false,1636,image-keyboard-response,1
true,15,1,2,2,false,d,false,false,0.0-2.0-0.53-0.485-3.485,0,1,0,90,false,stim,true,1,699,1,0,2,95405,task2,1247079,false,false,1639,image-keyboard-response,2
true,15,1,2,2,false,d,false,true,0.0-2.0-0.54-0.486-3.486,0,1,0,90,false,stim,true,1,737,1,0,2,95405,task2,1249360,false,true,1642,image-keyboard-response,3
true,15,1,2,0,false,q,true,false,0.0-2.0-0.54-0.487-3.487,0,1,0,90,false,stim,false,0,498,1,1,1,95405,task2,1251401,false,false,1645,image-keyboard-response,4
true,15,0,2,0,true,q,false,true,0.0-2.0-0.54-0.488-3.488,0,1,0,81,false,stim,false,1,519,1,0,0,95405,task2,1253461,false,false,1648,image-keyboard-response,5
true,15,0,2,2,false,d,true,false,0.0-2.0-0.54-0.489-3.489,0,1,0,81,false,stim,false,1,445,1,0,2,95405,task2,1255441,false,false,1651,image-keyboard-response,6
true,15,0,2,0,true,q,false,true,0.0-2.0-0.54-0.490-3.490,0,1,0,81,false,stim,false,0,1027,1,1,1,95405,task2,1258010,false,false,1654,image-keyboard-response,7
true,15,0,2,0,true,q,false,true,0.0-2.0-0.54-0.491-3.491,0,1,0,81,false,stim,false,1,298,1,0,0,95405,task2,1259840,false,false,1657,image-keyboard-response,8
true,15,0,2,2,false,d,true,false,0.0-2.0-0.54-0.492-3.492,0,1,0,81,false,stim,false,1,250,1,0,2,95405,task2,1261632,false,false,1660,image-keyboard-response,9
true,15,1,2,0,false,q,false,false,0.0-2.0-0.54-0.493-3.493,0,1,0,90,false,stim,true,1,1097,1,0,0,95405,task2,1264260,false,false,1663,image-keyboard-response,10
true,15,1,2,0,false,q,true,false,0.0-2.0-0.54-0.494-3.494,0,1,0,90,false,stim,false,0,368,1,1,1,95405,task2,1266170,false,false,1666,image-keyboard-response,11
true,15,2,2,2,true,d,false,true,0.0-2.0-0.55-0.495-3.495,0,1,0,68,false,stim,false,1,746,1,0,2,95405,task2,1268448,false,false,1669,image-keyboard-response,12
true,15,0,2,0,true,q,false,false,0.0-2.0-0.55-0.496-3.496,0,1,0,81,false,stim,false,0,1052,1,1,1,95405,task2,1271034,false,true,1672,image-keyboard-response,13
true,15,1,2,0,false,q,true,false,0.0-2.0-0.55-0.497-3.497,0,1,0,90,false,stim,false,0,574,1,1,1,95405,task2,1273146,false,false,1675,image-keyboard-response,14
true,15,2,2,2,true,d,false,true,0.0-2.0-0.55-0.498-3.498,0,1,0,68,false,stim,false,1,244,1,0,2,95405,task2,1274916,false,false,1678,image-keyboard-response,15
true,15,2,2,0,false,q,true,true,0.0-2.0-0.55-0.499-3.499,0,1,0,68,false,stim,false,1,1308,1,0,0,95405,task2,1277761,false,true,1681,image-keyboard-response,16
true,15,2,2,0,false,q,true,false,0.0-2.0-0.55-0.500-3.500,0,1,0,68,false,stim,false,1,1371,1,0,0,95405,task2,1280663,false,false,1684,image-keyboard-response,17
true,15,0,2,2,false,d,true,false,0.0-2.0-0.55-0.501-3.501,0,1,0,81,false,stim,false,1,607,1,0,2,95405,task2,1282809,false,false,1687,image-keyboard-response,18
true,15,1,2,0,false,q,false,false,0.0-2.0-0.55-0.502-3.502,0,1,0,90,false,stim,true,1,1129,1,0,0,95405,task2,1285472,false,false,1690,image-keyboard-response,19
true,15,1,2,0,false,q,true,false,0.0-2.0-0.55-0.503-3.503,0,1,0,90,false,stim,false,0,828,1,1,1,95405,task2,1287832,false,false,1693,image-keyboard-response,20
true,15,0,2,2,false,d,true,false,0.0-2.0-0.56-0.504-3.504,0,1,0,81,false,stim,false,1,666,1,0,2,95405,task2,1290037,false,false,1696,image-keyboard-response,21
true,15,2,2,0,false,q,true,false,0.0-2.0-0.56-0.505-3.505,0,1,0,68,false,stim,false,0,126,1,1,1,95405,task2,1291699,false,false,1699,image-keyboard-response,22
true,15,1,2,0,false,q,false,false,0.0-2.0-0.56-0.506-3.506,0,1,0,90,false,stim,true,1,575,1,0,0,95405,task2,1293797,false,false,1702,image-keyboard-response,23
true,15,0,2,0,true,q,false,true,0.0-2.0-0.56-0.507-3.507,0,1,0,81,false,stim,false,0,371,1,1,1,95405,task2,1295693,false,false,1705,image-keyboard-response,24
true,15,0,2,2,false,d,true,false,0.0-2.0-0.56-0.508-3.508,0,1,0,81,false,stim,false,1,107,1,0,2,95405,task2,1297329,false,false,1708,image-keyboard-response,25
true,15,0,2,2,false,d,true,false,0.0-2.0-0.56-0.509-3.509,0,1,0,81,false,stim,false,1,740,1,0,2,95405,task2,1299604,false,false,1711,image-keyboard-response,26
true,15,0,2,0,true,q,false,true,0.0-2.0-0.56-0.510-3.510,0,1,0,81,false,stim,false,0,715,1,1,1,95405,task2,1301857,false,false,1714,image-keyboard-response,27
true,15,1,2,0,false,q,false,false,0.0-2.0-0.56-0.511-3.511,0,1,0,90,false,stim,true,1,464,1,0,0,95405,task2,1303856,false,false,1717,image-keyboard-response,28
true,15,2,2,0,false,q,true,false,0.0-2.0-0.56-0.512-3.512,0,1,0,68,false,stim,false,1,758,1,1,0,95405,task2,1306150,false,false,1720,image-keyboard-response,29
true,15,1,2,0,false,q,true,true,0.0-2.0-0.57-0.513-3.513,0,1,0,90,false,stim,false,0,1515,1,0,1,95405,task2,1309196,false,true,1723,image-keyboard-response,30
true,15,1,2,2,false,d,false,false,0.0-2.0-0.57-0.514-3.514,0,1,0,90,false,stim,true,1,364,1,0,2,95405,task2,1311097,false,false,1726,image-keyboard-response,31
true,15,0,2,0,true,q,false,true,0.0-2.0-0.57-0.515-3.515,0,1,0,81,false,stim,false,1,451,1,1,0,95405,task2,1313083,false,false,1729,image-keyboard-response,32
true,15,0,2,0,true,q,false,false,0.0-2.0-0.57-0.516-3.516,0,1,0,81,false,stim,false,1,619,1,1,0,95405,task2,1315232,false,true,1732,image-keyboard-response,33
true,16,1,2,2,false,d,true,false,0.0-2.0-0.57-0.517-3.517,1,0,0,90,true,stim,false,0,334,1,0,1,95405,task2,1317107,false,false,1735,image-keyboard-response,1
true,16,1,2,1,true,z,false,true,0.0-2.0-0.57-0.518-3.518,1,0,0,90,false,stim,false,2,1209,1,0,2,95405,task2,1319841,false,false,1738,image-keyboard-response,2
true,16,1,2,0,false,q,true,false,0.0-2.0-0.57-0.519-3.519,1,0,0,90,false,stim,false,0,1118,1,1,0,95405,task2,1322488,false,false,1741,image-keyboard-response,3
true,16,1,2,2,false,d,true,false,0.0-2.0-0.57-0.520-3.520,1,0,0,90,false,stim,false,0,980,1,0,1,95405,task2,1325012,false,false,1744,image-keyboard-response,4
true,16,2,2,1,false,z,false,true,0.0-2.0-0.57-0.521-3.521,1,0,0,68,false,stim,true,2,407,1,0,2,95405,task2,1326959,false,true,1747,image-keyboard-response,5
true,16,2,2,0,false,q,true,false,0.0-2.0-0.58-0.522-3.522,1,0,0,68,false,stim,false,0,1476,1,1,0,95405,task2,1329969,false,false,1750,image-keyboard-response,6
true,16,1,2,2,false,d,true,false,0.0-2.0-0.58-0.523-3.523,1,0,0,90,false,stim,false,0,783,1,0,1,95405,task2,1332297,false,false,1753,image-keyboard-response,7
true,16,0,2,2,false,d,false,false,0.0-2.0-0.58-0.524-3.524,1,0,0,81,false,stim,true,0,1216,1,0,1,95405,task2,1335049,false,false,1756,image-keyboard-response,8
true,16,1,2,1,true,z,false,true,0.0-2.0-0.58-0.525-3.525,1,0,0,90,false,stim,false,2,512,1,0,2,95405,task2,1337104,false,false,1759,image-keyboard-response,9
true,16,2,2,2,true,d,false,true,0.0-2.0-0.58-0.526-3.526,1,0,0,68,false,stim,false,0,545,1,0,1,95405,task2,1339177,false,false,1762,image-keyboard-response,10
true,16,2,2,0,false,q,true,false,0.0-2.0-0.58-0.527-3.527,1,0,0,68,false,stim,false,0,1116,1,1,0,95405,task2,1341829,false,false,1765,image-keyboard-response,11
true,16,0,2,0,true,q,false,true,0.0-2.0-0.58-0.528-3.528,1,0,0,81,false,stim,false,0,594,1,1,0,95405,task2,1343966,false,false,1768,image-keyboard-response,12
true,16,0,2,1,false,z,true,false,0.0-2.0-0.58-0.529-3.529,1,0,0,81,false,stim,false,2,846,1,0,2,95405,task2,1346337,false,false,1771,image-keyboard-response,13
true,16,1,2,1,true,z,false,true,0.0-2.0-0.58-0.530-3.530,1,0,0,90,false,stim,false,2,1513,1,0,2,95405,task2,1349384,false,false,1774,image-keyboard-response,14
true,16,1,2,2,false,d,true,false,0.0-2.0-0.59-0.531-3.531,1,0,0,90,false,stim,false,0,1222,1,0,1,95405,task2,1352134,false,false,1777,image-keyboard-response,15
true,16,0,2,1,false,z,true,false,0.0-2.0-0.59-0.532-3.532,1,0,0,81,false,stim,false,2,965,1,0,2,95405,task2,1354638,false,false,1780,image-keyboard-response,16
true,16,2,2,0,false,q,true,false,0.0-2.0-0.59-0.533-3.533,1,0,0,68,false,stim,false,0,1046,1,1,0,95405,task2,1357218,false,false,1783,image-keyboard-response,17
true,16,1,2,2,false,d,true,false,0.0-2.0-0.59-0.534-3.534,1,0,0,90,false,stim,false,0,938,1,0,1,95405,task2,1359690,false,false,1786,image-keyboard-response,18
true,16,0,2,1,false,z,true,false,0.0-2.0-0.59-0.535-3.535,1,0,0,81,false,stim,false,2,1239,1,0,2,95405,task2,1362470,false,false,1789,image-keyboard-response,19
true,16,1,2,1,true,z,false,true,0.0-2.0-0.59-0.536-3.536,1,0,0,90,false,stim,false,2,1014,1,0,2,95405,task2,1365026,false,false,1792,image-keyboard-response,20
true,16,1,2,2,false,d,true,false,0.0-2.0-0.59-0.537-3.537,1,0,0,90,false,stim,false,0,671,1,0,1,95405,task2,1367222,false,false,1795,image-keyboard-response,21
true,16,2,2,0,false,q,true,false,0.0-2.0-0.59-0.538-3.538,1,0,0,68,false,stim,false,0,1047,1,1,0,95405,task2,1369799,false,false,1798,image-keyboard-response,22
true,16,0,2,0,true,q,false,true,0.0-2.0-0.59-0.539-3.539,1,0,0,81,false,stim,false,0,772,1,1,0,95405,task2,1372123,false,false,1801,image-keyboard-response,23
true,16,1,2,1,true,z,false,true,0.0-2.0-0.60-0.540-3.540,1,0,0,90,false,stim,false,2,1691,1,0,2,95405,task2,1375343,false,false,1804,image-keyboard-response,24
true,16,1,2,1,true,z,false,true,0.0-2.0-0.60-0.541-3.541,1,0,0,90,false,stim,false,2,823,1,0,2,95405,task2,1377694,false,false,1807,image-keyboard-response,25
true,16,1,2,0,false,q,true,false,0.0-2.0-0.60-0.542-3.542,1,0,0,90,false,stim,false,0,597,1,1,0,95405,task2,1379819,false,false,1810,image-keyboard-response,26
true,16,0,2,2,false,d,false,false,0.0-2.0-0.60-0.543-3.543,1,0,0,81,false,stim,true,0,525,1,0,1,95405,task2,1381886,false,false,1813,image-keyboard-response,27
true,16,2,2,0,false,q,true,false,0.0-2.0-0.60-0.544-3.544,1,0,0,68,false,stim,false,0,1282,1,1,0,95405,task2,1384693,false,false,1816,image-keyboard-response,28
true,16,1,2,2,false,d,true,false,0.0-2.0-0.60-0.545-3.545,1,0,0,90,false,stim,false,0,509,1,1,1,95405,task2,1386743,false,false,1819,image-keyboard-response,29
true,16,0,2,0,true,q,false,true,0.0-2.0-0.60-0.546-3.546,1,0,0,81,false,stim,false,0,1037,1,1,0,95405,task2,1389309,false,false,1822,image-keyboard-response,30
true,16,0,2,2,false,d,false,false,0.0-2.0-0.60-0.547-3.547,1,0,0,81,false,stim,true,0,861,1,1,1,95405,task2,1391713,false,false,1825,image-keyboard-response,31
true,16,1,2,1,true,z,false,true,0.0-2.0-0.60-0.548-3.548,1,0,0,90,false,stim,false,2,805,1,1,2,95405,task2,1394056,false,false,1828,image-keyboard-response,32
true,16,1,2,2,false,d,true,false,0.0-2.0-0.61-0.549-3.549,1,0,0,90,false,stim,false,0,2127,1,1,1,95405,task2,1397719,false,false,1831,image-keyboard-response,33
true,17,1,0,0,false,q,true,false,0.0-2.0-0.61-0.550-3.550,1,1,1,90,true,stim,false,0,924,1,1,0,95405,task2,1402616,false,false,1837,image-keyboard-response,1
true,17,0,0,1,false,z,true,false,0.0-2.0-0.61-0.551-3.551,1,1,1,81,false,stim,false,1,222,1,1,2,95405,task2,1404375,false,false,1840,image-keyboard-response,2
true,17,2,0,1,false,z,true,false,0.0-2.0-0.61-0.552-3.552,1,1,1,68,false,stim,false,1,269,1,1,2,95405,task2,1406182,false,false,1843,image-keyboard-response,3
true,17,2,0,2,true,d,false,true,0.0-2.0-0.61-0.553-3.553,1,1,1,68,false,stim,false,2,220,1,1,1,95405,task2,1407934,false,false,1846,image-keyboard-response,4
true,17,2,0,0,false,q,true,false,0.0-2.0-0.61-0.554-3.554,1,1,1,68,false,stim,false,0,309,1,1,0,95405,task2,1409781,false,false,1849,image-keyboard-response,5
true,17,0,0,1,false,z,true,false,0.0-2.0-0.61-0.555-3.555,1,1,1,81,false,stim,false,1,200,1,1,2,95405,task2,1411511,false,false,1852,image-keyboard-response,6
true,17,1,0,2,false,d,true,false,0.0-2.0-0.61-0.556-3.556,1,1,1,90,false,stim,false,2,256,1,1,1,95405,task2,1413298,false,false,1855,image-keyboard-response,7
true,17,2,0,0,false,q,true,false,0.0-2.0-0.61-0.557-3.557,1,1,1,68,false,stim,false,0,358,1,1,0,95405,task2,1415199,false,false,1858,image-keyboard-response,8
true,17,0,0,1,false,z,true,false,0.0-2.0-0.62-0.558-3.558,1,1,1,81,false,stim,false,1,216,1,0,2,95405,task2,1416959,false,false,1861,image-keyboard-response,9
true,17,1,0,2,false,d,true,false,0.0-2.0-0.62-0.559-3.559,1,1,1,90,false,stim,false,2,1151,1,0,1,95405,task2,1419652,false,false,1864,image-keyboard-response,10
true,17,1,0,1,true,z,false,false,0.0-2.0-0.62-0.560-3.560,1,1,1,90,false,stim,false,1,290,1,0,2,95405,task2,1421483,false,true,1867,image-keyboard-response,11
true,17,0,0,2,false,d,true,false,0.0-2.0-0.62-0.561-3.561,1,1,1,81,false,stim,false,2,230,1,0,1,95405,task2,1423243,false,false,1870,image-keyboard-response,12
true,17,2,0,0,false,q,true,false,0.0-2.0-0.62-0.562-3.562,1,1,1,68,false,stim,false,0,408,1,1,0,95405,task2,1425189,false,false,1873,image-keyboard-response,13
true,18,1,2,0,false,q,true,false,0.0-2.0-0.62-0.563-3.563,1,0,0,90,true,stim,false,0,234,1,1,0,95405,task2,1426966,false,false,1876,image-keyboard-response,1
true,18,0,2,0,true,q,false,true,0.0-2.0-0.62-0.564-3.564,1,0,0,81,false,stim,false,0,335,1,1,0,95405,task2,1428827,false,false,1879,image-keyboard-response,2
true,18,0,2,1,false,z,true,false,0.0-2.0-0.62-0.565-3.565,1,0,0,81,false,stim,false,2,298,1,0,1,95405,task2,1430651,false,false,1882,image-keyboard-response,3
true,18,1,2,2,false,d,false,false,0.0-2.0-0.62-0.566-3.566,1,0,0,90,false,stim,true,1,745,1,0,2,95405,task2,1432937,false,false,1885,image-keyboard-response,4
true,18,2,2,0,false,q,true,false,0.0-2.0-0.63-0.567-3.567,1,0,0,68,false,stim,false,0,937,1,1,0,95405,task2,1435408,false,false,1888,image-keyboard-response,5
true,18,0,2,1,false,z,true,false,0.0-2.0-0.63-0.568-3.568,1,0,0,81,false,stim,false,2,423,1,0,1,95405,task2,1437376,false,false,1891,image-keyboard-response,6
true,18,0,2,2,false,d,true,false,0.0-2.0-0.63-0.569-3.569,1,0,0,81,false,stim,false,1,697,1,0,2,95405,task2,1439607,false,false,1894,image-keyboard-response,7
true,18,0,2,1,false,z,true,false,0.0-2.0-0.63-0.570-3.570,1,0,0,81,false,stim,false,2,394,1,0,1,95405,task2,1441528,false,false,1897,image-keyboard-response,8
true,18,2,2,2,true,d,false,true,0.0-2.0-0.63-0.571-3.571,1,0,0,68,false,stim,false,1,508,1,0,2,95405,task2,1443580,false,false,1900,image-keyboard-response,9
true,18,2,2,0,false,q,true,false,0.0-2.0-0.63-0.572-3.572,1,0,0,68,false,stim,false,0,246,1,1,0,95405,task2,1445368,false,false,1903,image-keyboard-response,10
true,18,1,2,1,true,z,false,true,0.0-2.0-0.63-0.573-3.573,1,0,0,90,false,stim,false,2,407,1,0,1,95405,task2,1447309,false,false,1906,image-keyboard-response,11
true,18,1,2,0,false,q,true,false,0.0-2.0-0.63-0.574-3.574,1,0,0,90,false,stim,false,0,366,1,1,0,95405,task2,1449208,false,false,1909,image-keyboard-response,12
true,18,1,2,2,false,d,false,false,0.0-2.0-0.63-0.575-3.575,1,0,0,90,false,stim,true,1,250,1,0,2,95405,task2,1450982,false,false,1912,image-keyboard-response,13
true,18,0,2,2,false,d,true,false,0.0-2.0-0.64-0.576-3.576,1,0,0,81,false,stim,false,1,266,1,0,2,95405,task2,1452778,false,false,1915,image-keyboard-response,14
true,18,2,2,2,true,d,false,true,0.0-2.0-0.64-0.577-3.577,1,0,0,68,false,stim,false,1,573,1,0,2,95405,task2,1454886,false,false,1918,image-keyboard-response,15
true,18,2,2,1,false,z,false,false,0.0-2.0-0.64-0.578-3.578,1,0,0,68,false,stim,true,2,338,1,0,1,95405,task2,1456751,false,false,1921,image-keyboard-response,16
true,18,1,2,1,true,z,false,true,0.0-2.0-0.64-0.579-3.579,1,0,0,90,false,stim,false,2,264,1,0,1,95405,task2,1458556,false,false,1924,image-keyboard-response,17
true,18,1,2,0,false,q,true,false,0.0-2.0-0.64-0.580-3.580,1,0,0,90,false,stim,false,0,269,1,1,0,95405,task2,1460360,false,false,1927,image-keyboard-response,18
true,18,0,2,2,false,d,true,false,0.0-2.0-0.64-0.581-3.581,1,0,0,81,false,stim,false,1,1053,1,0,2,95405,task2,1462944,false,false,1930,image-keyboard-response,19
true,18,1,2,1,true,z,false,true,0.0-2.0-0.64-0.582-3.582,1,0,0,90,false,stim,false,2,732,1,0,1,95405,task2,1465203,false,false,1933,image-keyboard-response,20
true,18,2,2,0,false,q,true,true,0.0-2.0-0.64-0.583-3.583,1,0,0,68,false,stim,false,0,550,1,1,0,95405,task2,1467283,false,true,1936,image-keyboard-response,21
true,18,2,2,0,false,q,true,false,0.0-2.0-0.64-0.584-3.584,1,0,0,68,false,stim,false,0,515,1,1,0,95405,task2,1469327,false,false,1939,image-keyboard-response,22
true,18,0,2,2,false,d,true,true,0.0-2.0-0.65-0.585-3.585,1,0,0,81,false,stim,false,1,298,1,0,2,95405,task2,1471149,false,true,1942,image-keyboard-response,23
true,18,0,2,1,false,z,true,false,0.0-2.0-0.65-0.586-3.586,1,0,0,81,false,stim,false,2,617,1,0,1,95405,task2,1473309,false,false,1945,image-keyboard-response,24
true,18,1,2,2,false,d,false,false,0.0-2.0-0.65-0.587-3.587,1,0,0,90,false,stim,true,1,528,1,0,2,95405,task2,1475380,false,false,1948,image-keyboard-response,25
true,18,2,2,0,false,q,true,false,0.0-2.0-0.65-0.588-3.588,1,0,0,68,false,stim,false,0,311,1,1,0,95405,task2,1477224,false,false,1951,image-keyboard-response,26
true,18,0,2,0,true,q,false,true,0.0-2.0-0.65-0.589-3.589,1,0,0,81,false,stim,false,0,456,1,0,0,95405,task2,1479207,false,false,1954,image-keyboard-response,27
true,18,1,2,1,true,z,false,true,0.0-2.0-0.65-0.590-3.590,1,0,0,90,false,stim,false,2,739,1,1,1,95405,task2,1481471,false,false,1957,image-keyboard-response,28
true,18,1,2,1,true,z,false,true,0.0-2.0-0.65-0.591-3.591,1,0,0,90,false,stim,false,2,562,1,1,1,95405,task2,1483573,false,false,1960,image-keyboard-response,29
true,18,1,2,0,false,q,true,false,0.0-2.0-0.65-0.592-3.592,1,0,0,90,false,stim,false,0,627,1,0,0,95405,task2,1485739,false,false,1963,image-keyboard-response,30
true,18,2,2,2,true,d,false,true,0.0-2.0-0.65-0.593-3.593,1,0,0,68,false,stim,false,1,1000,1,0,2,95405,task2,1488273,false,false,1966,image-keyboard-response,31
true,19,0,2,1,false,z,true,false,0.0-2.0-0.66-0.594-3.594,0,1,0,81,true,stim,false,1,1105,1,1,1,95405,task2,1490908,false,false,1969,image-keyboard-response,1
true,19,1,2,1,true,z,false,true,0.0-2.0-0.66-0.595-3.595,0,1,0,90,false,stim,false,1,457,1,1,1,95405,task2,1492898,false,false,1972,image-keyboard-response,2
true,19,1,2,1,true,z,false,true,0.0-2.0-0.66-0.596-3.596,0,1,0,90,false,stim,false,1,644,1,1,1,95405,task2,1495076,false,false,1975,image-keyboard-response,3
true,19,2,2,0,false,q,false,false,0.0-2.0-0.66-0.597-3.597,0,1,0,68,false,stim,true,2,830,1,0,2,95405,task2,1497443,false,false,1978,image-keyboard-response,4
true,19,1,2,0,false,q,true,false,0.0-2.0-0.66-0.598-3.598,0,1,0,90,false,stim,false,2,916,1,0,2,95405,task2,1499888,false,false,1981,image-keyboard-response,5
true,19,0,2,0,true,q,false,true,0.0-2.0-0.66-0.599-3.599,0,1,0,81,false,stim,false,2,785,1,0,2,95405,task2,1502216,false,false,1984,image-keyboard-response,6
true,19,0,2,1,false,z,false,false,0.0-2.0-0.66-0.600-3.600,0,1,0,81,false,stim,true,0,325,1,0,0,95405,task2,1504075,false,false,1987,image-keyboard-response,7
true,19,2,2,1,false,z,true,false,0.0-2.0-0.66-0.601-3.601,0,1,0,68,false,stim,false,0,390,1,0,0,95405,task2,1506002,false,false,1990,image-keyboard-response,8
true,19,1,2,1,true,z,false,true,0.0-2.0-0.66-0.602-3.602,0,1,0,90,false,stim,false,0,409,1,0,0,95405,task2,1507942,false,false,1993,image-keyboard-response,9
true,19,0,2,1,false,z,true,false,0.0-2.0-0.67-0.603-3.603,0,1,0,81,false,stim,false,1,781,1,1,1,95405,task2,1510253,false,false,1996,image-keyboard-response,10
true,19,1,2,1,true,z,false,true,0.0-2.0-0.67-0.604-3.604,0,1,0,90,false,stim,false,0,1125,1,0,0,95405,task2,1512917,false,false,1999,image-keyboard-response,11
true,19,2,2,0,false,q,false,false,0.0-2.0-0.67-0.605-3.605,0,1,0,68,false,stim,true,2,850,1,0,2,95405,task2,1515323,false,false,2002,image-keyboard-response,12
true,19,1,2,0,false,q,true,false,0.0-2.0-0.67-0.606-3.606,0,1,0,90,false,stim,false,2,325,1,0,2,95405,task2,1517178,false,false,2005,image-keyboard-response,13
true,19,2,2,1,false,z,true,false,0.0-2.0-0.67-0.607-3.607,0,1,0,68,false,stim,false,0,531,1,0,0,95405,task2,1519243,false,false,2008,image-keyboard-response,14
true,19,0,2,0,true,q,false,true,0.0-2.0-0.67-0.608-3.608,0,1,0,81,false,stim,false,2,2005,1,0,2,95405,task2,1522778,false,false,2011,image-keyboard-response,15
true,19,0,2,1,false,z,false,false,0.0-2.0-0.67-0.609-3.609,0,1,0,81,false,stim,true,0,575,1,0,0,95405,task2,1524888,false,false,2014,image-keyboard-response,16
true,19,0,2,1,false,z,true,false,0.0-2.0-0.67-0.610-3.610,0,1,0,81,false,stim,false,1,1919,1,1,1,95405,task2,1528332,false,false,2017,image-keyboard-response,17
true,19,1,2,1,true,z,false,true,0.0-2.0-0.67-0.611-3.611,0,1,0,90,false,stim,false,1,641,1,1,1,95405,task2,1530502,false,false,2020,image-keyboard-response,18
true,19,1,2,1,true,z,false,true,0.0-2.0-0.68-0.612-3.612,0,1,0,90,false,stim,false,1,434,1,1,1,95405,task2,1532477,false,false,2023,image-keyboard-response,19
true,19,1,2,1,true,z,false,true,0.0-2.0-0.68-0.613-3.613,0,1,0,90,false,stim,false,1,448,1,1,1,95405,task2,1534451,false,false,2026,image-keyboard-response,20
true,19,2,2,0,false,q,false,false,0.0-2.0-0.68-0.614-3.614,0,1,0,68,false,stim,true,2,377,1,0,2,95405,task2,1536369,false,false,2029,image-keyboard-response,21
true,19,0,2,0,true,q,false,true,0.0-2.0-0.68-0.615-3.615,0,1,0,81,false,stim,false,2,84,1,0,2,95405,task2,1537996,false,false,2032,image-keyboard-response,22
true,19,1,2,1,true,z,false,false,0.0-2.0-0.68-0.616-3.616,0,1,0,90,false,stim,false,0,571,1,0,0,95405,task2,1540102,false,true,2035,image-keyboard-response,23
true,19,2,2,1,false,z,true,true,0.0-2.0-0.68-0.617-3.617,0,1,0,68,false,stim,false,1,290,1,1,1,95405,task2,1541932,false,true,2038,image-keyboard-response,24
true,19,0,2,1,false,z,false,false,0.0-2.0-0.68-0.618-3.618,0,1,0,81,false,stim,true,0,525,1,0,0,95405,task2,1543987,false,false,2041,image-keyboard-response,25
true,19,1,2,0,false,q,true,false,0.0-2.0-0.68-0.619-3.619,0,1,0,90,false,stim,false,2,369,1,0,2,95405,task2,1545892,false,false,2044,image-keyboard-response,26
true,19,2,2,1,false,z,true,false,0.0-2.0-0.68-0.620-3.620,0,1,0,68,false,stim,false,0,233,1,0,0,95405,task2,1547657,false,false,2047,image-keyboard-response,27
true,19,0,2,1,false,z,true,false,0.0-2.0-0.69-0.621-3.621,0,1,0,81,false,stim,false,1,1293,1,1,1,95405,task2,1550474,false,false,2050,image-keyboard-response,28
true,19,1,2,0,false,q,true,false,0.0-2.0-0.69-0.622-3.622,0,1,0,90,false,stim,false,2,679,1,0,2,95405,task2,1552681,false,false,2053,image-keyboard-response,29
true,19,1,2,1,true,z,false,true,0.0-2.0-0.69-0.623-3.623,0,1,0,90,false,stim,false,1,1226,1,1,1,95405,task2,1555448,false,false,2056,image-keyboard-response,30
true,19,2,2,1,false,z,true,false,0.0-2.0-0.69-0.624-3.624,0,1,0,68,false,stim,false,0,453,1,0,0,95405,task2,1557445,false,false,2059,image-keyboard-response,31
true,19,0,2,1,false,z,false,true,0.0-2.0-0.69-0.625-3.625,0,1,0,81,false,stim,true,0,645,1,0,0,95405,task2,1559617,false,true,2062,image-keyboard-response,32
true,19,0,2,0,true,q,false,true,0.0-2.0-0.69-0.626-3.626,0,1,0,81,false,stim,false,2,328,1,0,2,95405,task2,1561480,false,false,2065,image-keyboard-response,33
true,19,0,2,0,true,q,false,false,0.0-2.0-0.69-0.627-3.627,0,1,0,81,false,stim,false,2,348,1,0,2,95405,task2,1563360,false,true,2068,image-keyboard-response,34
true,19,1,2,1,true,z,false,true,0.0-2.0-0.69-0.628-3.628,0,1,0,90,false,stim,false,1,470,1,0,1,95405,task2,1565362,false,false,2071,image-keyboard-response,35
true,20,1,1,2,false,d,false,false,0.0-2.0-0.69-0.629-3.629,0,0,0,90,true,stim,true,1,851,1,0,0,95405,task2,1567743,false,false,2074,image-keyboard-response,1
true,20,1,1,2,false,d,false,false,0.0-2.0-0.70-0.630-3.630,0,0,0,90,false,stim,true,1,510,1,0,0,95405,task2,1569782,false,false,2077,image-keyboard-response,2
true,20,2,1,0,false,q,true,false,0.0-2.0-0.70-0.631-3.631,0,0,0,68,false,stim,false,1,654,1,0,1,95405,task2,1571964,false,false,2080,image-keyboard-response,3
true,20,0,1,2,false,d,true,false,0.0-2.0-0.70-0.632-3.632,0,0,0,81,false,stim,false,1,650,1,0,0,95405,task2,1574141,false,false,2083,image-keyboard-response,4
