answered,blockNum,choice,condition,corResp,correct,correct_response,explo,fb,internal_node_id,isStable_1,isStable_2,isStable_3,key_press,newBlock,part,persev,persevResp,rt,sessNum,stableAS,stimulus,subject,task,time_elapsed,training,trap,trial_index,trial_type,trialsInBlock
true,1,0,0,0,true,q,false,true,0.0-2.0-0.0-0.0-3.0,0,0,0,81,true,stim,false,-1,1806,0,0,0,10556,WMM1,280368,false,false,170,image-keyboard-response,1
true,1,0,0,0,true,q,false,true,0.0-2.0-0.0-0.1-3.1,0,0,0,81,false,stim,false,-1,1086,0,0,0,10556,WMM1,282977,false,false,173,image-keyboard-response,2
true,1,1,0,1,true,z,false,true,0.0-2.0-0.0-0.2-3.2,0,0,0,90,false,stim,false,-1,1577,0,0,2,10556,WMM1,286077,false,false,176,image-keyboard-response,3
true,1,1,0,0,false,q,true,false,0.0-2.0-0.0-0.3-3.3,0,0,0,90,false,stim,false,-1,1147,0,0,1,10556,WMM1,288758,false,false,179,image-keyboard-response,4
true,1,2,0,0,false,q,true,false,0.0-2.0-0.0-0.4-3.4,0,0,0,68,false,stim,false,-1,813,0,0,1,10556,WMM1,291083,false,false,182,image-keyboard-response,5
true,1,0,0,1,false,z,true,false,0.0-2.0-0.0-0.5-3.5,0,0,0,81,false,stim,false,-1,715,0,0,2,10556,WMM1,293314,false,false,185,image-keyboard-response,6
true,1,0,0,0,true,q,false,false,0.0-2.0-0.0-0.6-3.6,0,0,0,81,false,stim,false,-1,1130,0,0,0,10556,WMM1,295965,false,true,188,image-keyboard-response,7
true,1,0,0,0,true,q,false,true,0.0-2.0-0.0-0.7-3.7,0,0,0,81,false,stim,false,-1,952,0,0,1,10556,WMM1,298443,false,false,191,image-keyboard-response,8
true,1,0,0,1,false,z,true,false,0.0-2.0-0.0-0.8-3.8,0,0,0,81,false,stim,false,-1,1555,0,0,2,10556,WMM1,301536,false,false,194,image-keyboard-response,9
true,1,0,0,0,true,q,false,true,0.0-2.0-0.1-0.9-3.9,0,0,0,81,false,stim,false,-1,1172,0,0,1,10556,WMM1,304219,false,false,197,image-keyboard-response,10
true,1,1,0,1,true,z,false,true,0.0-2.0-0.1-0.10-3.10,0,0,0,90,false,stim,false,-1,621,0,0,2,10556,WMM1,306382,false,false,200,image-keyboard-response,11
true,1,1,0,1,true,z,false,true,0.0-2.0-0.1-0.11-3.11,0,0,0,90,false,stim,false,-1,654,0,0,2,10556,WMM1,308565,false,false,203,image-keyboard-response,12
true,1,0,0,0,true,q,false,true,0.0-2.0-0.1-0.12-3.12,0,0,0,81,false,stim,false,-1,607,0,0,1,10556,WMM1,310692,false,false,206,image-keyboard-response,13
true,1,0,0,0,true,q,false,false,0.0-2.0-0.1-0.13-3.13,0,0,0,81,false,stim,false,-1,1161,0,0,0,10556,WMM1,313390,false,true,209,image-keyboard-response,14
true,1,1,0,1,true,z,false,true,0.0-2.0-0.1-0.14-3.14,0,0,0,90,false,stim,false,-1,2114,0,0,2,10556,WMM1,317025,false,false,212,image-keyboard-response,15
true,1,0,0,0,true,q,false,true,0.0-2.0-0.1-0.15-3.15,0,0,0,81,false,stim,false,-1,1023,0,0,0,10556,WMM1,319574,false,false,215,image-keyboard-response,16
true,1,0,0,0,true,q,false,false,0.0-2.0-0.1-0.16-3.16,0,0,0,81,false,stim,false,-1,741,0,0,0,10556,WMM1,321828,false,true,218,image-keyboard-response,17
true,1,1,0,0,false,q,true,false,0.0-2.0-0.1-0.17-3.17,0,0,0,90,false,stim,false,-1,971,0,0,1,10556,WMM1,324315,false,false,221,image-keyboard-response,18
true,1,2,0,0,false,q,true,false,0.0-2.0-0.2-0.18-3.18,0,0,0,68,false,stim,false,-1,1519,0,0,1,10556,WMM1,327361,false,false,224,image-keyboard-response,19
true,1,0,0,0,true,q,false,true,0.0-2.0-0.2-0.19-3.19,0,0,0,81,false,stim,false,-1,1418,0,0,0,10556,WMM1,330298,false,false,227,image-keyboard-response,20
true,1,0,0,0,true,q,false,true,0.0-2.0-0.2-0.20-3.20,0,0,0,81,false,stim,false,-1,745,0,0,0,10556,WMM1,332607,false,false,230,image-keyboard-response,21
true,1,0,0,0,true,q,false,true,0.0-2.0-0.2-0.21-3.21,0,0,0,81,false,stim,false,-1,749,0,0,0,10556,WMM1,334887,false,false,233,image-keyboard-response,22
true,1,1,0,1,true,z,false,true,0.0-2.0-0.2-0.22-3.22,0,0,0,90,false,stim,false,-1,1870,0,0,2,10556,WMM1,338279,false,false,236,image-keyboard-response,23
true,1,2,0,0,false,q,true,false,0.0-2.0-0.2-0.23-3.23,0,0,0,68,false,stim,false,-1,1357,0,0,1,10556,WMM1,341157,false,false,239,image-keyboard-response,24
true,1,0,0,0,true,q,false,true,0.0-2.0-0.2-0.24-3.24,0,0,0,81,false,stim,false,-1,682,0,0,1,10556,WMM1,343372,false,false,242,image-keyboard-response,25
true,1,1,0,1,true,z,false,true,0.0-2.0-0.2-0.25-3.25,0,0,0,90,false,stim,false,-1,1193,0,0,2,10556,WMM1,346083,false,false,245,image-keyboard-response,26
true,1,1,0,1,true,z,false,true,0.0-2.0-0.2-0.26-3.26,0,0,0,90,false,stim,false,-1,721,0,0,2,10556,WMM1,348333,false,false,248,image-keyboard-response,27
true,1,0,0,0,true,q,false,true,0.0-2.0-0.3-0.27-3.27,0,0,0,81,false,stim,false,-1,1366,0,0,1,10556,WMM1,351237,false,false,251,image-keyboard-response,28
true,1,0,0,0,true,q,false,true,0.0-2.0-0.3-0.28-3.28,0,0,0,81,false,stim,false,-1,588,0,0,1,10556,WMM1,353368,false,false,254,image-keyboard-response,29
true,1,0,0,0,true,q,false,true,0.0-2.0-0.3-0.29-3.29,0,0,0,81,false,stim,false,-1,505,0,0,1,10556,WMM1,355406,false,false,257,image-keyboard-response,30
true,1,1,0,1,true,z,false,true,0.0-2.0-0.3-0.30-3.30,0,0,0,90,false,stim,false,-1,520,0,1,2,10556,WMM1,357450,false,false,260,image-keyboard-response,31
true,1,1,0,1,true,z,false,true,0.0-2.0-0.3-0.31-3.31,0,0,0,90,false,stim,false,-1,891,0,1,2,10556,WMM1,359883,false,false,263,image-keyboard-response,32
true,1,1,0,1,true,z,false,true,0.0-2.0-0.3-0.32-3.32,0,0,0,90,false,stim,false,-1,462,0,1,2,10556,WMM1,361867,false,false,266,image-keyboard-response,33
true,1,0,0,0,true,q,false,true,0.0-2.0-0.3-0.33-3.33,0,0,0,81,false,stim,false,-1,1655,0,0,0,10556,WMM1,365056,false,false,269,image-keyboard-response,34
true,1,0,0,0,true,q,false,false,0.0-2.0-0.3-0.34-3.34,0,0,0,81,false,stim,false,-1,490,0,0,0,10556,WMM1,367071,false,true,272,image-keyboard-response,35
true,1,1,0,0,false,q,true,false,0.0-2.0-0.3-0.35-3.35,0,0,0,90,false,stim,false,-1,1020,0,0,0,10556,WMM1,369645,false,false,275,image-keyboard-response,36
true,1,2,0,0,false,q,true,true,0.0-2.0-0.4-0.36-3.36,0,0,0,68,false,stim,false,-1,509,0,0,0,10556,WMM1,371670,false,true,278,image-keyboard-response,37
true,1,1,0,1,true,z,false,true,0.0-2.0-0.4-0.37-3.37,0,0,0,90,false,stim,false,-1,1196,0,1,2,10556,WMM1,374397,false,false,281,image-keyboard-response,38
true,2,0,3,1,false,z,false,false,0.0-2.0-0.4-0.38-3.38,0,0,1,81,true,stim,true,0,932,0,0,0,10556,WMM1,376861,false,false,284,image-keyboard-response,1
true,2,2,3,1,false,z,true,false,0.0-2.0-0.4-0.39-3.39,0,0,1,68,false,stim,false,0,467,0,0,0,10556,WMM1,378847,false,false,287,image-keyboard-response,2
true,2,0,3,2,false,d,false,false,0.0-2.0-0.4-0.40-3.40,0,0,1,81,false,stim,true,0,1389,0,0,1,10556,WMM1,381760,false,false,290,image-keyboard-response,3
true,2,1,3,1,true,z,false,true,0.0-2.0-0.4-0.41-3.41,0,0,1,90,false,stim,false,1,1741,0,1,2,10556,WMM1,385030,false,false,293,image-keyboard-response,4
true,2,1,3,1,true,z,false,true,0.0-2.0-0.4-0.42-3.42,0,0,1,90,false,stim,false,1,564,0,1,2,10556,WMM1,387130,false,false,296,image-keyboard-response,5
true,2,0,3,2,false,d,false,false,0.0-2.0-0.4-0.43-3.43,0,0,1,81,false,stim,true,0,922,0,0,1,10556,WMM1,389581,false,false,299,image-keyboard-response,6
true,2,1,3,2,false,d,true,false,0.0-2.0-0.4-0.44-3.44,0,0,1,90,false,stim,false,0,1046,0,0,1,10556,WMM1,392166,false,false,302,image-keyboard-response,7
true,2,1,3,1,true,z,false,true,0.0-2.0-0.5-0.45-3.45,0,0,1,90,false,stim,false,1,970,0,1,2,10556,WMM1,394659,false,false,305,image-keyboard-response,8
true,2,2,3,2,true,d,false,true,0.0-2.0-0.5-0.46-3.46,0,0,1,68,false,stim,false,0,789,0,0,1,10556,WMM1,396969,false,false,308,image-keyboard-response,9
true,2,2,3,2,true,d,false,true,0.0-2.0-0.5-0.47-3.47,0,0,1,68,false,stim,false,0,767,0,0,1,10556,WMM1,399261,false,false,311,image-keyboard-response,10
true,2,0,3,1,false,z,false,false,0.0-2.0-0.5-0.48-3.48,0,0,1,81,false,stim,true,0,1551,0,0,0,10556,WMM1,402344,false,false,314,image-keyboard-response,11
true,2,0,3,2,false,d,false,false,0.0-2.0-0.5-0.49-3.49,0,0,1,81,false,stim,true,0,1983,0,0,1,10556,WMM1,405852,false,false,317,image-keyboard-response,12
true,2,0,3,1,false,z,false,true,0.0-2.0-0.5-0.50-3.50,0,0,1,81,false,stim,true,0,1467,0,0,0,10556,WMM1,408859,false,true,320,image-keyboard-response,13
true,2,2,3,1,false,z,true,true,0.0-2.0-0.5-0.51-3.51,0,0,1,68,false,stim,false,1,830,0,1,2,10556,WMM1,411211,false,true,323,image-keyboard-response,14
true,2,0,3,1,false,z,false,false,0.0-2.0-0.5-0.52-3.52,0,0,1,81,false,stim,true,0,1320,0,0,0,10556,WMM1,414060,false,false,326,image-keyboard-response,15
true,2,2,3,1,false,z,true,false,0.0-2.0-0.5-0.53-3.53,0,0,1,68,false,stim,false,1,804,0,1,2,10556,WMM1,416397,false,false,329,image-keyboard-response,16
true,2,1,3,1,true,z,false,true,0.0-2.0-0.6-0.54-3.54,0,0,1,90,false,stim,false,1,1428,0,1,2,10556,WMM1,419349,false,false,332,image-keyboard-response,17
true,2,0,3,1,false,z,false,false,0.0-2.0-0.6-0.55-3.55,0,0,1,81,false,stim,true,0,1041,0,0,0,10556,WMM1,421922,false,false,335,image-keyboard-response,18
true,2,0,3,2,false,d,false,false,0.0-2.0-0.6-0.56-3.56,0,0,1,81,false,stim,true,0,1289,0,0,1,10556,WMM1,424740,false,false,338,image-keyboard-response,19
true,2,1,3,1,true,z,false,true,0.0-2.0-0.6-0.57-3.57,0,0,1,90,false,stim,false,1,1262,0,1,2,10556,WMM1,427521,false,false,341,image-keyboard-response,20
true,2,0,3,2,false,d,false,false,0.0-2.0-0.6-0.58-3.58,0,0,1,81,false,stim,true,0,1410,0,0,1,10556,WMM1,430462,false,false,344,image-keyboard-response,21
true,2,0,3,1,false,z,false,true,0.0-2.0-0.6-0.59-3.59,0,0,1,81,false,stim,true,0,1217,0,0,0,10556,WMM1,433208,false,true,347,image-keyboard-response,22
true,2,0,3,1,false,z,false,false,0.0-2.0-0.6-0.60-3.60,0,0,1,81,false,stim,true,0,550,0,0,0,10556,WMM1,435285,false,false,350,image-keyboard-response,23
true,2,0,3,2,false,d,false,false,0.0-2.0-0.6-0.61-3.61,0,0,1,81,false,stim,true,0,1802,0,0,1,10556,WMM1,438612,false,false,353,image-keyboard-response,24
true,2,1,3,1,true,z,false,true,0.0-2.0-0.6-0.62-3.62,0,0,1,90,false,stim,false,1,911,0,1,2,10556,WMM1,441042,false,false,356,image-keyboard-response,25
true,2,2,3,1,false,z,true,false,0.0-2.0-0.7-0.63-3.63,0,0,1,68,false,stim,false,0,779,0,0,0,10556,WMM1,443350,false,false,359,image-keyboard-response,26
true,2,1,3,1,true,z,false,true,0.0-2.0-0.7-0.64-3.64,0,0,1,90,false,stim,false,1,1191,0,1,2,10556,WMM1,446071,false,false,362,image-keyboard-response,27
true,2,1,3,1,true,z,false,true,0.0-2.0-0.7-0.65-3.65,0,0,1,90,false,stim,false,1,679,0,1,2,10556,WMM1,448279,false,false,365,image-keyboard-response,28
true,2,1,3,2,false,d,true,false,0.0-2.0-0.7-0.66-3.66,0,0,1,90,false,stim,false,0,804,0,0,1,10556,WMM1,450611,false,false,368,image-keyboard-response,29
true,2,1,3,1,true,z,false,true,0.0-2.0-0.7-0.67-3.67,0,0,1,90,false,stim,false,1,1180,0,1,2,10556,WMM1,453325,false,false,371,image-keyboard-response,30
true,2,0,3,2,false,d,false,false,0.0-2.0-0.7-0.68-3.68,0,0,1,81,false,stim,true,0,963,0,0,1,10556,WMM1,455833,false,false,374,image-keyboard-response,31
true,2,1,3,2,false,d,true,false,0.0-2.0-0.7-0.69-3.69,0,0,1,90,false,stim,false,0,1140,0,0,1,10556,WMM1,458501,false,false,377,image-keyboard-response,32
true,2,0,3,1,false,z,false,false,0.0-2.0-0.7-0.70-3.70,0,0,1,81,false,stim,true,0,1132,0,0,0,10556,WMM1,461162,false,false,380,image-keyboard-response,33
true,2,1,3,1,true,z,false,true,0.0-2.0-0.7-0.71-3.71,0,0,1,90,false,stim,false,0,1326,0,0,0,10556,WMM1,464015,false,false,383,image-keyboard-response,34
true,2,1,3,1,true,z,false,true,0.0-2.0-0.8-0.72-3.72,0,0,1,90,false,stim,false,0,694,0,0,0,10556,WMM1,466245,false,false,386,image-keyboard-response,35
true,2,2,3,2,true,d,false,true,0.0-2.0-0.8-0.73-3.73,0,0,1,68,false,stim,false,0,2480,0,0,1,10556,WMM1,470270,false,false,389,image-keyboard-response,36
true,2,0,3,1,false,z,false,false,0.0-2.0-0.8-0.74-3.74,0,0,1,81,false,stim,true,0,1688,0,0,0,10556,WMM1,473500,false,false,392,image-keyboard-response,37
true,2,2,3,1,false,z,true,false,0.0-2.0-0.8-0.75-3.75,0,0,1,68,false,stim,false,1,1229,0,1,2,10556,WMM1,476259,false,false,395,image-keyboard-response,38
true,2,0,3,2,false,d,false,false,0.0-2.0-0.8-0.76-3.76,0,0,1,81,false,stim,true,0,1173,0,0,1,10556,WMM1,478962,false,false,398,image-keyboard-response,39
true,2,1,3,1,true,z,false,true,0.0-2.0-0.8-0.77-3.77,0,0,1,90,false,stim,false,1,796,0,1,2,10556,WMM1,481296,false,false,401,image-keyboard-response,40
true,2,1,3,2,false,d,true,false,0.0-2.0-0.8-0.78-3.78,0,0,1,90,false,stim,false,0,1038,0,0,1,10556,WMM1,483877,false,false,404,image-keyboard-response,41
true,2,1,3,1,true,z,false,true,0.0-2.0-0.8-0.79-3.79,0,0,1,90,false,stim,false,1,1289,0,1,2,10556,WMM1,486700,false,false,407,image-keyboard-response,42
true,2,2,3,1,false,z,true,false,0.0-2.0-0.8-0.80-3.80,0,0,1,68,false,stim,false,0,2375,0,0,0,10556,WMM1,490611,false,false,410,image-keyboard-response,43
true,2,0,3,2,false,d,false,false,0.0-2.0-0.9-0.81-3.81,0,0,1,81,false,stim,true,0,1820,0,0,1,10556,WMM1,493964,false,false,413,image-keyboard-response,44
true,2,0,3,1,false,z,false,false,0.0-2.0-0.9-0.82-3.82,0,0,1,81,false,stim,true,0,2693,0,0,0,10556,WMM1,498186,false,false,416,image-keyboard-response,45
true,2,1,3,1,true,z,false,true,0.0-2.0-0.9-0.83-3.83,0,0,1,90,false,stim,false,0,913,0,0,0,10556,WMM1,500626,false,false,419,image-keyboard-response,46
true,2,1,3,1,true,z,false,true,0.0-2.0-0.9-0.84-3.84,0,0,1,90,false,stim,false,1,1273,0,1,2,10556,WMM1,503432,false,false,422,image-keyboard-response,47
true,2,2,3,2,true,d,false,true,0.0-2.0-0.9-0.85-3.85,0,0,1,68,false,stim,false,0,2019,0,0,1,10556,WMM1,506973,false,false,425,image-keyboard-response,48
true,2,1,3,1,true,z,false,true,0.0-2.0-0.9-0.86-3.86,0,0,1,90,false,stim,false,1,1183,0,1,2,10556,WMM1,509682,false,false,428,image-keyboard-response,49
true,2,0,3,2,false,d,false,false,0.0-2.0-0.9-0.87-3.87,0,0,1,81,false,stim,true,0,1296,0,0,1,10556,WMM1,512499,false,false,431,image-keyboard-response,50
true,2,1,3,1,true,z,false,true,0.0-2.0-0.9-0.88-3.88,0,0,1,90,false,stim,false,1,1976,0,0,2,10556,WMM1,516006,false,false,434,image-keyboard-response,51
true,2,0,3,1,false,z,false,false,0.0-2.0-0.9-0.89-3.89,0,0,1,81,false,stim,true,0,2711,0,1,0,10556,WMM1,520237,false,false,437,image-keyboard-response,52
true,2,1,3,1,true,z,false,true,0.0-2.0-0.10-0.90-3.90,0,0,1,90,false,stim,false,1,853,0,0,2,10556,WMM1,522603,false,false,440,image-keyboard-response,53
true,2,1,3,2,false,d,true,false,0.0-2.0-0.10-0.91-3.91,0,0,1,90,false,stim,false,0,1472,0,0,1,10556,WMM1,525591,false,false,443,image-keyboard-response,54
true,2,0,3,2,false,d,false,false,0.0-2.0-0.10-0.92-3.92,0,0,1,81,false,stim,true,0,569,0,0,1,10556,WMM1,527689,false,false,446,image-keyboard-response,55
true,2,0,3,1,false,z,false,false,0.0-2.0-0.10-0.93-3.93,0,0,1,81,false,stim,true,0,1757,0,1,0,10556,WMM1,530977,false,false,449,image-keyboard-response,56
true,2,1,3,1,true,z,false,true,0.0-2.0-0.10-0.94-3.94,0,0,1,90,false,stim,false,0,412,0,1,0,10556,WMM1,532912,false,false,452,image-keyboard-response,57
true,2,1,3,1,true,z,false,true,0.0-2.0-0.10-0.95-3.95,0,0,1,90,false,stim,false,0,531,0,1,0,10556,WMM1,534980,false,false,455,image-keyboard-response,58
true,2,1,3,1,true,z,false,true,0.0-2.0-0.10-0.96-3.96,0,0,1,90,false,stim,false,1,1826,0,0,2,10556,WMM1,538326,false,false,458,image-keyboard-response,59
true,2,1,3,1,true,z,false,true,0.0-2.0-0.10-0.97-3.97,0,0,1,90,false,stim,false,1,556,0,0,2,10556,WMM1,540401,false,false,461,image-keyboard-response,60
true,3,0,3,0,true,q,false,true,0.0-2.0-0.10-0.98-3.98,1,0,0,81,true,stim,false,2,2510,0,0,1,10556,WMM1,544441,false,false,464,image-keyboard-response,1
true,3,0,3,1,false,z,true,false,0.0-2.0-0.11-0.99-3.99,1,0,0,81,false,stim,false,1,1064,0,1,0,10556,WMM1,547035,false,false,467,image-keyboard-response,2
true,3,0,3,0,true,q,false,true,0.0-2.0-0.11-0.100-3.100,1,0,0,81,false,stim,false,2,1396,0,0,1,10556,WMM1,549954,false,false,470,image-keyboard-response,3
true,3,1,3,2,false,d,false,false,0.0-2.0-0.11-0.101-3.101,1,0,0,90,false,stim,true,1,892,0,0,2,10556,WMM1,552362,false,false,473,image-keyboard-response,4
true,3,0,3,1,false,z,true,false,0.0-2.0-0.11-0.102-3.102,1,0,0,81,false,stim,false,1,1402,0,1,0,10556,WMM1,555292,false,false,476,image-keyboard-response,5
true,3,1,3,1,true,z,false,true,0.0-2.0-0.11-0.103-3.103,1,0,0,90,false,stim,false,1,742,0,1,0,10556,WMM1,557555,false,false,479,image-keyboard-response,6
true,3,0,3,0,true,q,false,false,0.0-2.0-0.11-0.104-3.104,1,0,0,81,false,stim,false,2,2384,0,0,1,10556,WMM1,561455,false,true,482,image-keyboard-response,7
true,3,1,3,2,false,d,false,true,0.0-2.0-0.11-0.105-3.105,1,0,0,90,false,stim,true,1,1059,0,0,2,10556,WMM1,564031,false,true,485,image-keyboard-response,8
true,3,2,3,0,false,q,false,false,0.0-2.0-0.11-0.106-3.106,1,0,0,68,false,stim,true,2,423,0,0,1,10556,WMM1,565983,false,false,488,image-keyboard-response,9
true,3,1,3,2,false,d,false,false,0.0-2.0-0.11-0.107-3.107,1,0,0,90,false,stim,true,1,1083,0,0,2,10556,WMM1,568604,false,false,491,image-keyboard-response,10
true,3,0,3,2,false,d,true,false,0.0-2.0-0.12-0.108-3.108,1,0,0,81,false,stim,false,1,664,0,0,2,10556,WMM1,570792,false,false,494,image-keyboard-response,11
true,3,0,3,1,false,z,true,false,0.0-2.0-0.12-0.109-3.109,1,0,0,81,false,stim,false,1,850,0,1,0,10556,WMM1,573175,false,false,497,image-keyboard-response,12
true,3,2,3,2,true,d,false,true,0.0-2.0-0.12-0.110-3.110,1,0,0,68,false,stim,false,1,2042,0,0,2,10556,WMM1,576741,false,false,500,image-keyboard-response,13
false,3,-1,3,0,false,q,true,false,0.0-2.0-0.12-0.111-3.111,1,0,0,,false,stim,false,2,,0,0,1,10556,WMM1,581281,false,false,503,image-keyboard-response,14
true,3,2,3,1,false,z,true,false,0.0-2.0-0.12-0.112-3.112,1,0,0,68,false,stim,false,1,1799,0,1,0,10556,WMM1,584601,false,false,506,image-keyboard-response,15
true,3,1,3,0,false,q,true,false,0.0-2.0-0.12-0.113-3.113,1,0,0,90,false,stim,false,2,2181,0,0,1,10556,WMM1,588301,false,false,509,image-keyboard-response,16
true,3,0,3,1,false,z,true,false,0.0-2.0-0.12-0.114-3.114,1,0,0,81,false,stim,false,1,1503,0,1,0,10556,WMM1,591325,false,false,512,image-keyboard-response,17
true,3,0,3,0,true,q,false,true,0.0-2.0-0.12-0.115-3.115,1,0,0,81,false,stim,false,2,2428,0,0,1,10556,WMM1,595269,false,false,515,image-keyboard-response,18
true,3,1,3,2,false,d,false,true,0.0-2.0-0.12-0.116-3.116,1,0,0,90,false,stim,true,1,1011,0,0,2,10556,WMM1,597806,false,true,518,image-keyboard-response,19
true,3,0,3,1,false,z,true,false,0.0-2.0-0.13-0.117-3.117,1,0,0,81,false,stim,false,1,838,0,1,0,10556,WMM1,600176,false,false,521,image-keyboard-response,20
true,3,0,3,2,false,d,true,true,0.0-2.0-0.13-0.118-3.118,1,0,0,81,false,stim,false,1,1031,0,0,2,10556,WMM1,602741,false,true,524,image-keyboard-response,21
true,3,0,3,0,true,q,false,true,0.0-2.0-0.13-0.119-3.119,1,0,0,81,false,stim,false,2,2005,0,0,1,10556,WMM1,606275,false,false,527,image-keyboard-response,22
true,3,1,3,2,false,d,false,false,0.0-2.0-0.13-0.120-3.120,1,0,0,90,false,stim,true,1,659,0,0,2,10556,WMM1,608461,false,false,530,image-keyboard-response,23
true,3,0,3,0,true,q,false,true,0.0-2.0-0.13-0.121-3.121,1,0,0,81,false,stim,false,2,748,0,0,1,10556,WMM1,610728,false,false,533,image-keyboard-response,24
true,3,0,3,1,false,z,true,false,0.0-2.0-0.13-0.122-3.122,1,0,0,81,false,stim,false,1,918,0,1,0,10556,WMM1,613168,false,false,536,image-keyboard-response,25
true,3,0,3,0,true,q,false,true,0.0-2.0-0.13-0.123-3.123,1,0,0,81,false,stim,false,2,650,0,0,1,10556,WMM1,615331,false,false,539,image-keyboard-response,26
true,3,2,3,1,false,z,true,true,0.0-2.0-0.13-0.124-3.124,1,0,0,68,false,stim,false,1,659,0,1,0,10556,WMM1,617520,false,true,542,image-keyboard-response,27
true,3,1,3,2,false,d,false,false,0.0-2.0-0.13-0.125-3.125,1,0,0,90,false,stim,true,1,1190,0,0,2,10556,WMM1,620232,false,false,545,image-keyboard-response,28
true,3,0,3,0,true,q,false,true,0.0-2.0-0.14-0.126-3.126,1,0,0,81,false,stim,false,2,1604,0,0,1,10556,WMM1,623348,false,false,548,image-keyboard-response,29
true,3,0,3,0,true,q,false,true,0.0-2.0-0.14-0.127-3.127,1,0,0,81,false,stim,false,2,416,0,0,1,10556,WMM1,625286,false,false,551,image-keyboard-response,30
true,3,2,3,1,false,z,true,false,0.0-2.0-0.14-0.128-3.128,1,0,0,68,false,stim,false,1,1312,0,1,0,10556,WMM1,628121,false,false,554,image-keyboard-response,31
true,3,1,3,2,false,d,false,false,0.0-2.0-0.14-0.129-3.129,1,0,0,90,false,stim,true,1,561,0,0,2,10556,WMM1,630221,false,false,557,image-keyboard-response,32
true,3,0,3,2,false,d,true,false,0.0-2.0-0.14-0.130-3.130,1,0,0,81,false,stim,false,1,912,0,0,2,10556,WMM1,632671,false,false,560,image-keyboard-response,33
true,3,2,3,2,true,d,false,true,0.0-2.0-0.14-0.131-3.131,1,0,0,68,false,stim,false,1,393,0,0,2,10556,WMM1,634604,false,false,563,image-keyboard-response,34
true,3,0,3,1,false,z,true,true,0.0-2.0-0.14-0.132-3.132,1,0,0,81,false,stim,false,1,1171,0,1,0,10556,WMM1,637312,false,true,566,image-keyboard-response,35
true,3,0,3,1,false,z,true,false,0.0-2.0-0.14-0.133-3.133,1,0,0,81,false,stim,false,1,461,0,1,0,10556,WMM1,639301,false,false,569,image-keyboard-response,36
true,3,0,3,0,true,q,false,true,0.0-2.0-0.14-0.134-3.134,1,0,0,81,false,stim,false,2,2129,0,0,1,10556,WMM1,642950,false,false,572,image-keyboard-response,37
true,3,2,3,2,true,d,false,true,0.0-2.0-0.15-0.135-3.135,1,0,0,68,false,stim,false,1,731,0,0,2,10556,WMM1,645200,false,false,575,image-keyboard-response,38
true,3,0,3,0,true,q,false,true,0.0-2.0-0.15-0.136-3.136,1,0,0,81,false,stim,false,2,1442,0,0,1,10556,WMM1,648165,false,false,578,image-keyboard-response,39
true,3,1,3,1,true,z,false,true,0.0-2.0-0.15-0.137-3.137,1,0,0,90,false,stim,false,1,1692,0,1,0,10556,WMM1,651381,false,false,581,image-keyboard-response,40
true,3,0,3,0,true,q,false,true,0.0-2.0-0.15-0.138-3.138,1,0,0,81,false,stim,false,2,1682,0,0,1,10556,WMM1,654602,false,false,584,image-keyboard-response,41
true,3,2,3,1,false,z,true,false,0.0-2.0-0.15-0.139-3.139,1,0,0,68,false,stim,false,1,1337,0,1,0,10556,WMM1,657452,false,false,587,image-keyboard-response,42
true,3,2,3,2,true,d,false,true,0.0-2.0-0.15-0.140-3.140,1,0,0,68,false,stim,false,1,1239,0,0,2,10556,WMM1,660229,false,false,590,image-keyboard-response,43
true,3,1,3,0,false,q,true,false,0.0-2.0-0.15-0.141-3.141,1,0,0,90,false,stim,false,2,1981,0,0,1,10556,WMM1,663736,false,false,593,image-keyboard-response,44
true,3,0,3,1,false,z,true,false,0.0-2.0-0.15-0.142-3.142,1,0,0,81,false,stim,false,1,985,0,1,0,10556,WMM1,666265,false,false,596,image-keyboard-response,45
true,3,2,3,2,true,d,false,true,0.0-2.0-0.15-0.143-3.143,1,0,0,68,false,stim,false,1,821,0,0,2,10556,WMM1,668621,false,false,599,image-keyboard-response,46
true,3,0,3,0,true,q,false,true,0.0-2.0-0.16-0.144-3.144,1,0,0,81,false,stim,false,2,948,0,0,1,10556,WMM1,671110,false,false,602,image-keyboard-response,47
true,3,1,3,1,true,z,false,true,0.0-2.0-0.16-0.145-3.145,1,0,0,90,false,stim,false,1,2147,0,1,0,10556,WMM1,674782,false,false,605,image-keyboard-response,48
true,3,1,3,1,true,z,false,true,0.0-2.0-0.16-0.146-3.146,1,0,0,90,false,stim,false,1,470,0,1,0,10556,WMM1,676766,false,false,608,image-keyboard-response,49
true,3,0,3,0,true,q,false,true,0.0-2.0-0.16-0.147-3.147,1,0,0,81,false,stim,false,2,895,0,0,1,10556,WMM1,679195,false,false,611,image-keyboard-response,50
true,3,2,3,2,true,d,false,false,0.0-2.0-0.16-0.148-3.148,1,0,0,68,false,stim,false,1,791,0,0,2,10556,WMM1,681510,false,true,614,image-keyboard-response,51
true,3,2,3,2,true,d,false,true,0.0-2.0-0.16-0.149-3.149,1,0,0,68,false,stim,false,1,497,0,0,2,10556,WMM1,683532,false,false,617,image-keyboard-response,52
true,3,0,3,0,true,q,false,true,0.0-2.0-0.16-0.150-3.150,1,0,0,81,false,stim,false,2,1100,0,0,1,10556,WMM1,686161,false,false,620,image-keyboard-response,53
true,3,2,3,2,true,d,false,true,0.0-2.0-0.16-0.151-3.151,1,0,0,68,false,stim,false,1,830,0,0,2,10556,WMM1,688510,false,false,623,image-keyboard-response,54
true,3,1,3,1,true,z,false,true,0.0-2.0-0.16-0.152-3.152,1,0,0,90,false,stim,false,1,970,0,0,0,10556,WMM1,691021,false,false,626,image-keyboard-response,55
true,3,0,3,0,true,q,false,true,0.0-2.0-0.17-0.153-3.153,1,0,0,81,false,stim,false,2,1054,0,0,1,10556,WMM1,693605,false,false,629,image-keyboard-response,56
true,3,2,3,2,true,d,false,true,0.0-2.0-0.17-0.154-3.154,1,0,0,68,false,stim,false,1,626,0,0,2,10556,WMM1,695755,false,false,632,image-keyboard-response,57
true,3,2,3,2,true,d,false,true,0.0-2.0-0.17-0.155-3.155,1,0,0,68,false,stim,false,1,546,0,0,2,10556,WMM1,697825,false,false,635,image-keyboard-response,58
true,3,2,3,2,true,d,false,true,0.0-2.0-0.17-0.156-3.156,1,0,0,68,false,stim,false,1,460,0,0,2,10556,WMM1,699805,false,false,638,image-keyboard-response,59
true,3,1,3,0,false,q,true,false,0.0-2.0-0.17-0.157-3.157,1,0,0,90,false,stim,false,2,822,0,0,1,10556,WMM1,702142,false,false,641,image-keyboard-response,60
true,4,1,1,0,false,q,false,false,0.0-2.0-0.17-0.158-3.158,0,0,0,90,true,stim,true,1,736,0,0,0,10556,WMM1,704406,false,false,644,image-keyboard-response,1
true,4,1,1,0,false,q,false,false,0.0-2.0-0.17-0.159-3.159,0,0,0,90,false,stim,true,1,2686,0,0,0,10556,WMM1,708636,false,false,647,image-keyboard-response,2
true,4,0,1,0,true,q,false,true,0.0-2.0-0.17-0.160-3.160,0,0,0,81,false,stim,false,1,655,0,0,0,10556,WMM1,710830,false,false,650,image-keyboard-response,3
true,4,0,1,2,false,d,false,false,0.0-2.0-0.17-0.161-3.161,0,0,0,81,false,stim,true,0,465,0,0,1,10556,WMM1,712826,false,false,653,image-keyboard-response,4
false,4,-1,1,1,false,z,true,true,0.0-2.0-0.18-0.162-3.162,0,0,0,,false,stim,false,2,,0,0,2,10556,WMM1,717377,false,true,656,image-keyboard-response,5
true,4,2,1,1,false,z,false,true,0.0-2.0-0.18-0.163-3.163,0,0,0,68,false,stim,true,2,880,0,0,2,10556,WMM1,719790,false,true,659,image-keyboard-response,6
true,4,0,1,0,true,q,false,true,0.0-2.0-0.18-0.164-3.164,0,0,0,81,false,stim,false,1,974,0,0,0,10556,WMM1,722305,false,false,662,image-keyboard-response,7
true,4,1,1,2,false,d,true,false,0.0-2.0-0.18-0.165-3.165,0,0,0,90,false,stim,false,0,1442,0,0,1,10556,WMM1,725261,false,false,665,image-keyboard-response,8
true,4,2,1,2,true,d,false,true,0.0-2.0-0.18-0.166-3.166,0,0,0,68,false,stim,false,0,760,0,0,1,10556,WMM1,727560,false,false,668,image-keyboard-response,9
true,4,0,1,0,true,q,false,true,0.0-2.0-0.18-0.167-3.167,0,0,0,81,false,stim,false,1,867,0,0,0,10556,WMM1,729956,false,false,671,image-keyboard-response,10
true,4,0,1,0,true,q,false,true,0.0-2.0-0.18-0.168-3.168,0,0,0,81,false,stim,false,1,1552,0,0,0,10556,WMM1,733041,false,false,674,image-keyboard-response,11
true,4,1,1,2,false,d,true,false,0.0-2.0-0.18-0.169-3.169,0,0,0,90,false,stim,false,0,1307,0,0,1,10556,WMM1,735867,false,false,677,image-keyboard-response,12
true,4,2,1,1,false,z,false,false,0.0-2.0-0.18-0.170-3.170,0,0,0,68,false,stim,true,2,952,0,0,2,10556,WMM1,738336,false,false,680,image-keyboard-response,13
true,4,2,1,2,true,d,false,true,0.0-2.0-0.19-0.171-3.171,0,0,0,68,false,stim,false,0,1298,0,0,1,10556,WMM1,741159,false,false,683,image-keyboard-response,14
true,4,1,1,1,true,z,false,true,0.0-2.0-0.19-0.172-3.172,0,0,0,90,false,stim,false,2,377,0,0,2,10556,WMM1,743078,false,false,686,image-keyboard-response,15
true,4,0,1,1,false,z,true,false,0.0-2.0-0.19-0.173-3.173,0,0,0,81,false,stim,false,2,483,0,0,2,10556,WMM1,745093,false,false,689,image-keyboard-response,16
true,4,0,1,2,false,d,false,false,0.0-2.0-0.19-0.174-3.174,0,0,0,81,false,stim,true,0,1157,0,0,1,10556,WMM1,747775,false,false,692,image-keyboard-response,17
true,4,1,1,1,true,z,false,true,0.0-2.0-0.19-0.175-3.175,0,0,0,90,false,stim,false,2,1156,0,0,2,10556,WMM1,750450,false,false,695,image-keyboard-response,18
true,4,0,1,0,true,q,false,true,0.0-2.0-0.19-0.176-3.176,0,0,0,81,false,stim,false,1,829,0,0,0,10556,WMM1,752799,false,false,698,image-keyboard-response,19
true,4,0,1,0,true,q,false,true,0.0-2.0-0.19-0.177-3.177,0,0,0,81,false,stim,false,1,620,0,0,0,10556,WMM1,754971,false,false,701,image-keyboard-response,20
true,4,0,1,0,true,q,false,true,0.0-2.0-0.19-0.178-3.178,0,0,0,81,false,stim,false,1,584,0,0,0,10556,WMM1,757084,false,false,704,image-keyboard-response,21
true,4,1,1,2,false,d,true,false,0.0-2.0-0.19-0.179-3.179,0,0,0,90,false,stim,false,0,1274,0,0,1,10556,WMM1,759880,false,false,707,image-keyboard-response,22
true,4,2,1,2,true,d,false,true,0.0-2.0-0.20-0.180-3.180,0,0,0,68,false,stim,false,0,626,0,0,1,10556,WMM1,762036,false,false,710,image-keyboard-response,23
true,4,2,1,2,true,d,false,true,0.0-2.0-0.20-0.181-3.181,0,0,0,68,false,stim,false,0,661,0,0,1,10556,WMM1,764221,false,false,713,image-keyboard-response,24
true,4,2,1,1,false,z,false,true,0.0-2.0-0.20-0.182-3.182,0,0,0,68,false,stim,true,2,575,0,0,2,10556,WMM1,766331,false,true,716,image-keyboard-response,25
true,4,0,1,0,true,q,false,true,0.0-2.0-0.20-0.183-3.183,0,0,0,81,false,stim,false,1,1902,0,0,0,10556,WMM1,769762,false,false,719,image-keyboard-response,26
true,4,1,1,2,false,d,true,false,0.0-2.0-0.20-0.184-3.184,0,0,0,90,false,stim,false,0,1705,0,0,1,10556,WMM1,772984,false,false,722,image-keyboard-response,27
true,4,0,1,0,true,q,false,true,0.0-2.0-0.20-0.185-3.185,0,0,0,81,false,stim,false,1,750,0,0,0,10556,WMM1,775270,false,false,725,image-keyboard-response,28
true,4,2,1,1,false,z,false,false,0.0-2.0-0.20-0.186-3.186,0,0,0,68,false,stim,true,2,1198,0,0,2,10556,WMM1,778008,false,false,728,image-keyboard-response,29
true,4,0,1,0,true,q,false,true,0.0-2.0-0.20-0.187-3.187,0,0,0,81,false,stim,false,1,787,0,0,0,10556,WMM1,780337,false,false,731,image-keyboard-response,30
true,4,1,1,1,true,z,false,true,0.0-2.0-0.20-0.188-3.188,0,0,0,90,false,stim,false,2,431,0,0,2,10556,WMM1,782335,false,false,734,image-keyboard-response,31
true,4,1,1,1,true,z,false,true,0.0-2.0-0.21-0.189-3.189,0,0,0,90,false,stim,false,2,555,0,0,2,10556,WMM1,784434,false,false,737,image-keyboard-response,32
true,4,0,1,0,true,q,false,true,0.0-2.0-0.21-0.190-3.190,0,0,0,81,false,stim,false,1,478,0,0,0,10556,WMM1,786438,false,false,740,image-keyboard-response,33
true,4,1,1,2,false,d,true,false,0.0-2.0-0.21-0.191-3.191,0,0,0,90,false,stim,false,0,423,0,0,1,10556,WMM1,788403,false,false,743,image-keyboard-response,34
true,4,2,1,2,true,d,false,true,0.0-2.0-0.21-0.192-3.192,0,0,0,68,false,stim,false,0,1015,0,0,1,10556,WMM1,790954,false,false,746,image-keyboard-response,35
true,4,0,1,0,true,q,false,true,0.0-2.0-0.21-0.193-3.193,0,0,0,81,false,stim,false,1,501,0,0,0,10556,WMM1,793002,false,false,749,image-keyboard-response,36
true,4,2,1,2,true,d,false,true,0.0-2.0-0.21-0.194-3.194,0,0,0,68,false,stim,false,0,527,0,0,1,10556,WMM1,795047,false,false,752,image-keyboard-response,37
true,4,0,1,0,true,q,false,true,0.0-2.0-0.21-0.195-3.195,0,0,0,81,false,stim,false,1,818,0,0,0,10556,WMM1,797399,false,false,755,image-keyboard-response,38
true,4,1,1,1,true,z,false,true,0.0-2.0-0.21-0.196-3.196,0,0,0,90,false,stim,false,2,650,0,0,2,10556,WMM1,799580,false,false,758,image-keyboard-response,39
true,4,2,1,1,false,z,false,false,0.0-2.0-0.21-0.197-3.197,0,0,0,68,false,stim,true,2,563,0,0,2,10556,WMM1,801677,false,false,761,image-keyboard-response,40
true,4,2,1,2,true,d,false,true,0.0-2.0-0.22-0.198-3.198,0,0,0,68,false,stim,false,0,786,0,0,1,10556,WMM1,803999,false,false,764,image-keyboard-response,41
true,4,1,1,2,false,d,true,false,0.0-2.0-0.22-0.199-3.199,0,0,0,90,false,stim,false,0,1425,0,0,1,10556,WMM1,806945,false,false,767,image-keyboard-response,42
true,4,1,1,1,true,z,false,true,0.0-2.0-0.22-0.200-3.200,0,0,0,90,false,stim,false,2,821,0,0,2,10556,WMM1,809301,false,false,770,image-keyboard-response,43
true,4,1,1,1,true,z,false,true,0.0-2.0-0.22-0.201-3.201,0,0,0,90,false,stim,false,2,728,0,0,2,10556,WMM1,811548,false,false,773,image-keyboard-response,44
true,4,0,1,0,true,q,false,true,0.0-2.0-0.22-0.202-3.202,0,0,0,81,false,stim,false,1,786,0,0,0,10556,WMM1,813866,false,false,776,image-keyboard-response,45
true,4,0,1,0,true,q,false,false,0.0-2.0-0.22-0.203-3.203,0,0,0,81,false,stim,false,1,767,0,0,0,10556,WMM1,816166,false,true,779,image-keyboard-response,46
true,4,1,1,0,false,q,false,false,0.0-2.0-0.22-0.204-3.204,0,0,0,90,false,stim,true,1,1526,0,0,0,10556,WMM1,819221,false,false,782,image-keyboard-response,47
true,5,2,4,1,false,z,false,false,0.0-2.0-0.22-0.205-3.205,0,0,0,68,true,stim,true,2,1797,0,0,1,10556,WMM1,822547,false,false,785,image-keyboard-response,1
true,5,1,4,0,false,q,false,false,0.0-2.0-0.22-0.206-3.206,0,0,0,90,false,stim,true,1,933,0,0,2,10556,WMM1,825038,false,false,788,image-keyboard-response,2
true,5,2,4,2,true,d,false,true,0.0-2.0-0.23-0.207-3.207,0,0,0,68,false,stim,false,0,1136,0,0,0,10556,WMM1,827707,false,false,791,image-keyboard-response,3
true,5,2,4,2,true,d,false,true,0.0-2.0-0.23-0.208-3.208,0,0,0,68,false,stim,false,0,535,0,0,0,10556,WMM1,829774,false,false,794,image-keyboard-response,4
true,5,0,4,1,false,z,true,true,0.0-2.0-0.23-0.209-3.209,0,0,0,81,false,stim,false,2,930,0,0,1,10556,WMM1,832228,false,true,797,image-keyboard-response,5
true,5,1,4,0,false,q,false,false,0.0-2.0-0.23-0.210-3.210,0,0,0,90,false,stim,true,1,787,0,0,2,10556,WMM1,834557,false,false,800,image-keyboard-response,6
true,5,0,4,0,true,q,false,true,0.0-2.0-0.23-0.211-3.211,0,0,0,81,false,stim,false,1,1796,0,0,2,10556,WMM1,837887,false,false,803,image-keyboard-response,7
true,5,0,4,1,false,z,true,false,0.0-2.0-0.23-0.212-3.212,0,0,0,81,false,stim,false,2,1133,0,0,1,10556,WMM1,840552,false,false,806,image-keyboard-response,8
true,5,0,4,0,true,q,false,true,0.0-2.0-0.23-0.213-3.213,0,0,0,81,false,stim,false,1,704,0,0,2,10556,WMM1,842786,false,false,809,image-keyboard-response,9
true,5,2,4,1,false,z,false,false,0.0-2.0-0.23-0.214-3.214,0,0,0,68,false,stim,true,2,1227,0,0,1,10556,WMM1,845547,false,false,812,image-keyboard-response,10
true,5,2,4,2,true,d,false,true,0.0-2.0-0.23-0.215-3.215,0,0,0,68,false,stim,false,0,1140,0,0,0,10556,WMM1,848201,false,false,815,image-keyboard-response,11
true,5,0,4,0,true,q,false,true,0.0-2.0-0.24-0.216-3.216,0,0,0,81,false,stim,false,1,920,0,0,2,10556,WMM1,850649,false,false,818,image-keyboard-response,12
true,5,1,4,1,true,z,false,true,0.0-2.0-0.24-0.217-3.217,0,0,0,90,false,stim,false,2,417,0,0,1,10556,WMM1,852598,false,false,821,image-keyboard-response,13
true,5,2,4,2,true,d,false,true,0.0-2.0-0.24-0.218-3.218,0,0,0,68,false,stim,false,0,1163,0,0,0,10556,WMM1,855283,false,false,824,image-keyboard-response,14
true,5,2,4,2,true,d,false,true,0.0-2.0-0.24-0.219-3.219,0,0,0,68,false,stim,false,0,661,0,0,0,10556,WMM1,857471,false,false,827,image-keyboard-response,15
true,5,0,4,1,false,z,true,false,0.0-2.0-0.24-0.220-3.220,0,0,0,81,false,stim,false,2,1337,0,0,1,10556,WMM1,860342,false,false,830,image-keyboard-response,16
true,5,2,4,2,true,d,false,true,0.0-2.0-0.24-0.221-3.221,0,0,0,68,false,stim,false,0,929,0,0,0,10556,WMM1,862790,false,false,833,image-keyboard-response,17
true,5,0,4,0,true,q,false,true,0.0-2.0-0.24-0.222-3.222,0,0,0,81,false,stim,false,1,786,0,0,2,10556,WMM1,865110,false,false,836,image-keyboard-response,18
true,5,1,4,1,true,z,false,true,0.0-2.0-0.24-0.223-3.223,0,0,0,90,false,stim,false,2,522,0,0,1,10556,WMM1,867151,false,false,839,image-keyboard-response,19
true,5,0,4,0,true,q,false,true,0.0-2.0-0.24-0.224-3.224,0,0,0,81,false,stim,false,1,781,0,0,2,10556,WMM1,869447,false,false,842,image-keyboard-response,20
true,5,0,4,0,true,q,false,true,0.0-2.0-0.25-0.225-3.225,0,0,0,81,false,stim,false,1,610,0,0,2,10556,WMM1,871582,false,false,845,image-keyboard-response,21
true,5,1,4,1,true,z,false,true,0.0-2.0-0.25-0.226-3.226,0,0,0,90,false,stim,false,2,1220,0,0,1,10556,WMM1,874332,false,false,848,image-keyboard-response,22
true,5,1,4,1,true,z,false,false,0.0-2.0-0.25-0.227-3.227,0,0,0,90,false,stim,false,2,1162,0,0,1,10556,WMM1,877015,false,true,851,image-keyboard-response,23
true,5,1,4,0,false,q,false,false,0.0-2.0-0.25-0.228-3.228,0,0,0,90,false,stim,true,1,1172,0,0,2,10556,WMM1,879713,false,false,854,image-keyboard-response,24
true,5,2,4,2,true,d,false,true,0.0-2.0-0.25-0.229-3.229,0,0,0,68,false,stim,false,0,1100,0,0,0,10556,WMM1,882339,false,false,857,image-keyboard-response,25
true,5,2,4,2,true,d,false,true,0.0-2.0-0.25-0.230-3.230,0,0,0,68,false,stim,false,0,779,0,0,0,10556,WMM1,884633,false,false,860,image-keyboard-response,26
true,5,2,4,2,true,d,false,true,0.0-2.0-0.25-0.231-3.231,0,0,0,68,false,stim,false,0,999,0,0,0,10556,WMM1,887144,false,false,863,image-keyboard-response,27
true,5,0,4,0,true,q,false,true,0.0-2.0-0.25-0.232-3.232,0,0,0,81,false,stim,false,1,1016,0,0,2,10556,WMM1,889687,false,false,866,image-keyboard-response,28
true,5,1,4,1,true,z,false,true,0.0-2.0-0.25-0.233-3.233,0,0,0,90,false,stim,false,2,800,0,0,1,10556,WMM1,892019,false,false,869,image-keyboard-response,29
true,5,2,4,2,true,d,false,true,0.0-2.0-0.26-0.234-3.234,0,0,0,68,false,stim,false,0,828,0,0,0,10556,WMM1,894387,false,false,872,image-keyboard-response,30
true,5,1,4,1,true,z,false,true,0.0-2.0-0.26-0.235-3.235,0,0,0,90,false,stim,false,2,813,0,0,1,10556,WMM1,896731,false,false,875,image-keyboard-response,31
true,5,0,4,0,true,q,false,true,0.0-2.0-0.26-0.236-3.236,0,0,0,81,false,stim,false,1,697,0,0,2,10556,WMM1,898965,false,false,878,image-keyboard-response,32
true,6,0,2,1,false,z,false,false,0.0-2.0-0.26-0.237-3.237,0,0,0,81,true,stim,true,0,549,0,0,2,10556,WMM1,901036,false,false,881,image-keyboard-response,1
true,6,0,2,2,false,d,true,false,0.0-2.0-0.26-0.238-3.238,0,0,0,81,false,stim,false,1,1200,0,0,1,10556,WMM1,903761,false,false,884,image-keyboard-response,2
true,6,0,2,1,false,z,false,false,0.0-2.0-0.26-0.239-3.239,0,0,0,81,false,stim,true,0,1014,0,0,2,10556,WMM1,906304,false,false,887,image-keyboard-response,3
true,6,2,2,0,false,q,false,false,0.0-2.0-0.26-0.240-3.240,0,0,0,68,false,stim,true,2,799,0,0,0,10556,WMM1,908628,false,false,890,image-keyboard-response,4
true,6,0,2,0,true,q,false,true,0.0-2.0-0.26-0.241-3.241,0,0,0,81,false,stim,false,2,731,0,0,0,10556,WMM1,910892,false,false,893,image-keyboard-response,5
true,6,1,2,2,false,d,false,false,0.0-2.0-0.26-0.242-3.242,0,0,0,90,false,stim,true,1,977,0,0,1,10556,WMM1,913391,false,false,896,image-keyboard-response,6
true,6,2,2,2,true,d,false,true,0.0-2.0-0.27-0.243-3.243,0,0,0,68,false,stim,false,1,532,0,0,1,10556,WMM1,915441,false,false,899,image-keyboard-response,7
true,6,1,2,1,true,z,false,true,0.0-2.0-0.27-0.244-3.244,0,0,0,90,false,stim,false,0,805,0,0,2,10556,WMM1,917796,false,false,902,image-keyboard-response,8
true,6,0,2,0,true,q,false,true,0.0-2.0-0.27-0.245-3.245,0,0,0,81,false,stim,false,2,1043,0,0,0,10556,WMM1,920352,false,false,905,image-keyboard-response,9
true,6,0,2,0,true,q,false,true,0.0-2.0-0.27-0.246-3.246,0,0,0,81,false,stim,false,2,806,0,0,0,10556,WMM1,922696,false,false,908,image-keyboard-response,10
true,6,1,2,2,false,d,false,false,0.0-2.0-0.27-0.247-3.247,0,0,0,90,false,stim,true,1,2087,0,0,1,10556,WMM1,926327,false,false,911,image-keyboard-response,11
true,6,2,2,2,true,d,false,true,0.0-2.0-0.27-0.248-3.248,0,0,0,68,false,stim,false,1,420,0,0,1,10556,WMM1,928265,false,false,914,image-keyboard-response,12
true,6,1,2,1,true,z,false,true,0.0-2.0-0.27-0.249-3.249,0,0,0,90,false,stim,false,0,772,0,0,2,10556,WMM1,930552,false,false,917,image-keyboard-response,13
true,6,0,2,0,true,q,false,true,0.0-2.0-0.27-0.250-3.250,0,0,0,81,false,stim,false,2,586,0,0,0,10556,WMM1,932661,false,false,920,image-keyboard-response,14
true,6,1,2,1,true,z,false,true,0.0-2.0-0.27-0.251-3.251,0,0,0,90,false,stim,false,0,1623,0,0,2,10556,WMM1,935813,false,false,923,image-keyboard-response,15
true,6,1,2,0,false,q,true,false,0.0-2.0-0.28-0.252-3.252,0,0,0,90,false,stim,false,2,562,0,0,0,10556,WMM1,937902,false,false,926,image-keyboard-response,16
true,6,2,2,2,true,d,false,true,0.0-2.0-0.28-0.253-3.253,0,0,0,68,false,stim,false,1,1143,0,0,1,10556,WMM1,940606,false,false,929,image-keyboard-response,17
true,6,0,2,0,true,q,false,true,0.0-2.0-0.28-0.254-3.254,0,0,0,81,false,stim,false,2,567,0,0,0,10556,WMM1,942711,false,false,932,image-keyboard-response,18
true,6,0,2,0,true,q,false,true,0.0-2.0-0.28-0.255-3.255,0,0,0,81,false,stim,false,2,460,0,0,0,10556,WMM1,944696,false,false,935,image-keyboard-response,19
true,6,2,2,2,true,d,false,true,0.0-2.0-0.28-0.256-3.256,0,0,0,68,false,stim,false,1,1142,0,0,1,10556,WMM1,947382,false,false,938,image-keyboard-response,20
true,6,2,2,1,false,z,true,false,0.0-2.0-0.28-0.257-3.257,0,0,0,68,false,stim,false,0,834,0,1,2,10556,WMM1,949771,false,false,941,image-keyboard-response,21
true,6,2,2,2,true,d,false,true,0.0-2.0-0.28-0.258-3.258,0,0,0,68,false,stim,false,1,818,0,0,1,10556,WMM1,952117,false,false,944,image-keyboard-response,22
true,6,1,2,1,true,z,false,true,0.0-2.0-0.28-0.259-3.259,0,0,0,90,false,stim,false,0,718,0,1,2,10556,WMM1,954369,false,false,947,image-keyboard-response,23
true,6,1,2,1,true,z,false,true,0.0-2.0-0.28-0.260-3.260,0,0,0,90,false,stim,false,0,377,0,1,2,10556,WMM1,956278,false,false,950,image-keyboard-response,24
true,6,0,2,0,true,q,false,true,0.0-2.0-0.29-0.261-3.261,0,0,0,81,false,stim,false,2,640,0,0,0,10556,WMM1,958450,false,false,953,image-keyboard-response,25
true,6,1,2,1,true,z,false,true,0.0-2.0-0.29-0.262-3.262,0,0,0,90,false,stim,false,0,1163,0,1,2,10556,WMM1,961131,false,false,956,image-keyboard-response,26
true,6,0,2,0,true,q,false,true,0.0-2.0-0.29-0.263-3.263,0,0,0,81,false,stim,false,2,745,0,0,0,10556,WMM1,963394,false,false,959,image-keyboard-response,27
true,6,2,2,2,true,d,false,true,0.0-2.0-0.29-0.264-3.264,0,0,0,68,false,stim,false,1,792,0,0,1,10556,WMM1,965701,false,false,962,image-keyboard-response,28
true,6,0,2,0,true,q,false,true,0.0-2.0-0.29-0.265-3.265,0,0,0,81,false,stim,false,2,522,0,0,0,10556,WMM1,967751,false,false,965,image-keyboard-response,29
true,6,2,2,2,true,d,false,true,0.0-2.0-0.29-0.266-3.266,0,0,0,68,false,stim,false,1,671,0,0,1,10556,WMM1,969951,false,false,968,image-keyboard-response,30
true,7,2,3,0,false,q,false,false,0.0-2.0-0.29-0.267-3.267,0,0,1,68,true,stim,true,2,849,0,0,1,10556,WMM1,972321,false,false,971,image-keyboard-response,1
true,7,1,3,1,true,z,false,true,0.0-2.0-0.29-0.268-3.268,0,0,1,90,false,stim,false,1,1351,0,1,2,10556,WMM1,975193,false,false,974,image-keyboard-response,2
true,7,1,3,1,true,z,false,true,0.0-2.0-0.29-0.269-3.269,0,0,1,90,false,stim,false,1,515,0,1,2,10556,WMM1,977223,false,false,977,image-keyboard-response,3
true,7,1,3,0,false,q,true,false,0.0-2.0-0.30-0.270-3.270,0,0,1,90,false,stim,false,2,560,0,0,1,10556,WMM1,979300,false,false,980,image-keyboard-response,4
true,7,1,3,1,true,z,false,true,0.0-2.0-0.30-0.271-3.271,0,0,1,90,false,stim,false,1,678,0,1,2,10556,WMM1,981507,false,false,983,image-keyboard-response,5
true,7,2,3,0,false,q,false,false,0.0-2.0-0.30-0.272-3.272,0,0,1,68,false,stim,true,2,570,0,0,1,10556,WMM1,983610,false,false,986,image-keyboard-response,6
true,7,1,3,1,true,z,false,true,0.0-2.0-0.30-0.273-3.273,0,0,1,90,false,stim,false,1,707,0,1,2,10556,WMM1,985840,false,false,989,image-keyboard-response,7
true,7,0,3,0,true,q,false,false,0.0-2.0-0.30-0.274-3.274,0,0,1,81,false,stim,false,2,476,0,0,1,10556,WMM1,987848,false,true,992,image-keyboard-response,8
true,7,0,3,1,false,z,false,false,0.0-2.0-0.30-0.275-3.275,0,0,1,81,false,stim,true,0,627,0,0,0,10556,WMM1,990006,false,false,995,image-keyboard-response,9
true,7,1,3,1,true,z,false,true,0.0-2.0-0.30-0.276-3.276,0,0,1,90,false,stim,false,1,918,0,1,2,10556,WMM1,992459,false,false,998,image-keyboard-response,10
true,7,0,3,1,false,z,false,false,0.0-2.0-0.30-0.277-3.277,0,0,1,81,false,stim,true,0,695,0,0,0,10556,WMM1,994674,false,false,1001,image-keyboard-response,11
true,7,2,3,1,false,z,true,false,0.0-2.0-0.30-0.278-3.278,0,0,1,68,false,stim,false,0,559,0,0,0,10556,WMM1,996769,false,false,1004,image-keyboard-response,12
true,7,1,3,1,true,z,false,true,0.0-2.0-0.31-0.279-3.279,0,0,1,90,false,stim,false,0,363,0,0,0,10556,WMM1,998672,false,false,1007,image-keyboard-response,13
true,7,2,3,0,false,q,false,false,0.0-2.0-0.31-0.280-3.280,0,0,1,68,false,stim,true,2,1574,0,0,1,10556,WMM1,1001763,false,false,1010,image-keyboard-response,14
true,7,2,3,1,false,z,true,false,0.0-2.0-0.31-0.281-3.281,0,0,1,68,false,stim,false,0,846,0,0,0,10556,WMM1,1004120,false,false,1013,image-keyboard-response,15
true,7,1,3,1,true,z,false,true,0.0-2.0-0.31-0.282-3.282,0,0,1,90,false,stim,false,1,883,0,1,2,10556,WMM1,1006534,false,false,1016,image-keyboard-response,16
true,7,0,3,0,true,q,false,true,0.0-2.0-0.31-0.283-3.283,0,0,1,81,false,stim,false,2,1100,0,0,1,10556,WMM1,1009161,false,false,1019,image-keyboard-response,17
true,7,1,3,1,true,z,false,true,0.0-2.0-0.31-0.284-3.284,0,0,1,90,false,stim,false,1,826,0,1,2,10556,WMM1,1011525,false,false,1022,image-keyboard-response,18
true,7,2,3,1,false,z,true,true,0.0-2.0-0.31-0.285-3.285,0,0,1,68,false,stim,false,0,867,0,0,0,10556,WMM1,1013936,false,true,1025,image-keyboard-response,19
true,7,1,3,1,true,z,false,true,0.0-2.0-0.31-0.286-3.286,0,0,1,90,false,stim,false,1,790,0,1,2,10556,WMM1,1016250,false,false,1028,image-keyboard-response,20
true,7,0,3,0,true,q,false,true,0.0-2.0-0.31-0.287-3.287,0,0,1,81,false,stim,false,2,632,0,0,1,10556,WMM1,1018422,false,false,1031,image-keyboard-response,21
true,7,0,3,0,true,q,false,true,0.0-2.0-0.32-0.288-3.288,0,0,1,81,false,stim,false,2,528,0,0,1,10556,WMM1,1020477,false,false,1034,image-keyboard-response,22
true,7,1,3,1,true,z,false,true,0.0-2.0-0.32-0.289-3.289,0,0,1,90,false,stim,false,1,1143,0,1,2,10556,WMM1,1023202,false,false,1037,image-keyboard-response,23
true,7,2,3,1,false,z,true,false,0.0-2.0-0.32-0.290-3.290,0,0,1,68,false,stim,false,0,822,0,0,0,10556,WMM1,1025561,false,false,1040,image-keyboard-response,24
true,7,2,3,0,false,q,false,false,0.0-2.0-0.32-0.291-3.291,0,0,1,68,false,stim,true,2,1136,0,0,1,10556,WMM1,1028235,false,false,1043,image-keyboard-response,25
true,7,2,3,1,false,z,true,false,0.0-2.0-0.32-0.292-3.292,0,0,1,68,false,stim,false,0,892,0,0,0,10556,WMM1,1030656,false,false,1046,image-keyboard-response,26
true,7,1,3,1,true,z,false,true,0.0-2.0-0.32-0.293-3.293,0,0,1,90,false,stim,false,1,1010,0,1,2,10556,WMM1,1033201,false,false,1049,image-keyboard-response,27
true,7,0,3,1,false,z,false,false,0.0-2.0-0.32-0.294-3.294,0,0,1,81,false,stim,true,0,911,0,0,0,10556,WMM1,1035651,false,false,1052,image-keyboard-response,28
true,7,1,3,1,true,z,false,true,0.0-2.0-0.32-0.295-3.295,0,0,1,90,false,stim,false,1,756,0,1,2,10556,WMM1,1037935,false,false,1055,image-keyboard-response,29
true,7,2,3,0,false,q,false,false,0.0-2.0-0.32-0.296-3.296,0,0,1,68,false,stim,true,2,1174,0,0,1,10556,WMM1,1040644,false,false,1058,image-keyboard-response,30
true,7,0,3,1,false,z,false,false,0.0-2.0-0.33-0.297-3.297,0,0,1,81,false,stim,true,0,986,0,0,0,10556,WMM1,1043158,false,false,1061,image-keyboard-response,31
true,7,0,3,0,true,q,false,true,0.0-2.0-0.33-0.298-3.298,0,0,1,81,false,stim,false,2,815,0,0,1,10556,WMM1,1045500,false,false,1064,image-keyboard-response,32
true,7,2,3,1,false,z,true,false,0.0-2.0-0.33-0.299-3.299,0,0,1,68,false,stim,false,0,394,0,0,0,10556,WMM1,1047423,false,false,1067,image-keyboard-response,33
true,7,1,3,1,true,z,false,true,0.0-2.0-0.33-0.300-3.300,0,0,1,90,false,stim,false,1,476,0,1,2,10556,WMM1,1049436,false,false,1070,image-keyboard-response,34
true,7,0,3,0,true,q,false,true,0.0-2.0-0.33-0.301-3.301,0,0,1,81,false,stim,false,2,1040,0,0,1,10556,WMM1,1052002,false,false,1073,image-keyboard-response,35
true,7,0,3,0,true,q,false,true,0.0-2.0-0.33-0.302-3.302,0,0,1,81,false,stim,false,2,878,0,0,1,10556,WMM1,1054417,false,false,1076,image-keyboard-response,36
true,7,1,3,1,true,z,false,true,0.0-2.0-0.33-0.303-3.303,0,0,1,90,false,stim,false,1,887,0,1,2,10556,WMM1,1056830,false,false,1079,image-keyboard-response,37
true,7,0,3,1,false,z,false,true,0.0-2.0-0.33-0.304-3.304,0,0,1,81,false,stim,true,0,1335,0,0,0,10556,WMM1,1059687,false,true,1082,image-keyboard-response,38
true,7,1,3,1,true,z,false,true,0.0-2.0-0.33-0.305-3.305,0,0,1,90,false,stim,false,1,647,0,1,2,10556,WMM1,1061866,false,false,1085,image-keyboard-response,39
true,7,1,3,1,true,z,false,false,0.0-2.0-0.34-0.306-3.306,0,0,1,90,false,stim,false,1,906,0,1,2,10556,WMM1,1064307,false,true,1088,image-keyboard-response,40
true,7,1,3,0,false,q,true,false,0.0-2.0-0.34-0.307-3.307,0,0,1,90,false,stim,false,2,801,0,0,1,10556,WMM1,1066641,false,false,1091,image-keyboard-response,41
true,7,0,3,0,true,q,false,false,0.0-2.0-0.34-0.308-3.308,0,0,1,81,false,stim,false,2,525,0,0,1,10556,WMM1,1068704,false,true,1094,image-keyboard-response,42
true,7,0,3,1,false,z,false,false,0.0-2.0-0.34-0.309-3.309,0,0,1,81,false,stim,true,0,704,0,0,0,10556,WMM1,1070953,false,false,1097,image-keyboard-response,43
true,7,0,3,0,true,q,false,true,0.0-2.0-0.34-0.310-3.310,0,0,1,81,false,stim,false,2,796,0,0,1,10556,WMM1,1073276,false,false,1100,image-keyboard-response,44
true,7,1,3,1,true,z,false,true,0.0-2.0-0.34-0.311-3.311,0,0,1,90,false,stim,false,0,769,0,0,0,10556,WMM1,1075607,false,false,1103,image-keyboard-response,45
true,7,2,3,1,false,z,true,false,0.0-2.0-0.34-0.312-3.312,0,0,1,68,false,stim,false,1,874,0,1,2,10556,WMM1,1078023,false,false,1106,image-keyboard-response,46
true,7,0,3,1,false,z,true,false,0.0-2.0-0.34-0.313-3.313,0,0,1,81,false,stim,false,1,1089,0,1,2,10556,WMM1,1080659,false,false,1109,image-keyboard-response,47
true,7,1,3,1,true,z,false,true,0.0-2.0-0.34-0.314-3.314,0,0,1,90,false,stim,false,0,2672,0,0,0,10556,WMM1,1084880,false,false,1112,image-keyboard-response,48
true,7,0,3,0,true,q,false,true,0.0-2.0-0.35-0.315-3.315,0,0,1,81,false,stim,false,2,1177,0,0,1,10556,WMM1,1087589,false,false,1115,image-keyboard-response,49
true,7,1,3,1,true,z,false,true,0.0-2.0-0.35-0.316-3.316,0,0,1,90,false,stim,false,0,902,0,0,0,10556,WMM1,1090024,false,false,1118,image-keyboard-response,50
true,7,1,3,1,true,z,false,true,0.0-2.0-0.35-0.317-3.317,0,0,1,90,false,stim,false,1,2142,0,0,2,10556,WMM1,1093713,false,false,1121,image-keyboard-response,51
true,7,1,3,1,true,z,false,true,0.0-2.0-0.35-0.318-3.318,0,0,1,90,false,stim,false,0,792,0,0,0,10556,WMM1,1096021,false,false,1124,image-keyboard-response,52
true,7,1,3,1,true,z,false,true,0.0-2.0-0.35-0.319-3.319,0,0,1,90,false,stim,false,1,618,0,0,2,10556,WMM1,1098158,false,false,1127,image-keyboard-response,53
true,7,0,3,0,true,q,false,false,0.0-2.0-0.35-0.320-3.320,0,0,1,81,false,stim,false,2,792,0,0,1,10556,WMM1,1100482,false,true,1130,image-keyboard-response,54
true,7,2,3,0,false,q,false,false,0.0-2.0-0.35-0.321-3.321,0,0,1,68,false,stim,true,2,504,0,0,1,10556,WMM1,1102507,false,false,1133,image-keyboard-response,55
true,7,1,3,1,true,z,false,true,0.0-2.0-0.35-0.322-3.322,0,0,1,90,false,stim,false,1,491,0,0,2,10556,WMM1,1104530,false,false,1136,image-keyboard-response,56
true,7,0,3,1,false,z,false,false,0.0-2.0-0.35-0.323-3.323,0,0,1,81,false,stim,true,0,679,0,0,0,10556,WMM1,1106730,false,false,1139,image-keyboard-response,57
true,7,1,3,1,true,z,false,true,0.0-2.0-0.36-0.324-3.324,0,0,1,90,false,stim,false,1,635,0,0,2,10556,WMM1,1108896,false,false,1142,image-keyboard-response,58
true,7,1,3,1,true,z,false,false,0.0-2.0-0.36-0.325-3.325,0,0,1,90,false,stim,false,0,394,0,0,0,10556,WMM1,1110823,false,true,1145,image-keyboard-response,59
true,7,1,3,1,true,z,false,true,0.0-2.0-0.36-0.326-3.326,0,0,1,90,false,stim,false,1,678,0,0,2,10556,WMM1,1113037,false,false,1148,image-keyboard-response,60
true,8,0,1,1,false,z,false,false,0.0-2.0-0.36-0.327-3.327,0,0,0,81,true,stim,true,0,1289,0,0,1,10556,WMM1,1115843,false,false,1151,image-keyboard-response,1
true,8,1,1,2,false,d,false,false,0.0-2.0-0.36-0.328-3.328,0,0,0,90,false,stim,true,1,978,0,0,2,10556,WMM1,1118345,false,false,1154,image-keyboard-response,2
true,8,2,1,1,false,z,true,false,0.0-2.0-0.36-0.329-3.329,0,0,0,68,false,stim,false,0,423,0,0,1,10556,WMM1,1120292,false,false,1157,image-keyboard-response,3
true,8,1,1,2,false,d,false,false,0.0-2.0-0.36-0.330-3.330,0,0,0,90,false,stim,true,1,747,0,0,0,10556,WMM1,1122568,false,false,1160,image-keyboard-response,4
true,8,1,1,1,true,z,false,true,0.0-2.0-0.36-0.331-3.331,0,0,0,90,false,stim,false,0,1278,0,0,1,10556,WMM1,1125367,false,false,1163,image-keyboard-response,5
true,8,0,1,2,false,d,true,true,0.0-2.0-0.36-0.332-3.332,0,0,0,81,false,stim,false,1,683,0,0,0,10556,WMM1,1127572,false,true,1166,image-keyboard-response,6
true,8,2,1,2,true,d,false,true,0.0-2.0-0.37-0.333-3.333,0,0,0,68,false,stim,false,1,852,0,0,2,10556,WMM1,1129961,false,false,1169,image-keyboard-response,7
true,8,0,1,2,false,d,true,false,0.0-2.0-0.37-0.334-3.334,0,0,0,81,false,stim,false,1,721,0,0,0,10556,WMM1,1132201,false,false,1172,image-keyboard-response,8
true,8,1,1,1,true,z,false,true,0.0-2.0-0.37-0.335-3.335,0,0,0,90,false,stim,false,0,1137,0,0,1,10556,WMM1,1134867,false,false,1175,image-keyboard-response,9
true,8,0,1,2,false,d,true,false,0.0-2.0-0.37-0.336-3.336,0,0,0,81,false,stim,false,1,761,0,0,0,10556,WMM1,1137160,false,false,1178,image-keyboard-response,10
true,8,1,1,1,true,z,false,true,0.0-2.0-0.37-0.337-3.337,0,0,0,90,false,stim,false,0,739,0,0,1,10556,WMM1,1139438,false,false,1181,image-keyboard-response,11
true,8,0,1,2,false,d,true,false,0.0-2.0-0.37-0.338-3.338,0,0,0,81,false,stim,false,1,799,0,0,0,10556,WMM1,1141786,false,false,1184,image-keyboard-response,12
true,8,2,1,2,true,d,false,true,0.0-2.0-0.37-0.339-3.339,0,0,0,68,false,stim,false,1,752,0,0,2,10556,WMM1,1144076,false,false,1187,image-keyboard-response,13
true,8,1,1,2,false,d,false,true,0.0-2.0-0.37-0.340-3.340,0,0,0,90,false,stim,true,1,1218,0,0,2,10556,WMM1,1146828,false,true,1190,image-keyboard-response,14
true,8,0,1,1,false,z,false,true,0.0-2.0-0.37-0.341-3.341,0,0,0,81,false,stim,true,0,1227,0,0,1,10556,WMM1,1149576,false,true,1193,image-keyboard-response,15
true,8,1,1,2,false,d,false,false,0.0-2.0-0.38-0.342-3.342,0,0,0,90,false,stim,true,1,1626,0,0,2,10556,WMM1,1152734,false,false,1196,image-keyboard-response,16
true,8,0,1,1,false,z,false,false,0.0-2.0-0.38-0.343-3.343,0,0,0,81,false,stim,true,0,1101,0,0,1,10556,WMM1,1155369,false,false,1199,image-keyboard-response,17
true,8,1,1,2,false,d,false,false,0.0-2.0-0.38-0.344-3.344,0,0,0,90,false,stim,true,1,1310,0,0,0,10556,WMM1,1158231,false,false,1202,image-keyboard-response,18
true,8,2,1,2,true,d,false,true,0.0-2.0-0.38-0.345-3.345,0,0,0,68,false,stim,false,1,1254,0,0,2,10556,WMM1,1161012,false,false,1205,image-keyboard-response,19
true,8,2,1,2,true,d,false,false,0.0-2.0-0.38-0.346-3.346,0,0,0,68,false,stim,false,1,616,0,0,2,10556,WMM1,1163143,false,true,1208,image-keyboard-response,20
true,8,1,1,2,false,d,false,false,0.0-2.0-0.38-0.347-3.347,0,0,0,90,false,stim,true,1,656,0,0,0,10556,WMM1,1165334,false,false,1211,image-keyboard-response,21
true,8,1,1,1,true,z,false,true,0.0-2.0-0.38-0.348-3.348,0,0,0,90,false,stim,false,0,646,0,0,1,10556,WMM1,1167512,false,false,1214,image-keyboard-response,22
true,8,1,1,1,true,z,false,true,0.0-2.0-0.38-0.349-3.349,0,0,0,90,false,stim,false,0,661,0,0,1,10556,WMM1,1169701,false,false,1217,image-keyboard-response,23
true,8,0,1,2,false,d,true,false,0.0-2.0-0.38-0.350-3.350,0,0,0,81,false,stim,false,1,801,0,0,0,10556,WMM1,1172030,false,false,1220,image-keyboard-response,24
true,8,1,1,1,true,z,false,true,0.0-2.0-0.39-0.351-3.351,0,0,0,90,false,stim,false,0,1165,0,0,1,10556,WMM1,1174740,false,false,1223,image-keyboard-response,25
true,8,2,1,2,true,d,false,true,0.0-2.0-0.39-0.352-3.352,0,0,0,68,false,stim,false,1,724,0,0,2,10556,WMM1,1177004,false,false,1226,image-keyboard-response,26
true,8,1,1,2,false,d,false,false,0.0-2.0-0.39-0.353-3.353,0,0,0,90,false,stim,true,1,841,0,0,0,10556,WMM1,1179390,false,false,1229,image-keyboard-response,27
true,8,1,1,1,true,z,false,false,0.0-2.0-0.39-0.354-3.354,0,0,0,90,false,stim,false,0,953,0,0,1,10556,WMM1,1181883,false,true,1232,image-keyboard-response,28
true,8,0,1,1,false,z,false,false,0.0-2.0-0.39-0.355-3.355,0,0,0,81,false,stim,true,0,675,0,0,1,10556,WMM1,1184094,false,false,1235,image-keyboard-response,29
true,8,1,1,2,false,d,false,false,0.0-2.0-0.39-0.356-3.356,0,0,0,90,false,stim,true,1,1930,0,0,0,10556,WMM1,1187558,false,false,1238,image-keyboard-response,30
true,8,2,1,2,true,d,false,true,0.0-2.0-0.39-0.357-3.357,0,0,0,68,false,stim,false,1,873,0,0,2,10556,WMM1,1189963,false,false,1241,image-keyboard-response,31
true,8,2,1,2,true,d,false,true,0.0-2.0-0.39-0.358-3.358,0,0,0,68,false,stim,false,1,730,0,0,2,10556,WMM1,1192218,false,false,1244,image-keyboard-response,32
true,8,0,1,2,false,d,true,false,0.0-2.0-0.39-0.359-3.359,0,0,0,81,false,stim,false,1,924,0,0,0,10556,WMM1,1194674,false,false,1247,image-keyboard-response,33
true,8,1,1,2,false,d,false,false,0.0-2.0-0.40-0.360-3.360,0,0,0,90,false,stim,true,1,1563,0,0,0,10556,WMM1,1197794,false,false,1250,image-keyboard-response,34
true,8,2,1,2,true,d,false,false,0.0-2.0-0.40-0.361-3.361,0,0,0,68,false,stim,false,1,613,0,0,2,10556,WMM1,1199942,false,true,1253,image-keyboard-response,35
true,8,1,1,2,false,d,false,false,0.0-2.0-0.40-0.362-3.362,0,0,0,90,false,stim,true,1,860,0,0,2,10556,WMM1,1202350,false,false,1256,image-keyboard-response,36
true,8,2,1,2,true,d,false,true,0.0-2.0-0.40-0.363-3.363,0,0,0,68,false,stim,false,1,1088,0,0,0,10556,WMM1,1204967,false,false,1259,image-keyboard-response,37
true,8,1,1,1,true,z,false,true,0.0-2.0-0.40-0.364-3.364,0,0,0,90,false,stim,false,0,737,0,0,1,10556,WMM1,1207247,false,false,1262,image-keyboard-response,38
true,8,1,1,1,true,z,false,true,0.0-2.0-0.40-0.365-3.365,0,0,0,90,false,stim,false,0,487,0,0,1,10556,WMM1,1209265,false,false,1265,image-keyboard-response,39
true,8,1,1,2,false,d,false,false,0.0-2.0-0.40-0.366-3.366,0,0,0,90,false,stim,true,1,570,0,0,2,10556,WMM1,1211370,false,false,1268,image-keyboard-response,40
true,8,2,1,2,true,d,false,true,0.0-2.0-0.40-0.367-3.367,0,0,0,68,false,stim,false,1,1138,0,0,0,10556,WMM1,1214046,false,false,1271,image-keyboard-response,41
true,8,1,1,1,true,z,false,true,0.0-2.0-0.40-0.368-3.368,0,0,0,90,false,stim,false,0,1013,0,0,1,10556,WMM1,1216592,false,false,1274,image-keyboard-response,42
true,8,2,1,2,true,d,false,true,0.0-2.0-0.41-0.369-3.369,0,0,0,68,false,stim,false,1,1062,0,0,0,10556,WMM1,1219191,false,false,1277,image-keyboard-response,43
true,8,1,1,1,true,z,false,true,0.0-2.0-0.41-0.370-3.370,0,0,0,90,false,stim,false,0,625,0,0,1,10556,WMM1,1221364,false,false,1280,image-keyboard-response,44
true,8,2,1,2,true,d,false,true,0.0-2.0-0.41-0.371-3.371,0,0,0,68,false,stim,false,1,1040,0,0,2,10556,WMM1,1223949,false,false,1283,image-keyboard-response,45
true,8,2,1,2,true,d,false,true,0.0-2.0-0.41-0.372-3.372,0,0,0,68,false,stim,false,1,654,0,0,2,10556,WMM1,1226155,false,false,1286,image-keyboard-response,46
true,8,0,1,2,false,d,true,false,0.0-2.0-0.41-0.373-3.373,0,0,0,81,false,stim,false,1,620,0,0,0,10556,WMM1,1228309,false,false,1289,image-keyboard-response,47
true,8,2,1,2,true,d,false,true,0.0-2.0-0.41-0.374-3.374,0,0,0,68,false,stim,false,1,397,0,0,0,10556,WMM1,1230227,false,false,1292,image-keyboard-response,48
true,8,2,1,2,true,d,false,true,0.0-2.0-0.41-0.375-3.375,0,0,0,68,false,stim,false,1,508,0,0,2,10556,WMM1,1232279,false,false,1295,image-keyboard-response,49
true,8,1,1,1,true,z,false,false,0.0-2.0-0.41-0.376-3.376,0,0,0,90,false,stim,false,0,654,0,0,1,10556,WMM1,1234452,false,true,1298,image-keyboard-response,50
true,8,2,1,1,false,z,true,true,0.0-2.0-0.41-0.377-3.377,0,0,0,68,false,stim,false,0,826,0,0,1,10556,WMM1,1236815,false,true,1301,image-keyboard-response,51
true,8,2,1,2,true,d,false,false,0.0-2.0-0.42-0.378-3.378,0,0,0,68,false,stim,false,1,512,0,0,0,10556,WMM1,1238853,false,true,1304,image-keyboard-response,52
true,8,1,1,2,false,d,false,false,0.0-2.0-0.42-0.379-3.379,0,0,0,90,false,stim,true,1,866,0,0,0,10556,WMM1,1241240,false,false,1307,image-keyboard-response,53
true,8,2,1,1,false,z,true,false,0.0-2.0-0.42-0.380-3.380,0,0,0,68,false,stim,false,0,772,0,0,1,10556,WMM1,1243540,false,false,1310,image-keyboard-response,54
true,8,2,1,2,true,d,false,false,0.0-2.0-0.42-0.381-3.381,0,0,0,68,false,stim,false,1,1033,0,0,2,10556,WMM1,1246131,false,true,1313,image-keyboard-response,55
true,8,0,1,2,false,d,true,false,0.0-2.0-0.42-0.382-3.382,0,0,0,81,false,stim,false,1,513,0,0,2,10556,WMM1,1248171,false,false,1316,image-keyboard-response,56
true,9,1,2,2,false,d,false,false,0.0-2.0-0.42-0.383-3.383,0,0,0,90,true,stim,true,1,1311,0,0,1,10556,WMM1,1251001,false,false,1319,image-keyboard-response,1
true,9,2,2,2,true,d,false,true,0.0-2.0-0.42-0.384-3.384,0,0,0,68,false,stim,false,1,741,0,0,1,10556,WMM1,1253269,false,false,1322,image-keyboard-response,2
true,9,2,2,0,false,q,false,false,0.0-2.0-0.42-0.385-3.385,0,0,0,68,false,stim,true,2,782,0,0,0,10556,WMM1,1255580,false,false,1325,image-keyboard-response,3
true,9,2,2,1,false,z,false,true,0.0-2.0-0.42-0.386-3.386,0,0,0,68,false,stim,true,2,642,0,0,2,10556,WMM1,1257742,false,true,1328,image-keyboard-response,4
true,9,2,2,2,true,d,false,true,0.0-2.0-0.43-0.387-3.387,0,0,0,68,false,stim,false,1,576,0,0,1,10556,WMM1,1259840,false,false,1331,image-keyboard-response,5
true,9,1,2,0,false,q,true,false,0.0-2.0-0.43-0.388-3.388,0,0,0,90,false,stim,false,2,841,0,0,0,10556,WMM1,1262210,false,false,1334,image-keyboard-response,6
true,9,0,2,2,false,d,true,false,0.0-2.0-0.43-0.389-3.389,0,0,0,81,false,stim,false,1,429,0,0,1,10556,WMM1,1264178,false,false,1337,image-keyboard-response,7
true,9,2,2,2,true,d,false,true,0.0-2.0-0.43-0.390-3.390,0,0,0,68,false,stim,false,1,457,0,0,1,10556,WMM1,1266157,false,false,1340,image-keyboard-response,8
true,9,2,2,1,false,z,false,false,0.0-2.0-0.43-0.391-3.391,0,0,0,68,false,stim,true,2,657,0,0,2,10556,WMM1,1268356,false,false,1343,image-keyboard-response,9
true,9,2,2,1,false,z,false,false,0.0-2.0-0.43-0.392-3.392,0,0,0,68,false,stim,true,2,479,0,0,2,10556,WMM1,1270358,false,false,1346,image-keyboard-response,10
true,9,2,2,0,false,q,false,true,0.0-2.0-0.43-0.393-3.393,0,0,0,68,false,stim,true,2,1160,0,0,0,10556,WMM1,1273060,false,true,1349,image-keyboard-response,11
true,9,2,2,1,false,z,false,false,0.0-2.0-0.43-0.394-3.394,0,0,0,68,false,stim,true,2,874,0,0,2,10556,WMM1,1275464,false,false,1352,image-keyboard-response,12
true,9,2,2,0,false,q,false,false,0.0-2.0-0.43-0.395-3.395,0,0,0,68,false,stim,true,2,764,0,0,0,10556,WMM1,1277763,false,false,1355,image-keyboard-response,13
true,9,0,2,0,true,q,false,true,0.0-2.0-0.44-0.396-3.396,0,0,0,81,false,stim,false,2,600,0,0,0,10556,WMM1,1279900,false,false,1358,image-keyboard-response,14
true,9,0,2,0,true,q,false,true,0.0-2.0-0.44-0.397-3.397,0,0,0,81,false,stim,false,2,403,0,0,0,10556,WMM1,1281823,false,false,1361,image-keyboard-response,15
true,9,1,2,1,true,z,false,true,0.0-2.0-0.44-0.398-3.398,0,0,0,90,false,stim,false,2,1124,0,0,2,10556,WMM1,1284463,false,false,1364,image-keyboard-response,16
true,9,0,2,0,true,q,false,true,0.0-2.0-0.44-0.399-3.399,0,0,0,81,false,stim,false,2,1348,0,0,0,10556,WMM1,1287338,false,false,1367,image-keyboard-response,17
true,9,1,2,1,true,z,false,true,0.0-2.0-0.44-0.400-3.400,0,0,0,90,false,stim,false,2,627,0,0,2,10556,WMM1,1289497,false,false,1370,image-keyboard-response,18
true,9,2,2,2,true,d,false,true,0.0-2.0-0.44-0.401-3.401,0,0,0,68,false,stim,false,1,939,0,0,1,10556,WMM1,1291958,false,false,1373,image-keyboard-response,19
true,9,2,2,2,true,d,false,true,0.0-2.0-0.44-0.402-3.402,0,0,0,68,false,stim,false,1,752,0,0,1,10556,WMM1,1294250,false,false,1376,image-keyboard-response,20
true,9,1,2,1,true,z,false,true,0.0-2.0-0.44-0.403-3.403,0,0,0,90,false,stim,false,2,747,0,0,2,10556,WMM1,1296547,false,false,1379,image-keyboard-response,21
true,9,1,2,2,false,d,false,false,0.0-2.0-0.44-0.404-3.404,0,0,0,90,false,stim,true,1,1035,0,0,1,10556,WMM1,1299114,false,false,1382,image-keyboard-response,22
true,9,0,2,0,true,q,false,true,0.0-2.0-0.45-0.405-3.405,0,0,0,81,false,stim,false,2,1319,0,0,0,10556,WMM1,1301979,false,false,1385,image-keyboard-response,23
true,9,2,2,1,false,z,false,false,0.0-2.0-0.45-0.406-3.406,0,0,0,68,false,stim,true,2,802,0,0,2,10556,WMM1,1304310,false,false,1388,image-keyboard-response,24
true,9,2,2,2,true,d,false,true,0.0-2.0-0.45-0.407-3.407,0,0,0,68,false,stim,false,1,707,0,0,1,10556,WMM1,1306556,false,false,1391,image-keyboard-response,25
true,9,1,2,1,true,z,false,true,0.0-2.0-0.45-0.408-3.408,0,0,0,90,false,stim,false,2,504,0,0,2,10556,WMM1,1308596,false,false,1394,image-keyboard-response,26
true,9,0,2,0,true,q,false,false,0.0-2.0-0.45-0.409-3.409,0,0,0,81,false,stim,false,2,645,0,0,0,10556,WMM1,1310772,false,true,1397,image-keyboard-response,27
true,9,2,2,2,true,d,false,true,0.0-2.0-0.45-0.410-3.410,0,0,0,68,false,stim,false,1,1417,0,0,1,10556,WMM1,1313726,false,false,1400,image-keyboard-response,28
true,9,2,2,2,true,d,false,false,0.0-2.0-0.45-0.411-3.411,0,0,0,68,false,stim,false,1,622,0,0,1,10556,WMM1,1315891,false,true,1403,image-keyboard-response,29
true,9,2,2,1,false,z,false,false,0.0-2.0-0.45-0.412-3.412,0,0,0,68,false,stim,true,2,792,0,0,2,10556,WMM1,1318213,false,false,1406,image-keyboard-response,30
true,10,0,1,1,false,z,false,false,0.0-2.0-0.45-0.413-3.413,0,0,0,81,true,stim,true,0,741,0,0,0,10556,WMM1,1320473,false,false,1409,image-keyboard-response,1
true,10,0,1,1,false,z,false,false,0.0-2.0-0.46-0.414-3.414,0,0,0,81,false,stim,true,0,1243,0,0,0,10556,WMM1,1323242,false,false,1412,image-keyboard-response,2
true,10,1,1,1,true,z,false,true,0.0-2.0-0.46-0.415-3.415,0,0,0,90,false,stim,false,0,415,0,0,0,10556,WMM1,1325182,false,false,1415,image-keyboard-response,3
true,10,2,1,0,false,q,true,false,0.0-2.0-0.46-0.416-3.416,0,0,0,68,false,stim,false,1,814,0,0,2,10556,WMM1,1327519,false,false,1418,image-keyboard-response,4
true,10,0,1,0,true,q,false,true,0.0-2.0-0.46-0.417-3.417,0,0,0,81,false,stim,false,1,400,0,0,2,10556,WMM1,1329450,false,false,1421,image-keyboard-response,5
true,10,1,1,0,false,q,true,false,0.0-2.0-0.46-0.418-3.418,0,0,0,90,false,stim,false,2,736,0,0,1,10556,WMM1,1331715,false,false,1424,image-keyboard-response,6
true,10,1,1,0,false,q,true,false,0.0-2.0-0.46-0.419-3.419,0,0,0,90,false,stim,false,2,1591,0,0,1,10556,WMM1,1334837,false,false,1427,image-keyboard-response,7
true,10,1,1,0,false,q,false,false,0.0-2.0-0.46-0.420-3.420,0,0,0,90,false,stim,true,1,1154,0,0,2,10556,WMM1,1337513,false,false,1430,image-keyboard-response,8
true,10,2,1,1,false,z,true,false,0.0-2.0-0.46-0.421-3.421,0,0,0,68,false,stim,false,0,775,0,0,0,10556,WMM1,1339804,false,false,1433,image-keyboard-response,9
true,10,2,1,0,false,q,false,false,0.0-2.0-0.46-0.422-3.422,0,0,0,68,false,stim,true,2,1272,0,0,1,10556,WMM1,1342622,false,false,1436,image-keyboard-response,10
true,10,0,1,0,true,q,false,true,0.0-2.0-0.47-0.423-3.423,0,0,0,81,false,stim,false,2,469,0,0,1,10556,WMM1,1344627,false,false,1439,image-keyboard-response,11
true,10,1,1,0,false,q,false,true,0.0-2.0-0.47-0.424-3.424,0,0,0,90,false,stim,true,1,1390,0,0,2,10556,WMM1,1347550,false,true,1442,image-keyboard-response,12
true,10,0,1,0,true,q,false,false,0.0-2.0-0.47-0.425-3.425,0,0,0,81,false,stim,false,2,808,0,0,1,10556,WMM1,1349882,false,true,1445,image-keyboard-response,13
true,10,0,1,0,true,q,false,true,0.0-2.0-0.47-0.426-3.426,0,0,0,81,false,stim,false,1,700,0,0,2,10556,WMM1,1352108,false,false,1448,image-keyboard-response,14
true,10,0,1,0,true,q,false,true,0.0-2.0-0.47-0.427-3.427,0,0,0,81,false,stim,false,2,643,0,0,1,10556,WMM1,1354283,false,false,1451,image-keyboard-response,15
true,10,1,1,0,false,q,false,false,0.0-2.0-0.47-0.428-3.428,0,0,0,90,false,stim,true,1,911,0,0,2,10556,WMM1,1356729,false,false,1454,image-keyboard-response,16
true,10,1,1,1,true,z,false,true,0.0-2.0-0.47-0.429-3.429,0,0,0,90,false,stim,false,0,1085,0,0,0,10556,WMM1,1359336,false,false,1457,image-keyboard-response,17
true,10,1,1,1,true,z,false,false,0.0-2.0-0.47-0.430-3.430,0,0,0,90,false,stim,false,0,571,0,0,0,10556,WMM1,1361439,false,true,1460,image-keyboard-response,18
true,10,1,1,1,true,z,false,true,0.0-2.0-0.47-0.431-3.431,0,0,0,90,false,stim,false,0,565,0,0,0,10556,WMM1,1363537,false,false,1463,image-keyboard-response,19
true,10,2,1,0,false,q,true,false,0.0-2.0-0.48-0.432-3.432,0,0,0,68,false,stim,false,1,575,0,0,2,10556,WMM1,1365655,false,false,1466,image-keyboard-response,20
true,10,0,1,0,true,q,false,true,0.0-2.0-0.48-0.433-3.433,0,0,0,81,false,stim,false,1,565,0,0,2,10556,WMM1,1367765,false,false,1469,image-keyboard-response,21
true,10,2,1,0,false,q,false,false,0.0-2.0-0.48-0.434-3.434,0,0,0,68,false,stim,true,2,879,0,0,1,10556,WMM1,1370194,false,false,1472,image-keyboard-response,22
true,10,0,1,0,true,q,false,true,0.0-2.0-0.48-0.435-3.435,0,0,0,81,false,stim,false,1,1201,0,0,2,10556,WMM1,1372928,false,false,1475,image-keyboard-response,23
true,10,1,1,0,false,q,true,false,0.0-2.0-0.48-0.436-3.436,0,0,0,90,false,stim,false,2,850,0,0,1,10556,WMM1,1375330,false,false,1478,image-keyboard-response,24
true,10,0,1,1,false,z,false,false,0.0-2.0-0.48-0.437-3.437,0,0,0,81,false,stim,true,0,762,0,0,0,10556,WMM1,1377641,false,false,1481,image-keyboard-response,25
true,10,1,1,1,true,z,false,true,0.0-2.0-0.48-0.438-3.438,0,0,0,90,false,stim,false,0,493,0,0,0,10556,WMM1,1379673,false,false,1484,image-keyboard-response,26
true,10,0,1,0,true,q,false,true,0.0-2.0-0.48-0.439-3.439,0,0,0,81,false,stim,false,2,788,0,0,1,10556,WMM1,1381998,false,false,1487,image-keyboard-response,27
true,10,1,1,1,true,z,false,true,0.0-2.0-0.48-0.440-3.440,0,0,0,90,false,stim,false,0,766,0,0,0,10556,WMM1,1384314,false,false,1490,image-keyboard-response,28
true,10,2,1,0,false,q,true,false,0.0-2.0-0.49-0.441-3.441,0,0,0,68,false,stim,false,1,979,0,0,2,10556,WMM1,1386819,false,false,1493,image-keyboard-response,29
true,10,0,1,0,true,q,false,true,0.0-2.0-0.49-0.442-3.442,0,0,0,81,false,stim,false,1,638,0,0,2,10556,WMM1,1388999,false,false,1496,image-keyboard-response,30
true,10,1,1,1,true,z,false,true,0.0-2.0-0.49-0.443-3.443,0,0,0,90,false,stim,false,0,937,0,0,0,10556,WMM1,1391473,false,false,1499,image-keyboard-response,31
true,10,0,1,0,true,q,false,false,0.0-2.0-0.49-0.444-3.444,0,0,0,81,false,stim,false,1,657,0,0,2,10556,WMM1,1393706,false,true,1502,image-keyboard-response,32
true,10,1,1,1,true,z,false,true,0.0-2.0-0.49-0.445-3.445,0,0,0,90,false,stim,false,0,666,0,0,0,10556,WMM1,1395926,false,false,1505,image-keyboard-response,33
true,10,0,1,0,true,q,false,true,0.0-2.0-0.49-0.446-3.446,0,0,0,81,false,stim,false,2,616,0,0,1,10556,WMM1,1398073,false,false,1508,image-keyboard-response,34
true,10,0,1,0,true,q,false,false,0.0-2.0-0.49-0.447-3.447,0,0,0,81,false,stim,false,2,600,0,0,1,10556,WMM1,1400209,false,true,1511,image-keyboard-response,35
true,10,1,1,1,true,z,false,true,0.0-2.0-0.49-0.448-3.448,0,0,0,90,false,stim,false,0,990,0,0,0,10556,WMM1,1402728,false,false,1514,image-keyboard-response,36
true,10,0,1,0,true,q,false,false,0.0-2.0-0.49-0.449-3.449,0,0,0,81,false,stim,false,2,702,0,0,1,10556,WMM1,1404972,false,true,1517,image-keyboard-response,37
true,10,1,1,1,true,z,false,true,0.0-2.0-0.50-0.450-3.450,0,0,0,90,false,stim,false,0,602,0,0,0,10556,WMM1,1407113,false,false,1520,image-keyboard-response,38
true,10,1,1,1,true,z,false,true,0.0-2.0-0.50-0.451-3.451,0,0,0,90,false,stim,false,0,721,0,0,0,10556,WMM1,1409381,false,false,1523,image-keyboard-response,39
true,10,2,1,0,false,q,false,false,0.0-2.0-0.50-0.452-3.452,0,0,0,68,false,stim,true,2,1288,0,0,1,10556,WMM1,1412197,false,false,1526,image-keyboard-response,40
true,10,0,1,0,true,q,false,true,0.0-2.0-0.50-0.453-3.453,0,0,0,81,false,stim,false,2,583,0,0,1,10556,WMM1,1414323,false,false,1529,image-keyboard-response,41
true,10,0,1,0,true,q,false,true,0.0-2.0-0.50-0.454-3.454,0,0,0,81,false,stim,false,2,446,0,0,1,10556,WMM1,1416311,false,false,1532,image-keyboard-response,42
true,10,1,1,1,true,z,false,true,0.0-2.0-0.50-0.455-3.455,0,0,0,90,false,stim,false,0,957,0,0,0,10556,WMM1,1418800,false,false,1535,image-keyboard-response,43
true,10,0,1,0,true,q,false,true,0.0-2.0-0.50-0.456-3.456,0,0,0,81,false,stim,false,1,951,0,0,2,10556,WMM1,1421284,false,false,1538,image-keyboard-response,44
true,11,0,2,1,false,z,false,true,0.0-2.0-0.50-0.457-3.457,0,0,0,81,true,stim,true,0,440,0,0,2,10556,WMM1,1423249,false,true,1541,image-keyboard-response,1
true,11,0,2,1,false,z,false,true,0.0-2.0-0.50-0.458-3.458,0,0,0,81,false,stim,true,0,650,0,0,2,10556,WMM1,1425420,false,true,1544,image-keyboard-response,2
true,11,1,2,0,false,q,false,false,0.0-2.0-0.51-0.459-3.459,0,0,0,90,false,stim,true,1,760,0,0,0,10556,WMM1,1427710,false,false,1547,image-keyboard-response,3
true,11,0,2,1,false,z,false,true,0.0-2.0-0.51-0.460-3.460,0,0,0,81,false,stim,true,0,696,0,0,2,10556,WMM1,1429930,false,true,1550,image-keyboard-response,4
true,11,0,2,1,false,z,false,false,0.0-2.0-0.51-0.461-3.461,0,0,0,81,false,stim,true,0,429,0,0,2,10556,WMM1,1431888,false,false,1553,image-keyboard-response,5
true,11,1,2,1,true,z,false,true,0.0-2.0-0.51-0.462-3.462,0,0,0,90,false,stim,false,0,1030,0,0,2,10556,WMM1,1434440,false,false,1556,image-keyboard-response,6
true,11,0,2,2,false,d,false,false,0.0-2.0-0.51-0.463-3.463,0,0,0,81,false,stim,true,0,790,0,0,1,10556,WMM1,1436759,false,false,1559,image-keyboard-response,7
true,11,2,2,2,true,d,false,true,0.0-2.0-0.51-0.464-3.464,0,0,0,68,false,stim,false,0,409,0,0,1,10556,WMM1,1438699,false,false,1562,image-keyboard-response,8
true,11,0,2,0,true,q,false,true,0.0-2.0-0.51-0.465-3.465,0,0,0,81,false,stim,false,1,1312,0,0,0,10556,WMM1,1441544,false,false,1565,image-keyboard-response,9
true,11,0,2,0,true,q,false,true,0.0-2.0-0.51-0.466-3.466,0,0,0,81,false,stim,false,1,490,0,0,0,10556,WMM1,1443562,false,false,1568,image-keyboard-response,10
true,11,2,2,2,true,d,false,true,0.0-2.0-0.51-0.467-3.467,0,0,0,68,false,stim,false,0,1380,0,0,1,10556,WMM1,1446479,false,false,1571,image-keyboard-response,11
true,11,0,2,1,false,z,false,false,0.0-2.0-0.52-0.468-3.468,0,0,0,81,false,stim,true,0,1491,0,0,2,10556,WMM1,1449500,false,false,1574,image-keyboard-response,12
true,11,1,2,0,false,q,false,false,0.0-2.0-0.52-0.469-3.469,0,0,0,90,false,stim,true,1,753,0,0,0,10556,WMM1,1451781,false,false,1577,image-keyboard-response,13
true,11,0,2,0,true,q,false,true,0.0-2.0-0.52-0.470-3.470,0,0,0,81,false,stim,false,1,361,0,0,0,10556,WMM1,1453671,false,false,1580,image-keyboard-response,14
true,11,2,2,2,true,d,false,true,0.0-2.0-0.52-0.471-3.471,0,0,0,68,false,stim,false,0,766,0,0,1,10556,WMM1,1455960,false,false,1583,image-keyboard-response,15
true,11,1,2,1,true,z,false,true,0.0-2.0-0.52-0.472-3.472,0,0,0,90,false,stim,false,0,975,0,0,2,10556,WMM1,1458453,false,false,1586,image-keyboard-response,16
true,11,2,2,2,true,d,false,true,0.0-2.0-0.52-0.473-3.473,0,0,0,68,false,stim,false,0,646,0,0,1,10556,WMM1,1460625,false,false,1589,image-keyboard-response,17
true,11,1,2,1,true,z,false,true,0.0-2.0-0.52-0.474-3.474,0,0,0,90,false,stim,false,0,662,0,0,2,10556,WMM1,1462811,false,false,1592,image-keyboard-response,18
true,11,2,2,2,true,d,false,true,0.0-2.0-0.52-0.475-3.475,0,0,0,68,false,stim,false,0,1042,0,0,1,10556,WMM1,1465391,false,false,1595,image-keyboard-response,19
true,11,0,2,0,true,q,false,false,0.0-2.0-0.52-0.476-3.476,0,0,0,81,false,stim,false,1,551,0,0,0,10556,WMM1,1467459,false,true,1598,image-keyboard-response,20
true,11,2,2,2,true,d,false,true,0.0-2.0-0.53-0.477-3.477,0,0,0,68,false,stim,false,0,733,0,0,1,10556,WMM1,1469752,false,false,1601,image-keyboard-response,21
true,11,2,2,2,true,d,false,true,0.0-2.0-0.53-0.478-3.478,0,0,0,68,false,stim,false,0,1195,0,0,1,10556,WMM1,1472474,false,false,1604,image-keyboard-response,22
true,11,1,2,1,true,z,false,true,0.0-2.0-0.53-0.479-3.479,0,0,0,90,false,stim,false,0,1486,0,1,2,10556,WMM1,1475495,false,false,1607,image-keyboard-response,23
true,11,1,2,1,true,z,false,false,0.0-2.0-0.53-0.480-3.480,0,0,0,90,false,stim,false,0,439,0,1,2,10556,WMM1,1477478,false,true,1610,image-keyboard-response,24
true,11,0,2,2,false,d,false,false,0.0-2.0-0.53-0.481-3.481,0,0,0,81,false,stim,true,0,412,0,0,1,10556,WMM1,1479422,false,false,1613,image-keyboard-response,25
true,11,2,2,0,false,q,true,false,0.0-2.0-0.53-0.482-3.482,0,0,0,68,false,stim,false,1,524,0,0,0,10556,WMM1,1481462,false,false,1616,image-keyboard-response,26
true,11,0,2,0,true,q,false,true,0.0-2.0-0.53-0.483-3.483,0,0,0,81,false,stim,false,1,419,0,0,0,10556,WMM1,1483418,false,false,1619,image-keyboard-response,27
true,11,0,2,0,true,q,false,true,0.0-2.0-0.53-0.484-3.484,0,0,0,81,false,stim,false,1,535,0,0,0,10556,WMM1,1485483,false,false,1622,image-keyboard-response,28
true,11,1,2,1,true,z,false,true,0.0-2.0-0.53-0.485-3.485,0,0,0,90,false,stim,false,0,1324,0,1,2,10556,WMM1,1488333,false,false,1625,image-keyboard-response,29
true,11,2,2,2,true,d,false,false,0.0-2.0-0.54-0.486-3.486,0,0,0,68,false,stim,false,0,975,0,0,1,10556,WMM1,1490835,false,true,1628,image-keyboard-response,30
true,12,0,3,2,false,d,false,false,0.0-2.0-0.54-0.487-3.487,0,0,1,81,true,stim,true,0,772,0,0,0,10556,WMM1,1493141,false,false,1631,image-keyboard-response,1
true,12,1,3,1,true,z,false,false,0.0-2.0-0.54-0.488-3.488,0,0,1,90,false,stim,false,1,413,0,1,2,10556,WMM1,1495091,false,true,1634,image-keyboard-response,2
true,12,0,3,1,false,z,true,false,0.0-2.0-0.54-0.489-3.489,0,0,1,81,false,stim,false,1,1265,0,1,2,10556,WMM1,1497885,false,false,1637,image-keyboard-response,3
true,12,2,3,1,false,z,true,false,0.0-2.0-0.54-0.490-3.490,0,0,1,68,false,stim,false,1,504,0,1,2,10556,WMM1,1499905,false,false,1640,image-keyboard-response,4
true,12,2,3,1,false,z,false,false,0.0-2.0-0.54-0.491-3.491,0,0,1,68,false,stim,true,2,1064,0,0,1,10556,WMM1,1502485,false,false,1643,image-keyboard-response,5
true,12,0,3,2,false,d,false,false,0.0-2.0-0.54-0.492-3.492,0,0,1,81,false,stim,true,0,858,0,0,0,10556,WMM1,1504870,false,false,1646,image-keyboard-response,6
true,12,1,3,2,false,d,true,false,0.0-2.0-0.54-0.493-3.493,0,0,1,90,false,stim,false,0,902,0,0,0,10556,WMM1,1507300,false,false,1649,image-keyboard-response,7
true,12,0,3,1,false,z,true,false,0.0-2.0-0.54-0.494-3.494,0,0,1,81,false,stim,false,2,1173,0,0,1,10556,WMM1,1510003,false,false,1652,image-keyboard-response,8
true,12,0,3,1,false,z,true,false,0.0-2.0-0.55-0.495-3.495,0,0,1,81,false,stim,false,1,1370,0,1,2,10556,WMM1,1512900,false,false,1655,image-keyboard-response,9
true,12,0,3,1,false,z,true,true,0.0-2.0-0.55-0.496-3.496,0,0,1,81,false,stim,false,2,1000,0,0,1,10556,WMM1,1515420,false,true,1658,image-keyboard-response,10
true,12,1,3,2,false,d,true,false,0.0-2.0-0.55-0.497-3.497,0,0,1,90,false,stim,false,0,996,0,0,0,10556,WMM1,1517946,false,false,1661,image-keyboard-response,11
true,12,2,3,1,false,z,false,false,0.0-2.0-0.55-0.498-3.498,0,0,1,68,false,stim,true,2,658,0,0,1,10556,WMM1,1520149,false,false,1664,image-keyboard-response,12
true,12,1,3,2,false,d,true,false,0.0-2.0-0.55-0.499-3.499,0,0,1,90,false,stim,false,0,662,0,0,0,10556,WMM1,1522343,false,false,1667,image-keyboard-response,13
true,12,0,3,2,false,d,false,false,0.0-2.0-0.55-0.500-3.500,0,0,1,81,false,stim,true,0,426,0,0,0,10556,WMM1,1524296,false,false,1670,image-keyboard-response,14
true,12,2,3,1,false,z,true,false,0.0-2.0-0.55-0.501-3.501,0,0,1,68,false,stim,false,1,332,0,1,2,10556,WMM1,1526190,false,false,1673,image-keyboard-response,15
true,12,1,3,1,true,z,false,true,0.0-2.0-0.55-0.502-3.502,0,0,1,90,false,stim,false,1,392,0,1,2,10556,WMM1,1528100,false,false,1676,image-keyboard-response,16
true,12,2,3,1,false,z,false,true,0.0-2.0-0.55-0.503-3.503,0,0,1,68,false,stim,true,2,1814,0,0,1,10556,WMM1,1531443,false,true,1679,image-keyboard-response,17
true,12,1,3,1,true,z,false,true,0.0-2.0-0.56-0.504-3.504,0,0,1,90,false,stim,false,1,1592,0,1,2,10556,WMM1,1534559,false,false,1682,image-keyboard-response,18
true,12,0,3,2,false,d,false,false,0.0-2.0-0.56-0.505-3.505,0,0,1,81,false,stim,true,0,719,0,0,0,10556,WMM1,1536797,false,false,1685,image-keyboard-response,19
true,12,1,3,1,true,z,false,true,0.0-2.0-0.56-0.506-3.506,0,0,1,90,false,stim,false,1,795,0,1,2,10556,WMM1,1539124,false,false,1688,image-keyboard-response,20
true,12,2,3,2,true,d,false,false,0.0-2.0-0.56-0.507-3.507,0,0,1,68,false,stim,false,0,872,0,0,0,10556,WMM1,1541540,false,true,1691,image-keyboard-response,21
true,12,2,3,1,false,z,false,true,0.0-2.0-0.56-0.508-3.508,0,0,1,68,false,stim,true,2,1101,0,0,1,10556,WMM1,1544180,false,true,1694,image-keyboard-response,22
true,12,2,3,1,false,z,false,false,0.0-2.0-0.56-0.509-3.509,0,0,1,68,false,stim,true,2,866,0,0,1,10556,WMM1,1546589,false,false,1697,image-keyboard-response,23
true,12,2,3,1,false,z,false,true,0.0-2.0-0.56-0.510-3.510,0,0,1,68,false,stim,true,2,731,0,0,1,10556,WMM1,1548860,false,true,1700,image-keyboard-response,24
true,12,1,3,2,false,d,true,false,0.0-2.0-0.56-0.511-3.511,0,0,1,90,false,stim,false,0,1459,0,0,0,10556,WMM1,1551898,false,false,1703,image-keyboard-response,25
true,12,1,3,1,true,z,false,true,0.0-2.0-0.56-0.512-3.512,0,0,1,90,false,stim,false,1,1357,0,1,2,10556,WMM1,1554791,false,false,1706,image-keyboard-response,26
true,12,2,3,2,true,d,false,false,0.0-2.0-0.57-0.513-3.513,0,0,1,68,false,stim,false,0,1161,0,0,0,10556,WMM1,1557483,false,true,1709,image-keyboard-response,27
true,12,1,3,1,true,z,false,true,0.0-2.0-0.57-0.514-3.514,0,0,1,90,false,stim,false,2,941,0,0,1,10556,WMM1,1559951,false,false,1712,image-keyboard-response,28
true,12,1,3,2,false,d,true,false,0.0-2.0-0.57-0.515-3.515,0,0,1,90,false,stim,false,0,795,0,0,0,10556,WMM1,1562296,false,false,1715,image-keyboard-response,29
true,12,1,3,1,true,z,false,true,0.0-2.0-0.57-0.516-3.516,0,0,1,90,false,stim,false,1,1075,0,1,2,10556,WMM1,1564905,false,false,1718,image-keyboard-response,30
true,12,0,3,1,false,z,true,true,0.0-2.0-0.57-0.517-3.517,0,0,1,81,false,stim,false,2,1661,0,0,1,10556,WMM1,1568099,false,true,1721,image-keyboard-response,31
true,12,0,3,1,false,z,true,false,0.0-2.0-0.57-0.518-3.518,0,0,1,81,false,stim,false,2,434,0,0,1,10556,WMM1,1570084,false,false,1724,image-keyboard-response,32
true,12,2,3,2,true,d,false,true,0.0-2.0-0.57-0.519-3.519,0,0,1,68,false,stim,false,0,1718,0,0,0,10556,WMM1,1573348,false,false,1727,image-keyboard-response,33
true,12,1,3,1,true,z,false,true,0.0-2.0-0.57-0.520-3.520,0,0,1,90,false,stim,false,1,1070,0,1,2,10556,WMM1,1575968,false,false,1730,image-keyboard-response,34
true,12,1,3,1,true,z,false,true,0.0-2.0-0.57-0.521-3.521,0,0,1,90,false,stim,false,1,447,0,1,2,10556,WMM1,1577947,false,false,1733,image-keyboard-response,35
true,12,0,3,1,false,z,true,false,0.0-2.0-0.58-0.522-3.522,0,0,1,81,false,stim,false,2,1040,0,0,1,10556,WMM1,1580518,false,false,1736,image-keyboard-response,36
true,12,2,3,1,false,z,false,false,0.0-2.0-0.58-0.523-3.523,0,0,1,68,false,stim,true,2,799,0,0,1,10556,WMM1,1582869,false,false,1739,image-keyboard-response,37
true,12,2,3,2,true,d,false,true,0.0-2.0-0.58-0.524-3.524,0,0,1,68,false,stim,false,0,954,0,0,0,10556,WMM1,1585361,false,false,1742,image-keyboard-response,38
true,12,2,3,2,true,d,false,true,0.0-2.0-0.58-0.525-3.525,0,0,1,68,false,stim,false,0,460,0,0,0,10556,WMM1,1587357,false,false,1745,image-keyboard-response,39
true,12,2,3,1,false,z,true,false,0.0-2.0-0.58-0.526-3.526,0,0,1,68,false,stim,false,1,497,0,1,2,10556,WMM1,1589377,false,false,1748,image-keyboard-response,40
true,12,1,3,1,true,z,false,true,0.0-2.0-0.58-0.527-3.527,0,0,1,90,false,stim,false,2,334,0,0,1,10556,WMM1,1591255,false,false,1751,image-keyboard-response,41
true,12,0,3,2,false,d,false,true,0.0-2.0-0.58-0.528-3.528,0,0,1,81,false,stim,true,0,466,0,0,0,10556,WMM1,1593252,false,true,1754,image-keyboard-response,42
true,12,0,3,1,false,z,true,false,0.0-2.0-0.58-0.529-3.529,0,0,1,81,false,stim,false,1,460,0,1,2,10556,WMM1,1595248,false,false,1757,image-keyboard-response,43
true,12,1,3,1,true,z,false,true,0.0-2.0-0.58-0.530-3.530,0,0,1,90,false,stim,false,1,469,0,1,2,10556,WMM1,1597246,false,false,1760,image-keyboard-response,44
true,12,1,3,1,true,z,false,true,0.0-2.0-0.59-0.531-3.531,0,0,1,90,false,stim,false,2,517,0,0,1,10556,WMM1,1599288,false,false,1763,image-keyboard-response,45
true,12,1,3,2,false,d,true,false,0.0-2.0-0.59-0.532-3.532,0,0,1,90,false,stim,false,0,879,0,0,0,10556,WMM1,1601718,false,false,1766,image-keyboard-response,46
true,12,2,3,1,false,z,false,false,0.0-2.0-0.59-0.533-3.533,0,0,1,68,false,stim,true,2,487,0,0,1,10556,WMM1,1603746,false,false,1769,image-keyboard-response,47
true,12,0,3,1,false,z,true,false,0.0-2.0-0.59-0.534-3.534,0,0,1,81,false,stim,false,1,349,0,1,2,10556,WMM1,1605638,false,false,1772,image-keyboard-response,48
true,12,1,3,1,true,z,false,true,0.0-2.0-0.59-0.535-3.535,0,0,1,90,false,stim,false,1,516,0,1,2,10556,WMM1,1607706,false,false,1775,image-keyboard-response,49
true,12,0,3,2,false,d,false,false,0.0-2.0-0.59-0.536-3.536,0,0,1,81,false,stim,true,0,1059,0,0,0,10556,WMM1,1610298,false,false,1778,image-keyboard-response,50
true,12,2,3,1,false,z,false,false,0.0-2.0-0.59-0.537-3.537,0,0,1,68,false,stim,true,2,326,0,0,1,10556,WMM1,1612155,false,false,1781,image-keyboard-response,51
true,12,1,3,2,false,d,true,false,0.0-2.0-0.59-0.538-3.538,0,0,1,90,false,stim,false,0,440,0,0,0,10556,WMM1,1614120,false,false,1784,image-keyboard-response,52
true,12,0,3,1,false,z,true,false,0.0-2.0-0.59-0.539-3.539,0,0,1,81,false,stim,false,1,385,0,0,2,10556,WMM1,1616044,false,false,1787,image-keyboard-response,53
true,12,1,3,1,true,z,false,true,0.0-2.0-0.60-0.540-3.540,0,0,1,90,false,stim,false,1,592,0,0,2,10556,WMM1,1618159,false,false,1790,image-keyboard-response,54
true,12,0,3,1,false,z,true,false,0.0-2.0-0.60-0.541-3.541,0,0,1,81,false,stim,false,1,1158,0,0,2,10556,WMM1,1620840,false,false,1793,image-keyboard-response,55
true,12,2,3,1,false,z,false,false,0.0-2.0-0.60-0.542-3.542,0,0,1,68,false,stim,true,2,703,0,0,1,10556,WMM1,1623072,false,false,1796,image-keyboard-response,56
true,12,1,3,1,true,z,false,false,0.0-2.0-0.60-0.543-3.543,0,0,1,90,false,stim,false,1,628,0,0,2,10556,WMM1,1625231,false,true,1799,image-keyboard-response,57
true,12,0,3,2,false,d,false,false,0.0-2.0-0.60-0.544-3.544,0,0,1,81,false,stim,true,0,743,0,0,0,10556,WMM1,1627541,false,false,1802,image-keyboard-response,58
true,12,1,3,2,false,d,true,false,0.0-2.0-0.60-0.545-3.545,0,0,1,90,false,stim,false,0,351,0,0,0,10556,WMM1,1629431,false,false,1805,image-keyboard-response,59
true,12,0,3,2,false,d,false,false,0.0-2.0-0.60-0.546-3.546,0,0,1,81,false,stim,true,0,396,0,0,0,10556,WMM1,1631359,false,false,1808,image-keyboard-response,60
true,13,1,1,2,false,d,false,false,0.0-2.0-0.60-0.547-3.547,0,0,0,90,true,stim,true,1,1133,0,0,1,10556,WMM1,1634021,false,false,1811,image-keyboard-response,1
true,13,2,1,2,true,d,false,true,0.0-2.0-0.60-0.548-3.548,0,0,0,68,false,stim,false,1,706,0,0,1,10556,WMM1,1636246,false,false,1814,image-keyboard-response,2
true,13,1,1,2,false,d,false,true,0.0-2.0-0.61-0.549-3.549,0,0,0,90,false,stim,true,1,1026,0,0,2,10556,WMM1,1638794,false,true,1817,image-keyboard-response,3
true,13,2,1,0,false,q,false,false,0.0-2.0-0.61-0.550-3.550,0,0,0,68,false,stim,true,2,966,0,0,0,10556,WMM1,1641304,false,false,1820,image-keyboard-response,4
true,13,2,1,2,true,d,false,true,0.0-2.0-0.61-0.551-3.551,0,0,0,68,false,stim,false,1,844,0,0,1,10556,WMM1,1643672,false,false,1823,image-keyboard-response,5
true,13,2,1,2,true,d,false,true,0.0-2.0-0.61-0.552-3.552,0,0,0,68,false,stim,false,1,489,0,0,1,10556,WMM1,1645687,false,false,1826,image-keyboard-response,6
true,13,1,1,2,false,d,false,true,0.0-2.0-0.61-0.553-3.553,0,0,0,90,false,stim,true,1,1973,0,0,2,10556,WMM1,1649192,false,true,1829,image-keyboard-response,7
true,13,0,1,0,true,q,false,true,0.0-2.0-0.61-0.554-3.554,0,0,0,81,false,stim,false,2,1288,0,0,0,10556,WMM1,1651997,false,false,1832,image-keyboard-response,8
true,13,2,1,2,true,d,false,true,0.0-2.0-0.61-0.555-3.555,0,0,0,68,false,stim,false,1,1490,0,0,1,10556,WMM1,1655019,false,false,1835,image-keyboard-response,9
true,13,2,1,2,true,d,false,true,0.0-2.0-0.61-0.556-3.556,0,0,0,68,false,stim,false,1,854,0,0,2,10556,WMM1,1657404,false,false,1838,image-keyboard-response,10
true,13,1,1,0,false,q,true,false,0.0-2.0-0.61-0.557-3.557,0,0,0,90,false,stim,false,2,1499,0,0,0,10556,WMM1,1660442,false,false,1841,image-keyboard-response,11
true,13,2,1,2,true,d,false,true,0.0-2.0-0.62-0.558-3.558,0,0,0,68,false,stim,false,1,965,0,0,2,10556,WMM1,1662934,false,false,1844,image-keyboard-response,12
true,13,1,1,0,false,q,true,false,0.0-2.0-0.62-0.559-3.559,0,0,0,90,false,stim,false,2,2551,0,0,0,10556,WMM1,1666999,false,false,1847,image-keyboard-response,13
true,13,2,1,2,true,d,false,true,0.0-2.0-0.62-0.560-3.560,0,0,0,68,false,stim,false,1,1583,0,0,2,10556,WMM1,1670110,false,false,1850,image-keyboard-response,14
true,13,2,1,2,true,d,false,true,0.0-2.0-0.62-0.561-3.561,0,0,0,68,false,stim,false,1,742,0,0,2,10556,WMM1,1672381,false,false,1853,image-keyboard-response,15
true,13,2,1,2,true,d,false,true,0.0-2.0-0.62-0.562-3.562,0,0,0,68,false,stim,false,1,1046,0,0,1,10556,WMM1,1674954,false,false,1856,image-keyboard-response,16
true,13,2,1,0,false,q,false,false,0.0-2.0-0.62-0.563-3.563,0,0,0,68,false,stim,true,2,874,0,0,0,10556,WMM1,1677363,false,false,1859,image-keyboard-response,17
true,13,0,1,2,false,d,true,false,0.0-2.0-0.62-0.564-3.564,0,0,0,81,false,stim,false,1,927,0,0,1,10556,WMM1,1679819,false,false,1862,image-keyboard-response,18
true,13,1,1,0,false,q,true,false,0.0-2.0-0.62-0.565-3.565,0,0,0,90,false,stim,false,2,534,0,0,0,10556,WMM1,1681892,false,false,1865,image-keyboard-response,19
true,13,2,1,2,true,d,false,true,0.0-2.0-0.62-0.566-3.566,0,0,0,68,false,stim,false,1,650,0,0,1,10556,WMM1,1684060,false,false,1868,image-keyboard-response,20
true,13,0,1,0,true,q,false,true,0.0-2.0-0.63-0.567-3.567,0,0,0,81,false,stim,false,2,790,0,0,0,10556,WMM1,1686389,false,false,1871,image-keyboard-response,21
true,13,1,1,2,false,d,false,true,0.0-2.0-0.63-0.568-3.568,0,0,0,90,false,stim,true,1,1027,0,0,1,10556,WMM1,1688956,false,true,1874,image-keyboard-response,22
true,13,2,1,0,false,q,false,false,0.0-2.0-0.63-0.569-3.569,0,0,0,68,false,stim,true,2,437,0,0,0,10556,WMM1,1690946,false,false,1877,image-keyboard-response,23
true,13,1,1,2,false,d,false,false,0.0-2.0-0.63-0.570-3.570,0,0,0,90,false,stim,true,1,624,0,0,1,10556,WMM1,1693113,false,false,1880,image-keyboard-response,24
true,13,0,1,2,false,d,true,false,0.0-2.0-0.63-0.571-3.571,0,0,0,81,false,stim,false,1,492,0,0,2,10556,WMM1,1695150,false,false,1883,image-keyboard-response,25
true,13,0,1,0,true,q,false,true,0.0-2.0-0.63-0.572-3.572,0,0,0,81,false,stim,false,2,767,0,0,0,10556,WMM1,1697465,false,false,1886,image-keyboard-response,26
true,13,1,1,2,false,d,false,true,0.0-2.0-0.63-0.573-3.573,0,0,0,90,false,stim,true,1,778,0,0,2,10556,WMM1,1699786,false,true,1889,image-keyboard-response,27
true,13,2,1,2,true,d,false,true,0.0-2.0-0.63-0.574-3.574,0,0,0,68,false,stim,false,1,788,0,0,1,10556,WMM1,1702118,false,false,1892,image-keyboard-response,28
true,13,1,1,2,false,d,false,false,0.0-2.0-0.63-0.575-3.575,0,0,0,90,false,stim,true,1,972,0,0,2,10556,WMM1,1704630,false,false,1895,image-keyboard-response,29
true,13,2,1,2,true,d,false,true,0.0-2.0-0.64-0.576-3.576,0,0,0,68,false,stim,false,1,642,0,0,1,10556,WMM1,1706823,false,false,1898,image-keyboard-response,30
true,13,0,1,0,true,q,false,true,0.0-2.0-0.64-0.577-3.577,0,0,0,81,false,stim,false,2,1988,0,0,0,10556,WMM1,1710380,false,false,1901,image-keyboard-response,31
true,13,0,1,0,true,q,false,true,0.0-2.0-0.64-0.578-3.578,0,0,0,81,false,stim,false,2,397,0,0,0,10556,WMM1,1712327,false,false,1904,image-keyboard-response,32
true,13,1,1,2,false,d,false,false,0.0-2.0-0.64-0.579-3.579,0,0,0,90,false,stim,true,1,1408,0,0,2,10556,WMM1,1715297,false,false,1907,image-keyboard-response,33
true,13,2,1,2,true,d,false,true,0.0-2.0-0.64-0.580-3.580,0,0,0,68,false,stim,false,1,462,0,0,1,10556,WMM1,1717302,false,false,1910,image-keyboard-response,34
true,13,1,1,2,false,d,false,false,0.0-2.0-0.64-0.581-3.581,0,0,0,90,false,stim,true,1,920,0,0,2,10556,WMM1,1719759,false,false,1913,image-keyboard-response,35
true,13,1,1,2,false,d,false,false,0.0-2.0-0.64-0.582-3.582,0,0,0,90,false,stim,true,1,972,0,0,2,10556,WMM1,1722278,false,false,1916,image-keyboard-response,36
true,13,0,1,0,true,q,false,true,0.0-2.0-0.64-0.583-3.583,0,0,0,81,false,stim,false,2,745,0,0,0,10556,WMM1,1724554,false,false,1919,image-keyboard-response,37
true,13,2,1,2,true,d,false,true,0.0-2.0-0.64-0.584-3.584,0,0,0,68,false,stim,false,1,1496,0,0,1,10556,WMM1,1727605,false,false,1922,image-keyboard-response,38
true,13,2,1,2,true,d,false,true,0.0-2.0-0.65-0.585-3.585,0,0,0,68,false,stim,false,1,1032,0,0,2,10556,WMM1,1730181,false,false,1925,image-keyboard-response,39
true,13,0,1,0,true,q,false,false,0.0-2.0-0.65-0.586-3.586,0,0,0,81,false,stim,false,2,770,0,0,0,10556,WMM1,1732489,false,true,1928,image-keyboard-response,40
true,13,2,1,0,false,q,false,false,0.0-2.0-0.65-0.587-3.587,0,0,0,68,false,stim,true,2,731,0,0,0,10556,WMM1,1734760,false,false,1931,image-keyboard-response,41
true,13,2,1,2,true,d,false,true,0.0-2.0-0.65-0.588-3.588,0,0,0,68,false,stim,false,1,946,0,0,1,10556,WMM1,1737265,false,false,1934,image-keyboard-response,42
true,13,2,1,2,true,d,false,true,0.0-2.0-0.65-0.589-3.589,0,0,0,68,false,stim,false,1,806,0,0,1,10556,WMM1,1739598,false,false,1937,image-keyboard-response,43
true,13,2,1,2,true,d,false,true,0.0-2.0-0.65-0.590-3.590,0,0,0,68,false,stim,false,1,1936,0,0,2,10556,WMM1,1743077,false,false,1940,image-keyboard-response,44
true,13,1,1,0,false,q,true,false,0.0-2.0-0.65-0.591-3.591,0,0,0,90,false,stim,false,2,1468,0,0,0,10556,WMM1,1746097,false,false,1943,image-keyboard-response,45
true,13,2,1,2,true,d,false,true,0.0-2.0-0.65-0.592-3.592,0,0,0,68,false,stim,false,1,721,0,0,1,10556,WMM1,1748360,false,false,1946,image-keyboard-response,46
true,13,2,1,2,true,d,false,true,0.0-2.0-0.65-0.593-3.593,0,0,0,68,false,stim,false,1,731,0,0,2,10556,WMM1,1750639,false,false,1949,image-keyboard-response,47
true,13,0,1,0,true,q,false,true,0.0-2.0-0.66-0.594-3.594,0,0,0,81,false,stim,false,2,1406,0,0,0,10556,WMM1,1753586,false,false,1952,image-keyboard-response,48
true,13,0,1,2,false,d,true,false,0.0-2.0-0.66-0.595-3.595,0,0,0,81,false,stim,false,1,682,0,0,1,10556,WMM1,1755814,false,false,1955,image-keyboard-response,49
true,13,2,1,2,true,d,false,true,0.0-2.0-0.66-0.596-3.596,0,0,0,68,false,stim,false,1,501,0,0,1,10556,WMM1,1757861,false,false,1958,image-keyboard-response,50
true,13,2,1,2,true,d,false,true,0.0-2.0-0.66-0.597-3.597,0,0,0,68,false,stim,false,1,648,0,1,1,10556,WMM1,1760048,false,false,1961,image-keyboard-response,51
true,13,2,1,2,true,d,false,true,0.0-2.0-0.66-0.598-3.598,0,0,0,68,false,stim,false,1,762,0,1,2,10556,WMM1,1762340,false,false,1964,image-keyboard-response,52
true,13,2,1,2,true,d,false,true,0.0-2.0-0.66-0.599-3.599,0,0,0,68,false,stim,false,1,1292,0,1,2,10556,WMM1,1765169,false,false,1967,image-keyboard-response,53
true,13,2,1,0,false,q,false,false,0.0-2.0-0.66-0.600-3.600,0,0,0,68,false,stim,true,2,855,0,1,0,10556,WMM1,1767544,false,false,1970,image-keyboard-response,54
true,13,1,1,2,false,d,false,true,0.0-2.0-0.66-0.601-3.601,0,0,0,90,false,stim,true,1,1064,0,1,2,10556,WMM1,1770144,false,true,1973,image-keyboard-response,55
true,13,1,1,0,false,q,true,false,0.0-2.0-0.66-0.602-3.602,0,0,0,90,false,stim,false,2,806,0,1,0,10556,WMM1,1772467,false,false,1976,image-keyboard-response,56
true,13,2,1,2,true,d,false,true,0.0-2.0-0.67-0.603-3.603,0,0,0,68,false,stim,false,1,969,0,1,2,10556,WMM1,1774980,false,false,1979,image-keyboard-response,57
true,13,2,1,2,true,d,false,true,0.0-2.0-0.67-0.604-3.604,0,0,0,68,false,stim,false,1,866,0,1,1,10556,WMM1,1777375,false,false,1982,image-keyboard-response,58
false,13,-1,1,0,false,q,true,false,0.0-2.0-0.67-0.605-3.605,0,0,0,,false,stim,false,2,,0,1,0,10556,WMM1,1781908,false,false,1985,image-keyboard-response,59
true,13,1,1,2,false,d,false,false,0.0-2.0-0.67-0.606-3.606,0,0,0,90,false,stim,true,1,785,0,1,2,10556,WMM1,1784224,false,false,1988,image-keyboard-response,60
true,14,2,0,2,true,d,false,true,0.0-2.0-0.67-0.607-3.607,1,1,1,68,true,stim,false,2,2210,0,1,2,10556,WMM1,1854809,false,false,2057,image-keyboard-response,1
true,14,1,0,2,false,d,true,false,0.0-2.0-0.67-0.608-3.608,1,1,1,90,false,stim,false,2,1590,0,1,1,10556,WMM1,1857915,false,false,2060,image-keyboard-response,2
true,14,0,0,0,true,q,false,false,0.0-2.0-0.67-0.609-3.609,1,1,1,81,false,stim,false,0,1185,0,1,0,10556,WMM1,1860644,false,true,2063,image-keyboard-response,3
true,14,1,0,0,false,q,true,false,0.0-2.0-0.67-0.610-3.610,1,1,1,90,false,stim,false,0,1214,0,1,0,10556,WMM1,1863407,false,false,2066,image-keyboard-response,4
true,14,1,0,2,false,d,true,true,0.0-2.0-0.67-0.611-3.611,1,1,1,90,false,stim,false,2,1482,0,1,1,10556,WMM1,1866431,false,true,2069,image-keyboard-response,5
true,14,1,0,2,false,d,true,false,0.0-2.0-0.68-0.612-3.612,1,1,1,90,false,stim,false,2,390,0,1,1,10556,WMM1,1868349,false,false,2072,image-keyboard-response,6
true,14,1,0,2,false,d,true,false,0.0-2.0-0.68-0.613-3.613,1,1,1,90,false,stim,false,2,526,0,1,1,10556,WMM1,1870399,false,false,2075,image-keyboard-response,7
true,14,2,0,2,true,d,false,true,0.0-2.0-0.68-0.614-3.614,1,1,1,68,false,stim,false,2,696,0,1,2,10556,WMM1,1872635,false,false,2078,image-keyboard-response,8
true,14,2,0,2,true,d,false,false,0.0-2.0-0.68-0.615-3.615,1,1,1,68,false,stim,false,2,487,0,1,2,10556,WMM1,1874657,false,true,2081,image-keyboard-response,9
true,14,1,0,2,false,d,true,false,0.0-2.0-0.68-0.616-3.616,1,1,1,90,false,stim,false,2,746,0,1,2,10556,WMM1,1876946,false,false,2084,image-keyboard-response,10
true,14,2,0,0,false,q,true,false,0.0-2.0-0.68-0.617-3.617,1,1,1,68,false,stim,false,0,1198,0,1,0,10556,WMM1,1879666,false,false,2087,image-keyboard-response,11
true,14,0,0,0,true,q,false,false,0.0-2.0-0.68-0.618-3.618,1,1,1,81,false,stim,false,0,424,0,1,0,10556,WMM1,1881624,false,true,2090,image-keyboard-response,12
true,14,0,0,2,false,d,true,false,0.0-2.0-0.68-0.619-3.619,1,1,1,81,false,stim,false,2,807,0,1,1,10556,WMM1,1883972,false,false,2093,image-keyboard-response,13
true,14,1,0,0,false,q,true,false,0.0-2.0-0.68-0.620-3.620,1,1,1,90,false,stim,false,0,568,0,1,0,10556,WMM1,1886076,false,false,2096,image-keyboard-response,14
true,14,1,0,2,false,d,true,false,0.0-2.0-0.69-0.621-3.621,1,1,1,90,false,stim,false,2,1186,0,1,2,10556,WMM1,1888794,false,false,2099,image-keyboard-response,15
true,14,0,0,2,false,d,true,false,0.0-2.0-0.69-0.622-3.622,1,1,1,81,false,stim,false,2,497,0,1,2,10556,WMM1,1890856,false,false,2102,image-keyboard-response,16
true,14,2,0,2,true,d,false,true,0.0-2.0-0.69-0.623-3.623,1,1,1,68,false,stim,false,2,376,0,1,2,10556,WMM1,1892754,false,false,2105,image-keyboard-response,17
true,14,1,0,2,false,d,true,false,0.0-2.0-0.69-0.624-3.624,1,1,1,90,false,stim,false,2,607,0,1,1,10556,WMM1,1894897,false,false,2108,image-keyboard-response,18
true,14,1,0,0,false,q,true,true,0.0-2.0-0.69-0.625-3.625,1,1,1,90,false,stim,false,0,1009,0,1,0,10556,WMM1,1897449,false,true,2111,image-keyboard-response,19
true,14,0,0,2,false,d,true,false,0.0-2.0-0.69-0.626-3.626,1,1,1,81,false,stim,false,2,467,0,1,1,10556,WMM1,1899445,false,false,2114,image-keyboard-response,20
true,14,1,0,0,false,q,true,false,0.0-2.0-0.69-0.627-3.627,1,1,1,90,false,stim,false,0,801,0,1,0,10556,WMM1,1901790,false,false,2117,image-keyboard-response,21
true,14,2,0,2,true,d,false,true,0.0-2.0-0.69-0.628-3.628,1,1,1,68,false,stim,false,2,1591,0,1,1,10556,WMM1,1904929,false,false,2120,image-keyboard-response,22
true,14,2,0,0,false,q,true,false,0.0-2.0-0.69-0.629-3.629,1,1,1,68,false,stim,false,0,416,0,1,0,10556,WMM1,1906895,false,false,2123,image-keyboard-response,23
true,14,1,0,0,false,q,true,false,0.0-2.0-0.70-0.630-3.630,1,1,1,90,false,stim,false,0,417,0,1,0,10556,WMM1,1908856,false,false,2126,image-keyboard-response,24
true,14,2,0,2,true,d,false,true,0.0-2.0-0.70-0.631-3.631,1,1,1,68,false,stim,false,2,1106,0,1,2,10556,WMM1,1911503,false,false,2129,image-keyboard-response,25
true,14,2,0,2,true,d,false,true,0.0-2.0-0.70-0.632-3.632,1,1,1,68,false,stim,false,2,857,0,1,1,10556,WMM1,1913897,false,false,2132,image-keyboard-response,26
true,14,2,0,2,true,d,false,true,0.0-2.0-0.70-0.633-3.633,1,1,1,68,false,stim,false,2,567,0,1,1,10556,WMM1,1916019,false,false,2135,image-keyboard-response,27
true,14,2,0,2,true,d,false,true,0.0-2.0-0.70-0.634-3.634,1,1,1,68,false,stim,false,2,377,0,1,1,10556,WMM1,1917936,false,false,2138,image-keyboard-response,28
true,14,1,0,0,false,q,true,true,0.0-2.0-0.70-0.635-3.635,1,1,1,90,false,stim,false,0,671,0,1,0,10556,WMM1,1920150,false,true,2141,image-keyboard-response,29
true,14,2,0,2,true,d,false,true,0.0-2.0-0.70-0.636-3.636,1,1,1,68,false,stim,false,2,780,0,1,2,10556,WMM1,1922459,false,false,2144,image-keyboard-response,30
