answered,blockNum,choice,condition,corResp,correct,correct_response,explo,fb,internal_node_id,isStable_1,isStable_2,isStable_3,key_press,newBlock,part,persev,persevResp,rt,sessNum,stableAS,stimulus,subject,task,time_elapsed,training,trap,trial_index,trial_type,trialsInBlock
true,1,0,0,0,true,q,false,true,0.0-2.0-0.0-0.0-3.0,0,0,0,81,true,stim,false,-1,895,1,0,0,10556,WMM1,188953,false,false,184,image-keyboard-response,1
true,1,1,0,1,true,z,false,true,0.0-2.0-0.0-0.1-3.1,0,0,0,90,false,stim,false,-1,1253,1,0,2,10556,WMM1,191736,false,false,187,image-keyboard-response,2
true,1,1,0,1,true,z,false,true,0.0-2.0-0.0-0.2-3.2,0,0,0,90,false,stim,false,-1,705,1,0,2,10556,WMM1,193968,false,false,190,image-keyboard-response,3
true,1,0,0,0,true,q,false,true,0.0-2.0-0.0-0.3-3.3,0,0,0,81,false,stim,false,-1,1779,1,0,1,10556,WMM1,197278,false,false,193,image-keyboard-response,4
true,1,0,0,0,true,q,false,true,0.0-2.0-0.0-0.4-3.4,0,0,0,81,false,stim,false,-1,858,1,0,1,10556,WMM1,199675,false,false,196,image-keyboard-response,5
true,1,0,0,0,true,q,false,true,0.0-2.0-0.0-0.5-3.5,0,0,0,81,false,stim,false,-1,1503,1,0,0,10556,WMM1,202705,false,false,199,image-keyboard-response,6
true,1,0,0,0,true,q,false,true,0.0-2.0-0.0-0.6-3.6,0,0,0,81,false,stim,false,-1,691,1,0,0,10556,WMM1,204932,false,false,202,image-keyboard-response,7
true,1,0,0,0,true,q,false,true,0.0-2.0-0.0-0.7-3.7,0,0,0,81,false,stim,false,-1,447,1,0,1,10556,WMM1,206904,false,false,205,image-keyboard-response,8
true,1,1,0,1,true,z,false,true,0.0-2.0-0.0-0.8-3.8,0,0,0,90,false,stim,false,-1,1163,1,0,2,10556,WMM1,209587,false,false,208,image-keyboard-response,9
true,1,0,0,0,true,q,false,true,0.0-2.0-0.1-0.9-3.9,0,0,0,81,false,stim,false,-1,471,1,0,1,10556,WMM1,211585,false,false,211,image-keyboard-response,10
true,1,0,0,0,true,q,false,true,0.0-2.0-0.1-0.10-3.10,0,0,0,81,false,stim,false,-1,449,1,0,1,10556,WMM1,213563,false,false,214,image-keyboard-response,11
true,1,0,0,0,true,q,false,true,0.0-2.0-0.1-0.11-3.11,0,0,0,81,false,stim,false,-1,1098,1,0,0,10556,WMM1,216184,false,false,217,image-keyboard-response,12
true,1,0,0,0,true,q,false,true,0.0-2.0-0.1-0.12-3.12,0,0,0,81,false,stim,false,-1,757,1,0,0,10556,WMM1,218488,false,false,220,image-keyboard-response,13
true,1,0,0,0,true,q,false,false,0.0-2.0-0.1-0.13-3.13,0,0,0,81,false,stim,false,-1,1066,1,0,0,10556,WMM1,221074,false,true,223,image-keyboard-response,14
true,1,1,0,1,true,z,false,true,0.0-2.0-0.1-0.14-3.14,0,0,0,90,false,stim,false,-1,1082,1,0,2,10556,WMM1,223677,false,false,226,image-keyboard-response,15
true,1,0,0,0,true,q,false,true,0.0-2.0-0.1-0.15-3.15,0,0,0,81,false,stim,false,-1,1370,1,0,1,10556,WMM1,226583,false,false,229,image-keyboard-response,16
true,1,1,0,1,true,z,false,false,0.0-2.0-0.1-0.16-3.16,0,0,0,90,false,stim,false,-1,731,1,0,2,10556,WMM1,228845,false,true,232,image-keyboard-response,17
true,1,2,0,1,false,z,true,false,0.0-2.0-0.1-0.17-3.17,0,0,0,68,false,stim,false,-1,610,1,0,2,10556,WMM1,230985,false,false,235,image-keyboard-response,18
true,1,0,0,1,false,z,true,false,0.0-2.0-0.2-0.18-3.18,0,0,0,81,false,stim,false,-1,512,1,0,2,10556,WMM1,233015,false,false,238,image-keyboard-response,19
true,1,1,0,0,false,q,true,true,0.0-2.0-0.2-0.19-3.19,0,0,0,90,false,stim,false,-1,1738,1,0,0,10556,WMM1,236276,false,true,241,image-keyboard-response,20
true,1,0,0,1,false,z,true,false,0.0-2.0-0.2-0.20-3.20,0,0,0,81,false,stim,false,-1,1927,1,0,2,10556,WMM1,239741,false,false,244,image-keyboard-response,21
true,1,1,0,1,true,z,false,true,0.0-2.0-0.2-0.21-3.21,0,0,0,90,false,stim,false,-1,799,1,0,2,10556,WMM1,242062,false,false,247,image-keyboard-response,22
true,1,0,0,0,true,q,false,true,0.0-2.0-0.2-0.22-3.22,0,0,0,81,false,stim,false,-1,759,1,0,0,10556,WMM1,244343,false,false,250,image-keyboard-response,23
true,1,0,0,0,true,q,false,true,0.0-2.0-0.2-0.23-3.23,0,0,0,81,false,stim,false,-1,1130,1,0,1,10556,WMM1,247005,false,false,253,image-keyboard-response,24
true,1,0,0,0,true,q,false,true,0.0-2.0-0.2-0.24-3.24,0,0,0,81,false,stim,false,-1,487,1,0,1,10556,WMM1,249020,false,false,256,image-keyboard-response,25
true,1,0,0,0,true,q,false,true,0.0-2.0-0.2-0.25-3.25,0,0,0,81,false,stim,false,-1,2810,1,0,1,10556,WMM1,253365,false,false,259,image-keyboard-response,26
true,1,1,0,0,false,q,true,false,0.0-2.0-0.2-0.26-3.26,0,0,0,90,false,stim,false,-1,2753,1,0,0,10556,WMM1,257636,false,false,262,image-keyboard-response,27
true,1,1,0,1,true,z,false,true,0.0-2.0-0.3-0.27-3.27,0,0,0,90,false,stim,false,-1,1614,1,0,2,10556,WMM1,260777,false,false,265,image-keyboard-response,28
true,1,0,0,0,true,q,false,true,0.0-2.0-0.3-0.28-3.28,0,0,0,81,false,stim,false,-1,1248,1,0,1,10556,WMM1,263553,false,false,268,image-keyboard-response,29
true,1,1,0,1,true,z,false,true,0.0-2.0-0.3-0.29-3.29,0,0,0,90,false,stim,false,-1,964,1,0,2,10556,WMM1,266044,false,false,271,image-keyboard-response,30
true,1,0,0,0,true,q,false,true,0.0-2.0-0.3-0.30-3.30,0,0,0,81,false,stim,false,-1,1067,1,0,0,10556,WMM1,268647,false,false,274,image-keyboard-response,31
true,1,0,0,0,true,q,false,true,0.0-2.0-0.3-0.31-3.31,0,0,0,81,false,stim,false,-1,754,1,0,0,10556,WMM1,270915,false,false,277,image-keyboard-response,32
true,1,0,0,0,true,q,false,true,0.0-2.0-0.3-0.32-3.32,0,0,0,81,false,stim,false,-1,859,1,0,1,10556,WMM1,273290,false,false,280,image-keyboard-response,33
true,1,0,0,0,true,q,false,false,0.0-2.0-0.3-0.33-3.33,0,0,0,81,false,stim,false,-1,1079,1,0,0,10556,WMM1,275904,false,true,283,image-keyboard-response,34
true,1,0,0,0,true,q,false,true,0.0-2.0-0.3-0.34-3.34,0,0,0,81,false,stim,false,-1,1071,1,0,1,10556,WMM1,278504,false,false,286,image-keyboard-response,35
true,1,1,0,1,true,z,false,true,0.0-2.0-0.3-0.35-3.35,0,0,0,90,false,stim,false,-1,671,1,1,2,10556,WMM1,280705,false,false,289,image-keyboard-response,36
true,1,0,0,1,false,z,true,false,0.0-2.0-0.4-0.36-3.36,0,0,0,81,false,stim,false,-1,686,1,1,2,10556,WMM1,282913,false,false,292,image-keyboard-response,37
true,1,1,0,1,true,z,false,true,0.0-2.0-0.4-0.37-3.37,0,0,0,90,false,stim,false,-1,717,1,1,2,10556,WMM1,285150,false,false,295,image-keyboard-response,38
true,1,0,0,0,true,q,false,false,0.0-2.0-0.4-0.38-3.38,0,0,0,81,false,stim,false,-1,653,1,0,0,10556,WMM1,287330,false,true,298,image-keyboard-response,39
true,1,2,0,0,false,q,true,true,0.0-2.0-0.4-0.39-3.39,0,0,0,68,false,stim,false,-1,1282,1,0,0,10556,WMM1,290160,false,true,301,image-keyboard-response,40
true,1,0,0,0,true,q,false,true,0.0-2.0-0.4-0.40-3.40,0,0,0,81,false,stim,false,-1,646,1,0,1,10556,WMM1,292330,false,false,304,image-keyboard-response,41
true,1,0,0,0,true,q,false,true,0.0-2.0-0.4-0.41-3.41,0,0,0,81,false,stim,false,-1,585,1,0,1,10556,WMM1,294438,false,false,307,image-keyboard-response,42
true,2,0,3,2,false,d,false,false,0.0-2.0-0.4-0.42-3.42,0,0,1,81,true,stim,true,0,1202,1,0,1,10556,WMM1,297167,false,false,310,image-keyboard-response,1
true,2,1,3,1,true,z,false,true,0.0-2.0-0.4-0.43-3.43,0,0,1,90,false,stim,false,1,912,1,1,2,10556,WMM1,299606,false,false,313,image-keyboard-response,2
true,2,2,3,1,false,z,true,false,0.0-2.0-0.4-0.44-3.44,0,0,1,68,false,stim,false,0,1380,1,0,0,10556,WMM1,302518,false,false,316,image-keyboard-response,3
true,2,0,3,1,false,z,false,false,0.0-2.0-0.5-0.45-3.45,0,0,1,81,false,stim,true,0,667,1,0,0,10556,WMM1,304710,false,false,319,image-keyboard-response,4
true,2,1,3,1,true,z,false,false,0.0-2.0-0.5-0.46-3.46,0,0,1,90,false,stim,false,1,855,1,1,2,10556,WMM1,307088,false,true,322,image-keyboard-response,5
true,2,0,3,1,false,z,false,false,0.0-2.0-0.5-0.47-3.47,0,0,1,81,false,stim,true,0,2343,1,0,0,10556,WMM1,310957,false,false,325,image-keyboard-response,6
true,2,0,3,1,false,z,true,false,0.0-2.0-0.5-0.48-3.48,0,0,1,81,false,stim,false,1,585,1,1,2,10556,WMM1,313071,false,false,328,image-keyboard-response,7
true,2,0,3,2,false,d,false,false,0.0-2.0-0.5-0.49-3.49,0,0,1,81,false,stim,true,0,947,1,0,1,10556,WMM1,315553,false,false,331,image-keyboard-response,8
true,2,1,3,1,true,z,false,true,0.0-2.0-0.5-0.50-3.50,0,0,1,90,false,stim,false,1,815,1,1,2,10556,WMM1,317900,false,false,334,image-keyboard-response,9
true,2,2,3,1,false,z,true,false,0.0-2.0-0.5-0.51-3.51,0,0,1,68,false,stim,false,0,1322,1,0,0,10556,WMM1,320747,false,false,337,image-keyboard-response,10
true,2,0,3,2,false,d,false,false,0.0-2.0-0.5-0.52-3.52,0,0,1,81,false,stim,true,0,880,1,0,1,10556,WMM1,323147,false,false,340,image-keyboard-response,11
true,2,1,3,2,false,d,true,false,0.0-2.0-0.5-0.53-3.53,0,0,1,90,false,stim,false,0,718,1,0,1,10556,WMM1,325386,false,false,343,image-keyboard-response,12
true,2,1,3,1,true,z,false,false,0.0-2.0-0.6-0.54-3.54,0,0,1,90,false,stim,false,1,718,1,1,2,10556,WMM1,327633,false,true,346,image-keyboard-response,13
true,2,0,3,2,false,d,false,false,0.0-2.0-0.6-0.55-3.55,0,0,1,81,false,stim,true,0,828,1,0,1,10556,WMM1,329992,false,false,349,image-keyboard-response,14
true,2,0,3,1,false,z,false,false,0.0-2.0-0.6-0.56-3.56,0,0,1,81,false,stim,true,0,1446,1,0,0,10556,WMM1,332970,false,false,352,image-keyboard-response,15
true,2,1,3,1,true,z,false,true,0.0-2.0-0.6-0.57-3.57,0,0,1,90,false,stim,false,1,1284,1,1,2,10556,WMM1,335775,false,false,355,image-keyboard-response,16
true,2,0,3,2,false,d,false,false,0.0-2.0-0.6-0.58-3.58,0,0,1,81,false,stim,true,0,1332,1,0,1,10556,WMM1,338639,false,false,358,image-keyboard-response,17
true,2,1,3,1,true,z,false,false,0.0-2.0-0.6-0.59-3.59,0,0,1,90,false,stim,false,1,661,1,1,2,10556,WMM1,340815,false,true,361,image-keyboard-response,18
true,2,0,3,2,false,d,false,false,0.0-2.0-0.6-0.60-3.60,0,0,1,81,false,stim,true,0,757,1,0,1,10556,WMM1,343106,false,false,364,image-keyboard-response,19
true,2,1,3,1,true,z,false,true,0.0-2.0-0.6-0.61-3.61,0,0,1,90,false,stim,false,0,1318,1,0,0,10556,WMM1,345953,false,false,367,image-keyboard-response,20
true,2,1,3,1,true,z,false,true,0.0-2.0-0.6-0.62-3.62,0,0,1,90,false,stim,false,0,680,1,0,0,10556,WMM1,348164,false,false,370,image-keyboard-response,21
true,2,1,3,1,true,z,false,true,0.0-2.0-0.7-0.63-3.63,0,0,1,90,false,stim,false,1,806,1,1,2,10556,WMM1,350495,false,false,373,image-keyboard-response,22
false,2,-1,3,1,false,z,true,false,0.0-2.0-0.7-0.64-3.64,0,0,1,,false,stim,false,0,,1,0,0,10556,WMM1,355031,false,false,376,image-keyboard-response,23
true,2,1,3,1,true,z,false,true,0.0-2.0-0.7-0.65-3.65,0,0,1,90,false,stim,false,1,1892,1,1,2,10556,WMM1,358465,false,false,379,image-keyboard-response,24
true,2,1,3,1,true,z,false,true,0.0-2.0-0.7-0.66-3.66,0,0,1,90,false,stim,false,0,1291,1,0,0,10556,WMM1,361275,false,false,382,image-keyboard-response,25
true,2,1,3,2,false,d,true,false,0.0-2.0-0.7-0.67-3.67,0,0,1,90,false,stim,false,0,512,1,0,1,10556,WMM1,363310,false,false,385,image-keyboard-response,26
true,2,1,3,1,true,z,false,true,0.0-2.0-0.7-0.68-3.68,0,0,1,90,false,stim,false,1,1140,1,1,2,10556,WMM1,365994,false,false,388,image-keyboard-response,27
true,2,0,3,2,false,d,false,false,0.0-2.0-0.7-0.69-3.69,0,0,1,81,false,stim,true,0,1098,1,0,1,10556,WMM1,368612,false,false,391,image-keyboard-response,28
true,2,0,3,2,false,d,false,false,0.0-2.0-0.7-0.70-3.70,0,0,1,81,false,stim,true,0,1440,1,0,1,10556,WMM1,371582,false,false,394,image-keyboard-response,29
true,2,0,3,1,false,z,false,false,0.0-2.0-0.7-0.71-3.71,0,0,1,81,false,stim,true,0,851,1,0,0,10556,WMM1,373954,false,false,397,image-keyboard-response,30
true,2,1,3,1,true,z,false,false,0.0-2.0-0.8-0.72-3.72,0,0,1,90,false,stim,false,1,821,1,1,2,10556,WMM1,376305,false,true,400,image-keyboard-response,31
true,2,0,3,2,false,d,false,false,0.0-2.0-0.8-0.73-3.73,0,0,1,81,false,stim,true,0,757,1,0,1,10556,WMM1,378605,false,false,403,image-keyboard-response,32
true,2,2,3,1,false,z,true,false,0.0-2.0-0.8-0.74-3.74,0,0,1,68,false,stim,false,1,649,1,1,2,10556,WMM1,380795,false,false,406,image-keyboard-response,33
true,2,1,3,1,true,z,false,true,0.0-2.0-0.8-0.75-3.75,0,0,1,90,false,stim,false,1,491,1,1,2,10556,WMM1,382826,false,false,409,image-keyboard-response,34
true,2,0,3,1,false,z,false,false,0.0-2.0-0.8-0.76-3.76,0,0,1,81,false,stim,true,0,1974,1,0,0,10556,WMM1,386322,false,false,412,image-keyboard-response,35
true,2,1,3,2,false,d,true,true,0.0-2.0-0.8-0.77-3.77,0,0,1,90,false,stim,false,0,776,1,0,1,10556,WMM1,388640,false,true,415,image-keyboard-response,36
true,2,1,3,2,false,d,true,false,0.0-2.0-0.8-0.78-3.78,0,0,1,90,false,stim,false,0,449,1,0,1,10556,WMM1,390612,false,false,418,image-keyboard-response,37
true,2,1,3,1,true,z,false,true,0.0-2.0-0.8-0.79-3.79,0,0,1,90,false,stim,false,0,1269,1,0,0,10556,WMM1,393413,false,false,421,image-keyboard-response,38
true,2,0,3,1,false,z,false,false,0.0-2.0-0.8-0.80-3.80,0,0,1,81,false,stim,true,0,2456,1,0,0,10556,WMM1,397393,false,false,424,image-keyboard-response,39
true,2,0,3,2,false,d,false,false,0.0-2.0-0.9-0.81-3.81,0,0,1,81,false,stim,true,0,1231,1,0,1,10556,WMM1,400159,false,false,427,image-keyboard-response,40
true,2,2,3,1,false,z,true,false,0.0-2.0-0.9-0.82-3.82,0,0,1,68,false,stim,false,0,438,1,0,0,10556,WMM1,402132,false,false,430,image-keyboard-response,41
true,2,1,3,1,true,z,false,true,0.0-2.0-0.9-0.83-3.83,0,0,1,90,false,stim,false,0,365,1,0,0,10556,WMM1,404029,false,false,433,image-keyboard-response,42
true,2,0,3,1,false,z,true,false,0.0-2.0-0.9-0.84-3.84,0,0,1,81,false,stim,false,1,1147,1,1,2,10556,WMM1,406706,false,false,436,image-keyboard-response,43
true,2,0,3,1,false,z,false,false,0.0-2.0-0.9-0.85-3.85,0,0,1,81,false,stim,true,0,865,1,0,0,10556,WMM1,409093,false,false,439,image-keyboard-response,44
true,2,1,3,2,false,d,true,false,0.0-2.0-0.9-0.86-3.86,0,0,1,90,false,stim,false,0,648,1,0,1,10556,WMM1,411271,false,false,442,image-keyboard-response,45
true,2,0,3,1,false,z,true,true,0.0-2.0-0.9-0.87-3.87,0,0,1,81,false,stim,false,1,1479,1,1,2,10556,WMM1,414275,false,true,445,image-keyboard-response,46
true,2,0,3,2,false,d,false,false,0.0-2.0-0.9-0.88-3.88,0,0,1,81,false,stim,true,0,1398,1,0,1,10556,WMM1,417200,false,false,448,image-keyboard-response,47
true,2,0,3,1,false,z,true,false,0.0-2.0-0.9-0.89-3.89,0,0,1,81,false,stim,false,1,1787,1,1,2,10556,WMM1,420520,false,false,451,image-keyboard-response,48
true,2,1,3,1,true,z,false,true,0.0-2.0-0.10-0.90-3.90,0,0,1,90,false,stim,false,1,1138,1,1,2,10556,WMM1,423200,false,false,454,image-keyboard-response,49
true,2,1,3,2,false,d,true,false,0.0-2.0-0.10-0.91-3.91,0,0,1,90,false,stim,false,0,520,1,0,1,10556,WMM1,425249,false,false,457,image-keyboard-response,50
false,2,-1,3,1,false,z,true,false,0.0-2.0-0.10-0.92-3.92,0,0,1,,false,stim,false,0,,1,1,0,10556,WMM1,429780,false,false,460,image-keyboard-response,51
true,2,0,3,1,false,z,false,false,0.0-2.0-0.10-0.93-3.93,0,0,1,81,false,stim,true,0,896,1,1,0,10556,WMM1,432205,false,false,463,image-keyboard-response,52
true,2,0,3,1,false,z,true,false,0.0-2.0-0.10-0.94-3.94,0,0,1,81,false,stim,false,1,995,1,0,2,10556,WMM1,434717,false,false,466,image-keyboard-response,53
true,2,1,3,1,true,z,false,false,0.0-2.0-0.10-0.95-3.95,0,0,1,90,false,stim,false,1,1152,1,0,2,10556,WMM1,437386,false,true,469,image-keyboard-response,54
true,2,0,3,2,false,d,false,false,0.0-2.0-0.10-0.96-3.96,0,0,1,81,false,stim,true,0,1220,1,0,1,10556,WMM1,440125,false,false,472,image-keyboard-response,55
true,2,0,3,1,false,z,false,false,0.0-2.0-0.10-0.97-3.97,0,0,1,81,false,stim,true,0,1789,1,1,0,10556,WMM1,443453,false,false,475,image-keyboard-response,56
true,2,1,3,2,false,d,true,true,0.0-2.0-0.10-0.98-3.98,0,0,1,90,false,stim,false,0,582,1,0,1,10556,WMM1,445550,false,true,478,image-keyboard-response,57
true,2,0,3,1,false,z,false,true,0.0-2.0-0.11-0.99-3.99,0,0,1,81,false,stim,true,0,625,1,1,0,10556,WMM1,447706,false,true,481,image-keyboard-response,58
true,2,0,3,1,false,z,true,false,0.0-2.0-0.11-0.100-3.100,0,0,1,81,false,stim,false,1,659,1,0,2,10556,WMM1,449893,false,false,484,image-keyboard-response,59
true,2,1,3,2,false,d,true,false,0.0-2.0-0.11-0.101-3.101,0,0,1,90,false,stim,false,0,749,1,0,1,10556,WMM1,452165,false,false,487,image-keyboard-response,60
true,3,0,3,1,false,z,true,false,0.0-2.0-0.11-0.102-3.102,1,0,0,81,true,stim,false,1,526,1,1,0,10556,WMM1,454234,false,false,490,image-keyboard-response,1
true,3,0,3,1,false,z,true,false,0.0-2.0-0.11-0.103-3.103,1,0,0,81,false,stim,false,1,610,1,1,0,10556,WMM1,456364,false,false,493,image-keyboard-response,2
true,3,0,3,0,true,q,false,true,0.0-2.0-0.11-0.104-3.104,1,0,0,81,false,stim,false,2,991,1,0,1,10556,WMM1,458887,false,false,496,image-keyboard-response,3
true,3,0,3,0,true,q,false,true,0.0-2.0-0.11-0.105-3.105,1,0,0,81,false,stim,false,2,544,1,0,1,10556,WMM1,460957,false,false,499,image-keyboard-response,4
true,3,1,3,2,false,d,false,false,0.0-2.0-0.11-0.106-3.106,1,0,0,90,false,stim,true,1,890,1,0,2,10556,WMM1,463394,false,false,502,image-keyboard-response,5
true,3,0,3,2,false,d,true,true,0.0-2.0-0.11-0.107-3.107,1,0,0,81,false,stim,false,1,1183,1,0,2,10556,WMM1,466098,false,true,505,image-keyboard-response,6
true,3,0,3,2,false,d,true,false,0.0-2.0-0.12-0.108-3.108,1,0,0,81,false,stim,false,1,591,1,0,2,10556,WMM1,468217,false,false,508,image-keyboard-response,7
true,3,1,3,2,false,d,false,true,0.0-2.0-0.12-0.109-3.109,1,0,0,90,false,stim,true,1,956,1,0,2,10556,WMM1,470699,false,true,511,image-keyboard-response,8
true,3,2,3,1,false,z,true,false,0.0-2.0-0.12-0.110-3.110,1,0,0,68,false,stim,false,1,1435,1,1,0,10556,WMM1,473645,false,false,514,image-keyboard-response,9
true,3,0,3,0,true,q,false,true,0.0-2.0-0.12-0.111-3.111,1,0,0,81,false,stim,false,2,758,1,0,1,10556,WMM1,475927,false,false,517,image-keyboard-response,10
true,3,0,3,0,true,q,false,true,0.0-2.0-0.12-0.112-3.112,1,0,0,81,false,stim,false,2,530,1,0,1,10556,WMM1,478005,false,false,520,image-keyboard-response,11
true,3,1,3,1,true,z,false,true,0.0-2.0-0.12-0.113-3.113,1,0,0,90,false,stim,false,1,997,1,1,0,10556,WMM1,480535,false,false,523,image-keyboard-response,12
true,3,0,3,0,true,q,false,true,0.0-2.0-0.12-0.114-3.114,1,0,0,81,false,stim,false,2,522,1,0,1,10556,WMM1,482595,false,false,526,image-keyboard-response,13
true,3,1,3,2,false,d,false,false,0.0-2.0-0.12-0.115-3.115,1,0,0,90,false,stim,true,1,632,1,0,2,10556,WMM1,484745,false,false,529,image-keyboard-response,14
true,3,1,3,1,true,z,false,true,0.0-2.0-0.12-0.116-3.116,1,0,0,90,false,stim,false,1,1106,1,1,0,10556,WMM1,487368,false,false,532,image-keyboard-response,15
true,3,0,3,0,true,q,false,true,0.0-2.0-0.13-0.117-3.117,1,0,0,81,false,stim,false,2,837,1,0,1,10556,WMM1,489721,false,false,535,image-keyboard-response,16
true,3,1,3,1,true,z,false,true,0.0-2.0-0.13-0.118-3.118,1,0,0,90,false,stim,false,1,857,1,1,0,10556,WMM1,492111,false,false,538,image-keyboard-response,17
true,3,1,3,1,true,z,false,true,0.0-2.0-0.13-0.119-3.119,1,0,0,90,false,stim,false,1,1352,1,1,0,10556,WMM1,494994,false,false,541,image-keyboard-response,18
true,3,0,3,2,false,d,true,false,0.0-2.0-0.13-0.120-3.120,1,0,0,81,false,stim,false,1,1596,1,0,2,10556,WMM1,498110,false,false,544,image-keyboard-response,19
true,3,1,3,2,false,d,false,false,0.0-2.0-0.13-0.121-3.121,1,0,0,90,false,stim,true,1,757,1,0,2,10556,WMM1,500392,false,false,547,image-keyboard-response,20
true,3,0,3,1,false,z,true,false,0.0-2.0-0.13-0.122-3.122,1,0,0,81,false,stim,false,1,984,1,1,0,10556,WMM1,502914,false,false,550,image-keyboard-response,21
true,3,0,3,0,true,q,false,true,0.0-2.0-0.13-0.123-3.123,1,0,0,81,false,stim,false,2,846,1,0,1,10556,WMM1,505288,false,false,553,image-keyboard-response,22
true,3,0,3,0,true,q,false,true,0.0-2.0-0.13-0.124-3.124,1,0,0,81,false,stim,false,2,541,1,0,1,10556,WMM1,507363,false,false,556,image-keyboard-response,23
true,3,1,3,2,false,d,false,false,0.0-2.0-0.13-0.125-3.125,1,0,0,90,false,stim,true,1,822,1,0,2,10556,WMM1,509713,false,false,559,image-keyboard-response,24
true,3,0,3,0,true,q,false,true,0.0-2.0-0.14-0.126-3.126,1,0,0,81,false,stim,false,2,826,1,0,1,10556,WMM1,512071,false,false,562,image-keyboard-response,25
true,3,1,3,1,true,z,false,true,0.0-2.0-0.14-0.127-3.127,1,0,0,90,false,stim,false,1,963,1,1,0,10556,WMM1,514555,false,false,565,image-keyboard-response,26
true,3,0,3,0,true,q,false,true,0.0-2.0-0.14-0.128-3.128,1,0,0,81,false,stim,false,2,705,1,0,1,10556,WMM1,516788,false,false,568,image-keyboard-response,27
true,3,1,3,2,false,d,false,false,0.0-2.0-0.14-0.129-3.129,1,0,0,90,false,stim,true,1,777,1,0,2,10556,WMM1,519089,false,false,571,image-keyboard-response,28
true,3,0,3,1,false,z,true,false,0.0-2.0-0.14-0.130-3.130,1,0,0,81,false,stim,false,1,717,1,1,0,10556,WMM1,521335,false,false,574,image-keyboard-response,29
true,3,1,3,1,true,z,false,true,0.0-2.0-0.14-0.131-3.131,1,0,0,90,false,stim,false,1,873,1,1,0,10556,WMM1,523728,false,false,577,image-keyboard-response,30
true,3,1,3,2,false,d,false,false,0.0-2.0-0.14-0.132-3.132,1,0,0,90,false,stim,true,1,1319,1,0,2,10556,WMM1,526593,false,false,580,image-keyboard-response,31
true,3,0,3,0,true,q,false,true,0.0-2.0-0.14-0.133-3.133,1,0,0,81,false,stim,false,2,1239,1,0,1,10556,WMM1,529364,false,false,583,image-keyboard-response,32
true,3,2,3,2,true,d,false,true,0.0-2.0-0.14-0.134-3.134,1,0,0,68,false,stim,false,1,737,1,0,2,10556,WMM1,531620,false,false,586,image-keyboard-response,33
true,3,0,3,0,true,q,false,true,0.0-2.0-0.15-0.135-3.135,1,0,0,81,false,stim,false,2,532,1,0,1,10556,WMM1,533676,false,false,589,image-keyboard-response,34
true,3,1,3,2,false,d,false,false,0.0-2.0-0.15-0.136-3.136,1,0,0,90,false,stim,true,1,808,1,0,2,10556,WMM1,536012,false,false,592,image-keyboard-response,35
true,3,0,3,0,true,q,false,true,0.0-2.0-0.15-0.137-3.137,1,0,0,81,false,stim,false,2,679,1,0,1,10556,WMM1,538208,false,false,595,image-keyboard-response,36
true,3,1,3,1,true,z,false,true,0.0-2.0-0.15-0.138-3.138,1,0,0,90,false,stim,false,1,641,1,1,0,10556,WMM1,540379,false,false,598,image-keyboard-response,37
true,3,1,3,1,true,z,false,false,0.0-2.0-0.15-0.139-3.139,1,0,0,90,false,stim,false,1,535,1,1,0,10556,WMM1,542455,false,true,601,image-keyboard-response,38
true,3,2,3,2,true,d,false,true,0.0-2.0-0.15-0.140-3.140,1,0,0,68,false,stim,false,1,958,1,0,2,10556,WMM1,544954,false,false,604,image-keyboard-response,39
true,3,0,3,1,false,z,true,false,0.0-2.0-0.15-0.141-3.141,1,0,0,81,false,stim,false,1,1731,1,1,0,10556,WMM1,548225,false,false,607,image-keyboard-response,40
true,3,0,3,0,true,q,false,true,0.0-2.0-0.15-0.142-3.142,1,0,0,81,false,stim,false,2,532,1,0,1,10556,WMM1,550295,false,false,610,image-keyboard-response,41
true,3,1,3,2,false,d,false,false,0.0-2.0-0.15-0.143-3.143,1,0,0,90,false,stim,true,1,645,1,0,2,10556,WMM1,552465,false,false,613,image-keyboard-response,42
true,3,0,3,0,true,q,false,true,0.0-2.0-0.16-0.144-3.144,1,0,0,81,false,stim,false,2,596,1,0,1,10556,WMM1,554589,false,false,616,image-keyboard-response,43
true,3,2,3,2,true,d,false,true,0.0-2.0-0.16-0.145-3.145,1,0,0,68,false,stim,false,1,609,1,0,2,10556,WMM1,556731,false,false,619,image-keyboard-response,44
true,3,2,3,2,true,d,false,true,0.0-2.0-0.16-0.146-3.146,1,0,0,68,false,stim,false,1,794,1,0,2,10556,WMM1,559058,false,false,622,image-keyboard-response,45
true,3,2,3,2,true,d,false,true,0.0-2.0-0.16-0.147-3.147,1,0,0,68,false,stim,false,1,502,1,0,2,10556,WMM1,561088,false,false,625,image-keyboard-response,46
true,3,2,3,0,false,q,false,true,0.0-2.0-0.16-0.148-3.148,1,0,0,68,false,stim,true,2,610,1,0,1,10556,WMM1,563242,false,true,628,image-keyboard-response,47
true,3,1,3,1,true,z,false,true,0.0-2.0-0.16-0.149-3.149,1,0,0,90,false,stim,false,1,820,1,1,0,10556,WMM1,565594,false,false,631,image-keyboard-response,48
true,3,1,3,1,true,z,false,true,0.0-2.0-0.16-0.150-3.150,1,0,0,90,false,stim,false,1,689,1,1,0,10556,WMM1,567803,false,false,634,image-keyboard-response,49
true,3,1,3,1,true,z,false,true,0.0-2.0-0.16-0.151-3.151,1,0,0,90,false,stim,false,1,528,1,1,0,10556,WMM1,569870,false,false,637,image-keyboard-response,50
true,3,0,3,0,true,q,false,true,0.0-2.0-0.16-0.152-3.152,1,0,0,81,false,stim,false,2,827,1,0,1,10556,WMM1,572219,false,false,640,image-keyboard-response,51
true,3,1,3,1,true,z,false,true,0.0-2.0-0.17-0.153-3.153,1,0,0,90,false,stim,false,1,521,1,0,0,10556,WMM1,574265,false,false,643,image-keyboard-response,52
true,3,1,3,0,false,q,true,false,0.0-2.0-0.17-0.154-3.154,1,0,0,90,false,stim,false,2,873,1,0,1,10556,WMM1,576660,false,false,646,image-keyboard-response,53
true,3,0,3,0,true,q,false,true,0.0-2.0-0.17-0.155-3.155,1,0,0,81,false,stim,false,2,1100,1,0,1,10556,WMM1,579284,false,false,649,image-keyboard-response,54
true,3,1,3,1,true,z,false,true,0.0-2.0-0.17-0.156-3.156,1,0,0,90,false,stim,false,1,828,1,0,0,10556,WMM1,581652,false,false,652,image-keyboard-response,55
true,3,2,3,2,true,d,false,true,0.0-2.0-0.17-0.157-3.157,1,0,0,68,false,stim,false,1,1703,1,0,2,10556,WMM1,584886,false,false,655,image-keyboard-response,56
true,3,2,3,2,true,d,false,true,0.0-2.0-0.17-0.158-3.158,1,0,0,68,false,stim,false,1,579,1,0,2,10556,WMM1,586990,false,false,658,image-keyboard-response,57
true,3,2,3,0,false,q,false,false,0.0-2.0-0.17-0.159-3.159,1,0,0,68,false,stim,true,2,871,1,0,1,10556,WMM1,589379,false,false,661,image-keyboard-response,58
true,3,2,3,2,true,d,false,true,0.0-2.0-0.17-0.160-3.160,1,0,0,68,false,stim,false,1,872,1,0,2,10556,WMM1,591774,false,false,664,image-keyboard-response,59
true,3,1,3,1,true,z,false,true,0.0-2.0-0.17-0.161-3.161,1,0,0,90,false,stim,false,1,628,1,0,0,10556,WMM1,593917,false,false,667,image-keyboard-response,60
true,4,0,1,2,false,d,false,false,0.0-2.0-0.18-0.162-3.162,0,0,0,81,true,stim,true,0,415,1,0,1,10556,WMM1,595863,false,false,670,image-keyboard-response,1
true,4,1,1,0,false,q,false,false,0.0-2.0-0.18-0.163-3.163,0,0,0,90,false,stim,true,1,582,1,0,0,10556,WMM1,597986,false,false,673,image-keyboard-response,2
true,4,2,1,1,false,z,false,false,0.0-2.0-0.18-0.164-3.164,0,0,0,68,false,stim,true,2,680,1,0,2,10556,WMM1,600188,false,false,676,image-keyboard-response,3
true,4,1,1,0,false,q,false,false,0.0-2.0-0.18-0.165-3.165,0,0,0,90,false,stim,true,1,845,1,0,0,10556,WMM1,602553,false,false,679,image-keyboard-response,4
true,4,0,1,0,true,q,false,true,0.0-2.0-0.18-0.166-3.166,0,0,0,81,false,stim,false,1,492,1,0,0,10556,WMM1,604565,false,false,682,image-keyboard-response,5
true,4,1,1,1,true,z,false,false,0.0-2.0-0.18-0.167-3.167,0,0,0,90,false,stim,false,2,1233,1,0,2,10556,WMM1,607318,false,true,685,image-keyboard-response,6
true,4,1,1,2,false,d,true,false,0.0-2.0-0.18-0.168-3.168,0,0,0,90,false,stim,false,0,1016,1,0,1,10556,WMM1,609864,false,false,688,image-keyboard-response,7
true,4,0,1,1,false,z,true,false,0.0-2.0-0.18-0.169-3.169,0,0,0,81,false,stim,false,2,1020,1,0,2,10556,WMM1,612402,false,false,691,image-keyboard-response,8
true,4,0,1,2,false,d,false,true,0.0-2.0-0.18-0.170-3.170,0,0,0,81,false,stim,true,0,1225,1,0,1,10556,WMM1,615173,false,true,694,image-keyboard-response,9
true,4,1,1,0,false,q,false,false,0.0-2.0-0.19-0.171-3.171,0,0,0,90,false,stim,true,1,655,1,0,0,10556,WMM1,617355,false,false,697,image-keyboard-response,10
true,4,2,1,0,false,q,true,false,0.0-2.0-0.19-0.172-3.172,0,0,0,68,false,stim,false,1,729,1,0,0,10556,WMM1,619607,false,false,700,image-keyboard-response,11
true,4,0,1,0,true,q,false,true,0.0-2.0-0.19-0.173-3.173,0,0,0,81,false,stim,false,1,420,1,0,0,10556,WMM1,621582,false,false,703,image-keyboard-response,12
true,4,1,1,1,true,z,false,true,0.0-2.0-0.19-0.174-3.174,0,0,0,90,false,stim,false,2,1451,1,0,2,10556,WMM1,624548,false,false,706,image-keyboard-response,13
true,4,0,1,2,false,d,false,false,0.0-2.0-0.19-0.175-3.175,0,0,0,81,false,stim,true,0,1430,1,0,1,10556,WMM1,627514,false,false,709,image-keyboard-response,14
true,4,2,1,2,true,d,false,true,0.0-2.0-0.19-0.176-3.176,0,0,0,68,false,stim,false,0,778,1,0,1,10556,WMM1,629823,false,false,712,image-keyboard-response,15
true,4,1,1,1,true,z,false,true,0.0-2.0-0.19-0.177-3.177,0,0,0,90,false,stim,false,2,1261,1,0,2,10556,WMM1,632606,false,false,715,image-keyboard-response,16
true,4,2,1,2,true,d,false,false,0.0-2.0-0.19-0.178-3.178,0,0,0,68,false,stim,false,0,582,1,0,1,10556,WMM1,634726,false,true,718,image-keyboard-response,17
true,4,1,1,1,true,z,false,true,0.0-2.0-0.19-0.179-3.179,0,0,0,90,false,stim,false,2,730,1,0,2,10556,WMM1,636984,false,false,721,image-keyboard-response,18
true,4,2,1,2,true,d,false,true,0.0-2.0-0.20-0.180-3.180,0,0,0,68,false,stim,false,0,474,1,0,1,10556,WMM1,638975,false,false,724,image-keyboard-response,19
true,4,1,1,1,true,z,false,true,0.0-2.0-0.20-0.181-3.181,0,0,0,90,false,stim,false,2,853,1,0,2,10556,WMM1,641355,false,false,727,image-keyboard-response,20
true,4,1,1,1,true,z,false,true,0.0-2.0-0.20-0.182-3.182,0,0,0,90,false,stim,false,2,774,1,0,2,10556,WMM1,643657,false,false,730,image-keyboard-response,21
true,4,0,1,0,true,q,false,true,0.0-2.0-0.20-0.183-3.183,0,0,0,81,false,stim,false,1,777,1,0,0,10556,WMM1,645983,false,false,733,image-keyboard-response,22
true,4,0,1,0,true,q,false,true,0.0-2.0-0.20-0.184-3.184,0,0,0,81,false,stim,false,1,526,1,0,0,10556,WMM1,648025,false,false,736,image-keyboard-response,23
true,4,0,1,0,true,q,false,true,0.0-2.0-0.20-0.185-3.185,0,0,0,81,false,stim,false,1,454,1,0,0,10556,WMM1,649996,false,false,739,image-keyboard-response,24
true,4,2,1,2,true,d,false,true,0.0-2.0-0.20-0.186-3.186,0,0,0,68,false,stim,false,0,1280,1,0,1,10556,WMM1,652802,false,false,742,image-keyboard-response,25
true,4,2,1,2,true,d,false,true,0.0-2.0-0.20-0.187-3.187,0,0,0,68,false,stim,false,0,536,1,0,1,10556,WMM1,654859,false,false,745,image-keyboard-response,26
true,4,1,1,1,true,z,false,true,0.0-2.0-0.20-0.188-3.188,0,0,0,90,false,stim,false,2,650,1,0,2,10556,WMM1,657055,false,false,748,image-keyboard-response,27
true,4,1,1,1,true,z,false,true,0.0-2.0-0.21-0.189-3.189,0,0,0,90,false,stim,false,2,646,1,0,2,10556,WMM1,659240,false,false,751,image-keyboard-response,28
true,4,0,1,0,true,q,false,true,0.0-2.0-0.21-0.190-3.190,0,0,0,81,false,stim,false,1,743,1,0,0,10556,WMM1,661527,false,false,754,image-keyboard-response,29
true,4,1,1,1,true,z,false,true,0.0-2.0-0.21-0.191-3.191,0,0,0,90,false,stim,false,2,691,1,0,2,10556,WMM1,663748,false,false,757,image-keyboard-response,30
true,4,0,1,0,true,q,false,true,0.0-2.0-0.21-0.192-3.192,0,0,0,81,false,stim,false,1,721,1,0,0,10556,WMM1,665985,false,false,760,image-keyboard-response,31
true,4,1,1,2,false,d,true,false,0.0-2.0-0.21-0.193-3.193,0,0,0,90,false,stim,false,0,1493,1,0,1,10556,WMM1,669003,false,false,763,image-keyboard-response,32
true,5,2,4,0,false,q,true,false,0.0-2.0-0.21-0.194-3.194,0,0,0,68,true,stim,false,1,1234,1,0,2,10556,WMM1,671769,false,false,766,image-keyboard-response,1
true,5,0,4,2,false,d,false,false,0.0-2.0-0.21-0.195-3.195,0,0,0,81,false,stim,true,0,631,1,0,0,10556,WMM1,673935,false,false,769,image-keyboard-response,2
true,5,1,4,1,true,z,false,true,0.0-2.0-0.21-0.196-3.196,0,0,0,90,false,stim,false,2,904,1,0,1,10556,WMM1,676372,false,false,772,image-keyboard-response,3
true,5,2,4,1,false,z,false,false,0.0-2.0-0.21-0.197-3.197,0,0,0,68,false,stim,true,2,507,1,0,1,10556,WMM1,678394,false,false,775,image-keyboard-response,4
true,5,0,4,2,false,d,false,false,0.0-2.0-0.22-0.198-3.198,0,0,0,81,false,stim,true,0,1160,1,0,0,10556,WMM1,681081,false,false,778,image-keyboard-response,5
true,5,2,4,2,true,d,false,true,0.0-2.0-0.22-0.199-3.199,0,0,0,68,false,stim,false,0,478,1,0,0,10556,WMM1,683082,false,false,781,image-keyboard-response,6
true,5,1,4,1,true,z,false,true,0.0-2.0-0.22-0.200-3.200,0,0,0,90,false,stim,false,2,1030,1,0,1,10556,WMM1,685646,false,false,784,image-keyboard-response,7
true,5,1,4,1,true,z,false,true,0.0-2.0-0.22-0.201-3.201,0,0,0,90,false,stim,false,2,645,1,0,1,10556,WMM1,687824,false,false,787,image-keyboard-response,8
true,5,0,4,0,true,q,false,true,0.0-2.0-0.22-0.202-3.202,0,0,0,81,false,stim,false,1,1655,1,0,2,10556,WMM1,691007,false,false,790,image-keyboard-response,9
true,5,1,4,1,true,z,false,true,0.0-2.0-0.22-0.203-3.203,0,0,0,90,false,stim,false,2,815,1,0,1,10556,WMM1,693357,false,false,793,image-keyboard-response,10
true,5,0,4,0,true,q,false,true,0.0-2.0-0.22-0.204-3.204,0,0,0,81,false,stim,false,1,794,1,0,2,10556,WMM1,695671,false,false,796,image-keyboard-response,11
true,5,2,4,2,true,d,false,true,0.0-2.0-0.22-0.205-3.205,0,0,0,68,false,stim,false,0,454,1,0,0,10556,WMM1,697648,false,false,799,image-keyboard-response,12
true,5,1,4,0,false,q,false,false,0.0-2.0-0.22-0.206-3.206,0,0,0,90,false,stim,true,1,666,1,0,2,10556,WMM1,699853,false,false,802,image-keyboard-response,13
true,5,2,4,2,true,d,false,true,0.0-2.0-0.23-0.207-3.207,0,0,0,68,false,stim,false,0,795,1,0,0,10556,WMM1,702171,false,false,805,image-keyboard-response,14
true,5,1,4,1,true,z,false,true,0.0-2.0-0.23-0.208-3.208,0,0,0,90,false,stim,false,2,689,1,0,1,10556,WMM1,704383,false,false,808,image-keyboard-response,15
true,5,1,4,1,true,z,false,true,0.0-2.0-0.23-0.209-3.209,0,0,0,90,false,stim,false,2,660,1,0,1,10556,WMM1,706575,false,false,811,image-keyboard-response,16
true,5,2,4,2,true,d,false,true,0.0-2.0-0.23-0.210-3.210,0,0,0,68,false,stim,false,0,1039,1,0,0,10556,WMM1,709149,false,false,814,image-keyboard-response,17
true,5,1,4,0,false,q,false,false,0.0-2.0-0.23-0.211-3.211,0,0,0,90,false,stim,true,1,649,1,0,2,10556,WMM1,711329,false,false,817,image-keyboard-response,18
true,5,2,4,2,true,d,false,true,0.0-2.0-0.23-0.212-3.212,0,0,0,68,false,stim,false,0,833,1,0,0,10556,WMM1,713698,false,false,820,image-keyboard-response,19
true,5,1,4,1,true,z,false,true,0.0-2.0-0.23-0.213-3.213,0,0,0,90,false,stim,false,2,980,1,0,1,10556,WMM1,716198,false,false,823,image-keyboard-response,20
true,5,1,4,0,false,q,false,false,0.0-2.0-0.23-0.214-3.214,0,0,0,90,false,stim,true,1,852,1,0,2,10556,WMM1,718575,false,false,826,image-keyboard-response,21
true,5,0,4,0,true,q,false,true,0.0-2.0-0.23-0.215-3.215,0,0,0,81,false,stim,false,1,1688,1,0,2,10556,WMM1,721798,false,false,829,image-keyboard-response,22
true,5,2,4,2,true,d,false,true,0.0-2.0-0.24-0.216-3.216,0,0,0,68,false,stim,false,0,975,1,0,0,10556,WMM1,724299,false,false,832,image-keyboard-response,23
true,5,0,4,0,true,q,false,true,0.0-2.0-0.24-0.217-3.217,0,0,0,81,false,stim,false,1,1543,1,0,2,10556,WMM1,727378,false,false,835,image-keyboard-response,24
true,5,1,4,1,true,z,false,true,0.0-2.0-0.24-0.218-3.218,0,0,0,90,false,stim,false,2,729,1,0,1,10556,WMM1,729643,false,false,838,image-keyboard-response,25
true,5,1,4,1,true,z,false,false,0.0-2.0-0.24-0.219-3.219,0,0,0,90,false,stim,false,2,667,1,0,1,10556,WMM1,731825,false,true,841,image-keyboard-response,26
true,5,0,4,0,true,q,false,true,0.0-2.0-0.24-0.220-3.220,0,0,0,81,false,stim,false,1,1057,1,0,2,10556,WMM1,734418,false,false,844,image-keyboard-response,27
true,5,0,4,0,true,q,false,true,0.0-2.0-0.24-0.221-3.221,0,0,0,81,false,stim,false,1,545,1,0,2,10556,WMM1,736490,false,false,847,image-keyboard-response,28
true,5,2,4,2,true,d,false,true,0.0-2.0-0.24-0.222-3.222,0,0,0,68,false,stim,false,0,869,1,0,0,10556,WMM1,738881,false,false,850,image-keyboard-response,29
true,5,2,4,2,true,d,false,true,0.0-2.0-0.24-0.223-3.223,0,0,0,68,false,stim,false,0,517,1,0,0,10556,WMM1,740922,false,false,853,image-keyboard-response,30
true,5,1,4,1,true,z,false,true,0.0-2.0-0.24-0.224-3.224,0,0,0,90,false,stim,false,2,1412,1,0,1,10556,WMM1,743866,false,false,856,image-keyboard-response,31
true,5,0,4,0,true,q,false,true,0.0-2.0-0.25-0.225-3.225,0,0,0,81,false,stim,false,1,1227,1,0,2,10556,WMM1,746618,false,false,859,image-keyboard-response,32
true,5,0,4,0,true,q,false,true,0.0-2.0-0.25-0.226-3.226,0,0,0,81,false,stim,false,1,464,1,0,2,10556,WMM1,748598,false,false,862,image-keyboard-response,33
true,5,2,4,2,true,d,false,true,0.0-2.0-0.25-0.227-3.227,0,0,0,68,false,stim,false,0,1209,1,0,0,10556,WMM1,751326,false,false,865,image-keyboard-response,34
true,6,2,2,0,false,q,false,false,0.0-2.0-0.25-0.228-3.228,0,0,0,68,true,stim,true,2,689,1,0,0,10556,WMM1,753533,false,false,868,image-keyboard-response,1
true,6,1,2,2,false,d,false,false,0.0-2.0-0.25-0.229-3.229,0,0,0,90,false,stim,true,1,991,1,0,1,10556,WMM1,756055,false,false,871,image-keyboard-response,2
true,6,0,2,2,false,d,true,false,0.0-2.0-0.25-0.230-3.230,0,0,0,81,false,stim,false,1,505,1,0,1,10556,WMM1,758087,false,false,874,image-keyboard-response,3
true,6,0,2,2,false,d,true,false,0.0-2.0-0.25-0.231-3.231,0,0,0,81,false,stim,false,1,477,1,0,1,10556,WMM1,760080,false,false,877,image-keyboard-response,4
true,6,0,2,0,true,q,false,true,0.0-2.0-0.25-0.232-3.232,0,0,0,81,false,stim,false,2,1592,1,0,0,10556,WMM1,763194,false,false,880,image-keyboard-response,5
true,6,1,2,1,true,z,false,true,0.0-2.0-0.25-0.233-3.233,0,0,0,90,false,stim,false,0,1021,1,0,2,10556,WMM1,765747,false,false,883,image-keyboard-response,6
true,6,0,2,0,true,q,false,true,0.0-2.0-0.26-0.234-3.234,0,0,0,81,false,stim,false,2,1260,1,0,0,10556,WMM1,768534,false,false,886,image-keyboard-response,7
true,6,2,2,2,true,d,false,true,0.0-2.0-0.26-0.235-3.235,0,0,0,68,false,stim,false,1,1138,1,0,1,10556,WMM1,771185,false,false,889,image-keyboard-response,8
true,6,0,2,0,true,q,false,true,0.0-2.0-0.26-0.236-3.236,0,0,0,81,false,stim,false,2,481,1,0,0,10556,WMM1,773195,false,false,892,image-keyboard-response,9
true,6,1,2,1,true,z,false,true,0.0-2.0-0.26-0.237-3.237,0,0,0,90,false,stim,false,0,860,1,0,2,10556,WMM1,775583,false,false,895,image-keyboard-response,10
true,6,2,2,2,true,d,false,true,0.0-2.0-0.26-0.238-3.238,0,0,0,68,false,stim,false,1,468,1,0,1,10556,WMM1,777582,false,false,898,image-keyboard-response,11
true,6,0,2,0,true,q,false,true,0.0-2.0-0.26-0.239-3.239,0,0,0,81,false,stim,false,2,605,1,0,0,10556,WMM1,779751,false,false,901,image-keyboard-response,12
true,6,2,2,1,false,z,true,false,0.0-2.0-0.26-0.240-3.240,0,0,0,68,false,stim,false,0,811,1,0,2,10556,WMM1,782096,false,false,904,image-keyboard-response,13
true,6,1,2,2,false,d,false,false,0.0-2.0-0.26-0.241-3.241,0,0,0,90,false,stim,true,1,2359,1,0,1,10556,WMM1,785993,false,false,907,image-keyboard-response,14
true,6,0,2,1,false,z,false,false,0.0-2.0-0.26-0.242-3.242,0,0,0,81,false,stim,true,0,2068,1,0,2,10556,WMM1,789595,false,false,910,image-keyboard-response,15
true,6,2,2,2,true,d,false,true,0.0-2.0-0.27-0.243-3.243,0,0,0,68,false,stim,false,1,689,1,0,1,10556,WMM1,791851,false,false,913,image-keyboard-response,16
true,6,0,2,0,true,q,false,true,0.0-2.0-0.27-0.244-3.244,0,0,0,81,false,stim,false,2,1300,1,0,0,10556,WMM1,794678,false,false,916,image-keyboard-response,17
true,6,0,2,1,false,z,false,false,0.0-2.0-0.27-0.245-3.245,0,0,0,81,false,stim,true,0,1027,1,0,2,10556,WMM1,797234,false,false,919,image-keyboard-response,18
true,6,0,2,0,true,q,false,true,0.0-2.0-0.27-0.246-3.246,0,0,0,81,false,stim,false,2,1187,1,0,0,10556,WMM1,799952,false,false,922,image-keyboard-response,19
true,6,1,2,1,true,z,false,false,0.0-2.0-0.27-0.247-3.247,0,0,0,90,false,stim,false,0,913,1,0,2,10556,WMM1,802391,false,true,925,image-keyboard-response,20
true,6,2,2,1,false,z,true,false,0.0-2.0-0.27-0.248-3.248,0,0,0,68,false,stim,false,0,543,1,0,2,10556,WMM1,804478,false,false,928,image-keyboard-response,21
true,6,0,2,2,false,d,true,false,0.0-2.0-0.27-0.249-3.249,0,0,0,81,false,stim,false,1,893,1,0,1,10556,WMM1,806898,false,false,931,image-keyboard-response,22
true,6,1,2,2,false,d,false,false,0.0-2.0-0.27-0.250-3.250,0,0,0,90,false,stim,true,1,1046,1,0,1,10556,WMM1,809466,false,false,934,image-keyboard-response,23
true,6,2,2,0,false,q,false,false,0.0-2.0-0.27-0.251-3.251,0,0,0,68,false,stim,true,2,495,1,0,0,10556,WMM1,811502,false,false,937,image-keyboard-response,24
true,6,1,2,2,false,d,false,false,0.0-2.0-0.28-0.252-3.252,0,0,0,90,false,stim,true,1,707,1,0,1,10556,WMM1,813743,false,false,940,image-keyboard-response,25
true,6,2,2,1,false,z,true,false,0.0-2.0-0.28-0.253-3.253,0,0,0,68,false,stim,false,0,450,1,0,2,10556,WMM1,815728,false,false,943,image-keyboard-response,26
true,6,0,2,0,true,q,false,true,0.0-2.0-0.28-0.254-3.254,0,0,0,81,false,stim,false,2,1324,1,0,0,10556,WMM1,818586,false,false,946,image-keyboard-response,27
true,6,1,2,1,true,z,false,true,0.0-2.0-0.28-0.255-3.255,0,0,0,90,false,stim,false,0,1094,1,0,2,10556,WMM1,821196,false,false,949,image-keyboard-response,28
true,6,2,2,2,true,d,false,true,0.0-2.0-0.28-0.256-3.256,0,0,0,68,false,stim,false,1,1729,1,0,1,10556,WMM1,824455,false,false,952,image-keyboard-response,29
true,6,0,2,0,true,q,false,true,0.0-2.0-0.28-0.257-3.257,0,0,0,81,false,stim,false,2,1237,1,0,0,10556,WMM1,827232,false,false,955,image-keyboard-response,30
true,6,1,2,2,false,d,false,false,0.0-2.0-0.28-0.258-3.258,0,0,0,90,false,stim,true,1,1110,1,0,1,10556,WMM1,829873,false,false,958,image-keyboard-response,31
true,6,2,2,1,false,z,true,false,0.0-2.0-0.28-0.259-3.259,0,0,0,68,false,stim,false,0,987,1,0,2,10556,WMM1,832400,false,false,961,image-keyboard-response,32
true,6,0,2,0,true,q,false,true,0.0-2.0-0.28-0.260-3.260,0,0,0,81,false,stim,false,2,771,1,0,0,10556,WMM1,834714,false,false,964,image-keyboard-response,33
true,6,1,2,2,false,d,false,false,0.0-2.0-0.29-0.261-3.261,0,0,0,90,false,stim,true,1,2733,1,0,1,10556,WMM1,838987,false,false,967,image-keyboard-response,34
true,6,1,2,1,true,z,false,true,0.0-2.0-0.29-0.262-3.262,0,0,0,90,false,stim,false,0,1290,1,0,2,10556,WMM1,841814,false,false,970,image-keyboard-response,35
true,6,0,2,0,true,q,false,true,0.0-2.0-0.29-0.263-3.263,0,0,0,81,false,stim,false,2,617,1,0,0,10556,WMM1,843966,false,false,973,image-keyboard-response,36
true,6,2,2,1,false,z,true,false,0.0-2.0-0.29-0.264-3.264,0,0,0,68,false,stim,false,0,786,1,0,2,10556,WMM1,846285,false,false,976,image-keyboard-response,37
true,6,2,2,2,true,d,false,true,0.0-2.0-0.29-0.265-3.265,0,0,0,68,false,stim,false,1,1025,1,0,1,10556,WMM1,848860,false,false,979,image-keyboard-response,38
true,6,2,2,2,true,d,false,false,0.0-2.0-0.29-0.266-3.266,0,0,0,68,false,stim,false,1,530,1,0,1,10556,WMM1,850925,false,true,982,image-keyboard-response,39
true,6,0,2,0,true,q,false,true,0.0-2.0-0.29-0.267-3.267,0,0,0,81,false,stim,false,2,639,1,0,0,10556,WMM1,853103,false,false,985,image-keyboard-response,40
true,6,0,2,0,true,q,false,true,0.0-2.0-0.29-0.268-3.268,0,0,0,81,false,stim,false,2,2154,1,0,0,10556,WMM1,856784,false,false,988,image-keyboard-response,41
true,6,1,2,1,true,z,false,true,0.0-2.0-0.29-0.269-3.269,0,0,0,90,false,stim,false,0,1586,1,0,2,10556,WMM1,859898,false,false,991,image-keyboard-response,42
true,6,1,2,1,true,z,false,true,0.0-2.0-0.30-0.270-3.270,0,0,0,90,false,stim,false,0,499,1,0,2,10556,WMM1,861941,false,false,994,image-keyboard-response,43
true,6,2,2,2,true,d,false,true,0.0-2.0-0.30-0.271-3.271,0,0,0,68,false,stim,false,1,501,1,0,1,10556,WMM1,863968,false,false,997,image-keyboard-response,44
true,6,0,2,0,true,q,false,true,0.0-2.0-0.30-0.272-3.272,0,0,0,81,false,stim,false,2,1624,1,0,0,10556,WMM1,867116,false,false,1000,image-keyboard-response,45
true,6,1,2,2,false,d,false,false,0.0-2.0-0.30-0.273-3.273,0,0,0,90,false,stim,true,1,1287,1,0,1,10556,WMM1,869955,false,false,1003,image-keyboard-response,46
false,6,-1,2,0,false,q,true,false,0.0-2.0-0.30-0.274-3.274,0,0,0,,false,stim,false,2,,1,0,0,10556,WMM1,874492,false,false,1006,image-keyboard-response,47
true,6,2,2,1,false,z,true,false,0.0-2.0-0.30-0.275-3.275,0,0,0,68,false,stim,false,0,915,1,1,2,10556,WMM1,876924,false,false,1009,image-keyboard-response,48
true,6,1,2,2,false,d,false,false,0.0-2.0-0.30-0.276-3.276,0,0,0,90,false,stim,true,1,964,1,0,1,10556,WMM1,879422,false,false,1012,image-keyboard-response,49
true,6,1,2,1,true,z,false,true,0.0-2.0-0.30-0.277-3.277,0,0,0,90,false,stim,false,0,648,1,1,2,10556,WMM1,881603,false,false,1015,image-keyboard-response,50
true,6,0,2,0,true,q,false,true,0.0-2.0-0.30-0.278-3.278,0,0,0,81,false,stim,false,2,1110,1,0,0,10556,WMM1,884235,false,false,1018,image-keyboard-response,51
true,6,1,2,2,false,d,false,false,0.0-2.0-0.31-0.279-3.279,0,0,0,90,false,stim,true,1,1410,1,0,1,10556,WMM1,887175,false,false,1021,image-keyboard-response,52
true,6,2,2,2,true,d,false,true,0.0-2.0-0.31-0.280-3.280,0,0,0,68,false,stim,false,1,667,1,0,1,10556,WMM1,889364,false,false,1024,image-keyboard-response,53
true,7,1,3,1,true,z,false,true,0.0-2.0-0.31-0.281-3.281,0,0,1,90,true,stim,false,1,1269,1,1,2,10556,WMM1,892154,false,false,1027,image-keyboard-response,1
true,7,1,3,1,true,z,false,true,0.0-2.0-0.31-0.282-3.282,0,0,1,90,false,stim,false,0,622,1,0,0,10556,WMM1,894305,false,false,1030,image-keyboard-response,2
true,7,1,3,1,true,z,false,true,0.0-2.0-0.31-0.283-3.283,0,0,1,90,false,stim,false,1,661,1,1,2,10556,WMM1,896487,false,false,1033,image-keyboard-response,3
true,7,0,3,1,false,z,false,false,0.0-2.0-0.31-0.284-3.284,0,0,1,81,false,stim,true,0,668,1,0,0,10556,WMM1,898691,false,false,1036,image-keyboard-response,4
true,7,1,3,1,true,z,false,true,0.0-2.0-0.31-0.285-3.285,0,0,1,90,false,stim,false,1,771,1,1,2,10556,WMM1,901006,false,false,1039,image-keyboard-response,5
true,7,2,3,0,false,q,false,false,0.0-2.0-0.31-0.286-3.286,0,0,1,68,false,stim,true,2,632,1,0,1,10556,WMM1,903166,false,false,1042,image-keyboard-response,6
true,7,0,3,1,false,z,false,false,0.0-2.0-0.31-0.287-3.287,0,0,1,81,false,stim,true,0,799,1,0,0,10556,WMM1,905506,false,false,1045,image-keyboard-response,7
true,7,0,3,0,true,q,false,true,0.0-2.0-0.32-0.288-3.288,0,0,1,81,false,stim,false,2,1268,1,0,1,10556,WMM1,908303,false,false,1048,image-keyboard-response,8
true,7,1,3,1,true,z,false,true,0.0-2.0-0.32-0.289-3.289,0,0,1,90,false,stim,false,1,1565,1,1,2,10556,WMM1,911389,false,false,1051,image-keyboard-response,9
true,7,1,3,1,true,z,false,true,0.0-2.0-0.32-0.290-3.290,0,0,1,90,false,stim,false,1,777,1,1,2,10556,WMM1,913702,false,false,1054,image-keyboard-response,10
true,7,2,3,1,false,z,true,false,0.0-2.0-0.32-0.291-3.291,0,0,1,68,false,stim,false,0,668,1,0,0,10556,WMM1,915902,false,false,1057,image-keyboard-response,11
true,7,0,3,0,true,q,false,true,0.0-2.0-0.32-0.292-3.292,0,0,1,81,false,stim,false,2,970,1,0,1,10556,WMM1,918408,false,false,1060,image-keyboard-response,12
true,7,0,3,1,false,z,false,false,0.0-2.0-0.32-0.293-3.293,0,0,1,81,false,stim,true,0,687,1,0,0,10556,WMM1,920627,false,false,1063,image-keyboard-response,13
true,7,0,3,0,true,q,false,true,0.0-2.0-0.32-0.294-3.294,0,0,1,81,false,stim,false,2,753,1,0,1,10556,WMM1,922907,false,false,1066,image-keyboard-response,14
true,7,0,3,1,false,z,false,false,0.0-2.0-0.32-0.295-3.295,0,0,1,81,false,stim,true,0,1240,1,0,0,10556,WMM1,925685,false,false,1069,image-keyboard-response,15
true,7,1,3,1,true,z,false,true,0.0-2.0-0.32-0.296-3.296,0,0,1,90,false,stim,false,1,1028,1,1,2,10556,WMM1,928234,false,false,1072,image-keyboard-response,16
true,7,0,3,1,false,z,false,false,0.0-2.0-0.33-0.297-3.297,0,0,1,81,false,stim,true,0,759,1,0,0,10556,WMM1,930518,false,false,1075,image-keyboard-response,17
true,7,1,3,1,true,z,false,true,0.0-2.0-0.33-0.298-3.298,0,0,1,90,false,stim,false,1,1121,1,1,2,10556,WMM1,933166,false,false,1078,image-keyboard-response,18
true,7,2,3,1,false,z,true,false,0.0-2.0-0.33-0.299-3.299,0,0,1,68,false,stim,false,0,559,1,0,0,10556,WMM1,935247,false,false,1081,image-keyboard-response,19
true,7,0,3,0,true,q,false,true,0.0-2.0-0.33-0.300-3.300,0,0,1,81,false,stim,false,2,862,1,0,1,10556,WMM1,937649,false,false,1084,image-keyboard-response,20
true,7,1,3,1,true,z,false,true,0.0-2.0-0.33-0.301-3.301,0,0,1,90,false,stim,false,1,814,1,1,2,10556,WMM1,940010,false,false,1087,image-keyboard-response,21
true,7,0,3,0,true,q,false,true,0.0-2.0-0.33-0.302-3.302,0,0,1,81,false,stim,false,2,883,1,0,1,10556,WMM1,942423,false,false,1090,image-keyboard-response,22
true,7,1,3,1,true,z,false,true,0.0-2.0-0.33-0.303-3.303,0,0,1,90,false,stim,false,0,486,1,0,0,10556,WMM1,944446,false,false,1093,image-keyboard-response,23
true,7,0,3,0,true,q,false,true,0.0-2.0-0.33-0.304-3.304,0,0,1,81,false,stim,false,2,666,1,0,1,10556,WMM1,946653,false,false,1096,image-keyboard-response,24
true,7,1,3,1,true,z,false,true,0.0-2.0-0.33-0.305-3.305,0,0,1,90,false,stim,false,1,948,1,1,2,10556,WMM1,949132,false,false,1099,image-keyboard-response,25
true,7,1,3,1,true,z,false,true,0.0-2.0-0.34-0.306-3.306,0,0,1,90,false,stim,false,1,656,1,1,2,10556,WMM1,951356,false,false,1102,image-keyboard-response,26
true,7,0,3,0,true,q,false,true,0.0-2.0-0.34-0.307-3.307,0,0,1,81,false,stim,false,2,904,1,0,1,10556,WMM1,953802,false,false,1105,image-keyboard-response,27
true,7,1,3,1,true,z,false,true,0.0-2.0-0.34-0.308-3.308,0,0,1,90,false,stim,false,1,1106,1,1,2,10556,WMM1,956434,false,false,1108,image-keyboard-response,28
true,7,1,3,1,true,z,false,true,0.0-2.0-0.34-0.309-3.309,0,0,1,90,false,stim,false,0,489,1,0,0,10556,WMM1,958465,false,false,1111,image-keyboard-response,29
true,7,0,3,0,true,q,false,true,0.0-2.0-0.34-0.310-3.310,0,0,1,81,false,stim,false,2,796,1,0,1,10556,WMM1,960802,false,false,1114,image-keyboard-response,30
true,7,0,3,0,true,q,false,true,0.0-2.0-0.34-0.311-3.311,0,0,1,81,false,stim,false,2,581,1,0,1,10556,WMM1,962918,false,false,1117,image-keyboard-response,31
true,7,1,3,1,true,z,false,true,0.0-2.0-0.34-0.312-3.312,0,0,1,90,false,stim,false,0,921,1,0,0,10556,WMM1,965375,false,false,1120,image-keyboard-response,32
true,7,1,3,1,true,z,false,true,0.0-2.0-0.34-0.313-3.313,0,0,1,90,false,stim,false,0,588,1,0,0,10556,WMM1,967494,false,false,1123,image-keyboard-response,33
true,7,1,3,1,true,z,false,true,0.0-2.0-0.34-0.314-3.314,0,0,1,90,false,stim,false,1,1044,1,0,2,10556,WMM1,970058,false,false,1126,image-keyboard-response,34
true,7,1,3,1,true,z,false,true,0.0-2.0-0.35-0.315-3.315,0,0,1,90,false,stim,false,1,600,1,0,2,10556,WMM1,972185,false,false,1129,image-keyboard-response,35
true,7,0,3,0,true,q,false,true,0.0-2.0-0.35-0.316-3.316,0,0,1,81,false,stim,false,2,692,1,0,1,10556,WMM1,974405,false,false,1132,image-keyboard-response,36
true,7,0,3,0,true,q,false,true,0.0-2.0-0.35-0.317-3.317,0,0,1,81,false,stim,false,2,794,1,0,1,10556,WMM1,976708,false,false,1135,image-keyboard-response,37
true,7,1,3,1,true,z,false,true,0.0-2.0-0.35-0.318-3.318,0,0,1,90,false,stim,false,1,912,1,0,2,10556,WMM1,979156,false,false,1138,image-keyboard-response,38
true,7,1,3,1,true,z,false,true,0.0-2.0-0.35-0.319-3.319,0,0,1,90,false,stim,false,1,748,1,0,2,10556,WMM1,981437,false,false,1141,image-keyboard-response,39
true,8,0,1,2,false,d,true,false,0.0-2.0-0.35-0.320-3.320,0,0,0,81,true,stim,false,1,1333,1,0,0,10556,WMM1,984294,false,false,1144,image-keyboard-response,1
true,8,0,1,1,false,z,false,false,0.0-2.0-0.35-0.321-3.321,0,0,0,81,false,stim,true,0,798,1,0,1,10556,WMM1,986633,false,false,1147,image-keyboard-response,2
true,8,1,1,2,false,d,false,false,0.0-2.0-0.35-0.322-3.322,0,0,0,90,false,stim,true,1,829,1,0,0,10556,WMM1,988994,false,false,1150,image-keyboard-response,3
true,8,2,1,2,true,d,false,true,0.0-2.0-0.35-0.323-3.323,0,0,0,68,false,stim,false,1,677,1,0,0,10556,WMM1,991202,false,false,1153,image-keyboard-response,4
true,8,2,1,2,true,d,false,true,0.0-2.0-0.36-0.324-3.324,0,0,0,68,false,stim,false,1,712,1,0,0,10556,WMM1,993448,false,false,1156,image-keyboard-response,5
true,8,1,1,1,true,z,false,true,0.0-2.0-0.36-0.325-3.325,0,0,0,90,false,stim,false,0,968,1,0,1,10556,WMM1,995956,false,false,1159,image-keyboard-response,6
true,8,2,1,2,true,d,false,true,0.0-2.0-0.36-0.326-3.326,0,0,0,68,false,stim,false,1,845,1,0,0,10556,WMM1,998331,false,false,1162,image-keyboard-response,7
true,8,0,1,2,false,d,true,false,0.0-2.0-0.36-0.327-3.327,0,0,0,81,false,stim,false,1,667,1,0,2,10556,WMM1,1000522,false,false,1165,image-keyboard-response,8
true,8,2,1,1,false,z,true,false,0.0-2.0-0.36-0.328-3.328,0,0,0,68,false,stim,false,0,1427,1,0,1,10556,WMM1,1003479,false,false,1168,image-keyboard-response,9
true,8,2,1,2,true,d,false,true,0.0-2.0-0.36-0.329-3.329,0,0,0,68,false,stim,false,1,1097,1,0,0,10556,WMM1,1006090,false,false,1171,image-keyboard-response,10
true,8,1,1,2,false,d,false,false,0.0-2.0-0.36-0.330-3.330,0,0,0,90,false,stim,true,1,635,1,0,2,10556,WMM1,1008255,false,false,1174,image-keyboard-response,11
true,8,1,1,1,true,z,false,true,0.0-2.0-0.36-0.331-3.331,0,0,0,90,false,stim,false,0,1161,1,0,1,10556,WMM1,1010945,false,false,1177,image-keyboard-response,12
true,8,1,1,2,false,d,false,false,0.0-2.0-0.36-0.332-3.332,0,0,0,90,false,stim,true,1,1490,1,0,2,10556,WMM1,1014002,false,false,1180,image-keyboard-response,13
true,8,0,1,2,false,d,true,false,0.0-2.0-0.37-0.333-3.333,0,0,0,81,false,stim,false,1,533,1,0,2,10556,WMM1,1016069,false,false,1183,image-keyboard-response,14
true,8,1,1,1,true,z,false,true,0.0-2.0-0.37-0.334-3.334,0,0,0,90,false,stim,false,0,1175,1,0,1,10556,WMM1,1018817,false,false,1186,image-keyboard-response,15
true,8,2,1,2,true,d,false,true,0.0-2.0-0.37-0.335-3.335,0,0,0,68,false,stim,false,1,530,1,0,0,10556,WMM1,1020887,false,false,1189,image-keyboard-response,16
true,8,1,1,2,false,d,false,false,0.0-2.0-0.37-0.336-3.336,0,0,0,90,false,stim,true,1,928,1,0,2,10556,WMM1,1023343,false,false,1192,image-keyboard-response,17
false,8,-1,1,1,false,z,true,false,0.0-2.0-0.37-0.337-3.337,0,0,0,,false,stim,false,0,,1,0,1,10556,WMM1,1027869,false,false,1195,image-keyboard-response,18
true,8,0,1,2,false,d,true,false,0.0-2.0-0.37-0.338-3.338,0,0,0,81,false,stim,false,1,2584,1,0,2,10556,WMM1,1032023,false,false,1198,image-keyboard-response,19
true,8,0,1,2,false,d,true,false,0.0-2.0-0.37-0.339-3.339,0,0,0,81,false,stim,false,1,776,1,0,0,10556,WMM1,1034359,false,false,1201,image-keyboard-response,20
true,8,0,1,1,false,z,false,false,0.0-2.0-0.37-0.340-3.340,0,0,0,81,false,stim,true,0,2621,1,0,1,10556,WMM1,1038516,false,false,1204,image-keyboard-response,21
true,8,0,1,2,false,d,true,false,0.0-2.0-0.37-0.341-3.341,0,0,0,81,false,stim,false,1,764,1,0,0,10556,WMM1,1040820,false,false,1207,image-keyboard-response,22
true,8,1,1,2,false,d,false,false,0.0-2.0-0.38-0.342-3.342,0,0,0,90,false,stim,true,1,588,1,0,2,10556,WMM1,1042936,false,false,1210,image-keyboard-response,23
true,8,0,1,2,false,d,true,false,0.0-2.0-0.38-0.343-3.343,0,0,0,81,false,stim,false,1,1346,1,0,0,10556,WMM1,1045812,false,false,1213,image-keyboard-response,24
true,8,0,1,1,false,z,false,false,0.0-2.0-0.38-0.344-3.344,0,0,0,81,false,stim,true,0,1116,1,0,1,10556,WMM1,1048449,false,false,1216,image-keyboard-response,25
true,8,1,1,2,false,d,false,false,0.0-2.0-0.38-0.345-3.345,0,0,0,90,false,stim,true,1,685,1,0,2,10556,WMM1,1050664,false,false,1219,image-keyboard-response,26
true,8,2,1,2,true,d,false,true,0.0-2.0-0.38-0.346-3.346,0,0,0,68,false,stim,false,1,641,1,0,2,10556,WMM1,1052830,false,false,1222,image-keyboard-response,27
true,8,1,1,2,false,d,false,false,0.0-2.0-0.38-0.347-3.347,0,0,0,90,false,stim,true,1,980,1,0,0,10556,WMM1,1055336,false,false,1225,image-keyboard-response,28
true,8,0,1,1,false,z,false,false,0.0-2.0-0.38-0.348-3.348,0,0,0,81,false,stim,true,0,671,1,0,1,10556,WMM1,1057540,false,false,1228,image-keyboard-response,29
true,8,0,1,1,false,z,false,false,0.0-2.0-0.38-0.349-3.349,0,0,0,81,false,stim,true,0,2663,1,0,1,10556,WMM1,1061735,false,false,1231,image-keyboard-response,30
false,8,-1,1,2,false,d,true,true,0.0-2.0-0.38-0.350-3.350,0,0,0,,false,stim,false,1,,1,0,0,10556,WMM1,1066271,false,true,1234,image-keyboard-response,31
true,8,0,1,1,false,z,false,true,0.0-2.0-0.39-0.351-3.351,0,0,0,81,false,stim,true,0,628,1,0,1,10556,WMM1,1068443,false,true,1237,image-keyboard-response,32
true,8,1,1,2,false,d,false,false,0.0-2.0-0.39-0.352-3.352,0,0,0,90,false,stim,true,1,1496,1,0,2,10556,WMM1,1071469,false,false,1240,image-keyboard-response,33
true,8,2,1,1,false,z,true,true,0.0-2.0-0.39-0.353-3.353,0,0,0,68,false,stim,false,0,672,1,0,1,10556,WMM1,1073664,false,true,1243,image-keyboard-response,34
true,8,1,1,2,false,d,false,false,0.0-2.0-0.39-0.354-3.354,0,0,0,90,false,stim,true,1,1014,1,0,0,10556,WMM1,1076217,false,false,1246,image-keyboard-response,35
true,8,2,1,2,true,d,false,true,0.0-2.0-0.39-0.355-3.355,0,0,0,68,false,stim,false,1,756,1,0,0,10556,WMM1,1078505,false,false,1249,image-keyboard-response,36
true,8,2,1,2,true,d,false,true,0.0-2.0-0.39-0.356-3.356,0,0,0,68,false,stim,false,1,532,1,0,0,10556,WMM1,1080588,false,false,1252,image-keyboard-response,37
true,8,2,1,2,true,d,false,true,0.0-2.0-0.39-0.357-3.357,0,0,0,68,false,stim,false,1,1249,1,0,2,10556,WMM1,1083378,false,false,1255,image-keyboard-response,38
true,8,0,1,1,false,z,false,false,0.0-2.0-0.39-0.358-3.358,0,0,0,81,false,stim,true,0,1090,1,0,1,10556,WMM1,1086016,false,false,1258,image-keyboard-response,39
true,8,2,1,2,true,d,false,true,0.0-2.0-0.39-0.359-3.359,0,0,0,68,false,stim,false,1,796,1,0,2,10556,WMM1,1088343,false,false,1261,image-keyboard-response,40
true,8,2,1,2,true,d,false,true,0.0-2.0-0.40-0.360-3.360,0,0,0,68,false,stim,false,1,977,1,0,0,10556,WMM1,1090859,false,false,1264,image-keyboard-response,41
true,8,2,1,2,true,d,false,true,0.0-2.0-0.40-0.361-3.361,0,0,0,68,false,stim,false,1,829,1,0,2,10556,WMM1,1093235,false,false,1267,image-keyboard-response,42
true,8,1,1,1,true,z,false,true,0.0-2.0-0.40-0.362-3.362,0,0,0,90,false,stim,false,0,748,1,0,1,10556,WMM1,1095522,false,false,1270,image-keyboard-response,43
true,8,2,1,2,true,d,false,true,0.0-2.0-0.40-0.363-3.363,0,0,0,68,false,stim,false,1,613,1,0,0,10556,WMM1,1097679,false,false,1273,image-keyboard-response,44
true,8,2,1,2,true,d,false,false,0.0-2.0-0.40-0.364-3.364,0,0,0,68,false,stim,false,1,826,1,0,2,10556,WMM1,1100035,false,true,1276,image-keyboard-response,45
true,8,1,1,1,true,z,false,true,0.0-2.0-0.40-0.365-3.365,0,0,0,90,false,stim,false,0,481,1,0,1,10556,WMM1,1102058,false,false,1279,image-keyboard-response,46
true,8,0,1,2,false,d,true,false,0.0-2.0-0.40-0.366-3.366,0,0,0,81,false,stim,false,1,1189,1,0,2,10556,WMM1,1104777,false,false,1282,image-keyboard-response,47
true,8,2,1,2,true,d,false,true,0.0-2.0-0.40-0.367-3.367,0,0,0,68,false,stim,false,1,516,1,0,0,10556,WMM1,1106815,false,false,1285,image-keyboard-response,48
true,8,1,1,1,true,z,false,true,0.0-2.0-0.40-0.368-3.368,0,0,0,90,false,stim,false,0,1000,1,0,1,10556,WMM1,1109346,false,false,1288,image-keyboard-response,49
true,8,2,1,2,true,d,false,true,0.0-2.0-0.41-0.369-3.369,0,0,0,68,false,stim,false,1,1461,1,0,0,10556,WMM1,1112345,false,false,1291,image-keyboard-response,50
true,8,1,1,1,true,z,false,true,0.0-2.0-0.41-0.370-3.370,0,0,0,90,false,stim,false,0,597,1,0,1,10556,WMM1,1114465,false,false,1294,image-keyboard-response,51
true,8,2,1,2,true,d,false,true,0.0-2.0-0.41-0.371-3.371,0,0,0,68,false,stim,false,1,796,1,0,0,10556,WMM1,1116798,false,false,1297,image-keyboard-response,52
true,8,2,1,2,true,d,false,true,0.0-2.0-0.41-0.372-3.372,0,0,0,68,false,stim,false,1,795,1,0,2,10556,WMM1,1119130,false,false,1300,image-keyboard-response,53
true,8,2,1,2,true,d,false,true,0.0-2.0-0.41-0.373-3.373,0,0,0,68,false,stim,false,1,699,1,0,2,10556,WMM1,1121377,false,false,1303,image-keyboard-response,54
true,8,1,1,1,true,z,false,true,0.0-2.0-0.41-0.374-3.374,0,0,0,90,false,stim,false,0,802,1,0,1,10556,WMM1,1123715,false,false,1306,image-keyboard-response,55
true,8,2,1,2,true,d,false,true,0.0-2.0-0.41-0.375-3.375,0,0,0,68,false,stim,false,1,1080,1,0,0,10556,WMM1,1126317,false,false,1309,image-keyboard-response,56
true,9,2,2,2,true,d,false,true,0.0-2.0-0.41-0.376-3.376,0,0,0,68,true,stim,false,1,1328,1,0,1,10556,WMM1,1129165,false,false,1312,image-keyboard-response,1
true,9,2,2,1,false,z,false,false,0.0-2.0-0.41-0.377-3.377,0,0,0,68,false,stim,true,2,940,1,0,2,10556,WMM1,1131635,false,false,1315,image-keyboard-response,2
true,9,2,2,0,false,q,false,false,0.0-2.0-0.42-0.378-3.378,0,0,0,68,false,stim,true,2,963,1,0,0,10556,WMM1,1134118,false,false,1318,image-keyboard-response,3
true,9,1,2,2,false,d,false,false,0.0-2.0-0.42-0.379-3.379,0,0,0,90,false,stim,true,1,1077,1,0,1,10556,WMM1,1136723,false,false,1321,image-keyboard-response,4
true,9,1,2,1,true,z,false,true,0.0-2.0-0.42-0.380-3.380,0,0,0,90,false,stim,false,2,932,1,0,2,10556,WMM1,1139178,false,false,1324,image-keyboard-response,5
true,9,0,2,2,false,d,true,false,0.0-2.0-0.42-0.381-3.381,0,0,0,81,false,stim,false,1,467,1,0,1,10556,WMM1,1141163,false,false,1327,image-keyboard-response,6
true,9,0,2,2,false,d,true,false,0.0-2.0-0.42-0.382-3.382,0,0,0,81,false,stim,false,1,603,1,0,1,10556,WMM1,1143298,false,false,1330,image-keyboard-response,7
true,9,1,2,1,true,z,false,true,0.0-2.0-0.42-0.383-3.383,0,0,0,90,false,stim,false,2,664,1,0,2,10556,WMM1,1145501,false,false,1333,image-keyboard-response,8
true,9,0,2,0,true,q,false,true,0.0-2.0-0.42-0.384-3.384,0,0,0,81,false,stim,false,2,859,1,0,0,10556,WMM1,1147896,false,false,1336,image-keyboard-response,9
true,9,1,2,1,true,z,false,true,0.0-2.0-0.42-0.385-3.385,0,0,0,90,false,stim,false,2,839,1,0,2,10556,WMM1,1150263,false,false,1339,image-keyboard-response,10
true,9,0,2,0,true,q,false,true,0.0-2.0-0.42-0.386-3.386,0,0,0,81,false,stim,false,2,618,1,0,0,10556,WMM1,1152412,false,false,1342,image-keyboard-response,11
true,9,0,2,0,true,q,false,true,0.0-2.0-0.43-0.387-3.387,0,0,0,81,false,stim,false,2,728,1,0,0,10556,WMM1,1154676,false,false,1345,image-keyboard-response,12
true,9,1,2,1,true,z,false,true,0.0-2.0-0.43-0.388-3.388,0,0,0,90,false,stim,false,2,650,1,0,2,10556,WMM1,1156865,false,false,1348,image-keyboard-response,13
true,9,1,2,2,false,d,false,false,0.0-2.0-0.43-0.389-3.389,0,0,0,90,false,stim,true,1,1509,1,0,1,10556,WMM1,1159917,false,false,1351,image-keyboard-response,14
true,9,0,2,2,false,d,true,false,0.0-2.0-0.43-0.390-3.390,0,0,0,81,false,stim,false,1,460,1,0,1,10556,WMM1,1161907,false,false,1354,image-keyboard-response,15
true,9,0,2,0,true,q,false,true,0.0-2.0-0.43-0.391-3.391,0,0,0,81,false,stim,false,2,1151,1,0,0,10556,WMM1,1164575,false,false,1357,image-keyboard-response,16
true,9,0,2,0,true,q,false,true,0.0-2.0-0.43-0.392-3.392,0,0,0,81,false,stim,false,2,393,1,0,0,10556,WMM1,1166490,false,false,1360,image-keyboard-response,17
true,9,2,2,2,true,d,false,true,0.0-2.0-0.43-0.393-3.393,0,0,0,68,false,stim,false,1,1452,1,0,1,10556,WMM1,1169457,false,false,1363,image-keyboard-response,18
true,9,1,2,1,true,z,false,true,0.0-2.0-0.43-0.394-3.394,0,0,0,90,false,stim,false,2,695,1,0,2,10556,WMM1,1171664,false,false,1366,image-keyboard-response,19
true,9,1,2,1,true,z,false,true,0.0-2.0-0.43-0.395-3.395,0,0,0,90,false,stim,false,2,771,1,0,2,10556,WMM1,1173976,false,false,1369,image-keyboard-response,20
true,9,2,2,2,true,d,false,true,0.0-2.0-0.44-0.396-3.396,0,0,0,68,false,stim,false,1,813,1,0,1,10556,WMM1,1176329,false,false,1372,image-keyboard-response,21
true,9,1,2,1,true,z,false,true,0.0-2.0-0.44-0.397-3.397,0,0,0,90,false,stim,false,2,1163,1,0,2,10556,WMM1,1179068,false,false,1375,image-keyboard-response,22
true,9,1,2,1,true,z,false,true,0.0-2.0-0.44-0.398-3.398,0,0,0,90,false,stim,false,2,651,1,0,2,10556,WMM1,1181246,false,false,1378,image-keyboard-response,23
true,9,2,2,2,true,d,false,true,0.0-2.0-0.44-0.399-3.399,0,0,0,68,false,stim,false,1,440,1,0,1,10556,WMM1,1183227,false,false,1381,image-keyboard-response,24
true,9,0,2,0,true,q,false,true,0.0-2.0-0.44-0.400-3.400,0,0,0,81,false,stim,false,2,444,1,0,0,10556,WMM1,1185202,false,false,1384,image-keyboard-response,25
true,9,0,2,0,true,q,false,true,0.0-2.0-0.44-0.401-3.401,0,0,0,81,false,stim,false,2,487,1,0,0,10556,WMM1,1187227,false,false,1387,image-keyboard-response,26
true,9,0,2,0,true,q,false,true,0.0-2.0-0.44-0.402-3.402,0,0,0,81,false,stim,false,2,502,1,0,0,10556,WMM1,1189251,false,false,1390,image-keyboard-response,27
true,9,2,2,2,true,d,false,true,0.0-2.0-0.44-0.403-3.403,0,0,0,68,false,stim,false,1,963,1,0,1,10556,WMM1,1191735,false,false,1393,image-keyboard-response,28
true,9,1,2,1,true,z,false,true,0.0-2.0-0.44-0.404-3.404,0,0,0,90,false,stim,false,2,1054,1,0,2,10556,WMM1,1194309,false,false,1396,image-keyboard-response,29
true,9,2,2,2,true,d,false,true,0.0-2.0-0.45-0.405-3.405,0,0,0,68,false,stim,false,1,1094,1,0,1,10556,WMM1,1196942,false,false,1399,image-keyboard-response,30
true,9,1,2,1,true,z,false,true,0.0-2.0-0.45-0.406-3.406,0,0,0,90,false,stim,false,2,854,1,0,2,10556,WMM1,1199355,false,false,1402,image-keyboard-response,31
true,10,2,1,0,false,q,false,false,0.0-2.0-0.45-0.407-3.407,0,0,0,68,true,stim,true,2,781,1,0,1,10556,WMM1,1201675,false,false,1405,image-keyboard-response,1
true,10,1,1,0,false,q,false,false,0.0-2.0-0.45-0.408-3.408,0,0,0,90,false,stim,true,1,730,1,0,2,10556,WMM1,1203931,false,false,1408,image-keyboard-response,2
true,10,1,1,1,true,z,false,true,0.0-2.0-0.45-0.409-3.409,0,0,0,90,false,stim,false,0,1053,1,0,0,10556,WMM1,1206510,false,false,1411,image-keyboard-response,3
true,10,1,1,1,true,z,false,true,0.0-2.0-0.45-0.410-3.410,0,0,0,90,false,stim,false,0,648,1,0,0,10556,WMM1,1208693,false,false,1414,image-keyboard-response,4
true,10,2,1,0,false,q,true,false,0.0-2.0-0.45-0.411-3.411,0,0,0,68,false,stim,false,1,1106,1,0,2,10556,WMM1,1211320,false,false,1417,image-keyboard-response,5
true,10,0,1,0,true,q,false,true,0.0-2.0-0.45-0.412-3.412,0,0,0,81,false,stim,false,2,1872,1,0,1,10556,WMM1,1214721,false,false,1420,image-keyboard-response,6
true,10,1,1,1,true,z,false,true,0.0-2.0-0.45-0.413-3.413,0,0,0,90,false,stim,false,0,1638,1,0,0,10556,WMM1,1217895,false,false,1423,image-keyboard-response,7
true,10,1,1,1,true,z,false,true,0.0-2.0-0.46-0.414-3.414,0,0,0,90,false,stim,false,0,622,1,0,0,10556,WMM1,1220053,false,false,1426,image-keyboard-response,8
true,10,0,1,0,true,q,false,false,0.0-2.0-0.46-0.415-3.415,0,0,0,81,false,stim,false,1,1081,1,0,2,10556,WMM1,1222676,false,true,1429,image-keyboard-response,9
true,10,0,1,0,true,q,false,true,0.0-2.0-0.46-0.416-3.416,0,0,0,81,false,stim,false,2,1251,1,0,1,10556,WMM1,1225456,false,false,1432,image-keyboard-response,10
true,10,1,1,0,false,q,false,false,0.0-2.0-0.46-0.417-3.417,0,0,0,90,false,stim,true,1,1293,1,0,2,10556,WMM1,1228263,false,false,1435,image-keyboard-response,11
true,10,2,1,0,false,q,true,false,0.0-2.0-0.46-0.418-3.418,0,0,0,68,false,stim,false,1,1024,1,0,2,10556,WMM1,1230829,false,false,1438,image-keyboard-response,12
true,10,0,1,0,true,q,false,true,0.0-2.0-0.46-0.419-3.419,0,0,0,81,false,stim,false,2,1273,1,0,1,10556,WMM1,1233628,false,false,1441,image-keyboard-response,13
true,10,1,1,1,true,z,false,true,0.0-2.0-0.46-0.420-3.420,0,0,0,90,false,stim,false,0,827,1,0,0,10556,WMM1,1235980,false,false,1444,image-keyboard-response,14
true,10,1,1,1,true,z,false,true,0.0-2.0-0.46-0.421-3.421,0,0,0,90,false,stim,false,0,701,1,0,0,10556,WMM1,1238207,false,false,1447,image-keyboard-response,15
true,10,0,1,0,true,q,false,true,0.0-2.0-0.46-0.422-3.422,0,0,0,81,false,stim,false,2,715,1,0,1,10556,WMM1,1240442,false,false,1450,image-keyboard-response,16
true,10,0,1,0,true,q,false,true,0.0-2.0-0.47-0.423-3.423,0,0,0,81,false,stim,false,2,586,1,0,1,10556,WMM1,1242564,false,false,1453,image-keyboard-response,17
true,10,1,1,1,true,z,false,true,0.0-2.0-0.47-0.424-3.424,0,0,0,90,false,stim,false,0,810,1,0,0,10556,WMM1,1244906,false,false,1456,image-keyboard-response,18
true,10,1,1,1,true,z,false,true,0.0-2.0-0.47-0.425-3.425,0,0,0,90,false,stim,false,0,601,1,0,0,10556,WMM1,1247037,false,false,1459,image-keyboard-response,19
true,10,0,1,0,true,q,false,true,0.0-2.0-0.47-0.426-3.426,0,0,0,81,false,stim,false,1,1138,1,0,2,10556,WMM1,1249705,false,false,1462,image-keyboard-response,20
true,10,1,1,1,true,z,false,true,0.0-2.0-0.47-0.427-3.427,0,0,0,90,false,stim,false,0,608,1,0,0,10556,WMM1,1251865,false,false,1465,image-keyboard-response,21
true,10,0,1,0,true,q,false,true,0.0-2.0-0.47-0.428-3.428,0,0,0,81,false,stim,false,2,505,1,0,1,10556,WMM1,1253904,false,false,1468,image-keyboard-response,22
true,10,0,1,0,true,q,false,true,0.0-2.0-0.47-0.429-3.429,0,0,0,81,false,stim,false,1,927,1,0,2,10556,WMM1,1256369,false,false,1471,image-keyboard-response,23
true,10,0,1,0,true,q,false,true,0.0-2.0-0.47-0.430-3.430,0,0,0,81,false,stim,false,1,630,1,0,2,10556,WMM1,1258535,false,false,1474,image-keyboard-response,24
true,10,0,1,0,true,q,false,true,0.0-2.0-0.47-0.431-3.431,0,0,0,81,false,stim,false,2,999,1,0,1,10556,WMM1,1261057,false,false,1477,image-keyboard-response,25
true,10,0,1,0,true,q,false,true,0.0-2.0-0.48-0.432-3.432,0,0,0,81,false,stim,false,2,526,1,0,1,10556,WMM1,1263110,false,false,1480,image-keyboard-response,26
true,10,0,1,0,true,q,false,true,0.0-2.0-0.48-0.433-3.433,0,0,0,81,false,stim,false,1,713,1,0,2,10556,WMM1,1265339,false,false,1483,image-keyboard-response,27
true,10,0,1,0,true,q,false,true,0.0-2.0-0.48-0.434-3.434,0,0,0,81,false,stim,false,1,496,1,0,2,10556,WMM1,1267363,false,false,1486,image-keyboard-response,28
true,10,1,1,1,true,z,false,true,0.0-2.0-0.48-0.435-3.435,0,0,0,90,false,stim,false,0,631,1,0,0,10556,WMM1,1269525,false,false,1489,image-keyboard-response,29
true,10,0,1,0,true,q,false,true,0.0-2.0-0.48-0.436-3.436,0,0,0,81,false,stim,false,2,712,1,0,1,10556,WMM1,1271765,false,false,1492,image-keyboard-response,30
true,10,0,1,0,true,q,false,true,0.0-2.0-0.48-0.437-3.437,0,0,0,81,false,stim,false,1,1443,1,0,2,10556,WMM1,1274739,false,false,1495,image-keyboard-response,31
true,10,1,1,1,true,z,false,true,0.0-2.0-0.48-0.438-3.438,0,0,0,90,false,stim,false,0,565,1,0,0,10556,WMM1,1276844,false,false,1498,image-keyboard-response,32
true,10,1,1,1,true,z,false,true,0.0-2.0-0.48-0.439-3.439,0,0,0,90,false,stim,false,0,694,1,0,0,10556,WMM1,1279103,false,false,1501,image-keyboard-response,33
true,11,0,2,2,false,d,false,true,0.0-2.0-0.48-0.440-3.440,0,0,0,81,true,stim,true,0,855,1,0,1,10556,WMM1,1281493,false,true,1504,image-keyboard-response,1
true,11,1,2,0,false,q,false,false,0.0-2.0-0.49-0.441-3.441,0,0,0,90,false,stim,true,1,838,1,0,0,10556,WMM1,1283874,false,false,1507,image-keyboard-response,2
true,11,0,2,2,false,d,false,false,0.0-2.0-0.49-0.442-3.442,0,0,0,81,false,stim,true,0,562,1,0,1,10556,WMM1,1285960,false,false,1510,image-keyboard-response,3
true,11,1,2,1,true,z,false,true,0.0-2.0-0.49-0.443-3.443,0,0,0,90,false,stim,false,0,842,1,0,2,10556,WMM1,1288329,false,false,1513,image-keyboard-response,4
true,11,0,2,2,false,d,false,true,0.0-2.0-0.49-0.444-3.444,0,0,0,81,false,stim,true,0,537,1,0,1,10556,WMM1,1290388,false,true,1516,image-keyboard-response,5
true,11,0,2,2,false,d,false,false,0.0-2.0-0.49-0.445-3.445,0,0,0,81,false,stim,true,0,711,1,0,1,10556,WMM1,1292627,false,false,1519,image-keyboard-response,6
true,11,1,2,0,false,q,false,false,0.0-2.0-0.49-0.446-3.446,0,0,0,90,false,stim,true,1,917,1,0,0,10556,WMM1,1295081,false,false,1522,image-keyboard-response,7
true,11,1,2,1,true,z,false,true,0.0-2.0-0.49-0.447-3.447,0,0,0,90,false,stim,false,0,958,1,0,2,10556,WMM1,1297584,false,false,1525,image-keyboard-response,8
true,11,2,2,0,false,q,true,false,0.0-2.0-0.49-0.448-3.448,0,0,0,68,false,stim,false,1,691,1,0,0,10556,WMM1,1299810,false,false,1528,image-keyboard-response,9
true,11,1,2,1,true,z,false,true,0.0-2.0-0.49-0.449-3.449,0,0,0,90,false,stim,false,0,788,1,0,2,10556,WMM1,1302130,false,false,1531,image-keyboard-response,10
true,11,0,2,2,false,d,false,false,0.0-2.0-0.50-0.450-3.450,0,0,0,81,false,stim,true,0,753,1,0,1,10556,WMM1,1304414,false,false,1534,image-keyboard-response,11
true,11,0,2,0,true,q,false,true,0.0-2.0-0.50-0.451-3.451,0,0,0,81,false,stim,false,1,1111,1,0,0,10556,WMM1,1307057,false,false,1537,image-keyboard-response,12
true,11,1,2,0,false,q,false,false,0.0-2.0-0.50-0.452-3.452,0,0,0,90,false,stim,true,1,580,1,0,0,10556,WMM1,1309175,false,false,1540,image-keyboard-response,13
true,11,2,2,2,true,d,false,true,0.0-2.0-0.50-0.453-3.453,0,0,0,68,false,stim,false,0,762,1,0,1,10556,WMM1,1311466,false,false,1543,image-keyboard-response,14
true,11,0,2,0,true,q,false,true,0.0-2.0-0.50-0.454-3.454,0,0,0,81,false,stim,false,1,708,1,0,0,10556,WMM1,1313695,false,false,1546,image-keyboard-response,15
true,11,2,2,2,true,d,false,true,0.0-2.0-0.50-0.455-3.455,0,0,0,68,false,stim,false,0,857,1,0,1,10556,WMM1,1316075,false,false,1549,image-keyboard-response,16
true,11,1,2,1,true,z,false,true,0.0-2.0-0.50-0.456-3.456,0,0,0,90,false,stim,false,0,1032,1,0,2,10556,WMM1,1318647,false,false,1552,image-keyboard-response,17
true,11,2,2,1,false,z,true,false,0.0-2.0-0.50-0.457-3.457,0,0,0,68,false,stim,false,0,620,1,0,2,10556,WMM1,1320800,false,false,1555,image-keyboard-response,18
true,11,1,2,1,true,z,false,true,0.0-2.0-0.50-0.458-3.458,0,0,0,90,false,stim,false,0,474,1,0,2,10556,WMM1,1322806,false,false,1558,image-keyboard-response,19
true,11,2,2,2,true,d,false,true,0.0-2.0-0.51-0.459-3.459,0,0,0,68,false,stim,false,0,801,1,0,1,10556,WMM1,1325138,false,false,1561,image-keyboard-response,20
true,11,2,2,2,true,d,false,true,0.0-2.0-0.51-0.460-3.460,0,0,0,68,false,stim,false,0,1244,1,0,1,10556,WMM1,1327934,false,false,1564,image-keyboard-response,21
true,11,1,2,1,true,z,false,false,0.0-2.0-0.51-0.461-3.461,0,0,0,90,false,stim,false,0,827,1,0,2,10556,WMM1,1330294,false,true,1567,image-keyboard-response,22
true,11,0,2,0,true,q,false,true,0.0-2.0-0.51-0.462-3.462,0,0,0,81,false,stim,false,1,770,1,0,0,10556,WMM1,1332616,false,false,1570,image-keyboard-response,23
true,11,0,2,0,true,q,false,false,0.0-2.0-0.51-0.463-3.463,0,0,0,81,false,stim,false,1,617,1,0,0,10556,WMM1,1334827,false,true,1573,image-keyboard-response,24
true,11,1,2,1,true,z,false,true,0.0-2.0-0.51-0.464-3.464,0,0,0,90,false,stim,false,0,921,1,1,2,10556,WMM1,1337271,false,false,1576,image-keyboard-response,25
true,11,1,2,1,true,z,false,true,0.0-2.0-0.51-0.465-3.465,0,0,0,90,false,stim,false,0,516,1,1,2,10556,WMM1,1339304,false,false,1579,image-keyboard-response,26
true,11,2,2,0,false,q,true,true,0.0-2.0-0.51-0.466-3.466,0,0,0,68,false,stim,false,1,1489,1,0,0,10556,WMM1,1342324,false,true,1582,image-keyboard-response,27
true,11,0,2,2,false,d,false,false,0.0-2.0-0.51-0.467-3.467,0,0,0,81,false,stim,true,0,521,1,0,1,10556,WMM1,1344378,false,false,1585,image-keyboard-response,28
true,11,2,2,0,false,q,true,true,0.0-2.0-0.52-0.468-3.468,0,0,0,68,false,stim,false,1,660,1,0,0,10556,WMM1,1346567,false,true,1588,image-keyboard-response,29
true,11,1,2,1,true,z,false,true,0.0-2.0-0.52-0.469-3.469,0,0,0,90,false,stim,false,0,824,1,1,2,10556,WMM1,1348916,false,false,1591,image-keyboard-response,30
true,11,2,2,2,true,d,false,true,0.0-2.0-0.52-0.470-3.470,0,0,0,68,false,stim,false,0,470,1,0,1,10556,WMM1,1350925,false,false,1594,image-keyboard-response,31
true,11,2,2,2,true,d,false,true,0.0-2.0-0.52-0.471-3.471,0,0,0,68,false,stim,false,0,447,1,0,1,10556,WMM1,1352898,false,false,1597,image-keyboard-response,32
true,11,2,2,0,false,q,true,false,0.0-2.0-0.52-0.472-3.472,0,0,0,68,false,stim,false,1,590,1,0,0,10556,WMM1,1355025,false,false,1600,image-keyboard-response,33
true,12,2,3,1,false,z,true,false,0.0-2.0-0.52-0.473-3.473,0,0,1,68,true,stim,false,1,628,1,1,2,10556,WMM1,1357214,false,false,1603,image-keyboard-response,1
true,12,2,3,2,true,d,false,true,0.0-2.0-0.52-0.474-3.474,0,0,1,68,false,stim,false,0,820,1,0,0,10556,WMM1,1359568,false,false,1606,image-keyboard-response,2
true,12,1,3,1,true,z,false,false,0.0-2.0-0.52-0.475-3.475,0,0,1,90,false,stim,false,1,964,1,1,2,10556,WMM1,1362053,false,true,1609,image-keyboard-response,3
true,12,2,3,1,false,z,false,false,0.0-2.0-0.52-0.476-3.476,0,0,1,68,false,stim,true,2,744,1,0,1,10556,WMM1,1364338,false,false,1612,image-keyboard-response,4
true,12,0,3,1,false,z,true,false,0.0-2.0-0.53-0.477-3.477,0,0,1,81,false,stim,false,2,464,1,0,1,10556,WMM1,1366352,false,false,1615,image-keyboard-response,5
true,12,2,3,2,true,d,false,true,0.0-2.0-0.53-0.478-3.478,0,0,1,68,false,stim,false,0,897,1,0,0,10556,WMM1,1368772,false,false,1618,image-keyboard-response,6
true,12,2,3,2,true,d,false,true,0.0-2.0-0.53-0.479-3.479,0,0,1,68,false,stim,false,0,514,1,0,0,10556,WMM1,1370811,false,false,1621,image-keyboard-response,7
true,12,1,3,1,true,z,false,true,0.0-2.0-0.53-0.480-3.480,0,0,1,90,false,stim,false,2,925,1,0,1,10556,WMM1,1373275,false,false,1624,image-keyboard-response,8
true,12,2,3,2,true,d,false,true,0.0-2.0-0.53-0.481-3.481,0,0,1,68,false,stim,false,0,674,1,0,0,10556,WMM1,1375482,false,false,1627,image-keyboard-response,9
true,12,0,3,1,false,z,true,false,0.0-2.0-0.53-0.482-3.482,0,0,1,81,false,stim,false,1,904,1,1,2,10556,WMM1,1377929,false,false,1630,image-keyboard-response,10
true,12,2,3,1,false,z,true,false,0.0-2.0-0.53-0.483-3.483,0,0,1,68,false,stim,false,1,478,1,1,2,10556,WMM1,1379938,false,false,1633,image-keyboard-response,11
true,12,2,3,1,false,z,false,false,0.0-2.0-0.53-0.484-3.484,0,0,1,68,false,stim,true,2,779,1,0,1,10556,WMM1,1382254,false,false,1636,image-keyboard-response,12
true,12,2,3,1,false,z,true,false,0.0-2.0-0.53-0.485-3.485,0,0,1,68,false,stim,false,1,1041,1,1,2,10556,WMM1,1384836,false,false,1639,image-keyboard-response,13
true,12,0,3,2,false,d,false,false,0.0-2.0-0.54-0.486-3.486,0,0,1,81,false,stim,true,0,841,1,0,0,10556,WMM1,1387198,false,false,1642,image-keyboard-response,14
true,12,1,3,2,false,d,true,false,0.0-2.0-0.54-0.487-3.487,0,0,1,90,false,stim,false,0,977,1,0,0,10556,WMM1,1389696,false,false,1645,image-keyboard-response,15
true,12,0,3,1,false,z,true,false,0.0-2.0-0.54-0.488-3.488,0,0,1,81,false,stim,false,2,724,1,0,1,10556,WMM1,1391948,false,false,1648,image-keyboard-response,16
true,12,1,3,2,false,d,true,false,0.0-2.0-0.54-0.489-3.489,0,0,1,90,false,stim,false,0,1129,1,0,0,10556,WMM1,1394616,false,false,1651,image-keyboard-response,17
true,12,2,3,1,false,z,false,false,0.0-2.0-0.54-0.490-3.490,0,0,1,68,false,stim,true,2,1375,1,0,1,10556,WMM1,1397524,false,false,1654,image-keyboard-response,18
true,12,0,3,1,false,z,true,false,0.0-2.0-0.54-0.491-3.491,0,0,1,81,false,stim,false,1,1323,1,1,2,10556,WMM1,1400377,false,false,1657,image-keyboard-response,19
true,12,0,3,1,false,z,true,false,0.0-2.0-0.54-0.492-3.492,0,0,1,81,false,stim,false,1,734,1,1,2,10556,WMM1,1402655,false,false,1660,image-keyboard-response,20
true,12,1,3,1,true,z,false,true,0.0-2.0-0.54-0.493-3.493,0,0,1,90,false,stim,false,1,610,1,1,2,10556,WMM1,1404804,false,false,1663,image-keyboard-response,21
true,12,0,3,1,false,z,true,false,0.0-2.0-0.54-0.494-3.494,0,0,1,81,false,stim,false,2,1282,1,0,1,10556,WMM1,1407633,false,false,1666,image-keyboard-response,22
true,12,0,3,2,false,d,false,false,0.0-2.0-0.55-0.495-3.495,0,0,1,81,false,stim,true,0,1347,1,0,0,10556,WMM1,1410523,false,false,1669,image-keyboard-response,23
true,12,1,3,1,true,z,false,true,0.0-2.0-0.55-0.496-3.496,0,0,1,90,false,stim,false,2,1579,1,0,1,10556,WMM1,1413633,false,false,1672,image-keyboard-response,24
true,12,1,3,2,false,d,true,false,0.0-2.0-0.55-0.497-3.497,0,0,1,90,false,stim,false,0,749,1,0,0,10556,WMM1,1415924,false,false,1675,image-keyboard-response,25
true,12,2,3,1,false,z,true,false,0.0-2.0-0.55-0.498-3.498,0,0,1,68,false,stim,false,1,975,1,1,2,10556,WMM1,1418435,false,false,1678,image-keyboard-response,26
true,12,1,3,1,true,z,false,true,0.0-2.0-0.55-0.499-3.499,0,0,1,90,false,stim,false,2,511,1,0,1,10556,WMM1,1420496,false,false,1681,image-keyboard-response,27
true,12,1,3,1,true,z,false,true,0.0-2.0-0.55-0.500-3.500,0,0,1,90,false,stim,false,1,447,1,1,2,10556,WMM1,1422482,false,false,1684,image-keyboard-response,28
true,12,1,3,1,true,z,false,true,0.0-2.0-0.55-0.501-3.501,0,0,1,90,false,stim,false,1,580,1,1,2,10556,WMM1,1424605,false,false,1687,image-keyboard-response,29
true,12,1,3,1,true,z,false,true,0.0-2.0-0.55-0.502-3.502,0,0,1,90,false,stim,false,2,560,1,0,1,10556,WMM1,1426704,false,false,1690,image-keyboard-response,30
true,12,2,3,2,true,d,false,true,0.0-2.0-0.55-0.503-3.503,0,0,1,68,false,stim,false,0,1698,1,0,0,10556,WMM1,1429942,false,false,1693,image-keyboard-response,31
true,12,2,3,2,true,d,false,true,0.0-2.0-0.56-0.504-3.504,0,0,1,68,false,stim,false,0,648,1,0,0,10556,WMM1,1432134,false,false,1696,image-keyboard-response,32
true,12,1,3,1,true,z,false,true,0.0-2.0-0.56-0.505-3.505,0,0,1,90,false,stim,false,2,713,1,0,1,10556,WMM1,1434385,false,false,1699,image-keyboard-response,33
true,12,1,3,1,true,z,false,true,0.0-2.0-0.56-0.506-3.506,0,0,1,90,false,stim,false,2,682,1,0,1,10556,WMM1,1436631,false,false,1702,image-keyboard-response,34
true,12,1,3,1,true,z,false,true,0.0-2.0-0.56-0.507-3.507,0,0,1,90,false,stim,false,1,801,1,0,2,10556,WMM1,1438955,false,false,1705,image-keyboard-response,35
true,12,1,3,1,true,z,false,true,0.0-2.0-0.56-0.508-3.508,0,0,1,90,false,stim,false,1,615,1,0,2,10556,WMM1,1441100,false,false,1708,image-keyboard-response,36
true,12,2,3,2,true,d,false,true,0.0-2.0-0.56-0.509-3.509,0,0,1,68,false,stim,false,0,750,1,0,0,10556,WMM1,1443390,false,false,1711,image-keyboard-response,37
true,12,1,3,1,true,z,false,true,0.0-2.0-0.56-0.510-3.510,0,0,1,90,false,stim,false,1,1022,1,0,2,10556,WMM1,1445939,false,false,1714,image-keyboard-response,38
true,12,1,3,1,true,z,false,true,0.0-2.0-0.56-0.511-3.511,0,0,1,90,false,stim,false,2,674,1,0,1,10556,WMM1,1448149,false,false,1717,image-keyboard-response,39
true,12,1,3,2,false,d,true,false,0.0-2.0-0.56-0.512-3.512,0,0,1,90,false,stim,false,0,1551,1,0,0,10556,WMM1,1451247,false,false,1720,image-keyboard-response,40
true,12,1,3,1,true,z,false,true,0.0-2.0-0.57-0.513-3.513,0,0,1,90,false,stim,false,1,724,1,0,2,10556,WMM1,1453501,false,false,1723,image-keyboard-response,41
true,12,1,3,1,true,z,false,true,0.0-2.0-0.57-0.514-3.514,0,0,1,90,false,stim,false,2,638,1,0,1,10556,WMM1,1455660,false,false,1726,image-keyboard-response,42
true,13,1,1,2,false,d,false,false,0.0-2.0-0.57-0.515-3.515,0,0,0,90,true,stim,true,1,872,1,0,2,10556,WMM1,1458057,false,false,1729,image-keyboard-response,1
true,13,2,1,0,false,q,false,false,0.0-2.0-0.57-0.516-3.516,0,0,0,68,false,stim,true,2,692,1,0,0,10556,WMM1,1460269,false,false,1732,image-keyboard-response,2
true,13,2,1,2,true,d,false,true,0.0-2.0-0.57-0.517-3.517,0,0,0,68,false,stim,false,1,1141,1,0,2,10556,WMM1,1462977,false,false,1735,image-keyboard-response,3
true,13,0,1,0,true,q,false,false,0.0-2.0-0.57-0.518-3.518,0,0,0,81,false,stim,false,2,590,1,0,0,10556,WMM1,1465095,false,true,1738,image-keyboard-response,4
true,13,1,1,0,false,q,true,false,0.0-2.0-0.57-0.519-3.519,0,0,0,90,false,stim,false,2,437,1,0,0,10556,WMM1,1467065,false,false,1741,image-keyboard-response,5
true,13,1,1,2,false,d,false,false,0.0-2.0-0.57-0.520-3.520,0,0,0,90,false,stim,true,1,842,1,0,1,10556,WMM1,1469448,false,false,1744,image-keyboard-response,6
true,13,0,1,2,false,d,true,true,0.0-2.0-0.57-0.521-3.521,0,0,0,81,false,stim,false,1,467,1,0,1,10556,WMM1,1471457,false,true,1747,image-keyboard-response,7
true,13,2,1,0,false,q,false,true,0.0-2.0-0.58-0.522-3.522,0,0,0,68,false,stim,true,2,1151,1,0,0,10556,WMM1,1474144,false,true,1750,image-keyboard-response,8
true,13,2,1,0,false,q,false,false,0.0-2.0-0.58-0.523-3.523,0,0,0,68,false,stim,true,2,558,1,0,0,10556,WMM1,1476237,false,false,1753,image-keyboard-response,9
true,13,0,1,2,false,d,true,false,0.0-2.0-0.58-0.524-3.524,0,0,0,81,false,stim,false,1,701,1,0,1,10556,WMM1,1478457,false,false,1756,image-keyboard-response,10
true,13,0,1,2,false,d,true,false,0.0-2.0-0.58-0.525-3.525,0,0,0,81,false,stim,false,1,502,1,0,1,10556,WMM1,1480489,false,false,1759,image-keyboard-response,11
true,13,2,1,0,false,q,false,false,0.0-2.0-0.58-0.526-3.526,0,0,0,68,false,stim,true,2,919,1,0,0,10556,WMM1,1482947,false,false,1762,image-keyboard-response,12
true,13,1,1,2,false,d,false,false,0.0-2.0-0.58-0.527-3.527,0,0,0,90,false,stim,true,1,844,1,0,2,10556,WMM1,1485322,false,false,1765,image-keyboard-response,13
true,13,2,1,2,true,d,false,true,0.0-2.0-0.58-0.528-3.528,0,0,0,68,false,stim,false,1,484,1,0,2,10556,WMM1,1487331,false,false,1768,image-keyboard-response,14
true,13,0,1,2,false,d,true,false,0.0-2.0-0.58-0.529-3.529,0,0,0,81,false,stim,false,1,1311,1,0,1,10556,WMM1,1490187,false,false,1771,image-keyboard-response,15
true,13,2,1,2,true,d,false,false,0.0-2.0-0.58-0.530-3.530,0,0,0,68,false,stim,false,1,773,1,0,2,10556,WMM1,1492490,false,true,1774,image-keyboard-response,16
true,13,1,1,0,false,q,true,true,0.0-2.0-0.59-0.531-3.531,0,0,0,90,false,stim,false,2,1721,1,0,0,10556,WMM1,1495744,false,true,1777,image-keyboard-response,17
true,13,1,1,0,false,q,true,false,0.0-2.0-0.59-0.532-3.532,0,0,0,90,false,stim,false,2,473,1,0,0,10556,WMM1,1497750,false,false,1780,image-keyboard-response,18
true,13,1,1,0,false,q,true,false,0.0-2.0-0.59-0.533-3.533,0,0,0,90,false,stim,false,2,540,1,0,0,10556,WMM1,1499829,false,false,1783,image-keyboard-response,19
true,13,2,1,2,true,d,false,true,0.0-2.0-0.59-0.534-3.534,0,0,0,68,false,stim,false,1,1019,1,0,2,10556,WMM1,1502375,false,false,1786,image-keyboard-response,20
true,13,2,1,2,true,d,false,true,0.0-2.0-0.59-0.535-3.535,0,0,0,68,false,stim,false,1,534,1,0,2,10556,WMM1,1504450,false,false,1789,image-keyboard-response,21
true,13,0,1,2,false,d,true,false,0.0-2.0-0.59-0.536-3.536,0,0,0,81,false,stim,false,1,1145,1,0,1,10556,WMM1,1507136,false,false,1792,image-keyboard-response,22
true,13,1,1,2,false,d,false,false,0.0-2.0-0.59-0.537-3.537,0,0,0,90,false,stim,true,1,556,1,0,1,10556,WMM1,1509242,false,false,1795,image-keyboard-response,23
true,13,2,1,2,true,d,false,true,0.0-2.0-0.59-0.538-3.538,0,0,0,68,false,stim,false,1,577,1,0,2,10556,WMM1,1511357,false,false,1798,image-keyboard-response,24
true,13,2,1,2,true,d,false,true,0.0-2.0-0.59-0.539-3.539,0,0,0,68,false,stim,false,1,502,1,0,1,10556,WMM1,1513454,false,false,1801,image-keyboard-response,25
true,13,2,1,0,false,q,false,false,0.0-2.0-0.60-0.540-3.540,0,0,0,68,false,stim,true,2,941,1,0,0,10556,WMM1,1515936,false,false,1804,image-keyboard-response,26
true,13,2,1,2,true,d,false,false,0.0-2.0-0.60-0.541-3.541,0,0,0,68,false,stim,false,1,569,1,0,2,10556,WMM1,1518048,false,true,1807,image-keyboard-response,27
true,13,1,1,2,false,d,false,false,0.0-2.0-0.60-0.542-3.542,0,0,0,90,false,stim,true,1,612,1,0,1,10556,WMM1,1520239,false,false,1810,image-keyboard-response,28
true,13,2,1,2,true,d,false,true,0.0-2.0-0.60-0.543-3.543,0,0,0,68,false,stim,false,1,559,1,0,2,10556,WMM1,1522341,false,false,1813,image-keyboard-response,29
true,13,2,1,2,true,d,false,true,0.0-2.0-0.60-0.544-3.544,0,0,0,68,false,stim,false,1,526,1,0,1,10556,WMM1,1524433,false,false,1816,image-keyboard-response,30
true,13,2,1,2,true,d,false,true,0.0-2.0-0.60-0.545-3.545,0,0,0,68,false,stim,false,1,557,1,0,2,10556,WMM1,1526554,false,false,1819,image-keyboard-response,31
true,13,1,1,0,false,q,true,false,0.0-2.0-0.60-0.546-3.546,0,0,0,90,false,stim,false,2,1124,1,0,0,10556,WMM1,1529215,false,false,1822,image-keyboard-response,32
true,13,2,1,2,true,d,false,true,0.0-2.0-0.60-0.547-3.547,0,0,0,68,false,stim,false,1,461,1,0,1,10556,WMM1,1531216,false,false,1825,image-keyboard-response,33
true,13,2,1,0,false,q,false,false,0.0-2.0-0.60-0.548-3.548,0,0,0,68,false,stim,true,2,548,1,0,0,10556,WMM1,1533309,false,false,1828,image-keyboard-response,34
true,13,0,1,0,true,q,false,true,0.0-2.0-0.61-0.549-3.549,0,0,0,81,false,stim,false,2,473,1,0,0,10556,WMM1,1535322,false,false,1831,image-keyboard-response,35
true,13,2,1,2,true,d,false,true,0.0-2.0-0.61-0.550-3.550,0,0,0,68,false,stim,false,1,702,1,0,1,10556,WMM1,1537570,false,false,1834,image-keyboard-response,36
true,13,2,1,2,true,d,false,true,0.0-2.0-0.61-0.551-3.551,0,0,0,68,false,stim,false,1,511,1,0,1,10556,WMM1,1539627,false,false,1837,image-keyboard-response,37
true,13,2,1,2,true,d,false,true,0.0-2.0-0.61-0.552-3.552,0,0,0,68,false,stim,false,1,895,1,0,2,10556,WMM1,1542064,false,false,1840,image-keyboard-response,38
true,13,2,1,2,true,d,false,true,0.0-2.0-0.61-0.553-3.553,0,0,0,68,false,stim,false,1,781,1,0,1,10556,WMM1,1544418,false,false,1843,image-keyboard-response,39
true,13,2,1,2,true,d,false,true,0.0-2.0-0.61-0.554-3.554,0,0,0,68,false,stim,false,1,685,1,0,2,10556,WMM1,1546641,false,false,1846,image-keyboard-response,40
true,13,2,1,2,true,d,false,true,0.0-2.0-0.61-0.555-3.555,0,0,0,68,false,stim,false,1,510,1,0,2,10556,WMM1,1548694,false,false,1849,image-keyboard-response,41
true,13,0,1,0,true,q,false,true,0.0-2.0-0.61-0.556-3.556,0,0,0,81,false,stim,false,2,660,1,0,0,10556,WMM1,1550896,false,false,1852,image-keyboard-response,42
true,13,0,1,0,true,q,false,true,0.0-2.0-0.61-0.557-3.557,0,0,0,81,false,stim,false,2,508,1,1,0,10556,WMM1,1552933,false,false,1855,image-keyboard-response,43
true,13,2,1,2,true,d,false,false,0.0-2.0-0.62-0.558-3.558,0,0,0,68,false,stim,false,1,868,1,1,1,10556,WMM1,1555334,false,true,1858,image-keyboard-response,44
true,13,2,1,2,true,d,false,true,0.0-2.0-0.62-0.559-3.559,0,0,0,68,false,stim,false,1,669,1,1,2,10556,WMM1,1557534,false,false,1861,image-keyboard-response,45
true,13,0,1,0,true,q,false,true,0.0-2.0-0.62-0.560-3.560,0,0,0,81,false,stim,false,2,860,1,1,0,10556,WMM1,1559936,false,false,1864,image-keyboard-response,46
true,13,2,1,2,true,d,false,true,0.0-2.0-0.62-0.561-3.561,0,0,0,68,false,stim,false,1,1468,1,1,2,10556,WMM1,1562932,false,false,1867,image-keyboard-response,47
true,13,2,1,2,true,d,false,true,0.0-2.0-0.62-0.562-3.562,0,0,0,68,false,stim,false,1,731,1,1,2,10556,WMM1,1565190,false,false,1870,image-keyboard-response,48
true,13,2,1,2,true,d,false,true,0.0-2.0-0.62-0.563-3.563,0,0,0,68,false,stim,false,1,1021,1,1,1,10556,WMM1,1567747,false,false,1873,image-keyboard-response,49
true,13,2,1,2,true,d,false,true,0.0-2.0-0.62-0.564-3.564,0,0,0,68,false,stim,false,1,1378,1,1,1,10556,WMM1,1570666,false,false,1876,image-keyboard-response,50
true,13,0,1,0,true,q,false,true,0.0-2.0-0.62-0.565-3.565,0,0,0,81,false,stim,false,2,1340,1,1,0,10556,WMM1,1573526,false,false,1879,image-keyboard-response,51
true,13,0,1,0,true,q,false,true,0.0-2.0-0.62-0.566-3.566,0,0,0,81,false,stim,false,2,653,1,1,0,10556,WMM1,1575720,false,false,1882,image-keyboard-response,52
true,14,0,0,2,false,d,true,false,0.0-2.0-0.63-0.567-3.567,1,1,1,81,true,stim,false,2,774,1,1,2,10556,WMM1,1673924,false,false,1980,image-keyboard-response,1
true,14,1,0,2,false,d,true,false,0.0-2.0-0.63-0.568-3.568,1,1,1,90,false,stim,false,2,364,1,1,1,10556,WMM1,1675822,false,false,1983,image-keyboard-response,2
true,14,2,0,2,true,d,false,true,0.0-2.0-0.63-0.569-3.569,1,1,1,68,false,stim,false,2,630,1,1,2,10556,WMM1,1677981,false,false,1986,image-keyboard-response,3
true,14,0,0,0,true,q,false,true,0.0-2.0-0.63-0.570-3.570,1,1,1,81,false,stim,false,0,914,1,1,0,10556,WMM1,1680419,false,false,1989,image-keyboard-response,4
true,14,0,0,0,true,q,false,true,0.0-2.0-0.63-0.571-3.571,1,1,1,81,false,stim,false,0,517,1,1,0,10556,WMM1,1682474,false,false,1992,image-keyboard-response,5
true,14,2,0,2,true,d,false,true,0.0-2.0-0.63-0.572-3.572,1,1,1,68,false,stim,false,2,812,1,1,2,10556,WMM1,1684817,false,false,1995,image-keyboard-response,6
true,14,1,0,2,false,d,true,true,0.0-2.0-0.63-0.573-3.573,1,1,1,90,false,stim,false,2,501,1,1,1,10556,WMM1,1686853,false,true,1998,image-keyboard-response,7
true,14,0,0,0,true,q,false,true,0.0-2.0-0.63-0.574-3.574,1,1,1,81,false,stim,false,0,503,1,1,0,10556,WMM1,1688954,false,false,2001,image-keyboard-response,8
true,14,1,0,2,false,d,true,false,0.0-2.0-0.63-0.575-3.575,1,1,1,90,false,stim,false,2,655,1,1,1,10556,WMM1,1691132,false,false,2004,image-keyboard-response,9
true,14,0,0,2,false,d,true,false,0.0-2.0-0.64-0.576-3.576,1,1,1,81,false,stim,false,2,1144,1,1,1,10556,WMM1,1693804,false,false,2007,image-keyboard-response,10
true,14,2,0,2,true,d,false,true,0.0-2.0-0.64-0.577-3.577,1,1,1,68,false,stim,false,2,738,1,1,1,10556,WMM1,1696086,false,false,2010,image-keyboard-response,11
true,14,1,0,2,false,d,true,false,0.0-2.0-0.64-0.578-3.578,1,1,1,90,false,stim,false,2,1043,1,1,2,10556,WMM1,1698663,false,false,2013,image-keyboard-response,12
true,14,2,0,2,true,d,false,true,0.0-2.0-0.64-0.579-3.579,1,1,1,68,false,stim,false,2,791,1,1,1,10556,WMM1,1700996,false,false,2016,image-keyboard-response,13
true,14,2,0,2,true,d,false,true,0.0-2.0-0.64-0.580-3.580,1,1,1,68,false,stim,false,2,564,1,1,2,10556,WMM1,1703101,false,false,2019,image-keyboard-response,14
true,14,0,0,0,true,q,false,true,0.0-2.0-0.64-0.581-3.581,1,1,1,81,false,stim,false,0,633,1,1,0,10556,WMM1,1705271,false,false,2022,image-keyboard-response,15
true,14,0,0,0,true,q,false,true,0.0-2.0-0.64-0.582-3.582,1,1,1,81,false,stim,false,0,581,1,1,0,10556,WMM1,1707369,false,false,2025,image-keyboard-response,16
true,14,2,0,2,true,d,false,true,0.0-2.0-0.64-0.583-3.583,1,1,1,68,false,stim,false,2,681,1,1,2,10556,WMM1,1709587,false,false,2028,image-keyboard-response,17
true,14,0,0,0,true,q,false,true,0.0-2.0-0.64-0.584-3.584,1,1,1,81,false,stim,false,0,545,1,1,0,10556,WMM1,1711651,false,false,2031,image-keyboard-response,18
true,14,0,0,0,true,q,false,false,0.0-2.0-0.65-0.585-3.585,1,1,1,81,false,stim,false,0,616,1,1,0,10556,WMM1,1713805,false,true,2034,image-keyboard-response,19
true,14,2,0,2,true,d,false,true,0.0-2.0-0.65-0.586-3.586,1,1,1,68,false,stim,false,2,635,1,1,2,10556,WMM1,1715972,false,false,2037,image-keyboard-response,20
true,14,2,0,2,true,d,false,true,0.0-2.0-0.65-0.587-3.587,1,1,1,68,false,stim,false,2,823,1,0,1,10556,WMM1,1718350,false,false,2040,image-keyboard-response,21
true,14,2,0,2,true,d,false,true,0.0-2.0-0.65-0.588-3.588,1,1,1,68,false,stim,false,2,492,1,0,1,10556,WMM1,1720378,false,false,2043,image-keyboard-response,22
true,14,0,0,0,true,q,false,true,0.0-2.0-0.65-0.589-3.589,1,1,1,81,false,stim,false,0,670,1,0,0,10556,WMM1,1722586,false,false,2046,image-keyboard-response,23
true,14,2,0,2,true,d,false,true,0.0-2.0-0.65-0.590-3.590,1,1,1,68,false,stim,false,2,1153,1,0,1,10556,WMM1,1725259,false,false,2049,image-keyboard-response,24
true,14,2,0,2,true,d,false,true,0.0-2.0-0.65-0.591-3.591,1,1,1,68,false,stim,false,2,648,1,1,2,10556,WMM1,1727436,false,false,2052,image-keyboard-response,25
true,14,2,0,2,true,d,false,true,0.0-2.0-0.65-0.592-3.592,1,1,1,68,false,stim,false,2,596,1,1,2,10556,WMM1,1729567,false,false,2055,image-keyboard-response,26
true,14,0,0,0,true,q,false,false,0.0-2.0-0.65-0.593-3.593,1,1,1,81,false,stim,false,0,632,1,0,0,10556,WMM1,1731737,false,true,2058,image-keyboard-response,27
true,14,0,0,0,true,q,false,false,0.0-2.0-0.66-0.594-3.594,1,1,1,81,false,stim,false,0,1185,1,0,0,10556,WMM1,1734451,false,true,2061,image-keyboard-response,28
true,14,2,0,2,true,d,false,false,0.0-2.0-0.66-0.595-3.595,1,1,1,68,false,stim,false,2,679,1,1,2,10556,WMM1,1736666,false,true,2064,image-keyboard-response,29
true,14,2,0,2,true,d,false,true,0.0-2.0-0.66-0.596-3.596,1,1,1,68,false,stim,false,2,1414,1,0,1,10556,WMM1,1739620,false,false,2067,image-keyboard-response,30
true,15,1,3,2,false,d,true,false,0.0-2.0-0.66-0.597-3.597,0,0,1,90,true,stim,false,2,536,1,1,2,10556,WMM1,1741700,false,false,2070,image-keyboard-response,1
true,15,2,3,0,false,q,false,false,0.0-2.0-0.66-0.598-3.598,0,0,1,68,false,stim,true,2,1014,1,0,1,10556,WMM1,1744260,false,false,2073,image-keyboard-response,2
true,15,1,3,0,false,q,true,false,0.0-2.0-0.66-0.599-3.599,0,0,1,90,false,stim,false,2,771,1,0,1,10556,WMM1,1746566,false,false,2076,image-keyboard-response,3
true,15,2,3,2,true,d,false,true,0.0-2.0-0.66-0.600-3.600,0,0,1,68,false,stim,false,0,1999,1,0,0,10556,WMM1,1750106,false,false,2079,image-keyboard-response,4
true,15,1,3,2,false,d,true,false,0.0-2.0-0.66-0.601-3.601,0,0,1,90,false,stim,false,2,944,1,1,2,10556,WMM1,1752586,false,false,2082,image-keyboard-response,5
true,15,2,3,2,true,d,false,true,0.0-2.0-0.66-0.602-3.602,0,0,1,68,false,stim,false,0,670,1,0,0,10556,WMM1,1754776,false,false,2085,image-keyboard-response,6
true,15,2,3,2,true,d,false,true,0.0-2.0-0.67-0.603-3.603,0,0,1,68,false,stim,false,0,764,1,0,0,10556,WMM1,1757083,false,false,2088,image-keyboard-response,7
true,15,0,3,2,false,d,true,false,0.0-2.0-0.67-0.604-3.604,0,0,1,81,false,stim,false,2,604,1,1,2,10556,WMM1,1759227,false,false,2091,image-keyboard-response,8
true,15,2,3,2,true,d,false,true,0.0-2.0-0.67-0.605-3.605,0,0,1,68,false,stim,false,0,714,1,0,0,10556,WMM1,1761480,false,false,2094,image-keyboard-response,9
true,15,2,3,0,false,q,false,true,0.0-2.0-0.67-0.606-3.606,0,0,1,68,false,stim,true,2,1002,1,0,1,10556,WMM1,1764022,false,true,2097,image-keyboard-response,10
true,15,2,3,2,true,d,false,true,0.0-2.0-0.67-0.607-3.607,0,0,1,68,false,stim,false,2,1145,1,1,2,10556,WMM1,1766705,false,false,2100,image-keyboard-response,11
true,15,2,3,2,true,d,false,true,0.0-2.0-0.67-0.608-3.608,0,0,1,68,false,stim,false,2,648,1,1,2,10556,WMM1,1768927,false,false,2103,image-keyboard-response,12
true,15,2,3,0,false,q,false,true,0.0-2.0-0.67-0.609-3.609,0,0,1,68,false,stim,true,2,379,1,0,1,10556,WMM1,1770838,false,true,2106,image-keyboard-response,13
true,15,2,3,2,true,d,false,true,0.0-2.0-0.67-0.610-3.610,0,0,1,68,false,stim,false,0,378,1,0,0,10556,WMM1,1772764,false,false,2109,image-keyboard-response,14
true,15,2,3,0,false,q,false,false,0.0-2.0-0.67-0.611-3.611,0,0,1,68,false,stim,true,2,459,1,0,1,10556,WMM1,1774745,false,false,2112,image-keyboard-response,15
true,15,2,3,2,true,d,false,true,0.0-2.0-0.68-0.612-3.612,0,0,1,68,false,stim,false,0,862,1,0,0,10556,WMM1,1777129,false,false,2115,image-keyboard-response,16
true,15,1,3,2,false,d,true,false,0.0-2.0-0.68-0.613-3.613,0,0,1,90,false,stim,false,2,1204,1,1,2,10556,WMM1,1779869,false,false,2118,image-keyboard-response,17
true,15,2,3,2,true,d,false,true,0.0-2.0-0.68-0.614-3.614,0,0,1,68,false,stim,false,0,1053,1,0,0,10556,WMM1,1782450,false,false,2121,image-keyboard-response,18
true,15,2,3,0,false,q,false,true,0.0-2.0-0.68-0.615-3.615,0,0,1,68,false,stim,true,2,629,1,0,1,10556,WMM1,1784606,false,true,2124,image-keyboard-response,19
true,15,2,3,2,true,d,false,true,0.0-2.0-0.68-0.616-3.616,0,0,1,68,false,stim,false,0,636,1,0,0,10556,WMM1,1786782,false,false,2127,image-keyboard-response,20
true,15,2,3,2,true,d,false,false,0.0-2.0-0.68-0.617-3.617,0,0,1,68,false,stim,false,2,620,1,1,2,10556,WMM1,1788957,false,true,2130,image-keyboard-response,21
true,15,2,3,0,false,q,false,false,0.0-2.0-0.68-0.618-3.618,0,0,1,68,false,stim,true,2,538,1,0,1,10556,WMM1,1791036,false,false,2133,image-keyboard-response,22
true,15,2,3,0,false,q,false,false,0.0-2.0-0.68-0.619-3.619,0,0,1,68,false,stim,true,2,659,1,0,1,10556,WMM1,1793235,false,false,2136,image-keyboard-response,23
true,15,1,3,2,false,d,true,false,0.0-2.0-0.68-0.620-3.620,0,0,1,90,false,stim,false,2,910,1,1,2,10556,WMM1,1795686,false,false,2139,image-keyboard-response,24
true,15,1,3,0,false,q,true,false,0.0-2.0-0.69-0.621-3.621,0,0,1,90,false,stim,false,2,770,1,0,1,10556,WMM1,1798005,false,false,2142,image-keyboard-response,25
true,15,0,3,0,true,q,false,true,0.0-2.0-0.69-0.622-3.622,0,0,1,81,false,stim,false,2,561,1,0,1,10556,WMM1,1800117,false,false,2145,image-keyboard-response,26
true,15,2,3,2,true,d,false,true,0.0-2.0-0.69-0.623-3.623,0,0,1,68,false,stim,false,2,788,1,1,2,10556,WMM1,1802453,false,false,2148,image-keyboard-response,27
true,15,1,3,2,false,d,true,false,0.0-2.0-0.69-0.624-3.624,0,0,1,90,false,stim,false,0,776,1,0,0,10556,WMM1,1804788,false,false,2151,image-keyboard-response,28
true,15,2,3,2,true,d,false,true,0.0-2.0-0.69-0.625-3.625,0,0,1,68,false,stim,false,0,775,1,0,0,10556,WMM1,1807144,false,false,2154,image-keyboard-response,29
true,15,2,3,2,true,d,false,true,0.0-2.0-0.69-0.626-3.626,0,0,1,68,false,stim,false,0,781,1,0,0,10556,WMM1,1809466,false,false,2157,image-keyboard-response,30
true,15,2,3,2,true,d,false,false,0.0-2.0-0.69-0.627-3.627,0,0,1,68,false,stim,false,2,682,1,1,2,10556,WMM1,1811681,false,true,2160,image-keyboard-response,31
true,15,0,3,2,false,d,true,false,0.0-2.0-0.69-0.628-3.628,0,0,1,81,false,stim,false,2,835,1,1,2,10556,WMM1,1814075,false,false,2163,image-keyboard-response,32
true,15,0,3,0,true,q,false,true,0.0-2.0-0.69-0.629-3.629,0,0,1,81,false,stim,false,2,1188,1,0,1,10556,WMM1,1816805,false,false,2166,image-keyboard-response,33
true,15,2,3,2,true,d,false,true,0.0-2.0-0.70-0.630-3.630,0,0,1,68,false,stim,false,0,1043,1,0,0,10556,WMM1,1819393,false,false,2169,image-keyboard-response,34
true,15,2,3,2,true,d,false,true,0.0-2.0-0.70-0.631-3.631,0,0,1,68,false,stim,false,0,480,1,0,0,10556,WMM1,1821417,false,false,2172,image-keyboard-response,35
true,15,0,3,0,true,q,false,false,0.0-2.0-0.70-0.632-3.632,0,0,1,81,false,stim,false,2,1189,1,0,1,10556,WMM1,1824154,false,true,2175,image-keyboard-response,36
true,15,1,3,0,false,q,true,false,0.0-2.0-0.70-0.633-3.633,0,0,1,90,false,stim,false,2,759,1,0,1,10556,WMM1,1826455,false,false,2178,image-keyboard-response,37
true,15,0,3,0,true,q,false,true,0.0-2.0-0.70-0.634-3.634,0,0,1,81,false,stim,false,2,458,1,0,1,10556,WMM1,1828459,false,false,2181,image-keyboard-response,38
true,15,2,3,2,true,d,false,true,0.0-2.0-0.70-0.635-3.635,0,0,1,68,false,stim,false,0,1121,1,0,0,10556,WMM1,1831123,false,false,2184,image-keyboard-response,39
true,15,1,3,2,false,d,true,false,0.0-2.0-0.70-0.636-3.636,0,0,1,90,false,stim,false,2,494,1,1,2,10556,WMM1,1833190,false,false,2187,image-keyboard-response,40
