answered,blockNum,choice,condition,corResp,correct,correct_response,explo,fb,internal_node_id,isStable_1,isStable_2,isStable_3,key_press,newBlock,part,persev,persevResp,rt,sessNum,stableAS,stimulus,subject,task,time_elapsed,training,trap,trial_index,trial_type,trialsInBlock
true,1,0,0,1,false,z,true,true,0.0-2.0-0.0-0.0-3.0,0,0,0,81,true,stim,false,-1,1892.4300000071526,1,0,2,14312,WMM1,104402,false,true,103,image-keyboard-response,1
true,1,1,0,0,false,q,true,false,0.0-2.0-0.0-0.1-3.1,0,0,0,90,false,stim,false,-1,698.3049999689683,1,0,1,14312,WMM1,106611,false,false,106,image-keyboard-response,2
true,1,2,0,0,false,q,true,false,0.0-2.0-0.0-0.2-3.2,0,0,0,68,false,stim,false,-1,1132.7600000076927,1,0,1,14312,WMM1,109261,false,false,109,image-keyboard-response,3
true,1,1,0,2,false,d,true,true,0.0-2.0-0.0-0.3-3.3,0,0,0,90,false,stim,false,-1,672.0799999893643,1,0,0,14312,WMM1,111444,false,true,112,image-keyboard-response,4
true,1,0,0,0,true,q,false,true,0.0-2.0-0.0-0.4-3.4,0,0,0,81,false,stim,false,-1,587.3200000496581,1,0,1,14312,WMM1,113549,false,false,115,image-keyboard-response,5
true,1,0,0,1,false,z,true,false,0.0-2.0-0.0-0.5-3.5,0,0,0,81,false,stim,false,-1,484.5249999780208,1,0,2,14312,WMM1,115562,false,false,118,image-keyboard-response,6
true,1,1,0,2,false,d,true,false,0.0-2.0-0.0-0.6-3.6,0,0,0,90,false,stim,false,-1,677.5800000177696,1,0,0,14312,WMM1,117769,false,false,121,image-keyboard-response,7
true,1,2,0,1,false,z,true,false,0.0-2.0-0.0-0.7-3.7,0,0,0,68,false,stim,false,-1,1203.3850000007078,1,0,2,14312,WMM1,120483,false,false,124,image-keyboard-response,8
true,1,0,0,2,false,d,true,false,0.0-2.0-0.0-0.8-3.8,0,0,0,81,false,stim,false,-1,1685.1249999599531,1,0,0,14312,WMM1,123685,false,false,127,image-keyboard-response,9
true,1,0,0,0,true,q,false,true,0.0-2.0-0.1-0.9-3.9,0,0,0,81,false,stim,false,-1,670.1649999595247,1,0,1,14312,WMM1,125866,false,false,130,image-keyboard-response,10
true,1,1,0,2,false,d,true,false,0.0-2.0-0.1-0.10-3.10,0,0,0,90,false,stim,false,-1,772.7850000374019,1,0,0,14312,WMM1,128160,false,false,133,image-keyboard-response,11
true,1,1,0,1,true,z,false,false,0.0-2.0-0.1-0.11-3.11,0,0,0,90,false,stim,false,-1,1514.9850000161678,1,0,2,14312,WMM1,131194,false,true,136,image-keyboard-response,12
true,1,2,0,2,true,d,false,true,0.0-2.0-0.1-0.12-3.12,0,0,0,68,false,stim,false,-1,846.0150000173599,1,0,0,14312,WMM1,133561,false,false,139,image-keyboard-response,13
true,1,2,0,1,false,z,true,false,0.0-2.0-0.1-0.13-3.13,0,0,0,68,false,stim,false,-1,410.75500001898035,1,0,2,14312,WMM1,135483,false,false,142,image-keyboard-response,14
true,1,2,0,2,true,d,false,false,0.0-2.0-0.1-0.14-3.14,0,0,0,68,false,stim,false,-1,805.240000016056,1,0,0,14312,WMM1,137798,false,true,145,image-keyboard-response,15
true,1,0,0,1,false,z,true,false,0.0-2.0-0.1-0.15-3.15,0,0,0,81,false,stim,false,-1,982.4399999924935,1,0,2,14312,WMM1,140303,false,false,148,image-keyboard-response,16
true,1,0,0,0,true,q,false,true,0.0-2.0-0.1-0.16-3.16,0,0,0,81,false,stim,false,-1,753.2500000088476,1,0,1,14312,WMM1,142572,false,false,151,image-keyboard-response,17
true,1,0,0,0,true,q,false,true,0.0-2.0-0.1-0.17-3.17,0,0,0,81,false,stim,false,-1,586.5750000230037,1,0,1,14312,WMM1,144671,false,false,154,image-keyboard-response,18
true,1,1,0,1,true,z,false,true,0.0-2.0-0.2-0.18-3.18,0,0,0,90,false,stim,false,-1,737.0750000118278,1,0,2,14312,WMM1,146933,false,false,157,image-keyboard-response,19
true,1,1,0,2,false,d,true,false,0.0-2.0-0.2-0.19-3.19,0,0,0,90,false,stim,false,-1,1046.7400000197813,1,0,0,14312,WMM1,149493,false,false,160,image-keyboard-response,20
true,1,1,0,1,true,z,false,true,0.0-2.0-0.2-0.20-3.20,0,0,0,90,false,stim,false,-1,621.9500000006519,1,0,2,14312,WMM1,151634,false,false,163,image-keyboard-response,21
true,1,2,0,2,true,d,false,true,0.0-2.0-0.2-0.21-3.21,0,0,0,68,false,stim,false,-1,529.1649999562651,1,0,0,14312,WMM1,153680,false,false,166,image-keyboard-response,22
true,1,0,0,0,true,q,false,true,0.0-2.0-0.2-0.22-3.22,0,0,0,81,false,stim,false,-1,666.2950000027195,1,0,1,14312,WMM1,155867,false,false,169,image-keyboard-response,23
true,1,2,0,2,true,d,false,true,0.0-2.0-0.2-0.23-3.23,0,0,0,68,false,stim,false,-1,458.7300000130199,1,0,0,14312,WMM1,157843,false,false,172,image-keyboard-response,24
true,1,0,0,0,true,q,false,true,0.0-2.0-0.2-0.24-3.24,0,0,0,81,false,stim,false,-1,564.0600000042468,1,0,1,14312,WMM1,159934,false,false,175,image-keyboard-response,25
true,1,1,0,1,true,z,false,false,0.0-2.0-0.2-0.25-3.25,0,0,0,90,false,stim,false,-1,1056.1849999940023,1,0,2,14312,WMM1,162512,false,true,178,image-keyboard-response,26
true,1,0,0,0,true,q,false,true,0.0-2.0-0.2-0.26-3.26,0,0,0,81,false,stim,false,-1,811.2700000056066,1,0,1,14312,WMM1,164843,false,false,181,image-keyboard-response,27
true,1,2,0,1,false,z,true,false,0.0-2.0-0.3-0.27-3.27,0,0,0,68,false,stim,false,-1,879.5650000101887,1,0,2,14312,WMM1,167231,false,false,184,image-keyboard-response,28
true,1,2,0,2,true,d,false,true,0.0-2.0-0.3-0.28-3.28,0,0,0,68,false,stim,false,-1,457.1599999908358,1,0,0,14312,WMM1,169208,false,false,187,image-keyboard-response,29
true,1,0,0,0,true,q,false,true,0.0-2.0-0.3-0.29-3.29,0,0,0,81,false,stim,false,-1,623.8299999968149,1,0,1,14312,WMM1,171348,false,false,190,image-keyboard-response,30
true,1,0,0,0,true,q,false,true,0.0-2.0-0.3-0.30-3.30,0,0,0,81,false,stim,false,-1,598.2000000076368,1,0,1,14312,WMM1,173472,false,false,193,image-keyboard-response,31
true,1,0,0,0,true,q,false,true,0.0-2.0-0.3-0.31-3.31,0,0,0,81,false,stim,false,-1,449.95499996002764,1,0,1,14312,WMM1,175448,false,false,196,image-keyboard-response,32
true,1,2,0,2,true,d,false,true,0.0-2.0-0.3-0.32-3.32,0,0,0,68,false,stim,false,-1,1988.0750000011176,1,0,0,14312,WMM1,178955,false,false,199,image-keyboard-response,33
true,1,2,0,2,true,d,false,true,0.0-2.0-0.3-0.33-3.33,0,0,0,68,false,stim,false,-1,557.8600000008009,1,0,0,14312,WMM1,181037,false,false,202,image-keyboard-response,34
true,2,2,1,0,false,q,true,false,0.0-2.0-0.3-0.34-3.34,0,0,0,68,true,stim,false,1,1242.3350000171922,1,0,2,14312,WMM1,183808,false,false,205,image-keyboard-response,1
true,2,1,1,0,false,q,false,false,0.0-2.0-0.3-0.35-3.35,0,0,0,90,false,stim,true,1,1229.315000004135,1,0,2,14312,WMM1,186554,false,false,208,image-keyboard-response,2
true,2,0,1,2,false,d,false,false,0.0-2.0-0.4-0.36-3.36,0,0,0,81,false,stim,true,0,500.56000001495704,1,0,1,14312,WMM1,188563,false,false,211,image-keyboard-response,3
true,2,0,1,0,true,q,false,true,0.0-2.0-0.4-0.37-3.37,0,0,0,81,false,stim,false,1,533.3300000056624,1,0,2,14312,WMM1,190618,false,false,214,image-keyboard-response,4
true,2,2,1,1,false,z,false,false,0.0-2.0-0.4-0.38-3.38,0,0,0,68,false,stim,true,2,1905.9050000505522,1,0,0,14312,WMM1,194050,false,false,217,image-keyboard-response,5
true,2,1,1,1,true,z,false,true,0.0-2.0-0.4-0.39-3.39,0,0,0,90,false,stim,false,2,1175.0749999773689,1,0,0,14312,WMM1,196740,false,false,220,image-keyboard-response,6
true,2,1,1,2,false,d,true,false,0.0-2.0-0.4-0.40-3.40,0,0,0,90,false,stim,false,0,1742.740000016056,1,0,1,14312,WMM1,200005,false,false,223,image-keyboard-response,7
true,2,1,1,1,true,z,false,true,0.0-2.0-0.4-0.41-3.41,0,0,0,90,false,stim,false,2,950.6050000200048,1,0,0,14312,WMM1,202472,false,false,226,image-keyboard-response,8
true,2,2,1,2,true,d,false,true,0.0-2.0-0.4-0.42-3.42,0,0,0,68,false,stim,false,0,453.63000000361353,1,0,1,14312,WMM1,204450,false,false,229,image-keyboard-response,9
true,2,0,1,0,true,q,false,true,0.0-2.0-0.4-0.43-3.43,0,0,0,81,false,stim,false,1,632.819999998901,1,0,2,14312,WMM1,206602,false,false,232,image-keyboard-response,10
true,2,0,1,0,true,q,false,true,0.0-2.0-0.4-0.44-3.44,0,0,0,81,false,stim,false,1,469.6049999911338,1,0,2,14312,WMM1,208581,false,false,235,image-keyboard-response,11
true,2,1,1,1,true,z,false,true,0.0-2.0-0.5-0.45-3.45,0,0,0,90,false,stim,false,2,1336.5650000050664,1,0,0,14312,WMM1,211438,false,false,238,image-keyboard-response,12
true,2,2,1,0,false,q,true,false,0.0-2.0-0.5-0.46-3.46,0,0,0,68,false,stim,false,1,678.2649999950081,1,0,2,14312,WMM1,213637,false,false,241,image-keyboard-response,13
true,2,0,1,2,false,d,false,false,0.0-2.0-0.5-0.47-3.47,0,0,0,81,false,stim,true,0,613.2649999926798,1,0,1,14312,WMM1,215757,false,false,244,image-keyboard-response,14
true,2,1,1,0,false,q,false,false,0.0-2.0-0.5-0.48-3.48,0,0,0,90,false,stim,true,1,791.1800000001676,1,0,2,14312,WMM1,218063,false,false,247,image-keyboard-response,15
true,2,0,1,1,false,z,true,false,0.0-2.0-0.5-0.49-3.49,0,0,0,81,false,stim,false,2,1018.5049999854527,1,0,0,14312,WMM1,220602,false,false,250,image-keyboard-response,16
true,2,1,1,2,false,d,true,false,0.0-2.0-0.5-0.50-3.50,0,0,0,90,false,stim,false,0,695.2299999538809,1,0,1,14312,WMM1,222807,false,false,253,image-keyboard-response,17
true,2,1,1,0,false,q,false,true,0.0-2.0-0.5-0.51-3.51,0,0,0,90,false,stim,true,1,1335.1799999945797,1,0,2,14312,WMM1,225660,false,true,256,image-keyboard-response,18
true,2,2,1,2,true,d,false,true,0.0-2.0-0.5-0.52-3.52,0,0,0,68,false,stim,false,0,1867.4599999794737,1,0,1,14312,WMM1,229041,false,false,259,image-keyboard-response,19
true,2,0,1,1,false,z,true,true,0.0-2.0-0.5-0.53-3.53,0,0,0,81,false,stim,false,2,684.3750000116415,1,0,0,14312,WMM1,231243,false,true,262,image-keyboard-response,20
true,2,1,1,0,false,q,false,false,0.0-2.0-0.6-0.54-3.54,0,0,0,90,false,stim,true,1,1101.6700000036508,1,0,2,14312,WMM1,233865,false,false,265,image-keyboard-response,21
true,2,0,1,1,false,z,true,true,0.0-2.0-0.6-0.55-3.55,0,0,0,81,false,stim,false,2,799.7900000191294,1,0,0,14312,WMM1,236178,false,true,268,image-keyboard-response,22
true,2,2,1,0,false,q,true,false,0.0-2.0-0.6-0.56-3.56,0,0,0,68,false,stim,false,1,1137.125000008382,1,0,2,14312,WMM1,238833,false,false,271,image-keyboard-response,23
true,2,0,1,1,false,z,true,false,0.0-2.0-0.6-0.57-3.57,0,0,0,81,false,stim,false,2,700.2799999900162,1,0,0,14312,WMM1,241054,false,false,274,image-keyboard-response,24
true,2,1,1,2,false,d,true,true,0.0-2.0-0.6-0.58-3.58,0,0,0,90,false,stim,false,0,958.379999967292,1,0,1,14312,WMM1,243528,false,true,277,image-keyboard-response,25
true,2,1,1,1,true,z,false,true,0.0-2.0-0.6-0.59-3.59,0,0,0,90,false,stim,false,2,1664.615000016056,1,0,0,14312,WMM1,246713,false,false,280,image-keyboard-response,26
true,2,1,1,2,false,d,true,true,0.0-2.0-0.6-0.60-3.60,0,0,0,90,false,stim,false,0,644.1350000095554,1,0,1,14312,WMM1,248869,false,true,283,image-keyboard-response,27
true,2,2,1,0,false,q,true,true,0.0-2.0-0.6-0.61-3.61,0,0,0,68,false,stim,false,1,1312.1800000080839,1,0,2,14312,WMM1,251692,false,true,286,image-keyboard-response,28
true,2,1,1,2,false,d,true,false,0.0-2.0-0.6-0.62-3.62,0,0,0,90,false,stim,false,0,548.8599999807775,1,0,1,14312,WMM1,253763,false,false,289,image-keyboard-response,29
true,2,2,1,0,false,q,true,false,0.0-2.0-0.7-0.63-3.63,0,0,0,68,false,stim,false,1,1192.2149999882095,1,0,2,14312,WMM1,256466,false,false,292,image-keyboard-response,30
true,2,1,1,2,false,d,true,true,0.0-2.0-0.7-0.64-3.64,0,0,0,90,false,stim,false,0,469.96999997645617,1,0,1,14312,WMM1,258457,false,true,295,image-keyboard-response,31
true,2,0,1,1,false,z,true,false,0.0-2.0-0.7-0.65-3.65,0,0,0,81,false,stim,false,2,1516.1100000259466,1,0,0,14312,WMM1,261497,false,false,298,image-keyboard-response,32
true,2,1,1,2,false,d,true,false,0.0-2.0-0.7-0.66-3.66,0,0,0,90,false,stim,false,0,445.4849999747239,1,0,1,14312,WMM1,263465,false,false,301,image-keyboard-response,33
true,2,0,1,2,false,d,false,false,0.0-2.0-0.7-0.67-3.67,0,0,0,81,false,stim,true,0,718.4400000260212,1,0,1,14312,WMM1,265701,false,false,304,image-keyboard-response,34
true,2,1,1,0,false,q,false,false,0.0-2.0-0.7-0.68-3.68,0,0,0,90,false,stim,true,1,922.2999999765307,1,0,2,14312,WMM1,268143,false,false,307,image-keyboard-response,35
true,2,1,1,1,true,z,false,true,0.0-2.0-0.7-0.69-3.69,0,0,0,90,false,stim,false,2,962.874999968335,1,0,0,14312,WMM1,270619,false,false,310,image-keyboard-response,36
true,2,2,1,0,false,q,true,false,0.0-2.0-0.7-0.70-3.70,0,0,0,68,false,stim,false,1,1179.1400000220165,1,0,2,14312,WMM1,273316,false,false,313,image-keyboard-response,37
true,2,1,1,1,true,z,false,true,0.0-2.0-0.7-0.71-3.71,0,0,0,90,false,stim,false,2,597.6099999970756,1,0,0,14312,WMM1,275424,false,false,316,image-keyboard-response,38
true,2,1,1,1,true,z,false,true,0.0-2.0-0.8-0.72-3.72,0,0,0,90,false,stim,false,2,1097.0350000425242,1,0,0,14312,WMM1,278035,false,false,319,image-keyboard-response,39
true,2,1,1,2,false,d,true,false,0.0-2.0-0.8-0.73-3.73,0,0,0,90,false,stim,false,0,987.9549999604933,1,0,1,14312,WMM1,280541,false,false,322,image-keyboard-response,40
true,2,0,1,0,true,q,false,true,0.0-2.0-0.8-0.74-3.74,0,0,0,81,false,stim,false,1,800.8949999930337,1,0,2,14312,WMM1,282855,false,false,325,image-keyboard-response,41
true,2,2,1,2,true,d,false,true,0.0-2.0-0.8-0.75-3.75,0,0,0,68,false,stim,false,0,1583.4350000368431,1,0,1,14312,WMM1,285959,false,false,328,image-keyboard-response,42
true,2,0,1,0,true,q,false,true,0.0-2.0-0.8-0.76-3.76,0,0,0,81,false,stim,false,1,869.0650000353344,1,0,2,14312,WMM1,288342,false,false,331,image-keyboard-response,43
true,2,1,1,1,true,z,false,true,0.0-2.0-0.8-0.77-3.77,0,0,0,90,false,stim,false,2,928.9850000059232,1,0,0,14312,WMM1,290794,false,false,334,image-keyboard-response,44
true,2,1,1,1,true,z,false,true,0.0-2.0-0.8-0.78-3.78,0,0,0,90,false,stim,false,2,411.7600000463426,1,0,0,14312,WMM1,292731,false,false,337,image-keyboard-response,45
true,2,0,1,2,false,d,false,false,0.0-2.0-0.8-0.79-3.79,0,0,0,81,false,stim,true,0,1617.7350000361912,1,0,1,14312,WMM1,295876,false,false,340,image-keyboard-response,46
true,2,2,1,0,false,q,true,true,0.0-2.0-0.8-0.80-3.80,0,0,0,68,false,stim,false,1,1346.3450000272132,1,0,2,14312,WMM1,298731,false,true,343,image-keyboard-response,47
true,2,0,1,2,false,d,false,true,0.0-2.0-0.9-0.81-3.81,0,0,0,81,false,stim,true,0,774.7849999577738,1,0,1,14312,WMM1,301019,false,true,346,image-keyboard-response,48
true,2,1,1,1,true,z,false,true,0.0-2.0-0.9-0.82-3.82,0,0,0,90,false,stim,false,2,884.4699999899603,1,0,0,14312,WMM1,303419,false,false,349,image-keyboard-response,49
true,2,0,1,2,false,d,false,false,0.0-2.0-0.9-0.83-3.83,0,0,0,81,false,stim,true,0,678.940000012517,1,0,1,14312,WMM1,305612,false,false,352,image-keyboard-response,50
true,2,1,1,2,false,d,true,false,0.0-2.0-0.9-0.84-3.84,0,0,0,90,false,stim,false,0,1029.515000001993,1,0,1,14312,WMM1,308152,false,false,355,image-keyboard-response,51
true,2,1,1,1,true,z,false,true,0.0-2.0-0.9-0.85-3.85,0,0,0,90,false,stim,false,2,1145.9349999786355,1,1,0,14312,WMM1,310812,false,false,358,image-keyboard-response,52
true,2,2,1,0,false,q,true,false,0.0-2.0-0.9-0.86-3.86,0,0,0,68,false,stim,false,1,946.0149999940768,1,0,2,14312,WMM1,313279,false,false,361,image-keyboard-response,53
true,2,1,1,0,false,q,false,false,0.0-2.0-0.9-0.87-3.87,0,0,0,90,false,stim,true,1,1164.4349999842234,1,0,2,14312,WMM1,315966,false,false,364,image-keyboard-response,54
true,2,0,1,1,false,z,true,false,0.0-2.0-0.9-0.88-3.88,0,0,0,81,false,stim,false,2,1259.9049999844283,1,1,0,14312,WMM1,318745,false,false,367,image-keyboard-response,55
true,2,2,1,0,false,q,true,false,0.0-2.0-0.9-0.89-3.89,0,0,0,68,false,stim,false,1,1198.4200000297278,1,0,2,14312,WMM1,321450,false,false,370,image-keyboard-response,56
true,2,1,1,0,false,q,false,false,0.0-2.0-0.10-0.90-3.90,0,0,0,90,false,stim,true,1,834.244999976363,1,0,2,14312,WMM1,323794,false,false,373,image-keyboard-response,57
true,2,0,1,2,false,d,false,false,0.0-2.0-0.10-0.91-3.91,0,0,0,81,false,stim,true,0,432.654999953229,1,0,1,14312,WMM1,325754,false,false,376,image-keyboard-response,58
true,2,1,1,1,true,z,false,true,0.0-2.0-0.10-0.92-3.92,0,0,0,90,false,stim,false,2,652.9299999820068,1,1,0,14312,WMM1,327927,false,false,379,image-keyboard-response,59
true,2,1,1,1,true,z,false,true,0.0-2.0-0.10-0.93-3.93,0,0,0,90,false,stim,false,2,561.7400000337511,1,1,0,14312,WMM1,330018,false,false,382,image-keyboard-response,60
true,3,2,3,0,false,q,false,false,0.0-2.0-0.10-0.94-3.94,1,0,0,68,true,stim,true,2,1029.2600000393577,1,0,1,14312,WMM1,332577,false,false,385,image-keyboard-response,1
true,3,0,3,1,false,z,false,false,0.0-2.0-0.10-0.95-3.95,1,0,0,81,false,stim,true,0,1267.7499999990687,1,0,2,14312,WMM1,335360,false,false,388,image-keyboard-response,2
true,3,1,3,1,true,z,false,true,0.0-2.0-0.10-0.96-3.96,1,0,0,90,false,stim,false,0,2393.210000009276,1,0,2,14312,WMM1,339275,false,false,391,image-keyboard-response,3
true,3,1,3,0,false,q,true,false,0.0-2.0-0.10-0.97-3.97,1,0,0,90,false,stim,false,2,1189.1699999687262,1,0,1,14312,WMM1,341981,false,false,394,image-keyboard-response,4
true,3,1,3,1,true,z,false,true,0.0-2.0-0.10-0.98-3.98,1,0,0,90,false,stim,false,1,873.1299999635667,1,1,0,14312,WMM1,344371,false,false,397,image-keyboard-response,5
true,3,1,3,0,false,q,true,false,0.0-2.0-0.11-0.99-3.99,1,0,0,90,false,stim,false,2,469.8849999695085,1,0,1,14312,WMM1,346359,false,false,400,image-keyboard-response,6
true,3,2,3,0,false,q,false,false,0.0-2.0-0.11-0.100-3.100,1,0,0,68,false,stim,true,2,1317.3899999819696,1,0,1,14312,WMM1,349200,false,false,403,image-keyboard-response,7
true,3,1,3,1,true,z,false,true,0.0-2.0-0.11-0.101-3.101,1,0,0,90,false,stim,false,1,810.8800000045449,1,1,0,14312,WMM1,351528,false,false,406,image-keyboard-response,8
true,3,1,3,1,true,z,false,true,0.0-2.0-0.11-0.102-3.102,1,0,0,90,false,stim,false,1,571.6450000181794,1,1,0,14312,WMM1,353610,false,false,409,image-keyboard-response,9
true,3,1,3,1,true,z,false,true,0.0-2.0-0.11-0.103-3.103,1,0,0,90,false,stim,false,1,425.52000004798174,1,1,0,14312,WMM1,355562,false,false,412,image-keyboard-response,10
true,3,0,3,0,true,q,false,true,0.0-2.0-0.11-0.104-3.104,1,0,0,81,false,stim,false,2,630.890000029467,1,0,1,14312,WMM1,357706,false,false,415,image-keyboard-response,11
true,3,2,3,1,false,z,true,false,0.0-2.0-0.11-0.105-3.105,1,0,0,68,false,stim,false,0,1567.5750000518747,1,0,2,14312,WMM1,360790,false,false,418,image-keyboard-response,12
true,3,0,3,1,false,z,false,false,0.0-2.0-0.11-0.106-3.106,1,0,0,81,false,stim,true,0,583.1349999643862,1,0,2,14312,WMM1,362885,false,false,421,image-keyboard-response,13
true,3,1,3,1,true,z,false,true,0.0-2.0-0.11-0.107-3.107,1,0,0,90,false,stim,false,0,597.3900000099093,1,0,2,14312,WMM1,365005,false,false,424,image-keyboard-response,14
true,3,0,3,0,true,q,false,true,0.0-2.0-0.12-0.108-3.108,1,0,0,81,false,stim,false,2,1017.0650000218302,1,0,1,14312,WMM1,367541,false,false,427,image-keyboard-response,15
true,3,1,3,1,true,z,false,true,0.0-2.0-0.12-0.109-3.109,1,0,0,90,false,stim,false,1,852.4399999878369,1,1,0,14312,WMM1,369902,false,false,430,image-keyboard-response,16
true,3,0,3,0,true,q,false,true,0.0-2.0-0.12-0.110-3.110,1,0,0,81,false,stim,false,2,692.8499999921769,1,0,1,14312,WMM1,372107,false,false,433,image-keyboard-response,17
true,3,0,3,0,true,q,false,false,0.0-2.0-0.12-0.111-3.111,1,0,0,81,false,stim,false,2,605.6550000212155,1,0,1,14312,WMM1,374235,false,true,436,image-keyboard-response,18
true,3,1,3,1,true,z,false,true,0.0-2.0-0.12-0.112-3.112,1,0,0,90,false,stim,false,1,515.9700000076555,1,1,0,14312,WMM1,376269,false,false,439,image-keyboard-response,19
true,3,1,3,1,true,z,false,true,0.0-2.0-0.12-0.113-3.113,1,0,0,90,false,stim,false,0,606.8700000178069,1,0,2,14312,WMM1,378401,false,false,442,image-keyboard-response,20
true,3,1,3,1,true,z,false,true,0.0-2.0-0.12-0.114-3.114,1,0,0,90,false,stim,false,1,459.61000001989305,1,0,0,14312,WMM1,380379,false,false,445,image-keyboard-response,21
true,3,1,3,1,true,z,false,true,0.0-2.0-0.12-0.115-3.115,1,0,0,90,false,stim,false,0,395.68999997572973,1,0,2,14312,WMM1,382290,false,false,448,image-keyboard-response,22
true,3,1,3,1,true,z,false,true,0.0-2.0-0.12-0.116-3.116,1,0,0,90,false,stim,false,0,424.34500000672415,1,0,2,14312,WMM1,384227,false,false,451,image-keyboard-response,23
true,3,1,3,1,true,z,false,true,0.0-2.0-0.13-0.117-3.117,1,0,0,90,false,stim,false,1,441.17999996524304,1,0,0,14312,WMM1,386189,false,false,454,image-keyboard-response,24
true,3,1,3,1,true,z,false,false,0.0-2.0-0.13-0.118-3.118,1,0,0,90,false,stim,false,1,360.60000001452863,1,0,0,14312,WMM1,388077,false,true,457,image-keyboard-response,25
true,3,0,3,1,false,z,true,false,0.0-2.0-0.13-0.119-3.119,1,0,0,81,false,stim,false,1,772.5900000077672,1,0,0,14312,WMM1,390366,false,false,460,image-keyboard-response,26
true,3,2,3,0,false,q,false,false,0.0-2.0-0.13-0.120-3.120,1,0,0,68,false,stim,true,2,1859.679999994114,1,0,1,14312,WMM1,393752,false,false,463,image-keyboard-response,27
true,3,1,3,1,true,z,false,true,0.0-2.0-0.13-0.121-3.121,1,0,0,90,false,stim,false,0,619.2499999888241,1,0,2,14312,WMM1,395892,false,false,466,image-keyboard-response,28
true,3,1,3,1,true,z,false,false,0.0-2.0-0.13-0.122-3.122,1,0,0,90,false,stim,false,0,469.97500001452863,1,0,2,14312,WMM1,397881,false,true,469,image-keyboard-response,29
true,3,0,3,1,false,z,false,false,0.0-2.0-0.13-0.123-3.123,1,0,0,81,false,stim,true,0,1073.2450000359677,1,0,2,14312,WMM1,400480,false,false,472,image-keyboard-response,30
true,4,0,4,1,false,z,false,false,0.0-2.0-0.13-0.124-3.124,0,0,0,81,true,stim,true,0,872.0650000032037,1,0,1,14312,WMM1,402866,false,false,475,image-keyboard-response,1
true,4,2,4,1,false,z,true,false,0.0-2.0-0.13-0.125-3.125,0,0,0,68,false,stim,false,0,1176.4100000145845,1,0,1,14312,WMM1,405558,false,false,478,image-keyboard-response,2
true,4,2,4,2,true,d,false,true,0.0-2.0-0.14-0.126-3.126,0,0,0,68,false,stim,false,1,761.6649999981746,1,0,2,14312,WMM1,407839,false,false,481,image-keyboard-response,3
true,4,0,4,1,false,z,false,false,0.0-2.0-0.14-0.127-3.127,0,0,0,81,false,stim,true,0,854.0400000056252,1,0,1,14312,WMM1,410214,false,false,484,image-keyboard-response,4
true,4,1,4,0,false,q,false,true,0.0-2.0-0.14-0.128-3.128,0,0,0,90,false,stim,true,1,1391.150000039488,1,0,0,14312,WMM1,413127,false,true,487,image-keyboard-response,5
true,4,1,4,0,false,q,false,false,0.0-2.0-0.14-0.129-3.129,0,0,0,90,false,stim,true,1,518.3149999938905,1,0,0,14312,WMM1,415166,false,false,490,image-keyboard-response,6
true,4,2,4,2,true,d,false,true,0.0-2.0-0.14-0.130-3.130,0,0,0,68,false,stim,false,1,1584.4149999902584,1,0,2,14312,WMM1,418264,false,false,493,image-keyboard-response,7
true,4,2,4,2,true,d,false,true,0.0-2.0-0.14-0.131-3.131,0,0,0,68,false,stim,false,1,882.3950000223704,1,0,2,14312,WMM1,420666,false,false,496,image-keyboard-response,8
true,4,0,4,1,false,z,false,false,0.0-2.0-0.14-0.132-3.132,0,0,0,81,false,stim,true,0,1011.1600000527687,1,0,1,14312,WMM1,423198,false,false,499,image-keyboard-response,9
true,4,2,4,1,false,z,true,true,0.0-2.0-0.14-0.133-3.133,0,0,0,68,false,stim,false,0,488.68499998934567,1,0,1,14312,WMM1,425204,false,true,502,image-keyboard-response,10
true,4,2,4,0,false,q,true,false,0.0-2.0-0.14-0.134-3.134,0,0,0,68,false,stim,false,1,772.8800000040792,1,0,0,14312,WMM1,427504,false,false,505,image-keyboard-response,11
true,4,1,4,0,false,q,false,false,0.0-2.0-0.15-0.135-3.135,0,0,0,90,false,stim,true,1,1013.0199999548495,1,0,0,14312,WMM1,430036,false,false,508,image-keyboard-response,12
true,4,0,4,0,true,q,false,true,0.0-2.0-0.15-0.136-3.136,0,0,0,81,false,stim,false,1,706.865000014659,1,0,0,14312,WMM1,432264,false,false,511,image-keyboard-response,13
true,4,2,4,1,false,z,true,false,0.0-2.0-0.15-0.137-3.137,0,0,0,68,false,stim,false,0,477.7750000357628,1,0,1,14312,WMM1,434258,false,false,514,image-keyboard-response,14
true,4,1,4,1,true,z,false,true,0.0-2.0-0.15-0.138-3.138,0,0,0,90,false,stim,false,0,1811.0449999803677,1,0,1,14312,WMM1,437586,false,false,517,image-keyboard-response,15
true,4,2,4,2,true,d,false,false,0.0-2.0-0.15-0.139-3.139,0,0,0,68,false,stim,false,1,606.8649999797344,1,0,2,14312,WMM1,439702,false,true,520,image-keyboard-response,16
true,4,1,4,2,false,d,false,false,0.0-2.0-0.15-0.140-3.140,0,0,0,90,false,stim,true,1,413.4900000062771,1,0,2,14312,WMM1,441640,false,false,523,image-keyboard-response,17
true,4,1,4,1,true,z,false,true,0.0-2.0-0.15-0.141-3.141,0,0,0,90,false,stim,false,0,1367.385000048671,1,0,1,14312,WMM1,444537,false,false,526,image-keyboard-response,18
true,4,0,4,0,true,q,false,true,0.0-2.0-0.15-0.142-3.142,0,0,0,81,false,stim,false,1,898.444999998901,1,0,0,14312,WMM1,446953,false,false,529,image-keyboard-response,19
true,4,1,4,2,false,d,false,false,0.0-2.0-0.15-0.143-3.143,0,0,0,90,false,stim,true,1,646.8849999946542,1,0,2,14312,WMM1,449123,false,false,532,image-keyboard-response,20
true,4,0,4,1,false,z,false,false,0.0-2.0-0.16-0.144-3.144,0,0,0,81,false,stim,true,0,447.7999999653548,1,0,1,14312,WMM1,451094,false,false,535,image-keyboard-response,21
true,4,1,4,1,true,z,false,true,0.0-2.0-0.16-0.145-3.145,0,0,0,90,false,stim,false,0,1559.7900000284426,1,0,1,14312,WMM1,454181,false,false,538,image-keyboard-response,22
true,4,1,4,1,true,z,false,true,0.0-2.0-0.16-0.146-3.146,0,0,0,90,false,stim,false,0,463.96500000264496,1,0,1,14312,WMM1,456172,false,false,541,image-keyboard-response,23
true,4,0,4,0,true,q,false,true,0.0-2.0-0.16-0.147-3.147,0,0,0,81,false,stim,false,1,865.9150000312366,1,0,0,14312,WMM1,458558,false,false,544,image-keyboard-response,24
true,4,0,4,0,true,q,false,true,0.0-2.0-0.16-0.148-3.148,0,0,0,81,false,stim,false,1,516.5150000248104,1,0,0,14312,WMM1,460600,false,false,547,image-keyboard-response,25
true,4,0,4,0,true,q,false,true,0.0-2.0-0.16-0.149-3.149,0,0,0,81,false,stim,false,1,436.9000000297092,1,0,0,14312,WMM1,462556,false,false,550,image-keyboard-response,26
true,4,2,4,2,true,d,false,true,0.0-2.0-0.16-0.150-3.150,0,0,0,68,false,stim,false,1,1313.9150000060908,1,0,2,14312,WMM1,465384,false,false,553,image-keyboard-response,27
true,4,2,4,2,true,d,false,true,0.0-2.0-0.16-0.151-3.151,0,0,0,68,false,stim,false,1,937.3250000062399,1,0,2,14312,WMM1,467842,false,false,556,image-keyboard-response,28
true,4,2,4,2,true,d,false,true,0.0-2.0-0.16-0.152-3.152,0,0,0,68,false,stim,false,1,1216.164999990724,1,0,2,14312,WMM1,470587,false,false,559,image-keyboard-response,29
true,4,2,4,2,true,d,false,true,0.0-2.0-0.17-0.153-3.153,0,0,0,68,false,stim,false,1,823.4499999671243,1,0,2,14312,WMM1,472921,false,false,562,image-keyboard-response,30
true,4,0,4,0,true,q,false,true,0.0-2.0-0.17-0.154-3.154,0,0,0,81,false,stim,false,1,918.7500000116415,1,0,0,14312,WMM1,475361,false,false,565,image-keyboard-response,31
true,4,0,4,0,true,q,false,true,0.0-2.0-0.17-0.155-3.155,0,0,0,81,false,stim,false,1,583.1799999577925,1,0,0,14312,WMM1,477455,false,false,568,image-keyboard-response,32
true,4,2,4,2,true,d,false,true,0.0-2.0-0.17-0.156-3.156,0,0,0,68,false,stim,false,1,1011.2000000081025,1,0,2,14312,WMM1,479982,false,false,571,image-keyboard-response,33
true,4,1,4,1,true,z,false,true,0.0-2.0-0.17-0.157-3.157,0,0,0,90,false,stim,false,0,1012.5799999805167,1,0,1,14312,WMM1,482520,false,false,574,image-keyboard-response,34
true,4,2,4,2,true,d,false,false,0.0-2.0-0.17-0.158-3.158,0,0,0,68,false,stim,false,1,894.7000000043772,1,0,2,14312,WMM1,484941,false,true,577,image-keyboard-response,35
true,4,0,4,0,true,q,false,true,0.0-2.0-0.17-0.159-3.159,0,0,0,81,false,stim,false,1,658.8399999891408,1,0,0,14312,WMM1,487118,false,false,580,image-keyboard-response,36
true,4,1,4,1,true,z,false,true,0.0-2.0-0.17-0.160-3.160,0,0,0,90,false,stim,false,0,399.62999999988824,1,0,1,14312,WMM1,489034,false,false,583,image-keyboard-response,37
true,4,1,4,1,true,z,false,true,0.0-2.0-0.17-0.161-3.161,0,0,0,90,false,stim,false,0,979.3599999975413,1,0,1,14312,WMM1,491521,false,false,586,image-keyboard-response,38
true,5,1,2,0,false,q,true,false,0.0-2.0-0.18-0.162-3.162,0,0,0,90,true,stim,false,2,749.5699999853969,1,0,2,14312,WMM1,493793,false,false,589,image-keyboard-response,1
true,5,1,2,2,false,d,false,false,0.0-2.0-0.18-0.163-3.163,0,0,0,90,false,stim,true,1,599.6900000027381,1,0,1,14312,WMM1,495905,false,false,592,image-keyboard-response,2
true,5,0,2,2,false,d,true,false,0.0-2.0-0.18-0.164-3.164,0,0,0,81,false,stim,false,1,1341.9400000129826,1,0,1,14312,WMM1,498763,false,false,595,image-keyboard-response,3
true,5,0,2,0,true,q,false,true,0.0-2.0-0.18-0.165-3.165,0,0,0,81,false,stim,false,2,862.5449999817647,1,0,2,14312,WMM1,501152,false,false,598,image-keyboard-response,4
true,5,0,2,1,false,z,false,false,0.0-2.0-0.18-0.166-3.166,0,0,0,81,false,stim,true,0,753.4800000139512,1,0,0,14312,WMM1,503426,false,false,601,image-keyboard-response,5
true,5,1,2,1,true,z,false,true,0.0-2.0-0.18-0.167-3.167,0,0,0,90,false,stim,false,0,1083.855000033509,1,0,0,14312,WMM1,506027,false,false,604,image-keyboard-response,6
true,5,2,2,2,true,d,false,true,0.0-2.0-0.18-0.168-3.168,0,0,0,68,false,stim,false,1,1108.394999988377,1,0,1,14312,WMM1,508660,false,false,607,image-keyboard-response,7
true,5,1,2,1,true,z,false,true,0.0-2.0-0.18-0.169-3.169,0,0,0,90,false,stim,false,0,1021.6699999873526,1,0,0,14312,WMM1,511195,false,false,610,image-keyboard-response,8
true,5,0,2,0,true,q,false,true,0.0-2.0-0.18-0.170-3.170,0,0,0,81,false,stim,false,2,815.7950000022538,1,0,2,14312,WMM1,513518,false,false,613,image-keyboard-response,9
true,5,0,2,0,true,q,false,true,0.0-2.0-0.19-0.171-3.171,0,0,0,81,false,stim,false,2,628.0300000216812,1,0,2,14312,WMM1,515665,false,false,616,image-keyboard-response,10
true,5,0,2,0,true,q,false,true,0.0-2.0-0.19-0.172-3.172,0,0,0,81,false,stim,false,2,548.7050000228919,1,0,2,14312,WMM1,517723,false,false,619,image-keyboard-response,11
true,5,1,2,2,false,d,false,true,0.0-2.0-0.19-0.173-3.173,0,0,0,90,false,stim,true,1,1569.870000006631,1,0,1,14312,WMM1,520814,false,true,622,image-keyboard-response,12
true,5,2,2,1,false,z,true,false,0.0-2.0-0.19-0.174-3.174,0,0,0,68,false,stim,false,0,604.5199999934994,1,0,0,14312,WMM1,522950,false,false,625,image-keyboard-response,13
true,5,1,2,2,false,d,false,false,0.0-2.0-0.19-0.175-3.175,0,0,0,90,false,stim,true,1,418.5299999662675,1,0,1,14312,WMM1,524881,false,false,628,image-keyboard-response,14
true,5,0,2,1,false,z,false,false,0.0-2.0-0.19-0.176-3.176,0,0,0,81,false,stim,true,0,729.8449999652803,1,0,0,14312,WMM1,527126,false,false,631,image-keyboard-response,15
true,5,0,2,0,true,q,false,true,0.0-2.0-0.19-0.177-3.177,0,0,0,81,false,stim,false,2,1013.1699999910779,1,0,2,14312,WMM1,529653,false,false,634,image-keyboard-response,16
true,5,1,2,2,false,d,false,false,0.0-2.0-0.19-0.178-3.178,0,0,0,90,false,stim,true,1,611.4999999990687,1,0,1,14312,WMM1,531778,false,false,637,image-keyboard-response,17
true,5,0,2,1,false,z,false,false,0.0-2.0-0.19-0.179-3.179,0,0,0,81,false,stim,true,0,744.3449999555014,1,0,0,14312,WMM1,534042,false,false,640,image-keyboard-response,18
true,5,1,2,1,true,z,false,true,0.0-2.0-0.20-0.180-3.180,0,0,0,90,false,stim,false,0,762.2949999640696,1,0,0,14312,WMM1,536320,false,false,643,image-keyboard-response,19
true,5,1,2,1,true,z,false,true,0.0-2.0-0.20-0.181-3.181,0,0,0,90,false,stim,false,0,589.4599999883212,1,0,0,14312,WMM1,538433,false,false,646,image-keyboard-response,20
true,5,2,2,0,false,q,false,true,0.0-2.0-0.20-0.182-3.182,0,0,0,68,false,stim,true,2,1330.5750000290573,1,0,2,14312,WMM1,541282,false,true,649,image-keyboard-response,21
true,5,2,2,0,false,q,false,false,0.0-2.0-0.20-0.183-3.183,0,0,0,68,false,stim,true,2,1122.4449999863282,1,0,2,14312,WMM1,543918,false,false,652,image-keyboard-response,22
true,5,1,2,2,false,d,false,false,0.0-2.0-0.20-0.184-3.184,0,0,0,90,false,stim,true,1,953.7899999995716,1,0,1,14312,WMM1,546383,false,false,655,image-keyboard-response,23
true,5,0,2,2,false,d,true,false,0.0-2.0-0.20-0.185-3.185,0,0,0,81,false,stim,false,1,524.9149999581277,1,0,1,14312,WMM1,548422,false,false,658,image-keyboard-response,24
true,5,2,2,2,true,d,false,true,0.0-2.0-0.20-0.186-3.186,0,0,0,68,false,stim,false,1,787.6999999862164,1,0,1,14312,WMM1,550736,false,false,661,image-keyboard-response,25
true,5,1,2,1,true,z,false,false,0.0-2.0-0.20-0.187-3.187,0,0,0,90,false,stim,false,0,736.9349999935366,1,0,0,14312,WMM1,552997,false,true,664,image-keyboard-response,26
true,5,1,2,0,false,q,true,false,0.0-2.0-0.20-0.188-3.188,0,0,0,90,false,stim,false,2,1301.9399999757297,1,0,2,14312,WMM1,555820,false,false,667,image-keyboard-response,27
true,5,1,2,2,false,d,false,false,0.0-2.0-0.21-0.189-3.189,0,0,0,90,false,stim,true,1,580.5099999997765,1,0,1,14312,WMM1,557915,false,false,670,image-keyboard-response,28
true,5,2,2,0,false,q,false,false,0.0-2.0-0.21-0.190-3.190,0,0,0,68,false,stim,true,2,1761.869999987539,1,0,2,14312,WMM1,561197,false,false,673,image-keyboard-response,29
true,5,0,2,0,true,q,false,true,0.0-2.0-0.21-0.191-3.191,0,0,0,81,false,stim,false,2,1148.2550000073388,1,0,2,14312,WMM1,563864,false,false,676,image-keyboard-response,30
true,5,0,2,1,false,z,false,false,0.0-2.0-0.21-0.192-3.192,0,0,0,81,false,stim,true,0,907.2700000251643,1,0,0,14312,WMM1,566280,false,false,679,image-keyboard-response,31
true,5,0,2,0,true,q,false,true,0.0-2.0-0.21-0.193-3.193,0,0,0,81,false,stim,false,2,1111.5899999858811,1,0,2,14312,WMM1,568912,false,false,682,image-keyboard-response,32
true,5,1,2,2,false,d,false,false,0.0-2.0-0.21-0.194-3.194,0,0,0,90,false,stim,true,1,1946.6249999823049,1,0,1,14312,WMM1,572373,false,false,685,image-keyboard-response,33
true,5,0,2,1,false,z,false,false,0.0-2.0-0.21-0.195-3.195,0,0,0,81,false,stim,true,0,804.8249999992549,1,0,0,14312,WMM1,574698,false,false,688,image-keyboard-response,34
true,5,1,2,1,true,z,false,true,0.0-2.0-0.21-0.196-3.196,0,0,0,90,false,stim,false,0,880.6399999884889,1,0,0,14312,WMM1,577101,false,false,691,image-keyboard-response,35
true,5,1,2,2,false,d,false,false,0.0-2.0-0.21-0.197-3.197,0,0,0,90,false,stim,true,1,796.3250000029802,1,0,1,14312,WMM1,579413,false,false,694,image-keyboard-response,36
true,5,0,2,1,false,z,false,true,0.0-2.0-0.22-0.198-3.198,0,0,0,81,false,stim,true,0,831.5249999868684,1,0,0,14312,WMM1,581770,false,true,697,image-keyboard-response,37
true,5,2,2,2,true,d,false,true,0.0-2.0-0.22-0.199-3.199,0,0,0,68,false,stim,false,1,1134.7650000243448,1,0,1,14312,WMM1,584415,false,false,700,image-keyboard-response,38
true,5,0,2,1,false,z,false,false,0.0-2.0-0.22-0.200-3.200,0,0,0,81,false,stim,true,0,646.7149999807589,1,0,0,14312,WMM1,586589,false,false,703,image-keyboard-response,39
true,5,1,2,0,false,q,true,false,0.0-2.0-0.22-0.201-3.201,0,0,0,90,false,stim,false,2,965.8849999541417,1,0,2,14312,WMM1,589082,false,false,706,image-keyboard-response,40
true,5,2,2,1,false,z,true,true,0.0-2.0-0.22-0.202-3.202,0,0,0,68,false,stim,false,0,670.5549999605864,1,0,0,14312,WMM1,591271,false,true,709,image-keyboard-response,41
true,5,2,2,0,false,q,false,false,0.0-2.0-0.22-0.203-3.203,0,0,0,68,false,stim,true,2,842.754999990575,1,0,2,14312,WMM1,593637,false,false,712,image-keyboard-response,42
true,5,2,2,2,true,d,false,true,0.0-2.0-0.22-0.204-3.204,0,0,0,68,false,stim,false,1,943.5650000232272,1,0,1,14312,WMM1,596106,false,false,715,image-keyboard-response,43
true,5,2,2,2,true,d,false,true,0.0-2.0-0.22-0.205-3.205,0,0,0,68,false,stim,false,1,1101.135000004433,1,0,1,14312,WMM1,598720,false,false,718,image-keyboard-response,44
true,5,1,2,0,false,q,true,false,0.0-2.0-0.22-0.206-3.206,0,0,0,90,false,stim,false,2,838.6049999971874,1,0,2,14312,WMM1,601076,false,false,721,image-keyboard-response,45
true,5,0,2,1,false,z,false,false,0.0-2.0-0.23-0.207-3.207,0,0,0,81,false,stim,true,0,672.7350000292063,1,0,0,14312,WMM1,603272,false,false,724,image-keyboard-response,46
true,5,1,2,2,false,d,false,false,0.0-2.0-0.23-0.208-3.208,0,0,0,90,false,stim,true,1,529.6700000180863,1,0,1,14312,WMM1,605320,false,false,727,image-keyboard-response,47
true,5,2,2,0,false,q,false,false,0.0-2.0-0.23-0.209-3.209,0,0,0,68,false,stim,true,2,481.2650000094436,1,0,2,14312,WMM1,607315,false,false,730,image-keyboard-response,48
true,5,2,2,2,true,d,false,true,0.0-2.0-0.23-0.210-3.210,0,0,0,68,false,stim,false,1,1340.970000019297,1,0,1,14312,WMM1,610183,false,false,733,image-keyboard-response,49
true,5,1,2,0,false,q,true,false,0.0-2.0-0.23-0.211-3.211,0,0,0,90,false,stim,false,2,1298.624999995809,1,0,2,14312,WMM1,612999,false,false,736,image-keyboard-response,50
true,5,2,2,2,true,d,false,true,0.0-2.0-0.23-0.212-3.212,0,0,0,68,false,stim,false,1,942.7550000254996,1,0,1,14312,WMM1,615465,false,false,739,image-keyboard-response,51
true,5,0,2,1,false,z,false,false,0.0-2.0-0.23-0.213-3.213,0,0,0,81,false,stim,true,0,681.8299999576993,1,0,0,14312,WMM1,617656,false,false,742,image-keyboard-response,52
true,5,0,2,0,true,q,false,true,0.0-2.0-0.23-0.214-3.214,0,0,0,81,false,stim,false,2,721.9550000154413,1,0,2,14312,WMM1,619901,false,false,745,image-keyboard-response,53
true,5,1,2,1,true,z,false,true,0.0-2.0-0.23-0.215-3.215,0,0,0,90,false,stim,false,0,1604.0800000191666,1,0,0,14312,WMM1,623017,false,false,748,image-keyboard-response,54
true,5,1,2,1,true,z,false,true,0.0-2.0-0.24-0.216-3.216,0,0,0,90,false,stim,false,0,543.439999979455,1,0,0,14312,WMM1,625069,false,false,751,image-keyboard-response,55
true,5,1,2,1,true,z,false,true,0.0-2.0-0.24-0.217-3.217,0,0,0,90,false,stim,false,0,501.5850000199862,1,0,0,14312,WMM1,627084,false,false,754,image-keyboard-response,56
true,5,1,2,1,true,z,false,true,0.0-2.0-0.24-0.218-3.218,0,0,0,90,false,stim,false,0,422.5849999929778,1,0,0,14312,WMM1,629031,false,false,757,image-keyboard-response,57
true,5,2,2,2,true,d,false,true,0.0-2.0-0.24-0.219-3.219,0,0,0,68,false,stim,false,1,1111.2100000027567,1,0,1,14312,WMM1,631656,false,false,760,image-keyboard-response,58
true,5,2,2,2,true,d,false,true,0.0-2.0-0.24-0.220-3.220,0,0,0,68,false,stim,false,1,880.0449999980628,1,0,1,14312,WMM1,634064,false,false,763,image-keyboard-response,59
true,5,0,2,0,true,q,false,true,0.0-2.0-0.24-0.221-3.221,0,0,0,81,false,stim,false,2,637.3049999820068,1,0,2,14312,WMM1,636225,false,false,766,image-keyboard-response,60
true,6,0,1,2,false,d,false,false,0.0-2.0-0.24-0.222-3.222,0,0,0,81,true,stim,true,0,480.0849999883212,1,0,2,14312,WMM1,638230,false,false,769,image-keyboard-response,1
true,6,1,1,2,false,d,true,false,0.0-2.0-0.24-0.223-3.223,0,0,0,90,false,stim,false,0,1149.1800000076182,1,0,2,14312,WMM1,640907,false,false,772,image-keyboard-response,2
true,6,2,1,1,false,z,false,false,0.0-2.0-0.24-0.224-3.224,0,0,0,68,false,stim,true,2,914.6900000050664,1,0,1,14312,WMM1,643339,false,false,775,image-keyboard-response,3
true,6,0,1,2,false,d,true,false,0.0-2.0-0.25-0.225-3.225,0,0,0,81,false,stim,false,1,1107.3099999921396,1,0,0,14312,WMM1,645967,false,false,778,image-keyboard-response,4
true,6,2,1,2,true,d,false,true,0.0-2.0-0.25-0.226-3.226,0,0,0,68,false,stim,false,0,1289.10499997437,1,0,2,14312,WMM1,648780,false,false,781,image-keyboard-response,5
true,6,2,1,1,false,z,false,false,0.0-2.0-0.25-0.227-3.227,0,0,0,68,false,stim,true,2,576.0000000009313,1,0,1,14312,WMM1,650881,false,false,784,image-keyboard-response,6
true,6,2,1,2,true,d,false,true,0.0-2.0-0.25-0.228-3.228,0,0,0,68,false,stim,false,0,616.6599999996834,1,0,2,14312,WMM1,653023,false,false,787,image-keyboard-response,7
true,6,2,1,1,false,z,false,false,0.0-2.0-0.25-0.229-3.229,0,0,0,68,false,stim,true,2,1078.220000024885,1,0,1,14312,WMM1,655625,false,false,790,image-keyboard-response,8
true,6,1,1,2,false,d,false,false,0.0-2.0-0.25-0.230-3.230,0,0,0,90,false,stim,true,1,1084.1699999873526,1,0,0,14312,WMM1,658215,false,false,793,image-keyboard-response,9
true,6,1,1,2,false,d,false,false,0.0-2.0-0.25-0.231-3.231,0,0,0,90,false,stim,true,1,430.2649999735877,1,0,0,14312,WMM1,660159,false,false,796,image-keyboard-response,10
true,6,0,1,2,false,d,false,false,0.0-2.0-0.25-0.232-3.232,0,0,0,81,false,stim,true,0,796.0050000110641,1,0,2,14312,WMM1,662480,false,false,799,image-keyboard-response,11
true,6,0,1,1,false,z,true,false,0.0-2.0-0.25-0.233-3.233,0,0,0,81,false,stim,false,2,662.5700000440702,1,0,1,14312,WMM1,664668,false,false,802,image-keyboard-response,12
true,6,1,1,2,false,d,true,false,0.0-2.0-0.26-0.234-3.234,0,0,0,90,false,stim,false,0,1175.794999988284,1,0,2,14312,WMM1,667368,false,false,805,image-keyboard-response,13
true,6,2,1,2,true,d,false,true,0.0-2.0-0.26-0.235-3.235,0,0,0,68,false,stim,false,0,950.9250000119209,1,0,2,14312,WMM1,669838,false,false,808,image-keyboard-response,14
true,6,2,1,2,true,d,false,true,0.0-2.0-0.26-0.236-3.236,0,0,0,68,false,stim,false,0,701.5300000202842,1,0,2,14312,WMM1,672067,false,false,811,image-keyboard-response,15
true,6,2,1,2,true,d,false,true,0.0-2.0-0.26-0.237-3.237,0,0,0,68,false,stim,false,1,1432.0949999964796,1,0,0,14312,WMM1,675016,false,false,814,image-keyboard-response,16
true,6,2,1,2,true,d,false,true,0.0-2.0-0.26-0.238-3.238,0,0,0,68,false,stim,false,1,519.704999984242,1,0,0,14312,WMM1,677052,false,false,817,image-keyboard-response,17
true,6,2,1,1,false,z,false,false,0.0-2.0-0.26-0.239-3.239,0,0,0,68,false,stim,true,2,799.570000031963,1,0,1,14312,WMM1,679377,false,false,820,image-keyboard-response,18
true,6,1,1,1,true,z,false,true,0.0-2.0-0.26-0.240-3.240,0,0,0,90,false,stim,false,2,987.5899999751709,1,0,1,14312,WMM1,681883,false,false,823,image-keyboard-response,19
true,6,1,1,1,true,z,false,true,0.0-2.0-0.26-0.241-3.241,0,0,0,90,false,stim,false,2,566.0050000296906,1,0,1,14312,WMM1,683959,false,false,826,image-keyboard-response,20
true,6,2,1,2,true,d,false,true,0.0-2.0-0.26-0.242-3.242,0,0,0,68,false,stim,false,1,717.6200000103563,1,0,0,14312,WMM1,686199,false,false,829,image-keyboard-response,21
true,6,2,1,2,true,d,false,true,0.0-2.0-0.27-0.243-3.243,0,0,0,68,false,stim,false,0,967.7900000242516,1,0,2,14312,WMM1,688693,false,false,832,image-keyboard-response,22
true,6,2,1,2,true,d,false,true,0.0-2.0-0.27-0.244-3.244,0,0,0,68,false,stim,false,1,983.1600000034086,1,0,0,14312,WMM1,691196,false,false,835,image-keyboard-response,23
true,6,1,1,1,true,z,false,true,0.0-2.0-0.27-0.245-3.245,0,0,0,90,false,stim,false,2,536.5899999742396,1,0,1,14312,WMM1,693252,false,false,838,image-keyboard-response,24
true,6,1,1,1,true,z,false,true,0.0-2.0-0.27-0.246-3.246,0,0,0,90,false,stim,false,2,521.9200000283308,1,0,1,14312,WMM1,695299,false,false,841,image-keyboard-response,25
true,6,2,1,2,true,d,false,true,0.0-2.0-0.27-0.247-3.247,0,0,0,68,false,stim,false,1,483.36000001290813,1,0,0,14312,WMM1,697292,false,false,844,image-keyboard-response,26
true,6,2,1,2,true,d,false,true,0.0-2.0-0.27-0.248-3.248,0,0,0,68,false,stim,false,0,530.5749999824911,1,0,2,14312,WMM1,699349,false,false,847,image-keyboard-response,27
true,6,2,1,2,true,d,false,true,0.0-2.0-0.27-0.249-3.249,0,0,0,68,false,stim,false,0,473.8200000138022,1,0,2,14312,WMM1,701334,false,false,850,image-keyboard-response,28
true,6,2,1,1,false,z,false,false,0.0-2.0-0.27-0.250-3.250,0,0,0,68,false,stim,true,2,799.4100000360049,1,0,1,14312,WMM1,703645,false,false,853,image-keyboard-response,29
true,6,2,1,2,true,d,false,true,0.0-2.0-0.27-0.251-3.251,0,0,0,68,false,stim,false,1,764.6800000220537,1,0,0,14312,WMM1,705929,false,false,856,image-keyboard-response,30
true,7,2,2,0,false,q,false,false,0.0-2.0-0.28-0.252-3.252,0,0,0,68,true,stim,true,2,518.5899999924004,1,0,2,14312,WMM1,707963,false,false,859,image-keyboard-response,1
true,7,1,2,2,false,d,false,false,0.0-2.0-0.28-0.253-3.253,0,0,0,90,false,stim,true,1,495.6499999971129,1,0,1,14312,WMM1,709983,false,false,862,image-keyboard-response,2
true,7,2,2,1,false,z,false,false,0.0-2.0-0.28-0.254-3.254,0,0,0,68,false,stim,true,2,812.9500000504777,1,0,0,14312,WMM1,712313,false,false,865,image-keyboard-response,3
true,7,0,2,0,true,q,false,true,0.0-2.0-0.28-0.255-3.255,0,0,0,81,false,stim,false,2,1921.5049999766052,1,0,2,14312,WMM1,715754,false,false,868,image-keyboard-response,4
true,7,0,2,1,false,z,true,true,0.0-2.0-0.28-0.256-3.256,0,0,0,81,false,stim,false,2,1181.8850000272505,1,0,0,14312,WMM1,718447,false,true,871,image-keyboard-response,5
true,7,0,2,0,true,q,false,true,0.0-2.0-0.28-0.257-3.257,0,0,0,81,false,stim,false,2,1032.6999999815598,1,0,2,14312,WMM1,720993,false,false,874,image-keyboard-response,6
true,7,1,2,2,false,d,false,false,0.0-2.0-0.28-0.258-3.258,0,0,0,90,false,stim,true,1,1272.6499999989755,1,0,1,14312,WMM1,723781,false,false,877,image-keyboard-response,7
true,7,2,2,2,true,d,false,true,0.0-2.0-0.28-0.259-3.259,0,0,0,68,false,stim,false,1,1182.3000000440516,1,0,1,14312,WMM1,726474,false,false,880,image-keyboard-response,8
true,7,0,2,1,false,z,true,true,0.0-2.0-0.28-0.260-3.260,0,0,0,81,false,stim,false,2,578.1149999820627,1,0,0,14312,WMM1,728559,false,true,883,image-keyboard-response,9
true,7,0,2,1,false,z,true,true,0.0-2.0-0.29-0.261-3.261,0,0,0,81,false,stim,false,2,445.1599999447353,1,0,0,14312,WMM1,730519,false,true,886,image-keyboard-response,10
true,7,0,2,1,false,z,true,false,0.0-2.0-0.29-0.262-3.262,0,0,0,81,false,stim,false,2,463.50499999243766,1,0,0,14312,WMM1,732506,false,false,889,image-keyboard-response,11
true,7,0,2,0,true,q,false,true,0.0-2.0-0.29-0.263-3.263,0,0,0,81,false,stim,false,2,1339.8299999535084,1,0,2,14312,WMM1,735366,false,false,892,image-keyboard-response,12
true,7,0,2,0,true,q,false,true,0.0-2.0-0.29-0.264-3.264,0,0,0,81,false,stim,false,2,601.3599999714643,1,0,2,14312,WMM1,737482,false,false,895,image-keyboard-response,13
true,7,1,2,1,true,z,false,true,0.0-2.0-0.29-0.265-3.265,0,0,0,90,false,stim,false,2,1088.240000011865,1,0,0,14312,WMM1,740090,false,false,898,image-keyboard-response,14
true,7,2,2,2,true,d,false,true,0.0-2.0-0.29-0.266-3.266,0,0,0,68,false,stim,false,1,2518.725000030827,1,0,1,14312,WMM1,744131,false,false,901,image-keyboard-response,15
true,7,1,2,0,false,q,true,false,0.0-2.0-0.29-0.267-3.267,0,0,0,90,false,stim,false,2,1143.6150000081398,1,0,2,14312,WMM1,746799,false,false,904,image-keyboard-response,16
true,7,2,2,2,true,d,false,true,0.0-2.0-0.29-0.268-3.268,0,0,0,68,false,stim,false,1,652.4699999717996,1,0,1,14312,WMM1,748975,false,false,907,image-keyboard-response,17
true,7,2,2,2,true,d,false,true,0.0-2.0-0.29-0.269-3.269,0,0,0,68,false,stim,false,1,461.41499996883795,1,0,1,14312,WMM1,750950,false,false,910,image-keyboard-response,18
true,7,0,2,0,true,q,false,true,0.0-2.0-0.30-0.270-3.270,0,0,0,81,false,stim,false,2,920.5100000253879,1,0,2,14312,WMM1,753395,false,false,913,image-keyboard-response,19
true,7,2,2,2,true,d,false,false,0.0-2.0-0.30-0.271-3.271,0,0,0,68,false,stim,false,1,637.73499999661,1,0,1,14312,WMM1,755555,false,true,916,image-keyboard-response,20
true,7,0,2,0,true,q,false,true,0.0-2.0-0.30-0.272-3.272,0,0,0,81,false,stim,false,2,460.9049999853596,1,0,2,14312,WMM1,757537,false,false,919,image-keyboard-response,21
true,7,1,2,2,false,d,false,true,0.0-2.0-0.30-0.273-3.273,0,0,0,90,false,stim,true,1,1275.3999999840744,1,0,1,14312,WMM1,760323,false,true,922,image-keyboard-response,22
true,7,0,2,1,false,z,true,false,0.0-2.0-0.30-0.274-3.274,0,0,0,81,false,stim,false,2,1105.2849999978207,1,0,0,14312,WMM1,762945,false,false,925,image-keyboard-response,23
true,7,1,2,1,true,z,false,true,0.0-2.0-0.30-0.275-3.275,0,0,0,90,false,stim,false,2,807.0150000276044,1,0,0,14312,WMM1,765283,false,false,928,image-keyboard-response,24
true,7,1,2,1,true,z,false,true,0.0-2.0-0.30-0.276-3.276,0,0,0,90,false,stim,false,2,672.2850000369363,1,0,0,14312,WMM1,767477,false,false,931,image-keyboard-response,25
true,7,1,2,0,false,q,true,false,0.0-2.0-0.30-0.277-3.277,0,0,0,90,false,stim,false,2,939.1699999687262,1,0,2,14312,WMM1,769929,false,false,934,image-keyboard-response,26
true,7,1,2,2,false,d,false,false,0.0-2.0-0.30-0.278-3.278,0,0,0,90,false,stim,true,1,1448.6200000392273,1,0,1,14312,WMM1,772902,false,false,937,image-keyboard-response,27
true,7,2,2,2,true,d,false,true,0.0-2.0-0.31-0.279-3.279,0,0,0,68,false,stim,false,1,626.9800000009127,1,0,1,14312,WMM1,775056,false,false,940,image-keyboard-response,28
true,7,1,2,0,false,q,true,false,0.0-2.0-0.31-0.280-3.280,0,0,0,90,false,stim,false,2,725.8400000282563,1,0,2,14312,WMM1,777304,false,false,943,image-keyboard-response,29
true,7,0,2,1,false,z,true,false,0.0-2.0-0.31-0.281-3.281,0,0,0,81,false,stim,false,2,1651.7449999810196,1,0,0,14312,WMM1,780473,false,false,946,image-keyboard-response,30
true,7,2,2,0,false,q,false,false,0.0-2.0-0.31-0.282-3.282,0,0,0,68,false,stim,true,2,1444.885000004433,1,0,2,14312,WMM1,783432,false,false,949,image-keyboard-response,31
true,7,0,2,0,true,q,false,true,0.0-2.0-0.31-0.283-3.283,0,0,0,81,false,stim,false,2,999.820000026375,1,0,2,14312,WMM1,785949,false,false,952,image-keyboard-response,32
true,7,1,2,1,true,z,false,true,0.0-2.0-0.31-0.284-3.284,0,0,0,90,false,stim,false,2,1297.8250000160187,1,0,0,14312,WMM1,788774,false,false,955,image-keyboard-response,33
true,7,1,2,2,false,d,false,false,0.0-2.0-0.31-0.285-3.285,0,0,0,90,false,stim,true,1,1305.850000004284,1,0,1,14312,WMM1,791602,false,false,958,image-keyboard-response,34
true,7,1,2,1,true,z,false,true,0.0-2.0-0.31-0.286-3.286,0,0,0,90,false,stim,false,2,898.0400000000373,1,0,0,14312,WMM1,794019,false,false,961,image-keyboard-response,35
true,7,0,2,2,false,d,true,false,0.0-2.0-0.31-0.287-3.287,0,0,0,81,false,stim,false,1,908.385000017006,1,0,1,14312,WMM1,796446,false,false,964,image-keyboard-response,36
true,7,2,2,2,true,d,false,true,0.0-2.0-0.32-0.288-3.288,0,0,0,68,false,stim,false,1,765.5249999952503,1,0,1,14312,WMM1,798730,false,false,967,image-keyboard-response,37
true,7,0,2,0,true,q,false,true,0.0-2.0-0.32-0.289-3.289,0,0,0,81,false,stim,false,2,1176.6649999772198,1,0,2,14312,WMM1,801437,false,false,970,image-keyboard-response,38
true,7,1,2,1,true,z,false,true,0.0-2.0-0.32-0.290-3.290,0,0,0,90,false,stim,false,2,2328.365000023041,1,0,0,14312,WMM1,805285,false,false,973,image-keyboard-response,39
true,7,2,2,2,true,d,false,true,0.0-2.0-0.32-0.291-3.291,0,0,0,68,false,stim,false,1,536.2500000046566,1,0,1,14312,WMM1,807342,false,false,976,image-keyboard-response,40
true,7,0,2,0,true,q,false,true,0.0-2.0-0.32-0.292-3.292,0,0,0,81,false,stim,false,2,495.1650000293739,1,0,2,14312,WMM1,809347,false,false,979,image-keyboard-response,41
true,7,1,2,1,true,z,false,true,0.0-2.0-0.32-0.293-3.293,0,0,0,90,false,stim,false,2,613.5099999955855,1,0,0,14312,WMM1,811491,false,false,982,image-keyboard-response,42
true,7,2,2,0,false,q,false,false,0.0-2.0-0.32-0.294-3.294,0,0,0,68,false,stim,true,2,698.2650000136346,1,0,2,14312,WMM1,813708,false,false,985,image-keyboard-response,43
true,7,1,2,1,true,z,false,true,0.0-2.0-0.32-0.295-3.295,0,0,0,90,false,stim,false,2,2250.7800000021234,1,0,0,14312,WMM1,817486,false,false,988,image-keyboard-response,44
true,7,2,2,2,true,d,false,true,0.0-2.0-0.32-0.296-3.296,0,0,0,68,false,stim,false,1,649.0800000028685,1,1,1,14312,WMM1,819653,false,false,991,image-keyboard-response,45
true,7,0,2,0,true,q,false,true,0.0-2.0-0.33-0.297-3.297,0,0,0,81,false,stim,false,2,481.9900000002235,1,0,2,14312,WMM1,821651,false,false,994,image-keyboard-response,46
true,7,2,2,2,true,d,false,true,0.0-2.0-0.33-0.298-3.298,0,0,0,68,false,stim,false,1,994.2049999954179,1,1,1,14312,WMM1,824175,false,false,997,image-keyboard-response,47
true,7,2,2,2,true,d,false,true,0.0-2.0-0.33-0.299-3.299,0,0,0,68,false,stim,false,1,637.990000017453,1,1,1,14312,WMM1,826335,false,false,1000,image-keyboard-response,48
true,7,2,2,2,true,d,false,true,0.0-2.0-0.33-0.300-3.300,0,0,0,68,false,stim,false,1,523.6049999948591,1,1,1,14312,WMM1,828382,false,false,1003,image-keyboard-response,49
true,7,1,2,1,true,z,false,false,0.0-2.0-0.33-0.301-3.301,0,0,0,90,false,stim,false,2,1015.7849999959581,1,0,0,14312,WMM1,830928,false,true,1006,image-keyboard-response,50
true,8,0,3,2,false,d,false,false,0.0-2.0-0.33-0.302-3.302,0,1,0,81,true,stim,true,0,545.6400000257418,1,0,2,14312,WMM1,832987,false,false,1009,image-keyboard-response,1
true,8,1,3,2,false,d,true,false,0.0-2.0-0.33-0.303-3.303,0,1,0,90,false,stim,false,0,1219.8799999896437,1,0,2,14312,WMM1,835724,false,false,1012,image-keyboard-response,2
true,8,1,3,0,false,q,false,false,0.0-2.0-0.33-0.304-3.304,0,1,0,90,false,stim,true,1,541.4449999807402,1,0,0,14312,WMM1,837794,false,false,1015,image-keyboard-response,3
true,8,2,3,0,false,q,true,false,0.0-2.0-0.33-0.305-3.305,0,1,0,68,false,stim,false,1,791.834999981802,1,0,0,14312,WMM1,840112,false,false,1018,image-keyboard-response,4
true,8,2,3,2,true,d,false,true,0.0-2.0-0.34-0.306-3.306,0,1,0,68,false,stim,false,2,949.3200000142679,1,1,1,14312,WMM1,842581,false,false,1021,image-keyboard-response,5
true,8,0,3,0,true,q,false,true,0.0-2.0-0.34-0.307-3.307,0,1,0,81,false,stim,false,1,1198.5500000300817,1,0,0,14312,WMM1,845306,false,false,1024,image-keyboard-response,6
true,8,2,3,2,true,d,false,true,0.0-2.0-0.34-0.308-3.308,0,1,0,68,false,stim,false,2,712.3300000093877,1,1,1,14312,WMM1,847530,false,false,1027,image-keyboard-response,7
true,8,2,3,2,true,d,false,true,0.0-2.0-0.34-0.309-3.309,0,1,0,68,false,stim,false,0,1854.3300000019372,1,0,2,14312,WMM1,850898,false,false,1030,image-keyboard-response,8
true,8,2,3,2,true,d,false,true,0.0-2.0-0.34-0.310-3.310,0,1,0,68,false,stim,false,2,473.5749999526888,1,1,1,14312,WMM1,852894,false,false,1033,image-keyboard-response,9
true,8,0,3,0,true,q,false,true,0.0-2.0-0.34-0.311-3.311,0,1,0,81,false,stim,false,1,586.2049999996088,1,0,0,14312,WMM1,855003,false,false,1036,image-keyboard-response,10
true,8,2,3,2,true,d,false,true,0.0-2.0-0.34-0.312-3.312,0,1,0,68,false,stim,false,0,451.78000000305474,1,0,2,14312,WMM1,856971,false,false,1039,image-keyboard-response,11
true,8,2,3,2,true,d,false,true,0.0-2.0-0.34-0.313-3.313,0,1,0,68,false,stim,false,0,431.7099999752827,1,0,2,14312,WMM1,858926,false,false,1042,image-keyboard-response,12
true,8,0,3,0,true,q,false,true,0.0-2.0-0.34-0.314-3.314,0,1,0,81,false,stim,false,1,1185.2499999804422,1,0,0,14312,WMM1,861626,false,false,1045,image-keyboard-response,13
true,8,2,3,2,true,d,false,false,0.0-2.0-0.35-0.315-3.315,0,1,0,68,false,stim,false,2,454.48000001488253,1,1,1,14312,WMM1,863604,false,true,1048,image-keyboard-response,14
true,8,0,3,0,true,q,false,true,0.0-2.0-0.35-0.316-3.316,0,1,0,81,false,stim,false,1,648.4650000347756,1,0,0,14312,WMM1,865782,false,false,1051,image-keyboard-response,15
true,8,2,3,2,true,d,false,true,0.0-2.0-0.35-0.317-3.317,0,1,0,68,false,stim,false,0,494.69500000122935,1,0,2,14312,WMM1,867788,false,false,1054,image-keyboard-response,16
true,8,2,3,2,true,d,false,true,0.0-2.0-0.35-0.318-3.318,0,1,0,68,false,stim,false,0,563.689999980852,1,0,2,14312,WMM1,869873,false,false,1057,image-keyboard-response,17
true,8,0,3,0,true,q,false,true,0.0-2.0-0.35-0.319-3.319,0,1,0,81,false,stim,false,1,622.2650000127032,1,0,0,14312,WMM1,872019,false,false,1060,image-keyboard-response,18
true,8,1,3,2,false,d,true,false,0.0-2.0-0.35-0.320-3.320,0,1,0,90,false,stim,false,2,999.9749999842606,1,1,1,14312,WMM1,874541,false,false,1063,image-keyboard-response,19
true,8,0,3,0,true,q,false,true,0.0-2.0-0.35-0.321-3.321,0,1,0,81,false,stim,false,1,914.0049999696203,1,0,0,14312,WMM1,876981,false,false,1066,image-keyboard-response,20
true,8,0,3,2,false,d,true,false,0.0-2.0-0.35-0.322-3.322,0,1,0,81,false,stim,false,2,437.2950000106357,1,1,1,14312,WMM1,878928,false,false,1069,image-keyboard-response,21
true,8,2,3,2,true,d,false,true,0.0-2.0-0.35-0.323-3.323,0,1,0,68,false,stim,false,0,651.9349999725819,1,0,2,14312,WMM1,881094,false,false,1072,image-keyboard-response,22
true,8,2,3,2,true,d,false,true,0.0-2.0-0.36-0.324-3.324,0,1,0,68,false,stim,false,0,558.0600000103004,1,0,2,14312,WMM1,883170,false,false,1075,image-keyboard-response,23
true,8,2,3,2,true,d,false,true,0.0-2.0-0.36-0.325-3.325,0,1,0,68,false,stim,false,2,459.74999997997656,1,1,1,14312,WMM1,885147,false,false,1078,image-keyboard-response,24
true,8,2,3,2,true,d,false,true,0.0-2.0-0.36-0.326-3.326,0,1,0,68,false,stim,false,0,617.5999999977648,1,0,2,14312,WMM1,887287,false,false,1081,image-keyboard-response,25
true,8,0,3,0,true,q,false,true,0.0-2.0-0.36-0.327-3.327,0,1,0,81,false,stim,false,1,538.9350000186823,1,0,0,14312,WMM1,889352,false,false,1084,image-keyboard-response,26
true,8,2,3,2,true,d,false,false,0.0-2.0-0.36-0.328-3.328,0,1,0,68,false,stim,false,2,436.4349999814294,1,1,1,14312,WMM1,891299,false,true,1087,image-keyboard-response,27
true,8,0,3,0,true,q,false,true,0.0-2.0-0.36-0.329-3.329,0,1,0,81,false,stim,false,1,627.2200000239536,1,0,0,14312,WMM1,893450,false,false,1090,image-keyboard-response,28
true,8,1,3,2,false,d,true,false,0.0-2.0-0.36-0.330-3.330,0,1,0,90,false,stim,false,2,1178.8200000301003,1,0,1,14312,WMM1,896143,false,false,1093,image-keyboard-response,29
true,8,0,3,0,true,q,false,true,0.0-2.0-0.36-0.331-3.331,0,1,0,81,false,stim,false,1,882.6499999850057,1,0,0,14312,WMM1,898550,false,false,1096,image-keyboard-response,30
true,8,2,3,2,true,d,false,true,0.0-2.0-0.36-0.332-3.332,0,1,0,68,false,stim,false,0,565.085000009276,1,0,2,14312,WMM1,900631,false,false,1099,image-keyboard-response,31
true,8,2,3,2,true,d,false,true,0.0-2.0-0.37-0.333-3.333,0,1,0,68,false,stim,false,0,833.4650000324473,1,0,2,14312,WMM1,902992,false,false,1102,image-keyboard-response,32
true,8,0,3,0,true,q,false,true,0.0-2.0-0.37-0.334-3.334,0,1,0,81,false,stim,false,1,704.1700000409037,1,0,0,14312,WMM1,905219,false,false,1105,image-keyboard-response,33
true,8,0,3,2,false,d,true,false,0.0-2.0-0.37-0.335-3.335,0,1,0,81,false,stim,false,2,660.6899999896996,1,0,1,14312,WMM1,907397,false,false,1108,image-keyboard-response,34
true,8,1,3,2,false,d,true,false,0.0-2.0-0.37-0.336-3.336,0,1,0,90,false,stim,false,2,1267.34000002034,1,0,1,14312,WMM1,910183,false,false,1111,image-keyboard-response,35
true,8,0,3,0,true,q,false,true,0.0-2.0-0.37-0.337-3.337,0,1,0,81,false,stim,false,1,851.2550000450574,1,0,0,14312,WMM1,912565,false,false,1114,image-keyboard-response,36
true,8,0,3,0,true,q,false,false,0.0-2.0-0.37-0.338-3.338,0,1,0,81,false,stim,false,1,619.6049999562092,1,0,0,14312,WMM1,914706,false,true,1117,image-keyboard-response,37
true,9,2,1,1,false,z,false,false,0.0-2.0-0.37-0.339-3.339,0,0,0,68,true,stim,true,2,555.9699999867007,1,0,2,14312,WMM1,916780,false,false,1120,image-keyboard-response,1
true,9,2,1,1,false,z,false,false,0.0-2.0-0.37-0.340-3.340,0,0,0,68,false,stim,true,2,1001.5700000221841,1,0,1,14312,WMM1,919289,false,false,1123,image-keyboard-response,2
true,9,1,1,1,true,z,false,false,0.0-2.0-0.37-0.341-3.341,0,0,0,90,false,stim,false,2,491.1600000341423,1,0,2,14312,WMM1,921292,false,true,1126,image-keyboard-response,3
true,9,1,1,1,true,z,false,true,0.0-2.0-0.38-0.342-3.342,0,0,0,90,false,stim,false,2,519.7100000223145,1,0,1,14312,WMM1,923322,false,false,1129,image-keyboard-response,4
true,9,1,1,1,true,z,false,true,0.0-2.0-0.38-0.343-3.343,0,0,0,90,false,stim,false,2,577.2149999975227,1,0,1,14312,WMM1,925412,false,false,1132,image-keyboard-response,5
true,9,1,1,1,true,z,false,true,0.0-2.0-0.38-0.344-3.344,0,0,0,90,false,stim,false,2,770.3800000017509,1,0,2,14312,WMM1,927701,false,false,1135,image-keyboard-response,6
true,9,0,1,2,false,d,false,false,0.0-2.0-0.38-0.345-3.345,0,0,0,81,false,stim,true,0,1295.8199999993667,1,0,0,14312,WMM1,930519,false,false,1138,image-keyboard-response,7
true,9,1,1,1,true,z,false,true,0.0-2.0-0.38-0.346-3.346,0,0,0,90,false,stim,false,2,644.8749999981374,1,0,2,14312,WMM1,932682,false,false,1141,image-keyboard-response,8
true,9,1,1,2,false,d,true,false,0.0-2.0-0.38-0.347-3.347,0,0,0,90,false,stim,false,0,981.2699999893084,1,0,0,14312,WMM1,935177,false,false,1144,image-keyboard-response,9
true,9,1,1,1,true,z,false,true,0.0-2.0-0.38-0.348-3.348,0,0,0,90,false,stim,false,2,643.7250000308268,1,0,2,14312,WMM1,937340,false,false,1147,image-keyboard-response,10
true,9,1,1,1,true,z,false,true,0.0-2.0-0.38-0.349-3.349,0,0,0,90,false,stim,false,2,470.02000000793487,1,0,1,14312,WMM1,939328,false,false,1150,image-keyboard-response,11
true,9,2,1,2,true,d,false,true,0.0-2.0-0.38-0.350-3.350,0,0,0,68,false,stim,false,0,1117.5550000043586,1,0,0,14312,WMM1,941966,false,false,1153,image-keyboard-response,12
true,9,2,1,2,true,d,false,true,0.0-2.0-0.39-0.351-3.351,0,0,0,68,false,stim,false,0,1061.6199999931268,1,0,0,14312,WMM1,944540,false,false,1156,image-keyboard-response,13
true,9,2,1,2,true,d,false,true,0.0-2.0-0.39-0.352-3.352,0,0,0,68,false,stim,false,0,511.229999945499,1,0,0,14312,WMM1,946568,false,false,1159,image-keyboard-response,14
true,9,1,1,1,true,z,false,false,0.0-2.0-0.39-0.353-3.353,0,0,0,90,false,stim,false,2,520.7700000028126,1,0,1,14312,WMM1,948601,false,true,1162,image-keyboard-response,15
true,9,1,1,1,true,z,false,true,0.0-2.0-0.39-0.354-3.354,0,0,0,90,false,stim,false,2,461.22499997727573,1,0,2,14312,WMM1,950576,false,false,1165,image-keyboard-response,16
true,9,2,1,2,true,d,false,true,0.0-2.0-0.39-0.355-3.355,0,0,0,68,false,stim,false,0,744.7150000371039,1,0,0,14312,WMM1,952835,false,false,1168,image-keyboard-response,17
true,9,0,1,1,false,z,true,false,0.0-2.0-0.39-0.356-3.356,0,0,0,81,false,stim,false,2,2708.9999999734573,1,0,1,14312,WMM1,957058,false,false,1171,image-keyboard-response,18
true,9,0,1,1,false,z,true,true,0.0-2.0-0.39-0.357-3.357,0,0,0,81,false,stim,false,2,1054.0899999905378,1,0,2,14312,WMM1,959633,false,true,1174,image-keyboard-response,19
true,9,1,1,1,true,z,false,false,0.0-2.0-0.39-0.358-3.358,0,0,0,90,false,stim,false,2,517.2350000357255,1,0,1,14312,WMM1,961669,false,true,1177,image-keyboard-response,20
true,9,0,1,1,false,z,true,false,0.0-2.0-0.39-0.359-3.359,0,0,0,81,false,stim,false,2,1288.1800000322983,1,0,2,14312,WMM1,964484,false,false,1180,image-keyboard-response,21
true,9,2,1,1,false,z,false,false,0.0-2.0-0.40-0.360-3.360,0,0,0,68,false,stim,true,2,1189.905000035651,1,0,1,14312,WMM1,967192,false,false,1183,image-keyboard-response,22
true,9,2,1,2,true,d,false,true,0.0-2.0-0.40-0.361-3.361,0,0,0,68,false,stim,false,0,713.8550000381656,1,0,0,14312,WMM1,969425,false,false,1186,image-keyboard-response,23
true,9,1,1,1,true,z,false,true,0.0-2.0-0.40-0.362-3.362,0,0,0,90,false,stim,false,2,675.020000024233,1,0,2,14312,WMM1,971623,false,false,1189,image-keyboard-response,24
true,9,1,1,1,true,z,false,true,0.0-2.0-0.40-0.363-3.363,0,0,0,90,false,stim,false,2,620.8900000201538,1,0,2,14312,WMM1,973760,false,false,1192,image-keyboard-response,25
true,9,2,1,2,true,d,false,true,0.0-2.0-0.40-0.364-3.364,0,0,0,68,false,stim,false,0,751.300000003539,1,0,0,14312,WMM1,976024,false,false,1195,image-keyboard-response,26
true,9,2,1,2,true,d,false,true,0.0-2.0-0.40-0.365-3.365,0,0,0,68,false,stim,false,0,462.39000000059605,1,0,0,14312,WMM1,978002,false,false,1198,image-keyboard-response,27
true,9,1,1,1,true,z,false,true,0.0-2.0-0.40-0.366-3.366,0,0,0,90,false,stim,false,2,1822.8850000305101,1,0,1,14312,WMM1,981362,false,false,1201,image-keyboard-response,28
true,9,1,1,1,true,z,false,true,0.0-2.0-0.40-0.367-3.367,0,0,0,90,false,stim,false,2,494.41500002285466,1,0,2,14312,WMM1,983371,false,false,1204,image-keyboard-response,29
true,9,1,1,1,true,z,false,true,0.0-2.0-0.40-0.368-3.368,0,0,0,90,false,stim,false,2,425.3199999802746,1,0,1,14312,WMM1,985324,false,false,1207,image-keyboard-response,30
true,9,1,1,1,true,z,false,true,0.0-2.0-0.41-0.369-3.369,0,0,0,90,false,stim,false,2,488.88499999884516,1,0,2,14312,WMM1,987331,false,false,1210,image-keyboard-response,31
true,9,1,1,1,true,z,false,true,0.0-2.0-0.41-0.370-3.370,0,0,0,90,false,stim,false,2,559.3949999893084,1,0,2,14312,WMM1,989406,false,false,1213,image-keyboard-response,32
true,9,1,1,1,true,z,false,true,0.0-2.0-0.41-0.371-3.371,0,0,0,90,false,stim,false,2,448.3749999781139,1,0,1,14312,WMM1,991370,false,false,1216,image-keyboard-response,33
true,9,2,1,2,true,d,false,true,0.0-2.0-0.41-0.372-3.372,0,0,0,68,false,stim,false,0,589.9050000007264,1,0,0,14312,WMM1,993471,false,false,1219,image-keyboard-response,34
true,9,1,1,1,true,z,false,true,0.0-2.0-0.41-0.373-3.373,0,0,0,90,false,stim,false,2,522.8200000128709,1,0,1,14312,WMM1,995515,false,false,1222,image-keyboard-response,35
true,9,1,1,1,true,z,false,true,0.0-2.0-0.41-0.374-3.374,0,0,0,90,false,stim,false,2,460.5849999934435,1,0,2,14312,WMM1,997494,false,false,1225,image-keyboard-response,36
true,9,2,1,2,true,d,false,true,0.0-2.0-0.41-0.375-3.375,0,0,0,68,false,stim,false,0,511.8699999875389,1,0,0,14312,WMM1,999524,false,false,1228,image-keyboard-response,37
true,9,1,1,1,true,z,false,true,0.0-2.0-0.41-0.376-3.376,0,0,0,90,false,stim,false,2,500.89999998454005,1,0,1,14312,WMM1,1001551,false,false,1231,image-keyboard-response,38
true,9,2,1,2,true,d,false,true,0.0-2.0-0.41-0.377-3.377,0,0,0,68,false,stim,false,0,544.0550000057556,1,0,0,14312,WMM1,1003612,false,false,1234,image-keyboard-response,39
true,9,1,1,1,true,z,false,true,0.0-2.0-0.42-0.378-3.378,0,0,0,90,false,stim,false,2,499.32499998249114,1,0,1,14312,WMM1,1005633,false,false,1237,image-keyboard-response,40
true,10,2,2,1,false,z,false,false,0.0-2.0-0.42-0.379-3.379,0,0,0,68,true,stim,true,2,463.77999999094754,1,0,0,14312,WMM1,1007615,false,false,1240,image-keyboard-response,1
true,10,1,2,0,false,q,false,false,0.0-2.0-0.42-0.380-3.380,0,0,0,90,false,stim,true,1,475.25499999755993,1,0,2,14312,WMM1,1009612,false,false,1243,image-keyboard-response,2
true,10,1,2,2,false,d,false,false,0.0-2.0-0.42-0.381-3.381,0,0,0,90,false,stim,true,1,727.6950000086799,1,0,1,14312,WMM1,1011859,false,false,1246,image-keyboard-response,3
true,10,0,2,0,true,q,false,false,0.0-2.0-0.42-0.382-3.382,0,0,0,81,false,stim,false,1,1031.2300000223331,1,0,2,14312,WMM1,1014412,false,true,1249,image-keyboard-response,4
true,10,0,2,2,false,d,true,false,0.0-2.0-0.42-0.383-3.383,0,0,0,81,false,stim,false,1,495.13500003376976,1,0,1,14312,WMM1,1016421,false,false,1252,image-keyboard-response,5
true,10,0,2,1,false,z,true,false,0.0-2.0-0.42-0.384-3.384,0,0,0,81,false,stim,false,2,428.1450000125915,1,0,0,14312,WMM1,1018371,false,false,1255,image-keyboard-response,6
true,10,2,2,0,false,q,true,false,0.0-2.0-0.42-0.385-3.385,0,0,0,68,false,stim,false,1,667.9000000003725,1,0,2,14312,WMM1,1020557,false,false,1258,image-keyboard-response,7
true,10,2,2,1,false,z,false,false,0.0-2.0-0.42-0.386-3.386,0,0,0,68,false,stim,true,2,425.0049999682233,1,0,0,14312,WMM1,1022512,false,false,1261,image-keyboard-response,8
true,10,2,2,2,true,d,false,true,0.0-2.0-0.43-0.387-3.387,0,0,0,68,false,stim,false,1,625.960000033956,1,0,1,14312,WMM1,1024648,false,false,1264,image-keyboard-response,9
true,10,1,2,0,false,q,false,false,0.0-2.0-0.43-0.388-3.388,0,0,0,90,false,stim,true,1,1073.8600000040606,1,0,2,14312,WMM1,1027249,false,false,1267,image-keyboard-response,10
true,10,2,2,2,true,d,false,true,0.0-2.0-0.43-0.389-3.389,0,0,0,68,false,stim,false,1,1070.4050000058487,1,0,1,14312,WMM1,1029840,false,false,1270,image-keyboard-response,11
true,10,2,2,2,true,d,false,true,0.0-2.0-0.43-0.390-3.390,0,0,0,68,false,stim,false,1,559.3849999713711,1,0,1,14312,WMM1,1031924,false,false,1273,image-keyboard-response,12
true,10,1,2,1,true,z,false,true,0.0-2.0-0.43-0.391-3.391,0,0,0,90,false,stim,false,2,507.00500002130866,1,0,0,14312,WMM1,1033944,false,false,1276,image-keyboard-response,13
true,10,1,2,0,false,q,false,false,0.0-2.0-0.43-0.392-3.392,0,0,0,90,false,stim,true,1,639.1299999668263,1,0,2,14312,WMM1,1036108,false,false,1279,image-keyboard-response,14
true,10,1,2,1,true,z,false,true,0.0-2.0-0.43-0.393-3.393,0,0,0,90,false,stim,false,2,405.61000001616776,1,0,0,14312,WMM1,1038036,false,false,1282,image-keyboard-response,15
true,10,0,2,0,true,q,false,true,0.0-2.0-0.43-0.394-3.394,0,0,0,81,false,stim,false,1,1133.49500001641,1,0,2,14312,WMM1,1040693,false,false,1285,image-keyboard-response,16
true,10,1,2,1,true,z,false,true,0.0-2.0-0.43-0.395-3.395,0,0,0,90,false,stim,false,2,1903.4450000035577,1,0,0,14312,WMM1,1044122,false,false,1288,image-keyboard-response,17
true,10,2,2,2,true,d,false,true,0.0-2.0-0.44-0.396-3.396,0,0,0,68,false,stim,false,1,449.54000000143424,1,0,1,14312,WMM1,1046100,false,false,1291,image-keyboard-response,18
true,10,0,2,0,true,q,false,true,0.0-2.0-0.44-0.397-3.397,0,0,0,81,false,stim,false,1,845.1650000060908,1,0,2,14312,WMM1,1048461,false,false,1294,image-keyboard-response,19
true,10,1,2,2,false,d,false,true,0.0-2.0-0.44-0.398-3.398,0,0,0,90,false,stim,true,1,446.9999999855645,1,0,1,14312,WMM1,1050425,false,true,1297,image-keyboard-response,20
true,10,0,2,0,true,q,false,true,0.0-2.0-0.44-0.399-3.399,0,0,0,81,false,stim,false,1,1071.3400000240654,1,0,2,14312,WMM1,1053017,false,false,1300,image-keyboard-response,21
true,10,2,2,1,false,z,false,false,0.0-2.0-0.44-0.400-3.400,0,0,0,68,false,stim,true,2,787.2250000364147,1,0,0,14312,WMM1,1055337,false,false,1303,image-keyboard-response,22
true,10,0,2,0,true,q,false,true,0.0-2.0-0.44-0.401-3.401,0,0,0,81,false,stim,false,1,824.4999999878928,1,0,2,14312,WMM1,1057693,false,false,1306,image-keyboard-response,23
true,10,1,2,1,true,z,false,true,0.0-2.0-0.44-0.402-3.402,0,0,0,90,false,stim,false,2,398.3250000164844,1,0,0,14312,WMM1,1059612,false,false,1309,image-keyboard-response,24
true,10,1,2,1,true,z,false,true,0.0-2.0-0.44-0.403-3.403,0,0,0,90,false,stim,false,2,542.6950000110082,1,0,0,14312,WMM1,1061676,false,false,1312,image-keyboard-response,25
true,10,2,2,2,true,d,false,false,0.0-2.0-0.44-0.404-3.404,0,0,0,68,false,stim,false,1,442.2200000262819,1,0,1,14312,WMM1,1063635,false,true,1315,image-keyboard-response,26
true,10,1,2,2,false,d,false,false,0.0-2.0-0.45-0.405-3.405,0,0,0,90,false,stim,true,1,1252.9549999744631,1,0,1,14312,WMM1,1066414,false,false,1318,image-keyboard-response,27
true,10,0,2,0,true,q,false,true,0.0-2.0-0.45-0.406-3.406,0,0,0,81,false,stim,false,1,492.9850000189617,1,0,2,14312,WMM1,1068428,false,false,1321,image-keyboard-response,28
true,10,0,2,2,false,d,true,false,0.0-2.0-0.45-0.407-3.407,0,0,0,81,false,stim,false,1,513.6099999654107,1,0,1,14312,WMM1,1070468,false,false,1324,image-keyboard-response,29
true,10,1,2,1,true,z,false,true,0.0-2.0-0.45-0.408-3.408,0,0,0,90,false,stim,false,2,1119.1199999884702,1,0,0,14312,WMM1,1073102,false,false,1327,image-keyboard-response,30
true,10,1,2,1,true,z,false,true,0.0-2.0-0.45-0.409-3.409,0,0,0,90,false,stim,false,2,638.1049999617971,1,0,0,14312,WMM1,1075259,false,false,1330,image-keyboard-response,31
true,10,0,2,0,true,q,false,true,0.0-2.0-0.45-0.410-3.410,0,0,0,81,false,stim,false,1,1138.7700000195764,1,0,2,14312,WMM1,1077909,false,false,1333,image-keyboard-response,32
true,10,0,2,0,true,q,false,true,0.0-2.0-0.45-0.411-3.411,0,0,0,81,false,stim,false,1,863.1049999967217,1,0,2,14312,WMM1,1080294,false,false,1336,image-keyboard-response,33
true,10,1,2,2,false,d,false,false,0.0-2.0-0.45-0.412-3.412,0,0,0,90,false,stim,true,1,1009.7749999840744,1,0,1,14312,WMM1,1082823,false,false,1339,image-keyboard-response,34
true,10,1,2,1,true,z,false,true,0.0-2.0-0.45-0.413-3.413,0,0,0,90,false,stim,false,2,414.1600000439212,1,0,0,14312,WMM1,1084752,false,false,1342,image-keyboard-response,35
true,10,0,2,0,true,q,false,true,0.0-2.0-0.46-0.414-3.414,0,0,0,81,false,stim,false,1,784.174999978859,1,0,2,14312,WMM1,1087074,false,false,1345,image-keyboard-response,36
true,10,0,2,2,false,d,true,false,0.0-2.0-0.46-0.415-3.415,0,0,0,81,false,stim,false,1,862.1150000253692,1,0,1,14312,WMM1,1089451,false,false,1348,image-keyboard-response,37
true,10,1,2,1,true,z,false,true,0.0-2.0-0.46-0.416-3.416,0,0,0,90,false,stim,false,2,659.6149999531917,1,0,0,14312,WMM1,1091642,false,false,1351,image-keyboard-response,38
true,10,2,2,2,true,d,false,false,0.0-2.0-0.46-0.417-3.417,0,0,0,68,false,stim,false,1,486.4700000034645,1,0,1,14312,WMM1,1093652,false,true,1354,image-keyboard-response,39
true,10,1,2,1,true,z,false,true,0.0-2.0-0.46-0.418-3.418,0,0,0,90,false,stim,false,2,1019.1350000095554,1,0,0,14312,WMM1,1096196,false,false,1357,image-keyboard-response,40
true,10,1,2,1,true,z,false,true,0.0-2.0-0.46-0.419-3.419,0,0,0,90,false,stim,false,2,558.6550000007264,1,0,0,14312,WMM1,1098271,false,false,1360,image-keyboard-response,41
true,10,0,2,0,true,q,false,true,0.0-2.0-0.46-0.420-3.420,0,0,0,81,false,stim,false,1,773.5450000036508,1,0,2,14312,WMM1,1100564,false,false,1363,image-keyboard-response,42
true,10,0,2,0,true,q,false,true,0.0-2.0-0.46-0.421-3.421,0,0,0,81,false,stim,false,1,582.4799999827519,1,0,2,14312,WMM1,1102668,false,false,1366,image-keyboard-response,43
true,10,0,2,2,false,d,true,false,0.0-2.0-0.46-0.422-3.422,0,0,0,81,false,stim,false,1,518.2350000250153,1,0,1,14312,WMM1,1104711,false,false,1369,image-keyboard-response,44
true,10,1,2,2,false,d,false,false,0.0-2.0-0.47-0.423-3.423,0,0,0,90,false,stim,true,1,585.5499999597669,1,0,1,14312,WMM1,1106820,false,false,1372,image-keyboard-response,45
true,10,1,2,1,true,z,false,true,0.0-2.0-0.47-0.424-3.424,0,0,0,90,false,stim,false,2,728.5350000020117,1,0,0,14312,WMM1,1109075,false,false,1375,image-keyboard-response,46
true,10,0,2,0,true,q,false,false,0.0-2.0-0.47-0.425-3.425,0,0,0,81,false,stim,false,1,883.0000000307336,1,0,2,14312,WMM1,1111475,false,true,1378,image-keyboard-response,47
true,10,1,2,0,false,q,false,false,0.0-2.0-0.47-0.426-3.426,0,0,0,90,false,stim,true,1,763.2749999756925,1,0,2,14312,WMM1,1113764,false,false,1381,image-keyboard-response,48
true,10,2,2,2,true,d,false,false,0.0-2.0-0.47-0.427-3.427,0,0,0,68,false,stim,false,1,622.9900000034831,1,0,1,14312,WMM1,1115901,false,true,1384,image-keyboard-response,49
true,10,1,2,1,true,z,false,true,0.0-2.0-0.47-0.428-3.428,0,0,0,90,false,stim,false,2,680.3150000050664,1,0,0,14312,WMM1,1118104,false,false,1387,image-keyboard-response,50
true,10,1,2,1,true,z,false,true,0.0-2.0-0.47-0.429-3.429,0,0,0,90,false,stim,false,2,615.4849999584258,1,0,0,14312,WMM1,1120241,false,false,1390,image-keyboard-response,51
true,10,2,2,2,true,d,false,false,0.0-2.0-0.47-0.430-3.430,0,0,0,68,false,stim,false,1,650.5250000045635,1,0,1,14312,WMM1,1122418,false,true,1393,image-keyboard-response,52
true,10,2,2,0,false,q,true,false,0.0-2.0-0.47-0.431-3.431,0,0,0,68,false,stim,false,1,468.90999999595806,1,1,2,14312,WMM1,1124409,false,false,1396,image-keyboard-response,53
true,10,1,2,2,false,d,false,false,0.0-2.0-0.48-0.432-3.432,0,0,0,90,false,stim,true,1,818.28000000678,1,0,1,14312,WMM1,1126748,false,false,1399,image-keyboard-response,54
true,10,1,2,2,false,d,false,false,0.0-2.0-0.48-0.433-3.433,0,0,0,90,false,stim,true,1,512.5249999691732,1,0,1,14312,WMM1,1128790,false,false,1402,image-keyboard-response,55
true,10,1,2,0,false,q,false,true,0.0-2.0-0.48-0.434-3.434,0,0,0,90,false,stim,true,1,509.7300000488758,1,1,2,14312,WMM1,1130817,false,true,1405,image-keyboard-response,56
true,10,0,2,2,false,d,true,false,0.0-2.0-0.48-0.435-3.435,0,0,0,81,false,stim,false,1,1364.5700000342913,1,0,1,14312,WMM1,1133697,false,false,1408,image-keyboard-response,57
true,10,1,2,1,true,z,false,false,0.0-2.0-0.48-0.436-3.436,0,0,0,90,false,stim,false,2,943.1150000309572,1,0,0,14312,WMM1,1136165,false,true,1411,image-keyboard-response,58
true,10,2,2,1,false,z,false,false,0.0-2.0-0.48-0.437-3.437,0,0,0,68,false,stim,true,2,845.5149999936111,1,0,0,14312,WMM1,1138523,false,false,1414,image-keyboard-response,59
true,10,1,2,0,false,q,false,false,0.0-2.0-0.48-0.438-3.438,0,0,0,90,false,stim,true,1,582.4649999849498,1,1,2,14312,WMM1,1140626,false,false,1417,image-keyboard-response,60
true,11,0,3,2,false,d,true,false,0.0-2.0-0.48-0.439-3.439,0,0,1,81,true,stim,false,1,777.7399999904446,1,0,0,14312,WMM1,1142933,false,false,1420,image-keyboard-response,1
true,11,0,3,0,true,q,false,true,0.0-2.0-0.48-0.440-3.440,0,0,1,81,false,stim,false,0,477.1050000563264,1,1,2,14312,WMM1,1144931,false,false,1423,image-keyboard-response,2
true,11,0,3,1,false,z,true,false,0.0-2.0-0.49-0.441-3.441,0,0,1,81,false,stim,false,2,741.2400000030175,1,0,1,14312,WMM1,1147191,false,false,1426,image-keyboard-response,3
true,11,0,3,0,true,q,false,true,0.0-2.0-0.49-0.442-3.442,0,0,1,81,false,stim,false,0,1917.9499999736436,1,1,2,14312,WMM1,1150615,false,false,1429,image-keyboard-response,4
true,11,1,3,2,false,d,false,false,0.0-2.0-0.49-0.443-3.443,0,0,1,90,false,stim,true,1,551.0950000025332,1,0,0,14312,WMM1,1152693,false,false,1432,image-keyboard-response,5
true,11,0,3,0,true,q,false,true,0.0-2.0-0.49-0.444-3.444,0,0,1,81,false,stim,false,0,1212.4300000141375,1,1,2,14312,WMM1,1155424,false,false,1435,image-keyboard-response,6
true,11,2,3,1,false,z,false,true,0.0-2.0-0.49-0.445-3.445,0,0,1,68,false,stim,true,2,1487.9749999963678,1,0,1,14312,WMM1,1158425,false,true,1438,image-keyboard-response,7
true,11,2,3,2,true,d,false,true,0.0-2.0-0.49-0.446-3.446,0,0,1,68,false,stim,false,1,1305.9350000112318,1,0,0,14312,WMM1,1161249,false,false,1441,image-keyboard-response,8
true,11,2,3,1,false,z,false,true,0.0-2.0-0.49-0.447-3.447,0,0,1,68,false,stim,true,2,1099.515000008978,1,0,1,14312,WMM1,1163873,false,true,1444,image-keyboard-response,9
true,11,0,3,0,true,q,false,true,0.0-2.0-0.49-0.448-3.448,0,0,1,81,false,stim,false,0,590.2099999948405,1,1,2,14312,WMM1,1165987,false,false,1447,image-keyboard-response,10
true,11,2,3,2,true,d,false,true,0.0-2.0-0.49-0.449-3.449,0,0,1,68,false,stim,false,1,653.9600000251085,1,0,0,14312,WMM1,1168160,false,false,1450,image-keyboard-response,11
true,11,2,3,1,false,z,false,false,0.0-2.0-0.50-0.450-3.450,0,0,1,68,false,stim,true,2,718.4850000194274,1,0,1,14312,WMM1,1170399,false,false,1453,image-keyboard-response,12
true,11,2,3,0,false,q,true,false,0.0-2.0-0.50-0.451-3.451,0,0,1,68,false,stim,false,0,445.9999999962747,1,1,2,14312,WMM1,1172361,false,false,1456,image-keyboard-response,13
true,11,2,3,2,true,d,false,true,0.0-2.0-0.50-0.452-3.452,0,0,1,68,false,stim,false,1,2231.084999977611,1,0,0,14312,WMM1,1176119,false,false,1459,image-keyboard-response,14
true,11,0,3,0,true,q,false,true,0.0-2.0-0.50-0.453-3.453,0,0,1,81,false,stim,false,0,1054.515000025276,1,1,2,14312,WMM1,1178689,false,false,1462,image-keyboard-response,15
true,11,2,3,2,true,d,false,true,0.0-2.0-0.50-0.454-3.454,0,0,1,68,false,stim,false,1,480.1049999659881,1,0,0,14312,WMM1,1180686,false,false,1465,image-keyboard-response,16
true,11,0,3,0,true,q,false,true,0.0-2.0-0.50-0.455-3.455,0,0,1,81,false,stim,false,0,588.8099999865517,1,1,2,14312,WMM1,1182802,false,false,1468,image-keyboard-response,17
true,11,1,3,1,true,z,false,false,0.0-2.0-0.50-0.456-3.456,0,0,1,90,false,stim,false,2,1785.9999999636784,1,0,1,14312,WMM1,1186109,false,true,1471,image-keyboard-response,18
true,11,2,3,1,false,z,false,false,0.0-2.0-0.50-0.457-3.457,0,0,1,68,false,stim,true,2,710.0700000301003,1,0,1,14312,WMM1,1188335,false,false,1474,image-keyboard-response,19
true,11,0,3,2,false,d,true,false,0.0-2.0-0.50-0.458-3.458,0,0,1,81,false,stim,false,1,767.4250000272878,1,0,0,14312,WMM1,1190632,false,false,1477,image-keyboard-response,20
true,11,1,3,2,false,d,false,false,0.0-2.0-0.51-0.459-3.459,0,0,1,90,false,stim,true,1,1241.3500000257045,1,0,0,14312,WMM1,1193389,false,false,1480,image-keyboard-response,21
true,11,0,3,0,true,q,false,true,0.0-2.0-0.51-0.460-3.460,0,0,1,81,false,stim,false,0,843.4549999656156,1,1,2,14312,WMM1,1195762,false,false,1483,image-keyboard-response,22
true,11,0,3,0,true,q,false,true,0.0-2.0-0.51-0.461-3.461,0,0,1,81,false,stim,false,0,694.0499999909662,1,1,2,14312,WMM1,1197975,false,false,1486,image-keyboard-response,23
true,11,0,3,1,false,z,true,false,0.0-2.0-0.51-0.462-3.462,0,0,1,81,false,stim,false,2,539.0749999787658,1,0,1,14312,WMM1,1200026,false,false,1489,image-keyboard-response,24
true,11,1,3,2,false,d,false,false,0.0-2.0-0.51-0.463-3.463,0,0,1,90,false,stim,true,1,1490.3599999961443,1,0,0,14312,WMM1,1203037,false,false,1492,image-keyboard-response,25
true,11,0,3,0,true,q,false,true,0.0-2.0-0.51-0.464-3.464,0,0,1,81,false,stim,false,0,1029.6049999888055,1,1,2,14312,WMM1,1205594,false,false,1495,image-keyboard-response,26
true,11,2,3,1,false,z,false,false,0.0-2.0-0.51-0.465-3.465,0,0,1,68,false,stim,true,2,491.7750000022352,1,0,1,14312,WMM1,1207594,false,false,1498,image-keyboard-response,27
true,11,2,3,2,true,d,false,true,0.0-2.0-0.51-0.466-3.466,0,0,1,68,false,stim,false,1,1533.5900000063702,1,0,0,14312,WMM1,1210663,false,false,1501,image-keyboard-response,28
true,11,1,3,1,true,z,false,true,0.0-2.0-0.51-0.467-3.467,0,0,1,90,false,stim,false,2,1542.8349999710917,1,0,1,14312,WMM1,1213724,false,false,1504,image-keyboard-response,29
true,11,1,3,1,true,z,false,true,0.0-2.0-0.52-0.468-3.468,0,0,1,90,false,stim,false,2,526.5349999535829,1,0,1,14312,WMM1,1215778,false,false,1507,image-keyboard-response,30
true,11,1,3,1,true,z,false,true,0.0-2.0-0.52-0.469-3.469,0,0,1,90,false,stim,false,2,462.4750000075437,1,0,1,14312,WMM1,1217766,false,false,1510,image-keyboard-response,31
true,11,2,3,2,true,d,false,true,0.0-2.0-0.52-0.470-3.470,0,0,1,68,false,stim,false,1,985.8600000152364,1,0,0,14312,WMM1,1220279,false,false,1513,image-keyboard-response,32
true,11,0,3,0,true,q,false,true,0.0-2.0-0.52-0.471-3.471,0,0,1,81,false,stim,false,0,1004.030000010971,1,0,2,14312,WMM1,1222807,false,false,1516,image-keyboard-response,33
true,11,0,3,0,true,q,false,true,0.0-2.0-0.52-0.472-3.472,0,0,1,81,false,stim,false,0,1034.7300000139512,1,0,2,14312,WMM1,1225356,false,false,1519,image-keyboard-response,34
true,11,2,3,2,true,d,false,false,0.0-2.0-0.52-0.473-3.473,0,0,1,68,false,stim,false,1,778.6950000445358,1,0,0,14312,WMM1,1227657,false,true,1522,image-keyboard-response,35
true,11,1,3,2,false,d,false,false,0.0-2.0-0.52-0.474-3.474,0,0,1,90,false,stim,true,1,685.9799999510869,1,0,0,14312,WMM1,1229860,false,false,1525,image-keyboard-response,36
true,11,2,3,1,false,z,false,false,0.0-2.0-0.52-0.475-3.475,0,0,1,68,false,stim,true,2,886.0850000055507,1,0,1,14312,WMM1,1232264,false,false,1528,image-keyboard-response,37
true,11,0,3,0,true,q,false,true,0.0-2.0-0.52-0.476-3.476,0,0,1,81,false,stim,false,0,1121.8500000541098,1,0,2,14312,WMM1,1234912,false,false,1531,image-keyboard-response,38
true,11,0,3,0,true,q,false,true,0.0-2.0-0.53-0.477-3.477,0,0,1,81,false,stim,false,0,1088.724999979604,1,0,2,14312,WMM1,1237516,false,false,1534,image-keyboard-response,39
true,11,1,3,1,true,z,false,true,0.0-2.0-0.53-0.478-3.478,0,0,1,90,false,stim,false,2,808.4300000336953,1,0,1,14312,WMM1,1239838,false,false,1537,image-keyboard-response,40
true,11,1,3,2,false,d,false,false,0.0-2.0-0.53-0.479-3.479,0,0,1,90,false,stim,true,1,815.8499999553896,1,0,0,14312,WMM1,1242178,false,false,1540,image-keyboard-response,41
true,11,2,3,2,true,d,false,true,0.0-2.0-0.53-0.480-3.480,0,0,1,68,false,stim,false,1,616.5400000172667,1,0,0,14312,WMM1,1244304,false,false,1543,image-keyboard-response,42
true,12,0,1,1,false,z,false,false,0.0-2.0-0.53-0.481-3.481,0,0,0,81,true,stim,true,0,1125.3949999809265,1,0,2,14312,WMM1,1246942,false,false,1546,image-keyboard-response,1
true,12,1,1,2,false,d,false,false,0.0-2.0-0.53-0.482-3.482,0,0,0,90,false,stim,true,1,894.8649999802001,1,0,1,14312,WMM1,1249351,false,false,1549,image-keyboard-response,2
true,12,1,1,1,true,z,false,true,0.0-2.0-0.53-0.483-3.483,0,0,0,90,false,stim,false,0,1103.9849999942817,1,0,2,14312,WMM1,1251973,false,false,1552,image-keyboard-response,3
true,12,0,1,2,false,d,true,false,0.0-2.0-0.53-0.484-3.484,0,0,0,81,false,stim,false,1,1782.0449999999255,1,0,1,14312,WMM1,1255278,false,false,1555,image-keyboard-response,4
true,12,2,1,1,false,z,false,false,0.0-2.0-0.53-0.485-3.485,0,0,0,68,false,stim,true,2,934.7300000372343,1,0,0,14312,WMM1,1257727,false,false,1558,image-keyboard-response,5
true,12,1,1,2,false,d,false,false,0.0-2.0-0.54-0.486-3.486,0,0,0,90,false,stim,true,1,1770.8350000320934,1,0,1,14312,WMM1,1261008,false,false,1561,image-keyboard-response,6
true,12,0,1,2,false,d,true,false,0.0-2.0-0.54-0.487-3.487,0,0,0,81,false,stim,false,1,1301.3149999896996,1,0,1,14312,WMM1,1263832,false,false,1564,image-keyboard-response,7
true,12,2,1,2,true,d,false,true,0.0-2.0-0.54-0.488-3.488,0,0,0,68,false,stim,false,1,1065.4700000304729,1,0,1,14312,WMM1,1266421,false,false,1567,image-keyboard-response,8
true,12,2,1,1,false,z,true,false,0.0-2.0-0.54-0.489-3.489,0,0,0,68,false,stim,false,0,772.2199999843724,1,0,2,14312,WMM1,1268711,false,false,1570,image-keyboard-response,9
true,12,2,1,1,false,z,false,false,0.0-2.0-0.54-0.490-3.490,0,0,0,68,false,stim,true,2,583.2049999735318,1,0,0,14312,WMM1,1270818,false,false,1573,image-keyboard-response,10
true,12,1,1,1,true,z,false,true,0.0-2.0-0.54-0.491-3.491,0,0,0,90,false,stim,false,2,568.1849999818951,1,0,0,14312,WMM1,1272909,false,false,1576,image-keyboard-response,11
true,12,1,1,1,true,z,false,true,0.0-2.0-0.54-0.492-3.492,0,0,0,90,false,stim,false,2,1089.139999996405,1,0,0,14312,WMM1,1275514,false,false,1579,image-keyboard-response,12
true,12,1,1,1,true,z,false,true,0.0-2.0-0.54-0.493-3.493,0,0,0,90,false,stim,false,0,914.2299999948591,1,0,2,14312,WMM1,1277949,false,false,1582,image-keyboard-response,13
true,12,1,1,1,true,z,false,true,0.0-2.0-0.54-0.494-3.494,0,0,0,90,false,stim,false,0,752.9450000147335,1,0,2,14312,WMM1,1280217,false,false,1585,image-keyboard-response,14
true,12,1,1,1,true,z,false,true,0.0-2.0-0.55-0.495-3.495,0,0,0,90,false,stim,false,0,576.0799999698065,1,0,2,14312,WMM1,1282312,false,false,1588,image-keyboard-response,15
true,12,1,1,1,true,z,false,true,0.0-2.0-0.55-0.496-3.496,0,0,0,90,false,stim,false,0,430.33500004094094,1,0,2,14312,WMM1,1284259,false,false,1591,image-keyboard-response,16
true,12,2,1,2,true,d,false,true,0.0-2.0-0.55-0.497-3.497,0,0,0,68,false,stim,false,1,1035.730000003241,1,0,1,14312,WMM1,1286824,false,false,1594,image-keyboard-response,17
true,12,1,1,1,true,z,false,true,0.0-2.0-0.55-0.498-3.498,0,0,0,90,false,stim,false,0,737.6850000000559,1,0,2,14312,WMM1,1289076,false,false,1597,image-keyboard-response,18
true,12,1,1,1,true,z,false,true,0.0-2.0-0.55-0.499-3.499,0,0,0,90,false,stim,false,2,1611.8249999708496,1,0,0,14312,WMM1,1292208,false,false,1600,image-keyboard-response,19
true,12,1,1,1,true,z,false,true,0.0-2.0-0.55-0.500-3.500,0,0,0,90,false,stim,false,2,540.8100000349805,1,0,0,14312,WMM1,1294272,false,false,1603,image-keyboard-response,20
true,12,2,1,2,true,d,false,true,0.0-2.0-0.55-0.501-3.501,0,0,0,68,false,stim,false,1,927.1350000053644,1,0,1,14312,WMM1,1296721,false,false,1606,image-keyboard-response,21
true,12,1,1,1,true,z,false,true,0.0-2.0-0.55-0.502-3.502,0,0,0,90,false,stim,false,2,617.740000016056,1,0,0,14312,WMM1,1298855,false,false,1609,image-keyboard-response,22
true,12,2,1,2,true,d,false,true,0.0-2.0-0.55-0.503-3.503,0,0,0,68,false,stim,false,1,616.9599999557249,1,0,1,14312,WMM1,1300999,false,false,1612,image-keyboard-response,23
true,12,1,1,1,true,z,false,true,0.0-2.0-0.56-0.504-3.504,0,0,0,90,false,stim,false,0,622.5749999866821,1,0,2,14312,WMM1,1303130,false,false,1615,image-keyboard-response,24
true,12,2,1,2,true,d,false,true,0.0-2.0-0.56-0.505-3.505,0,0,0,68,false,stim,false,1,967.9050000268035,1,0,1,14312,WMM1,1305626,false,false,1618,image-keyboard-response,25
true,12,1,1,1,true,z,false,false,0.0-2.0-0.56-0.506-3.506,0,0,0,90,false,stim,false,2,590.3799999505281,1,0,0,14312,WMM1,1307733,false,true,1621,image-keyboard-response,26
true,12,0,1,1,false,z,true,false,0.0-2.0-0.56-0.507-3.507,0,0,0,81,false,stim,false,2,1564.2850000294857,1,0,0,14312,WMM1,1310815,false,false,1624,image-keyboard-response,27
true,12,2,1,2,true,d,false,true,0.0-2.0-0.56-0.508-3.508,0,0,0,68,false,stim,false,1,741.6650000377558,1,0,1,14312,WMM1,1313084,false,false,1627,image-keyboard-response,28
true,12,2,1,2,true,d,false,true,0.0-2.0-0.56-0.509-3.509,0,0,0,68,false,stim,false,1,714.6650000358932,1,0,1,14312,WMM1,1315313,false,false,1630,image-keyboard-response,29
true,12,2,1,1,false,z,false,true,0.0-2.0-0.56-0.510-3.510,0,0,0,68,false,stim,true,2,487.9549999604933,1,0,0,14312,WMM1,1317319,false,true,1633,image-keyboard-response,30
true,13,1,4,2,false,d,false,false,0.0-2.0-0.56-0.511-3.511,0,0,0,90,true,stim,true,1,836.8449999834411,1,0,2,14312,WMM1,1319671,false,false,1636,image-keyboard-response,1
true,13,0,4,2,false,d,true,false,0.0-2.0-0.56-0.512-3.512,0,0,0,81,false,stim,false,1,1210.8449999941513,1,0,2,14312,WMM1,1322412,false,false,1639,image-keyboard-response,2
true,13,2,4,2,true,d,false,true,0.0-2.0-0.57-0.513-3.513,0,0,0,68,false,stim,false,1,598.0949999648146,1,0,2,14312,WMM1,1324524,false,false,1642,image-keyboard-response,3
true,13,2,4,2,true,d,false,false,0.0-2.0-0.57-0.514-3.514,0,0,0,68,false,stim,false,1,494.55499998293817,1,0,2,14312,WMM1,1326537,false,true,1645,image-keyboard-response,4
true,13,2,4,0,false,q,false,false,0.0-2.0-0.57-0.515-3.515,0,0,0,68,false,stim,true,2,558.6400000029244,1,0,1,14312,WMM1,1328614,false,false,1648,image-keyboard-response,5
true,13,2,4,0,false,q,false,false,0.0-2.0-0.57-0.516-3.516,0,0,0,68,false,stim,true,2,639.5649999612942,1,0,1,14312,WMM1,1330773,false,false,1651,image-keyboard-response,6
true,13,2,4,0,false,q,true,false,0.0-2.0-0.57-0.517-3.517,0,0,0,68,false,stim,false,1,489.5000000251457,1,0,0,14312,WMM1,1332783,false,false,1654,image-keyboard-response,7
true,13,1,4,0,false,q,true,false,0.0-2.0-0.57-0.518-3.518,0,0,0,90,false,stim,false,2,1042.215000023134,1,0,1,14312,WMM1,1335344,false,false,1657,image-keyboard-response,8
true,13,1,4,2,false,d,false,false,0.0-2.0-0.57-0.519-3.519,0,0,0,90,false,stim,true,1,924.0149999968708,1,0,2,14312,WMM1,1337785,false,false,1660,image-keyboard-response,9
true,13,1,4,0,false,q,false,false,0.0-2.0-0.57-0.520-3.520,0,0,0,90,false,stim,true,1,450.8499999647029,1,0,0,14312,WMM1,1339758,false,false,1663,image-keyboard-response,10
true,13,0,4,0,true,q,false,true,0.0-2.0-0.57-0.521-3.521,0,0,0,81,false,stim,false,1,445.2600000076927,1,0,0,14312,WMM1,1341720,false,false,1666,image-keyboard-response,11
true,13,0,4,0,true,q,false,true,0.0-2.0-0.58-0.522-3.522,0,0,0,81,false,stim,false,1,1002.8000000165775,1,0,0,14312,WMM1,1344244,false,false,1669,image-keyboard-response,12
true,13,0,4,2,false,d,true,false,0.0-2.0-0.58-0.523-3.523,0,0,0,81,false,stim,false,1,498.9099999656901,1,0,2,14312,WMM1,1346270,false,false,1672,image-keyboard-response,13
true,13,0,4,0,true,q,false,true,0.0-2.0-0.58-0.524-3.524,0,0,0,81,false,stim,false,1,574.384999985341,1,0,0,14312,WMM1,1348354,false,false,1675,image-keyboard-response,14
true,13,0,4,0,true,q,false,true,0.0-2.0-0.58-0.525-3.525,0,0,0,81,false,stim,false,2,1650.5899999756366,1,0,1,14312,WMM1,1351523,false,false,1678,image-keyboard-response,15
true,13,0,4,0,true,q,false,true,0.0-2.0-0.58-0.526-3.526,0,0,0,81,false,stim,false,2,520.2399999834597,1,0,1,14312,WMM1,1353564,false,false,1681,image-keyboard-response,16
true,13,2,4,2,true,d,false,true,0.0-2.0-0.58-0.527-3.527,0,0,0,68,false,stim,false,1,584.8450000048615,1,0,2,14312,WMM1,1355662,false,false,1684,image-keyboard-response,17
true,13,0,4,0,true,q,false,true,0.0-2.0-0.58-0.528-3.528,0,0,0,81,false,stim,false,2,912.7199999638833,1,0,1,14312,WMM1,1358093,false,false,1687,image-keyboard-response,18
true,13,0,4,0,true,q,false,true,0.0-2.0-0.58-0.529-3.529,0,0,0,81,false,stim,false,1,466.9700000085868,1,0,0,14312,WMM1,1360080,false,false,1690,image-keyboard-response,19
true,13,2,4,2,true,d,false,true,0.0-2.0-0.58-0.530-3.530,0,0,0,68,false,stim,false,1,566.6549999732524,1,0,2,14312,WMM1,1362170,false,false,1693,image-keyboard-response,20
true,13,0,4,0,true,q,false,false,0.0-2.0-0.59-0.531-3.531,0,0,0,81,false,stim,false,2,873.7650000257418,1,1,1,14312,WMM1,1364563,false,true,1696,image-keyboard-response,21
true,13,2,4,0,false,q,false,false,0.0-2.0-0.59-0.532-3.532,0,0,0,68,false,stim,true,2,871.6949999798089,1,1,1,14312,WMM1,1366955,false,false,1699,image-keyboard-response,22
true,13,2,4,2,true,d,false,true,0.0-2.0-0.59-0.533-3.533,0,0,0,68,false,stim,false,1,747.4650000222027,1,1,2,14312,WMM1,1369228,false,false,1702,image-keyboard-response,23
true,13,1,4,0,false,q,false,false,0.0-2.0-0.59-0.534-3.534,0,0,0,90,false,stim,true,1,2490.4700000188313,1,1,0,14312,WMM1,1373231,false,false,1705,image-keyboard-response,24
true,13,0,4,0,true,q,false,false,0.0-2.0-0.59-0.535-3.535,0,0,0,81,false,stim,false,1,1350.6100000231527,1,1,0,14312,WMM1,1376105,false,true,1708,image-keyboard-response,25
true,13,1,4,2,false,d,false,false,0.0-2.0-0.59-0.536-3.536,0,0,0,90,false,stim,true,1,1030.4449999821372,1,1,2,14312,WMM1,1378653,false,false,1711,image-keyboard-response,26
true,13,2,4,2,true,d,false,true,0.0-2.0-0.59-0.537-3.537,0,0,0,68,false,stim,false,1,1147.3000000114553,1,1,2,14312,WMM1,1381319,false,false,1714,image-keyboard-response,27
true,13,2,4,0,false,q,false,false,0.0-2.0-0.59-0.538-3.538,0,0,0,68,false,stim,true,2,762.4500000383705,1,1,1,14312,WMM1,1383601,false,false,1717,image-keyboard-response,28
true,13,2,4,0,false,q,true,true,0.0-2.0-0.59-0.539-3.539,0,0,0,68,false,stim,false,1,678.2799999928102,1,1,0,14312,WMM1,1385794,false,true,1720,image-keyboard-response,29
true,13,2,4,2,true,d,false,true,0.0-2.0-0.60-0.540-3.540,0,0,0,68,false,stim,false,1,621.1999999941327,1,1,2,14312,WMM1,1387931,false,false,1723,image-keyboard-response,30
true,14,0,0,2,false,d,true,false,0.0-2.0-0.60-0.541-3.541,1,1,1,81,true,stim,false,2,2108.7449999758974,1,1,2,14312,WMM1,1503330,false,false,1837,image-keyboard-response,1
true,14,1,0,0,false,q,true,false,0.0-2.0-0.60-0.542-3.542,1,1,1,90,false,stim,false,0,1617.7700000116602,1,1,0,14312,WMM1,1506465,false,false,1840,image-keyboard-response,2
true,14,2,0,0,false,q,true,false,0.0-2.0-0.60-0.543-3.543,1,1,1,68,false,stim,false,0,914.8599999607541,1,1,0,14312,WMM1,1508889,false,false,1843,image-keyboard-response,3
true,14,1,0,2,false,d,true,false,0.0-2.0-0.60-0.544-3.544,1,1,1,90,false,stim,false,2,660.8099999721162,1,1,2,14312,WMM1,1511063,false,false,1846,image-keyboard-response,4
true,14,0,0,0,true,q,false,true,0.0-2.0-0.60-0.545-3.545,1,1,1,81,false,stim,false,0,1421.2449999758974,1,1,0,14312,WMM1,1514014,false,false,1849,image-keyboard-response,5
true,14,0,0,0,true,q,false,true,0.0-2.0-0.60-0.546-3.546,1,1,1,81,false,stim,false,0,745.3450000029989,1,1,1,14312,WMM1,1516280,false,false,1852,image-keyboard-response,6
true,14,0,0,0,true,q,false,true,0.0-2.0-0.60-0.547-3.547,1,1,1,81,false,stim,false,0,460.8850000076927,1,1,1,14312,WMM1,1518252,false,false,1855,image-keyboard-response,7
true,14,0,0,0,true,q,false,true,0.0-2.0-0.60-0.548-3.548,1,1,1,81,false,stim,false,0,430.6499999947846,1,1,1,14312,WMM1,1520207,false,false,1858,image-keyboard-response,8
true,14,1,0,2,false,d,true,false,0.0-2.0-0.61-0.549-3.549,1,1,1,90,false,stim,false,2,524.6549999574199,1,1,2,14312,WMM1,1522249,false,false,1861,image-keyboard-response,9
true,14,0,0,0,true,q,false,true,0.0-2.0-0.61-0.550-3.550,1,1,1,81,false,stim,false,0,644.1350000095554,1,1,0,14312,WMM1,1524410,false,false,1864,image-keyboard-response,10
true,14,2,0,2,true,d,false,true,0.0-2.0-0.61-0.551-3.551,1,1,1,68,false,stim,false,2,1180.2800000295974,1,1,2,14312,WMM1,1527104,false,false,1867,image-keyboard-response,11
true,14,0,0,0,true,q,false,true,0.0-2.0-0.61-0.552-3.552,1,1,1,81,false,stim,false,0,619.5650000008754,1,1,1,14312,WMM1,1529243,false,false,1870,image-keyboard-response,12
true,14,0,0,0,true,q,false,true,0.0-2.0-0.61-0.553-3.553,1,1,1,81,false,stim,false,0,444.32499998947605,1,1,0,14312,WMM1,1531210,false,false,1873,image-keyboard-response,13
true,14,2,0,2,true,d,false,true,0.0-2.0-0.61-0.554-3.554,1,1,1,68,false,stim,false,2,583.489999989979,1,1,2,14312,WMM1,1533321,false,false,1876,image-keyboard-response,14
true,14,0,0,0,true,q,false,false,0.0-2.0-0.61-0.555-3.555,1,1,1,81,false,stim,false,0,583.2400000072084,1,1,1,14312,WMM1,1535416,false,true,1879,image-keyboard-response,15
true,14,1,0,0,false,q,true,false,0.0-2.0-0.61-0.556-3.556,1,1,1,90,false,stim,false,0,1205.4750000243075,1,1,1,14312,WMM1,1538143,false,false,1882,image-keyboard-response,16
true,14,1,0,0,false,q,true,false,0.0-2.0-0.61-0.557-3.557,1,1,1,90,false,stim,false,0,1506.7649999982677,1,1,0,14312,WMM1,1541168,false,false,1885,image-keyboard-response,17
true,14,2,0,2,true,d,false,true,0.0-2.0-0.62-0.558-3.558,1,1,1,68,false,stim,false,2,906.7500000237487,1,1,2,14312,WMM1,1543592,false,false,1888,image-keyboard-response,18
true,14,2,0,2,true,d,false,true,0.0-2.0-0.62-0.559-3.559,1,1,1,68,false,stim,false,2,451.30000001518056,1,1,2,14312,WMM1,1545560,false,false,1891,image-keyboard-response,19
true,14,2,0,2,true,d,false,false,0.0-2.0-0.62-0.560-3.560,1,1,1,68,false,stim,false,2,463.04499998223037,1,1,2,14312,WMM1,1547542,false,true,1894,image-keyboard-response,20
true,14,1,0,0,false,q,true,false,0.0-2.0-0.62-0.561-3.561,1,1,1,90,false,stim,false,0,228.93000004114583,1,1,1,14312,WMM1,1549301,false,false,1897,image-keyboard-response,21
true,14,0,0,0,true,q,false,true,0.0-2.0-0.62-0.562-3.562,1,1,1,81,false,stim,false,0,1141.9549999991432,1,1,1,14312,WMM1,1551959,false,false,1900,image-keyboard-response,22
true,14,0,0,0,true,q,false,true,0.0-2.0-0.62-0.563-3.563,1,1,1,81,false,stim,false,0,570.5850000376813,1,1,1,14312,WMM1,1554061,false,false,1903,image-keyboard-response,23
true,14,1,0,0,false,q,true,false,0.0-2.0-0.62-0.564-3.564,1,1,1,90,false,stim,false,0,1948.595000023488,1,1,0,14312,WMM1,1557531,false,false,1906,image-keyboard-response,24
true,14,2,0,0,false,q,true,false,0.0-2.0-0.62-0.565-3.565,1,1,1,68,false,stim,false,0,2190.709999995306,1,1,0,14312,WMM1,1561251,false,false,1909,image-keyboard-response,25
true,14,1,0,0,false,q,true,false,0.0-2.0-0.62-0.566-3.566,1,1,1,90,false,stim,false,0,1358.8800000143237,1,1,0,14312,WMM1,1564132,false,false,1912,image-keyboard-response,26
true,14,0,0,2,false,d,true,false,0.0-2.0-0.63-0.567-3.567,1,1,1,81,false,stim,false,2,799.4450000114739,1,1,2,14312,WMM1,1566454,false,false,1915,image-keyboard-response,27
true,14,0,0,0,true,q,false,true,0.0-2.0-0.63-0.568-3.568,1,1,1,81,false,stim,false,0,976.52000002563,1,1,0,14312,WMM1,1568952,false,false,1918,image-keyboard-response,28
true,14,1,0,0,false,q,true,false,0.0-2.0-0.63-0.569-3.569,1,1,1,90,false,stim,false,0,804.7800000058487,1,1,1,14312,WMM1,1571280,false,false,1921,image-keyboard-response,29
true,14,0,0,0,true,q,false,true,0.0-2.0-0.63-0.570-3.570,1,1,1,81,false,stim,false,0,1036.4199999603443,1,1,1,14312,WMM1,1573837,false,false,1924,image-keyboard-response,30
true,14,0,0,0,true,q,false,false,0.0-2.0-0.63-0.571-3.571,1,1,1,81,false,stim,false,0,534.1500000213273,1,1,1,14312,WMM1,1575885,false,true,1927,image-keyboard-response,31
true,14,0,0,2,false,d,true,false,0.0-2.0-0.63-0.572-3.572,1,1,1,81,false,stim,false,2,964.0000000363216,1,1,2,14312,WMM1,1578366,false,false,1930,image-keyboard-response,32
true,14,2,0,2,true,d,false,false,0.0-2.0-0.63-0.573-3.573,1,1,1,68,false,stim,false,2,638.8249999727122,1,1,2,14312,WMM1,1580521,false,true,1933,image-keyboard-response,33
true,14,2,0,0,false,q,true,false,0.0-2.0-0.63-0.574-3.574,1,1,1,68,false,stim,false,0,508.06500000180677,1,1,0,14312,WMM1,1582551,false,false,1936,image-keyboard-response,34
true,14,2,0,0,false,q,true,false,0.0-2.0-0.63-0.575-3.575,1,1,1,68,false,stim,false,0,2308.8499999721535,1,1,0,14312,WMM1,1586382,false,false,1939,image-keyboard-response,35
true,14,1,0,0,false,q,true,false,0.0-2.0-0.64-0.576-3.576,1,1,1,90,false,stim,false,0,606.8349999841303,1,1,1,14312,WMM1,1588516,false,false,1942,image-keyboard-response,36
true,14,1,0,0,false,q,true,false,0.0-2.0-0.64-0.577-3.577,1,1,1,90,false,stim,false,0,628.5299999872223,1,1,1,14312,WMM1,1590669,false,false,1945,image-keyboard-response,37
true,14,0,0,0,true,q,false,true,0.0-2.0-0.64-0.578-3.578,1,1,1,81,false,stim,false,0,1139.0949999913573,1,1,0,14312,WMM1,1593323,false,false,1948,image-keyboard-response,38
true,14,1,0,2,false,d,true,false,0.0-2.0-0.64-0.579-3.579,1,1,1,90,false,stim,false,2,481.3250000006519,1,1,2,14312,WMM1,1595323,false,false,1951,image-keyboard-response,39
true,14,0,0,2,false,d,true,false,0.0-2.0-0.64-0.580-3.580,1,1,1,81,false,stim,false,2,980.1800000132062,1,1,2,14312,WMM1,1597822,false,false,1954,image-keyboard-response,40
true,14,1,0,0,false,q,true,false,0.0-2.0-0.64-0.581-3.581,1,1,1,90,false,stim,false,0,353.73000003164634,1,1,1,14312,WMM1,1599699,false,false,1957,image-keyboard-response,41
true,14,2,0,0,false,q,true,false,0.0-2.0-0.64-0.582-3.582,1,1,1,68,false,stim,false,0,315.5250000418164,1,1,0,14312,WMM1,1601538,false,false,1960,image-keyboard-response,42
true,14,1,0,0,false,q,true,false,0.0-2.0-0.64-0.583-3.583,1,1,1,90,false,stim,false,0,712.6749999588355,1,1,0,14312,WMM1,1603777,false,false,1963,image-keyboard-response,43
true,14,0,0,2,false,d,true,false,0.0-2.0-0.64-0.584-3.584,1,1,1,81,false,stim,false,2,397.6899999543093,1,1,2,14312,WMM1,1605692,false,false,1966,image-keyboard-response,44
true,14,0,0,0,true,q,false,true,0.0-2.0-0.65-0.585-3.585,1,1,1,81,false,stim,false,0,1132.2400000062771,1,1,0,14312,WMM1,1608349,false,false,1969,image-keyboard-response,45
