answered,blockNum,choice,condition,corResp,correct,correct_response,explo,fb,internal_node_id,isStable_1,isStable_2,isStable_3,key_press,newBlock,part,persev,persevResp,rt,sessNum,stableAS,stimulus,subject,task,time_elapsed,training,trap,trial_index,trial_type,trialsInBlock
true,1,0,0,2,false,d,true,false,0.0-2.0-0.0-0.0-3.0,0,0,0,81,true,stim,false,-1,830.4000000357628,3,0,2,14312,WMM2,140636,false,false,136,image-keyboard-response,1
true,1,0,0,2,false,d,true,false,0.0-2.0-0.0-0.1-3.1,0,0,0,81,false,stim,false,-1,435.80000001192093,3,0,1,14312,WMM2,142586,false,false,139,image-keyboard-response,2
true,1,1,0,2,false,d,true,false,0.0-2.0-0.0-0.2-3.2,0,0,0,90,false,stim,false,-1,1059.300000011921,3,0,1,14312,WMM2,145172,false,false,142,image-keyboard-response,3
true,1,1,0,2,false,d,true,false,0.0-2.0-0.0-0.3-3.3,0,0,0,90,false,stim,false,-1,700.1999999880791,3,0,1,14312,WMM2,147384,false,false,145,image-keyboard-response,4
true,1,1,0,2,false,d,true,false,0.0-2.0-0.0-0.4-3.4,0,0,0,90,false,stim,false,-1,827.0,3,0,2,14312,WMM2,149742,false,false,148,image-keyboard-response,5
true,1,1,0,1,true,z,false,true,0.0-2.0-0.0-0.5-3.5,0,0,0,90,false,stim,false,-1,517.5999999642372,3,0,0,14312,WMM2,151807,false,false,151,image-keyboard-response,6
true,1,1,0,1,true,z,false,true,0.0-2.0-0.0-0.6-3.6,0,0,0,90,false,stim,false,-1,824.0,3,0,0,14312,WMM2,154156,false,false,154,image-keyboard-response,7
true,1,1,0,1,true,z,false,true,0.0-2.0-0.0-0.7-3.7,0,0,0,90,false,stim,false,-1,460.19999998807907,3,0,0,14312,WMM2,156135,false,false,157,image-keyboard-response,8
true,1,2,0,2,true,d,false,true,0.0-2.0-0.0-0.8-3.8,0,0,0,68,false,stim,false,-1,531.0,3,0,2,14312,WMM2,158177,false,false,160,image-keyboard-response,9
true,1,2,0,2,true,d,false,true,0.0-2.0-0.1-0.9-3.9,0,0,0,68,false,stim,false,-1,587.6999999880791,3,0,1,14312,WMM2,160281,false,false,163,image-keyboard-response,10
true,1,2,0,2,true,d,false,true,0.0-2.0-0.1-0.10-3.10,0,0,0,68,false,stim,false,-1,479.5999999642372,3,0,1,14312,WMM2,162267,false,false,166,image-keyboard-response,11
true,1,2,0,2,true,d,false,true,0.0-2.0-0.1-0.11-3.11,0,0,0,68,false,stim,false,-1,575.6999999880791,3,0,2,14312,WMM2,164360,false,false,169,image-keyboard-response,12
true,1,2,0,2,true,d,false,true,0.0-2.0-0.1-0.12-3.12,0,0,0,68,false,stim,false,-1,489.19999998807907,3,0,2,14312,WMM2,166364,false,false,172,image-keyboard-response,13
true,1,1,0,1,true,z,false,true,0.0-2.0-0.1-0.13-3.13,0,0,0,90,false,stim,false,-1,548.0,3,0,0,14312,WMM2,168431,false,false,175,image-keyboard-response,14
true,1,1,0,1,true,z,false,true,0.0-2.0-0.1-0.14-3.14,0,0,0,90,false,stim,false,-1,409.39999997615814,3,0,0,14312,WMM2,170358,false,false,178,image-keyboard-response,15
true,1,2,0,2,true,d,false,true,0.0-2.0-0.1-0.15-3.15,0,0,0,68,false,stim,false,-1,426.0,3,0,2,14312,WMM2,172315,false,false,181,image-keyboard-response,16
true,1,2,0,2,true,d,false,true,0.0-2.0-0.1-0.16-3.16,0,0,0,68,false,stim,false,-1,423.80000001192093,3,0,1,14312,WMM2,174259,false,false,184,image-keyboard-response,17
true,1,1,0,1,true,z,false,true,0.0-2.0-0.1-0.17-3.17,0,0,0,90,false,stim,false,-1,398.30000001192093,3,0,0,14312,WMM2,176190,false,false,187,image-keyboard-response,18
true,1,2,0,2,true,d,false,true,0.0-2.0-0.2-0.18-3.18,0,0,0,68,false,stim,false,-1,460.10000002384186,3,0,2,14312,WMM2,178172,false,false,190,image-keyboard-response,19
true,1,1,0,1,true,z,false,true,0.0-2.0-0.2-0.19-3.19,0,0,0,90,false,stim,false,-1,578.0,3,0,0,14312,WMM2,180268,false,false,193,image-keyboard-response,20
true,1,2,0,2,true,d,false,true,0.0-2.0-0.2-0.20-3.20,0,0,0,68,false,stim,false,-1,483.4000000357628,3,0,1,14312,WMM2,182265,false,false,196,image-keyboard-response,21
true,1,1,0,1,true,z,false,true,0.0-2.0-0.2-0.21-3.21,0,0,0,90,false,stim,false,-1,784.5999999642372,3,0,0,14312,WMM2,184566,false,false,199,image-keyboard-response,22
true,1,1,0,1,true,z,false,false,0.0-2.0-0.2-0.22-3.22,0,0,0,90,false,stim,false,-1,397.0,3,0,0,14312,WMM2,186487,false,true,202,image-keyboard-response,23
true,1,2,0,2,true,d,false,false,0.0-2.0-0.2-0.23-3.23,0,0,0,68,false,stim,false,-1,455.80000001192093,3,0,1,14312,WMM2,188453,false,true,205,image-keyboard-response,24
true,1,2,0,2,true,d,false,true,0.0-2.0-0.2-0.24-3.24,0,0,0,68,false,stim,false,-1,499.9000000357628,3,1,2,14312,WMM2,190488,false,false,208,image-keyboard-response,25
true,1,2,0,2,true,d,false,true,0.0-2.0-0.2-0.25-3.25,0,0,0,68,false,stim,false,-1,632.6999999880791,3,0,1,14312,WMM2,192639,false,false,211,image-keyboard-response,26
true,1,2,0,2,true,d,false,true,0.0-2.0-0.2-0.26-3.26,0,0,0,68,false,stim,false,-1,617.1999999880791,3,1,2,14312,WMM2,194780,false,false,214,image-keyboard-response,27
true,1,2,0,2,true,d,false,true,0.0-2.0-0.3-0.27-3.27,0,0,0,68,false,stim,false,-1,564.8000000119209,3,0,1,14312,WMM2,196862,false,false,217,image-keyboard-response,28
true,1,2,0,2,true,d,false,true,0.0-2.0-0.3-0.28-3.28,0,0,0,68,false,stim,false,-1,471.80000001192093,3,0,1,14312,WMM2,198851,false,false,220,image-keyboard-response,29
true,1,1,0,1,true,z,false,true,0.0-2.0-0.3-0.29-3.29,0,0,0,90,false,stim,false,-1,658.3000000119209,3,0,0,14312,WMM2,201034,false,false,223,image-keyboard-response,30
true,2,2,1,0,false,q,false,false,0.0-2.0-0.3-0.30-3.30,0,0,1,68,true,stim,true,2,848.4000000357628,3,0,1,14312,WMM2,203412,false,false,226,image-keyboard-response,1
true,2,1,1,0,false,q,false,true,0.0-2.0-0.3-0.31-3.31,0,0,1,90,false,stim,true,1,484.39999997615814,3,0,0,14312,WMM2,205432,false,true,229,image-keyboard-response,2
true,2,2,1,2,true,d,false,true,0.0-2.0-0.3-0.32-3.32,0,0,1,68,false,stim,false,2,469.80000001192093,3,1,2,14312,WMM2,207437,false,false,232,image-keyboard-response,3
true,2,1,1,0,false,q,false,false,0.0-2.0-0.3-0.33-3.33,0,0,1,90,false,stim,true,1,625.6999999880791,3,0,0,14312,WMM2,209593,false,false,235,image-keyboard-response,4
true,2,2,1,2,true,d,false,true,0.0-2.0-0.3-0.34-3.34,0,0,1,68,false,stim,false,2,451.19999998807907,3,1,2,14312,WMM2,211554,false,false,238,image-keyboard-response,5
true,2,2,1,2,true,d,false,true,0.0-2.0-0.3-0.35-3.35,0,0,1,68,false,stim,false,2,480.9000000357628,3,1,2,14312,WMM2,213577,false,false,241,image-keyboard-response,6
true,2,2,1,0,false,q,false,false,0.0-2.0-0.4-0.36-3.36,0,0,1,68,false,stim,true,2,589.5,3,0,1,14312,WMM2,215691,false,false,244,image-keyboard-response,7
true,2,1,1,0,false,q,true,false,0.0-2.0-0.4-0.37-3.37,0,0,1,90,false,stim,false,2,561.9000000357628,3,0,1,14312,WMM2,217769,false,false,247,image-keyboard-response,8
true,2,2,1,2,true,d,false,true,0.0-2.0-0.4-0.38-3.38,0,0,1,68,false,stim,false,2,653.3000000119209,3,1,2,14312,WMM2,219947,false,false,250,image-keyboard-response,9
true,2,2,1,2,true,d,false,true,0.0-2.0-0.4-0.39-3.39,0,0,1,68,false,stim,false,2,1025.8999999761581,3,1,2,14312,WMM2,222487,false,false,253,image-keyboard-response,10
true,2,0,1,0,true,q,false,true,0.0-2.0-0.4-0.40-3.40,0,0,1,81,false,stim,false,1,519.0,3,0,0,14312,WMM2,224534,false,false,256,image-keyboard-response,11
true,2,2,1,2,true,d,false,true,0.0-2.0-0.4-0.41-3.41,0,0,1,68,false,stim,false,2,617.3000000119209,3,1,2,14312,WMM2,226694,false,false,259,image-keyboard-response,12
true,2,0,1,0,true,q,false,false,0.0-2.0-0.4-0.42-3.42,0,0,1,81,false,stim,false,1,385.80000001192093,3,0,0,14312,WMM2,228600,false,true,262,image-keyboard-response,13
true,2,0,1,0,true,q,false,true,0.0-2.0-0.4-0.43-3.43,0,0,1,81,false,stim,false,2,1151.0999999642372,3,0,1,14312,WMM2,231281,false,false,265,image-keyboard-response,14
true,2,0,1,0,true,q,false,true,0.0-2.0-0.4-0.44-3.44,0,0,1,81,false,stim,false,1,654.6999999880791,3,0,0,14312,WMM2,233457,false,false,268,image-keyboard-response,15
true,2,2,1,2,true,d,false,true,0.0-2.0-0.5-0.45-3.45,0,0,1,68,false,stim,false,2,522.6999999880791,3,1,2,14312,WMM2,235504,false,false,271,image-keyboard-response,16
true,2,0,1,0,true,q,false,false,0.0-2.0-0.5-0.46-3.46,0,0,1,81,false,stim,false,1,526.5,3,0,0,14312,WMM2,237543,false,true,274,image-keyboard-response,17
true,2,0,1,0,true,q,false,true,0.0-2.0-0.5-0.47-3.47,0,0,1,81,false,stim,false,2,438.39999997615814,3,0,1,14312,WMM2,239512,false,false,277,image-keyboard-response,18
true,2,0,1,0,true,q,false,true,0.0-2.0-0.5-0.48-3.48,0,0,1,81,false,stim,false,2,686.7000000476837,3,0,1,14312,WMM2,241728,false,false,280,image-keyboard-response,19
true,2,0,1,0,true,q,false,false,0.0-2.0-0.5-0.49-3.49,0,0,1,81,false,stim,false,2,497.69999998807907,3,0,1,14312,WMM2,243745,false,true,283,image-keyboard-response,20
true,2,0,1,0,true,q,false,true,0.0-2.0-0.5-0.50-3.50,0,0,1,81,false,stim,false,1,602.8999999761581,3,1,0,14312,WMM2,245873,false,false,286,image-keyboard-response,21
true,2,2,1,2,true,d,false,true,0.0-2.0-0.5-0.51-3.51,0,0,1,68,false,stim,false,2,425.5,3,1,2,14312,WMM2,247812,false,false,289,image-keyboard-response,22
true,2,0,1,0,true,q,false,true,0.0-2.0-0.5-0.52-3.52,0,0,1,81,false,stim,false,1,493.80000001192093,3,1,0,14312,WMM2,249830,false,false,292,image-keyboard-response,23
true,2,2,1,2,true,d,false,true,0.0-2.0-0.5-0.53-3.53,0,0,1,68,false,stim,false,2,629.6000000238419,3,1,2,14312,WMM2,251977,false,false,295,image-keyboard-response,24
true,2,2,1,2,true,d,false,true,0.0-2.0-0.6-0.54-3.54,0,0,1,68,false,stim,false,2,373.10000002384186,3,1,2,14312,WMM2,253873,false,false,298,image-keyboard-response,25
true,2,0,1,0,true,q,false,true,0.0-2.0-0.6-0.55-3.55,0,0,1,81,false,stim,false,2,595.0999999642372,3,0,1,14312,WMM2,256013,false,false,301,image-keyboard-response,26
true,2,0,1,0,true,q,false,false,0.0-2.0-0.6-0.56-3.56,0,0,1,81,false,stim,false,2,328.69999998807907,3,0,1,14312,WMM2,257861,false,true,304,image-keyboard-response,27
true,2,0,1,0,true,q,false,true,0.0-2.0-0.6-0.57-3.57,0,0,1,81,false,stim,false,2,516.3000000119209,3,0,1,14312,WMM2,259890,false,false,307,image-keyboard-response,28
true,2,0,1,0,true,q,false,true,0.0-2.0-0.6-0.58-3.58,0,0,1,81,false,stim,false,1,842.8000000119209,3,1,0,14312,WMM2,262253,false,false,310,image-keyboard-response,29
true,2,0,1,0,true,q,false,true,0.0-2.0-0.6-0.59-3.59,0,0,1,81,false,stim,false,1,413.60000002384186,3,1,0,14312,WMM2,264175,false,false,313,image-keyboard-response,30
true,3,2,2,2,true,d,false,true,0.0-2.0-0.6-0.60-3.60,1,0,1,68,true,stim,false,2,496.39999997615814,3,1,2,14312,WMM2,266192,false,false,316,image-keyboard-response,1
true,3,2,2,2,true,d,false,true,0.0-2.0-0.6-0.61-3.61,1,0,1,68,false,stim,false,2,407.60000002384186,3,1,2,14312,WMM2,268117,false,false,319,image-keyboard-response,2
true,3,0,2,0,true,q,false,true,0.0-2.0-0.6-0.62-3.62,1,0,1,81,false,stim,false,0,642.1999999880791,3,1,0,14312,WMM2,270279,false,false,322,image-keyboard-response,3
true,3,2,2,2,true,d,false,true,0.0-2.0-0.7-0.63-3.63,1,0,1,68,false,stim,false,2,611.8000000119209,3,1,2,14312,WMM2,272433,false,false,325,image-keyboard-response,4
true,3,0,2,1,false,z,false,false,0.0-2.0-0.7-0.64-3.64,1,0,1,81,false,stim,true,0,516.8999999761581,3,0,1,14312,WMM2,274466,false,false,328,image-keyboard-response,5
true,3,1,2,1,true,z,false,false,0.0-2.0-0.7-0.65-3.65,1,0,1,90,false,stim,false,0,430.9000000357628,3,0,1,14312,WMM2,276415,false,true,331,image-keyboard-response,6
true,3,1,2,0,false,q,true,false,0.0-2.0-0.7-0.66-3.66,1,0,1,90,false,stim,false,0,814.2999999523163,3,1,0,14312,WMM2,278746,false,false,334,image-keyboard-response,7
true,3,2,2,0,false,q,true,false,0.0-2.0-0.7-0.67-3.67,1,0,1,68,false,stim,false,0,1005.7000000476837,3,1,0,14312,WMM2,281287,false,false,337,image-keyboard-response,8
true,3,0,2,0,true,q,false,true,0.0-2.0-0.7-0.68-3.68,1,0,1,81,false,stim,false,0,757.8999999761581,3,1,0,14312,WMM2,283571,false,false,340,image-keyboard-response,9
true,3,2,2,2,true,d,false,true,0.0-2.0-0.7-0.69-3.69,1,0,1,68,false,stim,false,2,573.0,3,1,2,14312,WMM2,285664,false,false,343,image-keyboard-response,10
true,3,2,2,2,true,d,false,true,0.0-2.0-0.7-0.70-3.70,1,0,1,68,false,stim,false,2,517.8999999761581,3,1,2,14312,WMM2,287705,false,false,346,image-keyboard-response,11
true,3,2,2,1,false,z,true,false,0.0-2.0-0.7-0.71-3.71,1,0,1,68,false,stim,false,0,516.1000000238419,3,0,1,14312,WMM2,289745,false,false,349,image-keyboard-response,12
true,3,0,2,0,true,q,false,true,0.0-2.0-0.8-0.72-3.72,1,0,1,81,false,stim,false,0,1119.5,3,1,0,14312,WMM2,292382,false,false,352,image-keyboard-response,13
true,3,2,2,2,true,d,false,true,0.0-2.0-0.8-0.73-3.73,1,0,1,68,false,stim,false,2,652.3000000119209,3,1,2,14312,WMM2,294551,false,false,355,image-keyboard-response,14
true,3,2,2,2,true,d,false,false,0.0-2.0-0.8-0.74-3.74,1,0,1,68,false,stim,false,2,602.5,3,1,2,14312,WMM2,296667,false,true,358,image-keyboard-response,15
true,3,0,2,0,true,q,false,false,0.0-2.0-0.8-0.75-3.75,1,0,1,81,false,stim,false,0,518.8999999761581,3,1,0,14312,WMM2,298693,false,true,361,image-keyboard-response,16
true,3,0,2,0,true,q,false,true,0.0-2.0-0.8-0.76-3.76,1,0,1,81,false,stim,false,0,646.4000000357628,3,1,0,14312,WMM2,300873,false,false,364,image-keyboard-response,17
true,3,0,2,1,false,z,false,false,0.0-2.0-0.8-0.77-3.77,1,0,1,81,false,stim,true,0,776.3000000119209,3,0,1,14312,WMM2,303167,false,false,367,image-keyboard-response,18
true,3,0,2,1,false,z,false,false,0.0-2.0-0.8-0.78-3.78,1,0,1,81,false,stim,true,0,418.5,3,0,1,14312,WMM2,305119,false,false,370,image-keyboard-response,19
true,3,2,2,2,true,d,false,true,0.0-2.0-0.8-0.79-3.79,1,0,1,68,false,stim,false,2,707.0,3,1,2,14312,WMM2,307350,false,false,373,image-keyboard-response,20
true,3,1,2,1,true,z,false,true,0.0-2.0-0.8-0.80-3.80,1,0,1,90,false,stim,false,0,837.6999999880791,3,0,1,14312,WMM2,309711,false,false,376,image-keyboard-response,21
true,3,0,2,0,true,q,false,true,0.0-2.0-0.9-0.81-3.81,1,0,1,81,false,stim,false,0,638.1000000238419,3,1,0,14312,WMM2,311871,false,false,379,image-keyboard-response,22
true,3,2,2,2,true,d,false,true,0.0-2.0-0.9-0.82-3.82,1,0,1,68,false,stim,false,2,633.0,3,1,2,14312,WMM2,314028,false,false,382,image-keyboard-response,23
true,3,2,2,2,true,d,false,true,0.0-2.0-0.9-0.83-3.83,1,0,1,68,false,stim,false,2,516.6000000238419,3,1,2,14312,WMM2,316066,false,false,385,image-keyboard-response,24
true,3,1,2,1,true,z,false,true,0.0-2.0-0.9-0.84-3.84,1,0,1,90,false,stim,false,0,492.80000001192093,3,0,1,14312,WMM2,318092,false,false,388,image-keyboard-response,25
true,3,1,2,1,true,z,false,true,0.0-2.0-0.9-0.85-3.85,1,0,1,90,false,stim,false,0,670.5,3,1,1,14312,WMM2,320278,false,false,391,image-keyboard-response,26
true,3,0,2,0,true,q,false,true,0.0-2.0-0.9-0.86-3.86,1,0,1,81,false,stim,false,0,522.1999999880791,3,0,0,14312,WMM2,322326,false,false,394,image-keyboard-response,27
true,3,2,2,2,true,d,false,true,0.0-2.0-0.9-0.87-3.87,1,0,1,68,false,stim,false,2,689.1000000238419,3,1,2,14312,WMM2,324531,false,false,397,image-keyboard-response,28
true,3,0,2,0,true,q,false,true,0.0-2.0-0.9-0.88-3.88,1,0,1,81,false,stim,false,0,546.2000000476837,3,0,0,14312,WMM2,326605,false,false,400,image-keyboard-response,29
true,3,1,2,1,true,z,false,true,0.0-2.0-0.9-0.89-3.89,1,0,1,90,false,stim,false,0,481.39999997615814,3,1,1,14312,WMM2,328606,false,false,403,image-keyboard-response,30
true,3,1,2,1,true,z,false,true,0.0-2.0-0.10-0.90-3.90,1,0,1,90,false,stim,false,0,433.5999999642372,3,1,1,14312,WMM2,330565,false,false,406,image-keyboard-response,31
true,3,0,2,0,true,q,false,false,0.0-2.0-0.10-0.91-3.91,1,0,1,81,false,stim,false,0,442.5,3,0,0,14312,WMM2,332525,false,true,409,image-keyboard-response,32
true,3,2,2,2,true,d,false,true,0.0-2.0-0.10-0.92-3.92,1,0,1,68,false,stim,false,2,622.3000000119209,3,1,2,14312,WMM2,334656,false,false,412,image-keyboard-response,33
true,3,1,2,1,true,z,false,true,0.0-2.0-0.10-0.93-3.93,1,0,1,90,false,stim,false,0,491.80000001192093,3,1,1,14312,WMM2,336682,false,false,415,image-keyboard-response,34
true,3,1,2,1,true,z,false,true,0.0-2.0-0.10-0.94-3.94,1,0,1,90,false,stim,false,0,471.89999997615814,3,1,1,14312,WMM2,338662,false,false,418,image-keyboard-response,35
true,4,2,4,2,true,d,false,true,0.0-2.0-0.10-0.95-3.95,0,1,1,68,true,stim,false,2,674.7999999523163,3,1,2,14312,WMM2,340862,false,false,421,image-keyboard-response,1
true,4,0,4,0,true,q,false,true,0.0-2.0-0.10-0.96-3.96,0,1,1,81,false,stim,false,0,496.7999999523163,3,0,0,14312,WMM2,342870,false,false,424,image-keyboard-response,2
true,4,2,4,2,true,d,false,true,0.0-2.0-0.10-0.97-3.97,0,1,1,68,false,stim,false,2,628.5,3,1,2,14312,WMM2,345031,false,false,427,image-keyboard-response,3
true,4,0,4,0,true,q,false,true,0.0-2.0-0.10-0.98-3.98,0,1,1,81,false,stim,false,0,807.6999999880791,3,0,0,14312,WMM2,347359,false,false,430,image-keyboard-response,4
true,4,2,4,2,true,d,false,true,0.0-2.0-0.11-0.99-3.99,0,1,1,68,false,stim,false,2,573.3000000119209,3,1,2,14312,WMM2,349460,false,false,433,image-keyboard-response,5
true,4,2,4,2,true,d,false,true,0.0-2.0-0.11-0.100-3.100,0,1,1,68,false,stim,false,2,428.7999999523163,3,1,2,14312,WMM2,351418,false,false,436,image-keyboard-response,6
true,4,0,4,0,true,q,false,true,0.0-2.0-0.11-0.101-3.101,0,1,1,81,false,stim,false,0,445.69999998807907,3,0,0,14312,WMM2,353385,false,false,439,image-keyboard-response,7
true,4,0,4,0,true,q,false,true,0.0-2.0-0.11-0.102-3.102,0,1,1,81,false,stim,false,0,466.0,3,0,0,14312,WMM2,355362,false,false,442,image-keyboard-response,8
true,4,0,4,0,true,q,false,true,0.0-2.0-0.11-0.103-3.103,0,1,1,81,false,stim,false,0,411.60000002384186,3,0,0,14312,WMM2,357290,false,false,445,image-keyboard-response,9
true,4,1,4,1,true,z,false,true,0.0-2.0-0.11-0.104-3.104,0,1,1,90,false,stim,false,1,967.1000000238419,3,1,1,14312,WMM2,359774,false,false,448,image-keyboard-response,10
true,4,1,4,1,true,z,false,false,0.0-2.0-0.11-0.105-3.105,0,1,1,90,false,stim,false,1,380.30000001192093,3,1,1,14312,WMM2,361676,false,true,451,image-keyboard-response,11
true,4,1,4,1,true,z,false,true,0.0-2.0-0.11-0.106-3.106,0,1,1,90,false,stim,false,1,413.0,3,1,1,14312,WMM2,363610,false,false,454,image-keyboard-response,12
true,4,2,4,2,true,d,false,false,0.0-2.0-0.11-0.107-3.107,0,1,1,68,false,stim,false,2,606.0999999642372,3,1,2,14312,WMM2,365735,false,true,457,image-keyboard-response,13
true,4,1,4,1,true,z,false,false,0.0-2.0-0.12-0.108-3.108,0,1,1,90,false,stim,false,1,837.4000000357628,3,1,1,14312,WMM2,368090,false,true,460,image-keyboard-response,14
true,4,0,4,0,true,q,false,true,0.0-2.0-0.12-0.109-3.109,0,1,1,81,false,stim,false,0,548.1999999880791,3,0,0,14312,WMM2,370154,false,false,463,image-keyboard-response,15
true,4,1,4,1,true,z,false,false,0.0-2.0-0.12-0.110-3.110,0,1,1,90,false,stim,false,1,347.80000001192093,3,1,1,14312,WMM2,372032,false,true,466,image-keyboard-response,16
true,4,2,4,2,true,d,false,true,0.0-2.0-0.12-0.111-3.111,0,1,1,68,false,stim,false,2,778.3999999761581,3,1,2,14312,WMM2,374334,false,false,469,image-keyboard-response,17
true,4,0,4,0,true,q,false,true,0.0-2.0-0.12-0.112-3.112,0,1,1,81,false,stim,false,0,659.0,3,0,0,14312,WMM2,376519,false,false,472,image-keyboard-response,18
true,4,1,4,1,true,z,false,true,0.0-2.0-0.12-0.113-3.113,0,1,1,90,false,stim,false,1,1684.0,3,1,1,14312,WMM2,379722,false,false,475,image-keyboard-response,19
true,4,2,4,2,true,d,false,true,0.0-2.0-0.12-0.114-3.114,0,1,1,68,false,stim,false,2,763.0,3,1,2,14312,WMM2,382010,false,false,478,image-keyboard-response,20
true,4,0,4,0,true,q,false,true,0.0-2.0-0.12-0.115-3.115,0,1,1,81,false,stim,false,0,619.9000000357628,3,1,0,14312,WMM2,384149,false,false,481,image-keyboard-response,21
true,4,2,4,2,true,d,false,true,0.0-2.0-0.12-0.116-3.116,0,1,1,68,false,stim,false,2,836.0999999642372,3,0,2,14312,WMM2,386503,false,false,484,image-keyboard-response,22
true,4,1,4,1,true,z,false,false,0.0-2.0-0.13-0.117-3.117,0,1,1,90,false,stim,false,1,457.5999999642372,3,1,1,14312,WMM2,388479,false,true,487,image-keyboard-response,23
true,4,0,4,0,true,q,false,false,0.0-2.0-0.13-0.118-3.118,0,1,1,81,false,stim,false,0,496.10000002384186,3,1,0,14312,WMM2,390498,false,true,490,image-keyboard-response,24
true,4,1,4,0,false,q,true,false,0.0-2.0-0.13-0.119-3.119,0,1,1,90,false,stim,false,0,460.80000001192093,3,1,0,14312,WMM2,392483,false,false,493,image-keyboard-response,25
true,4,1,4,1,true,z,false,true,0.0-2.0-0.13-0.120-3.120,0,1,1,90,false,stim,false,1,1129.8999999761581,3,1,1,14312,WMM2,395121,false,false,496,image-keyboard-response,26
true,4,1,4,1,true,z,false,true,0.0-2.0-0.13-0.121-3.121,0,1,1,90,false,stim,false,1,518.6000000238419,3,1,1,14312,WMM2,397151,false,false,499,image-keyboard-response,27
true,4,2,4,2,true,d,false,true,0.0-2.0-0.13-0.122-3.122,0,1,1,68,false,stim,false,2,561.3999999761581,3,0,2,14312,WMM2,399242,false,false,502,image-keyboard-response,28
true,4,2,4,2,true,d,false,true,0.0-2.0-0.13-0.123-3.123,0,1,1,68,false,stim,false,2,713.6999999880791,3,0,2,14312,WMM2,401490,false,false,505,image-keyboard-response,29
true,4,0,4,0,true,q,false,false,0.0-2.0-0.13-0.124-3.124,0,1,1,81,false,stim,false,0,513.5999999642372,3,1,0,14312,WMM2,403520,false,true,508,image-keyboard-response,30
true,5,2,3,0,false,q,false,false,0.0-2.0-0.13-0.125-3.125,1,1,0,68,true,stim,true,2,574.0,3,0,2,14312,WMM2,405619,false,false,511,image-keyboard-response,1
true,5,1,3,0,false,q,true,false,0.0-2.0-0.14-0.126-3.126,1,1,0,90,false,stim,false,0,1129.800000011921,3,1,0,14312,WMM2,408258,false,false,514,image-keyboard-response,2
true,5,2,3,0,false,q,false,false,0.0-2.0-0.14-0.127-3.127,1,1,0,68,false,stim,true,2,612.5,3,0,2,14312,WMM2,410396,false,false,517,image-keyboard-response,3
true,5,1,3,1,true,z,false,false,0.0-2.0-0.14-0.128-3.128,1,1,0,90,false,stim,false,1,821.3999999761581,3,1,1,14312,WMM2,412735,false,true,520,image-keyboard-response,4
true,5,0,3,0,true,q,false,false,0.0-2.0-0.14-0.129-3.129,1,1,0,81,false,stim,false,0,546.6000000238419,3,1,0,14312,WMM2,414800,false,true,523,image-keyboard-response,5
true,5,0,3,1,false,z,true,false,0.0-2.0-0.14-0.130-3.130,1,1,0,81,false,stim,false,1,508.39999997615814,3,1,1,14312,WMM2,416824,false,false,526,image-keyboard-response,6
true,5,1,3,1,true,z,false,true,0.0-2.0-0.14-0.131-3.131,1,1,0,90,false,stim,false,1,802.5,3,1,1,14312,WMM2,419152,false,false,529,image-keyboard-response,7
true,5,1,3,0,false,q,true,false,0.0-2.0-0.14-0.132-3.132,1,1,0,90,false,stim,false,2,1281.699999988079,3,0,2,14312,WMM2,421952,false,false,532,image-keyboard-response,8
true,5,1,3,0,false,q,true,true,0.0-2.0-0.14-0.133-3.133,1,1,0,90,false,stim,false,0,872.6999999880791,3,1,0,14312,WMM2,424353,false,true,535,image-keyboard-response,9
true,5,2,3,0,false,q,false,false,0.0-2.0-0.14-0.134-3.134,1,1,0,68,false,stim,true,2,1055.2000000476837,3,0,2,14312,WMM2,426926,false,false,538,image-keyboard-response,10
true,5,1,3,1,true,z,false,true,0.0-2.0-0.15-0.135-3.135,1,1,0,90,false,stim,false,1,452.5999999642372,3,1,1,14312,WMM2,428901,false,false,541,image-keyboard-response,11
true,5,1,3,0,false,q,true,false,0.0-2.0-0.15-0.136-3.136,1,1,0,90,false,stim,false,0,384.60000002384186,3,1,0,14312,WMM2,430805,false,false,544,image-keyboard-response,12
true,5,0,3,0,true,q,false,true,0.0-2.0-0.15-0.137-3.137,1,1,0,81,false,stim,false,0,1530.800000011921,3,1,0,14312,WMM2,433847,false,false,547,image-keyboard-response,13
true,5,0,3,0,true,q,false,true,0.0-2.0-0.15-0.138-3.138,1,1,0,81,false,stim,false,0,513.8999999761581,3,1,0,14312,WMM2,435871,false,false,550,image-keyboard-response,14
true,5,1,3,1,true,z,false,true,0.0-2.0-0.15-0.139-3.139,1,1,0,90,false,stim,false,1,690.3999999761581,3,1,1,14312,WMM2,438080,false,false,553,image-keyboard-response,15
true,5,1,3,1,true,z,false,true,0.0-2.0-0.15-0.140-3.140,1,1,0,90,false,stim,false,1,564.0,3,1,1,14312,WMM2,440176,false,false,556,image-keyboard-response,16
true,5,1,3,0,false,q,true,false,0.0-2.0-0.15-0.141-3.141,1,1,0,90,false,stim,false,2,816.6999999880791,3,0,2,14312,WMM2,442513,false,false,559,image-keyboard-response,17
true,5,2,3,0,false,q,false,false,0.0-2.0-0.15-0.142-3.142,1,1,0,68,false,stim,true,2,686.9000000357628,3,0,2,14312,WMM2,444736,false,false,562,image-keyboard-response,18
true,5,0,3,0,true,q,false,true,0.0-2.0-0.15-0.143-3.143,1,1,0,81,false,stim,false,2,421.9000000357628,3,0,2,14312,WMM2,446677,false,false,565,image-keyboard-response,19
true,5,0,3,0,true,q,false,true,0.0-2.0-0.16-0.144-3.144,1,1,0,81,false,stim,false,2,480.60000002384186,3,0,2,14312,WMM2,448676,false,false,568,image-keyboard-response,20
true,5,1,3,1,true,z,false,true,0.0-2.0-0.16-0.145-3.145,1,1,0,90,false,stim,false,1,789.6000000238419,3,1,1,14312,WMM2,450982,false,false,571,image-keyboard-response,21
true,5,1,3,1,true,z,false,true,0.0-2.0-0.16-0.146-3.146,1,1,0,90,false,stim,false,1,563.4000000357628,3,1,1,14312,WMM2,453064,false,false,574,image-keyboard-response,22
true,5,0,3,0,true,q,false,true,0.0-2.0-0.16-0.147-3.147,1,1,0,81,false,stim,false,2,800.1000000238419,3,0,2,14312,WMM2,455391,false,false,577,image-keyboard-response,23
true,5,0,3,0,true,q,false,true,0.0-2.0-0.16-0.148-3.148,1,1,0,81,false,stim,false,0,460.19999998807907,3,1,0,14312,WMM2,457367,false,false,580,image-keyboard-response,24
true,5,0,3,0,true,q,false,true,0.0-2.0-0.16-0.149-3.149,1,1,0,81,false,stim,false,0,438.5,3,1,0,14312,WMM2,459336,false,false,583,image-keyboard-response,25
true,5,0,3,0,true,q,false,true,0.0-2.0-0.16-0.150-3.150,1,1,0,81,false,stim,false,0,393.9000000357628,3,1,0,14312,WMM2,461255,false,false,586,image-keyboard-response,26
true,5,1,3,0,false,q,true,false,0.0-2.0-0.16-0.151-3.151,1,1,0,90,false,stim,false,2,945.0,3,0,2,14312,WMM2,463710,false,false,589,image-keyboard-response,27
true,5,1,3,1,true,z,false,false,0.0-2.0-0.16-0.152-3.152,1,1,0,90,false,stim,false,1,835.8000000119209,3,1,1,14312,WMM2,466072,false,true,592,image-keyboard-response,28
true,5,0,3,1,false,z,true,false,0.0-2.0-0.17-0.153-3.153,1,1,0,81,false,stim,false,1,1006.6000000238419,3,1,1,14312,WMM2,468589,false,false,595,image-keyboard-response,29
true,5,0,3,0,true,q,false,true,0.0-2.0-0.17-0.154-3.154,1,1,0,81,false,stim,false,2,1033.8999999761581,3,0,2,14312,WMM2,471158,false,false,598,image-keyboard-response,30
true,5,0,3,0,true,q,false,true,0.0-2.0-0.17-0.155-3.155,1,1,0,81,false,stim,false,0,482.4000000357628,3,1,0,14312,WMM2,473168,false,false,601,image-keyboard-response,31
true,5,1,3,1,true,z,false,true,0.0-2.0-0.17-0.156-3.156,1,1,0,90,false,stim,false,1,921.3999999761581,3,1,1,14312,WMM2,475617,false,false,604,image-keyboard-response,32
true,6,0,2,1,false,z,false,false,0.0-2.0-0.17-0.157-3.157,1,1,0,81,true,stim,true,0,814.8000000119209,3,0,2,14312,WMM2,477956,false,false,607,image-keyboard-response,1
true,6,0,2,1,false,z,false,false,0.0-2.0-0.17-0.158-3.158,1,1,0,81,false,stim,true,0,419.5999999642372,3,0,2,14312,WMM2,479904,false,false,610,image-keyboard-response,2
true,6,0,2,0,true,q,false,false,0.0-2.0-0.17-0.159-3.159,1,1,0,81,false,stim,false,0,386.19999998807907,3,1,0,14312,WMM2,481809,false,true,613,image-keyboard-response,3
true,6,0,2,0,true,q,false,true,0.0-2.0-0.17-0.160-3.160,1,1,0,81,false,stim,false,0,514.1000000238419,3,1,0,14312,WMM2,483841,false,false,616,image-keyboard-response,4
true,6,1,2,1,true,z,false,true,0.0-2.0-0.17-0.161-3.161,1,1,0,90,false,stim,false,1,688.9000000357628,3,1,1,14312,WMM2,486054,false,false,619,image-keyboard-response,5
true,6,0,2,1,false,z,false,false,0.0-2.0-0.18-0.162-3.162,1,1,0,81,false,stim,true,0,528.8000000119209,3,0,2,14312,WMM2,488100,false,false,622,image-keyboard-response,6
true,6,1,2,1,true,z,false,true,0.0-2.0-0.18-0.163-3.163,1,1,0,90,false,stim,false,1,668.3999999761581,3,1,1,14312,WMM2,490289,false,false,625,image-keyboard-response,7
true,6,0,2,0,true,q,false,true,0.0-2.0-0.18-0.164-3.164,1,1,0,81,false,stim,false,0,617.0,3,1,0,14312,WMM2,492428,false,false,628,image-keyboard-response,8
true,6,1,2,1,true,z,false,true,0.0-2.0-0.18-0.165-3.165,1,1,0,90,false,stim,false,1,645.8000000119209,3,1,1,14312,WMM2,494595,false,false,631,image-keyboard-response,9
true,6,0,2,1,false,z,false,false,0.0-2.0-0.18-0.166-3.166,1,1,0,81,false,stim,true,0,484.60000002384186,3,0,2,14312,WMM2,496600,false,false,634,image-keyboard-response,10
true,6,1,2,1,true,z,false,true,0.0-2.0-0.18-0.167-3.167,1,1,0,90,false,stim,false,1,1177.300000011921,3,1,1,14312,WMM2,499312,false,false,637,image-keyboard-response,11
true,6,0,2,0,true,q,false,true,0.0-2.0-0.18-0.168-3.168,1,1,0,81,false,stim,false,0,530.5,3,1,0,14312,WMM2,501364,false,false,640,image-keyboard-response,12
true,6,0,2,0,true,q,false,true,0.0-2.0-0.18-0.169-3.169,1,1,0,81,false,stim,false,0,681.0,3,1,0,14312,WMM2,503561,false,false,643,image-keyboard-response,13
true,6,2,2,1,false,z,true,false,0.0-2.0-0.18-0.170-3.170,1,1,0,68,false,stim,false,0,591.0999999642372,3,0,2,14312,WMM2,505665,false,false,646,image-keyboard-response,14
true,6,0,2,0,true,q,false,true,0.0-2.0-0.19-0.171-3.171,1,1,0,81,false,stim,false,0,548.9000000357628,3,1,0,14312,WMM2,507731,false,false,649,image-keyboard-response,15
true,6,1,2,1,true,z,false,false,0.0-2.0-0.19-0.172-3.172,1,1,0,90,false,stim,false,0,772.5,3,0,2,14312,WMM2,510023,false,true,652,image-keyboard-response,16
true,6,0,2,0,true,q,false,true,0.0-2.0-0.19-0.173-3.173,1,1,0,81,false,stim,false,0,532.6999999880791,3,1,0,14312,WMM2,512070,false,false,655,image-keyboard-response,17
true,6,0,2,0,true,q,false,false,0.0-2.0-0.19-0.174-3.174,1,1,0,81,false,stim,false,0,639.0,3,1,0,14312,WMM2,514235,false,true,658,image-keyboard-response,18
true,6,1,2,1,true,z,false,true,0.0-2.0-0.19-0.175-3.175,1,1,0,90,false,stim,false,1,830.8000000119209,3,1,1,14312,WMM2,516582,false,false,661,image-keyboard-response,19
true,6,1,2,1,true,z,false,true,0.0-2.0-0.19-0.176-3.176,1,1,0,90,false,stim,false,1,595.8000000119209,3,1,1,14312,WMM2,518696,false,false,664,image-keyboard-response,20
true,6,1,2,1,true,z,false,true,0.0-2.0-0.19-0.177-3.177,1,1,0,90,false,stim,false,0,425.69999998807907,3,0,2,14312,WMM2,520637,false,false,667,image-keyboard-response,21
true,6,1,2,1,true,z,false,true,0.0-2.0-0.19-0.178-3.178,1,1,0,90,false,stim,false,0,346.39999997615814,3,0,2,14312,WMM2,522502,false,false,670,image-keyboard-response,22
true,6,1,2,1,true,z,false,false,0.0-2.0-0.19-0.179-3.179,1,1,0,90,false,stim,false,1,808.3000000119209,3,1,1,14312,WMM2,524830,false,true,673,image-keyboard-response,23
true,6,0,2,0,true,q,false,true,0.0-2.0-0.20-0.180-3.180,1,1,0,81,false,stim,false,0,528.1999999880791,3,0,0,14312,WMM2,526872,false,false,676,image-keyboard-response,24
true,6,0,2,0,true,q,false,true,0.0-2.0-0.20-0.181-3.181,1,1,0,81,false,stim,false,0,428.19999998807907,3,0,0,14312,WMM2,528812,false,false,679,image-keyboard-response,25
true,6,1,2,1,true,z,false,true,0.0-2.0-0.20-0.182-3.182,1,1,0,90,false,stim,false,0,591.5,3,0,2,14312,WMM2,530928,false,false,682,image-keyboard-response,26
true,6,1,2,1,true,z,false,true,0.0-2.0-0.20-0.183-3.183,1,1,0,90,false,stim,false,1,338.2999999523163,3,1,1,14312,WMM2,532786,false,false,685,image-keyboard-response,27
true,6,1,2,1,true,z,false,false,0.0-2.0-0.20-0.184-3.184,1,1,0,90,false,stim,false,0,507.5,3,0,2,14312,WMM2,534817,false,true,688,image-keyboard-response,28
true,6,1,2,1,true,z,false,true,0.0-2.0-0.20-0.185-3.185,1,1,0,90,false,stim,false,0,420.39999997615814,3,0,2,14312,WMM2,536761,false,false,691,image-keyboard-response,29
true,6,1,2,1,true,z,false,true,0.0-2.0-0.20-0.186-3.186,1,1,0,90,false,stim,false,1,487.5,3,1,1,14312,WMM2,538766,false,false,694,image-keyboard-response,30
true,6,1,2,1,true,z,false,true,0.0-2.0-0.20-0.187-3.187,1,1,0,90,false,stim,false,1,804.6999999880791,3,1,1,14312,WMM2,541093,false,false,697,image-keyboard-response,31
true,7,0,1,1,false,z,false,false,0.0-2.0-0.20-0.188-3.188,0,1,0,81,true,stim,true,0,1514.699999988079,3,0,0,14312,WMM2,544122,false,false,700,image-keyboard-response,1
true,7,0,1,1,false,z,false,false,0.0-2.0-0.21-0.189-3.189,0,1,0,81,false,stim,true,0,445.19999998807907,3,0,0,14312,WMM2,546094,false,false,703,image-keyboard-response,2
true,7,1,1,1,true,z,false,true,0.0-2.0-0.21-0.190-3.190,0,1,0,90,false,stim,false,1,424.69999998807907,3,1,1,14312,WMM2,548040,false,false,706,image-keyboard-response,3
true,7,1,1,1,true,z,false,true,0.0-2.0-0.21-0.191-3.191,0,1,0,90,false,stim,false,1,393.30000001192093,3,1,1,14312,WMM2,549946,false,false,709,image-keyboard-response,4
true,7,1,1,0,false,q,false,false,0.0-2.0-0.21-0.192-3.192,0,1,0,90,false,stim,true,1,335.80000001192093,3,0,2,14312,WMM2,551809,false,false,712,image-keyboard-response,5
true,7,1,1,1,true,z,false,true,0.0-2.0-0.21-0.193-3.193,0,1,0,90,false,stim,false,0,512.4000000357628,3,0,0,14312,WMM2,553842,false,false,715,image-keyboard-response,6
true,7,0,1,0,true,q,false,false,0.0-2.0-0.21-0.194-3.194,0,1,0,81,false,stim,false,1,997.2999999523163,3,0,2,14312,WMM2,556360,false,true,718,image-keyboard-response,7
true,7,1,1,1,true,z,false,false,0.0-2.0-0.21-0.195-3.195,0,1,0,90,false,stim,false,0,418.7999999523163,3,0,0,14312,WMM2,558310,false,true,721,image-keyboard-response,8
true,7,1,1,0,false,q,false,false,0.0-2.0-0.21-0.196-3.196,0,1,0,90,false,stim,true,1,308.19999998807907,3,0,2,14312,WMM2,560142,false,false,724,image-keyboard-response,9
true,7,1,1,1,true,z,false,true,0.0-2.0-0.21-0.197-3.197,0,1,0,90,false,stim,false,1,337.0,3,1,1,14312,WMM2,561988,false,false,727,image-keyboard-response,10
true,7,2,1,1,false,z,true,false,0.0-2.0-0.22-0.198-3.198,0,1,0,68,false,stim,false,0,981.6000000238419,3,0,0,14312,WMM2,564503,false,false,730,image-keyboard-response,11
true,7,2,1,1,false,z,true,false,0.0-2.0-0.22-0.199-3.199,0,1,0,68,false,stim,false,0,943.0,3,0,0,14312,WMM2,566975,false,false,733,image-keyboard-response,12
true,7,2,1,1,false,z,true,true,0.0-2.0-0.22-0.200-3.200,0,1,0,68,false,stim,false,1,411.4000000357628,3,1,1,14312,WMM2,568919,false,true,736,image-keyboard-response,13
true,7,2,1,0,false,q,true,true,0.0-2.0-0.22-0.201-3.201,0,1,0,68,false,stim,false,1,391.10000002384186,3,0,2,14312,WMM2,570831,false,true,739,image-keyboard-response,14
true,7,2,1,1,false,z,true,false,0.0-2.0-0.22-0.202-3.202,0,1,0,68,false,stim,false,1,464.5,3,1,1,14312,WMM2,572819,false,false,742,image-keyboard-response,15
true,7,2,1,1,false,z,true,false,0.0-2.0-0.22-0.203-3.203,0,1,0,68,false,stim,false,1,519.8999999761581,3,1,1,14312,WMM2,574875,false,false,745,image-keyboard-response,16
true,7,1,1,1,true,z,false,true,0.0-2.0-0.22-0.204-3.204,0,1,0,90,false,stim,false,0,1049.5999999642372,3,0,0,14312,WMM2,577461,false,false,748,image-keyboard-response,17
true,7,2,1,0,false,q,true,false,0.0-2.0-0.22-0.205-3.205,0,1,0,68,false,stim,false,1,459.0,3,0,2,14312,WMM2,579434,false,false,751,image-keyboard-response,18
true,7,2,1,0,false,q,true,false,0.0-2.0-0.22-0.206-3.206,0,1,0,68,false,stim,false,1,497.89999997615814,3,0,2,14312,WMM2,581450,false,false,754,image-keyboard-response,19
true,7,2,1,1,false,z,true,true,0.0-2.0-0.23-0.207-3.207,0,1,0,68,false,stim,false,1,884.8999999761581,3,1,1,14312,WMM2,583847,false,true,757,image-keyboard-response,20
true,7,1,1,1,true,z,false,true,0.0-2.0-0.23-0.208-3.208,0,1,0,90,false,stim,false,0,759.3000000119209,3,0,0,14312,WMM2,586138,false,false,760,image-keyboard-response,21
true,7,1,1,0,false,q,false,false,0.0-2.0-0.23-0.209-3.209,0,1,0,90,false,stim,true,1,406.7000000476837,3,0,2,14312,WMM2,588066,false,false,763,image-keyboard-response,22
true,7,2,1,1,false,z,true,false,0.0-2.0-0.23-0.210-3.210,0,1,0,68,false,stim,false,1,1033.4000000357628,3,1,1,14312,WMM2,590620,false,false,766,image-keyboard-response,23
true,7,1,1,0,false,q,false,false,0.0-2.0-0.23-0.211-3.211,0,1,0,90,false,stim,true,1,773.3999999761581,3,0,2,14312,WMM2,592917,false,false,769,image-keyboard-response,24
true,7,0,1,1,false,z,true,false,0.0-2.0-0.23-0.212-3.212,0,1,0,81,false,stim,false,1,747.7000000476837,3,1,1,14312,WMM2,595198,false,false,772,image-keyboard-response,25
true,7,1,1,0,false,q,false,false,0.0-2.0-0.23-0.213-3.213,0,1,0,90,false,stim,true,1,529.3000000119209,3,0,2,14312,WMM2,597253,false,false,775,image-keyboard-response,26
true,7,1,1,1,true,z,false,true,0.0-2.0-0.23-0.214-3.214,0,1,0,90,false,stim,false,0,397.5,3,0,0,14312,WMM2,599184,false,false,778,image-keyboard-response,27
true,7,0,1,1,false,z,false,false,0.0-2.0-0.23-0.215-3.215,0,1,0,81,false,stim,true,0,1121.5999999642372,3,0,0,14312,WMM2,601840,false,false,781,image-keyboard-response,28
true,7,1,1,1,true,z,false,true,0.0-2.0-0.24-0.216-3.216,0,1,0,90,false,stim,false,0,618.2000000476837,3,0,0,14312,WMM2,603971,false,false,784,image-keyboard-response,29
true,7,1,1,1,true,z,false,true,0.0-2.0-0.24-0.217-3.217,0,1,0,90,false,stim,false,1,732.3000000119209,3,1,1,14312,WMM2,606229,false,false,787,image-keyboard-response,30
true,7,1,1,1,true,z,false,true,0.0-2.0-0.24-0.218-3.218,0,1,0,90,false,stim,false,0,512.3999999761581,3,0,0,14312,WMM2,608259,false,false,790,image-keyboard-response,31
true,7,1,1,0,false,q,false,false,0.0-2.0-0.24-0.219-3.219,0,1,0,90,false,stim,true,1,1587.3999999761581,3,0,2,14312,WMM2,611368,false,false,793,image-keyboard-response,32
true,7,1,1,1,true,z,false,false,0.0-2.0-0.24-0.220-3.220,0,1,0,90,false,stim,false,1,979.7999999523163,3,1,1,14312,WMM2,613867,false,true,796,image-keyboard-response,33
true,7,1,1,1,true,z,false,true,0.0-2.0-0.24-0.221-3.221,0,1,0,90,false,stim,false,1,549.8999999761581,3,1,1,14312,WMM2,615941,false,false,799,image-keyboard-response,34
true,7,2,1,0,false,q,true,false,0.0-2.0-0.24-0.222-3.222,0,1,0,68,false,stim,false,1,528.5999999642372,3,0,2,14312,WMM2,618000,false,false,802,image-keyboard-response,35
true,7,0,1,0,true,q,false,true,0.0-2.0-0.24-0.223-3.223,0,1,0,81,false,stim,false,1,480.89999997615814,3,0,2,14312,WMM2,620011,false,false,805,image-keyboard-response,36
true,7,1,1,1,true,z,false,true,0.0-2.0-0.24-0.224-3.224,0,1,0,90,false,stim,false,0,1372.199999988079,3,0,0,14312,WMM2,622901,false,false,808,image-keyboard-response,37
true,7,1,1,1,true,z,false,true,0.0-2.0-0.25-0.225-3.225,0,1,0,90,false,stim,false,1,868.3999999761581,3,1,1,14312,WMM2,625295,false,false,811,image-keyboard-response,38
true,7,1,1,1,true,z,false,true,0.0-2.0-0.25-0.226-3.226,0,1,0,90,false,stim,false,0,624.5,3,0,0,14312,WMM2,627436,false,false,814,image-keyboard-response,39
true,7,0,1,0,true,q,false,true,0.0-2.0-0.25-0.227-3.227,0,1,0,81,false,stim,false,1,576.8000000119209,3,0,2,14312,WMM2,629529,false,false,817,image-keyboard-response,40
true,7,1,1,1,true,z,false,true,0.0-2.0-0.25-0.228-3.228,0,1,0,90,false,stim,false,1,432.89999997615814,3,0,1,14312,WMM2,631500,false,false,820,image-keyboard-response,41
true,7,0,1,0,true,q,false,true,0.0-2.0-0.25-0.229-3.229,0,1,0,81,false,stim,false,1,735.0,3,1,2,14312,WMM2,633764,false,false,823,image-keyboard-response,42
true,7,1,1,1,true,z,false,false,0.0-2.0-0.25-0.230-3.230,0,1,0,90,false,stim,false,0,502.2000000476837,3,1,0,14312,WMM2,635796,false,true,826,image-keyboard-response,43
true,7,1,1,1,true,z,false,false,0.0-2.0-0.25-0.231-3.231,0,1,0,90,false,stim,false,0,601.9000000357628,3,1,0,14312,WMM2,637918,false,true,829,image-keyboard-response,44
true,7,1,1,1,true,z,false,true,0.0-2.0-0.25-0.232-3.232,0,1,0,90,false,stim,false,1,451.7000000476837,3,0,1,14312,WMM2,639896,false,false,832,image-keyboard-response,45
true,7,0,1,0,true,q,false,true,0.0-2.0-0.25-0.233-3.233,0,1,0,81,false,stim,false,1,599.1000000238419,3,1,2,14312,WMM2,642027,false,false,835,image-keyboard-response,46
true,7,1,1,1,true,z,false,true,0.0-2.0-0.26-0.234-3.234,0,1,0,90,false,stim,false,1,611.8999999761581,3,0,1,14312,WMM2,644169,false,false,838,image-keyboard-response,47
true,7,0,1,1,false,z,false,false,0.0-2.0-0.26-0.235-3.235,0,1,0,81,false,stim,true,0,471.30000001192093,3,1,0,14312,WMM2,646170,false,false,841,image-keyboard-response,48
true,7,1,1,1,true,z,false,true,0.0-2.0-0.26-0.236-3.236,0,1,0,90,false,stim,false,1,814.3000000119209,3,0,1,14312,WMM2,648508,false,false,844,image-keyboard-response,49
true,7,1,1,1,true,z,false,true,0.0-2.0-0.26-0.237-3.237,0,1,0,90,false,stim,false,1,463.89999997615814,3,0,1,14312,WMM2,650482,false,false,847,image-keyboard-response,50
true,8,2,3,1,false,z,true,true,0.0-2.0-0.26-0.238-3.238,1,0,1,68,true,stim,false,1,506.9000000357628,3,1,0,14312,WMM2,652519,false,true,850,image-keyboard-response,1
true,8,0,3,0,true,q,false,true,0.0-2.0-0.26-0.239-3.239,1,0,1,81,false,stim,false,0,696.8999999761581,3,1,2,14312,WMM2,654736,false,false,853,image-keyboard-response,2
true,8,0,3,0,true,q,false,false,0.0-2.0-0.26-0.240-3.240,1,0,1,81,false,stim,false,0,463.2000000476837,3,1,2,14312,WMM2,656719,false,true,856,image-keyboard-response,3
true,8,2,3,1,false,z,true,false,0.0-2.0-0.26-0.241-3.241,1,0,1,68,false,stim,false,1,1354.1000000238419,3,1,0,14312,WMM2,659598,false,false,859,image-keyboard-response,4
true,8,0,3,0,true,q,false,true,0.0-2.0-0.26-0.242-3.242,1,0,1,81,false,stim,false,0,1665.5999999642372,3,1,2,14312,WMM2,662778,false,false,862,image-keyboard-response,5
true,8,1,3,0,false,q,false,false,0.0-2.0-0.27-0.243-3.243,1,0,1,90,false,stim,true,1,513.0,3,0,1,14312,WMM2,664820,false,false,865,image-keyboard-response,6
true,8,0,3,0,true,q,false,true,0.0-2.0-0.27-0.244-3.244,1,0,1,81,false,stim,false,0,555.3000000119209,3,1,2,14312,WMM2,666903,false,false,868,image-keyboard-response,7
true,8,1,3,0,false,q,true,false,0.0-2.0-0.27-0.245-3.245,1,0,1,90,false,stim,false,0,501.0,3,1,2,14312,WMM2,668929,false,false,871,image-keyboard-response,8
true,8,0,3,0,true,q,false,true,0.0-2.0-0.27-0.246-3.246,1,0,1,81,false,stim,false,0,384.5,3,1,2,14312,WMM2,670842,false,false,874,image-keyboard-response,9
true,8,2,3,0,false,q,true,false,0.0-2.0-0.27-0.247-3.247,1,0,1,68,false,stim,false,1,683.8000000119209,3,0,1,14312,WMM2,673039,false,false,877,image-keyboard-response,10
true,8,1,3,0,false,q,false,false,0.0-2.0-0.27-0.248-3.248,1,0,1,90,false,stim,true,1,694.6999999880791,3,0,1,14312,WMM2,675264,false,false,880,image-keyboard-response,11
true,8,1,3,1,true,z,false,true,0.0-2.0-0.27-0.249-3.249,1,0,1,90,false,stim,false,1,1531.199999988079,3,1,0,14312,WMM2,678324,false,false,883,image-keyboard-response,12
true,8,1,3,1,true,z,false,true,0.0-2.0-0.27-0.250-3.250,1,0,1,90,false,stim,false,1,550.2999999523163,3,1,0,14312,WMM2,680387,false,false,886,image-keyboard-response,13
true,8,1,3,1,true,z,false,false,0.0-2.0-0.27-0.251-3.251,1,0,1,90,false,stim,false,1,372.60000002384186,3,1,0,14312,WMM2,682271,false,true,889,image-keyboard-response,14
true,8,0,3,0,true,q,false,false,0.0-2.0-0.28-0.252-3.252,1,0,1,81,false,stim,false,0,564.6999999880791,3,1,2,14312,WMM2,684367,false,true,892,image-keyboard-response,15
true,8,1,3,0,false,q,true,false,0.0-2.0-0.28-0.253-3.253,1,0,1,90,false,stim,false,0,1237.800000011921,3,1,2,14312,WMM2,687120,false,false,895,image-keyboard-response,16
true,8,0,3,0,true,q,false,true,0.0-2.0-0.28-0.254-3.254,1,0,1,81,false,stim,false,1,1136.199999988079,3,0,1,14312,WMM2,689776,false,false,898,image-keyboard-response,17
true,8,0,3,0,true,q,false,true,0.0-2.0-0.28-0.255-3.255,1,0,1,81,false,stim,false,1,567.0,3,0,1,14312,WMM2,691881,false,false,901,image-keyboard-response,18
true,8,0,3,0,true,q,false,false,0.0-2.0-0.28-0.256-3.256,1,0,1,81,false,stim,false,1,458.0999999642372,3,0,1,14312,WMM2,693868,false,true,904,image-keyboard-response,19
true,8,1,3,0,false,q,true,false,0.0-2.0-0.28-0.257-3.257,1,0,1,90,false,stim,false,0,737.1999999880791,3,1,2,14312,WMM2,696130,false,false,907,image-keyboard-response,20
true,8,1,3,1,true,z,false,false,0.0-2.0-0.28-0.258-3.258,1,0,1,90,false,stim,false,1,742.8000000119209,3,1,0,14312,WMM2,698389,false,true,910,image-keyboard-response,21
true,8,2,3,1,false,z,true,false,0.0-2.0-0.28-0.259-3.259,1,0,1,68,false,stim,false,1,753.1999999880791,3,1,0,14312,WMM2,700667,false,false,913,image-keyboard-response,22
true,8,1,3,1,true,z,false,true,0.0-2.0-0.28-0.260-3.260,1,0,1,90,false,stim,false,1,1485.9000000357628,3,1,0,14312,WMM2,703663,false,false,916,image-keyboard-response,23
true,8,0,3,0,true,q,false,true,0.0-2.0-0.29-0.261-3.261,1,0,1,81,false,stim,false,0,1091.199999988079,3,1,2,14312,WMM2,706280,false,false,919,image-keyboard-response,24
true,8,2,3,0,false,q,true,false,0.0-2.0-0.29-0.262-3.262,1,0,1,68,false,stim,false,1,986.1000000238419,3,0,1,14312,WMM2,708788,false,false,922,image-keyboard-response,25
true,8,2,3,0,false,q,true,false,0.0-2.0-0.29-0.263-3.263,1,0,1,68,false,stim,false,1,594.7999999523163,3,0,1,14312,WMM2,710906,false,false,925,image-keyboard-response,26
true,8,1,3,0,false,q,false,false,0.0-2.0-0.29-0.264-3.264,1,0,1,90,false,stim,true,1,477.19999998807907,3,0,1,14312,WMM2,712918,false,false,928,image-keyboard-response,27
true,8,1,3,1,true,z,false,true,0.0-2.0-0.29-0.265-3.265,1,0,1,90,false,stim,false,1,1478.7999999523163,3,1,0,14312,WMM2,715934,false,false,931,image-keyboard-response,28
true,8,0,3,0,true,q,false,true,0.0-2.0-0.29-0.266-3.266,1,0,1,81,false,stim,false,0,1195.0999999642372,3,1,2,14312,WMM2,718655,false,false,934,image-keyboard-response,29
true,8,1,3,1,true,z,false,true,0.0-2.0-0.29-0.267-3.267,1,0,1,90,false,stim,false,1,1090.5,3,1,0,14312,WMM2,721282,false,false,937,image-keyboard-response,30
true,8,1,3,1,true,z,false,true,0.0-2.0-0.29-0.268-3.268,1,0,1,90,false,stim,false,1,776.5,3,1,0,14312,WMM2,723588,false,false,940,image-keyboard-response,31
true,8,0,3,0,true,q,false,false,0.0-2.0-0.29-0.269-3.269,1,0,1,81,false,stim,false,0,800.8000000119209,3,1,2,14312,WMM2,725920,false,true,943,image-keyboard-response,32
true,8,0,3,1,false,z,true,false,0.0-2.0-0.30-0.270-3.270,1,0,1,81,false,stim,false,1,502.19999998807907,3,1,0,14312,WMM2,727947,false,false,946,image-keyboard-response,33
true,8,0,3,0,true,q,false,true,0.0-2.0-0.30-0.271-3.271,1,0,1,81,false,stim,false,0,432.4000000357628,3,1,2,14312,WMM2,729907,false,false,949,image-keyboard-response,34
true,8,0,3,0,true,q,false,false,0.0-2.0-0.30-0.272-3.272,1,0,1,81,false,stim,false,1,460.19999998807907,3,0,1,14312,WMM2,731892,false,true,952,image-keyboard-response,35
true,8,1,3,0,false,q,true,false,0.0-2.0-0.30-0.273-3.273,1,0,1,90,false,stim,false,0,1365.2999999523163,3,1,2,14312,WMM2,734792,false,false,955,image-keyboard-response,36
true,8,1,3,1,true,z,false,false,0.0-2.0-0.30-0.274-3.274,1,0,1,90,false,stim,false,1,1325.6000000238419,3,1,0,14312,WMM2,737641,false,true,958,image-keyboard-response,37
true,8,2,3,0,false,q,true,false,0.0-2.0-0.30-0.275-3.275,1,0,1,68,false,stim,false,1,876.5999999642372,3,0,1,14312,WMM2,740034,false,false,961,image-keyboard-response,38
true,8,2,3,1,false,z,true,false,0.0-2.0-0.30-0.276-3.276,1,0,1,68,false,stim,false,1,1089.0,3,1,0,14312,WMM2,742636,false,false,964,image-keyboard-response,39
true,8,1,3,0,false,q,false,false,0.0-2.0-0.30-0.277-3.277,1,0,1,90,false,stim,true,1,752.6999999880791,3,0,1,14312,WMM2,744914,false,false,967,image-keyboard-response,40
true,8,0,3,0,true,q,false,true,0.0-2.0-0.30-0.278-3.278,1,0,1,81,false,stim,false,0,1241.8999999761581,3,1,2,14312,WMM2,747675,false,false,970,image-keyboard-response,41
true,8,0,3,0,true,q,false,true,0.0-2.0-0.31-0.279-3.279,1,0,1,81,false,stim,false,0,563.9000000357628,3,1,2,14312,WMM2,749751,false,false,973,image-keyboard-response,42
true,8,0,3,0,true,q,false,true,0.0-2.0-0.31-0.280-3.280,1,0,1,81,false,stim,false,0,483.19999998807907,3,1,2,14312,WMM2,751765,false,false,976,image-keyboard-response,43
true,8,0,3,0,true,q,false,false,0.0-2.0-0.31-0.281-3.281,1,0,1,81,false,stim,false,1,1572.9000000357628,3,0,1,14312,WMM2,754870,false,true,979,image-keyboard-response,44
true,8,1,3,0,false,q,false,false,0.0-2.0-0.31-0.282-3.282,1,0,1,90,false,stim,true,1,387.60000002384186,3,0,1,14312,WMM2,756791,false,false,982,image-keyboard-response,45
true,8,1,3,1,true,z,false,true,0.0-2.0-0.31-0.283-3.283,1,0,1,90,false,stim,false,1,759.6999999880791,3,1,0,14312,WMM2,759095,false,false,985,image-keyboard-response,46
true,8,1,3,1,true,z,false,false,0.0-2.0-0.31-0.284-3.284,1,0,1,90,false,stim,false,1,566.3000000119209,3,1,0,14312,WMM2,761175,false,true,988,image-keyboard-response,47
true,8,2,3,0,false,q,true,true,0.0-2.0-0.31-0.285-3.285,1,0,1,68,false,stim,false,1,1031.5999999642372,3,0,1,14312,WMM2,763724,false,true,991,image-keyboard-response,48
true,8,1,3,1,true,z,false,false,0.0-2.0-0.31-0.286-3.286,1,0,1,90,false,stim,false,1,931.5999999642372,3,1,0,14312,WMM2,766181,false,true,994,image-keyboard-response,49
true,8,0,3,0,true,q,false,true,0.0-2.0-0.31-0.287-3.287,1,0,1,81,false,stim,false,0,676.3999999761581,3,1,2,14312,WMM2,768391,false,false,997,image-keyboard-response,50
true,8,1,3,0,false,q,false,false,0.0-2.0-0.32-0.288-3.288,1,0,1,90,false,stim,true,1,842.1999999880791,3,1,1,14312,WMM2,770758,false,false,1000,image-keyboard-response,51
true,8,2,3,0,false,q,true,false,0.0-2.0-0.32-0.289-3.289,1,0,1,68,false,stim,false,1,1171.7999999523163,3,1,1,14312,WMM2,773469,false,false,1003,image-keyboard-response,52
true,8,1,3,1,true,z,false,true,0.0-2.0-0.32-0.290-3.290,1,0,1,90,false,stim,false,1,1252.800000011921,3,1,0,14312,WMM2,776244,false,false,1006,image-keyboard-response,53
true,8,1,3,0,false,q,true,false,0.0-2.0-0.32-0.291-3.291,1,0,1,90,false,stim,false,0,1633.800000011921,3,0,2,14312,WMM2,779394,false,false,1009,image-keyboard-response,54
true,8,1,3,1,true,z,false,true,0.0-2.0-0.32-0.292-3.292,1,0,1,90,false,stim,false,1,792.8000000119209,3,1,0,14312,WMM2,781713,false,false,1012,image-keyboard-response,55
true,8,0,3,0,true,q,false,true,0.0-2.0-0.32-0.293-3.293,1,0,1,81,false,stim,false,0,626.8000000119209,3,0,2,14312,WMM2,783863,false,false,1015,image-keyboard-response,56
true,8,1,3,1,true,z,false,true,0.0-2.0-0.32-0.294-3.294,1,0,1,90,false,stim,false,1,699.0,3,1,0,14312,WMM2,786083,false,false,1018,image-keyboard-response,57
true,8,0,3,0,true,q,false,true,0.0-2.0-0.32-0.295-3.295,1,0,1,81,false,stim,false,0,2162.0,3,0,2,14312,WMM2,789764,false,false,1021,image-keyboard-response,58
true,8,1,3,0,false,q,false,false,0.0-2.0-0.32-0.296-3.296,1,0,1,90,false,stim,true,1,1632.5,3,1,1,14312,WMM2,792926,false,false,1024,image-keyboard-response,59
true,8,1,3,1,true,z,false,true,0.0-2.0-0.33-0.297-3.297,1,0,1,90,false,stim,false,1,1119.4000000357628,3,1,0,14312,WMM2,795570,false,false,1027,image-keyboard-response,60
true,9,2,3,0,false,q,true,false,0.0-2.0-0.33-0.298-3.298,1,1,0,68,true,stim,false,0,815.1999999880791,3,1,1,14312,WMM2,797915,false,false,1030,image-keyboard-response,1
true,9,1,3,1,true,z,false,false,0.0-2.0-0.33-0.299-3.299,1,1,0,90,false,stim,false,1,768.3999999761581,3,1,0,14312,WMM2,800196,false,true,1033,image-keyboard-response,2
true,9,0,3,0,true,q,false,true,0.0-2.0-0.33-0.300-3.300,1,1,0,81,false,stim,false,0,1087.8999999761581,3,1,1,14312,WMM2,802824,false,false,1036,image-keyboard-response,3
true,9,1,3,1,true,z,false,false,0.0-2.0-0.33-0.301-3.301,1,1,0,90,false,stim,false,1,1076.8999999761581,3,1,0,14312,WMM2,805443,false,true,1039,image-keyboard-response,4
true,9,0,3,1,false,z,false,false,0.0-2.0-0.33-0.302-3.302,1,1,0,81,false,stim,true,0,575.8000000119209,3,0,2,14312,WMM2,807550,false,false,1042,image-keyboard-response,5
true,9,1,3,1,true,z,false,true,0.0-2.0-0.33-0.303-3.303,1,1,0,90,false,stim,false,0,982.1999999880791,3,0,2,14312,WMM2,810051,false,false,1045,image-keyboard-response,6
true,9,0,3,0,true,q,false,true,0.0-2.0-0.33-0.304-3.304,1,1,0,81,false,stim,false,0,1099.300000011921,3,1,1,14312,WMM2,812676,false,false,1048,image-keyboard-response,7
true,9,1,3,1,true,z,false,true,0.0-2.0-0.33-0.305-3.305,1,1,0,90,false,stim,false,0,445.60000002384186,3,0,2,14312,WMM2,814643,false,false,1051,image-keyboard-response,8
true,9,0,3,0,true,q,false,false,0.0-2.0-0.34-0.306-3.306,1,1,0,81,false,stim,false,0,866.0,3,1,1,14312,WMM2,817028,false,true,1054,image-keyboard-response,9
true,9,2,3,1,false,z,true,false,0.0-2.0-0.34-0.307-3.307,1,1,0,68,false,stim,false,1,1012.0999999642372,3,1,0,14312,WMM2,819567,false,false,1057,image-keyboard-response,10
true,9,1,3,0,false,q,true,false,0.0-2.0-0.34-0.308-3.308,1,1,0,90,false,stim,false,0,636.6999999880791,3,1,1,14312,WMM2,821728,false,false,1060,image-keyboard-response,11
true,9,1,3,1,true,z,false,true,0.0-2.0-0.34-0.309-3.309,1,1,0,90,false,stim,false,0,1543.199999988079,3,0,2,14312,WMM2,824793,false,false,1063,image-keyboard-response,12
true,9,0,3,1,false,z,true,false,0.0-2.0-0.34-0.310-3.310,1,1,0,81,false,stim,false,1,695.1999999880791,3,1,0,14312,WMM2,827002,false,false,1066,image-keyboard-response,13
true,9,2,3,1,false,z,true,false,0.0-2.0-0.34-0.311-3.311,1,1,0,68,false,stim,false,1,1303.6000000238419,3,1,0,14312,WMM2,829810,false,false,1069,image-keyboard-response,14
true,9,0,3,1,false,z,false,false,0.0-2.0-0.34-0.312-3.312,1,1,0,81,false,stim,true,0,1661.6000000238419,3,0,2,14312,WMM2,832990,false,false,1072,image-keyboard-response,15
true,9,1,3,1,true,z,false,true,0.0-2.0-0.34-0.313-3.313,1,1,0,90,false,stim,false,0,912.7999999523163,3,0,2,14312,WMM2,835428,false,false,1075,image-keyboard-response,16
true,9,0,3,0,true,q,false,true,0.0-2.0-0.34-0.314-3.314,1,1,0,81,false,stim,false,0,1310.5,3,1,1,14312,WMM2,838259,false,false,1078,image-keyboard-response,17
true,9,1,3,1,true,z,false,true,0.0-2.0-0.35-0.315-3.315,1,1,0,90,false,stim,false,0,549.3000000119209,3,0,2,14312,WMM2,840325,false,false,1081,image-keyboard-response,18
true,9,0,3,0,true,q,false,true,0.0-2.0-0.35-0.316-3.316,1,1,0,81,false,stim,false,0,396.30000001192093,3,1,1,14312,WMM2,842248,false,false,1084,image-keyboard-response,19
true,9,1,3,1,true,z,false,true,0.0-2.0-0.35-0.317-3.317,1,1,0,90,false,stim,false,1,1277.7000000476837,3,1,0,14312,WMM2,845035,false,false,1087,image-keyboard-response,20
true,9,1,3,1,true,z,false,true,0.0-2.0-0.35-0.318-3.318,1,1,0,90,false,stim,false,1,486.5,3,1,0,14312,WMM2,847055,false,false,1090,image-keyboard-response,21
true,9,1,3,1,true,z,false,false,0.0-2.0-0.35-0.319-3.319,1,1,0,90,false,stim,false,0,544.1000000238419,3,1,2,14312,WMM2,849133,false,true,1093,image-keyboard-response,22
true,9,1,3,0,false,q,true,true,0.0-2.0-0.35-0.320-3.320,1,1,0,90,false,stim,false,0,940.8999999761581,3,0,1,14312,WMM2,851601,false,true,1096,image-keyboard-response,23
true,9,1,3,0,false,q,true,false,0.0-2.0-0.35-0.321-3.321,1,1,0,90,false,stim,false,0,436.0,3,0,1,14312,WMM2,853550,false,false,1099,image-keyboard-response,24
true,9,1,3,1,true,z,false,true,0.0-2.0-0.35-0.322-3.322,1,1,0,90,false,stim,false,1,423.19999998807907,3,1,0,14312,WMM2,855502,false,false,1102,image-keyboard-response,25
true,9,0,3,1,false,z,false,false,0.0-2.0-0.35-0.323-3.323,1,1,0,81,false,stim,true,0,600.0999999642372,3,1,2,14312,WMM2,857627,false,false,1105,image-keyboard-response,26
true,9,0,3,1,false,z,false,true,0.0-2.0-0.36-0.324-3.324,1,1,0,81,false,stim,true,0,538.0,3,1,2,14312,WMM2,859684,false,true,1108,image-keyboard-response,27
true,9,0,3,1,false,z,false,false,0.0-2.0-0.36-0.325-3.325,1,1,0,81,false,stim,true,0,559.1999999880791,3,1,2,14312,WMM2,861767,false,false,1111,image-keyboard-response,28
true,9,0,3,1,false,z,false,false,0.0-2.0-0.36-0.326-3.326,1,1,0,81,false,stim,true,0,481.39999997615814,3,1,2,14312,WMM2,863778,false,false,1114,image-keyboard-response,29
true,9,1,3,1,true,z,false,true,0.0-2.0-0.36-0.327-3.327,1,1,0,90,false,stim,false,1,673.2999999523163,3,1,0,14312,WMM2,865976,false,false,1117,image-keyboard-response,30
true,9,1,3,0,false,q,true,false,0.0-2.0-0.36-0.328-3.328,1,1,0,90,false,stim,false,0,464.19999998807907,3,0,1,14312,WMM2,867954,false,false,1120,image-keyboard-response,31
true,10,1,4,1,true,z,false,true,0.0-2.0-0.36-0.329-3.329,1,0,1,90,true,stim,false,1,386.69999998807907,3,1,0,14312,WMM2,869869,false,false,1123,image-keyboard-response,1
true,10,1,4,0,false,q,true,false,0.0-2.0-0.36-0.330-3.330,1,0,1,90,false,stim,false,0,393.30000001192093,3,0,1,14312,WMM2,871776,false,false,1126,image-keyboard-response,2
true,10,1,4,0,false,q,true,false,0.0-2.0-0.36-0.331-3.331,1,0,1,90,false,stim,false,0,536.1999999880791,3,0,1,14312,WMM2,873834,false,false,1129,image-keyboard-response,3
true,10,1,4,1,true,z,false,false,0.0-2.0-0.36-0.332-3.332,1,0,1,90,false,stim,false,1,578.0999999642372,3,1,0,14312,WMM2,875923,false,true,1132,image-keyboard-response,4
true,10,1,4,0,false,q,true,true,0.0-2.0-0.37-0.333-3.333,1,0,1,90,false,stim,false,0,413.30000001192093,3,0,1,14312,WMM2,877861,false,true,1135,image-keyboard-response,5
true,10,1,4,1,true,z,false,true,0.0-2.0-0.37-0.334-3.334,1,0,1,90,false,stim,false,1,407.69999998807907,3,1,0,14312,WMM2,879789,false,false,1138,image-keyboard-response,6
true,10,0,4,1,false,z,true,true,0.0-2.0-0.37-0.335-3.335,1,0,1,81,false,stim,false,1,584.1999999880791,3,1,2,14312,WMM2,881905,false,true,1141,image-keyboard-response,7
true,10,1,4,1,true,z,false,false,0.0-2.0-0.37-0.336-3.336,1,0,1,90,false,stim,false,1,273.89999997615814,3,1,0,14312,WMM2,883698,false,true,1144,image-keyboard-response,8
true,10,0,4,1,false,z,true,false,0.0-2.0-0.37-0.337-3.337,1,0,1,81,false,stim,false,1,1274.5,3,1,0,14312,WMM2,886498,false,false,1147,image-keyboard-response,9
true,10,1,4,1,true,z,false,true,0.0-2.0-0.37-0.338-3.338,1,0,1,90,false,stim,false,1,479.0,3,1,2,14312,WMM2,888487,false,false,1150,image-keyboard-response,10
false,10,-1,4,0,false,q,true,false,0.0-2.0-0.37-0.339-3.339,1,0,1,,false,stim,false,0,,3,0,1,14312,WMM2,893040,false,false,1153,image-keyboard-response,11
true,10,0,4,1,false,z,true,false,0.0-2.0-0.37-0.340-3.340,1,0,1,81,false,stim,false,1,830.6999999880791,3,1,2,14312,WMM2,895390,false,false,1156,image-keyboard-response,12
true,10,1,4,0,false,q,true,false,0.0-2.0-0.37-0.341-3.341,1,0,1,90,false,stim,false,0,402.89999997615814,3,0,1,14312,WMM2,897304,false,false,1159,image-keyboard-response,13
true,10,0,4,1,false,z,true,false,0.0-2.0-0.38-0.342-3.342,1,0,1,81,false,stim,false,1,1060.699999988079,3,1,2,14312,WMM2,899890,false,false,1162,image-keyboard-response,14
true,10,1,4,0,false,q,true,false,0.0-2.0-0.38-0.343-3.343,1,0,1,90,false,stim,false,0,604.9000000357628,3,0,1,14312,WMM2,902017,false,false,1165,image-keyboard-response,15
true,10,1,4,1,true,z,false,true,0.0-2.0-0.38-0.344-3.344,1,0,1,90,false,stim,false,1,956.3000000119209,3,1,2,14312,WMM2,904500,false,false,1168,image-keyboard-response,16
true,10,0,4,0,true,q,false,true,0.0-2.0-0.38-0.345-3.345,1,0,1,81,false,stim,false,0,680.0,3,0,1,14312,WMM2,906698,false,false,1171,image-keyboard-response,17
true,10,2,4,1,false,z,true,false,0.0-2.0-0.38-0.346-3.346,1,0,1,68,false,stim,false,1,951.1999999880791,3,1,0,14312,WMM2,909172,false,false,1174,image-keyboard-response,18
true,10,1,4,1,true,z,false,true,0.0-2.0-0.38-0.347-3.347,1,0,1,90,false,stim,false,1,1630.2000000476837,3,1,2,14312,WMM2,912315,false,false,1177,image-keyboard-response,19
true,10,0,4,0,true,q,false,true,0.0-2.0-0.38-0.348-3.348,1,0,1,81,false,stim,false,0,396.19999998807907,3,0,1,14312,WMM2,914238,false,false,1180,image-keyboard-response,20
true,10,1,4,1,true,z,false,false,0.0-2.0-0.38-0.349-3.349,1,0,1,90,false,stim,false,1,808.8999999761581,3,1,0,14312,WMM2,916573,false,true,1183,image-keyboard-response,21
true,10,0,4,1,false,z,true,false,0.0-2.0-0.38-0.350-3.350,1,0,1,81,false,stim,false,1,516.5,3,1,0,14312,WMM2,918605,false,false,1186,image-keyboard-response,22
true,10,2,4,1,false,z,true,false,0.0-2.0-0.39-0.351-3.351,1,0,1,68,false,stim,false,1,601.5,3,1,0,14312,WMM2,920736,false,false,1189,image-keyboard-response,23
true,10,1,4,1,true,z,false,true,0.0-2.0-0.39-0.352-3.352,1,0,1,90,false,stim,false,1,1251.6000000238419,3,1,0,14312,WMM2,923510,false,false,1192,image-keyboard-response,24
true,10,0,4,1,false,z,true,true,0.0-2.0-0.39-0.353-3.353,1,0,1,81,false,stim,false,1,687.5,3,1,2,14312,WMM2,925730,false,true,1195,image-keyboard-response,25
true,10,1,4,1,true,z,false,true,0.0-2.0-0.39-0.354-3.354,1,0,1,90,false,stim,false,1,399.19999998807907,3,1,0,14312,WMM2,927655,false,false,1198,image-keyboard-response,26
true,10,1,4,0,false,q,true,false,0.0-2.0-0.39-0.355-3.355,1,0,1,90,false,stim,false,0,428.0,3,0,1,14312,WMM2,929608,false,false,1201,image-keyboard-response,27
true,10,0,4,0,true,q,false,false,0.0-2.0-0.39-0.356-3.356,1,0,1,81,false,stim,false,0,1377.0,3,0,1,14312,WMM2,932506,false,true,1204,image-keyboard-response,28
true,10,2,4,0,false,q,true,false,0.0-2.0-0.39-0.357-3.357,1,0,1,68,false,stim,false,0,805.5999999642372,3,0,1,14312,WMM2,934837,false,false,1207,image-keyboard-response,29
true,10,0,4,1,false,z,true,false,0.0-2.0-0.39-0.358-3.358,1,0,1,81,false,stim,false,1,1223.0,3,1,2,14312,WMM2,937575,false,false,1210,image-keyboard-response,30
true,10,1,4,1,true,z,false,true,0.0-2.0-0.39-0.359-3.359,1,0,1,90,false,stim,false,1,581.5999999642372,3,1,2,14312,WMM2,939691,false,false,1213,image-keyboard-response,31
true,10,0,4,0,true,q,false,true,0.0-2.0-0.40-0.360-3.360,1,0,1,81,false,stim,false,0,1612.8999999761581,3,0,1,14312,WMM2,942833,false,false,1216,image-keyboard-response,32
true,10,1,4,1,true,z,false,true,0.0-2.0-0.40-0.361-3.361,1,0,1,90,false,stim,false,1,1173.800000011921,3,1,0,14312,WMM2,945522,false,false,1219,image-keyboard-response,33
true,10,0,4,0,true,q,false,true,0.0-2.0-0.40-0.362-3.362,1,0,1,81,false,stim,false,0,610.9000000357628,3,0,1,14312,WMM2,947655,false,false,1222,image-keyboard-response,34
true,10,1,4,1,true,z,false,true,0.0-2.0-0.40-0.363-3.363,1,0,1,90,false,stim,false,1,591.5,3,1,0,14312,WMM2,949777,false,false,1225,image-keyboard-response,35
true,10,0,4,0,true,q,false,true,0.0-2.0-0.40-0.364-3.364,1,0,1,81,false,stim,false,0,670.6999999880791,3,0,1,14312,WMM2,951969,false,false,1228,image-keyboard-response,36
true,10,1,4,1,true,z,false,true,0.0-2.0-0.40-0.365-3.365,1,0,1,90,false,stim,false,1,407.0999999642372,3,1,0,14312,WMM2,953902,false,false,1231,image-keyboard-response,37
true,10,1,4,1,true,z,false,true,0.0-2.0-0.40-0.366-3.366,1,0,1,90,false,stim,false,1,733.9000000357628,3,1,2,14312,WMM2,956172,false,false,1234,image-keyboard-response,38
true,10,1,4,1,true,z,false,true,0.0-2.0-0.40-0.367-3.367,1,0,1,90,false,stim,false,1,845.6999999880791,3,1,2,14312,WMM2,958540,false,false,1237,image-keyboard-response,39
true,10,1,4,1,true,z,false,true,0.0-2.0-0.40-0.368-3.368,1,0,1,90,false,stim,false,1,420.80000001192093,3,1,2,14312,WMM2,960478,false,false,1240,image-keyboard-response,40
true,10,1,4,1,true,z,false,true,0.0-2.0-0.41-0.369-3.369,1,0,1,90,false,stim,false,1,523.1000000238419,3,1,2,14312,WMM2,962533,false,false,1243,image-keyboard-response,41
true,10,0,4,0,true,q,false,true,0.0-2.0-0.41-0.370-3.370,1,0,1,81,false,stim,false,0,712.6999999880791,3,1,1,14312,WMM2,964755,false,false,1246,image-keyboard-response,42
true,10,1,4,1,true,z,false,true,0.0-2.0-0.41-0.371-3.371,1,0,1,90,false,stim,false,1,538.5,3,0,0,14312,WMM2,966821,false,false,1249,image-keyboard-response,43
true,10,1,4,1,true,z,false,true,0.0-2.0-0.41-0.372-3.372,1,0,1,90,false,stim,false,1,386.10000002384186,3,0,0,14312,WMM2,968743,false,false,1252,image-keyboard-response,44
true,10,1,4,1,true,z,false,true,0.0-2.0-0.41-0.373-3.373,1,0,1,90,false,stim,false,1,441.5999999642372,3,1,2,14312,WMM2,970704,false,false,1255,image-keyboard-response,45
true,10,1,4,1,true,z,false,true,0.0-2.0-0.41-0.374-3.374,1,0,1,90,false,stim,false,1,439.10000002384186,3,1,2,14312,WMM2,972664,false,false,1258,image-keyboard-response,46
true,10,0,4,0,true,q,false,true,0.0-2.0-0.41-0.375-3.375,1,0,1,81,false,stim,false,0,688.5999999642372,3,1,1,14312,WMM2,974864,false,false,1261,image-keyboard-response,47
true,10,1,4,1,true,z,false,true,0.0-2.0-0.41-0.376-3.376,1,0,1,90,false,stim,false,1,465.7999999523163,3,0,0,14312,WMM2,976843,false,false,1264,image-keyboard-response,48
true,11,0,2,0,true,q,false,true,0.0-2.0-0.41-0.377-3.377,0,1,1,81,true,stim,false,0,664.4000000357628,3,1,1,14312,WMM2,979045,false,false,1267,image-keyboard-response,1
true,11,1,2,1,true,z,false,true,0.0-2.0-0.42-0.378-3.378,0,1,1,90,false,stim,false,1,516.0,3,1,2,14312,WMM2,981085,false,false,1270,image-keyboard-response,2
true,11,1,2,0,false,q,false,false,0.0-2.0-0.42-0.379-3.379,0,1,1,90,false,stim,true,1,954.6000000238419,3,0,0,14312,WMM2,983563,false,false,1273,image-keyboard-response,3
true,11,1,2,1,true,z,false,true,0.0-2.0-0.42-0.380-3.380,0,1,1,90,false,stim,false,1,742.1999999880791,3,1,2,14312,WMM2,985816,false,false,1276,image-keyboard-response,4
true,11,0,2,0,true,q,false,true,0.0-2.0-0.42-0.381-3.381,0,1,1,81,false,stim,false,0,502.80000001192093,3,1,1,14312,WMM2,987845,false,false,1279,image-keyboard-response,5
true,11,1,2,1,true,z,false,true,0.0-2.0-0.42-0.382-3.382,0,1,1,90,false,stim,false,1,388.10000002384186,3,1,2,14312,WMM2,989759,false,false,1282,image-keyboard-response,6
true,11,1,2,0,false,q,false,false,0.0-2.0-0.42-0.383-3.383,0,1,1,90,false,stim,true,1,610.3000000119209,3,0,0,14312,WMM2,991885,false,false,1285,image-keyboard-response,7
true,11,0,2,0,true,q,false,true,0.0-2.0-0.42-0.384-3.384,0,1,1,81,false,stim,false,0,577.0,3,1,1,14312,WMM2,993982,false,false,1288,image-keyboard-response,8
true,11,1,2,0,false,q,false,false,0.0-2.0-0.42-0.385-3.385,0,1,1,90,false,stim,true,1,380.5999999642372,3,0,0,14312,WMM2,995886,false,false,1291,image-keyboard-response,9
true,11,0,2,0,true,q,false,true,0.0-2.0-0.42-0.386-3.386,0,1,1,81,false,stim,false,0,681.2000000476837,3,1,1,14312,WMM2,998088,false,false,1294,image-keyboard-response,10
true,11,0,2,0,true,q,false,true,0.0-2.0-0.43-0.387-3.387,0,1,1,81,false,stim,false,0,488.5999999642372,3,1,1,14312,WMM2,1000104,false,false,1297,image-keyboard-response,11
true,11,1,2,0,false,q,false,false,0.0-2.0-0.43-0.388-3.388,0,1,1,90,false,stim,true,1,528.0,3,0,0,14312,WMM2,1002158,false,false,1300,image-keyboard-response,12
true,11,1,2,0,false,q,false,false,0.0-2.0-0.43-0.389-3.389,0,1,1,90,false,stim,true,1,404.0999999642372,3,0,0,14312,WMM2,1004092,false,false,1303,image-keyboard-response,13
true,11,1,2,0,false,q,false,false,0.0-2.0-0.43-0.390-3.390,0,1,1,90,false,stim,true,1,436.9000000357628,3,0,0,14312,WMM2,1006066,false,false,1306,image-keyboard-response,14
true,11,1,2,0,false,q,true,false,0.0-2.0-0.43-0.391-3.391,0,1,1,90,false,stim,false,0,707.2999999523163,3,1,1,14312,WMM2,1008285,false,false,1309,image-keyboard-response,15
true,11,0,2,0,true,q,false,false,0.0-2.0-0.43-0.392-3.392,0,1,1,81,false,stim,false,0,407.0,3,1,1,14312,WMM2,1010205,false,true,1312,image-keyboard-response,16
true,11,1,2,1,true,z,false,true,0.0-2.0-0.43-0.393-3.393,0,1,1,90,false,stim,false,1,726.1000000238419,3,1,2,14312,WMM2,1012445,false,false,1315,image-keyboard-response,17
true,11,1,2,1,true,z,false,true,0.0-2.0-0.43-0.394-3.394,0,1,1,90,false,stim,false,1,455.7000000476837,3,1,2,14312,WMM2,1014423,false,false,1318,image-keyboard-response,18
true,11,1,2,1,true,z,false,true,0.0-2.0-0.43-0.395-3.395,0,1,1,90,false,stim,false,1,534.5999999642372,3,1,2,14312,WMM2,1016467,false,false,1321,image-keyboard-response,19
true,11,1,2,1,true,z,false,true,0.0-2.0-0.44-0.396-3.396,0,1,1,90,false,stim,false,1,539.7000000476837,3,1,2,14312,WMM2,1018526,false,false,1324,image-keyboard-response,20
true,11,0,2,0,true,q,false,true,0.0-2.0-0.44-0.397-3.397,0,1,1,81,false,stim,false,0,812.0,3,1,1,14312,WMM2,1020862,false,false,1327,image-keyboard-response,21
true,11,2,2,0,false,q,true,false,0.0-2.0-0.44-0.398-3.398,0,1,1,68,false,stim,false,1,860.3000000119209,3,0,0,14312,WMM2,1023252,false,false,1330,image-keyboard-response,22
true,11,0,2,0,true,q,false,false,0.0-2.0-0.44-0.399-3.399,0,1,1,81,false,stim,false,0,760.6999999880791,3,1,1,14312,WMM2,1025535,false,true,1333,image-keyboard-response,23
true,11,1,2,1,true,z,false,true,0.0-2.0-0.44-0.400-3.400,0,1,1,90,false,stim,false,1,541.6999999880791,3,1,2,14312,WMM2,1027594,false,false,1336,image-keyboard-response,24
true,11,0,2,0,true,q,false,true,0.0-2.0-0.44-0.401-3.401,0,1,1,81,false,stim,false,0,560.0,3,1,1,14312,WMM2,1029684,false,false,1339,image-keyboard-response,25
true,11,0,2,0,true,q,false,true,0.0-2.0-0.44-0.402-3.402,0,1,1,81,false,stim,false,1,1084.3999999761581,3,0,0,14312,WMM2,1032301,false,false,1342,image-keyboard-response,26
true,11,0,2,0,true,q,false,true,0.0-2.0-0.44-0.403-3.403,0,1,1,81,false,stim,false,1,448.0,3,0,0,14312,WMM2,1034269,false,false,1345,image-keyboard-response,27
true,11,1,2,1,true,z,false,true,0.0-2.0-0.44-0.404-3.404,0,1,1,90,false,stim,false,1,576.3999999761581,3,1,2,14312,WMM2,1036375,false,false,1348,image-keyboard-response,28
true,11,1,2,1,true,z,false,true,0.0-2.0-0.45-0.405-3.405,0,1,1,90,false,stim,false,1,403.19999998807907,3,1,2,14312,WMM2,1038303,false,false,1351,image-keyboard-response,29
true,11,0,2,0,true,q,false,true,0.0-2.0-0.45-0.406-3.406,0,1,1,81,false,stim,false,1,802.3000000119209,3,1,0,14312,WMM2,1040622,false,false,1354,image-keyboard-response,30
true,11,1,2,1,true,z,false,false,0.0-2.0-0.45-0.407-3.407,0,1,1,90,false,stim,false,1,626.2999999523163,3,1,2,14312,WMM2,1042774,false,true,1357,image-keyboard-response,31
true,11,0,2,0,true,q,false,true,0.0-2.0-0.45-0.408-3.408,0,1,1,81,false,stim,false,1,569.3000000119209,3,1,0,14312,WMM2,1044863,false,false,1360,image-keyboard-response,32
true,11,0,2,0,true,q,false,true,0.0-2.0-0.45-0.409-3.409,0,1,1,81,false,stim,false,1,632.0,3,1,0,14312,WMM2,1047017,false,false,1363,image-keyboard-response,33
true,11,0,2,0,true,q,false,true,0.0-2.0-0.45-0.410-3.410,0,1,1,81,false,stim,false,0,316.80000001192093,3,0,1,14312,WMM2,1048869,false,false,1366,image-keyboard-response,34
true,11,0,2,0,true,q,false,true,0.0-2.0-0.45-0.411-3.411,0,1,1,81,false,stim,false,0,469.69999998807907,3,0,1,14312,WMM2,1050857,false,false,1369,image-keyboard-response,35
true,11,1,2,1,true,z,false,true,0.0-2.0-0.45-0.412-3.412,0,1,1,90,false,stim,false,1,518.8000000119209,3,1,2,14312,WMM2,1052899,false,false,1372,image-keyboard-response,36
true,11,0,2,0,true,q,false,false,0.0-2.0-0.45-0.413-3.413,0,1,1,81,false,stim,false,0,494.39999997615814,3,0,1,14312,WMM2,1054919,false,true,1375,image-keyboard-response,37
true,12,0,4,0,true,q,false,true,0.0-2.0-0.46-0.414-3.414,1,0,1,81,true,stim,false,0,529.1999999880791,3,0,1,14312,WMM2,1056975,false,false,1378,image-keyboard-response,1
true,12,1,4,1,true,z,false,true,0.0-2.0-0.46-0.415-3.415,1,0,1,90,false,stim,false,1,406.0,3,1,2,14312,WMM2,1058906,false,false,1381,image-keyboard-response,2
true,12,1,4,1,true,z,false,true,0.0-2.0-0.46-0.416-3.416,1,0,1,90,false,stim,false,1,413.30000001192093,3,1,2,14312,WMM2,1060853,false,false,1384,image-keyboard-response,3
true,12,0,4,0,true,q,false,true,0.0-2.0-0.46-0.417-3.417,1,0,1,81,false,stim,false,0,835.6999999880791,3,1,0,14312,WMM2,1063212,false,false,1387,image-keyboard-response,4
true,12,0,4,0,true,q,false,true,0.0-2.0-0.46-0.418-3.418,1,0,1,81,false,stim,false,0,908.0,3,0,1,14312,WMM2,1065638,false,false,1390,image-keyboard-response,5
true,12,1,4,1,true,z,false,true,0.0-2.0-0.46-0.419-3.419,1,0,1,90,false,stim,false,1,403.80000001192093,3,1,2,14312,WMM2,1067571,false,false,1393,image-keyboard-response,6
true,12,0,4,0,true,q,false,true,0.0-2.0-0.46-0.420-3.420,1,0,1,81,false,stim,false,0,635.1000000238419,3,0,1,14312,WMM2,1069730,false,false,1396,image-keyboard-response,7
true,12,0,4,0,true,q,false,false,0.0-2.0-0.46-0.421-3.421,1,0,1,81,false,stim,false,0,994.9000000357628,3,1,0,14312,WMM2,1072242,false,true,1399,image-keyboard-response,8
true,12,0,4,0,true,q,false,true,0.0-2.0-0.46-0.422-3.422,1,0,1,81,false,stim,false,0,553.0,3,1,0,14312,WMM2,1074332,false,false,1402,image-keyboard-response,9
true,12,0,4,0,true,q,false,true,0.0-2.0-0.47-0.423-3.423,1,0,1,81,false,stim,false,0,510.5,3,1,0,14312,WMM2,1076368,false,false,1405,image-keyboard-response,10
true,12,1,4,1,true,z,false,false,0.0-2.0-0.47-0.424-3.424,1,0,1,90,false,stim,false,1,439.39999997615814,3,1,2,14312,WMM2,1078326,false,true,1408,image-keyboard-response,11
true,12,0,4,0,true,q,false,true,0.0-2.0-0.47-0.425-3.425,1,0,1,81,false,stim,false,0,573.3000000119209,3,0,1,14312,WMM2,1080422,false,false,1411,image-keyboard-response,12
true,12,0,4,0,true,q,false,true,0.0-2.0-0.47-0.426-3.426,1,0,1,81,false,stim,false,0,422.2999999523163,3,0,1,14312,WMM2,1082375,false,false,1414,image-keyboard-response,13
true,12,0,4,0,true,q,false,false,0.0-2.0-0.47-0.427-3.427,1,0,1,81,false,stim,false,0,613.1999999880791,3,1,0,14312,WMM2,1084512,false,true,1417,image-keyboard-response,14
true,12,1,4,1,true,z,false,true,0.0-2.0-0.47-0.428-3.428,1,0,1,90,false,stim,false,1,525.0999999642372,3,1,2,14312,WMM2,1086555,false,false,1420,image-keyboard-response,15
true,12,0,4,0,true,q,false,true,0.0-2.0-0.47-0.429-3.429,1,0,1,81,false,stim,false,0,579.3000000119209,3,1,0,14312,WMM2,1088658,false,false,1423,image-keyboard-response,16
true,12,0,4,0,true,q,false,true,0.0-2.0-0.47-0.430-3.430,1,0,1,81,false,stim,false,0,417.60000002384186,3,0,1,14312,WMM2,1090593,false,false,1426,image-keyboard-response,17
true,12,1,4,1,true,z,false,true,0.0-2.0-0.47-0.431-3.431,1,0,1,90,false,stim,false,1,502.10000002384186,3,1,2,14312,WMM2,1092616,false,false,1429,image-keyboard-response,18
true,12,0,4,0,true,q,false,true,0.0-2.0-0.48-0.432-3.432,1,0,1,81,false,stim,false,0,476.2000000476837,3,0,1,14312,WMM2,1094615,false,false,1432,image-keyboard-response,19
true,12,1,4,1,true,z,false,false,0.0-2.0-0.48-0.433-3.433,1,0,1,90,false,stim,false,1,581.3999999761581,3,1,2,14312,WMM2,1096717,false,true,1435,image-keyboard-response,20
true,12,0,4,0,true,q,false,true,0.0-2.0-0.48-0.434-3.434,1,0,1,81,false,stim,false,0,456.4000000357628,3,0,0,14312,WMM2,1098707,false,false,1438,image-keyboard-response,21
true,12,0,4,0,true,q,false,true,0.0-2.0-0.48-0.435-3.435,1,0,1,81,false,stim,false,0,383.19999998807907,3,0,0,14312,WMM2,1100603,false,false,1441,image-keyboard-response,22
true,12,0,4,0,true,q,false,true,0.0-2.0-0.48-0.436-3.436,1,0,1,81,false,stim,false,0,699.6999999880791,3,1,1,14312,WMM2,1102813,false,false,1444,image-keyboard-response,23
true,12,1,4,1,true,z,false,true,0.0-2.0-0.48-0.437-3.437,1,0,1,90,false,stim,false,1,768.1999999880791,3,0,2,14312,WMM2,1105099,false,false,1447,image-keyboard-response,24
true,12,1,4,1,true,z,false,true,0.0-2.0-0.48-0.438-3.438,1,0,1,90,false,stim,false,1,429.30000001192093,3,0,2,14312,WMM2,1107058,false,false,1450,image-keyboard-response,25
true,12,0,4,0,true,q,false,true,0.0-2.0-0.48-0.439-3.439,1,0,1,81,false,stim,false,0,451.60000002384186,3,1,1,14312,WMM2,1109045,false,false,1453,image-keyboard-response,26
true,12,0,4,0,true,q,false,true,0.0-2.0-0.48-0.440-3.440,1,0,1,81,false,stim,false,0,599.0999999642372,3,0,0,14312,WMM2,1111161,false,false,1456,image-keyboard-response,27
true,12,0,4,0,true,q,false,true,0.0-2.0-0.49-0.441-3.441,1,0,1,81,false,stim,false,0,659.6999999880791,3,1,1,14312,WMM2,1113351,false,false,1459,image-keyboard-response,28
true,12,0,4,0,true,q,false,true,0.0-2.0-0.49-0.442-3.442,1,0,1,81,false,stim,false,0,420.5,3,0,0,14312,WMM2,1115295,false,false,1462,image-keyboard-response,29
true,12,0,4,0,true,q,false,true,0.0-2.0-0.49-0.443-3.443,1,0,1,81,false,stim,false,0,663.3000000119209,3,1,1,14312,WMM2,1117495,false,false,1465,image-keyboard-response,30
true,13,1,1,2,false,d,false,false,0.0-2.0-0.49-0.444-3.444,0,1,0,90,true,stim,true,1,562.2999999523163,3,0,2,14312,WMM2,1119583,false,false,1468,image-keyboard-response,1
true,13,1,1,2,false,d,false,false,0.0-2.0-0.49-0.445-3.445,0,1,0,90,false,stim,true,1,449.80000001192093,3,0,2,14312,WMM2,1121551,false,false,1471,image-keyboard-response,2
true,13,0,1,0,true,q,false,true,0.0-2.0-0.49-0.446-3.446,0,1,0,81,false,stim,false,0,483.5,3,1,1,14312,WMM2,1123556,false,false,1474,image-keyboard-response,3
true,13,0,1,2,false,d,false,false,0.0-2.0-0.49-0.447-3.447,0,1,0,81,false,stim,true,0,663.1999999880791,3,0,0,14312,WMM2,1125746,false,false,1477,image-keyboard-response,4
true,13,1,1,2,false,d,true,false,0.0-2.0-0.49-0.448-3.448,0,1,0,90,false,stim,false,0,361.5,3,0,0,14312,WMM2,1127643,false,false,1480,image-keyboard-response,5
true,13,1,1,2,false,d,false,false,0.0-2.0-0.49-0.449-3.449,0,1,0,90,false,stim,true,1,530.0,3,0,2,14312,WMM2,1129704,false,false,1483,image-keyboard-response,6
true,13,0,1,0,true,q,false,true,0.0-2.0-0.50-0.450-3.450,0,1,0,81,false,stim,false,0,602.1999999880791,3,1,1,14312,WMM2,1131837,false,false,1486,image-keyboard-response,7
true,13,2,1,2,true,d,false,true,0.0-2.0-0.50-0.451-3.451,0,1,0,68,false,stim,false,1,1170.4000000357628,3,0,2,14312,WMM2,1134533,false,false,1489,image-keyboard-response,8
true,13,0,1,2,false,d,false,false,0.0-2.0-0.50-0.452-3.452,0,1,0,81,false,stim,true,0,972.5,3,0,0,14312,WMM2,1137040,false,false,1492,image-keyboard-response,9
true,13,2,1,2,true,d,false,true,0.0-2.0-0.50-0.453-3.453,0,1,0,68,false,stim,false,1,772.3999999761581,3,0,2,14312,WMM2,1139338,false,false,1495,image-keyboard-response,10
true,13,0,1,0,true,q,false,true,0.0-2.0-0.50-0.454-3.454,0,1,0,81,false,stim,false,0,626.5999999642372,3,1,1,14312,WMM2,1141478,false,false,1498,image-keyboard-response,11
true,13,1,1,2,false,d,true,false,0.0-2.0-0.50-0.455-3.455,0,1,0,90,false,stim,false,0,458.5,3,0,0,14312,WMM2,1143476,false,false,1501,image-keyboard-response,12
true,13,2,1,2,true,d,false,true,0.0-2.0-0.50-0.456-3.456,0,1,0,68,false,stim,false,1,588.0,3,0,2,14312,WMM2,1145584,false,false,1504,image-keyboard-response,13
true,13,0,1,0,true,q,false,true,0.0-2.0-0.50-0.457-3.457,0,1,0,81,false,stim,false,0,765.3999999761581,3,1,1,14312,WMM2,1147866,false,false,1507,image-keyboard-response,14
true,13,0,1,2,false,d,false,false,0.0-2.0-0.50-0.458-3.458,0,1,0,81,false,stim,true,0,851.0,3,0,0,14312,WMM2,1150227,false,false,1510,image-keyboard-response,15
true,13,1,1,2,false,d,true,false,0.0-2.0-0.51-0.459-3.459,0,1,0,90,false,stim,false,0,425.19999998807907,3,0,0,14312,WMM2,1152166,false,false,1513,image-keyboard-response,16
true,13,0,1,0,true,q,false,true,0.0-2.0-0.51-0.460-3.460,0,1,0,81,false,stim,false,0,876.0,3,1,1,14312,WMM2,1154579,false,false,1516,image-keyboard-response,17
true,13,2,1,2,true,d,false,true,0.0-2.0-0.51-0.461-3.461,0,1,0,68,false,stim,false,1,778.5,3,0,2,14312,WMM2,1156876,false,false,1519,image-keyboard-response,18
true,13,2,1,2,true,d,false,true,0.0-2.0-0.51-0.462-3.462,0,1,0,68,false,stim,false,1,549.0,3,0,2,14312,WMM2,1158947,false,false,1522,image-keyboard-response,19
true,13,2,1,2,true,d,false,true,0.0-2.0-0.51-0.463-3.463,0,1,0,68,false,stim,false,0,842.1999999880791,3,0,0,14312,WMM2,1161313,false,false,1525,image-keyboard-response,20
true,13,0,1,0,true,q,false,true,0.0-2.0-0.51-0.464-3.464,0,1,0,81,false,stim,false,0,647.0,3,1,1,14312,WMM2,1163485,false,false,1528,image-keyboard-response,21
true,13,2,1,2,true,d,false,true,0.0-2.0-0.51-0.465-3.465,0,1,0,68,false,stim,false,1,744.3000000119209,3,0,2,14312,WMM2,1165755,false,false,1531,image-keyboard-response,22
true,13,0,1,2,false,d,false,false,0.0-2.0-0.51-0.466-3.466,0,1,0,81,false,stim,true,0,613.3999999761581,3,0,0,14312,WMM2,1167904,false,false,1534,image-keyboard-response,23
true,13,0,1,0,true,q,false,true,0.0-2.0-0.51-0.467-3.467,0,1,0,81,false,stim,false,0,616.4000000357628,3,1,1,14312,WMM2,1170055,false,false,1537,image-keyboard-response,24
true,13,0,1,0,true,q,false,true,0.0-2.0-0.52-0.468-3.468,0,1,0,81,false,stim,false,0,818.6999999880791,3,1,1,14312,WMM2,1172402,false,false,1540,image-keyboard-response,25
true,13,0,1,0,true,q,false,true,0.0-2.0-0.52-0.469-3.469,0,1,0,81,false,stim,false,0,443.80000001192093,3,1,1,14312,WMM2,1174365,false,false,1543,image-keyboard-response,26
true,13,2,1,2,true,d,false,true,0.0-2.0-0.52-0.470-3.470,0,1,0,68,false,stim,false,0,1297.2000000476837,3,0,0,14312,WMM2,1177196,false,false,1546,image-keyboard-response,27
true,13,2,1,2,true,d,false,true,0.0-2.0-0.52-0.471-3.471,0,1,0,68,false,stim,false,1,695.8999999761581,3,0,2,14312,WMM2,1179409,false,false,1549,image-keyboard-response,28
true,13,0,1,0,true,q,false,true,0.0-2.0-0.52-0.472-3.472,0,1,0,81,false,stim,false,0,630.3000000119209,3,1,1,14312,WMM2,1181571,false,false,1552,image-keyboard-response,29
true,13,2,1,2,true,d,false,true,0.0-2.0-0.52-0.473-3.473,0,1,0,68,false,stim,false,0,581.9000000357628,3,0,0,14312,WMM2,1183681,false,false,1555,image-keyboard-response,30
true,13,2,1,2,true,d,false,true,0.0-2.0-0.52-0.474-3.474,0,1,0,68,false,stim,false,1,728.2000000476837,3,0,2,14312,WMM2,1185927,false,false,1558,image-keyboard-response,31
true,13,2,1,2,true,d,false,true,0.0-2.0-0.52-0.475-3.475,0,1,0,68,false,stim,false,1,569.1999999880791,3,0,2,14312,WMM2,1188010,false,false,1561,image-keyboard-response,32
true,13,2,1,2,true,d,false,true,0.0-2.0-0.52-0.476-3.476,0,1,0,68,false,stim,false,0,683.1999999880791,3,1,0,14312,WMM2,1190206,false,false,1564,image-keyboard-response,33
true,13,2,1,2,true,d,false,true,0.0-2.0-0.53-0.477-3.477,0,1,0,68,false,stim,false,0,333.4000000357628,3,1,0,14312,WMM2,1192056,false,false,1567,image-keyboard-response,34
true,13,2,1,2,true,d,false,true,0.0-2.0-0.53-0.478-3.478,0,1,0,68,false,stim,false,1,866.3000000119209,3,0,2,14312,WMM2,1194441,false,false,1570,image-keyboard-response,35
true,13,0,1,0,true,q,false,true,0.0-2.0-0.53-0.479-3.479,0,1,0,81,false,stim,false,0,1088.300000011921,3,1,1,14312,WMM2,1197054,false,false,1573,image-keyboard-response,36
true,13,2,1,2,true,d,false,true,0.0-2.0-0.53-0.480-3.480,0,1,0,68,false,stim,false,1,407.30000001192093,3,0,2,14312,WMM2,1198990,false,false,1576,image-keyboard-response,37
true,13,2,1,2,true,d,false,false,0.0-2.0-0.53-0.481-3.481,0,1,0,68,false,stim,false,0,471.5999999642372,3,1,0,14312,WMM2,1200986,false,true,1579,image-keyboard-response,38
true,13,0,1,0,true,q,false,true,0.0-2.0-0.53-0.482-3.482,0,1,0,81,false,stim,false,0,598.7999999523163,3,1,1,14312,WMM2,1203114,false,false,1582,image-keyboard-response,39
true,13,2,1,2,true,d,false,true,0.0-2.0-0.53-0.483-3.483,0,1,0,68,false,stim,false,1,722.6000000238419,3,0,2,14312,WMM2,1205359,false,false,1585,image-keyboard-response,40
true,14,0,0,2,false,d,true,false,0.0-2.0-0.53-0.484-3.484,1,1,0,81,true,stim,false,2,749.8000000119209,3,1,0,14312,WMM2,1317482,false,false,1697,image-keyboard-response,1
true,14,0,0,0,true,q,false,true,0.0-2.0-0.53-0.485-3.485,1,1,0,81,false,stim,false,0,600.5999999642372,3,1,1,14312,WMM2,1319603,false,false,1700,image-keyboard-response,2
true,14,0,0,0,true,q,false,true,0.0-2.0-0.54-0.486-3.486,1,1,0,81,false,stim,false,0,1360.800000011921,3,1,1,14312,WMM2,1322505,false,false,1703,image-keyboard-response,3
true,14,0,0,0,true,q,false,true,0.0-2.0-0.54-0.487-3.487,1,1,0,81,false,stim,false,0,1124.2999999523163,3,1,1,14312,WMM2,1325145,false,false,1706,image-keyboard-response,4
true,14,1,0,2,false,d,true,false,0.0-2.0-0.54-0.488-3.488,1,1,0,90,false,stim,false,2,1011.1000000238419,3,1,0,14312,WMM2,1327670,false,false,1709,image-keyboard-response,5
true,14,2,0,0,false,q,true,false,0.0-2.0-0.54-0.489-3.489,1,1,0,68,false,stim,false,0,931.6999999880791,3,1,1,14312,WMM2,1330119,false,false,1712,image-keyboard-response,6
true,14,2,0,2,true,d,false,true,0.0-2.0-0.54-0.490-3.490,1,1,0,68,false,stim,false,2,626.3999999761581,3,1,0,14312,WMM2,1332261,false,false,1715,image-keyboard-response,7
true,14,2,0,2,true,d,false,true,0.0-2.0-0.54-0.491-3.491,1,1,0,68,false,stim,false,2,467.80000001192093,3,1,0,14312,WMM2,1334249,false,false,1718,image-keyboard-response,8
true,14,2,0,2,true,d,false,true,0.0-2.0-0.54-0.492-3.492,1,1,0,68,false,stim,false,2,709.0999999642372,3,0,2,14312,WMM2,1336483,false,false,1721,image-keyboard-response,9
true,14,2,0,2,true,d,false,true,0.0-2.0-0.54-0.493-3.493,1,1,0,68,false,stim,false,2,482.89999997615814,3,0,2,14312,WMM2,1338477,false,false,1724,image-keyboard-response,10
true,14,2,0,2,true,d,false,true,0.0-2.0-0.54-0.494-3.494,1,1,0,68,false,stim,false,2,508.10000002384186,3,0,2,14312,WMM2,1340516,false,false,1727,image-keyboard-response,11
true,14,2,0,2,true,d,false,true,0.0-2.0-0.55-0.495-3.495,1,1,0,68,false,stim,false,2,519.5,3,1,0,14312,WMM2,1342568,false,false,1730,image-keyboard-response,12
true,14,1,0,0,false,q,true,true,0.0-2.0-0.55-0.496-3.496,1,1,0,90,false,stim,false,0,2998.7999999523163,3,1,1,14312,WMM2,1347088,false,true,1733,image-keyboard-response,13
true,14,2,0,2,true,d,false,true,0.0-2.0-0.55-0.497-3.497,1,1,0,68,false,stim,false,2,638.2000000476837,3,0,2,14312,WMM2,1349250,false,false,1736,image-keyboard-response,14
true,14,1,0,0,false,q,true,false,0.0-2.0-0.55-0.498-3.498,1,1,0,90,false,stim,false,0,829.5,3,1,1,14312,WMM2,1351608,false,false,1739,image-keyboard-response,15
true,14,1,0,0,false,q,true,false,0.0-2.0-0.55-0.499-3.499,1,1,0,90,false,stim,false,0,896.3000000119209,3,1,1,14312,WMM2,1354032,false,false,1742,image-keyboard-response,16
true,14,2,0,2,true,d,false,true,0.0-2.0-0.55-0.500-3.500,1,1,0,68,false,stim,false,2,698.3000000119209,3,0,2,14312,WMM2,1356253,false,false,1745,image-keyboard-response,17
true,14,2,0,2,true,d,false,false,0.0-2.0-0.55-0.501-3.501,1,1,0,68,false,stim,false,2,699.8999999761581,3,1,0,14312,WMM2,1358484,false,true,1748,image-keyboard-response,18
true,14,2,0,2,true,d,false,true,0.0-2.0-0.55-0.502-3.502,1,1,0,68,false,stim,false,2,536.3000000119209,3,0,2,14312,WMM2,1360541,false,false,1751,image-keyboard-response,19
true,14,1,0,2,false,d,true,false,0.0-2.0-0.55-0.503-3.503,1,1,0,90,false,stim,false,2,1589.7000000476837,3,1,0,14312,WMM2,1363660,false,false,1754,image-keyboard-response,20
true,14,2,0,2,true,d,false,true,0.0-2.0-0.56-0.504-3.504,1,1,0,68,false,stim,false,2,600.8999999761581,3,0,2,14312,WMM2,1365796,false,false,1757,image-keyboard-response,21
true,14,0,0,2,false,d,true,true,0.0-2.0-0.56-0.505-3.505,1,1,0,81,false,stim,false,2,624.0999999642372,3,1,0,14312,WMM2,1367948,false,true,1760,image-keyboard-response,22
true,14,1,0,0,false,q,true,false,0.0-2.0-0.56-0.506-3.506,1,1,0,90,false,stim,false,0,859.5,3,1,1,14312,WMM2,1370338,false,false,1763,image-keyboard-response,23
true,14,2,0,2,true,d,false,true,0.0-2.0-0.56-0.507-3.507,1,1,0,68,false,stim,false,2,565.0999999642372,3,0,2,14312,WMM2,1372429,false,false,1766,image-keyboard-response,24
true,14,0,0,0,true,q,false,false,0.0-2.0-0.56-0.508-3.508,1,1,0,81,false,stim,false,0,2197.100000023842,3,1,1,14312,WMM2,1376149,false,true,1769,image-keyboard-response,25
true,14,0,0,2,false,d,true,false,0.0-2.0-0.56-0.509-3.509,1,1,0,81,false,stim,false,2,1582.0,3,1,0,14312,WMM2,1379247,false,false,1772,image-keyboard-response,26
true,14,1,0,2,false,d,true,false,0.0-2.0-0.56-0.510-3.510,1,1,0,90,false,stim,false,2,637.8999999761581,3,1,0,14312,WMM2,1381409,false,false,1775,image-keyboard-response,27
true,14,1,0,0,false,q,true,false,0.0-2.0-0.56-0.511-3.511,1,1,0,90,false,stim,false,0,1397.8999999761581,3,1,1,14312,WMM2,1384325,false,false,1778,image-keyboard-response,28
true,14,2,0,2,true,d,false,true,0.0-2.0-0.56-0.512-3.512,1,1,0,68,false,stim,false,2,518.6999999880791,3,0,2,14312,WMM2,1386371,false,false,1781,image-keyboard-response,29
true,14,2,0,0,false,q,true,false,0.0-2.0-0.57-0.513-3.513,1,1,0,68,false,stim,false,0,743.3000000119209,3,1,1,14312,WMM2,1388646,false,false,1784,image-keyboard-response,30
true,14,0,0,0,true,q,false,true,0.0-2.0-0.57-0.514-3.514,1,1,0,81,false,stim,false,0,795.1000000238419,3,1,1,14312,WMM2,1390975,false,false,1787,image-keyboard-response,31
true,14,2,0,2,true,d,false,true,0.0-2.0-0.57-0.515-3.515,1,1,0,68,false,stim,false,2,539.0,3,0,2,14312,WMM2,1393030,false,false,1790,image-keyboard-response,32
true,14,2,0,2,true,d,false,true,0.0-2.0-0.57-0.516-3.516,1,1,0,68,false,stim,false,2,441.5,3,0,2,14312,WMM2,1394997,false,false,1793,image-keyboard-response,33
true,14,2,0,2,true,d,false,true,0.0-2.0-0.57-0.517-3.517,1,1,0,68,false,stim,false,2,508.5,3,0,2,14312,WMM2,1397032,false,false,1796,image-keyboard-response,34
true,14,0,0,2,false,d,true,false,0.0-2.0-0.57-0.518-3.518,1,1,0,81,false,stim,false,2,1060.3999999761581,3,1,0,14312,WMM2,1399612,false,false,1799,image-keyboard-response,35
true,14,1,0,2,false,d,true,false,0.0-2.0-0.57-0.519-3.519,1,1,0,90,false,stim,false,2,516.4000000357628,3,1,0,14312,WMM2,1401660,false,false,1802,image-keyboard-response,36
true,14,0,0,2,false,d,true,false,0.0-2.0-0.57-0.520-3.520,1,1,0,81,false,stim,false,2,617.3000000119209,3,1,0,14312,WMM2,1403791,false,false,1805,image-keyboard-response,37
true,14,2,0,0,false,q,true,false,0.0-2.0-0.57-0.521-3.521,1,1,0,68,false,stim,false,0,871.8999999761581,3,1,1,14312,WMM2,1406191,false,false,1808,image-keyboard-response,38
true,14,1,0,2,false,d,true,false,0.0-2.0-0.58-0.522-3.522,1,1,0,90,false,stim,false,2,621.4000000357628,3,1,0,14312,WMM2,1408339,false,false,1811,image-keyboard-response,39
true,14,0,0,2,false,d,true,false,0.0-2.0-0.58-0.523-3.523,1,1,0,81,false,stim,false,2,617.0,3,1,0,14312,WMM2,1410476,false,false,1814,image-keyboard-response,40
true,14,1,0,2,false,d,true,false,0.0-2.0-0.58-0.524-3.524,1,1,0,90,false,stim,false,2,1336.800000011921,3,0,2,14312,WMM2,1413349,false,false,1817,image-keyboard-response,41
true,14,2,0,2,true,d,false,true,0.0-2.0-0.58-0.525-3.525,1,1,0,68,false,stim,false,2,669.8000000119209,3,0,2,14312,WMM2,1415555,false,false,1820,image-keyboard-response,42
true,14,2,0,0,false,q,true,false,0.0-2.0-0.58-0.526-3.526,1,1,0,68,false,stim,false,0,730.8000000119209,3,1,1,14312,WMM2,1417814,false,false,1823,image-keyboard-response,43
true,14,1,0,0,false,q,true,false,0.0-2.0-0.58-0.527-3.527,1,1,0,90,false,stim,false,0,1678.199999988079,3,1,1,14312,WMM2,1421019,false,false,1826,image-keyboard-response,44
true,14,0,0,0,true,q,false,false,0.0-2.0-0.58-0.528-3.528,1,1,0,81,false,stim,false,0,475.5,3,1,1,14312,WMM2,1423030,false,true,1829,image-keyboard-response,45
true,14,2,0,2,true,d,false,true,0.0-2.0-0.58-0.529-3.529,1,1,0,68,false,stim,false,2,1720.7000000476837,3,0,2,14312,WMM2,1426287,false,false,1832,image-keyboard-response,46
true,14,2,0,2,true,d,false,true,0.0-2.0-0.58-0.530-3.530,1,1,0,68,false,stim,false,2,464.39999997615814,3,1,0,14312,WMM2,1428273,false,false,1835,image-keyboard-response,47
true,14,2,0,2,true,d,false,true,0.0-2.0-0.59-0.531-3.531,1,1,0,68,false,stim,false,2,644.6999999880791,3,0,2,14312,WMM2,1430449,false,false,1838,image-keyboard-response,48
true,14,2,0,2,true,d,false,true,0.0-2.0-0.59-0.532-3.532,1,1,0,68,false,stim,false,2,471.19999998807907,3,1,0,14312,WMM2,1432437,false,false,1841,image-keyboard-response,49
true,14,2,0,0,false,q,true,false,0.0-2.0-0.59-0.533-3.533,1,1,0,68,false,stim,false,0,881.1000000238419,3,1,1,14312,WMM2,1434849,false,false,1844,image-keyboard-response,50
true,14,2,0,2,true,d,false,true,0.0-2.0-0.59-0.534-3.534,1,1,0,68,false,stim,false,2,555.3000000119209,3,1,2,14312,WMM2,1436936,false,false,1847,image-keyboard-response,51
true,14,2,0,2,true,d,false,true,0.0-2.0-0.59-0.535-3.535,1,1,0,68,false,stim,false,2,506.5,3,0,0,14312,WMM2,1438976,false,false,1850,image-keyboard-response,52
true,14,2,0,2,true,d,false,true,0.0-2.0-0.59-0.536-3.536,1,1,0,68,false,stim,false,2,669.1999999880791,3,1,2,14312,WMM2,1441167,false,false,1853,image-keyboard-response,53
true,14,2,0,2,true,d,false,true,0.0-2.0-0.59-0.537-3.537,1,1,0,68,false,stim,false,2,383.0,3,0,0,14312,WMM2,1443086,false,false,1856,image-keyboard-response,54
true,14,1,0,0,false,q,true,false,0.0-2.0-0.59-0.538-3.538,1,1,0,90,false,stim,false,0,1066.8999999761581,3,1,1,14312,WMM2,1445673,false,false,1859,image-keyboard-response,55
true,14,0,0,0,true,q,false,true,0.0-2.0-0.59-0.539-3.539,1,1,0,81,false,stim,false,0,536.8000000119209,3,1,1,14312,WMM2,1447745,false,false,1862,image-keyboard-response,56
true,14,2,0,2,true,d,false,true,0.0-2.0-0.60-0.540-3.540,1,1,0,68,false,stim,false,2,1102.7000000476837,3,1,2,14312,WMM2,1450362,false,false,1865,image-keyboard-response,57
true,14,0,0,0,true,q,false,false,0.0-2.0-0.60-0.541-3.541,1,1,0,81,false,stim,false,0,555.3000000119209,3,1,1,14312,WMM2,1452441,false,true,1868,image-keyboard-response,58
true,14,1,0,2,false,d,true,false,0.0-2.0-0.60-0.542-3.542,1,1,0,90,false,stim,false,2,504.0,3,1,2,14312,WMM2,1454463,false,false,1871,image-keyboard-response,59
true,14,2,0,2,true,d,false,true,0.0-2.0-0.60-0.543-3.543,1,1,0,68,false,stim,false,2,609.5,3,1,2,14312,WMM2,1456589,false,false,1874,image-keyboard-response,60
true,15,1,4,0,false,q,true,false,0.0-2.0-0.60-0.544-3.544,0,1,1,90,true,stim,false,0,2011.800000011921,3,1,1,14312,WMM2,1460129,false,false,1877,image-keyboard-response,1
true,15,0,4,2,false,d,true,false,0.0-2.0-0.60-0.545-3.545,0,1,1,81,false,stim,false,2,470.69999998807907,3,0,0,14312,WMM2,1462128,false,false,1880,image-keyboard-response,2
true,15,2,4,2,true,d,false,true,0.0-2.0-0.60-0.546-3.546,0,1,1,68,false,stim,false,2,490.0,3,0,0,14312,WMM2,1464150,false,false,1883,image-keyboard-response,3
true,15,2,4,0,false,q,true,false,0.0-2.0-0.60-0.547-3.547,0,1,1,68,false,stim,false,0,1073.0,3,1,1,14312,WMM2,1466750,false,false,1886,image-keyboard-response,4
true,15,1,4,2,false,d,true,false,0.0-2.0-0.60-0.548-3.548,0,1,1,90,false,stim,false,2,923.0,3,0,0,14312,WMM2,1469189,false,false,1889,image-keyboard-response,5
true,15,0,4,2,false,d,true,true,0.0-2.0-0.61-0.549-3.549,0,1,1,81,false,stim,false,2,449.4000000357628,3,1,2,14312,WMM2,1471155,false,true,1892,image-keyboard-response,6
true,15,0,4,2,false,d,true,false,0.0-2.0-0.61-0.550-3.550,0,1,1,81,false,stim,false,2,537.3000000119209,3,1,2,14312,WMM2,1473218,false,false,1895,image-keyboard-response,7
true,15,2,4,0,false,q,true,true,0.0-2.0-0.61-0.551-3.551,0,1,1,68,false,stim,false,0,517.5,3,1,1,14312,WMM2,1475256,false,true,1898,image-keyboard-response,8
true,15,2,4,2,true,d,false,true,0.0-2.0-0.61-0.552-3.552,0,1,1,68,false,stim,false,2,1243.5,3,0,0,14312,WMM2,1478026,false,false,1901,image-keyboard-response,9
true,15,2,4,2,true,d,false,true,0.0-2.0-0.61-0.553-3.553,0,1,1,68,false,stim,false,2,441.0,3,0,0,14312,WMM2,1479983,false,false,1904,image-keyboard-response,10
true,15,2,4,2,true,d,false,false,0.0-2.0-0.61-0.554-3.554,0,1,1,68,false,stim,false,2,699.1999999880791,3,1,2,14312,WMM2,1482215,false,true,1907,image-keyboard-response,11
true,15,2,4,0,false,q,true,false,0.0-2.0-0.61-0.555-3.555,0,1,1,68,false,stim,false,0,505.0,3,1,1,14312,WMM2,1484241,false,false,1910,image-keyboard-response,12
true,15,1,4,0,false,q,true,false,0.0-2.0-0.61-0.556-3.556,0,1,1,90,false,stim,false,0,796.0,3,1,1,14312,WMM2,1486564,false,false,1913,image-keyboard-response,13
true,15,0,4,2,false,d,true,false,0.0-2.0-0.61-0.557-3.557,0,1,1,81,false,stim,false,2,418.5999999642372,3,0,0,14312,WMM2,1488500,false,false,1916,image-keyboard-response,14
true,15,0,4,0,true,q,false,true,0.0-2.0-0.62-0.558-3.558,0,1,1,81,false,stim,false,0,656.1999999880791,3,1,1,14312,WMM2,1490678,false,false,1919,image-keyboard-response,15
true,15,0,4,2,false,d,true,false,0.0-2.0-0.62-0.559-3.559,0,1,1,81,false,stim,false,2,924.6000000238419,3,0,0,14312,WMM2,1493125,false,false,1922,image-keyboard-response,16
true,15,1,4,2,false,d,true,false,0.0-2.0-0.62-0.560-3.560,0,1,1,90,false,stim,false,2,578.8000000119209,3,0,0,14312,WMM2,1495232,false,false,1925,image-keyboard-response,17
true,15,0,4,2,false,d,true,false,0.0-2.0-0.62-0.561-3.561,0,1,1,81,false,stim,false,2,807.0,3,1,2,14312,WMM2,1497567,false,false,1928,image-keyboard-response,18
true,15,2,4,2,true,d,false,true,0.0-2.0-0.62-0.562-3.562,0,1,1,68,false,stim,false,2,661.8999999761581,3,1,2,14312,WMM2,1499747,false,false,1931,image-keyboard-response,19
true,15,2,4,2,true,d,false,false,0.0-2.0-0.62-0.563-3.563,0,1,1,68,false,stim,false,2,681.6999999880791,3,1,2,14312,WMM2,1501949,false,true,1934,image-keyboard-response,20
true,15,2,4,2,true,d,false,true,0.0-2.0-0.62-0.564-3.564,0,1,1,68,false,stim,false,2,1464.6000000238419,3,0,0,14312,WMM2,1504932,false,false,1937,image-keyboard-response,21
true,15,1,4,0,false,q,true,true,0.0-2.0-0.62-0.565-3.565,0,1,1,90,false,stim,false,0,2901.300000011921,3,1,1,14312,WMM2,1509360,false,true,1940,image-keyboard-response,22
true,15,1,4,0,false,q,true,false,0.0-2.0-0.62-0.566-3.566,0,1,1,90,false,stim,false,0,1189.0,3,1,1,14312,WMM2,1512090,false,false,1943,image-keyboard-response,23
true,15,2,4,2,true,d,false,true,0.0-2.0-0.63-0.567-3.567,0,1,1,68,false,stim,false,2,853.8000000119209,3,0,0,14312,WMM2,1514484,false,false,1946,image-keyboard-response,24
true,15,2,4,2,true,d,false,true,0.0-2.0-0.63-0.568-3.568,0,1,1,68,false,stim,false,2,567.2000000476837,3,1,2,14312,WMM2,1516591,false,false,1949,image-keyboard-response,25
true,15,2,4,2,true,d,false,true,0.0-2.0-0.63-0.569-3.569,0,1,1,68,false,stim,false,2,1108.699999988079,3,0,0,14312,WMM2,1519232,false,false,1952,image-keyboard-response,26
true,15,2,4,0,false,q,true,false,0.0-2.0-0.63-0.570-3.570,0,1,1,68,false,stim,false,0,813.2000000476837,3,1,1,14312,WMM2,1521575,false,false,1955,image-keyboard-response,27
true,15,2,4,0,false,q,true,false,0.0-2.0-0.63-0.571-3.571,0,1,1,68,false,stim,false,0,674.5,3,1,1,14312,WMM2,1523786,false,false,1958,image-keyboard-response,28
true,15,1,4,0,false,q,true,false,0.0-2.0-0.63-0.572-3.572,0,1,1,90,false,stim,false,0,631.0,3,1,1,14312,WMM2,1525944,false,false,1961,image-keyboard-response,29
true,15,1,4,2,false,d,true,false,0.0-2.0-0.63-0.573-3.573,0,1,1,90,false,stim,false,2,693.9000000357628,3,0,0,14312,WMM2,1528160,false,false,1964,image-keyboard-response,30
true,15,2,4,2,true,d,false,true,0.0-2.0-0.63-0.574-3.574,0,1,1,68,false,stim,false,2,618.1000000238419,3,1,2,14312,WMM2,1530297,false,false,1967,image-keyboard-response,31
true,15,2,4,2,true,d,false,true,0.0-2.0-0.63-0.575-3.575,0,1,1,68,false,stim,false,2,1088.6000000238419,3,1,2,14312,WMM2,1532909,false,false,1970,image-keyboard-response,32
true,15,2,4,2,true,d,false,true,0.0-2.0-0.64-0.576-3.576,0,1,1,68,false,stim,false,2,506.69999998807907,3,1,2,14312,WMM2,1534940,false,false,1973,image-keyboard-response,33
true,15,2,4,2,true,d,false,true,0.0-2.0-0.64-0.577-3.577,0,1,1,68,false,stim,false,2,534.3000000119209,3,1,2,14312,WMM2,1537009,false,false,1976,image-keyboard-response,34
true,15,2,4,0,false,q,true,false,0.0-2.0-0.64-0.578-3.578,0,1,1,68,false,stim,false,0,966.6999999880791,3,1,1,14312,WMM2,1539512,false,false,1979,image-keyboard-response,35
true,15,0,4,2,false,d,true,false,0.0-2.0-0.64-0.579-3.579,0,1,1,81,false,stim,false,2,989.3999999761581,3,1,2,14312,WMM2,1542032,false,false,1982,image-keyboard-response,36
true,15,2,4,0,false,q,true,false,0.0-2.0-0.64-0.580-3.580,0,1,1,68,false,stim,false,0,387.80000001192093,3,1,1,14312,WMM2,1543946,false,false,1985,image-keyboard-response,37
true,15,1,4,2,false,d,true,false,0.0-2.0-0.64-0.581-3.581,0,1,1,90,false,stim,false,2,1198.8999999761581,3,0,0,14312,WMM2,1546680,false,false,1988,image-keyboard-response,38
true,15,2,4,0,false,q,true,false,0.0-2.0-0.64-0.582-3.582,0,1,1,68,false,stim,false,0,411.4000000357628,3,1,1,14312,WMM2,1548617,false,false,1991,image-keyboard-response,39
true,15,1,4,2,false,d,true,false,0.0-2.0-0.64-0.583-3.583,0,1,1,90,false,stim,false,2,475.39999997615814,3,0,0,14312,WMM2,1550623,false,false,1994,image-keyboard-response,40
true,15,0,4,2,false,d,true,false,0.0-2.0-0.64-0.584-3.584,0,1,1,81,false,stim,false,2,365.80000001192093,3,0,0,14312,WMM2,1552514,false,false,1997,image-keyboard-response,41
true,15,2,4,0,false,q,true,false,0.0-2.0-0.65-0.585-3.585,0,1,1,68,false,stim,false,0,1144.5,3,1,1,14312,WMM2,1555190,false,false,2000,image-keyboard-response,42
true,15,0,4,2,false,d,true,false,0.0-2.0-0.65-0.586-3.586,0,1,1,81,false,stim,false,2,750.6999999880791,3,0,0,14312,WMM2,1557480,false,false,2003,image-keyboard-response,43
true,15,1,4,2,false,d,true,true,0.0-2.0-0.65-0.587-3.587,0,1,1,90,false,stim,false,2,703.0999999642372,3,1,2,14312,WMM2,1559722,false,true,2006,image-keyboard-response,44
true,15,1,4,2,false,d,true,false,0.0-2.0-0.65-0.588-3.588,0,1,1,90,false,stim,false,2,732.0,3,0,0,14312,WMM2,1561988,false,false,2009,image-keyboard-response,45
false,15,-1,4,0,false,q,true,false,0.0-2.0-0.65-0.589-3.589,0,1,1,,false,stim,false,0,,3,1,1,14312,WMM2,1566524,false,false,2012,image-keyboard-response,46
true,15,0,4,2,false,d,true,false,0.0-2.0-0.65-0.590-3.590,0,1,1,81,false,stim,false,2,1387.9000000357628,3,0,0,14312,WMM2,1569442,false,false,2015,image-keyboard-response,47
true,15,0,4,0,true,q,false,true,0.0-2.0-0.65-0.591-3.591,0,1,1,81,false,stim,false,0,383.19999998807907,3,1,1,14312,WMM2,1571358,false,false,2018,image-keyboard-response,48
true,15,0,4,2,false,d,true,false,0.0-2.0-0.65-0.592-3.592,0,1,1,81,false,stim,false,2,592.7000000476837,3,1,2,14312,WMM2,1573471,false,false,2021,image-keyboard-response,49
true,15,1,4,2,false,d,true,false,0.0-2.0-0.65-0.593-3.593,0,1,1,90,false,stim,false,2,681.3999999761581,3,1,2,14312,WMM2,1575685,false,false,2024,image-keyboard-response,50
true,15,2,4,2,true,d,false,true,0.0-2.0-0.66-0.594-3.594,0,1,1,68,false,stim,false,2,995.6000000238419,3,1,0,14312,WMM2,1578205,false,false,2027,image-keyboard-response,51
