answered,blockNum,choice,condition,corResp,correct,correct_response,explo,fb,internal_node_id,isStable_1,isStable_2,isStable_3,key_press,newBlock,part,persev,persevResp,rt,sessNum,stableAS,stimulus,subject,task,time_elapsed,training,trap,trial_index,trial_type,trialsInBlock
true,1,0,0,1,false,z,true,true,0.0-2.0-0.0-0.0-3.0,0,0,0,81,true,stim,false,-1,1086.699999988079,2,0,0,14312,WMM2,77697,false,true,85,image-keyboard-response,1
true,1,0,0,1,false,z,true,false,0.0-2.0-0.0-0.1-3.1,0,0,0,81,false,stim,false,-1,397.89999997615814,2,0,0,14312,WMM2,79620,false,false,88,image-keyboard-response,2
true,1,1,0,2,false,d,true,false,0.0-2.0-0.0-0.2-3.2,0,0,0,90,false,stim,false,-1,538.5999999940395,2,0,2,14312,WMM2,81708,false,false,91,image-keyboard-response,3
true,1,2,0,2,true,d,false,true,0.0-2.0-0.0-0.3-3.3,0,0,0,68,false,stim,false,-1,1303.199999988079,2,0,2,14312,WMM2,84536,false,false,94,image-keyboard-response,4
true,1,0,0,2,false,d,true,false,0.0-2.0-0.0-0.4-3.4,0,0,0,81,false,stim,false,-1,853.4000000059605,2,0,1,14312,WMM2,86900,false,false,97,image-keyboard-response,5
true,1,1,0,2,false,d,true,false,0.0-2.0-0.0-0.5-3.5,0,0,0,90,false,stim,false,-1,1130.5999999940395,2,0,1,14312,WMM2,89551,false,false,100,image-keyboard-response,6
true,1,2,0,2,true,d,false,false,0.0-2.0-0.0-0.6-3.6,0,0,0,68,false,stim,false,-1,480.59999999403954,2,0,1,14312,WMM2,91550,false,true,103,image-keyboard-response,7
true,1,2,0,2,true,d,false,true,0.0-2.0-0.0-0.7-3.7,0,0,0,68,false,stim,false,-1,795.6999999880791,2,0,2,14312,WMM2,93860,false,false,106,image-keyboard-response,8
true,1,0,0,1,false,z,true,false,0.0-2.0-0.0-0.8-3.8,0,0,0,81,false,stim,false,-1,688.9000000059605,2,0,0,14312,WMM2,96065,false,false,109,image-keyboard-response,9
true,1,2,0,2,true,d,false,true,0.0-2.0-0.1-0.9-3.9,0,0,0,68,false,stim,false,-1,663.2000000178814,2,0,2,14312,WMM2,98251,false,false,112,image-keyboard-response,10
true,1,1,0,1,true,z,false,true,0.0-2.0-0.1-0.10-3.10,0,0,0,90,false,stim,false,-1,1089.5,2,0,0,14312,WMM2,100874,false,false,115,image-keyboard-response,11
true,1,1,0,2,false,d,true,false,0.0-2.0-0.1-0.11-3.11,0,0,0,90,false,stim,false,-1,870.4000000059605,2,0,1,14312,WMM2,103266,false,false,118,image-keyboard-response,12
true,1,2,0,2,true,d,false,true,0.0-2.0-0.1-0.12-3.12,0,0,0,68,false,stim,false,-1,623.1999999880791,2,0,2,14312,WMM2,105400,false,false,121,image-keyboard-response,13
true,1,0,0,2,false,d,true,false,0.0-2.0-0.1-0.13-3.13,0,0,0,81,false,stim,false,-1,1500.5999999940395,2,0,1,14312,WMM2,108436,false,false,124,image-keyboard-response,14
true,1,2,0,2,true,d,false,true,0.0-2.0-0.1-0.14-3.14,0,0,0,68,false,stim,false,-1,790.4000000059605,2,0,2,14312,WMM2,110756,false,false,127,image-keyboard-response,15
true,1,2,0,1,false,z,true,false,0.0-2.0-0.1-0.15-3.15,0,0,0,68,false,stim,false,-1,1408.3999999761581,2,0,0,14312,WMM2,113704,false,false,130,image-keyboard-response,16
true,1,2,0,2,true,d,false,true,0.0-2.0-0.1-0.16-3.16,0,0,0,68,false,stim,false,-1,494.0,2,0,1,14312,WMM2,115728,false,false,133,image-keyboard-response,17
true,1,1,0,1,true,z,false,true,0.0-2.0-0.1-0.17-3.17,0,0,0,90,false,stim,false,-1,1490.800000011921,2,0,0,14312,WMM2,118733,false,false,136,image-keyboard-response,18
true,1,2,0,2,true,d,false,true,0.0-2.0-0.2-0.18-3.18,0,0,0,68,false,stim,false,-1,516.4000000059605,2,0,1,14312,WMM2,120781,false,false,139,image-keyboard-response,19
true,1,2,0,2,true,d,false,true,0.0-2.0-0.2-0.19-3.19,0,0,0,68,false,stim,false,-1,420.09999999403954,2,0,1,14312,WMM2,122727,false,false,142,image-keyboard-response,20
true,1,1,0,1,true,z,false,true,0.0-2.0-0.2-0.20-3.20,0,0,0,90,false,stim,false,-1,644.9000000059605,2,0,0,14312,WMM2,124888,false,false,145,image-keyboard-response,21
true,1,1,0,1,true,z,false,true,0.0-2.0-0.2-0.21-3.21,0,0,0,90,false,stim,false,-1,461.5,2,0,0,14312,WMM2,126869,false,false,148,image-keyboard-response,22
true,1,2,0,2,true,d,false,false,0.0-2.0-0.2-0.22-3.22,0,0,0,68,false,stim,false,-1,448.89999997615814,2,1,2,14312,WMM2,128846,false,true,151,image-keyboard-response,23
true,1,0,0,2,false,d,true,false,0.0-2.0-0.2-0.23-3.23,0,0,0,81,false,stim,false,-1,1222.300000011921,2,1,2,14312,WMM2,131581,false,false,154,image-keyboard-response,24
true,1,2,0,2,true,d,false,true,0.0-2.0-0.2-0.24-3.24,0,0,0,68,false,stim,false,-1,707.9000000059605,2,0,1,14312,WMM2,133807,false,false,157,image-keyboard-response,25
true,1,1,0,2,false,d,true,false,0.0-2.0-0.2-0.25-3.25,0,0,0,90,false,stim,false,-1,500.59999999403954,2,1,2,14312,WMM2,135821,false,false,160,image-keyboard-response,26
false,1,-1,0,1,false,z,false,false,0.0-2.0-0.2-0.26-3.26,0,0,0,,false,stim,true,-1,,2,0,0,14312,WMM2,140369,false,false,163,image-keyboard-response,27
true,1,2,0,2,true,d,false,true,0.0-2.0-0.3-0.27-3.27,0,0,0,68,false,stim,false,-1,728.5,2,1,2,14312,WMM2,142621,false,false,166,image-keyboard-response,28
true,1,1,0,1,true,z,false,true,0.0-2.0-0.3-0.28-3.28,0,0,0,90,false,stim,false,-1,687.2000000178814,2,0,0,14312,WMM2,144823,false,false,169,image-keyboard-response,29
true,1,2,0,2,true,d,false,true,0.0-2.0-0.3-0.29-3.29,0,0,0,68,false,stim,false,-1,725.5,2,0,1,14312,WMM2,147062,false,false,172,image-keyboard-response,30
true,1,2,0,2,true,d,false,true,0.0-2.0-0.3-0.30-3.30,0,0,0,68,false,stim,false,-1,519.6999999880791,2,1,2,14312,WMM2,149094,false,false,175,image-keyboard-response,31
true,2,1,1,0,false,q,false,false,0.0-2.0-0.3-0.31-3.31,0,0,1,90,true,stim,true,1,438.5,2,0,0,14312,WMM2,151052,false,false,178,image-keyboard-response,1
true,2,2,1,0,false,q,false,false,0.0-2.0-0.3-0.32-3.32,0,0,1,68,false,stim,true,2,434.0,2,0,1,14312,WMM2,153014,false,false,181,image-keyboard-response,2
true,2,0,1,0,true,q,false,true,0.0-2.0-0.3-0.33-3.33,0,0,1,81,false,stim,false,1,1044.4000000059605,2,0,0,14312,WMM2,155573,false,false,184,image-keyboard-response,3
true,2,2,1,2,true,d,false,true,0.0-2.0-0.3-0.34-3.34,0,0,1,68,false,stim,false,2,623.7000000178814,2,1,2,14312,WMM2,157711,false,false,187,image-keyboard-response,4
true,2,0,1,0,true,q,false,true,0.0-2.0-0.3-0.35-3.35,0,0,1,81,false,stim,false,2,637.3000000119209,2,0,1,14312,WMM2,159888,false,false,190,image-keyboard-response,5
true,2,2,1,2,true,d,false,true,0.0-2.0-0.4-0.36-3.36,0,0,1,68,false,stim,false,2,565.7999999821186,2,1,2,14312,WMM2,161990,false,false,193,image-keyboard-response,6
true,2,2,1,2,true,d,false,true,0.0-2.0-0.4-0.37-3.37,0,0,1,68,false,stim,false,2,616.0999999940395,2,1,2,14312,WMM2,164121,false,false,196,image-keyboard-response,7
true,2,2,1,2,true,d,false,true,0.0-2.0-0.4-0.38-3.38,0,0,1,68,false,stim,false,2,407.30000001192093,2,1,2,14312,WMM2,166051,false,false,199,image-keyboard-response,8
true,2,0,1,0,true,q,false,true,0.0-2.0-0.4-0.39-3.39,0,0,1,81,false,stim,false,1,668.1999999880791,2,0,0,14312,WMM2,168250,false,false,202,image-keyboard-response,9
true,2,0,1,0,true,q,false,true,0.0-2.0-0.4-0.40-3.40,0,0,1,81,false,stim,false,2,488.40000000596046,2,0,1,14312,WMM2,170270,false,false,205,image-keyboard-response,10
true,2,0,1,0,true,q,false,false,0.0-2.0-0.4-0.41-3.41,0,0,1,81,false,stim,false,2,376.10000002384186,2,0,1,14312,WMM2,172179,false,true,208,image-keyboard-response,11
true,2,2,1,0,false,q,true,false,0.0-2.0-0.4-0.42-3.42,0,0,1,68,false,stim,false,1,579.2000000178814,2,0,0,14312,WMM2,174283,false,false,211,image-keyboard-response,12
true,2,0,1,0,true,q,false,true,0.0-2.0-0.4-0.43-3.43,0,0,1,81,false,stim,false,1,511.80000001192093,2,0,0,14312,WMM2,176308,false,false,214,image-keyboard-response,13
true,2,1,1,0,false,q,true,false,0.0-2.0-0.4-0.44-3.44,0,0,1,90,false,stim,false,2,1238.199999988079,2,0,1,14312,WMM2,179066,false,false,217,image-keyboard-response,14
true,2,0,1,0,true,q,false,true,0.0-2.0-0.5-0.45-3.45,0,0,1,81,false,stim,false,1,584.1000000238419,2,0,0,14312,WMM2,181172,false,false,220,image-keyboard-response,15
true,2,2,1,2,true,d,false,true,0.0-2.0-0.5-0.46-3.46,0,0,1,68,false,stim,false,2,430.80000001192093,2,1,2,14312,WMM2,183124,false,false,223,image-keyboard-response,16
true,2,2,1,2,true,d,false,true,0.0-2.0-0.5-0.47-3.47,0,0,1,68,false,stim,false,2,468.2999999821186,2,1,2,14312,WMM2,185110,false,false,226,image-keyboard-response,17
true,2,0,1,0,true,q,false,true,0.0-2.0-0.5-0.48-3.48,0,0,1,81,false,stim,false,1,576.1999999880791,2,0,0,14312,WMM2,187209,false,false,229,image-keyboard-response,18
true,2,2,1,0,false,q,false,false,0.0-2.0-0.5-0.49-3.49,0,0,1,68,false,stim,true,2,417.2000000178814,2,0,1,14312,WMM2,189138,false,false,232,image-keyboard-response,19
true,2,0,1,0,true,q,false,true,0.0-2.0-0.5-0.50-3.50,0,0,1,81,false,stim,false,1,559.5,2,0,0,14312,WMM2,191219,false,false,235,image-keyboard-response,20
true,2,2,1,2,true,d,false,true,0.0-2.0-0.5-0.51-3.51,0,0,1,68,false,stim,false,2,598.9000000059605,2,1,2,14312,WMM2,193340,false,false,238,image-keyboard-response,21
true,2,1,1,0,false,q,true,false,0.0-2.0-0.5-0.52-3.52,0,0,1,90,false,stim,false,2,922.5,2,0,1,14312,WMM2,195796,false,false,241,image-keyboard-response,22
true,2,0,1,0,true,q,false,true,0.0-2.0-0.5-0.53-3.53,0,0,1,81,false,stim,false,2,549.9000000059605,2,0,1,14312,WMM2,197881,false,false,244,image-keyboard-response,23
true,2,0,1,0,true,q,false,true,0.0-2.0-0.6-0.54-3.54,0,0,1,81,false,stim,false,2,546.6999999880791,2,0,1,14312,WMM2,199940,false,false,247,image-keyboard-response,24
true,2,0,1,0,true,q,false,true,0.0-2.0-0.6-0.55-3.55,0,0,1,81,false,stim,false,1,370.59999999403954,2,1,0,14312,WMM2,201829,false,false,250,image-keyboard-response,25
true,2,0,1,0,true,q,false,true,0.0-2.0-0.6-0.56-3.56,0,0,1,81,false,stim,false,2,476.09999999403954,2,0,1,14312,WMM2,203819,false,false,253,image-keyboard-response,26
true,2,2,1,2,true,d,false,true,0.0-2.0-0.6-0.57-3.57,0,0,1,68,false,stim,false,2,472.69999998807907,2,1,2,14312,WMM2,205805,false,false,256,image-keyboard-response,27
true,2,2,1,2,true,d,false,true,0.0-2.0-0.6-0.58-3.58,0,0,1,68,false,stim,false,2,417.7000000178814,2,1,2,14312,WMM2,207744,false,false,259,image-keyboard-response,28
true,2,0,1,0,true,q,false,false,0.0-2.0-0.6-0.59-3.59,0,0,1,81,false,stim,false,2,600.6999999880791,2,0,1,14312,WMM2,209855,false,true,262,image-keyboard-response,29
true,2,0,1,0,true,q,false,true,0.0-2.0-0.6-0.60-3.60,0,0,1,81,false,stim,false,1,637.0,2,1,0,14312,WMM2,212010,false,false,265,image-keyboard-response,30
true,2,0,1,0,true,q,false,true,0.0-2.0-0.6-0.61-3.61,0,0,1,81,false,stim,false,1,900.8999999761581,2,1,0,14312,WMM2,214422,false,false,268,image-keyboard-response,31
true,2,2,1,2,true,d,false,true,0.0-2.0-0.6-0.62-3.62,0,0,1,68,false,stim,false,2,543.6999999880791,2,1,2,14312,WMM2,216479,false,false,271,image-keyboard-response,32
true,2,2,1,2,true,d,false,true,0.0-2.0-0.7-0.63-3.63,0,0,1,68,false,stim,false,2,429.59999999403954,2,1,2,14312,WMM2,218422,false,false,274,image-keyboard-response,33
true,2,0,1,0,true,q,false,true,0.0-2.0-0.7-0.64-3.64,0,0,1,81,false,stim,false,1,1151.2999999821186,2,1,0,14312,WMM2,221098,false,false,277,image-keyboard-response,34
true,3,1,2,1,true,z,false,true,0.0-2.0-0.7-0.65-3.65,1,0,1,90,true,stim,false,0,476.0,2,0,1,14312,WMM2,223097,false,false,280,image-keyboard-response,1
true,3,2,2,2,true,d,false,true,0.0-2.0-0.7-0.66-3.66,1,0,1,68,false,stim,false,2,492.10000002384186,2,1,2,14312,WMM2,225110,false,false,283,image-keyboard-response,2
true,3,1,2,1,true,z,false,true,0.0-2.0-0.7-0.67-3.67,1,0,1,90,false,stim,false,0,484.09999999403954,2,0,1,14312,WMM2,227118,false,false,286,image-keyboard-response,3
true,3,0,2,0,true,q,false,true,0.0-2.0-0.7-0.68-3.68,1,0,1,81,false,stim,false,0,483.40000000596046,2,1,0,14312,WMM2,229125,false,false,289,image-keyboard-response,4
true,3,0,2,0,true,q,false,true,0.0-2.0-0.7-0.69-3.69,1,0,1,81,false,stim,false,0,484.59999999403954,2,1,0,14312,WMM2,231121,false,false,292,image-keyboard-response,5
true,3,2,2,2,true,d,false,true,0.0-2.0-0.7-0.70-3.70,1,0,1,68,false,stim,false,2,472.60000002384186,2,1,2,14312,WMM2,233115,false,false,295,image-keyboard-response,6
true,3,1,2,1,true,z,false,true,0.0-2.0-0.7-0.71-3.71,1,0,1,90,false,stim,false,0,611.0,2,0,1,14312,WMM2,235243,false,false,298,image-keyboard-response,7
true,3,0,2,0,true,q,false,false,0.0-2.0-0.8-0.72-3.72,1,0,1,81,false,stim,false,0,485.90000000596046,2,1,0,14312,WMM2,237260,false,true,301,image-keyboard-response,8
true,3,1,2,0,false,q,true,false,0.0-2.0-0.8-0.73-3.73,1,0,1,90,false,stim,false,0,937.3999999761581,2,1,0,14312,WMM2,239715,false,false,304,image-keyboard-response,9
true,3,2,2,2,true,d,false,false,0.0-2.0-0.8-0.74-3.74,1,0,1,68,false,stim,false,2,622.9000000059605,2,1,2,14312,WMM2,241857,false,true,307,image-keyboard-response,10
true,3,1,2,1,true,z,false,true,0.0-2.0-0.8-0.75-3.75,1,0,1,90,false,stim,false,0,632.9000000059605,2,0,1,14312,WMM2,244017,false,false,310,image-keyboard-response,11
true,3,2,2,0,false,q,true,false,0.0-2.0-0.8-0.76-3.76,1,0,1,68,false,stim,false,0,421.90000000596046,2,1,0,14312,WMM2,245969,false,false,313,image-keyboard-response,12
true,3,1,2,1,true,z,false,true,0.0-2.0-0.8-0.77-3.77,1,0,1,90,false,stim,false,0,1036.0,2,0,1,14312,WMM2,248539,false,false,316,image-keyboard-response,13
true,3,1,2,1,true,z,false,true,0.0-2.0-0.8-0.78-3.78,1,0,1,90,false,stim,false,0,1168.9000000059605,2,0,1,14312,WMM2,251235,false,false,319,image-keyboard-response,14
true,3,2,2,2,true,d,false,true,0.0-2.0-0.8-0.79-3.79,1,0,1,68,false,stim,false,2,702.3000000119209,2,1,2,14312,WMM2,253450,false,false,322,image-keyboard-response,15
true,3,2,2,2,true,d,false,true,0.0-2.0-0.8-0.80-3.80,1,0,1,68,false,stim,false,2,572.3000000119209,2,1,2,14312,WMM2,255534,false,false,325,image-keyboard-response,16
true,3,2,2,2,true,d,false,true,0.0-2.0-0.9-0.81-3.81,1,0,1,68,false,stim,false,2,565.4000000059605,2,1,2,14312,WMM2,257619,false,false,328,image-keyboard-response,17
true,3,2,2,0,false,q,true,false,0.0-2.0-0.9-0.82-3.82,1,0,1,68,false,stim,false,0,1029.4000000059605,2,1,0,14312,WMM2,260164,false,false,331,image-keyboard-response,18
true,3,2,2,2,true,d,false,true,0.0-2.0-0.9-0.83-3.83,1,0,1,68,false,stim,false,2,633.0,2,1,2,14312,WMM2,262318,false,false,334,image-keyboard-response,19
true,3,1,2,0,false,q,true,false,0.0-2.0-0.9-0.84-3.84,1,0,1,90,false,stim,false,0,1103.699999988079,2,1,0,14312,WMM2,264943,false,false,337,image-keyboard-response,20
true,3,1,2,1,true,z,false,true,0.0-2.0-0.9-0.85-3.85,1,0,1,90,false,stim,false,0,555.4000000059605,2,0,1,14312,WMM2,267023,false,false,340,image-keyboard-response,21
true,3,1,2,1,true,z,false,true,0.0-2.0-0.9-0.86-3.86,1,0,1,90,false,stim,false,0,454.90000000596046,2,0,1,14312,WMM2,268989,false,false,343,image-keyboard-response,22
true,3,2,2,2,true,d,false,true,0.0-2.0-0.9-0.87-3.87,1,0,1,68,false,stim,false,2,514.0,2,1,2,14312,WMM2,271021,false,false,346,image-keyboard-response,23
true,3,0,2,0,true,q,false,true,0.0-2.0-0.9-0.88-3.88,1,0,1,81,false,stim,false,0,1148.4000000059605,2,1,0,14312,WMM2,273693,false,false,349,image-keyboard-response,24
true,3,1,2,1,true,z,false,true,0.0-2.0-0.9-0.89-3.89,1,0,1,90,false,stim,false,0,841.0,2,0,1,14312,WMM2,276061,false,false,352,image-keyboard-response,25
true,3,1,2,1,true,z,false,true,0.0-2.0-0.10-0.90-3.90,1,0,1,90,false,stim,false,0,445.09999999403954,2,0,1,14312,WMM2,278019,false,false,355,image-keyboard-response,26
true,3,2,2,2,true,d,false,true,0.0-2.0-0.10-0.91-3.91,1,0,1,68,false,stim,false,2,460.0,2,1,2,14312,WMM2,280007,false,false,358,image-keyboard-response,27
true,3,0,2,0,true,q,false,true,0.0-2.0-0.10-0.92-3.92,1,0,1,81,false,stim,false,0,468.5,2,1,0,14312,WMM2,281989,false,false,361,image-keyboard-response,28
true,3,0,2,0,true,q,false,true,0.0-2.0-0.10-0.93-3.93,1,0,1,81,false,stim,false,0,451.19999998807907,2,0,0,14312,WMM2,283965,false,false,364,image-keyboard-response,29
true,3,1,2,1,true,z,false,false,0.0-2.0-0.10-0.94-3.94,1,0,1,90,false,stim,false,0,747.0999999940395,2,1,1,14312,WMM2,286233,false,true,367,image-keyboard-response,30
true,3,2,2,2,true,d,false,true,0.0-2.0-0.10-0.95-3.95,1,0,1,68,false,stim,false,2,483.19999998807907,2,1,2,14312,WMM2,288231,false,false,370,image-keyboard-response,31
true,3,0,2,0,true,q,false,false,0.0-2.0-0.10-0.96-3.96,1,0,1,81,false,stim,false,0,639.1999999880791,2,0,0,14312,WMM2,290383,false,true,373,image-keyboard-response,32
true,3,1,2,1,true,z,false,true,0.0-2.0-0.10-0.97-3.97,1,0,1,90,false,stim,false,0,620.8000000119209,2,1,1,14312,WMM2,292516,false,false,376,image-keyboard-response,33
true,3,2,2,2,true,d,false,false,0.0-2.0-0.10-0.98-3.98,1,0,1,68,false,stim,false,2,456.40000000596046,2,1,2,14312,WMM2,294491,false,true,379,image-keyboard-response,34
true,3,1,2,1,true,z,false,true,0.0-2.0-0.11-0.99-3.99,1,0,1,90,false,stim,false,0,514.1999999880791,2,1,1,14312,WMM2,296537,false,false,382,image-keyboard-response,35
true,3,1,2,1,true,z,false,true,0.0-2.0-0.11-0.100-3.100,1,0,1,90,false,stim,false,0,416.7000000178814,2,1,1,14312,WMM2,298489,false,false,385,image-keyboard-response,36
true,3,0,2,2,false,d,true,false,0.0-2.0-0.11-0.101-3.101,1,0,1,81,false,stim,false,2,1355.2000000178814,2,1,2,14312,WMM2,301371,false,false,388,image-keyboard-response,37
true,3,0,2,0,true,q,false,true,0.0-2.0-0.11-0.102-3.102,1,0,1,81,false,stim,false,0,1070.5999999940395,2,0,0,14312,WMM2,303965,false,false,391,image-keyboard-response,38
true,4,0,4,0,true,q,false,true,0.0-2.0-0.11-0.103-3.103,0,1,1,81,true,stim,false,0,476.5,2,0,0,14312,WMM2,305974,false,false,394,image-keyboard-response,1
true,4,2,4,2,true,d,false,true,0.0-2.0-0.11-0.104-3.104,0,1,1,68,false,stim,false,2,1383.199999988079,2,1,2,14312,WMM2,308877,false,false,397,image-keyboard-response,2
true,4,1,4,1,true,z,false,true,0.0-2.0-0.11-0.105-3.105,0,1,1,90,false,stim,false,1,855.9000000059605,2,1,1,14312,WMM2,311258,false,false,400,image-keyboard-response,3
true,4,0,4,0,true,q,false,true,0.0-2.0-0.11-0.106-3.106,0,1,1,81,false,stim,false,0,631.1999999880791,2,0,0,14312,WMM2,313436,false,false,403,image-keyboard-response,4
true,4,2,4,2,true,d,false,true,0.0-2.0-0.11-0.107-3.107,0,1,1,68,false,stim,false,2,642.7999999821186,2,1,2,14312,WMM2,315607,false,false,406,image-keyboard-response,5
true,4,2,4,2,true,d,false,true,0.0-2.0-0.12-0.108-3.108,0,1,1,68,false,stim,false,2,523.1000000238419,2,1,2,14312,WMM2,317651,false,false,409,image-keyboard-response,6
true,4,1,4,1,true,z,false,true,0.0-2.0-0.12-0.109-3.109,0,1,1,90,false,stim,false,1,561.6999999880791,2,1,1,14312,WMM2,319735,false,false,412,image-keyboard-response,7
true,4,0,4,0,true,q,false,true,0.0-2.0-0.12-0.110-3.110,0,1,1,81,false,stim,false,0,440.59999999403954,2,0,0,14312,WMM2,321698,false,false,415,image-keyboard-response,8
true,4,1,4,1,true,z,false,true,0.0-2.0-0.12-0.111-3.111,0,1,1,90,false,stim,false,1,716.5999999940395,2,1,1,14312,WMM2,323929,false,false,418,image-keyboard-response,9
true,4,0,4,0,true,q,false,true,0.0-2.0-0.12-0.112-3.112,0,1,1,81,false,stim,false,0,588.0,2,0,0,14312,WMM2,326035,false,false,421,image-keyboard-response,10
true,4,0,4,0,true,q,false,true,0.0-2.0-0.12-0.113-3.113,0,1,1,81,false,stim,false,0,816.6999999880791,2,0,0,14312,WMM2,328374,false,false,424,image-keyboard-response,11
true,4,2,4,2,true,d,false,false,0.0-2.0-0.12-0.114-3.114,0,1,1,68,false,stim,false,2,552.9000000059605,2,1,2,14312,WMM2,330453,false,true,427,image-keyboard-response,12
true,4,1,4,2,false,d,true,false,0.0-2.0-0.12-0.115-3.115,0,1,1,90,false,stim,false,2,1027.7000000178814,2,1,2,14312,WMM2,333011,false,false,430,image-keyboard-response,13
true,4,1,4,1,true,z,false,true,0.0-2.0-0.12-0.116-3.116,0,1,1,90,false,stim,false,1,781.8999999761581,2,1,1,14312,WMM2,335308,false,false,433,image-keyboard-response,14
true,4,0,4,0,true,q,false,true,0.0-2.0-0.13-0.117-3.117,0,1,1,81,false,stim,false,0,656.0,2,0,0,14312,WMM2,337480,false,false,436,image-keyboard-response,15
true,4,0,4,2,false,d,true,false,0.0-2.0-0.13-0.118-3.118,0,1,1,81,false,stim,false,2,621.8000000119209,2,1,2,14312,WMM2,339621,false,false,439,image-keyboard-response,16
true,4,0,4,0,true,q,false,true,0.0-2.0-0.13-0.119-3.119,0,1,1,81,false,stim,false,0,700.0,2,0,0,14312,WMM2,341833,false,false,442,image-keyboard-response,17
true,4,1,4,1,true,z,false,true,0.0-2.0-0.13-0.120-3.120,0,1,1,90,false,stim,false,1,830.0999999940395,2,1,1,14312,WMM2,344185,false,false,445,image-keyboard-response,18
true,4,0,4,0,true,q,false,true,0.0-2.0-0.13-0.121-3.121,0,1,1,81,false,stim,false,0,594.6999999880791,2,0,0,14312,WMM2,346303,false,false,448,image-keyboard-response,19
true,4,1,4,1,true,z,false,true,0.0-2.0-0.13-0.122-3.122,0,1,1,90,false,stim,false,1,817.1999999880791,2,1,1,14312,WMM2,348642,false,false,451,image-keyboard-response,20
true,4,2,4,2,true,d,false,false,0.0-2.0-0.13-0.123-3.123,0,1,1,68,false,stim,false,2,735.6999999880791,2,1,2,14312,WMM2,350906,false,true,454,image-keyboard-response,21
true,4,1,4,1,true,z,false,true,0.0-2.0-0.13-0.124-3.124,0,1,1,90,false,stim,false,1,573.1000000238419,2,1,1,14312,WMM2,352993,false,false,457,image-keyboard-response,22
true,4,1,4,2,false,d,true,false,0.0-2.0-0.13-0.125-3.125,0,1,1,90,false,stim,false,2,921.5999999940395,2,1,2,14312,WMM2,355438,false,false,460,image-keyboard-response,23
true,4,1,4,1,true,z,false,true,0.0-2.0-0.14-0.126-3.126,0,1,1,90,false,stim,false,1,693.1000000238419,2,1,1,14312,WMM2,357657,false,false,463,image-keyboard-response,24
true,4,0,4,0,true,q,false,false,0.0-2.0-0.14-0.127-3.127,0,1,1,81,false,stim,false,0,530.6999999880791,2,0,0,14312,WMM2,359699,false,true,466,image-keyboard-response,25
true,4,0,4,2,false,d,true,false,0.0-2.0-0.14-0.128-3.128,0,1,1,81,false,stim,false,2,1177.800000011921,2,1,2,14312,WMM2,362402,false,false,469,image-keyboard-response,26
true,4,1,4,2,false,d,true,false,0.0-2.0-0.14-0.129-3.129,0,1,1,90,false,stim,false,2,991.8999999761581,2,1,2,14312,WMM2,364926,false,false,472,image-keyboard-response,27
true,4,2,4,2,true,d,false,true,0.0-2.0-0.14-0.130-3.130,0,1,1,68,false,stim,false,2,571.0,2,1,2,14312,WMM2,367026,false,false,475,image-keyboard-response,28
true,4,1,4,1,true,z,false,true,0.0-2.0-0.14-0.131-3.131,0,1,1,90,false,stim,false,1,429.59999999403954,2,1,1,14312,WMM2,368985,false,false,478,image-keyboard-response,29
true,4,1,4,1,true,z,false,true,0.0-2.0-0.14-0.132-3.132,0,1,1,90,false,stim,false,1,654.1999999880791,2,1,1,14312,WMM2,371154,false,false,481,image-keyboard-response,30
true,4,0,4,0,true,q,false,true,0.0-2.0-0.14-0.133-3.133,0,1,1,81,false,stim,false,0,950.4000000059605,2,0,0,14312,WMM2,373627,false,false,484,image-keyboard-response,31
true,4,0,4,0,true,q,false,true,0.0-2.0-0.14-0.134-3.134,0,1,1,81,false,stim,false,0,442.59999999403954,2,0,0,14312,WMM2,375596,false,false,487,image-keyboard-response,32
true,4,2,4,2,true,d,false,true,0.0-2.0-0.15-0.135-3.135,0,1,1,68,false,stim,false,2,585.1999999880791,2,1,2,14312,WMM2,377711,false,false,490,image-keyboard-response,33
true,4,1,4,1,true,z,false,true,0.0-2.0-0.15-0.136-3.136,0,1,1,90,false,stim,false,1,506.19999998807907,2,1,1,14312,WMM2,379742,false,false,493,image-keyboard-response,34
true,4,1,4,1,true,z,false,true,0.0-2.0-0.15-0.137-3.137,0,1,1,90,false,stim,false,1,543.7000000178814,2,1,1,14312,WMM2,381808,false,false,496,image-keyboard-response,35
true,4,0,4,0,true,q,false,true,0.0-2.0-0.15-0.138-3.138,0,1,1,81,false,stim,false,0,650.6999999880791,2,1,0,14312,WMM2,383980,false,false,499,image-keyboard-response,36
true,4,1,4,1,true,z,false,true,0.0-2.0-0.15-0.139-3.139,0,1,1,90,false,stim,false,1,462.80000001192093,2,1,1,14312,WMM2,385971,false,false,502,image-keyboard-response,37
true,4,0,4,0,true,q,false,false,0.0-2.0-0.15-0.140-3.140,0,1,1,81,false,stim,false,0,550.0999999940395,2,1,0,14312,WMM2,388041,false,true,505,image-keyboard-response,38
true,4,0,4,0,true,q,false,true,0.0-2.0-0.15-0.141-3.141,0,1,1,81,false,stim,false,0,731.4000000059605,2,1,0,14312,WMM2,390293,false,false,508,image-keyboard-response,39
true,4,2,4,2,true,d,false,true,0.0-2.0-0.15-0.142-3.142,0,1,1,68,false,stim,false,2,821.0,2,0,2,14312,WMM2,392630,false,false,511,image-keyboard-response,40
true,4,2,4,2,true,d,false,false,0.0-2.0-0.15-0.143-3.143,0,1,1,68,false,stim,false,2,659.4000000059605,2,0,2,14312,WMM2,394811,false,true,514,image-keyboard-response,41
true,4,1,4,2,false,d,true,false,0.0-2.0-0.16-0.144-3.144,0,1,1,90,false,stim,false,2,1571.300000011921,2,0,2,14312,WMM2,397897,false,false,517,image-keyboard-response,42
true,4,1,4,1,true,z,false,false,0.0-2.0-0.16-0.145-3.145,0,1,1,90,false,stim,false,1,645.5999999940395,2,1,1,14312,WMM2,400066,false,true,520,image-keyboard-response,43
true,5,0,3,0,true,q,false,true,0.0-2.0-0.16-0.146-3.146,1,1,0,81,true,stim,false,0,651.3000000119209,2,1,0,14312,WMM2,402230,false,false,523,image-keyboard-response,1
true,5,1,3,1,true,z,false,true,0.0-2.0-0.16-0.147-3.147,1,1,0,90,false,stim,false,1,974.0,2,1,1,14312,WMM2,404733,false,false,526,image-keyboard-response,2
true,5,2,3,0,false,q,false,false,0.0-2.0-0.16-0.148-3.148,1,1,0,68,false,stim,true,2,568.3000000119209,2,0,2,14312,WMM2,406831,false,false,529,image-keyboard-response,3
true,5,0,3,0,true,q,false,true,0.0-2.0-0.16-0.149-3.149,1,1,0,81,false,stim,false,0,716.6999999880791,2,1,0,14312,WMM2,409071,false,false,532,image-keyboard-response,4
true,5,1,3,1,true,z,false,true,0.0-2.0-0.16-0.150-3.150,1,1,0,90,false,stim,false,1,542.0,2,1,1,14312,WMM2,411143,false,false,535,image-keyboard-response,5
true,5,0,3,0,true,q,false,true,0.0-2.0-0.16-0.151-3.151,1,1,0,81,false,stim,false,0,620.4000000059605,2,1,0,14312,WMM2,413292,false,false,538,image-keyboard-response,6
true,5,2,3,0,false,q,false,false,0.0-2.0-0.16-0.152-3.152,1,1,0,68,false,stim,true,2,1017.3000000119209,2,0,2,14312,WMM2,415825,false,false,541,image-keyboard-response,7
true,5,0,3,0,true,q,false,true,0.0-2.0-0.17-0.153-3.153,1,1,0,81,false,stim,false,0,576.9000000059605,2,1,0,14312,WMM2,417930,false,false,544,image-keyboard-response,8
true,5,1,3,1,true,z,false,false,0.0-2.0-0.17-0.154-3.154,1,1,0,90,false,stim,false,1,574.5,2,1,1,14312,WMM2,420027,false,true,547,image-keyboard-response,9
true,5,0,3,0,true,q,false,true,0.0-2.0-0.17-0.155-3.155,1,1,0,81,false,stim,false,0,524.9000000059605,2,1,0,14312,WMM2,422074,false,false,550,image-keyboard-response,10
true,5,2,3,0,false,q,false,false,0.0-2.0-0.17-0.156-3.156,1,1,0,68,false,stim,true,2,809.5,2,0,2,14312,WMM2,424413,false,false,553,image-keyboard-response,11
true,5,1,3,1,true,z,false,true,0.0-2.0-0.17-0.157-3.157,1,1,0,90,false,stim,false,1,726.2000000178814,2,1,1,14312,WMM2,426653,false,false,556,image-keyboard-response,12
true,5,2,3,0,false,q,false,false,0.0-2.0-0.17-0.158-3.158,1,1,0,68,false,stim,true,2,730.0,2,0,2,14312,WMM2,428905,false,false,559,image-keyboard-response,13
true,5,0,3,0,true,q,false,true,0.0-2.0-0.17-0.159-3.159,1,1,0,81,false,stim,false,0,570.0,2,1,0,14312,WMM2,430998,false,false,562,image-keyboard-response,14
true,5,2,3,0,false,q,false,false,0.0-2.0-0.17-0.160-3.160,1,1,0,68,false,stim,true,2,376.59999999403954,2,0,2,14312,WMM2,432901,false,false,565,image-keyboard-response,15
true,5,2,3,1,false,z,true,false,0.0-2.0-0.17-0.161-3.161,1,1,0,68,false,stim,false,1,909.1000000238419,2,1,1,14312,WMM2,435346,false,false,568,image-keyboard-response,16
true,5,0,3,0,true,q,false,true,0.0-2.0-0.18-0.162-3.162,1,1,0,81,false,stim,false,0,599.0999999940395,2,1,0,14312,WMM2,437477,false,false,571,image-keyboard-response,17
true,5,0,3,0,true,q,false,true,0.0-2.0-0.18-0.163-3.163,1,1,0,81,false,stim,false,0,519.5999999940395,2,1,0,14312,WMM2,439509,false,false,574,image-keyboard-response,18
true,5,0,3,0,true,q,false,true,0.0-2.0-0.18-0.164-3.164,1,1,0,81,false,stim,false,0,441.5,2,1,0,14312,WMM2,441470,false,false,577,image-keyboard-response,19
true,5,0,3,0,true,q,false,true,0.0-2.0-0.18-0.165-3.165,1,1,0,81,false,stim,false,2,434.09999999403954,2,0,2,14312,WMM2,443427,false,false,580,image-keyboard-response,20
true,5,0,3,0,true,q,false,true,0.0-2.0-0.18-0.166-3.166,1,1,0,81,false,stim,false,2,405.2000000178814,2,0,2,14312,WMM2,445348,false,false,583,image-keyboard-response,21
true,5,0,3,1,false,z,true,true,0.0-2.0-0.18-0.167-3.167,1,1,0,81,false,stim,false,1,483.5,2,1,1,14312,WMM2,447366,false,true,586,image-keyboard-response,22
true,5,0,3,1,false,z,true,false,0.0-2.0-0.18-0.168-3.168,1,1,0,81,false,stim,false,1,301.80000001192093,2,1,1,14312,WMM2,449191,false,false,589,image-keyboard-response,23
true,5,0,3,0,true,q,false,true,0.0-2.0-0.18-0.169-3.169,1,1,0,81,false,stim,false,2,478.0,2,0,2,14312,WMM2,451197,false,false,592,image-keyboard-response,24
true,5,1,3,1,true,z,false,true,0.0-2.0-0.18-0.170-3.170,1,1,0,90,false,stim,false,1,992.8000000119209,2,1,1,14312,WMM2,453712,false,false,595,image-keyboard-response,25
true,5,1,3,1,true,z,false,true,0.0-2.0-0.19-0.171-3.171,1,1,0,90,false,stim,false,1,459.80000001192093,2,1,1,14312,WMM2,455694,false,false,598,image-keyboard-response,26
true,5,0,3,0,true,q,false,true,0.0-2.0-0.19-0.172-3.172,1,1,0,81,false,stim,false,2,816.5,2,0,2,14312,WMM2,458037,false,false,601,image-keyboard-response,27
true,5,0,3,0,true,q,false,true,0.0-2.0-0.19-0.173-3.173,1,1,0,81,false,stim,false,0,455.59999999403954,2,1,0,14312,WMM2,460008,false,false,604,image-keyboard-response,28
true,5,1,3,1,true,z,false,true,0.0-2.0-0.19-0.174-3.174,1,1,0,90,false,stim,false,1,560.1999999880791,2,1,1,14312,WMM2,462085,false,false,607,image-keyboard-response,29
true,5,0,3,0,true,q,false,true,0.0-2.0-0.19-0.175-3.175,1,1,0,81,false,stim,false,2,432.69999998807907,2,0,2,14312,WMM2,464042,false,false,610,image-keyboard-response,30
true,5,0,3,0,true,q,false,true,0.0-2.0-0.19-0.176-3.176,1,1,0,81,false,stim,false,0,473.19999998807907,2,1,0,14312,WMM2,466043,false,false,613,image-keyboard-response,31
true,5,0,3,1,false,z,true,false,0.0-2.0-0.19-0.177-3.177,1,1,0,81,false,stim,false,1,1010.9000000059605,2,1,1,14312,WMM2,468580,false,false,616,image-keyboard-response,32
true,5,0,3,0,true,q,false,true,0.0-2.0-0.19-0.178-3.178,1,1,0,81,false,stim,false,0,404.69999998807907,2,1,0,14312,WMM2,470521,false,false,619,image-keyboard-response,33
true,5,0,3,0,true,q,false,true,0.0-2.0-0.19-0.179-3.179,1,1,0,81,false,stim,false,2,661.0999999940395,2,0,2,14312,WMM2,472709,false,false,622,image-keyboard-response,34
true,5,0,3,0,true,q,false,true,0.0-2.0-0.20-0.180-3.180,1,1,0,81,false,stim,false,0,499.80000001192093,2,1,0,14312,WMM2,474728,false,false,625,image-keyboard-response,35
true,5,0,3,0,true,q,false,true,0.0-2.0-0.20-0.181-3.181,1,1,0,81,false,stim,false,0,324.0,2,1,0,14312,WMM2,476576,false,false,628,image-keyboard-response,36
true,5,0,3,0,true,q,false,true,0.0-2.0-0.20-0.182-3.182,1,1,0,81,false,stim,false,2,358.40000000596046,2,0,2,14312,WMM2,478469,false,false,631,image-keyboard-response,37
true,6,0,2,1,false,z,false,false,0.0-2.0-0.20-0.183-3.183,1,1,0,81,true,stim,true,0,371.0,2,0,2,14312,WMM2,480354,false,false,634,image-keyboard-response,1
true,6,0,2,1,false,z,true,false,0.0-2.0-0.20-0.184-3.184,1,1,0,81,false,stim,false,1,911.5999999940395,2,1,1,14312,WMM2,482777,false,false,637,image-keyboard-response,2
true,6,0,2,1,false,z,false,false,0.0-2.0-0.20-0.185-3.185,1,1,0,81,false,stim,true,0,583.6999999880791,2,0,2,14312,WMM2,484873,false,false,640,image-keyboard-response,3
true,6,0,2,0,true,q,false,true,0.0-2.0-0.20-0.186-3.186,1,1,0,81,false,stim,false,0,507.0,2,1,0,14312,WMM2,486894,false,false,643,image-keyboard-response,4
true,6,1,2,1,true,z,false,true,0.0-2.0-0.20-0.187-3.187,1,1,0,90,false,stim,false,1,826.8000000119209,2,1,1,14312,WMM2,489255,false,false,646,image-keyboard-response,5
true,6,1,2,1,true,z,false,true,0.0-2.0-0.20-0.188-3.188,1,1,0,90,false,stim,false,1,456.59999999403954,2,1,1,14312,WMM2,491236,false,false,649,image-keyboard-response,6
true,6,0,2,0,true,q,false,true,0.0-2.0-0.21-0.189-3.189,1,1,0,81,false,stim,false,0,710.4000000059605,2,1,0,14312,WMM2,493471,false,false,652,image-keyboard-response,7
true,6,1,2,1,true,z,false,true,0.0-2.0-0.21-0.190-3.190,1,1,0,90,false,stim,false,0,426.09999999403954,2,0,2,14312,WMM2,495420,false,false,655,image-keyboard-response,8
true,6,1,2,1,true,z,false,true,0.0-2.0-0.21-0.191-3.191,1,1,0,90,false,stim,false,0,445.39999997615814,2,0,2,14312,WMM2,497380,false,false,658,image-keyboard-response,9
true,6,1,2,1,true,z,false,true,0.0-2.0-0.21-0.192-3.192,1,1,0,90,false,stim,false,1,480.5,2,1,1,14312,WMM2,499384,false,false,661,image-keyboard-response,10
true,6,0,2,0,true,q,false,true,0.0-2.0-0.21-0.193-3.193,1,1,0,81,false,stim,false,0,564.8000000119209,2,1,0,14312,WMM2,501483,false,false,664,image-keyboard-response,11
true,6,0,2,0,true,q,false,true,0.0-2.0-0.21-0.194-3.194,1,1,0,81,false,stim,false,0,527.5,2,1,0,14312,WMM2,503544,false,false,667,image-keyboard-response,12
true,6,1,2,1,true,z,false,true,0.0-2.0-0.21-0.195-3.195,1,1,0,90,false,stim,false,1,1197.5,2,1,1,14312,WMM2,506256,false,false,670,image-keyboard-response,13
true,6,1,2,1,true,z,false,true,0.0-2.0-0.21-0.196-3.196,1,1,0,90,false,stim,false,1,399.5,2,1,1,14312,WMM2,508180,false,false,673,image-keyboard-response,14
true,6,1,2,1,true,z,false,true,0.0-2.0-0.21-0.197-3.197,1,1,0,90,false,stim,false,0,735.0999999940395,2,0,2,14312,WMM2,510446,false,false,676,image-keyboard-response,15
true,6,0,2,0,true,q,false,true,0.0-2.0-0.22-0.198-3.198,1,1,0,81,false,stim,false,0,512.0999999940395,2,1,0,14312,WMM2,512478,false,false,679,image-keyboard-response,16
true,6,0,2,0,true,q,false,true,0.0-2.0-0.22-0.199-3.199,1,1,0,81,false,stim,false,0,481.59999999403954,2,1,0,14312,WMM2,514473,false,false,682,image-keyboard-response,17
true,6,1,2,1,true,z,false,true,0.0-2.0-0.22-0.200-3.200,1,1,0,90,false,stim,false,1,525.4000000059605,2,1,1,14312,WMM2,516516,false,false,685,image-keyboard-response,18
true,6,1,2,1,true,z,false,true,0.0-2.0-0.22-0.201-3.201,1,1,0,90,false,stim,false,1,230.5,2,1,1,14312,WMM2,518274,false,false,688,image-keyboard-response,19
true,6,1,2,1,true,z,false,true,0.0-2.0-0.22-0.202-3.202,1,1,0,90,false,stim,false,0,295.5,2,0,2,14312,WMM2,520081,false,false,691,image-keyboard-response,20
true,6,1,2,1,true,z,false,true,0.0-2.0-0.22-0.203-3.203,1,1,0,90,false,stim,false,0,340.2999999821186,2,0,2,14312,WMM2,521956,false,false,694,image-keyboard-response,21
true,6,1,2,1,true,z,false,true,0.0-2.0-0.22-0.204-3.204,1,1,0,90,false,stim,false,1,676.4000000059605,2,1,1,14312,WMM2,524158,false,false,697,image-keyboard-response,22
true,6,1,2,1,true,z,false,true,0.0-2.0-0.22-0.205-3.205,1,1,0,90,false,stim,false,0,419.90000000596046,2,0,2,14312,WMM2,526102,false,false,700,image-keyboard-response,23
true,6,0,2,0,true,q,false,true,0.0-2.0-0.22-0.206-3.206,1,1,0,81,false,stim,false,0,463.40000000596046,2,0,0,14312,WMM2,528106,false,false,703,image-keyboard-response,24
true,6,1,2,1,true,z,false,false,0.0-2.0-0.23-0.207-3.207,1,1,0,90,false,stim,false,0,465.19999998807907,2,0,2,14312,WMM2,530089,false,true,706,image-keyboard-response,25
true,6,1,2,1,true,z,false,true,0.0-2.0-0.23-0.208-3.208,1,1,0,90,false,stim,false,1,393.7000000178814,2,1,1,14312,WMM2,532009,false,false,709,image-keyboard-response,26
true,6,2,2,1,false,z,true,false,0.0-2.0-0.23-0.209-3.209,1,1,0,68,false,stim,false,0,2083.5,2,0,2,14312,WMM2,535613,false,false,712,image-keyboard-response,27
true,6,0,2,0,true,q,false,true,0.0-2.0-0.23-0.210-3.210,1,1,0,81,false,stim,false,0,620.5,2,0,0,14312,WMM2,537750,false,false,715,image-keyboard-response,28
true,6,1,2,1,true,z,false,true,0.0-2.0-0.23-0.211-3.211,1,1,0,90,false,stim,false,0,610.4000000059605,2,0,2,14312,WMM2,539883,false,false,718,image-keyboard-response,29
true,6,1,2,1,true,z,false,true,0.0-2.0-0.23-0.212-3.212,1,1,0,90,false,stim,false,1,1258.4000000059605,2,1,1,14312,WMM2,542654,false,false,721,image-keyboard-response,30
true,7,0,1,1,false,z,false,false,0.0-2.0-0.23-0.213-3.213,0,1,0,81,true,stim,true,0,584.5,2,0,0,14312,WMM2,544769,false,false,724,image-keyboard-response,1
true,7,1,1,1,true,z,false,true,0.0-2.0-0.23-0.214-3.214,0,1,0,90,false,stim,false,0,1215.9000000059605,2,0,0,14312,WMM2,547505,false,false,727,image-keyboard-response,2
true,7,1,1,1,true,z,false,true,0.0-2.0-0.23-0.215-3.215,0,1,0,90,false,stim,false,1,500.39999997615814,2,1,1,14312,WMM2,549532,false,false,730,image-keyboard-response,3
true,7,1,1,1,true,z,false,true,0.0-2.0-0.24-0.216-3.216,0,1,0,90,false,stim,false,1,326.30000001192093,2,1,1,14312,WMM2,551387,false,false,733,image-keyboard-response,4
true,7,0,1,1,false,z,false,false,0.0-2.0-0.24-0.217-3.217,0,1,0,81,false,stim,true,0,689.1999999880791,2,0,0,14312,WMM2,553600,false,false,736,image-keyboard-response,5
true,7,1,1,0,false,q,false,false,0.0-2.0-0.24-0.218-3.218,0,1,0,90,false,stim,true,1,446.7999999821186,2,0,2,14312,WMM2,555561,false,false,739,image-keyboard-response,6
true,7,2,1,0,false,q,true,false,0.0-2.0-0.24-0.219-3.219,0,1,0,68,false,stim,false,1,1581.199999988079,2,0,2,14312,WMM2,558672,false,false,742,image-keyboard-response,7
true,7,1,1,1,true,z,false,true,0.0-2.0-0.24-0.220-3.220,0,1,0,90,false,stim,false,1,415.30000001192093,2,1,1,14312,WMM2,560608,false,false,745,image-keyboard-response,8
true,7,1,1,1,true,z,false,true,0.0-2.0-0.24-0.221-3.221,0,1,0,90,false,stim,false,0,351.59999999403954,2,0,0,14312,WMM2,562476,false,false,748,image-keyboard-response,9
true,7,1,1,0,false,q,false,false,0.0-2.0-0.24-0.222-3.222,0,1,0,90,false,stim,true,1,506.19999998807907,2,0,2,14312,WMM2,564504,false,false,751,image-keyboard-response,10
true,7,1,1,1,true,z,false,true,0.0-2.0-0.24-0.223-3.223,0,1,0,90,false,stim,false,1,1137.7000000178814,2,1,1,14312,WMM2,567157,false,false,754,image-keyboard-response,11
true,7,1,1,1,true,z,false,true,0.0-2.0-0.24-0.224-3.224,0,1,0,90,false,stim,false,0,920.0,2,0,0,14312,WMM2,569605,false,false,757,image-keyboard-response,12
true,7,1,1,0,false,q,false,false,0.0-2.0-0.25-0.225-3.225,0,1,0,90,false,stim,true,1,953.4000000059605,2,0,2,14312,WMM2,572086,false,false,760,image-keyboard-response,13
true,7,0,1,0,true,q,false,true,0.0-2.0-0.25-0.226-3.226,0,1,0,81,false,stim,false,1,926.1999999880791,2,0,2,14312,WMM2,574539,false,false,763,image-keyboard-response,14
true,7,1,1,1,true,z,false,true,0.0-2.0-0.25-0.227-3.227,0,1,0,90,false,stim,false,1,597.6999999880791,2,1,1,14312,WMM2,576659,false,false,766,image-keyboard-response,15
true,7,1,1,1,true,z,false,false,0.0-2.0-0.25-0.228-3.228,0,1,0,90,false,stim,false,0,1056.8999999761581,2,0,0,14312,WMM2,579234,false,true,769,image-keyboard-response,16
true,7,1,1,1,true,z,false,true,0.0-2.0-0.25-0.229-3.229,0,1,0,90,false,stim,false,1,745.3999999761581,2,1,1,14312,WMM2,581501,false,false,772,image-keyboard-response,17
true,7,0,1,0,true,q,false,true,0.0-2.0-0.25-0.230-3.230,0,1,0,81,false,stim,false,1,497.89999997615814,2,0,2,14312,WMM2,583519,false,false,775,image-keyboard-response,18
true,7,1,1,1,true,z,false,true,0.0-2.0-0.25-0.231-3.231,0,1,0,90,false,stim,false,1,573.1000000238419,2,1,1,14312,WMM2,585610,false,false,778,image-keyboard-response,19
true,7,0,1,1,false,z,false,false,0.0-2.0-0.25-0.232-3.232,0,1,0,81,false,stim,true,0,547.5999999940395,2,0,0,14312,WMM2,587676,false,false,781,image-keyboard-response,20
true,7,2,1,1,false,z,true,false,0.0-2.0-0.25-0.233-3.233,0,1,0,68,false,stim,false,0,1532.199999988079,2,0,0,14312,WMM2,590732,false,false,784,image-keyboard-response,21
true,7,1,1,1,true,z,false,false,0.0-2.0-0.26-0.234-3.234,0,1,0,90,false,stim,false,0,634.5999999940395,2,0,0,14312,WMM2,592891,false,true,787,image-keyboard-response,22
true,7,1,1,1,true,z,false,false,0.0-2.0-0.26-0.235-3.235,0,1,0,90,false,stim,false,1,579.0999999940395,2,1,1,14312,WMM2,594998,false,true,790,image-keyboard-response,23
true,7,0,1,1,false,z,true,false,0.0-2.0-0.26-0.236-3.236,0,1,0,81,false,stim,false,1,520.0999999940395,2,1,1,14312,WMM2,597030,false,false,793,image-keyboard-response,24
true,7,0,1,1,false,z,false,false,0.0-2.0-0.26-0.237-3.237,0,1,0,81,false,stim,true,0,420.40000000596046,2,0,0,14312,WMM2,598976,false,false,796,image-keyboard-response,25
true,7,0,1,0,true,q,false,true,0.0-2.0-0.26-0.238-3.238,0,1,0,81,false,stim,false,1,431.80000001192093,2,0,2,14312,WMM2,600937,false,false,799,image-keyboard-response,26
true,7,0,1,0,true,q,false,true,0.0-2.0-0.26-0.239-3.239,0,1,0,81,false,stim,false,1,810.3000000119209,2,0,2,14312,WMM2,603283,false,false,802,image-keyboard-response,27
true,7,1,1,1,true,z,false,true,0.0-2.0-0.26-0.240-3.240,0,1,0,90,false,stim,false,1,576.0999999940395,2,1,1,14312,WMM2,605375,false,false,805,image-keyboard-response,28
true,7,1,1,1,true,z,false,true,0.0-2.0-0.26-0.241-3.241,0,1,0,90,false,stim,false,0,921.0999999940395,2,0,0,14312,WMM2,607828,false,false,808,image-keyboard-response,29
true,7,0,1,0,true,q,false,true,0.0-2.0-0.26-0.242-3.242,0,1,0,81,false,stim,false,1,1121.699999988079,2,0,2,14312,WMM2,610485,false,false,811,image-keyboard-response,30
true,7,1,1,1,true,z,false,true,0.0-2.0-0.27-0.243-3.243,0,1,0,90,false,stim,false,0,366.7000000178814,2,0,0,14312,WMM2,612375,false,false,814,image-keyboard-response,31
true,7,0,1,0,true,q,false,false,0.0-2.0-0.27-0.244-3.244,0,1,0,81,false,stim,false,1,634.6999999880791,2,0,2,14312,WMM2,614536,false,true,817,image-keyboard-response,32
true,7,2,1,0,false,q,true,false,0.0-2.0-0.27-0.245-3.245,0,1,0,68,false,stim,false,1,1413.1000000238419,2,0,2,14312,WMM2,617493,false,false,820,image-keyboard-response,33
true,7,0,1,1,false,z,false,false,0.0-2.0-0.27-0.246-3.246,0,1,0,81,false,stim,true,0,676.4000000059605,2,0,0,14312,WMM2,619696,false,false,823,image-keyboard-response,34
true,7,1,1,1,true,z,false,true,0.0-2.0-0.27-0.247-3.247,0,1,0,90,false,stim,false,0,489.7999999821186,2,0,0,14312,WMM2,621706,false,false,826,image-keyboard-response,35
true,7,1,1,1,true,z,false,true,0.0-2.0-0.27-0.248-3.248,0,1,0,90,false,stim,false,1,592.7000000178814,2,1,1,14312,WMM2,623824,false,false,829,image-keyboard-response,36
true,7,1,1,0,false,q,false,false,0.0-2.0-0.27-0.249-3.249,0,1,0,90,false,stim,true,1,1420.5,2,0,2,14312,WMM2,626769,false,false,832,image-keyboard-response,37
true,7,1,1,1,true,z,false,true,0.0-2.0-0.27-0.250-3.250,0,1,0,90,false,stim,false,1,641.4000000059605,2,1,1,14312,WMM2,628934,false,false,835,image-keyboard-response,38
true,7,1,1,1,true,z,false,true,0.0-2.0-0.27-0.251-3.251,0,1,0,90,false,stim,false,1,470.5,2,1,1,14312,WMM2,630930,false,false,838,image-keyboard-response,39
true,7,1,1,1,true,z,false,true,0.0-2.0-0.28-0.252-3.252,0,1,0,90,false,stim,false,1,452.09999999403954,2,1,1,14312,WMM2,632910,false,false,841,image-keyboard-response,40
true,7,1,1,1,true,z,false,true,0.0-2.0-0.28-0.253-3.253,0,1,0,90,false,stim,false,0,389.19999998807907,2,0,0,14312,WMM2,634811,false,false,844,image-keyboard-response,41
true,7,0,1,0,true,q,false,true,0.0-2.0-0.28-0.254-3.254,0,1,0,81,false,stim,false,1,710.9000000059605,2,0,2,14312,WMM2,637055,false,false,847,image-keyboard-response,42
true,7,1,1,1,true,z,false,true,0.0-2.0-0.28-0.255-3.255,0,1,0,90,false,stim,false,0,350.19999998807907,2,0,0,14312,WMM2,638918,false,false,850,image-keyboard-response,43
true,7,1,1,1,true,z,false,true,0.0-2.0-0.28-0.256-3.256,0,1,0,90,false,stim,false,1,773.0999999940395,2,1,1,14312,WMM2,641221,false,false,853,image-keyboard-response,44
true,7,0,1,0,true,q,false,true,0.0-2.0-0.28-0.257-3.257,0,1,0,81,false,stim,false,1,483.40000000596046,2,0,2,14312,WMM2,643232,false,false,856,image-keyboard-response,45
true,7,1,1,1,true,z,false,true,0.0-2.0-0.28-0.258-3.258,0,1,0,90,false,stim,false,0,352.2999999821186,2,1,0,14312,WMM2,645113,false,false,859,image-keyboard-response,46
true,7,1,1,1,true,z,false,true,0.0-2.0-0.28-0.259-3.259,0,1,0,90,false,stim,false,1,437.40000000596046,2,0,1,14312,WMM2,647078,false,false,862,image-keyboard-response,47
true,7,1,1,0,false,q,false,false,0.0-2.0-0.28-0.260-3.260,0,1,0,90,false,stim,true,1,886.4000000059605,2,1,2,14312,WMM2,649479,false,false,865,image-keyboard-response,48
true,7,1,1,1,true,z,false,true,0.0-2.0-0.29-0.261-3.261,0,1,0,90,false,stim,false,1,490.19999998807907,2,0,1,14312,WMM2,651493,false,false,868,image-keyboard-response,49
true,7,1,1,1,true,z,false,true,0.0-2.0-0.29-0.262-3.262,0,1,0,90,false,stim,false,0,913.1999999880791,2,1,0,14312,WMM2,653916,false,false,871,image-keyboard-response,50
true,7,0,1,0,true,q,false,true,0.0-2.0-0.29-0.263-3.263,0,1,0,81,false,stim,false,1,427.90000000596046,2,1,2,14312,WMM2,655874,false,false,874,image-keyboard-response,51
true,7,1,1,1,true,z,false,true,0.0-2.0-0.29-0.264-3.264,0,1,0,90,false,stim,false,1,497.2000000178814,2,0,1,14312,WMM2,657888,false,false,877,image-keyboard-response,52
true,7,1,1,1,true,z,false,true,0.0-2.0-0.29-0.265-3.265,0,1,0,90,false,stim,false,0,775.3000000119209,2,1,0,14312,WMM2,660186,false,false,880,image-keyboard-response,53
true,7,1,1,1,true,z,false,false,0.0-2.0-0.29-0.266-3.266,0,1,0,90,false,stim,false,0,469.59999999403954,2,1,0,14312,WMM2,662188,false,true,883,image-keyboard-response,54
true,7,1,1,1,true,z,false,true,0.0-2.0-0.29-0.267-3.267,0,1,0,90,false,stim,false,1,678.4000000059605,2,0,1,14312,WMM2,664396,false,false,886,image-keyboard-response,55
true,8,0,3,0,true,q,false,true,0.0-2.0-0.29-0.268-3.268,1,0,1,81,true,stim,false,0,460.0,2,1,2,14312,WMM2,666378,false,false,889,image-keyboard-response,1
true,8,0,3,0,true,q,false,true,0.0-2.0-0.29-0.269-3.269,1,0,1,81,false,stim,false,0,493.2999999821186,2,1,2,14312,WMM2,668400,false,false,892,image-keyboard-response,2
true,8,0,3,0,true,q,false,false,0.0-2.0-0.30-0.270-3.270,1,0,1,81,false,stim,false,0,384.5,2,1,2,14312,WMM2,670319,false,true,895,image-keyboard-response,3
true,8,1,3,0,false,q,false,false,0.0-2.0-0.30-0.271-3.271,1,0,1,90,false,stim,true,1,513.0,2,0,1,14312,WMM2,672365,false,false,898,image-keyboard-response,4
true,8,2,3,0,false,q,true,false,0.0-2.0-0.30-0.272-3.272,1,0,1,68,false,stim,false,1,1540.0,2,0,1,14312,WMM2,675445,false,false,901,image-keyboard-response,5
true,8,2,3,1,false,z,true,false,0.0-2.0-0.30-0.273-3.273,1,0,1,68,false,stim,false,1,390.0,2,1,0,14312,WMM2,677352,false,false,904,image-keyboard-response,6
true,8,0,3,1,false,z,true,true,0.0-2.0-0.30-0.274-3.274,1,0,1,81,false,stim,false,1,922.5,2,1,0,14312,WMM2,679800,false,true,907,image-keyboard-response,7
true,8,1,3,0,false,q,true,false,0.0-2.0-0.30-0.275-3.275,1,0,1,90,false,stim,false,0,1053.300000011921,2,1,2,14312,WMM2,682380,false,false,910,image-keyboard-response,8
true,8,0,3,0,true,q,false,false,0.0-2.0-0.30-0.276-3.276,1,0,1,81,false,stim,false,0,963.5999999940395,2,1,2,14312,WMM2,684865,false,true,913,image-keyboard-response,9
true,8,1,3,0,false,q,false,false,0.0-2.0-0.30-0.277-3.277,1,0,1,90,false,stim,true,1,836.5999999940395,2,0,1,14312,WMM2,687234,false,false,916,image-keyboard-response,10
true,8,2,3,1,false,z,true,false,0.0-2.0-0.30-0.278-3.278,1,0,1,68,false,stim,false,1,1162.6000000238419,2,1,0,14312,WMM2,689932,false,false,919,image-keyboard-response,11
true,8,0,3,0,true,q,false,true,0.0-2.0-0.31-0.279-3.279,1,0,1,81,false,stim,false,1,463.89999997615814,2,0,1,14312,WMM2,691931,false,false,922,image-keyboard-response,12
true,8,0,3,1,false,z,true,false,0.0-2.0-0.31-0.280-3.280,1,0,1,81,false,stim,false,1,485.5,2,1,0,14312,WMM2,693940,false,false,925,image-keyboard-response,13
true,8,1,3,0,false,q,true,false,0.0-2.0-0.31-0.281-3.281,1,0,1,90,false,stim,false,0,730.4000000059605,2,1,2,14312,WMM2,696200,false,false,928,image-keyboard-response,14
true,8,2,3,0,false,q,true,false,0.0-2.0-0.31-0.282-3.282,1,0,1,68,false,stim,false,1,710.0999999940395,2,0,1,14312,WMM2,698436,false,false,931,image-keyboard-response,15
true,8,1,3,0,false,q,true,false,0.0-2.0-0.31-0.283-3.283,1,0,1,90,false,stim,false,0,630.0999999940395,2,1,2,14312,WMM2,700587,false,false,934,image-keyboard-response,16
true,8,0,3,0,true,q,false,true,0.0-2.0-0.31-0.284-3.284,1,0,1,81,false,stim,false,0,533.7999999821186,2,1,2,14312,WMM2,702659,false,false,937,image-keyboard-response,17
true,8,0,3,0,true,q,false,false,0.0-2.0-0.31-0.285-3.285,1,0,1,81,false,stim,false,1,666.5,2,0,1,14312,WMM2,704847,false,true,940,image-keyboard-response,18
true,8,0,3,1,false,z,true,true,0.0-2.0-0.31-0.286-3.286,1,0,1,81,false,stim,false,1,496.30000001192093,2,1,0,14312,WMM2,706863,false,true,943,image-keyboard-response,19
true,8,0,3,1,false,z,true,false,0.0-2.0-0.31-0.287-3.287,1,0,1,81,false,stim,false,1,438.90000000596046,2,1,0,14312,WMM2,708822,false,false,946,image-keyboard-response,20
true,8,2,3,0,false,q,true,false,0.0-2.0-0.32-0.288-3.288,1,0,1,68,false,stim,false,1,1245.0999999940395,2,0,1,14312,WMM2,711593,false,false,949,image-keyboard-response,21
true,8,0,3,0,true,q,false,true,0.0-2.0-0.32-0.289-3.289,1,0,1,81,false,stim,false,0,717.5,2,1,2,14312,WMM2,713846,false,false,952,image-keyboard-response,22
true,8,1,3,1,true,z,false,true,0.0-2.0-0.32-0.290-3.290,1,0,1,90,false,stim,false,1,829.0,2,1,0,14312,WMM2,716217,false,false,955,image-keyboard-response,23
true,8,0,3,0,true,q,false,true,0.0-2.0-0.32-0.291-3.291,1,0,1,81,false,stim,false,0,598.5999999940395,2,1,2,14312,WMM2,718348,false,false,958,image-keyboard-response,24
true,8,1,3,1,true,z,false,true,0.0-2.0-0.32-0.292-3.292,1,0,1,90,false,stim,false,1,378.5,2,1,0,14312,WMM2,720245,false,false,961,image-keyboard-response,25
true,8,1,3,0,false,q,false,false,0.0-2.0-0.32-0.293-3.293,1,0,1,90,false,stim,true,1,449.2999999821186,2,0,1,14312,WMM2,722207,false,false,964,image-keyboard-response,26
true,8,1,3,1,true,z,false,true,0.0-2.0-0.32-0.294-3.294,1,0,1,90,false,stim,false,1,647.5,2,1,0,14312,WMM2,724377,false,false,967,image-keyboard-response,27
true,8,0,3,0,true,q,false,true,0.0-2.0-0.32-0.295-3.295,1,0,1,81,false,stim,false,0,444.7000000178814,2,1,2,14312,WMM2,726341,false,false,970,image-keyboard-response,28
true,8,0,3,0,true,q,false,true,0.0-2.0-0.32-0.296-3.296,1,0,1,81,false,stim,false,1,429.39999997615814,2,0,1,14312,WMM2,728304,false,false,973,image-keyboard-response,29
true,8,0,3,0,true,q,false,true,0.0-2.0-0.33-0.297-3.297,1,0,1,81,false,stim,false,1,386.80000001192093,2,0,1,14312,WMM2,730221,false,false,976,image-keyboard-response,30
true,8,0,3,0,true,q,false,false,0.0-2.0-0.33-0.298-3.298,1,0,1,81,false,stim,false,1,315.7999999821186,2,1,1,14312,WMM2,732069,false,true,979,image-keyboard-response,31
true,8,0,3,0,true,q,false,true,0.0-2.0-0.33-0.299-3.299,1,0,1,81,false,stim,false,0,483.59999999403954,2,0,2,14312,WMM2,734081,false,false,982,image-keyboard-response,32
true,8,1,3,1,true,z,false,false,0.0-2.0-0.33-0.300-3.300,1,0,1,90,false,stim,false,1,686.9000000059605,2,1,0,14312,WMM2,736283,false,true,985,image-keyboard-response,33
true,8,0,3,0,true,q,false,true,0.0-2.0-0.33-0.301-3.301,1,0,1,81,false,stim,false,0,844.6999999880791,2,0,2,14312,WMM2,738646,false,false,988,image-keyboard-response,34
true,8,1,3,1,true,z,false,true,0.0-2.0-0.33-0.302-3.302,1,0,1,90,false,stim,false,1,1584.300000011921,2,1,0,14312,WMM2,741759,false,false,991,image-keyboard-response,35
true,8,2,3,0,false,q,true,false,0.0-2.0-0.33-0.303-3.303,1,0,1,68,false,stim,false,1,814.3999999761581,2,1,1,14312,WMM2,744094,false,false,994,image-keyboard-response,36
true,8,1,3,1,true,z,false,false,0.0-2.0-0.33-0.304-3.304,1,0,1,90,false,stim,false,1,744.5,2,1,0,14312,WMM2,746366,false,true,997,image-keyboard-response,37
true,8,0,3,0,true,q,false,true,0.0-2.0-0.33-0.305-3.305,1,0,1,81,false,stim,false,0,506.5,2,0,2,14312,WMM2,748389,false,false,1000,image-keyboard-response,38
true,8,0,3,0,true,q,false,true,0.0-2.0-0.34-0.306-3.306,1,0,1,81,false,stim,false,1,723.9000000059605,2,1,1,14312,WMM2,750642,false,false,1003,image-keyboard-response,39
true,8,0,3,0,true,q,false,true,0.0-2.0-0.34-0.307-3.307,1,0,1,81,false,stim,false,0,649.6999999880791,2,0,2,14312,WMM2,752804,false,false,1006,image-keyboard-response,40
true,9,0,3,0,true,q,false,true,0.0-2.0-0.34-0.308-3.308,1,1,0,81,true,stim,false,0,578.4000000059605,2,1,1,14312,WMM2,754909,false,false,1009,image-keyboard-response,1
true,9,0,3,1,false,z,false,false,0.0-2.0-0.34-0.309-3.309,1,1,0,81,false,stim,true,0,725.5,2,0,2,14312,WMM2,757156,false,false,1012,image-keyboard-response,2
true,9,0,3,0,true,q,false,false,0.0-2.0-0.34-0.310-3.310,1,1,0,81,false,stim,false,0,479.40000000596046,2,1,1,14312,WMM2,759159,false,true,1015,image-keyboard-response,3
true,9,0,3,1,false,z,false,false,0.0-2.0-0.34-0.311-3.311,1,1,0,81,false,stim,true,0,1000.0,2,0,2,14312,WMM2,761679,false,false,1018,image-keyboard-response,4
true,9,1,3,1,true,z,false,true,0.0-2.0-0.34-0.312-3.312,1,1,0,90,false,stim,false,1,937.1999999880791,2,1,0,14312,WMM2,764132,false,false,1021,image-keyboard-response,5
true,9,1,3,1,true,z,false,true,0.0-2.0-0.34-0.313-3.313,1,1,0,90,false,stim,false,1,419.2999999821186,2,1,0,14312,WMM2,766075,false,false,1024,image-keyboard-response,6
true,9,1,3,1,true,z,false,true,0.0-2.0-0.34-0.314-3.314,1,1,0,90,false,stim,false,1,422.09999999403954,2,1,0,14312,WMM2,768036,false,false,1027,image-keyboard-response,7
true,9,1,3,1,true,z,false,true,0.0-2.0-0.35-0.315-3.315,1,1,0,90,false,stim,false,0,395.39999997615814,2,0,2,14312,WMM2,769967,false,false,1030,image-keyboard-response,8
true,9,1,3,1,true,z,false,false,0.0-2.0-0.35-0.316-3.316,1,1,0,90,false,stim,false,1,485.90000000596046,2,1,0,14312,WMM2,771987,false,true,1033,image-keyboard-response,9
true,9,1,3,1,true,z,false,false,0.0-2.0-0.35-0.317-3.317,1,1,0,90,false,stim,false,1,493.0,2,1,0,14312,WMM2,774008,false,true,1036,image-keyboard-response,10
true,9,0,3,0,true,q,false,true,0.0-2.0-0.35-0.318-3.318,1,1,0,81,false,stim,false,0,376.5,2,1,1,14312,WMM2,775907,false,false,1039,image-keyboard-response,11
true,9,0,3,1,false,z,true,false,0.0-2.0-0.35-0.319-3.319,1,1,0,81,false,stim,false,1,1015.6999999880791,2,1,0,14312,WMM2,778444,false,false,1042,image-keyboard-response,12
true,9,0,3,0,true,q,false,false,0.0-2.0-0.35-0.320-3.320,1,1,0,81,false,stim,false,0,704.4000000059605,2,1,1,14312,WMM2,780663,false,true,1045,image-keyboard-response,13
true,9,1,3,0,false,q,true,false,0.0-2.0-0.35-0.321-3.321,1,1,0,90,false,stim,false,0,661.5999999940395,2,1,1,14312,WMM2,782854,false,false,1048,image-keyboard-response,14
true,9,1,3,1,true,z,false,true,0.0-2.0-0.35-0.322-3.322,1,1,0,90,false,stim,false,0,712.6999999880791,2,0,2,14312,WMM2,785080,false,false,1051,image-keyboard-response,15
true,9,1,3,1,true,z,false,true,0.0-2.0-0.35-0.323-3.323,1,1,0,90,false,stim,false,0,484.09999999403954,2,0,2,14312,WMM2,787086,false,false,1054,image-keyboard-response,16
true,9,1,3,1,true,z,false,true,0.0-2.0-0.36-0.324-3.324,1,1,0,90,false,stim,false,1,833.0,2,1,0,14312,WMM2,789450,false,false,1057,image-keyboard-response,17
true,9,1,3,1,true,z,false,false,0.0-2.0-0.36-0.325-3.325,1,1,0,90,false,stim,false,1,373.59999999403954,2,1,0,14312,WMM2,791352,false,true,1060,image-keyboard-response,18
true,9,2,3,0,false,q,true,false,0.0-2.0-0.36-0.326-3.326,1,1,0,68,false,stim,false,0,606.0999999940395,2,1,1,14312,WMM2,793485,false,false,1063,image-keyboard-response,19
true,9,1,3,0,false,q,true,false,0.0-2.0-0.36-0.327-3.327,1,1,0,90,false,stim,false,0,381.69999998807907,2,1,1,14312,WMM2,795385,false,false,1066,image-keyboard-response,20
true,9,1,3,1,true,z,false,true,0.0-2.0-0.36-0.328-3.328,1,1,0,90,false,stim,false,0,610.4000000059605,2,0,2,14312,WMM2,797520,false,false,1069,image-keyboard-response,21
true,9,1,3,1,true,z,false,true,0.0-2.0-0.36-0.329-3.329,1,1,0,90,false,stim,false,0,575.3000000119209,2,0,2,14312,WMM2,799625,false,false,1072,image-keyboard-response,22
true,9,0,3,1,false,z,true,true,0.0-2.0-0.36-0.330-3.330,1,1,0,81,false,stim,false,1,613.9000000059605,2,1,0,14312,WMM2,801761,false,true,1075,image-keyboard-response,23
true,9,1,3,1,true,z,false,true,0.0-2.0-0.36-0.331-3.331,1,1,0,90,false,stim,false,0,706.5,2,0,2,14312,WMM2,803992,false,false,1078,image-keyboard-response,24
true,9,0,3,0,true,q,false,true,0.0-2.0-0.36-0.332-3.332,1,1,0,81,false,stim,false,0,617.5,2,1,1,14312,WMM2,806135,false,false,1081,image-keyboard-response,25
true,9,1,3,1,true,z,false,true,0.0-2.0-0.37-0.333-3.333,1,1,0,90,false,stim,false,0,529.3000000119209,2,0,2,14312,WMM2,808188,false,false,1084,image-keyboard-response,26
true,9,1,3,1,true,z,false,true,0.0-2.0-0.37-0.334-3.334,1,1,0,90,false,stim,false,0,393.7000000178814,2,0,2,14312,WMM2,810105,false,false,1087,image-keyboard-response,27
true,9,0,3,1,false,z,true,false,0.0-2.0-0.37-0.335-3.335,1,1,0,81,false,stim,false,1,563.7999999821186,2,1,0,14312,WMM2,812192,false,false,1090,image-keyboard-response,28
true,9,1,3,1,true,z,false,true,0.0-2.0-0.37-0.336-3.336,1,1,0,90,false,stim,false,0,495.09999999403954,2,0,2,14312,WMM2,814222,false,false,1093,image-keyboard-response,29
true,9,1,3,1,true,z,false,true,0.0-2.0-0.37-0.337-3.337,1,1,0,90,false,stim,false,1,1023.7999999821186,2,1,0,14312,WMM2,816763,false,false,1096,image-keyboard-response,30
true,9,0,3,0,true,q,false,true,0.0-2.0-0.37-0.338-3.338,1,1,0,81,false,stim,false,0,916.3000000119209,2,1,1,14312,WMM2,819204,false,false,1099,image-keyboard-response,31
true,9,0,3,0,true,q,false,true,0.0-2.0-0.37-0.339-3.339,1,1,0,81,false,stim,false,0,419.90000000596046,2,1,1,14312,WMM2,821154,false,false,1102,image-keyboard-response,32
true,9,0,3,0,true,q,false,true,0.0-2.0-0.37-0.340-3.340,1,1,0,81,false,stim,false,0,449.80000001192093,2,1,1,14312,WMM2,823127,false,false,1105,image-keyboard-response,33
true,9,1,3,1,true,z,false,true,0.0-2.0-0.37-0.341-3.341,1,1,0,90,false,stim,false,1,540.8999999761581,2,1,0,14312,WMM2,825205,false,false,1108,image-keyboard-response,34
true,9,0,3,0,true,q,false,true,0.0-2.0-0.38-0.342-3.342,1,1,0,81,false,stim,false,0,635.3000000119209,2,0,1,14312,WMM2,827364,false,false,1111,image-keyboard-response,35
true,9,1,3,1,true,z,false,true,0.0-2.0-0.38-0.343-3.343,1,1,0,90,false,stim,false,1,320.2000000178814,2,1,0,14312,WMM2,829207,false,false,1114,image-keyboard-response,36
true,9,1,3,1,true,z,false,true,0.0-2.0-0.38-0.344-3.344,1,1,0,90,false,stim,false,0,432.09999999403954,2,1,2,14312,WMM2,831156,false,false,1117,image-keyboard-response,37
true,9,1,3,1,true,z,false,false,0.0-2.0-0.38-0.345-3.345,1,1,0,90,false,stim,false,1,988.0,2,1,0,14312,WMM2,833662,false,true,1120,image-keyboard-response,38
true,9,0,3,0,true,q,false,true,0.0-2.0-0.38-0.346-3.346,1,1,0,81,false,stim,false,0,667.7000000178814,2,0,1,14312,WMM2,835855,false,false,1123,image-keyboard-response,39
true,9,2,3,1,false,z,true,false,0.0-2.0-0.38-0.347-3.347,1,1,0,68,false,stim,false,1,1201.9000000059605,2,1,0,14312,WMM2,838569,false,false,1126,image-keyboard-response,40
true,9,1,3,1,true,z,false,true,0.0-2.0-0.38-0.348-3.348,1,1,0,90,false,stim,false,0,520.0,2,1,2,14312,WMM2,840601,false,false,1129,image-keyboard-response,41
true,9,1,3,1,true,z,false,false,0.0-2.0-0.38-0.349-3.349,1,1,0,90,false,stim,false,0,410.2999999821186,2,1,2,14312,WMM2,842522,false,true,1132,image-keyboard-response,42
true,9,0,3,0,true,q,false,true,0.0-2.0-0.38-0.350-3.350,1,1,0,81,false,stim,false,0,448.90000000596046,2,0,1,14312,WMM2,844480,false,false,1135,image-keyboard-response,43
true,9,0,3,1,false,z,false,false,0.0-2.0-0.39-0.351-3.351,1,1,0,81,false,stim,true,0,474.5,2,1,2,14312,WMM2,846476,false,false,1138,image-keyboard-response,44
true,10,0,4,0,true,q,false,true,0.0-2.0-0.39-0.352-3.352,1,0,1,81,true,stim,false,0,810.5999999940395,2,0,1,14312,WMM2,848800,false,false,1141,image-keyboard-response,1
true,10,0,4,0,true,q,false,true,0.0-2.0-0.39-0.353-3.353,1,0,1,81,false,stim,false,0,684.5999999940395,2,0,1,14312,WMM2,851029,false,false,1144,image-keyboard-response,2
true,10,1,4,1,true,z,false,true,0.0-2.0-0.39-0.354-3.354,1,0,1,90,false,stim,false,1,916.8000000119209,2,1,2,14312,WMM2,853478,false,false,1147,image-keyboard-response,3
true,10,1,4,1,true,z,false,true,0.0-2.0-0.39-0.355-3.355,1,0,1,90,false,stim,false,1,692.3000000119209,2,1,0,14312,WMM2,855692,false,false,1150,image-keyboard-response,4
true,10,1,4,1,true,z,false,true,0.0-2.0-0.39-0.356-3.356,1,0,1,90,false,stim,false,1,413.90000000596046,2,1,0,14312,WMM2,857623,false,false,1153,image-keyboard-response,5
true,10,0,4,0,true,q,false,false,0.0-2.0-0.39-0.357-3.357,1,0,1,81,false,stim,false,0,660.9000000059605,2,0,1,14312,WMM2,859806,false,true,1156,image-keyboard-response,6
true,10,1,4,1,true,z,false,true,0.0-2.0-0.39-0.358-3.358,1,0,1,90,false,stim,false,1,538.2000000178814,2,1,0,14312,WMM2,861876,false,false,1159,image-keyboard-response,7
true,10,1,4,1,true,z,false,false,0.0-2.0-0.39-0.359-3.359,1,0,1,90,false,stim,false,1,383.59999999403954,2,1,2,14312,WMM2,863791,false,true,1162,image-keyboard-response,8
true,10,2,4,1,false,z,true,false,0.0-2.0-0.40-0.360-3.360,1,0,1,68,false,stim,false,1,764.4000000059605,2,1,2,14312,WMM2,866087,false,false,1165,image-keyboard-response,9
true,10,0,4,0,true,q,false,true,0.0-2.0-0.40-0.361-3.361,1,0,1,81,false,stim,false,0,1350.800000011921,2,0,1,14312,WMM2,868956,false,false,1168,image-keyboard-response,10
true,10,1,4,1,true,z,false,false,0.0-2.0-0.40-0.362-3.362,1,0,1,90,false,stim,false,1,405.30000001192093,2,1,2,14312,WMM2,870872,false,true,1171,image-keyboard-response,11
true,10,1,4,1,true,z,false,true,0.0-2.0-0.40-0.363-3.363,1,0,1,90,false,stim,false,1,487.2999999821186,2,1,2,14312,WMM2,872881,false,false,1174,image-keyboard-response,12
true,10,1,4,1,true,z,false,true,0.0-2.0-0.40-0.364-3.364,1,0,1,90,false,stim,false,1,586.5999999940395,2,1,0,14312,WMM2,874994,false,false,1177,image-keyboard-response,13
true,10,0,4,0,true,q,false,true,0.0-2.0-0.40-0.365-3.365,1,0,1,81,false,stim,false,0,589.5,2,0,1,14312,WMM2,877105,false,false,1180,image-keyboard-response,14
true,10,1,4,1,true,z,false,false,0.0-2.0-0.40-0.366-3.366,1,0,1,90,false,stim,false,1,729.3999999761581,2,1,0,14312,WMM2,879366,false,true,1183,image-keyboard-response,15
true,10,1,4,1,true,z,false,true,0.0-2.0-0.40-0.367-3.367,1,0,1,90,false,stim,false,1,383.0,2,1,0,14312,WMM2,881273,false,false,1186,image-keyboard-response,16
true,10,1,4,0,false,q,true,false,0.0-2.0-0.40-0.368-3.368,1,0,1,90,false,stim,false,0,989.6999999880791,2,0,1,14312,WMM2,883789,false,false,1189,image-keyboard-response,17
true,10,1,4,1,true,z,false,true,0.0-2.0-0.41-0.369-3.369,1,0,1,90,false,stim,false,1,643.1999999880791,2,1,0,14312,WMM2,885956,false,false,1192,image-keyboard-response,18
true,10,1,4,0,false,q,true,false,0.0-2.0-0.41-0.370-3.370,1,0,1,90,false,stim,false,0,831.1999999880791,2,0,1,14312,WMM2,888298,false,false,1195,image-keyboard-response,19
true,10,1,4,1,true,z,false,true,0.0-2.0-0.41-0.371-3.371,1,0,1,90,false,stim,false,1,510.60000002384186,2,1,0,14312,WMM2,890343,false,false,1198,image-keyboard-response,20
true,10,1,4,1,true,z,false,true,0.0-2.0-0.41-0.372-3.372,1,0,1,90,false,stim,false,1,710.7000000178814,2,1,2,14312,WMM2,892582,false,false,1201,image-keyboard-response,21
true,10,0,4,0,true,q,false,true,0.0-2.0-0.41-0.373-3.373,1,0,1,81,false,stim,false,0,559.4000000059605,2,0,1,14312,WMM2,894665,false,false,1204,image-keyboard-response,22
true,10,0,4,0,true,q,false,true,0.0-2.0-0.41-0.374-3.374,1,0,1,81,false,stim,false,0,556.8000000119209,2,0,1,14312,WMM2,896752,false,false,1207,image-keyboard-response,23
true,10,1,4,1,true,z,false,true,0.0-2.0-0.41-0.375-3.375,1,0,1,90,false,stim,false,1,502.5,2,1,2,14312,WMM2,898773,false,false,1210,image-keyboard-response,24
true,10,1,4,1,true,z,false,true,0.0-2.0-0.41-0.376-3.376,1,0,1,90,false,stim,false,1,565.5999999940395,2,0,0,14312,WMM2,900872,false,false,1213,image-keyboard-response,25
true,10,1,4,1,true,z,false,true,0.0-2.0-0.41-0.377-3.377,1,0,1,90,false,stim,false,1,1062.0,2,1,2,14312,WMM2,903461,false,false,1216,image-keyboard-response,26
true,10,1,4,1,true,z,false,true,0.0-2.0-0.42-0.378-3.378,1,0,1,90,false,stim,false,1,507.40000000596046,2,1,2,14312,WMM2,905492,false,false,1219,image-keyboard-response,27
true,10,1,4,1,true,z,false,true,0.0-2.0-0.42-0.379-3.379,1,0,1,90,false,stim,false,1,489.09999999403954,2,1,2,14312,WMM2,907508,false,false,1222,image-keyboard-response,28
true,10,0,4,0,true,q,false,true,0.0-2.0-0.42-0.380-3.380,1,0,1,81,false,stim,false,0,588.0,2,1,1,14312,WMM2,909621,false,false,1225,image-keyboard-response,29
true,10,1,4,1,true,z,false,true,0.0-2.0-0.42-0.381-3.381,1,0,1,90,false,stim,false,1,477.19999998807907,2,1,2,14312,WMM2,911616,false,false,1228,image-keyboard-response,30
true,10,0,4,0,true,q,false,true,0.0-2.0-0.42-0.382-3.382,1,0,1,81,false,stim,false,0,668.0,2,1,1,14312,WMM2,913812,false,false,1231,image-keyboard-response,31
true,10,0,4,0,true,q,false,true,0.0-2.0-0.42-0.383-3.383,1,0,1,81,false,stim,false,0,879.5,2,1,1,14312,WMM2,916214,false,false,1234,image-keyboard-response,32
true,10,1,4,1,true,z,false,true,0.0-2.0-0.42-0.384-3.384,1,0,1,90,false,stim,false,1,499.90000000596046,2,0,0,14312,WMM2,918247,false,false,1237,image-keyboard-response,33
true,11,1,2,0,false,q,false,false,0.0-2.0-0.42-0.385-3.385,0,1,1,90,true,stim,true,1,361.5,2,0,0,14312,WMM2,920131,false,false,1240,image-keyboard-response,1
true,11,0,2,0,true,q,false,true,0.0-2.0-0.42-0.386-3.386,0,1,1,81,false,stim,false,1,937.9000000059605,2,0,0,14312,WMM2,922598,false,false,1243,image-keyboard-response,2
true,11,1,2,1,true,z,false,true,0.0-2.0-0.43-0.387-3.387,0,1,1,90,false,stim,false,1,548.5,2,1,2,14312,WMM2,924674,false,false,1246,image-keyboard-response,3
true,11,0,2,0,true,q,false,false,0.0-2.0-0.43-0.388-3.388,0,1,1,81,false,stim,false,0,764.0999999940395,2,1,1,14312,WMM2,926963,false,true,1249,image-keyboard-response,4
true,11,1,2,0,false,q,false,false,0.0-2.0-0.43-0.389-3.389,0,1,1,90,false,stim,true,1,874.9000000059605,2,0,0,14312,WMM2,929363,false,false,1252,image-keyboard-response,5
true,11,0,2,0,true,q,false,true,0.0-2.0-0.43-0.390-3.390,0,1,1,81,false,stim,false,1,365.80000001192093,2,0,0,14312,WMM2,931246,false,false,1255,image-keyboard-response,6
true,11,1,2,0,false,q,true,true,0.0-2.0-0.43-0.391-3.391,0,1,1,90,false,stim,false,0,1243.2999999821186,2,1,1,14312,WMM2,934010,false,true,1258,image-keyboard-response,7
true,11,1,2,1,true,z,false,true,0.0-2.0-0.43-0.392-3.392,0,1,1,90,false,stim,false,1,488.7000000178814,2,1,2,14312,WMM2,936021,false,false,1261,image-keyboard-response,8
true,11,1,2,1,true,z,false,true,0.0-2.0-0.43-0.393-3.393,0,1,1,90,false,stim,false,1,537.3000000119209,2,1,2,14312,WMM2,938090,false,false,1264,image-keyboard-response,9
true,11,0,2,0,true,q,false,true,0.0-2.0-0.43-0.394-3.394,0,1,1,81,false,stim,false,0,774.5999999940395,2,1,1,14312,WMM2,940378,false,false,1267,image-keyboard-response,10
true,11,1,2,0,false,q,false,false,0.0-2.0-0.43-0.395-3.395,0,1,1,90,false,stim,true,1,714.9000000059605,2,0,0,14312,WMM2,942614,false,false,1270,image-keyboard-response,11
true,11,1,2,1,true,z,false,true,0.0-2.0-0.44-0.396-3.396,0,1,1,90,false,stim,false,1,441.7999999821186,2,1,2,14312,WMM2,944573,false,false,1273,image-keyboard-response,12
true,11,1,2,1,true,z,false,true,0.0-2.0-0.44-0.397-3.397,0,1,1,90,false,stim,false,1,448.7999999821186,2,1,2,14312,WMM2,946543,false,false,1276,image-keyboard-response,13
true,11,0,2,0,true,q,false,true,0.0-2.0-0.44-0.398-3.398,0,1,1,81,false,stim,false,0,658.0,2,1,1,14312,WMM2,948720,false,false,1279,image-keyboard-response,14
true,11,0,2,0,true,q,false,true,0.0-2.0-0.44-0.399-3.399,0,1,1,81,false,stim,false,0,514.8999999761581,2,1,1,14312,WMM2,950748,false,false,1282,image-keyboard-response,15
true,11,1,2,1,true,z,false,true,0.0-2.0-0.44-0.400-3.400,0,1,1,90,false,stim,false,1,593.2999999821186,2,1,2,14312,WMM2,952865,false,false,1285,image-keyboard-response,16
true,11,0,2,0,true,q,false,true,0.0-2.0-0.44-0.401-3.401,0,1,1,81,false,stim,false,0,632.1999999880791,2,1,1,14312,WMM2,955018,false,false,1288,image-keyboard-response,17
true,11,1,2,0,false,q,false,true,0.0-2.0-0.44-0.402-3.402,0,1,1,90,false,stim,true,1,847.0,2,0,0,14312,WMM2,957381,false,true,1291,image-keyboard-response,18
true,11,1,2,0,false,q,false,false,0.0-2.0-0.44-0.403-3.403,0,1,1,90,false,stim,true,1,384.2999999821186,2,0,0,14312,WMM2,959301,false,false,1294,image-keyboard-response,19
true,11,0,2,0,true,q,false,true,0.0-2.0-0.44-0.404-3.404,0,1,1,81,false,stim,false,1,943.0,2,0,0,14312,WMM2,961774,false,false,1297,image-keyboard-response,20
true,11,0,2,0,true,q,false,true,0.0-2.0-0.45-0.405-3.405,0,1,1,81,false,stim,false,0,649.8000000119209,2,1,1,14312,WMM2,963954,false,false,1300,image-keyboard-response,21
true,11,0,2,0,true,q,false,true,0.0-2.0-0.45-0.406-3.406,0,1,1,81,false,stim,false,0,470.80000001192093,2,1,1,14312,WMM2,965962,false,false,1303,image-keyboard-response,22
true,11,1,2,1,true,z,false,true,0.0-2.0-0.45-0.407-3.407,0,1,1,90,false,stim,false,1,575.7999999821186,2,1,2,14312,WMM2,968066,false,false,1306,image-keyboard-response,23
true,11,1,2,1,true,z,false,true,0.0-2.0-0.45-0.408-3.408,0,1,1,90,false,stim,false,1,605.1000000238419,2,1,2,14312,WMM2,970194,false,false,1309,image-keyboard-response,24
true,11,0,2,0,true,q,false,false,0.0-2.0-0.45-0.409-3.409,0,1,1,81,false,stim,false,0,525.7999999821186,2,1,1,14312,WMM2,972246,false,true,1312,image-keyboard-response,25
true,11,1,2,1,true,z,false,true,0.0-2.0-0.45-0.410-3.410,0,1,1,90,false,stim,false,1,563.9000000059605,2,1,2,14312,WMM2,974340,false,false,1315,image-keyboard-response,26
true,11,1,2,0,false,q,false,false,0.0-2.0-0.45-0.411-3.411,0,1,1,90,false,stim,true,1,716.0,2,0,0,14312,WMM2,976581,false,false,1318,image-keyboard-response,27
true,11,1,2,0,false,q,false,false,0.0-2.0-0.45-0.412-3.412,0,1,1,90,false,stim,true,1,542.7000000178814,2,0,0,14312,WMM2,978656,false,false,1321,image-keyboard-response,28
true,11,0,2,0,true,q,false,true,0.0-2.0-0.45-0.413-3.413,0,1,1,81,false,stim,false,1,599.8000000119209,2,0,0,14312,WMM2,980770,false,false,1324,image-keyboard-response,29
true,11,0,2,0,true,q,false,true,0.0-2.0-0.46-0.414-3.414,0,1,1,81,false,stim,false,0,499.69999998807907,2,1,1,14312,WMM2,982794,false,false,1327,image-keyboard-response,30
true,11,0,2,0,true,q,false,true,0.0-2.0-0.46-0.415-3.415,0,1,1,81,false,stim,false,1,597.5999999940395,2,0,0,14312,WMM2,984915,false,false,1330,image-keyboard-response,31
true,11,0,2,0,true,q,false,false,0.0-2.0-0.46-0.416-3.416,0,1,1,81,false,stim,false,1,350.30000001192093,2,0,0,14312,WMM2,986789,false,true,1333,image-keyboard-response,32
true,11,1,2,1,true,z,false,true,0.0-2.0-0.46-0.417-3.417,0,1,1,90,false,stim,false,1,614.0,2,1,2,14312,WMM2,988926,false,false,1336,image-keyboard-response,33
true,11,1,2,0,false,q,true,false,0.0-2.0-0.46-0.418-3.418,0,1,1,90,false,stim,false,0,754.3000000119209,2,0,1,14312,WMM2,991215,false,false,1339,image-keyboard-response,34
true,11,0,2,0,true,q,false,true,0.0-2.0-0.46-0.419-3.419,0,1,1,81,false,stim,false,1,482.19999998807907,2,1,0,14312,WMM2,993208,false,false,1342,image-keyboard-response,35
true,11,1,2,0,false,q,true,false,0.0-2.0-0.46-0.420-3.420,0,1,1,90,false,stim,false,0,1021.0999999940395,2,0,1,14312,WMM2,995750,false,false,1345,image-keyboard-response,36
true,11,0,2,1,false,z,true,false,0.0-2.0-0.46-0.421-3.421,0,1,1,81,false,stim,false,1,539.1000000238419,2,1,2,14312,WMM2,997818,false,false,1348,image-keyboard-response,37
true,11,1,2,1,true,z,false,true,0.0-2.0-0.46-0.422-3.422,0,1,1,90,false,stim,false,1,724.9000000059605,2,1,2,14312,WMM2,1000060,false,false,1351,image-keyboard-response,38
true,11,0,2,0,true,q,false,true,0.0-2.0-0.47-0.423-3.423,0,1,1,81,false,stim,false,1,625.5999999940395,2,1,0,14312,WMM2,1002208,false,false,1354,image-keyboard-response,39
true,11,0,2,1,false,z,true,false,0.0-2.0-0.47-0.424-3.424,0,1,1,81,false,stim,false,1,474.90000000596046,2,1,2,14312,WMM2,1004195,false,false,1357,image-keyboard-response,40
true,11,0,2,0,true,q,false,true,0.0-2.0-0.47-0.425-3.425,0,1,1,81,false,stim,false,1,387.5,2,1,0,14312,WMM2,1006099,false,false,1360,image-keyboard-response,41
true,11,0,2,0,true,q,false,true,0.0-2.0-0.47-0.426-3.426,0,1,1,81,false,stim,false,0,609.7000000178814,2,0,1,14312,WMM2,1008223,false,false,1363,image-keyboard-response,42
true,12,0,4,0,true,q,false,true,0.0-2.0-0.47-0.427-3.427,1,0,1,81,true,stim,false,0,528.1999999880791,2,0,1,14312,WMM2,1010275,false,false,1366,image-keyboard-response,1
true,12,0,4,1,false,z,true,false,0.0-2.0-0.47-0.428-3.428,1,0,1,81,false,stim,false,1,1402.9000000059605,2,1,2,14312,WMM2,1013197,false,false,1369,image-keyboard-response,2
true,12,0,4,0,true,q,false,true,0.0-2.0-0.47-0.429-3.429,1,0,1,81,false,stim,false,0,964.6999999880791,2,1,0,14312,WMM2,1015685,false,false,1372,image-keyboard-response,3
true,12,1,4,1,true,z,false,true,0.0-2.0-0.47-0.430-3.430,1,0,1,90,false,stim,false,1,850.2999999821186,2,1,2,14312,WMM2,1018066,false,false,1375,image-keyboard-response,4
true,12,0,4,0,true,q,false,true,0.0-2.0-0.47-0.431-3.431,1,0,1,81,false,stim,false,0,864.2999999821186,2,0,1,14312,WMM2,1020461,false,false,1378,image-keyboard-response,5
true,12,0,4,0,true,q,false,true,0.0-2.0-0.48-0.432-3.432,1,0,1,81,false,stim,false,0,417.09999999403954,2,1,0,14312,WMM2,1022403,false,false,1381,image-keyboard-response,6
true,12,0,4,0,true,q,false,true,0.0-2.0-0.48-0.433-3.433,1,0,1,81,false,stim,false,0,503.30000001192093,2,0,1,14312,WMM2,1024434,false,false,1384,image-keyboard-response,7
true,12,0,4,0,true,q,false,true,0.0-2.0-0.48-0.434-3.434,1,0,1,81,false,stim,false,0,570.3999999761581,2,1,0,14312,WMM2,1026528,false,false,1387,image-keyboard-response,8
true,12,0,4,0,true,q,false,true,0.0-2.0-0.48-0.435-3.435,1,0,1,81,false,stim,false,0,413.09999999403954,2,0,1,14312,WMM2,1028452,false,false,1390,image-keyboard-response,9
true,12,0,4,0,true,q,false,true,0.0-2.0-0.48-0.436-3.436,1,0,1,81,false,stim,false,0,372.0,2,0,1,14312,WMM2,1030349,false,false,1393,image-keyboard-response,10
true,12,1,4,1,true,z,false,true,0.0-2.0-0.48-0.437-3.437,1,0,1,90,false,stim,false,1,699.1999999880791,2,1,2,14312,WMM2,1032573,false,false,1396,image-keyboard-response,11
true,12,1,4,1,true,z,false,true,0.0-2.0-0.48-0.438-3.438,1,0,1,90,false,stim,false,1,377.19999998807907,2,1,2,14312,WMM2,1034477,false,false,1399,image-keyboard-response,12
true,12,1,4,1,true,z,false,true,0.0-2.0-0.48-0.439-3.439,1,0,1,90,false,stim,false,1,342.59999999403954,2,1,2,14312,WMM2,1036346,false,false,1402,image-keyboard-response,13
true,12,0,4,0,true,q,false,true,0.0-2.0-0.48-0.440-3.440,1,0,1,81,false,stim,false,0,855.8000000119209,2,1,0,14312,WMM2,1038717,false,false,1405,image-keyboard-response,14
true,12,1,4,1,true,z,false,true,0.0-2.0-0.49-0.441-3.441,1,0,1,90,false,stim,false,1,622.7999999821186,2,1,2,14312,WMM2,1040875,false,false,1408,image-keyboard-response,15
true,12,0,4,0,true,q,false,false,0.0-2.0-0.49-0.442-3.442,1,0,1,81,false,stim,false,0,723.6000000238419,2,1,0,14312,WMM2,1043124,false,true,1411,image-keyboard-response,16
true,12,1,4,0,false,q,true,false,0.0-2.0-0.49-0.443-3.443,1,0,1,90,false,stim,false,0,729.0999999940395,2,1,0,14312,WMM2,1045376,false,false,1414,image-keyboard-response,17
true,12,0,4,0,true,q,false,true,0.0-2.0-0.49-0.444-3.444,1,0,1,81,false,stim,false,0,580.7999999821186,2,0,1,14312,WMM2,1047485,false,false,1417,image-keyboard-response,18
true,12,0,4,0,true,q,false,true,0.0-2.0-0.49-0.445-3.445,1,0,1,81,false,stim,false,0,315.40000000596046,2,0,1,14312,WMM2,1049333,false,false,1420,image-keyboard-response,19
true,12,0,4,0,true,q,false,true,0.0-2.0-0.49-0.446-3.446,1,0,1,81,false,stim,false,0,418.69999998807907,2,0,1,14312,WMM2,1051268,false,false,1423,image-keyboard-response,20
true,12,0,4,0,true,q,false,true,0.0-2.0-0.49-0.447-3.447,1,0,1,81,false,stim,false,0,365.90000000596046,2,1,0,14312,WMM2,1053157,false,false,1426,image-keyboard-response,21
true,12,0,4,1,false,z,true,false,0.0-2.0-0.49-0.448-3.448,1,0,1,81,false,stim,false,1,926.5,2,1,2,14312,WMM2,1055605,false,false,1429,image-keyboard-response,22
true,12,1,4,1,true,z,false,true,0.0-2.0-0.49-0.449-3.449,1,0,1,90,false,stim,false,1,447.60000002384186,2,1,2,14312,WMM2,1057581,false,false,1432,image-keyboard-response,23
true,12,1,4,0,false,q,true,true,0.0-2.0-0.50-0.450-3.450,1,0,1,90,false,stim,false,0,518.1000000238419,2,0,1,14312,WMM2,1059629,false,true,1435,image-keyboard-response,24
true,12,1,4,0,false,q,true,false,0.0-2.0-0.50-0.451-3.451,1,0,1,90,false,stim,false,0,443.0,2,0,1,14312,WMM2,1061600,false,false,1438,image-keyboard-response,25
true,12,0,4,1,false,z,true,false,0.0-2.0-0.50-0.452-3.452,1,0,1,81,false,stim,false,1,413.59999999403954,2,1,2,14312,WMM2,1063541,false,false,1441,image-keyboard-response,26
true,12,1,4,0,false,q,true,false,0.0-2.0-0.50-0.453-3.453,1,0,1,90,false,stim,false,0,415.0,2,1,0,14312,WMM2,1065473,false,false,1444,image-keyboard-response,27
true,12,0,4,0,true,q,false,true,0.0-2.0-0.50-0.454-3.454,1,0,1,81,false,stim,false,0,605.5,2,1,0,14312,WMM2,1067605,false,false,1447,image-keyboard-response,28
true,12,0,4,0,true,q,false,true,0.0-2.0-0.50-0.455-3.455,1,0,1,81,false,stim,false,0,632.6000000238419,2,1,0,14312,WMM2,1069773,false,false,1450,image-keyboard-response,29
true,12,1,4,1,true,z,false,true,0.0-2.0-0.50-0.456-3.456,1,0,1,90,false,stim,false,1,692.3000000119209,2,1,2,14312,WMM2,1071989,false,false,1453,image-keyboard-response,30
true,12,1,4,0,false,q,true,false,0.0-2.0-0.50-0.457-3.457,1,0,1,90,false,stim,false,0,552.5999999940395,2,0,1,14312,WMM2,1074071,false,false,1456,image-keyboard-response,31
true,12,0,4,1,false,z,true,true,0.0-2.0-0.50-0.458-3.458,1,0,1,81,false,stim,false,1,302.5,2,1,2,14312,WMM2,1075905,false,true,1459,image-keyboard-response,32
true,12,0,4,0,true,q,false,true,0.0-2.0-0.51-0.459-3.459,1,0,1,81,false,stim,false,0,1012.3999999761581,2,0,1,14312,WMM2,1078442,false,false,1462,image-keyboard-response,33
true,12,1,4,0,false,q,true,false,0.0-2.0-0.51-0.460-3.460,1,0,1,90,false,stim,false,0,636.5,2,1,0,14312,WMM2,1080608,false,false,1465,image-keyboard-response,34
true,12,0,4,1,false,z,true,false,0.0-2.0-0.51-0.461-3.461,1,0,1,81,false,stim,false,1,413.09999999403954,2,1,2,14312,WMM2,1082558,false,false,1468,image-keyboard-response,35
true,12,1,4,1,true,z,false,true,0.0-2.0-0.51-0.462-3.462,1,0,1,90,false,stim,false,1,667.2000000178814,2,1,2,14312,WMM2,1084758,false,false,1471,image-keyboard-response,36
true,12,1,4,0,false,q,true,false,0.0-2.0-0.51-0.463-3.463,1,0,1,90,false,stim,false,0,519.9000000059605,2,0,1,14312,WMM2,1086813,false,false,1474,image-keyboard-response,37
true,12,0,4,0,true,q,false,true,0.0-2.0-0.51-0.464-3.464,1,0,1,81,false,stim,false,0,451.5,2,0,1,14312,WMM2,1088804,false,false,1477,image-keyboard-response,38
true,12,1,4,1,true,z,false,true,0.0-2.0-0.51-0.465-3.465,1,0,1,90,false,stim,false,1,544.1000000238419,2,1,2,14312,WMM2,1090879,false,false,1480,image-keyboard-response,39
true,12,0,4,0,true,q,false,true,0.0-2.0-0.51-0.466-3.466,1,0,1,81,false,stim,false,0,730.5999999940395,2,1,0,14312,WMM2,1093146,false,false,1483,image-keyboard-response,40
true,12,0,4,0,true,q,false,false,0.0-2.0-0.51-0.467-3.467,1,0,1,81,false,stim,false,0,501.90000000596046,2,1,0,14312,WMM2,1095182,false,true,1486,image-keyboard-response,41
true,12,0,4,0,true,q,false,true,0.0-2.0-0.52-0.468-3.468,1,0,1,81,false,stim,false,0,527.7999999821186,2,0,1,14312,WMM2,1097244,false,false,1489,image-keyboard-response,42
true,12,1,4,1,true,z,false,true,0.0-2.0-0.52-0.469-3.469,1,0,1,90,false,stim,false,1,598.1000000238419,2,0,2,14312,WMM2,1099360,false,false,1492,image-keyboard-response,43
true,12,0,4,0,true,q,false,true,0.0-2.0-0.52-0.470-3.470,1,0,1,81,false,stim,false,0,622.0999999940395,2,0,0,14312,WMM2,1101510,false,false,1495,image-keyboard-response,44
true,12,1,4,1,true,z,false,true,0.0-2.0-0.52-0.471-3.471,1,0,1,90,false,stim,false,1,791.0,2,0,2,14312,WMM2,1103831,false,false,1498,image-keyboard-response,45
true,12,1,4,0,false,q,true,false,0.0-2.0-0.52-0.472-3.472,1,0,1,90,false,stim,false,0,642.4000000059605,2,1,1,14312,WMM2,1106002,false,false,1501,image-keyboard-response,46
true,12,0,4,0,true,q,false,true,0.0-2.0-0.52-0.473-3.473,1,0,1,81,false,stim,false,0,387.69999998807907,2,0,0,14312,WMM2,1107922,false,false,1504,image-keyboard-response,47
true,12,1,4,1,true,z,false,false,0.0-2.0-0.52-0.474-3.474,1,0,1,90,false,stim,false,1,536.1999999880791,2,0,2,14312,WMM2,1109984,false,true,1507,image-keyboard-response,48
true,12,1,4,0,false,q,true,false,0.0-2.0-0.52-0.475-3.475,1,0,1,90,false,stim,false,0,747.3000000119209,2,1,1,14312,WMM2,1112253,false,false,1510,image-keyboard-response,49
true,12,0,4,0,true,q,false,true,0.0-2.0-0.52-0.476-3.476,1,0,1,81,false,stim,false,0,414.5,2,0,0,14312,WMM2,1114186,false,false,1513,image-keyboard-response,50
true,12,0,4,1,false,z,true,false,0.0-2.0-0.53-0.477-3.477,1,0,1,81,false,stim,false,1,382.19999998807907,2,0,2,14312,WMM2,1116091,false,false,1516,image-keyboard-response,51
true,12,0,4,0,true,q,false,true,0.0-2.0-0.53-0.478-3.478,1,0,1,81,false,stim,false,0,624.4000000059605,2,0,0,14312,WMM2,1118249,false,false,1519,image-keyboard-response,52
true,13,0,1,0,true,q,false,true,0.0-2.0-0.53-0.479-3.479,0,1,0,81,true,stim,false,0,649.0,2,1,1,14312,WMM2,1120431,false,false,1522,image-keyboard-response,1
true,13,0,1,2,false,d,false,false,0.0-2.0-0.53-0.480-3.480,0,1,0,81,false,stim,true,0,544.3000000119209,2,0,0,14312,WMM2,1122500,false,false,1525,image-keyboard-response,2
true,13,1,1,2,false,d,true,false,0.0-2.0-0.53-0.481-3.481,0,1,0,90,false,stim,false,0,719.6999999880791,2,0,0,14312,WMM2,1124755,false,false,1528,image-keyboard-response,3
true,13,1,1,2,false,d,false,false,0.0-2.0-0.53-0.482-3.482,0,1,0,90,false,stim,true,1,974.0,2,0,2,14312,WMM2,1127242,false,false,1531,image-keyboard-response,4
true,13,0,1,0,true,q,false,true,0.0-2.0-0.53-0.483-3.483,0,1,0,81,false,stim,false,0,1047.3999999761581,2,1,1,14312,WMM2,1129823,false,false,1534,image-keyboard-response,5
true,13,2,1,2,true,d,false,true,0.0-2.0-0.53-0.484-3.484,0,1,0,68,false,stim,false,1,1432.2999999821186,2,0,2,14312,WMM2,1132777,false,false,1537,image-keyboard-response,6
true,13,0,1,0,true,q,false,true,0.0-2.0-0.53-0.485-3.485,0,1,0,81,false,stim,false,0,549.2000000178814,2,1,1,14312,WMM2,1134842,false,false,1540,image-keyboard-response,7
true,13,0,1,0,true,q,false,true,0.0-2.0-0.54-0.486-3.486,0,1,0,81,false,stim,false,0,667.4000000059605,2,1,1,14312,WMM2,1137040,false,false,1543,image-keyboard-response,8
true,13,1,1,2,false,d,true,true,0.0-2.0-0.54-0.487-3.487,0,1,0,90,false,stim,false,0,1464.7999999821186,2,0,0,14312,WMM2,1140029,false,true,1546,image-keyboard-response,9
true,13,1,1,2,false,d,true,false,0.0-2.0-0.54-0.488-3.488,0,1,0,90,false,stim,false,0,490.59999999403954,2,0,0,14312,WMM2,1142036,false,false,1549,image-keyboard-response,10
true,13,2,1,2,true,d,false,true,0.0-2.0-0.54-0.489-3.489,0,1,0,68,false,stim,false,0,806.3000000119209,2,0,0,14312,WMM2,1144372,false,false,1552,image-keyboard-response,11
true,13,1,1,0,false,q,true,false,0.0-2.0-0.54-0.490-3.490,0,1,0,90,false,stim,false,0,588.0999999940395,2,1,1,14312,WMM2,1146483,false,false,1555,image-keyboard-response,12
true,13,0,1,0,true,q,false,true,0.0-2.0-0.54-0.491-3.491,0,1,0,81,false,stim,false,0,360.69999998807907,2,1,1,14312,WMM2,1148372,false,false,1558,image-keyboard-response,13
true,13,2,1,2,true,d,false,false,0.0-2.0-0.54-0.492-3.492,0,1,0,68,false,stim,false,1,533.6999999880791,2,0,2,14312,WMM2,1150428,false,true,1561,image-keyboard-response,14
true,13,1,1,2,false,d,false,false,0.0-2.0-0.54-0.493-3.493,0,1,0,90,false,stim,true,1,687.8000000119209,2,0,2,14312,WMM2,1152644,false,false,1564,image-keyboard-response,15
true,13,0,1,2,false,d,true,false,0.0-2.0-0.54-0.494-3.494,0,1,0,81,false,stim,false,1,590.1999999880791,2,0,2,14312,WMM2,1154762,false,false,1567,image-keyboard-response,16
true,13,0,1,2,false,d,false,false,0.0-2.0-0.55-0.495-3.495,0,1,0,81,false,stim,true,0,953.8999999761581,2,0,0,14312,WMM2,1157241,false,false,1570,image-keyboard-response,17
true,13,2,1,2,true,d,false,true,0.0-2.0-0.55-0.496-3.496,0,1,0,68,false,stim,false,0,464.19999998807907,2,0,0,14312,WMM2,1159231,false,false,1573,image-keyboard-response,18
true,13,2,1,2,true,d,false,true,0.0-2.0-0.55-0.497-3.497,0,1,0,68,false,stim,false,0,394.69999998807907,2,0,0,14312,WMM2,1161144,false,false,1576,image-keyboard-response,19
true,13,0,1,0,true,q,false,true,0.0-2.0-0.55-0.498-3.498,0,1,0,81,false,stim,false,0,718.0999999940395,2,1,1,14312,WMM2,1163398,false,false,1579,image-keyboard-response,20
true,13,0,1,0,true,q,false,true,0.0-2.0-0.55-0.499-3.499,0,1,0,81,false,stim,false,0,470.59999999403954,2,1,1,14312,WMM2,1165399,false,false,1582,image-keyboard-response,21
true,13,1,1,2,false,d,false,false,0.0-2.0-0.55-0.500-3.500,0,1,0,90,false,stim,true,1,1064.2000000178814,2,0,2,14312,WMM2,1167986,false,false,1585,image-keyboard-response,22
true,13,2,1,2,true,d,false,true,0.0-2.0-0.55-0.501-3.501,0,1,0,68,false,stim,false,1,663.9000000059605,2,0,2,14312,WMM2,1170188,false,false,1588,image-keyboard-response,23
true,13,2,1,2,true,d,false,true,0.0-2.0-0.55-0.502-3.502,0,1,0,68,false,stim,false,1,611.8999999761581,2,0,2,14312,WMM2,1172315,false,false,1591,image-keyboard-response,24
true,13,0,1,0,true,q,false,false,0.0-2.0-0.55-0.503-3.503,0,1,0,81,false,stim,false,0,592.3000000119209,2,1,1,14312,WMM2,1174430,false,true,1594,image-keyboard-response,25
true,13,2,1,2,true,d,false,true,0.0-2.0-0.56-0.504-3.504,0,1,0,68,false,stim,false,1,435.59999999403954,2,0,2,14312,WMM2,1176393,false,false,1597,image-keyboard-response,26
true,13,2,1,0,false,q,true,true,0.0-2.0-0.56-0.505-3.505,0,1,0,68,false,stim,false,0,586.3000000119209,2,1,1,14312,WMM2,1178508,false,true,1600,image-keyboard-response,27
true,13,2,1,0,false,q,true,false,0.0-2.0-0.56-0.506-3.506,0,1,0,68,false,stim,false,0,378.5,2,1,1,14312,WMM2,1180426,false,false,1603,image-keyboard-response,28
true,13,2,1,0,false,q,true,false,0.0-2.0-0.56-0.507-3.507,0,1,0,68,false,stim,false,0,547.7999999821186,2,1,1,14312,WMM2,1182509,false,false,1606,image-keyboard-response,29
true,13,2,1,2,true,d,false,true,0.0-2.0-0.56-0.508-3.508,0,1,0,68,false,stim,false,1,819.5999999940395,2,0,2,14312,WMM2,1184860,false,false,1609,image-keyboard-response,30
true,13,0,1,2,false,d,false,false,0.0-2.0-0.56-0.509-3.509,0,1,0,81,false,stim,true,0,706.5,2,1,0,14312,WMM2,1187095,false,false,1612,image-keyboard-response,31
true,13,2,1,2,true,d,false,true,0.0-2.0-0.56-0.510-3.510,0,1,0,68,false,stim,false,1,805.2000000178814,2,0,2,14312,WMM2,1189427,false,false,1615,image-keyboard-response,32
true,13,1,1,2,false,d,true,false,0.0-2.0-0.56-0.511-3.511,0,1,0,90,false,stim,false,0,535.1000000238419,2,1,0,14312,WMM2,1191488,false,false,1618,image-keyboard-response,33
true,13,0,1,2,false,d,false,false,0.0-2.0-0.56-0.512-3.512,0,1,0,81,false,stim,true,0,930.7000000178814,2,1,0,14312,WMM2,1193950,false,false,1621,image-keyboard-response,34
true,14,2,0,2,true,d,false,true,0.0-2.0-0.57-0.513-3.513,1,1,0,68,true,stim,false,2,2078.0,2,0,2,14312,WMM2,1318711,false,false,1744,image-keyboard-response,1
true,14,1,0,2,false,d,true,false,0.0-2.0-0.57-0.514-3.514,1,1,0,90,false,stim,false,2,2515.2000000178814,2,1,0,14312,WMM2,1322757,false,false,1747,image-keyboard-response,2
true,14,0,0,0,true,q,false,true,0.0-2.0-0.57-0.515-3.515,1,1,0,81,false,stim,false,0,981.1000000238419,2,1,1,14312,WMM2,1325262,false,false,1750,image-keyboard-response,3
true,14,2,0,2,true,d,false,false,0.0-2.0-0.57-0.516-3.516,1,1,0,68,false,stim,false,2,738.5,2,0,2,14312,WMM2,1327521,false,true,1753,image-keyboard-response,4
true,14,2,0,2,true,d,false,true,0.0-2.0-0.57-0.517-3.517,1,1,0,68,false,stim,false,2,713.6000000238419,2,0,2,14312,WMM2,1329765,false,false,1756,image-keyboard-response,5
true,14,0,0,2,false,d,true,false,0.0-2.0-0.57-0.518-3.518,1,1,0,81,false,stim,false,2,1437.199999988079,2,1,0,14312,WMM2,1332725,false,false,1759,image-keyboard-response,6
true,14,0,0,0,true,q,false,false,0.0-2.0-0.57-0.519-3.519,1,1,0,81,false,stim,false,0,2190.0,2,1,1,14312,WMM2,1336440,false,true,1762,image-keyboard-response,7
true,14,0,0,0,true,q,false,true,0.0-2.0-0.57-0.520-3.520,1,1,0,81,false,stim,false,0,791.0,2,1,1,14312,WMM2,1338762,false,false,1765,image-keyboard-response,8
true,14,1,0,2,false,d,true,false,0.0-2.0-0.57-0.521-3.521,1,1,0,90,false,stim,false,2,1574.8999999761581,2,1,0,14312,WMM2,1341865,false,false,1768,image-keyboard-response,9
true,14,0,0,0,true,q,false,true,0.0-2.0-0.58-0.522-3.522,1,1,0,81,false,stim,false,0,1211.5,2,1,1,14312,WMM2,1344605,false,false,1771,image-keyboard-response,10
true,14,0,0,2,false,d,true,false,0.0-2.0-0.58-0.523-3.523,1,1,0,81,false,stim,false,2,1833.699999988079,2,1,0,14312,WMM2,1347964,false,false,1774,image-keyboard-response,11
true,14,1,0,2,false,d,true,false,0.0-2.0-0.58-0.524-3.524,1,1,0,90,false,stim,false,2,1118.4000000059605,2,1,0,14312,WMM2,1350607,false,false,1777,image-keyboard-response,12
true,14,1,0,2,false,d,true,false,0.0-2.0-0.58-0.525-3.525,1,1,0,90,false,stim,false,2,462.90000000596046,2,1,0,14312,WMM2,1352592,false,false,1780,image-keyboard-response,13
true,14,0,0,0,true,q,false,true,0.0-2.0-0.58-0.526-3.526,1,1,0,81,false,stim,false,0,998.8999999761581,2,1,1,14312,WMM2,1355114,false,false,1783,image-keyboard-response,14
true,14,2,0,2,true,d,false,true,0.0-2.0-0.58-0.527-3.527,1,1,0,68,false,stim,false,2,486.69999998807907,2,0,2,14312,WMM2,1357123,false,false,1786,image-keyboard-response,15
true,14,2,0,2,true,d,false,true,0.0-2.0-0.58-0.528-3.528,1,1,0,68,false,stim,false,2,487.19999998807907,2,0,2,14312,WMM2,1359126,false,false,1789,image-keyboard-response,16
true,14,0,0,0,true,q,false,false,0.0-2.0-0.58-0.529-3.529,1,1,0,81,false,stim,false,0,1153.5999999940395,2,1,1,14312,WMM2,1361821,false,true,1792,image-keyboard-response,17
true,14,2,0,2,true,d,false,true,0.0-2.0-0.58-0.530-3.530,1,1,0,68,false,stim,false,2,679.2999999821186,2,0,2,14312,WMM2,1364026,false,false,1795,image-keyboard-response,18
true,14,0,0,0,true,q,false,true,0.0-2.0-0.59-0.531-3.531,1,1,0,81,false,stim,false,0,531.4000000059605,2,1,1,14312,WMM2,1366079,false,false,1798,image-keyboard-response,19
true,14,2,0,2,true,d,false,true,0.0-2.0-0.59-0.532-3.532,1,1,0,68,false,stim,false,2,707.5,2,0,2,14312,WMM2,1368313,false,false,1801,image-keyboard-response,20
true,14,0,0,0,true,q,false,true,0.0-2.0-0.59-0.533-3.533,1,1,0,81,false,stim,false,0,666.9000000059605,2,1,1,14312,WMM2,1370528,false,false,1804,image-keyboard-response,21
true,14,1,0,2,false,d,true,false,0.0-2.0-0.59-0.534-3.534,1,1,0,90,false,stim,false,2,685.2000000178814,2,1,0,14312,WMM2,1372740,false,false,1807,image-keyboard-response,22
true,14,2,0,2,true,d,false,true,0.0-2.0-0.59-0.535-3.535,1,1,0,68,false,stim,false,2,568.6999999880791,2,0,2,14312,WMM2,1374845,false,false,1810,image-keyboard-response,23
true,14,0,0,2,false,d,true,false,0.0-2.0-0.59-0.536-3.536,1,1,0,81,false,stim,false,2,627.4000000059605,2,1,0,14312,WMM2,1377011,false,false,1813,image-keyboard-response,24
true,14,0,0,0,true,q,false,true,0.0-2.0-0.59-0.537-3.537,1,1,0,81,false,stim,false,0,1102.300000011921,2,1,1,14312,WMM2,1379651,false,false,1816,image-keyboard-response,25
true,14,2,0,2,true,d,false,true,0.0-2.0-0.59-0.538-3.538,1,1,0,68,false,stim,false,2,513.2000000178814,2,0,2,14312,WMM2,1381702,false,false,1819,image-keyboard-response,26
true,14,0,0,2,false,d,true,false,0.0-2.0-0.59-0.539-3.539,1,1,0,81,false,stim,false,2,1686.9000000059605,2,1,0,14312,WMM2,1384916,false,false,1822,image-keyboard-response,27
true,14,0,0,2,false,d,true,false,0.0-2.0-0.60-0.540-3.540,1,1,0,81,false,stim,false,2,706.0,2,1,0,14312,WMM2,1387145,false,false,1825,image-keyboard-response,28
true,14,2,0,2,true,d,false,true,0.0-2.0-0.60-0.541-3.541,1,1,0,68,false,stim,false,2,652.1999999880791,2,0,2,14312,WMM2,1389338,false,false,1828,image-keyboard-response,29
true,14,1,0,2,false,d,true,true,0.0-2.0-0.60-0.542-3.542,1,1,0,90,false,stim,false,2,876.1000000238419,2,1,0,14312,WMM2,1391737,false,true,1831,image-keyboard-response,30
true,14,0,0,0,true,q,false,true,0.0-2.0-0.60-0.543-3.543,1,1,0,81,false,stim,false,0,750.5999999940395,2,1,1,14312,WMM2,1394011,false,false,1834,image-keyboard-response,31
true,14,2,0,2,true,d,false,true,0.0-2.0-0.60-0.544-3.544,1,1,0,68,false,stim,false,2,724.7000000178814,2,0,2,14312,WMM2,1396250,false,false,1837,image-keyboard-response,32
true,14,2,0,0,false,q,true,false,0.0-2.0-0.60-0.545-3.545,1,1,0,68,false,stim,false,0,1242.0,2,1,1,14312,WMM2,1399026,false,false,1840,image-keyboard-response,33
true,14,1,0,2,false,d,true,false,0.0-2.0-0.60-0.546-3.546,1,1,0,90,false,stim,false,2,1179.199999988079,2,1,0,14312,WMM2,1401741,false,false,1843,image-keyboard-response,34
true,14,2,0,2,true,d,false,true,0.0-2.0-0.60-0.547-3.547,1,1,0,68,false,stim,false,2,739.5,2,0,2,14312,WMM2,1404012,false,false,1846,image-keyboard-response,35
true,14,0,0,0,true,q,false,true,0.0-2.0-0.60-0.548-3.548,1,1,0,81,false,stim,false,0,1002.7000000178814,2,1,1,14312,WMM2,1406543,false,false,1849,image-keyboard-response,36
true,14,1,0,2,false,d,true,false,0.0-2.0-0.61-0.549-3.549,1,1,0,90,false,stim,false,2,749.6999999880791,2,1,0,14312,WMM2,1408819,false,false,1852,image-keyboard-response,37
true,14,0,0,2,false,d,true,false,0.0-2.0-0.61-0.550-3.550,1,1,0,81,false,stim,false,2,1166.5,2,1,0,14312,WMM2,1411512,false,false,1855,image-keyboard-response,38
true,14,2,0,2,true,d,false,false,0.0-2.0-0.61-0.551-3.551,1,1,0,68,false,stim,false,2,573.0999999940395,2,0,2,14312,WMM2,1413618,false,true,1858,image-keyboard-response,39
true,14,2,0,2,true,d,false,true,0.0-2.0-0.61-0.552-3.552,1,1,0,68,false,stim,false,2,388.09999999403954,2,0,2,14312,WMM2,1415531,false,false,1861,image-keyboard-response,40
true,14,2,0,2,true,d,false,true,0.0-2.0-0.61-0.553-3.553,1,1,0,68,false,stim,false,2,395.5,2,0,2,14312,WMM2,1417450,false,false,1864,image-keyboard-response,41
true,14,0,0,0,true,q,false,false,0.0-2.0-0.61-0.554-3.554,1,1,0,81,false,stim,false,0,796.5999999940395,2,1,1,14312,WMM2,1419771,false,true,1867,image-keyboard-response,42
true,14,0,0,2,false,d,true,false,0.0-2.0-0.61-0.555-3.555,1,1,0,81,false,stim,false,2,1223.0999999940395,2,1,0,14312,WMM2,1422515,false,false,1870,image-keyboard-response,43
true,14,0,0,0,true,q,false,true,0.0-2.0-0.61-0.556-3.556,1,1,0,81,false,stim,false,0,802.5,2,1,1,14312,WMM2,1424843,false,false,1873,image-keyboard-response,44
true,14,0,0,0,true,q,false,true,0.0-2.0-0.61-0.557-3.557,1,1,0,81,false,stim,false,0,729.5999999940395,2,1,1,14312,WMM2,1427097,false,false,1876,image-keyboard-response,45
true,14,0,0,0,true,q,false,false,0.0-2.0-0.62-0.558-3.558,1,1,0,81,false,stim,false,0,602.3000000119209,2,1,1,14312,WMM2,1429225,false,true,1879,image-keyboard-response,46
true,14,2,0,2,true,d,false,true,0.0-2.0-0.62-0.559-3.559,1,1,0,68,false,stim,false,2,394.5,2,0,2,14312,WMM2,1431140,false,false,1882,image-keyboard-response,47
true,14,2,0,2,true,d,false,true,0.0-2.0-0.62-0.560-3.560,1,1,0,68,false,stim,false,2,443.5,2,0,2,14312,WMM2,1433120,false,false,1885,image-keyboard-response,48
true,14,0,0,0,true,q,false,true,0.0-2.0-0.62-0.561-3.561,1,1,0,81,false,stim,false,0,860.5999999940395,2,1,1,14312,WMM2,1435531,false,false,1888,image-keyboard-response,49
true,14,2,0,2,true,d,false,false,0.0-2.0-0.62-0.562-3.562,1,1,0,68,false,stim,false,2,605.5,2,0,2,14312,WMM2,1437665,false,true,1891,image-keyboard-response,50
true,14,1,0,2,false,d,true,true,0.0-2.0-0.62-0.563-3.563,1,1,0,90,false,stim,false,2,1302.0,2,0,0,14312,WMM2,1440482,false,true,1894,image-keyboard-response,51
true,14,1,0,2,false,d,true,false,0.0-2.0-0.62-0.564-3.564,1,1,0,90,false,stim,false,2,677.5999999940395,2,0,0,14312,WMM2,1442678,false,false,1897,image-keyboard-response,52
true,14,1,0,2,false,d,true,false,0.0-2.0-0.62-0.565-3.565,1,1,0,90,false,stim,false,2,497.5,2,0,0,14312,WMM2,1444691,false,false,1900,image-keyboard-response,53
true,14,0,0,0,true,q,false,false,0.0-2.0-0.62-0.566-3.566,1,1,0,81,false,stim,false,0,793.4000000059605,2,1,1,14312,WMM2,1447025,false,true,1903,image-keyboard-response,54
true,14,0,0,0,true,q,false,true,0.0-2.0-0.63-0.567-3.567,1,1,0,81,false,stim,false,0,567.6000000238419,2,1,1,14312,WMM2,1449123,false,false,1906,image-keyboard-response,55
true,14,2,0,2,true,d,false,false,0.0-2.0-0.63-0.568-3.568,1,1,0,68,false,stim,false,2,538.1999999880791,2,1,2,14312,WMM2,1451190,false,true,1909,image-keyboard-response,56
true,14,1,0,2,false,d,true,false,0.0-2.0-0.63-0.569-3.569,1,1,0,90,false,stim,false,2,691.5,2,0,0,14312,WMM2,1453417,false,false,1912,image-keyboard-response,57
true,14,2,0,2,true,d,false,true,0.0-2.0-0.63-0.570-3.570,1,1,0,68,false,stim,false,2,1084.2000000178814,2,0,0,14312,WMM2,1456025,false,false,1915,image-keyboard-response,58
true,14,1,0,2,false,d,true,false,0.0-2.0-0.63-0.571-3.571,1,1,0,90,false,stim,false,2,968.3000000119209,2,1,2,14312,WMM2,1458513,false,false,1918,image-keyboard-response,59
true,14,0,0,2,false,d,true,false,0.0-2.0-0.63-0.572-3.572,1,1,0,81,false,stim,false,2,820.0999999940395,2,1,2,14312,WMM2,1460869,false,false,1921,image-keyboard-response,60
true,15,0,4,0,true,q,false,false,0.0-2.0-0.63-0.573-3.573,0,1,1,81,true,stim,false,0,1104.0,2,1,1,14312,WMM2,1463493,false,true,1924,image-keyboard-response,1
true,15,2,4,0,false,q,true,true,0.0-2.0-0.63-0.574-3.574,0,1,1,68,false,stim,false,0,1026.0,2,1,1,14312,WMM2,1466052,false,true,1927,image-keyboard-response,2
true,15,0,4,2,false,d,true,false,0.0-2.0-0.63-0.575-3.575,0,1,1,81,false,stim,false,2,2128.800000011921,2,0,0,14312,WMM2,1469700,false,false,1930,image-keyboard-response,3
true,15,2,4,2,true,d,false,true,0.0-2.0-0.64-0.576-3.576,0,1,1,68,false,stim,false,2,509.59999999403954,2,0,0,14312,WMM2,1471742,false,false,1933,image-keyboard-response,4
true,15,2,4,0,false,q,true,false,0.0-2.0-0.64-0.577-3.577,0,1,1,68,false,stim,false,0,562.9000000059605,2,1,1,14312,WMM2,1473828,false,false,1936,image-keyboard-response,5
true,15,2,4,2,true,d,false,true,0.0-2.0-0.64-0.578-3.578,0,1,1,68,false,stim,false,2,696.5,2,1,2,14312,WMM2,1476057,false,false,1939,image-keyboard-response,6
true,15,2,4,0,false,q,true,false,0.0-2.0-0.64-0.579-3.579,0,1,1,68,false,stim,false,0,998.0999999940395,2,1,1,14312,WMM2,1478577,false,false,1942,image-keyboard-response,7
true,15,2,4,2,true,d,false,true,0.0-2.0-0.64-0.580-3.580,0,1,1,68,false,stim,false,2,391.19999998807907,2,1,2,14312,WMM2,1480491,false,false,1945,image-keyboard-response,8
true,15,1,4,2,false,d,true,false,0.0-2.0-0.64-0.581-3.581,0,1,1,90,false,stim,false,2,774.3000000119209,2,0,0,14312,WMM2,1482792,false,false,1948,image-keyboard-response,9
true,15,2,4,2,true,d,false,true,0.0-2.0-0.64-0.582-3.582,0,1,1,68,false,stim,false,2,505.09999999403954,2,1,2,14312,WMM2,1484810,false,false,1951,image-keyboard-response,10
true,15,0,4,0,true,q,false,true,0.0-2.0-0.64-0.583-3.583,0,1,1,81,false,stim,false,0,1132.300000011921,2,1,1,14312,WMM2,1487456,false,false,1954,image-keyboard-response,11
true,15,1,4,2,false,d,true,false,0.0-2.0-0.64-0.584-3.584,0,1,1,90,false,stim,false,2,880.3000000119209,2,0,0,14312,WMM2,1489863,false,false,1957,image-keyboard-response,12
true,15,1,4,2,false,d,true,false,0.0-2.0-0.65-0.585-3.585,0,1,1,90,false,stim,false,2,646.5999999940395,2,0,0,14312,WMM2,1492025,false,false,1960,image-keyboard-response,13
true,15,1,4,2,false,d,true,false,0.0-2.0-0.65-0.586-3.586,0,1,1,90,false,stim,false,2,586.4000000059605,2,0,0,14312,WMM2,1494125,false,false,1963,image-keyboard-response,14
true,15,2,4,2,true,d,false,false,0.0-2.0-0.65-0.587-3.587,0,1,1,68,false,stim,false,2,803.7999999821186,2,1,2,14312,WMM2,1496451,false,true,1966,image-keyboard-response,15
true,15,2,4,2,true,d,false,true,0.0-2.0-0.65-0.588-3.588,0,1,1,68,false,stim,false,2,363.5,2,1,2,14312,WMM2,1498336,false,false,1969,image-keyboard-response,16
true,15,2,4,2,true,d,false,true,0.0-2.0-0.65-0.589-3.589,0,1,1,68,false,stim,false,2,432.30000001192093,2,1,2,14312,WMM2,1500287,false,false,1972,image-keyboard-response,17
false,15,-1,4,0,false,q,true,false,0.0-2.0-0.65-0.590-3.590,0,1,1,,false,stim,false,0,,2,1,1,14312,WMM2,1504857,false,false,1975,image-keyboard-response,18
false,15,-1,4,0,false,q,true,true,0.0-2.0-0.65-0.591-3.591,0,1,1,,false,stim,false,0,,2,1,1,14312,WMM2,1509395,false,true,1978,image-keyboard-response,19
false,15,-1,4,0,false,q,true,false,0.0-2.0-0.65-0.592-3.592,0,1,1,,false,stim,false,0,,2,1,1,14312,WMM2,1513933,false,false,1981,image-keyboard-response,20
true,15,1,4,2,false,d,true,false,0.0-2.0-0.65-0.593-3.593,0,1,1,90,false,stim,false,2,2171.600000023842,2,0,0,14312,WMM2,1517636,false,false,1984,image-keyboard-response,21
true,15,0,4,0,true,q,false,true,0.0-2.0-0.66-0.594-3.594,0,1,1,81,false,stim,false,0,829.4000000059605,2,1,1,14312,WMM2,1519996,false,false,1987,image-keyboard-response,22
