answered,blockNum,choice,condition,corResp,correct,correct_response,explo,fb,internal_node_id,isStable_1,isStable_2,isStable_3,key_press,newBlock,part,persev,persevResp,rt,sessNum,stableAS,stimulus,subject,task,time_elapsed,training,trap,trial_index,trial_type,trialsInBlock
true,1,1,0,0,false,q,true,false,0.0-2.0-0.0-0.0-3.0,0,0,0,90,true,stim,false,-1,2493.7749999808148,0,0,1,14312,WMM1,357598,false,false,242,image-keyboard-response,1
true,1,0,0,0,true,q,false,true,0.0-2.0-0.0-0.1-3.1,0,0,0,81,false,stim,false,-1,1988.0300000077114,0,0,1,14312,WMM1,361111,false,false,245,image-keyboard-response,2
true,1,1,0,2,false,d,true,false,0.0-2.0-0.0-0.2-3.2,0,0,0,90,false,stim,false,-1,1390.369999979157,0,0,0,14312,WMM1,364032,false,false,248,image-keyboard-response,3
true,1,2,0,2,true,d,false,false,0.0-2.0-0.0-0.3-3.3,0,0,0,68,false,stim,false,-1,1383.1200000131503,0,0,0,14312,WMM1,366928,false,true,251,image-keyboard-response,4
true,1,0,0,0,true,q,false,true,0.0-2.0-0.0-0.4-3.4,0,0,0,81,false,stim,false,-1,3010.855000000447,0,0,1,14312,WMM1,371455,false,false,254,image-keyboard-response,5
true,1,1,0,1,true,z,false,false,0.0-2.0-0.0-0.5-3.5,0,0,0,90,false,stim,false,-1,2461.799999990035,0,0,2,14312,WMM1,375452,false,true,257,image-keyboard-response,6
true,1,2,0,2,true,d,false,true,0.0-2.0-0.0-0.6-3.6,0,0,0,68,false,stim,false,-1,2026.8550000037067,0,0,0,14312,WMM1,379016,false,false,260,image-keyboard-response,7
true,1,2,0,1,false,z,true,false,0.0-2.0-0.0-0.7-3.7,0,0,0,68,false,stim,false,-1,1351.9150000065565,0,0,2,14312,WMM1,381895,false,false,263,image-keyboard-response,8
true,1,0,0,1,false,z,true,false,0.0-2.0-0.0-0.8-3.8,0,0,0,81,false,stim,false,-1,1240.1149999932386,0,0,2,14312,WMM1,384651,false,false,266,image-keyboard-response,9
true,1,0,0,0,true,q,false,true,0.0-2.0-0.1-0.9-3.9,0,0,0,81,false,stim,false,-1,2219.0299999783747,0,0,1,14312,WMM1,388396,false,false,269,image-keyboard-response,10
true,1,1,0,1,true,z,false,true,0.0-2.0-0.1-0.10-3.10,0,0,0,90,false,stim,false,-1,1525.4950000089593,0,0,2,14312,WMM1,391451,false,false,272,image-keyboard-response,11
true,1,1,0,1,true,z,false,true,0.0-2.0-0.1-0.11-3.11,0,0,0,90,false,stim,false,-1,1326.7150000319816,0,0,2,14312,WMM1,394304,false,false,275,image-keyboard-response,12
true,1,2,0,2,true,d,false,true,0.0-2.0-0.1-0.12-3.12,0,0,0,68,false,stim,false,-1,1391.3250000332482,0,0,0,14312,WMM1,397223,false,false,278,image-keyboard-response,13
true,1,2,0,2,true,d,false,true,0.0-2.0-0.1-0.13-3.13,0,0,0,68,false,stim,false,-1,653.5550000262447,0,0,0,14312,WMM1,399398,false,false,281,image-keyboard-response,14
true,1,0,0,0,true,q,false,true,0.0-2.0-0.1-0.14-3.14,0,0,0,81,false,stim,false,-1,1324.0150000201538,0,0,1,14312,WMM1,402263,false,false,284,image-keyboard-response,15
false,1,-1,0,2,false,d,false,true,0.0-2.0-0.1-0.15-3.15,0,0,0,,false,stim,true,-1,,0,0,0,14312,WMM1,406796,false,true,287,image-keyboard-response,16
true,1,0,0,0,true,q,false,true,0.0-2.0-0.1-0.16-3.16,0,0,0,81,false,stim,false,-1,1280.4899999755435,0,0,1,14312,WMM1,409611,false,false,290,image-keyboard-response,17
true,1,1,0,1,true,z,false,true,0.0-2.0-0.1-0.17-3.17,0,0,0,90,false,stim,false,-1,1390.4900000197813,0,0,2,14312,WMM1,412530,false,false,293,image-keyboard-response,18
true,1,2,0,2,true,d,false,true,0.0-2.0-0.2-0.18-3.18,0,0,0,68,false,stim,false,-1,502.4950000224635,0,0,0,14312,WMM1,414553,false,false,296,image-keyboard-response,19
true,1,1,0,0,false,q,true,false,0.0-2.0-0.2-0.19-3.19,0,0,0,90,false,stim,false,-1,1685.3899999987334,0,0,1,14312,WMM1,417760,false,false,299,image-keyboard-response,20
true,1,0,0,0,true,q,false,true,0.0-2.0-0.2-0.20-3.20,0,0,0,81,false,stim,false,-1,1092.3949999851175,0,0,1,14312,WMM1,420373,false,false,302,image-keyboard-response,21
true,1,2,0,2,true,d,false,true,0.0-2.0-0.2-0.21-3.21,0,0,0,68,false,stim,false,-1,2057.184999983292,0,0,0,14312,WMM1,423949,false,false,305,image-keyboard-response,22
true,1,1,0,1,true,z,false,true,0.0-2.0-0.2-0.22-3.22,0,0,0,90,false,stim,false,-1,1195.5699999816716,0,0,2,14312,WMM1,426681,false,false,308,image-keyboard-response,23
true,1,0,0,0,true,q,false,false,0.0-2.0-0.2-0.23-3.23,0,0,0,81,false,stim,false,-1,713.4599999990314,0,0,1,14312,WMM1,428923,false,true,311,image-keyboard-response,24
true,1,0,0,1,false,z,true,false,0.0-2.0-0.2-0.24-3.24,0,0,0,81,false,stim,false,-1,1681.9249999825843,0,0,2,14312,WMM1,432126,false,false,314,image-keyboard-response,25
true,1,1,0,1,true,z,false,true,0.0-2.0-0.2-0.25-3.25,0,0,0,90,false,stim,false,-1,1246.6499999864027,0,0,2,14312,WMM1,434896,false,false,317,image-keyboard-response,26
true,1,2,0,2,true,d,false,true,0.0-2.0-0.2-0.26-3.26,0,0,0,68,false,stim,false,-1,1190.9450000384822,0,0,0,14312,WMM1,437611,false,false,320,image-keyboard-response,27
true,1,2,0,2,true,d,false,true,0.0-2.0-0.3-0.27-3.27,0,0,0,68,false,stim,false,-1,1173.4599999617785,0,0,0,14312,WMM1,440308,false,false,323,image-keyboard-response,28
true,1,1,0,1,true,z,false,true,0.0-2.0-0.3-0.28-3.28,0,0,0,90,false,stim,false,-1,1176.7650000401773,0,0,2,14312,WMM1,443008,false,false,326,image-keyboard-response,29
true,1,1,0,1,true,z,false,true,0.0-2.0-0.3-0.29-3.29,0,0,0,90,false,stim,false,-1,759.3150000320747,0,0,2,14312,WMM1,445295,false,false,329,image-keyboard-response,30
true,1,2,0,2,true,d,false,true,0.0-2.0-0.3-0.30-3.30,0,0,0,68,false,stim,false,-1,843.3450000011362,0,0,0,14312,WMM1,447658,false,false,332,image-keyboard-response,31
true,1,0,0,0,true,q,false,true,0.0-2.0-0.3-0.31-3.31,0,0,0,81,false,stim,false,-1,1357.7449999866076,0,0,1,14312,WMM1,450551,false,false,335,image-keyboard-response,32
true,1,0,0,0,true,q,false,true,0.0-2.0-0.3-0.32-3.32,0,0,0,81,false,stim,false,-1,983.814999985043,0,0,1,14312,WMM1,453058,false,false,338,image-keyboard-response,33
true,1,2,0,2,true,d,false,true,0.0-2.0-0.3-0.33-3.33,0,0,0,68,false,stim,false,-1,937.7199999871664,0,0,0,14312,WMM1,455522,false,false,341,image-keyboard-response,34
true,2,1,1,0,false,q,false,false,0.0-2.0-0.3-0.34-3.34,0,0,0,90,true,stim,true,1,867.9499999852851,0,0,2,14312,WMM1,457922,false,false,344,image-keyboard-response,1
true,2,0,1,2,false,d,false,false,0.0-2.0-0.3-0.35-3.35,0,0,0,81,false,stim,true,0,1345.3149999841116,0,0,1,14312,WMM1,460779,false,false,347,image-keyboard-response,2
true,2,1,1,0,false,q,false,false,0.0-2.0-0.4-0.36-3.36,0,0,0,90,false,stim,true,1,1677.1699999808334,0,0,2,14312,WMM1,463992,false,false,350,image-keyboard-response,3
true,2,1,1,2,false,d,true,false,0.0-2.0-0.4-0.37-3.37,0,0,0,90,false,stim,false,0,1920.8550000330433,0,0,1,14312,WMM1,467436,false,false,353,image-keyboard-response,4
true,2,0,1,2,false,d,false,false,0.0-2.0-0.4-0.38-3.38,0,0,0,81,false,stim,true,0,2439.7549999994226,0,0,1,14312,WMM1,471392,false,false,356,image-keyboard-response,5
true,2,2,1,0,false,q,true,false,0.0-2.0-0.4-0.39-3.39,0,0,0,68,false,stim,false,1,1808.8800000259653,0,0,2,14312,WMM1,474730,false,false,359,image-keyboard-response,6
true,2,2,1,1,false,z,false,false,0.0-2.0-0.4-0.40-3.40,0,0,0,68,false,stim,true,2,818.9150000107475,0,0,0,14312,WMM1,477082,false,false,362,image-keyboard-response,7
true,2,1,1,1,true,z,false,true,0.0-2.0-0.4-0.41-3.41,0,0,0,90,false,stim,false,2,1220.7449999987148,0,0,0,14312,WMM1,479828,false,false,365,image-keyboard-response,8
true,2,1,1,0,false,q,false,false,0.0-2.0-0.4-0.42-3.42,0,0,0,90,false,stim,true,1,915.839999972377,0,0,2,14312,WMM1,482266,false,false,368,image-keyboard-response,9
true,2,1,1,2,false,d,true,false,0.0-2.0-0.4-0.43-3.43,0,0,0,90,false,stim,false,0,1273.250000027474,0,0,1,14312,WMM1,485069,false,false,371,image-keyboard-response,10
true,2,1,1,1,true,z,false,false,0.0-2.0-0.4-0.44-3.44,0,0,0,90,false,stim,false,2,661.614999989979,0,0,0,14312,WMM1,487253,false,true,374,image-keyboard-response,11
true,2,2,1,1,false,z,false,false,0.0-2.0-0.5-0.45-3.45,0,0,0,68,false,stim,true,2,1552.0849999738857,0,0,0,14312,WMM1,490325,false,false,377,image-keyboard-response,12
true,2,0,1,0,true,q,false,true,0.0-2.0-0.5-0.46-3.46,0,0,0,81,false,stim,false,1,1199.1899999557063,0,0,2,14312,WMM1,493052,false,false,380,image-keyboard-response,13
true,2,0,1,1,false,z,true,false,0.0-2.0-0.5-0.47-3.47,0,0,0,81,false,stim,false,2,1500.209999969229,0,0,0,14312,WMM1,496085,false,false,383,image-keyboard-response,14
true,2,1,1,2,false,d,true,false,0.0-2.0-0.5-0.48-3.48,0,0,0,90,false,stim,false,0,2588.0050000268966,0,0,1,14312,WMM1,500203,false,false,386,image-keyboard-response,15
true,2,2,1,0,false,q,true,false,0.0-2.0-0.5-0.49-3.49,0,0,0,68,false,stim,false,1,2092.709999997169,0,0,2,14312,WMM1,503809,false,false,389,image-keyboard-response,16
true,2,0,1,0,true,q,false,true,0.0-2.0-0.5-0.50-3.50,0,0,0,81,false,stim,false,1,1656.8250000127591,0,0,2,14312,WMM1,506987,false,false,392,image-keyboard-response,17
true,2,1,1,2,false,d,true,false,0.0-2.0-0.5-0.51-3.51,0,0,0,90,false,stim,false,0,2412.285000027623,0,0,1,14312,WMM1,510921,false,false,395,image-keyboard-response,18
true,2,2,1,1,false,z,false,false,0.0-2.0-0.5-0.52-3.52,0,0,0,68,false,stim,true,2,1321.3050000485964,0,0,0,14312,WMM1,513770,false,false,398,image-keyboard-response,19
true,2,2,1,2,true,d,false,true,0.0-2.0-0.5-0.53-3.53,0,0,0,68,false,stim,false,0,2143.400000000838,0,0,1,14312,WMM1,517430,false,false,401,image-keyboard-response,20
true,2,1,1,1,true,z,false,true,0.0-2.0-0.6-0.54-3.54,0,0,0,90,false,stim,false,2,1403.935000009369,0,0,0,14312,WMM1,520367,false,false,404,image-keyboard-response,21
true,2,1,1,1,true,z,false,true,0.0-2.0-0.6-0.55-3.55,0,0,0,90,false,stim,false,2,639.1700000385754,0,0,0,14312,WMM1,522536,false,false,407,image-keyboard-response,22
true,2,2,1,2,true,d,false,true,0.0-2.0-0.6-0.56-3.56,0,0,0,68,false,stim,false,0,987.0399999781512,0,0,1,14312,WMM1,525048,false,false,410,image-keyboard-response,23
true,2,0,1,0,true,q,false,true,0.0-2.0-0.6-0.57-3.57,0,0,0,81,false,stim,false,1,1017.8450000239536,0,0,2,14312,WMM1,527599,false,false,413,image-keyboard-response,24
true,2,1,1,1,true,z,false,true,0.0-2.0-0.6-0.58-3.58,0,0,0,90,false,stim,false,2,1680.5900000035763,0,1,0,14312,WMM1,530798,false,false,416,image-keyboard-response,25
true,2,2,1,0,false,q,true,false,0.0-2.0-0.6-0.59-3.59,0,0,0,68,false,stim,false,1,846.3149999734014,0,0,2,14312,WMM1,533169,false,false,419,image-keyboard-response,26
true,2,2,1,2,true,d,false,true,0.0-2.0-0.6-0.60-3.60,0,0,0,68,false,stim,false,0,848.9999999874271,0,0,1,14312,WMM1,535543,false,false,422,image-keyboard-response,27
true,2,2,1,0,false,q,true,false,0.0-2.0-0.6-0.61-3.61,0,0,0,68,false,stim,false,1,1161.2800000002608,0,0,2,14312,WMM1,538226,false,false,425,image-keyboard-response,28
true,2,2,1,2,true,d,false,true,0.0-2.0-0.6-0.62-3.62,0,0,0,68,false,stim,false,0,1043.4649999951944,0,0,1,14312,WMM1,540800,false,false,428,image-keyboard-response,29
true,2,2,1,2,true,d,false,true,0.0-2.0-0.7-0.63-3.63,0,0,0,68,false,stim,false,0,1004.6499999589287,0,0,1,14312,WMM1,543346,false,false,431,image-keyboard-response,30
true,2,0,1,0,true,q,false,true,0.0-2.0-0.7-0.64-3.64,0,0,0,81,false,stim,false,1,1067.589999991469,0,0,2,14312,WMM1,545929,false,false,434,image-keyboard-response,31
true,2,0,1,0,true,q,false,true,0.0-2.0-0.7-0.65-3.65,0,0,0,81,false,stim,false,1,989.6900000167079,0,0,2,14312,WMM1,548449,false,false,437,image-keyboard-response,32
true,2,1,1,1,true,z,false,true,0.0-2.0-0.7-0.66-3.66,0,0,0,90,false,stim,false,2,652.3549999692477,0,1,0,14312,WMM1,550626,false,false,440,image-keyboard-response,33
true,2,1,1,1,true,z,false,true,0.0-2.0-0.7-0.67-3.67,0,0,0,90,false,stim,false,2,675.8300000219606,0,1,0,14312,WMM1,552823,false,false,443,image-keyboard-response,34
true,3,0,3,1,false,z,false,false,0.0-2.0-0.7-0.68-3.68,1,0,0,81,true,stim,true,0,2154.214999987744,0,0,2,14312,WMM1,556496,false,false,446,image-keyboard-response,1
true,3,2,3,1,false,z,true,true,0.0-2.0-0.7-0.69-3.69,1,0,0,68,false,stim,false,1,1798.2049999991432,0,1,0,14312,WMM1,559822,false,true,449,image-keyboard-response,2
false,3,-1,3,0,false,q,true,false,0.0-2.0-0.7-0.70-3.70,1,0,0,,false,stim,false,2,,0,0,1,14312,WMM1,564377,false,false,452,image-keyboard-response,3
true,3,1,3,0,false,q,true,false,0.0-2.0-0.7-0.71-3.71,1,0,0,90,false,stim,false,2,1625.5900000105612,0,0,1,14312,WMM1,567520,false,false,455,image-keyboard-response,4
true,3,0,3,0,true,q,false,true,0.0-2.0-0.8-0.72-3.72,1,0,0,81,false,stim,false,2,1614.8050000192598,0,0,1,14312,WMM1,570666,false,false,458,image-keyboard-response,5
true,3,1,3,1,true,z,false,true,0.0-2.0-0.8-0.73-3.73,1,0,0,90,false,stim,false,0,2099.8900000122376,0,0,2,14312,WMM1,574293,false,false,461,image-keyboard-response,6
true,3,2,3,1,false,z,true,true,0.0-2.0-0.8-0.74-3.74,1,0,0,68,false,stim,false,1,2567.499999946449,0,1,0,14312,WMM1,578380,false,true,464,image-keyboard-response,7
true,3,1,3,0,false,q,true,false,0.0-2.0-0.8-0.75-3.75,1,0,0,90,false,stim,false,2,1607.7050000312738,0,0,1,14312,WMM1,581520,false,false,467,image-keyboard-response,8
true,3,2,3,1,false,z,true,false,0.0-2.0-0.8-0.76-3.76,1,0,0,68,false,stim,false,0,1859.7700000391342,0,0,2,14312,WMM1,584907,false,false,470,image-keyboard-response,9
true,3,0,3,1,false,z,false,false,0.0-2.0-0.8-0.77-3.77,1,0,0,81,false,stim,true,0,1135.5050000129268,0,0,2,14312,WMM1,587565,false,false,473,image-keyboard-response,10
true,3,1,3,1,true,z,false,true,0.0-2.0-0.8-0.78-3.78,1,0,0,90,false,stim,false,1,1559.7650000127032,0,1,0,14312,WMM1,590671,false,false,476,image-keyboard-response,11
true,3,1,3,1,true,z,false,true,0.0-2.0-0.8-0.79-3.79,1,0,0,90,false,stim,false,1,1968.0499999667518,0,1,0,14312,WMM1,594182,false,false,479,image-keyboard-response,12
true,3,2,3,0,false,q,false,false,0.0-2.0-0.8-0.80-3.80,1,0,0,68,false,stim,true,2,2292.7099999506027,0,0,1,14312,WMM1,597999,false,false,482,image-keyboard-response,13
true,3,0,3,1,false,z,false,false,0.0-2.0-0.9-0.81-3.81,1,0,0,81,false,stim,true,0,1091.1100000375882,0,0,2,14312,WMM1,600611,false,false,485,image-keyboard-response,14
true,3,0,3,0,true,q,false,true,0.0-2.0-0.9-0.82-3.82,1,0,0,81,false,stim,false,2,561.649999988731,0,0,1,14312,WMM1,602708,false,false,488,image-keyboard-response,15
true,3,2,3,1,false,z,true,false,0.0-2.0-0.9-0.83-3.83,1,0,0,68,false,stim,false,0,1090.4049999662675,0,0,2,14312,WMM1,605325,false,false,491,image-keyboard-response,16
true,3,1,3,0,false,q,true,false,0.0-2.0-0.9-0.84-3.84,1,0,0,90,false,stim,false,2,745.4049999942072,0,0,1,14312,WMM1,607601,false,false,494,image-keyboard-response,17
true,3,0,3,0,true,q,false,true,0.0-2.0-0.9-0.85-3.85,1,0,0,81,false,stim,false,2,985.9400000423193,0,0,1,14312,WMM1,610106,false,false,497,image-keyboard-response,18
true,3,1,3,1,true,z,false,true,0.0-2.0-0.9-0.86-3.86,1,0,0,90,false,stim,false,1,656.6799999563955,0,1,0,14312,WMM1,612291,false,false,500,image-keyboard-response,19
true,3,1,3,1,true,z,false,true,0.0-2.0-0.9-0.87-3.87,1,0,0,90,false,stim,false,1,679.7849999857135,0,1,0,14312,WMM1,614505,false,false,503,image-keyboard-response,20
true,3,1,3,1,true,z,false,true,0.0-2.0-0.9-0.88-3.88,1,0,0,90,false,stim,false,1,657.0250000222586,0,1,0,14312,WMM1,616687,false,false,506,image-keyboard-response,21
true,3,1,3,1,true,z,false,true,0.0-2.0-0.9-0.89-3.89,1,0,0,90,false,stim,false,0,1793.7150000361726,0,0,2,14312,WMM1,620000,false,false,509,image-keyboard-response,22
true,3,1,3,1,true,z,false,true,0.0-2.0-0.10-0.90-3.90,1,0,0,90,false,stim,false,1,770.8800000254996,0,1,0,14312,WMM1,622311,false,false,512,image-keyboard-response,23
true,3,1,3,1,true,z,false,true,0.0-2.0-0.10-0.91-3.91,1,0,0,90,false,stim,false,0,459.4400000059977,0,0,2,14312,WMM1,624312,false,false,515,image-keyboard-response,24
true,3,1,3,1,true,z,false,true,0.0-2.0-0.10-0.92-3.92,1,0,0,90,false,stim,false,0,793.1399999652058,0,0,2,14312,WMM1,626645,false,false,518,image-keyboard-response,25
true,3,0,3,0,true,q,false,true,0.0-2.0-0.10-0.93-3.93,1,0,0,81,false,stim,false,2,1118.6699999962002,0,0,1,14312,WMM1,629285,false,false,521,image-keyboard-response,26
true,3,1,3,1,true,z,false,true,0.0-2.0-0.10-0.94-3.94,1,0,0,90,false,stim,false,0,637.6849999651313,0,0,2,14312,WMM1,631453,false,false,524,image-keyboard-response,27
true,3,0,3,0,true,q,false,true,0.0-2.0-0.10-0.95-3.95,1,0,0,81,false,stim,false,2,1422.4400000530295,0,0,1,14312,WMM1,634396,false,false,527,image-keyboard-response,28
true,3,1,3,1,true,z,false,true,0.0-2.0-0.10-0.96-3.96,1,0,0,90,false,stim,false,1,689.9299999931827,0,0,0,14312,WMM1,636614,false,false,530,image-keyboard-response,29
true,3,1,3,1,true,z,false,true,0.0-2.0-0.10-0.97-3.97,1,0,0,90,false,stim,false,1,566.5100000333041,0,0,0,14312,WMM1,638709,false,false,533,image-keyboard-response,30
true,3,0,3,0,true,q,false,true,0.0-2.0-0.10-0.98-3.98,1,0,0,81,false,stim,false,2,1127.3000000510365,0,0,1,14312,WMM1,641370,false,false,536,image-keyboard-response,31
true,3,1,3,1,true,z,false,true,0.0-2.0-0.11-0.99-3.99,1,0,0,90,false,stim,false,1,617.2850000439212,0,0,0,14312,WMM1,643521,false,false,539,image-keyboard-response,32
true,3,1,3,1,true,z,false,true,0.0-2.0-0.11-0.100-3.100,1,0,0,90,false,stim,false,0,641.059999994468,0,0,2,14312,WMM1,645699,false,false,542,image-keyboard-response,33
true,3,0,3,0,true,q,false,true,0.0-2.0-0.11-0.101-3.101,1,0,0,81,false,stim,false,2,1018.0950000067241,0,0,1,14312,WMM1,648251,false,false,545,image-keyboard-response,34
true,3,1,3,1,true,z,false,true,0.0-2.0-0.11-0.102-3.102,1,0,0,90,false,stim,false,0,522.3049999913201,0,0,2,14312,WMM1,650298,false,false,548,image-keyboard-response,35
true,3,1,3,1,true,z,false,true,0.0-2.0-0.11-0.103-3.103,1,0,0,90,false,stim,false,0,538.0499999737367,0,0,2,14312,WMM1,652375,false,false,551,image-keyboard-response,36
true,4,0,4,1,false,z,false,false,0.0-2.0-0.11-0.104-3.104,0,0,0,81,true,stim,true,0,1353.6450000246987,0,0,1,14312,WMM1,655262,false,false,554,image-keyboard-response,1
true,4,1,4,0,false,q,false,false,0.0-2.0-0.11-0.105-3.105,0,0,0,90,false,stim,true,1,768.8749999506399,0,0,0,14312,WMM1,657557,false,false,557,image-keyboard-response,2
true,4,0,4,0,true,q,false,true,0.0-2.0-0.11-0.106-3.106,0,0,0,81,false,stim,false,1,2064.3849999760278,0,0,0,14312,WMM1,661151,false,false,560,image-keyboard-response,3
true,4,1,4,1,true,z,false,true,0.0-2.0-0.11-0.107-3.107,0,0,0,90,false,stim,false,0,1738.500000035856,0,0,1,14312,WMM1,664415,false,false,563,image-keyboard-response,4
true,4,2,4,2,true,d,false,true,0.0-2.0-0.12-0.108-3.108,0,0,0,68,false,stim,false,1,1633.12999997288,0,0,2,14312,WMM1,667589,false,false,566,image-keyboard-response,5
true,4,0,4,0,true,q,false,true,0.0-2.0-0.12-0.109-3.109,0,0,0,81,false,stim,false,1,1521.5649999445304,0,0,0,14312,WMM1,670626,false,false,569,image-keyboard-response,6
true,4,2,4,2,true,d,false,true,0.0-2.0-0.12-0.110-3.110,0,0,0,68,false,stim,false,1,1039.3400000175461,0,0,2,14312,WMM1,673189,false,false,572,image-keyboard-response,7
true,4,1,4,1,true,z,false,false,0.0-2.0-0.12-0.111-3.111,0,0,0,90,false,stim,false,0,540.6649999786168,0,0,1,14312,WMM1,675268,false,true,575,image-keyboard-response,8
true,4,0,4,2,false,d,true,true,0.0-2.0-0.12-0.112-3.112,0,0,0,81,false,stim,false,1,2298.9599999855272,0,0,2,14312,WMM1,679097,false,true,578,image-keyboard-response,9
true,4,2,4,1,false,z,true,false,0.0-2.0-0.12-0.113-3.113,0,0,0,68,false,stim,false,0,2278.355000016745,0,0,1,14312,WMM1,682905,false,false,581,image-keyboard-response,10
true,4,0,4,0,true,q,false,true,0.0-2.0-0.12-0.114-3.114,0,0,0,81,false,stim,false,1,1543.5799999977462,0,0,0,14312,WMM1,685978,false,false,584,image-keyboard-response,11
true,4,0,4,0,true,q,false,true,0.0-2.0-0.12-0.115-3.115,0,0,0,81,false,stim,false,1,1423.5800000024028,0,0,0,14312,WMM1,688926,false,false,587,image-keyboard-response,12
true,4,0,4,1,false,z,false,false,0.0-2.0-0.12-0.116-3.116,0,0,0,81,false,stim,true,0,646.645000029821,0,0,1,14312,WMM1,691105,false,false,590,image-keyboard-response,13
true,4,0,4,0,true,q,false,true,0.0-2.0-0.13-0.117-3.117,0,0,0,81,false,stim,false,1,632.3899999842979,0,0,0,14312,WMM1,693259,false,false,593,image-keyboard-response,14
true,4,0,4,0,true,q,false,true,0.0-2.0-0.13-0.118-3.118,0,0,0,81,false,stim,false,1,511.05999998981133,0,0,0,14312,WMM1,695301,false,false,596,image-keyboard-response,15
true,4,0,4,2,false,d,true,false,0.0-2.0-0.13-0.119-3.119,0,0,0,81,false,stim,false,1,600.7499999832362,0,0,2,14312,WMM1,697437,false,false,599,image-keyboard-response,16
true,4,2,4,1,false,z,true,true,0.0-2.0-0.13-0.120-3.120,0,0,0,68,false,stim,false,0,1186.0499999602325,0,0,1,14312,WMM1,700159,false,true,602,image-keyboard-response,17
true,4,2,4,1,false,z,true,false,0.0-2.0-0.13-0.121-3.121,0,0,0,68,false,stim,false,0,448.7949999747798,0,0,1,14312,WMM1,702124,false,false,605,image-keyboard-response,18
true,4,2,4,1,false,z,true,false,0.0-2.0-0.13-0.122-3.122,0,0,0,68,false,stim,false,0,657.7649999526329,0,0,1,14312,WMM1,704327,false,false,608,image-keyboard-response,19
true,4,0,4,0,true,q,false,true,0.0-2.0-0.13-0.123-3.123,0,0,0,81,false,stim,false,1,2795.2950000180863,0,0,0,14312,WMM1,708658,false,false,611,image-keyboard-response,20
true,4,0,4,2,false,d,true,false,0.0-2.0-0.13-0.124-3.124,0,0,0,81,false,stim,false,1,2820.62999997288,0,0,2,14312,WMM1,713026,false,false,614,image-keyboard-response,21
true,4,1,4,2,false,d,false,false,0.0-2.0-0.13-0.125-3.125,0,0,0,90,false,stim,true,1,673.1150000123307,0,0,2,14312,WMM1,715246,false,false,617,image-keyboard-response,22
true,4,0,4,0,true,q,false,true,0.0-2.0-0.14-0.126-3.126,0,0,0,81,false,stim,false,1,1122.4549999460578,0,0,0,14312,WMM1,717894,false,false,620,image-keyboard-response,23
true,4,0,4,0,true,q,false,true,0.0-2.0-0.14-0.127-3.127,0,0,0,81,false,stim,false,1,1025.164999999106,0,0,0,14312,WMM1,720445,false,false,623,image-keyboard-response,24
true,4,0,4,0,true,q,false,true,0.0-2.0-0.14-0.128-3.128,0,0,0,81,false,stim,false,1,828.4499999717809,0,0,0,14312,WMM1,722810,false,false,626,image-keyboard-response,25
true,4,2,4,2,true,d,false,true,0.0-2.0-0.14-0.129-3.129,0,0,0,68,false,stim,false,1,678.5350000136532,0,0,2,14312,WMM1,725028,false,false,629,image-keyboard-response,26
true,4,1,4,1,true,z,false,true,0.0-2.0-0.14-0.130-3.130,0,0,0,90,false,stim,false,0,1517.8650000016205,0,0,1,14312,WMM1,728080,false,false,632,image-keyboard-response,27
true,4,1,4,1,true,z,false,true,0.0-2.0-0.14-0.131-3.131,0,0,0,90,false,stim,false,0,750.8249999955297,0,0,1,14312,WMM1,730360,false,false,635,image-keyboard-response,28
true,4,1,4,1,true,z,false,true,0.0-2.0-0.14-0.132-3.132,0,0,0,90,false,stim,false,0,468.12999999383464,0,0,1,14312,WMM1,732367,false,false,638,image-keyboard-response,29
true,4,2,4,2,true,d,false,true,0.0-2.0-0.14-0.133-3.133,0,0,0,68,false,stim,false,1,1071.010000014212,0,0,2,14312,WMM1,734978,false,false,641,image-keyboard-response,30
true,4,2,4,2,true,d,false,false,0.0-2.0-0.14-0.134-3.134,0,0,0,68,false,stim,false,1,794.6499999961816,0,0,2,14312,WMM1,737307,false,true,644,image-keyboard-response,31
true,4,0,4,2,false,d,true,false,0.0-2.0-0.15-0.135-3.135,0,0,0,81,false,stim,false,1,1461.5049999556504,0,0,2,14312,WMM1,740313,false,false,647,image-keyboard-response,32
true,4,0,4,0,true,q,false,true,0.0-2.0-0.15-0.136-3.136,0,0,0,81,false,stim,false,1,909.2599999858066,0,0,0,14312,WMM1,742755,false,false,650,image-keyboard-response,33
true,4,0,4,0,true,q,false,true,0.0-2.0-0.15-0.137-3.137,0,0,0,81,false,stim,false,1,1093.059999984689,0,0,0,14312,WMM1,745372,false,false,653,image-keyboard-response,34
true,4,1,4,2,false,d,false,false,0.0-2.0-0.15-0.138-3.138,0,0,0,90,false,stim,true,1,675.9699999820441,0,0,2,14312,WMM1,747585,false,false,656,image-keyboard-response,35
true,4,2,4,1,false,z,true,false,0.0-2.0-0.15-0.139-3.139,0,0,0,68,false,stim,false,0,1652.4550000322051,0,0,1,14312,WMM1,750777,false,false,659,image-keyboard-response,36
true,4,0,4,1,false,z,false,false,0.0-2.0-0.15-0.140-3.140,0,0,0,81,false,stim,true,0,841.6100000031292,0,0,1,14312,WMM1,753162,false,false,662,image-keyboard-response,37
true,4,0,4,0,true,q,false,true,0.0-2.0-0.15-0.141-3.141,0,0,0,81,false,stim,false,1,645.0150000164285,0,0,0,14312,WMM1,755332,false,false,665,image-keyboard-response,38
true,4,1,4,1,true,z,false,true,0.0-2.0-0.15-0.142-3.142,0,0,0,90,false,stim,false,0,1468.4400000260212,0,0,1,14312,WMM1,758335,false,false,668,image-keyboard-response,39
true,4,0,4,2,false,d,true,false,0.0-2.0-0.15-0.143-3.143,0,0,0,81,false,stim,false,1,1497.8450000053272,0,0,2,14312,WMM1,761388,false,false,671,image-keyboard-response,40
true,5,0,2,1,false,z,false,false,0.0-2.0-0.16-0.144-3.144,0,0,0,81,true,stim,true,0,1084.5700000063516,0,0,0,14312,WMM1,764016,false,false,674,image-keyboard-response,1
true,5,1,2,0,false,q,true,false,0.0-2.0-0.16-0.145-3.145,0,0,0,90,false,stim,false,2,693.8800000352785,0,0,2,14312,WMM1,766252,false,false,677,image-keyboard-response,2
true,5,1,2,1,true,z,false,true,0.0-2.0-0.16-0.146-3.146,0,0,0,90,false,stim,false,0,1789.3899999908172,0,0,0,14312,WMM1,769572,false,false,680,image-keyboard-response,3
true,5,1,2,1,true,z,false,true,0.0-2.0-0.16-0.147-3.147,0,0,0,90,false,stim,false,0,700.0799999805167,0,0,0,14312,WMM1,771803,false,false,683,image-keyboard-response,4
true,5,2,2,0,false,q,false,false,0.0-2.0-0.16-0.148-3.148,0,0,0,68,false,stim,true,2,1370.8549999864772,0,0,2,14312,WMM1,774705,false,false,686,image-keyboard-response,5
true,5,1,2,0,false,q,true,true,0.0-2.0-0.16-0.149-3.149,0,0,0,90,false,stim,false,2,649.2050000233576,0,0,2,14312,WMM1,776879,false,true,689,image-keyboard-response,6
true,5,1,2,2,false,d,false,false,0.0-2.0-0.16-0.150-3.150,0,0,0,90,false,stim,true,1,1065.5299999634735,0,0,1,14312,WMM1,779478,false,false,692,image-keyboard-response,7
true,5,0,2,2,false,d,true,false,0.0-2.0-0.16-0.151-3.151,0,0,0,81,false,stim,false,1,993.4549999888986,0,0,1,14312,WMM1,782004,false,false,695,image-keyboard-response,8
true,5,2,2,2,true,d,false,true,0.0-2.0-0.16-0.152-3.152,0,0,0,68,false,stim,false,1,665.1399999973364,0,0,1,14312,WMM1,784205,false,false,698,image-keyboard-response,9
true,5,1,2,0,false,q,true,false,0.0-2.0-0.17-0.153-3.153,0,0,0,90,false,stim,false,2,983.8749999762513,0,0,2,14312,WMM1,786712,false,false,701,image-keyboard-response,10
true,5,2,2,2,true,d,false,true,0.0-2.0-0.17-0.154-3.154,0,0,0,68,false,stim,false,1,2063.694999960717,0,0,1,14312,WMM1,790319,false,false,704,image-keyboard-response,11
true,5,1,2,1,true,z,false,true,0.0-2.0-0.17-0.155-3.155,0,0,0,90,false,stim,false,0,1654.3500000261702,0,0,0,14312,WMM1,793509,false,false,707,image-keyboard-response,12
true,5,0,2,0,true,q,false,true,0.0-2.0-0.17-0.156-3.156,0,0,0,81,false,stim,false,2,1773.0249999440275,0,0,2,14312,WMM1,796818,false,false,710,image-keyboard-response,13
true,5,1,2,1,true,z,false,true,0.0-2.0-0.17-0.157-3.157,0,0,0,90,false,stim,false,0,1060.4199999943376,0,0,0,14312,WMM1,799402,false,false,713,image-keyboard-response,14
true,5,1,2,2,false,d,false,false,0.0-2.0-0.17-0.158-3.158,0,0,0,90,false,stim,true,1,2304.3800000450574,0,0,1,14312,WMM1,803235,false,false,716,image-keyboard-response,15
true,5,2,2,2,true,d,false,true,0.0-2.0-0.17-0.159-3.159,0,0,0,68,false,stim,false,1,1151.5150000341237,0,0,1,14312,WMM1,805928,false,false,719,image-keyboard-response,16
true,5,1,2,1,true,z,false,true,0.0-2.0-0.17-0.160-3.160,0,0,0,90,false,stim,false,0,1287.2050000005402,0,0,0,14312,WMM1,808763,false,false,722,image-keyboard-response,17
true,5,0,2,0,true,q,false,false,0.0-2.0-0.17-0.161-3.161,0,0,0,81,false,stim,false,2,1329.894999973476,0,0,2,14312,WMM1,811633,false,true,725,image-keyboard-response,18
true,5,2,2,2,true,d,false,true,0.0-2.0-0.18-0.162-3.162,0,0,0,68,false,stim,false,1,975.8049999945797,0,0,1,14312,WMM1,814145,false,false,728,image-keyboard-response,19
true,5,1,2,0,false,q,true,false,0.0-2.0-0.18-0.163-3.163,0,0,0,90,false,stim,false,2,1178.6850000498816,0,0,2,14312,WMM1,816853,false,false,731,image-keyboard-response,20
true,5,2,2,0,false,q,false,false,0.0-2.0-0.18-0.164-3.164,0,0,0,68,false,stim,true,2,1209.4200000283308,0,0,2,14312,WMM1,819607,false,false,734,image-keyboard-response,21
true,5,1,2,1,true,z,false,true,0.0-2.0-0.18-0.165-3.165,0,0,0,90,false,stim,false,0,2338.014999986626,0,0,0,14312,WMM1,823481,false,false,737,image-keyboard-response,22
true,5,0,2,2,false,d,true,false,0.0-2.0-0.18-0.166-3.166,0,0,0,81,false,stim,false,1,1938.1549999816343,0,0,1,14312,WMM1,826958,false,false,740,image-keyboard-response,23
true,5,2,2,0,false,q,false,false,0.0-2.0-0.18-0.167-3.167,0,0,0,68,false,stim,true,2,2382.9050000058487,0,0,2,14312,WMM1,830880,false,false,743,image-keyboard-response,24
true,5,1,2,2,false,d,false,true,0.0-2.0-0.18-0.168-3.168,0,0,0,90,false,stim,true,1,703.3299999893643,0,0,1,14312,WMM1,833119,false,true,746,image-keyboard-response,25
true,5,1,2,1,true,z,false,true,0.0-2.0-0.18-0.169-3.169,0,0,0,90,false,stim,false,0,2045.5499999807216,0,0,0,14312,WMM1,836706,false,false,749,image-keyboard-response,26
true,5,1,2,1,true,z,false,true,0.0-2.0-0.18-0.170-3.170,0,0,0,90,false,stim,false,0,806.5100000239909,0,0,0,14312,WMM1,839043,false,false,752,image-keyboard-response,27
true,5,1,2,1,true,z,false,true,0.0-2.0-0.19-0.171-3.171,0,0,0,90,false,stim,false,0,623.4950000070967,0,0,0,14312,WMM1,841214,false,false,755,image-keyboard-response,28
true,5,1,2,1,true,z,false,true,0.0-2.0-0.19-0.172-3.172,0,0,0,90,false,stim,false,0,696.7300000251271,0,0,0,14312,WMM1,843448,false,false,758,image-keyboard-response,29
true,5,0,2,0,true,q,false,true,0.0-2.0-0.19-0.173-3.173,0,0,0,81,false,stim,false,2,1149.7850000159815,0,0,2,14312,WMM1,846137,false,false,761,image-keyboard-response,30
true,5,2,2,2,true,d,false,true,0.0-2.0-0.19-0.174-3.174,0,0,0,68,false,stim,false,1,1382.9399999813177,0,0,1,14312,WMM1,849046,false,false,764,image-keyboard-response,31
true,5,2,2,2,true,d,false,true,0.0-2.0-0.19-0.175-3.175,0,0,0,68,false,stim,false,1,1035.520000034012,0,0,1,14312,WMM1,851637,false,false,767,image-keyboard-response,32
true,5,1,2,1,true,z,false,true,0.0-2.0-0.19-0.176-3.176,0,0,0,90,false,stim,false,0,1067.139999999199,0,0,0,14312,WMM1,854253,false,false,770,image-keyboard-response,33
true,5,0,2,0,true,q,false,true,0.0-2.0-0.19-0.177-3.177,0,0,0,81,false,stim,false,2,1166.1949999979697,0,0,2,14312,WMM1,856959,false,false,773,image-keyboard-response,34
true,5,1,2,2,false,d,false,false,0.0-2.0-0.19-0.178-3.178,0,0,0,90,false,stim,true,1,1087.1649999753572,0,0,1,14312,WMM1,859579,false,false,776,image-keyboard-response,35
true,5,0,2,0,true,q,false,true,0.0-2.0-0.19-0.179-3.179,0,0,0,81,false,stim,false,2,1261.324999970384,0,0,2,14312,WMM1,862372,false,false,779,image-keyboard-response,36
true,5,2,2,0,false,q,false,false,0.0-2.0-0.20-0.180-3.180,0,0,0,68,false,stim,true,2,675.9799999999814,0,0,2,14312,WMM1,864581,false,false,782,image-keyboard-response,37
true,5,0,2,2,false,d,true,false,0.0-2.0-0.20-0.181-3.181,0,0,0,81,false,stim,false,1,1669.9699999880977,0,0,1,14312,WMM1,867795,false,false,785,image-keyboard-response,38
true,5,0,2,1,false,z,false,false,0.0-2.0-0.20-0.182-3.182,0,0,0,81,false,stim,true,0,1703.6949999746867,0,0,0,14312,WMM1,871030,false,false,788,image-keyboard-response,39
true,5,2,2,2,true,d,false,true,0.0-2.0-0.20-0.183-3.183,0,0,0,68,false,stim,false,1,1470.725000021048,0,0,1,14312,WMM1,874032,false,false,791,image-keyboard-response,40
true,5,1,2,1,true,z,false,true,0.0-2.0-0.20-0.184-3.184,0,0,0,90,false,stim,false,0,607.8700000070967,0,0,0,14312,WMM1,876179,false,false,794,image-keyboard-response,41
true,5,2,2,2,true,d,false,true,0.0-2.0-0.20-0.185-3.185,0,0,0,68,false,stim,false,1,968.4650000417605,0,0,1,14312,WMM1,878694,false,false,797,image-keyboard-response,42
true,5,0,2,0,true,q,false,true,0.0-2.0-0.20-0.186-3.186,0,0,0,81,false,stim,false,2,1185.1100000203587,0,0,2,14312,WMM1,881411,false,false,800,image-keyboard-response,43
true,5,0,2,0,true,q,false,true,0.0-2.0-0.20-0.187-3.187,0,0,0,81,false,stim,false,2,1132.2349999682046,0,0,2,14312,WMM1,884080,false,false,803,image-keyboard-response,44
true,6,1,1,2,false,d,false,false,0.0-2.0-0.20-0.188-3.188,0,0,0,90,true,stim,true,1,921.7000000062399,0,0,0,14312,WMM1,886539,false,false,806,image-keyboard-response,1
true,6,2,1,1,false,z,false,true,0.0-2.0-0.21-0.189-3.189,0,0,0,68,false,stim,true,2,1087.2950000339188,0,0,1,14312,WMM1,889158,false,true,809,image-keyboard-response,2
true,6,0,1,2,false,d,false,false,0.0-2.0-0.21-0.190-3.190,0,0,0,81,false,stim,true,0,1191.2649999721907,0,0,2,14312,WMM1,891881,false,false,812,image-keyboard-response,3
true,6,1,1,2,false,d,true,false,0.0-2.0-0.21-0.191-3.191,0,0,0,90,false,stim,false,0,489.54500001855195,0,0,2,14312,WMM1,893897,false,false,815,image-keyboard-response,4
true,6,1,1,2,false,d,false,false,0.0-2.0-0.21-0.192-3.192,0,0,0,90,false,stim,true,1,1959.8300000070594,0,0,0,14312,WMM1,897381,false,false,818,image-keyboard-response,5
true,6,2,1,1,false,z,false,false,0.0-2.0-0.21-0.193-3.193,0,0,0,68,false,stim,true,2,1494.5350000052713,0,0,1,14312,WMM1,900415,false,false,821,image-keyboard-response,6
true,6,1,1,2,false,d,true,false,0.0-2.0-0.21-0.194-3.194,0,0,0,90,false,stim,false,0,1486.1999999848194,0,0,2,14312,WMM1,903448,false,false,824,image-keyboard-response,7
true,6,1,1,2,false,d,false,false,0.0-2.0-0.21-0.195-3.195,0,0,0,90,false,stim,true,1,1833.8649999932386,0,0,0,14312,WMM1,906823,false,false,827,image-keyboard-response,8
true,6,0,1,1,false,z,true,false,0.0-2.0-0.21-0.196-3.196,0,0,0,81,false,stim,false,2,918.8700000522658,0,0,1,14312,WMM1,909276,false,false,830,image-keyboard-response,9
true,6,0,1,2,false,d,true,true,0.0-2.0-0.21-0.197-3.197,0,0,0,81,false,stim,false,1,783.6450000177138,0,0,0,14312,WMM1,911585,false,true,833,image-keyboard-response,10
true,6,0,1,2,false,d,false,false,0.0-2.0-0.22-0.198-3.198,0,0,0,81,false,stim,true,0,1054.2900000000373,0,0,2,14312,WMM1,914173,false,false,836,image-keyboard-response,11
true,6,0,1,2,false,d,true,false,0.0-2.0-0.22-0.199-3.199,0,0,0,81,false,stim,false,1,947.2000000532717,0,0,0,14312,WMM1,916645,false,false,839,image-keyboard-response,12
true,6,1,1,2,false,d,false,false,0.0-2.0-0.22-0.200-3.200,0,0,0,90,false,stim,true,1,828.7600000039674,0,0,0,14312,WMM1,919009,false,false,842,image-keyboard-response,13
true,6,1,1,2,false,d,false,false,0.0-2.0-0.22-0.201-3.201,0,0,0,90,false,stim,true,1,689.2549999756739,0,0,0,14312,WMM1,921227,false,false,845,image-keyboard-response,14
true,6,1,1,1,true,z,false,true,0.0-2.0-0.22-0.202-3.202,0,0,0,90,false,stim,false,2,671.2449999758974,0,0,1,14312,WMM1,923444,false,false,848,image-keyboard-response,15
true,6,1,1,1,true,z,false,true,0.0-2.0-0.22-0.203-3.203,0,0,0,90,false,stim,false,2,660.7499999809079,0,0,1,14312,WMM1,925650,false,false,851,image-keyboard-response,16
true,6,1,1,1,true,z,false,true,0.0-2.0-0.22-0.204-3.204,0,0,0,90,false,stim,false,2,677.1799999987707,0,0,1,14312,WMM1,927865,false,false,854,image-keyboard-response,17
true,6,2,1,2,true,d,false,true,0.0-2.0-0.22-0.205-3.205,0,0,0,68,false,stim,false,0,1316.9099999940954,0,0,2,14312,WMM1,930720,false,false,857,image-keyboard-response,18
true,6,2,1,2,true,d,false,true,0.0-2.0-0.22-0.206-3.206,0,0,0,68,false,stim,false,0,537.9950000206009,0,0,2,14312,WMM1,932794,false,false,860,image-keyboard-response,19
true,6,2,1,2,true,d,false,true,0.0-2.0-0.23-0.207-3.207,0,0,0,68,false,stim,false,0,1161.229999968782,0,0,2,14312,WMM1,935492,false,false,863,image-keyboard-response,20
true,6,1,1,1,true,z,false,true,0.0-2.0-0.23-0.208-3.208,0,0,0,90,false,stim,false,2,1828.0100000556558,0,0,1,14312,WMM1,938858,false,false,866,image-keyboard-response,21
true,6,1,1,1,true,z,false,true,0.0-2.0-0.23-0.209-3.209,0,0,0,90,false,stim,false,2,793.7350000138395,0,0,1,14312,WMM1,941196,false,false,869,image-keyboard-response,22
true,6,0,1,2,false,d,true,false,0.0-2.0-0.23-0.210-3.210,0,0,0,81,false,stim,false,1,1511.8499999516644,0,0,0,14312,WMM1,944247,false,false,872,image-keyboard-response,23
true,6,1,1,1,true,z,false,true,0.0-2.0-0.23-0.211-3.211,0,0,0,90,false,stim,false,2,568.1899999617599,0,0,1,14312,WMM1,946354,false,false,875,image-keyboard-response,24
true,6,2,1,2,true,d,false,false,0.0-2.0-0.23-0.212-3.212,0,0,0,68,false,stim,false,0,346.3150000316091,0,0,2,14312,WMM1,948233,false,true,878,image-keyboard-response,25
true,6,1,1,2,false,d,false,true,0.0-2.0-0.23-0.213-3.213,0,0,0,90,false,stim,true,1,1380.600000033155,0,0,0,14312,WMM1,951145,false,true,881,image-keyboard-response,26
true,6,1,1,2,false,d,true,false,0.0-2.0-0.23-0.214-3.214,0,0,0,90,false,stim,false,0,752.039999992121,0,0,2,14312,WMM1,953432,false,false,884,image-keyboard-response,27
true,6,1,1,2,false,d,false,true,0.0-2.0-0.23-0.215-3.215,0,0,0,90,false,stim,true,1,654.7600000048988,0,0,0,14312,WMM1,955634,false,true,887,image-keyboard-response,28
true,6,1,1,1,true,z,false,true,0.0-2.0-0.24-0.216-3.216,0,0,0,90,false,stim,false,2,1321.2000000057742,0,0,1,14312,WMM1,958505,false,false,890,image-keyboard-response,29
true,6,2,1,1,false,z,false,false,0.0-2.0-0.24-0.217-3.217,0,0,0,68,false,stim,true,2,501.6950000426732,0,0,1,14312,WMM1,960547,false,false,893,image-keyboard-response,30
true,6,1,1,2,false,d,false,false,0.0-2.0-0.24-0.218-3.218,0,0,0,90,false,stim,true,1,869.8800000129268,0,0,0,14312,WMM1,962953,false,false,896,image-keyboard-response,31
true,6,0,1,2,false,d,false,false,0.0-2.0-0.24-0.219-3.219,0,0,0,81,false,stim,true,0,1191.2800000282004,0,0,2,14312,WMM1,965680,false,false,899,image-keyboard-response,32
true,6,1,1,2,false,d,true,false,0.0-2.0-0.24-0.220-3.220,0,0,0,90,false,stim,false,0,1418.7600000295788,0,0,2,14312,WMM1,968641,false,false,902,image-keyboard-response,33
true,6,2,1,2,true,d,false,true,0.0-2.0-0.24-0.221-3.221,0,0,0,68,false,stim,false,0,992.9700000211596,0,0,2,14312,WMM1,971175,false,false,905,image-keyboard-response,34
true,6,1,1,1,true,z,false,true,0.0-2.0-0.24-0.222-3.222,0,0,0,90,false,stim,false,2,954.2149999761023,0,0,1,14312,WMM1,973666,false,false,908,image-keyboard-response,35
true,6,0,1,2,false,d,true,false,0.0-2.0-0.24-0.223-3.223,0,0,0,81,false,stim,false,1,2200.0000000116415,0,0,0,14312,WMM1,977398,false,false,911,image-keyboard-response,36
true,6,1,1,2,false,d,false,false,0.0-2.0-0.24-0.224-3.224,0,0,0,90,false,stim,true,1,621.4050000417046,0,0,0,14312,WMM1,979563,false,false,914,image-keyboard-response,37
true,6,2,1,2,true,d,false,true,0.0-2.0-0.25-0.225-3.225,0,0,0,68,false,stim,false,0,875.7600000244565,0,0,2,14312,WMM1,981974,false,false,917,image-keyboard-response,38
true,6,1,1,1,true,z,false,true,0.0-2.0-0.25-0.226-3.226,0,0,0,90,false,stim,false,2,1306.140000000596,0,0,1,14312,WMM1,984813,false,false,920,image-keyboard-response,39
true,6,2,1,2,true,d,false,true,0.0-2.0-0.25-0.227-3.227,0,0,0,68,false,stim,false,1,473.86999998707324,0,0,0,14312,WMM1,986821,false,false,923,image-keyboard-response,40
true,6,1,1,1,true,z,false,true,0.0-2.0-0.25-0.228-3.228,0,0,0,90,false,stim,false,2,1403.1299999915063,0,0,1,14312,WMM1,989766,false,false,926,image-keyboard-response,41
true,6,2,1,2,true,d,false,true,0.0-2.0-0.25-0.229-3.229,0,0,0,68,false,stim,false,0,1070.9700000006706,0,0,2,14312,WMM1,992385,false,false,929,image-keyboard-response,42
true,6,1,1,1,true,z,false,false,0.0-2.0-0.25-0.230-3.230,0,0,0,90,false,stim,false,2,1244.2900000023656,0,0,1,14312,WMM1,995178,false,true,932,image-keyboard-response,43
true,6,2,1,2,true,d,false,true,0.0-2.0-0.25-0.231-3.231,0,0,0,68,false,stim,false,1,511.42500003334135,0,0,0,14312,WMM1,997226,false,false,935,image-keyboard-response,44
true,6,2,1,2,true,d,false,true,0.0-2.0-0.25-0.232-3.232,0,0,0,68,false,stim,false,1,529.8199999961071,0,0,0,14312,WMM1,999288,false,false,938,image-keyboard-response,45
true,6,0,1,2,false,d,false,false,0.0-2.0-0.25-0.233-3.233,0,0,0,81,false,stim,true,0,1853.5050000064075,0,0,2,14312,WMM1,1002672,false,false,941,image-keyboard-response,46
true,6,1,1,1,true,z,false,true,0.0-2.0-0.26-0.234-3.234,0,0,0,90,false,stim,false,2,892.1149999951012,0,0,1,14312,WMM1,1005089,false,false,944,image-keyboard-response,47
true,6,1,1,1,true,z,false,true,0.0-2.0-0.26-0.235-3.235,0,0,0,90,false,stim,false,2,1097.9449999867938,0,0,1,14312,WMM1,1007731,false,false,947,image-keyboard-response,48
true,6,2,1,2,true,d,false,true,0.0-2.0-0.26-0.236-3.236,0,0,0,68,false,stim,false,1,749.6350000146776,0,0,0,14312,WMM1,1010011,false,false,950,image-keyboard-response,49
true,6,2,1,2,true,d,false,true,0.0-2.0-0.26-0.237-3.237,0,0,0,68,false,stim,false,0,602.4750000215136,0,0,2,14312,WMM1,1012146,false,false,953,image-keyboard-response,50
true,6,2,1,2,true,d,false,true,0.0-2.0-0.26-0.238-3.238,0,0,0,68,false,stim,false,1,976.8800000310875,0,0,0,14312,WMM1,1014663,false,false,956,image-keyboard-response,51
true,6,2,1,2,true,d,false,false,0.0-2.0-0.26-0.239-3.239,0,0,0,68,false,stim,false,0,558.954999956768,0,0,2,14312,WMM1,1016764,false,true,959,image-keyboard-response,52
true,6,0,1,2,false,d,false,false,0.0-2.0-0.26-0.240-3.240,0,0,0,81,false,stim,true,0,1370.3349999850616,0,0,2,14312,WMM1,1019675,false,false,962,image-keyboard-response,53
true,6,1,1,1,true,z,false,false,0.0-2.0-0.26-0.241-3.241,0,0,0,90,false,stim,false,2,1547.8499999735504,0,0,1,14312,WMM1,1022767,false,true,965,image-keyboard-response,54
true,7,2,2,1,false,z,false,false,0.0-2.0-0.26-0.242-3.242,0,0,0,68,true,stim,true,2,681.8099999800324,0,0,0,14312,WMM1,1024978,false,false,968,image-keyboard-response,1
true,7,1,2,1,true,z,false,true,0.0-2.0-0.27-0.243-3.243,0,0,0,90,false,stim,false,2,1274.7250000247732,0,0,0,14312,WMM1,1027791,false,false,971,image-keyboard-response,2
true,7,2,2,2,true,d,false,true,0.0-2.0-0.27-0.244-3.244,0,0,0,68,false,stim,false,1,764.690000039991,0,0,1,14312,WMM1,1030089,false,false,974,image-keyboard-response,3
true,7,0,2,0,true,q,false,true,0.0-2.0-0.27-0.245-3.245,0,0,0,81,false,stim,false,2,1726.5799999586307,0,0,2,14312,WMM1,1033356,false,false,977,image-keyboard-response,4
true,7,2,2,2,true,d,false,true,0.0-2.0-0.27-0.246-3.246,0,0,0,68,false,stim,false,1,1962.3350000474602,0,0,1,14312,WMM1,1036842,false,false,980,image-keyboard-response,5
true,7,2,2,2,true,d,false,true,0.0-2.0-0.27-0.247-3.247,0,0,0,68,false,stim,false,1,1216.6299999807961,0,0,1,14312,WMM1,1039601,false,false,983,image-keyboard-response,6
true,7,0,2,1,false,z,true,false,0.0-2.0-0.27-0.248-3.248,0,0,0,81,false,stim,false,2,1315.9800000139512,0,0,0,14312,WMM1,1042448,false,false,986,image-keyboard-response,7
true,7,0,2,0,true,q,false,true,0.0-2.0-0.27-0.249-3.249,0,0,0,81,false,stim,false,2,984.6450000186451,0,0,2,14312,WMM1,1044985,false,false,989,image-keyboard-response,8
true,7,0,2,0,true,q,false,true,0.0-2.0-0.27-0.250-3.250,0,0,0,81,false,stim,false,2,1305.4649999830872,0,0,2,14312,WMM1,1047826,false,false,992,image-keyboard-response,9
true,7,1,2,1,true,z,false,true,0.0-2.0-0.27-0.251-3.251,0,0,0,90,false,stim,false,2,766.9650000170805,0,0,0,14312,WMM1,1050126,false,false,995,image-keyboard-response,10
true,7,1,2,1,true,z,false,false,0.0-2.0-0.28-0.252-3.252,0,0,0,90,false,stim,false,2,644.1699999850243,0,0,0,14312,WMM1,1052316,false,true,998,image-keyboard-response,11
true,7,2,2,2,true,d,false,true,0.0-2.0-0.28-0.253-3.253,0,0,0,68,false,stim,false,1,989.9500000174157,0,0,1,14312,WMM1,1054862,false,false,1001,image-keyboard-response,12
true,7,2,2,2,true,d,false,true,0.0-2.0-0.28-0.254-3.254,0,0,0,68,false,stim,false,1,414.64000003179535,0,0,1,14312,WMM1,1056802,false,false,1004,image-keyboard-response,13
true,7,0,2,0,true,q,false,true,0.0-2.0-0.28-0.255-3.255,0,0,0,81,false,stim,false,2,1328.7100000306964,0,0,2,14312,WMM1,1059673,false,false,1007,image-keyboard-response,14
true,7,2,2,2,true,d,false,true,0.0-2.0-0.28-0.256-3.256,0,0,0,68,false,stim,false,1,1161.1499999999069,0,0,1,14312,WMM1,1062377,false,false,1010,image-keyboard-response,15
true,7,1,2,0,false,q,true,false,0.0-2.0-0.28-0.257-3.257,0,0,0,90,false,stim,false,2,1422.9599999962375,0,0,2,14312,WMM1,1065335,false,false,1013,image-keyboard-response,16
true,7,1,2,1,true,z,false,true,0.0-2.0-0.28-0.258-3.258,0,0,0,90,false,stim,false,2,2533.2799999741837,0,0,0,14312,WMM1,1069410,false,false,1016,image-keyboard-response,17
true,7,0,2,0,true,q,false,true,0.0-2.0-0.28-0.259-3.259,0,0,0,81,false,stim,false,2,1064.9700000067241,0,0,2,14312,WMM1,1072004,false,false,1019,image-keyboard-response,18
true,7,1,2,1,true,z,false,true,0.0-2.0-0.28-0.260-3.260,0,0,0,90,false,stim,false,2,956.5000000293367,0,0,0,14312,WMM1,1074510,false,false,1022,image-keyboard-response,19
true,7,2,2,2,true,d,false,true,0.0-2.0-0.29-0.261-3.261,0,0,0,68,false,stim,false,1,996.4499999769032,0,0,1,14312,WMM1,1077044,false,false,1025,image-keyboard-response,20
true,7,0,2,0,true,q,false,true,0.0-2.0-0.29-0.262-3.262,0,0,0,81,false,stim,false,2,1024.7199999867007,0,0,2,14312,WMM1,1079607,false,false,1028,image-keyboard-response,21
true,7,1,2,1,true,z,false,true,0.0-2.0-0.29-0.263-3.263,0,0,0,90,false,stim,false,2,582.9150000354275,0,0,0,14312,WMM1,1081728,false,false,1031,image-keyboard-response,22
true,7,2,2,0,false,q,false,false,0.0-2.0-0.29-0.264-3.264,0,0,0,68,false,stim,true,2,1083.9600000181235,0,0,2,14312,WMM1,1084346,false,false,1034,image-keyboard-response,23
false,7,-1,2,1,false,z,true,false,0.0-2.0-0.29-0.265-3.265,0,0,0,,false,stim,false,2,,0,0,0,14312,WMM1,1088882,false,false,1037,image-keyboard-response,24
true,7,1,2,1,true,z,false,true,0.0-2.0-0.29-0.266-3.266,0,0,0,90,false,stim,false,2,562.1650000102818,0,0,0,14312,WMM1,1090983,false,false,1040,image-keyboard-response,25
true,7,0,2,0,true,q,false,true,0.0-2.0-0.29-0.267-3.267,0,0,0,81,false,stim,false,2,1448.0100000509992,0,0,2,14312,WMM1,1093964,false,false,1043,image-keyboard-response,26
true,7,2,2,2,true,d,false,true,0.0-2.0-0.29-0.268-3.268,0,0,0,68,false,stim,false,1,1139.4349999609403,0,1,1,14312,WMM1,1096638,false,false,1046,image-keyboard-response,27
true,7,2,2,2,true,d,false,true,0.0-2.0-0.29-0.269-3.269,0,0,0,68,false,stim,false,1,941.4799999794923,0,1,1,14312,WMM1,1099121,false,false,1049,image-keyboard-response,28
true,7,0,2,0,true,q,false,true,0.0-2.0-0.30-0.270-3.270,0,0,0,81,false,stim,false,2,798.015000007581,0,0,2,14312,WMM1,1101456,false,false,1052,image-keyboard-response,29
true,7,1,2,1,true,z,false,true,0.0-2.0-0.30-0.271-3.271,0,0,0,90,false,stim,false,2,979.2349999770522,0,0,0,14312,WMM1,1103970,false,false,1055,image-keyboard-response,30
true,7,2,2,2,true,d,false,true,0.0-2.0-0.30-0.272-3.272,0,0,0,68,false,stim,false,1,733.669999986887,0,1,1,14312,WMM1,1106242,false,false,1058,image-keyboard-response,31
true,8,2,3,2,true,d,false,true,0.0-2.0-0.30-0.273-3.273,0,1,0,68,true,stim,false,2,494.57499996060506,0,1,1,14312,WMM1,1108276,false,false,1061,image-keyboard-response,1
true,8,0,3,2,false,d,false,false,0.0-2.0-0.30-0.274-3.274,0,1,0,81,false,stim,true,0,1233.0799999763258,0,0,2,14312,WMM1,1111053,false,false,1064,image-keyboard-response,2
true,8,1,3,2,false,d,true,false,0.0-2.0-0.30-0.275-3.275,0,1,0,90,false,stim,false,0,1981.6950000240467,0,0,2,14312,WMM1,1114583,false,false,1067,image-keyboard-response,3
true,8,1,3,0,false,q,false,false,0.0-2.0-0.30-0.276-3.276,0,1,0,90,false,stim,true,1,1507.9199999454431,0,0,0,14312,WMM1,1117634,false,false,1070,image-keyboard-response,4
true,8,2,3,0,false,q,true,false,0.0-2.0-0.30-0.277-3.277,0,1,0,68,false,stim,false,1,1088.8799999956973,0,0,0,14312,WMM1,1120251,false,false,1073,image-keyboard-response,5
true,8,0,3,2,false,d,true,false,0.0-2.0-0.30-0.278-3.278,0,1,0,81,false,stim,false,2,1190.6650000019,0,1,1,14312,WMM1,1122977,false,false,1076,image-keyboard-response,6
true,8,1,3,2,false,d,true,false,0.0-2.0-0.31-0.279-3.279,0,1,0,90,false,stim,false,2,1582.944999972824,0,1,1,14312,WMM1,1126098,false,false,1079,image-keyboard-response,7
true,8,2,3,2,true,d,false,true,0.0-2.0-0.31-0.280-3.280,0,1,0,68,false,stim,false,0,2472.0300000044517,0,0,2,14312,WMM1,1130107,false,false,1082,image-keyboard-response,8
true,8,1,3,2,false,d,true,false,0.0-2.0-0.31-0.281-3.281,0,1,0,90,false,stim,false,2,1413.0850000074133,0,1,1,14312,WMM1,1133063,false,false,1085,image-keyboard-response,9
true,8,2,3,2,true,d,false,true,0.0-2.0-0.31-0.282-3.282,0,1,0,68,false,stim,false,0,2003.8600000552833,0,0,2,14312,WMM1,1136595,false,false,1088,image-keyboard-response,10
true,8,0,3,0,true,q,false,true,0.0-2.0-0.31-0.283-3.283,0,1,0,81,false,stim,false,1,1063.7599999899976,0,0,0,14312,WMM1,1139201,false,false,1091,image-keyboard-response,11
true,8,0,3,0,true,q,false,true,0.0-2.0-0.31-0.284-3.284,0,1,0,81,false,stim,false,1,1230.5150000029244,0,0,0,14312,WMM1,1141969,false,false,1094,image-keyboard-response,12
true,8,2,3,2,true,d,false,true,0.0-2.0-0.31-0.285-3.285,0,1,0,68,false,stim,false,2,2284.4150000019,0,1,1,14312,WMM1,1145802,false,false,1097,image-keyboard-response,13
true,8,0,3,0,true,q,false,true,0.0-2.0-0.31-0.286-3.286,0,1,0,81,false,stim,false,1,794.3100000265986,0,0,0,14312,WMM1,1148143,false,false,1100,image-keyboard-response,14
true,8,2,3,2,true,d,false,true,0.0-2.0-0.31-0.287-3.287,0,1,0,68,false,stim,false,0,453.26000003842637,0,0,2,14312,WMM1,1150145,false,false,1103,image-keyboard-response,15
true,8,0,3,0,true,q,false,true,0.0-2.0-0.32-0.288-3.288,0,1,0,81,false,stim,false,1,551.7649999819696,0,0,0,14312,WMM1,1152245,false,false,1106,image-keyboard-response,16
true,8,2,3,2,true,d,false,true,0.0-2.0-0.32-0.289-3.289,0,1,0,68,false,stim,false,2,459.424999949988,0,1,1,14312,WMM1,1154245,false,false,1109,image-keyboard-response,17
true,8,2,3,2,true,d,false,true,0.0-2.0-0.32-0.290-3.290,0,1,0,68,false,stim,false,0,554.0100000216626,0,0,2,14312,WMM1,1156342,false,false,1112,image-keyboard-response,18
true,8,2,3,2,true,d,false,false,0.0-2.0-0.32-0.291-3.291,0,1,0,68,false,stim,false,0,451.5949999913573,0,0,2,14312,WMM1,1158334,false,true,1115,image-keyboard-response,19
true,8,0,3,0,true,q,false,true,0.0-2.0-0.32-0.292-3.292,0,1,0,81,false,stim,false,1,575.3750000149012,0,0,0,14312,WMM1,1160443,false,false,1118,image-keyboard-response,20
true,8,2,3,2,true,d,false,true,0.0-2.0-0.32-0.293-3.293,0,1,0,68,false,stim,false,2,798.8899999763817,0,0,1,14312,WMM1,1162783,false,false,1121,image-keyboard-response,21
true,8,2,3,2,true,d,false,true,0.0-2.0-0.32-0.294-3.294,0,1,0,68,false,stim,false,2,648.6199999926612,0,0,1,14312,WMM1,1164964,false,false,1124,image-keyboard-response,22
true,8,1,3,2,false,d,true,false,0.0-2.0-0.32-0.295-3.295,0,1,0,90,false,stim,false,0,1570.3249999787658,0,0,2,14312,WMM1,1168082,false,false,1127,image-keyboard-response,23
true,8,0,3,0,true,q,false,true,0.0-2.0-0.32-0.296-3.296,0,1,0,81,false,stim,false,1,459.9600000074133,0,0,0,14312,WMM1,1170083,false,false,1130,image-keyboard-response,24
true,8,0,3,0,true,q,false,true,0.0-2.0-0.33-0.297-3.297,0,1,0,81,false,stim,false,1,628.7200000369921,0,0,0,14312,WMM1,1172252,false,false,1133,image-keyboard-response,25
true,8,2,3,2,true,d,false,false,0.0-2.0-0.33-0.298-3.298,0,1,0,68,false,stim,false,0,458.0699999933131,0,0,2,14312,WMM1,1174252,false,true,1136,image-keyboard-response,26
true,8,2,3,2,true,d,false,true,0.0-2.0-0.33-0.299-3.299,0,1,0,68,false,stim,false,2,788.1300000008196,0,0,1,14312,WMM1,1176581,false,false,1139,image-keyboard-response,27
true,8,1,3,2,false,d,true,false,0.0-2.0-0.33-0.300-3.300,0,1,0,90,false,stim,false,0,1627.9349999967963,0,0,2,14312,WMM1,1179757,false,false,1142,image-keyboard-response,28
true,8,2,3,2,true,d,false,true,0.0-2.0-0.33-0.301-3.301,0,1,0,68,false,stim,false,2,1662.3399999807589,0,0,1,14312,WMM1,1182960,false,false,1145,image-keyboard-response,29
true,8,0,3,0,true,q,false,false,0.0-2.0-0.33-0.302-3.302,0,1,0,81,false,stim,false,1,448.60499998321757,0,0,0,14312,WMM1,1184943,false,true,1148,image-keyboard-response,30
true,9,0,1,1,false,z,true,true,0.0-2.0-0.33-0.303-3.303,0,0,0,81,true,stim,false,2,424.5249999803491,0,0,2,14312,WMM1,1186895,false,true,1151,image-keyboard-response,1
true,9,1,1,2,false,d,true,false,0.0-2.0-0.33-0.304-3.304,0,0,0,90,false,stim,false,0,1134.3050000141375,0,0,0,14312,WMM1,1189575,false,false,1154,image-keyboard-response,2
true,9,2,1,1,false,z,false,true,0.0-2.0-0.33-0.305-3.305,0,0,0,68,false,stim,true,2,1030.1849999814294,0,0,1,14312,WMM1,1192143,false,true,1157,image-keyboard-response,3
true,9,2,1,1,false,z,false,false,0.0-2.0-0.34-0.306-3.306,0,0,0,68,false,stim,true,2,2294.7600000188686,0,0,2,14312,WMM1,1195977,false,false,1160,image-keyboard-response,4
true,9,0,1,2,false,d,false,false,0.0-2.0-0.34-0.307-3.307,0,0,0,81,false,stim,true,0,551.404999976512,0,0,0,14312,WMM1,1198063,false,false,1163,image-keyboard-response,5
true,9,0,1,1,false,z,true,false,0.0-2.0-0.34-0.308-3.308,0,0,0,81,false,stim,false,2,1423.2549999724142,0,0,1,14312,WMM1,1201035,false,false,1166,image-keyboard-response,6
true,9,2,1,1,false,z,false,false,0.0-2.0-0.34-0.309-3.309,0,0,0,68,false,stim,true,2,1087.5099999830127,0,0,1,14312,WMM1,1203652,false,false,1169,image-keyboard-response,7
true,9,1,1,1,true,z,false,true,0.0-2.0-0.34-0.310-3.310,0,0,0,90,false,stim,false,2,405.0050000078045,0,0,1,14312,WMM1,1205608,false,false,1172,image-keyboard-response,8
true,9,2,1,1,false,z,false,true,0.0-2.0-0.34-0.311-3.311,0,0,0,68,false,stim,true,2,1103.609999991022,0,0,2,14312,WMM1,1208257,false,true,1175,image-keyboard-response,9
true,9,0,1,2,false,d,false,false,0.0-2.0-0.34-0.312-3.312,0,0,0,81,false,stim,true,0,1506.0799999628216,0,0,0,14312,WMM1,1211305,false,false,1178,image-keyboard-response,10
true,9,1,1,2,false,d,true,false,0.0-2.0-0.34-0.313-3.313,0,0,0,90,false,stim,false,0,1124.10000001546,0,0,0,14312,WMM1,1213976,false,false,1181,image-keyboard-response,11
false,9,-1,1,1,false,z,true,false,0.0-2.0-0.34-0.314-3.314,0,0,0,,false,stim,false,2,,0,0,2,14312,WMM1,1218522,false,false,1184,image-keyboard-response,12
true,9,2,1,2,true,d,false,true,0.0-2.0-0.35-0.315-3.315,0,0,0,68,false,stim,false,0,1411.005000001751,0,0,0,14312,WMM1,1221473,false,false,1187,image-keyboard-response,13
true,9,1,1,1,true,z,false,true,0.0-2.0-0.35-0.316-3.316,0,0,0,90,false,stim,false,2,1213.1800000206567,0,0,1,14312,WMM1,1224233,false,false,1190,image-keyboard-response,14
true,9,1,1,1,true,z,false,true,0.0-2.0-0.35-0.317-3.317,0,0,0,90,false,stim,false,2,1773.155000002589,0,0,1,14312,WMM1,1227555,false,false,1193,image-keyboard-response,15
true,9,2,1,1,false,z,false,false,0.0-2.0-0.35-0.318-3.318,0,0,0,68,false,stim,true,2,625.2749999985099,0,0,2,14312,WMM1,1229729,false,false,1196,image-keyboard-response,16
true,9,0,1,1,false,z,true,true,0.0-2.0-0.35-0.319-3.319,0,0,0,81,false,stim,false,2,2128.919999988284,0,0,2,14312,WMM1,1233391,false,true,1199,image-keyboard-response,17
true,9,2,1,1,false,z,false,false,0.0-2.0-0.35-0.320-3.320,0,0,0,68,false,stim,true,2,1245.8549999864772,0,0,1,14312,WMM1,1236177,false,false,1202,image-keyboard-response,18
true,9,0,1,1,false,z,true,false,0.0-2.0-0.35-0.321-3.321,0,0,0,81,false,stim,false,2,593.2599999941885,0,0,2,14312,WMM1,1238310,false,false,1205,image-keyboard-response,19
true,9,1,1,2,false,d,true,false,0.0-2.0-0.35-0.322-3.322,0,0,0,90,false,stim,false,0,2278.424999967683,0,0,0,14312,WMM1,1242129,false,false,1208,image-keyboard-response,20
true,9,2,1,2,true,d,false,true,0.0-2.0-0.35-0.323-3.323,0,0,0,68,false,stim,false,0,892.2050000401214,0,0,0,14312,WMM1,1244561,false,false,1211,image-keyboard-response,21
true,9,1,1,1,true,z,false,true,0.0-2.0-0.36-0.324-3.324,0,0,0,90,false,stim,false,2,1421.7850000131875,0,0,1,14312,WMM1,1247522,false,false,1214,image-keyboard-response,22
true,9,2,1,2,true,d,false,true,0.0-2.0-0.36-0.325-3.325,0,0,0,68,false,stim,false,0,893.0800000089221,0,0,0,14312,WMM1,1249958,false,false,1217,image-keyboard-response,23
true,9,2,1,2,true,d,false,false,0.0-2.0-0.36-0.326-3.326,0,0,0,68,false,stim,false,0,676.6799999750219,0,0,0,14312,WMM1,1252169,false,true,1220,image-keyboard-response,24
true,9,0,1,1,false,z,true,false,0.0-2.0-0.36-0.327-3.327,0,0,0,81,false,stim,false,2,1186.1900000367314,0,0,2,14312,WMM1,1254895,false,false,1223,image-keyboard-response,25
true,9,1,1,1,true,z,false,false,0.0-2.0-0.36-0.328-3.328,0,0,0,90,false,stim,false,2,1208.7699999683537,0,0,1,14312,WMM1,1257650,false,true,1226,image-keyboard-response,26
true,9,2,1,2,true,d,false,true,0.0-2.0-0.36-0.329-3.329,0,0,0,68,false,stim,false,0,1037.609999999404,0,0,0,14312,WMM1,1260221,false,false,1229,image-keyboard-response,27
true,9,0,1,1,false,z,true,false,0.0-2.0-0.36-0.330-3.330,0,0,0,81,false,stim,false,2,1107.2699999785982,0,0,1,14312,WMM1,1262876,false,false,1232,image-keyboard-response,28
true,9,1,1,1,true,z,false,true,0.0-2.0-0.36-0.331-3.331,0,0,0,90,false,stim,false,2,1810.4199999943376,0,0,2,14312,WMM1,1266225,false,false,1235,image-keyboard-response,29
true,9,1,1,1,true,z,false,true,0.0-2.0-0.36-0.332-3.332,0,0,0,90,false,stim,false,2,1721.9399999594316,0,0,2,14312,WMM1,1269480,false,false,1238,image-keyboard-response,30
true,9,2,1,1,false,z,false,false,0.0-2.0-0.37-0.333-3.333,0,0,0,68,false,stim,true,2,1762.174999981653,0,0,1,14312,WMM1,1272774,false,false,1241,image-keyboard-response,31
true,9,0,1,1,false,z,true,false,0.0-2.0-0.37-0.334-3.334,0,0,0,81,false,stim,false,2,1184.415000025183,0,0,1,14312,WMM1,1275498,false,false,1244,image-keyboard-response,32
true,9,2,1,2,true,d,false,true,0.0-2.0-0.37-0.335-3.335,0,0,0,68,false,stim,false,0,1767.115000053309,0,0,0,14312,WMM1,1278807,false,false,1247,image-keyboard-response,33
true,9,2,1,2,true,d,false,true,0.0-2.0-0.37-0.336-3.336,0,0,0,68,false,stim,false,0,560.6649999972433,0,0,0,14312,WMM1,1280906,false,false,1250,image-keyboard-response,34
true,9,2,1,2,true,d,false,true,0.0-2.0-0.37-0.337-3.337,0,0,0,68,false,stim,false,0,667.6200000219978,0,0,0,14312,WMM1,1283107,false,false,1253,image-keyboard-response,35
true,9,0,1,1,false,z,true,false,0.0-2.0-0.37-0.338-3.338,0,0,0,81,false,stim,false,2,1668.2850000215694,0,0,2,14312,WMM1,1286320,false,false,1256,image-keyboard-response,36
true,9,1,1,1,true,z,false,true,0.0-2.0-0.37-0.339-3.339,0,0,0,90,false,stim,false,2,1844.9799999943934,0,0,2,14312,WMM1,1289703,false,false,1259,image-keyboard-response,37
true,9,2,1,1,false,z,false,false,0.0-2.0-0.37-0.340-3.340,0,0,0,68,false,stim,true,2,1227.9550000093877,0,0,1,14312,WMM1,1292465,false,false,1262,image-keyboard-response,38
true,9,1,1,1,true,z,false,true,0.0-2.0-0.37-0.341-3.341,0,0,0,90,false,stim,false,2,771.8799999565817,0,0,2,14312,WMM1,1294770,false,false,1265,image-keyboard-response,39
true,9,1,1,1,true,z,false,true,0.0-2.0-0.38-0.342-3.342,0,0,0,90,false,stim,false,2,500.9250000002794,0,0,2,14312,WMM1,1296819,false,false,1268,image-keyboard-response,40
true,9,0,1,1,false,z,true,false,0.0-2.0-0.38-0.343-3.343,0,0,0,81,false,stim,false,2,1459.430000046268,0,0,1,14312,WMM1,1299815,false,false,1271,image-keyboard-response,41
true,9,2,1,2,true,d,false,true,0.0-2.0-0.38-0.344-3.344,0,0,0,68,false,stim,false,0,1133.800000010524,0,0,0,14312,WMM1,1302490,false,false,1274,image-keyboard-response,42
true,9,1,1,1,true,z,false,false,0.0-2.0-0.38-0.345-3.345,0,0,0,90,false,stim,false,2,655.8399999630637,0,0,2,14312,WMM1,1304694,false,true,1277,image-keyboard-response,43
true,9,2,1,2,true,d,false,true,0.0-2.0-0.38-0.346-3.346,0,0,0,68,false,stim,false,0,867.6950000226498,0,0,0,14312,WMM1,1307103,false,false,1280,image-keyboard-response,44
true,9,1,1,1,true,z,false,true,0.0-2.0-0.38-0.347-3.347,0,0,0,90,false,stim,false,2,564.6699999924749,0,0,1,14312,WMM1,1309215,false,false,1283,image-keyboard-response,45
true,9,1,1,1,true,z,false,true,0.0-2.0-0.38-0.348-3.348,0,0,0,90,false,stim,false,2,619.6950000012293,0,0,2,14312,WMM1,1311384,false,false,1286,image-keyboard-response,46
true,9,2,1,2,true,d,false,true,0.0-2.0-0.38-0.349-3.349,0,0,0,68,false,stim,false,0,885.0899999961257,0,0,0,14312,WMM1,1313816,false,false,1289,image-keyboard-response,47
true,9,1,1,1,true,z,false,true,0.0-2.0-0.38-0.350-3.350,0,0,0,90,false,stim,false,2,645.905000041239,0,0,1,14312,WMM1,1316000,false,false,1292,image-keyboard-response,48
true,9,2,1,2,true,d,false,true,0.0-2.0-0.39-0.351-3.351,0,0,0,68,false,stim,false,0,870.8449999685399,0,0,0,14312,WMM1,1318409,false,false,1295,image-keyboard-response,49
true,9,1,1,1,true,z,false,true,0.0-2.0-0.39-0.352-3.352,0,0,0,90,false,stim,false,2,469.3300000508316,0,0,2,14312,WMM1,1320418,false,false,1298,image-keyboard-response,50
true,9,1,1,1,true,z,false,true,0.0-2.0-0.39-0.353-3.353,0,0,0,90,false,stim,false,2,469.1499999607913,0,0,2,14312,WMM1,1322415,false,false,1301,image-keyboard-response,51
true,9,1,1,1,true,z,false,true,0.0-2.0-0.39-0.354-3.354,0,0,0,90,false,stim,false,2,438.4299999801442,0,0,2,14312,WMM1,1324387,false,false,1304,image-keyboard-response,52
true,9,1,1,1,true,z,false,true,0.0-2.0-0.39-0.355-3.355,0,0,0,90,false,stim,false,2,1062.9600000102073,0,0,1,14312,WMM1,1326993,false,false,1307,image-keyboard-response,53
true,9,1,1,1,true,z,false,true,0.0-2.0-0.39-0.356-3.356,0,0,0,90,false,stim,false,2,430.0499999662861,0,0,1,14312,WMM1,1328963,false,false,1310,image-keyboard-response,54
true,9,2,1,2,true,d,false,true,0.0-2.0-0.39-0.357-3.357,0,0,0,68,false,stim,false,0,645.5350000178441,0,0,0,14312,WMM1,1331160,false,false,1313,image-keyboard-response,55
true,9,1,1,1,true,z,false,true,0.0-2.0-0.39-0.358-3.358,0,0,0,90,false,stim,false,2,625.2799999783747,0,0,1,14312,WMM1,1333322,false,false,1316,image-keyboard-response,56
true,9,2,1,2,true,d,false,true,0.0-2.0-0.39-0.359-3.359,0,0,0,68,false,stim,false,0,566.3700000150129,0,0,0,14312,WMM1,1335432,false,false,1319,image-keyboard-response,57
true,9,2,1,2,true,d,false,true,0.0-2.0-0.40-0.360-3.360,0,0,0,68,false,stim,false,0,566.019999969285,0,0,0,14312,WMM1,1337534,false,false,1322,image-keyboard-response,58
true,10,1,2,0,false,q,false,false,0.0-2.0-0.40-0.361-3.361,0,0,0,90,true,stim,true,1,534.8899999517016,0,0,2,14312,WMM1,1339608,false,false,1325,image-keyboard-response,1
true,10,1,2,2,false,d,false,false,0.0-2.0-0.40-0.362-3.362,0,0,0,90,false,stim,true,1,517.7699999767356,0,0,1,14312,WMM1,1341674,false,false,1328,image-keyboard-response,2
true,10,0,2,0,true,q,false,true,0.0-2.0-0.40-0.363-3.363,0,0,0,81,false,stim,false,1,2032.7750000287779,0,0,2,14312,WMM1,1345246,false,false,1331,image-keyboard-response,3
true,10,0,2,2,false,d,true,true,0.0-2.0-0.40-0.364-3.364,0,0,0,81,false,stim,false,1,913.8099999981932,0,0,1,14312,WMM1,1347696,false,true,1334,image-keyboard-response,4
true,10,0,2,2,false,d,true,false,0.0-2.0-0.40-0.365-3.365,0,0,0,81,false,stim,false,1,570.4949999926612,0,0,1,14312,WMM1,1349813,false,false,1337,image-keyboard-response,5
true,10,2,2,1,false,z,false,false,0.0-2.0-0.40-0.366-3.366,0,0,0,68,false,stim,true,2,1036.3650000072084,0,0,0,14312,WMM1,1352382,false,false,1340,image-keyboard-response,6
true,10,1,2,1,true,z,false,true,0.0-2.0-0.40-0.367-3.367,0,0,0,90,false,stim,false,2,1918.5450000222772,0,0,0,14312,WMM1,1355848,false,false,1343,image-keyboard-response,7
true,10,0,2,0,true,q,false,true,0.0-2.0-0.40-0.368-3.368,0,0,0,81,false,stim,false,1,1160.6700000120327,0,0,2,14312,WMM1,1358557,false,false,1346,image-keyboard-response,8
true,10,2,2,2,true,d,false,true,0.0-2.0-0.41-0.369-3.369,0,0,0,68,false,stim,false,1,1839.1149999806657,0,0,1,14312,WMM1,1361926,false,false,1349,image-keyboard-response,9
true,10,0,2,0,true,q,false,true,0.0-2.0-0.41-0.370-3.370,0,0,0,81,false,stim,false,1,1039.5099999732338,0,0,2,14312,WMM1,1364507,false,false,1352,image-keyboard-response,10
true,10,1,2,1,true,z,false,true,0.0-2.0-0.41-0.371-3.371,0,0,0,90,false,stim,false,2,391.17499999701977,0,0,0,14312,WMM1,1366437,false,false,1355,image-keyboard-response,11
true,10,2,2,0,false,q,true,false,0.0-2.0-0.41-0.372-3.372,0,0,0,68,false,stim,false,1,313.800000003539,0,0,2,14312,WMM1,1368294,false,false,1358,image-keyboard-response,12
true,10,0,2,0,true,q,false,false,0.0-2.0-0.41-0.373-3.373,0,0,0,81,false,stim,false,1,661.6100000101142,0,0,2,14312,WMM1,1370501,false,true,1361,image-keyboard-response,13
true,10,1,2,1,true,z,false,true,0.0-2.0-0.41-0.374-3.374,0,0,0,90,false,stim,false,2,1096.0950000444427,0,0,0,14312,WMM1,1373138,false,false,1364,image-keyboard-response,14
true,10,0,2,2,false,d,true,false,0.0-2.0-0.41-0.375-3.375,0,0,0,81,false,stim,false,1,989.4399999757297,0,0,1,14312,WMM1,1375674,false,false,1367,image-keyboard-response,15
true,10,1,2,1,true,z,false,true,0.0-2.0-0.41-0.376-3.376,0,0,0,90,false,stim,false,2,1125.5399999790825,0,0,0,14312,WMM1,1378339,false,false,1370,image-keyboard-response,16
true,10,2,2,2,true,d,false,true,0.0-2.0-0.41-0.377-3.377,0,0,0,68,false,stim,false,1,1154.7400000272319,0,0,1,14312,WMM1,1381039,false,false,1373,image-keyboard-response,17
true,10,1,2,1,true,z,false,true,0.0-2.0-0.42-0.378-3.378,0,0,0,90,false,stim,false,2,995.8999999798834,0,0,0,14312,WMM1,1383573,false,false,1376,image-keyboard-response,18
true,10,2,2,2,true,d,false,true,0.0-2.0-0.42-0.379-3.379,0,0,0,68,false,stim,false,1,706.6450000274926,0,0,1,14312,WMM1,1385819,false,false,1379,image-keyboard-response,19
true,10,2,2,2,true,d,false,true,0.0-2.0-0.42-0.380-3.380,0,0,0,68,false,stim,false,1,705.2700000349432,0,0,1,14312,WMM1,1388068,false,false,1382,image-keyboard-response,20
true,10,1,2,1,true,z,false,true,0.0-2.0-0.42-0.381-3.381,0,0,0,90,false,stim,false,2,1081.2950000399724,0,0,0,14312,WMM1,1390697,false,false,1385,image-keyboard-response,21
true,10,2,2,0,false,q,true,false,0.0-2.0-0.42-0.382-3.382,0,0,0,68,false,stim,false,1,483.2350000506267,0,0,2,14312,WMM1,1392722,false,false,1388,image-keyboard-response,22
true,10,1,2,0,false,q,false,false,0.0-2.0-0.42-0.383-3.383,0,0,0,90,false,stim,true,1,1366.4850000059232,0,0,2,14312,WMM1,1395632,false,false,1391,image-keyboard-response,23
true,10,0,2,0,true,q,false,true,0.0-2.0-0.42-0.384-3.384,0,0,0,81,false,stim,false,1,1051.0749999666587,0,0,2,14312,WMM1,1398243,false,false,1394,image-keyboard-response,24
true,10,2,2,2,true,d,false,true,0.0-2.0-0.42-0.385-3.385,0,0,0,68,false,stim,false,1,1112.5500000198372,0,0,1,14312,WMM1,1400894,false,false,1397,image-keyboard-response,25
true,10,1,2,1,true,z,false,true,0.0-2.0-0.42-0.386-3.386,0,0,0,90,false,stim,false,2,1084.050000004936,0,0,0,14312,WMM1,1403518,false,false,1400,image-keyboard-response,26
true,10,2,2,2,true,d,false,true,0.0-2.0-0.43-0.387-3.387,0,0,0,68,false,stim,false,1,601.314999978058,0,0,1,14312,WMM1,1405656,false,false,1403,image-keyboard-response,27
true,10,2,2,1,false,z,false,false,0.0-2.0-0.43-0.388-3.388,0,0,0,68,false,stim,true,2,795.9499999997206,0,0,0,14312,WMM1,1408003,false,false,1406,image-keyboard-response,28
true,10,0,2,0,true,q,false,true,0.0-2.0-0.43-0.389-3.389,0,0,0,81,false,stim,false,1,1186.6700000246055,0,0,2,14312,WMM1,1410728,false,false,1409,image-keyboard-response,29
true,10,2,2,2,true,d,false,true,0.0-2.0-0.43-0.390-3.390,0,0,0,68,false,stim,false,1,1017.0250000082888,0,0,1,14312,WMM1,1413287,false,false,1412,image-keyboard-response,30
true,10,0,2,0,true,q,false,true,0.0-2.0-0.43-0.391-3.391,0,0,0,81,false,stim,false,1,1113.1199999945238,0,0,2,14312,WMM1,1415946,false,false,1415,image-keyboard-response,31
true,10,2,2,2,true,d,false,false,0.0-2.0-0.43-0.392-3.392,0,0,0,68,false,stim,false,1,1373.1900000129826,0,0,1,14312,WMM1,1418868,false,true,1418,image-keyboard-response,32
true,10,0,2,0,true,q,false,true,0.0-2.0-0.43-0.393-3.393,0,0,0,81,false,stim,false,1,718.2449999963865,0,0,2,14312,WMM1,1421145,false,false,1421,image-keyboard-response,33
true,10,1,2,1,true,z,false,false,0.0-2.0-0.43-0.394-3.394,0,0,0,90,false,stim,false,2,1060.2150000049733,0,0,0,14312,WMM1,1423752,false,true,1424,image-keyboard-response,34
true,10,2,2,1,false,z,false,false,0.0-2.0-0.43-0.395-3.395,0,0,0,68,false,stim,true,2,1311.2700000056066,0,0,0,14312,WMM1,1426600,false,false,1427,image-keyboard-response,35
true,10,0,2,0,true,q,false,true,0.0-2.0-0.44-0.396-3.396,0,0,0,81,false,stim,false,1,1128.969999961555,0,0,2,14312,WMM1,1429276,false,false,1430,image-keyboard-response,36
true,10,0,2,1,false,z,true,true,0.0-2.0-0.44-0.397-3.397,0,0,0,81,false,stim,false,2,510.4849999770522,0,0,0,14312,WMM1,1431328,false,true,1433,image-keyboard-response,37
true,10,0,2,0,true,q,false,true,0.0-2.0-0.44-0.398-3.398,0,0,0,81,false,stim,false,1,683.309999993071,0,0,2,14312,WMM1,1433557,false,false,1436,image-keyboard-response,38
true,10,2,2,2,true,d,false,true,0.0-2.0-0.44-0.399-3.399,0,0,0,68,false,stim,false,1,1002.7199999894947,0,0,1,14312,WMM1,1436111,false,false,1439,image-keyboard-response,39
true,10,0,2,0,true,q,false,true,0.0-2.0-0.44-0.400-3.400,0,0,0,81,false,stim,false,1,1021.1250000284053,0,0,2,14312,WMM1,1438677,false,false,1442,image-keyboard-response,40
true,10,2,2,2,true,d,false,false,0.0-2.0-0.44-0.401-3.401,0,0,0,68,false,stim,false,1,992.0200000051409,0,0,1,14312,WMM1,1441215,false,true,1445,image-keyboard-response,41
true,10,1,2,1,true,z,false,true,0.0-2.0-0.44-0.402-3.402,0,0,0,90,false,stim,false,2,1678.1950000440702,0,0,0,14312,WMM1,1444434,false,false,1448,image-keyboard-response,42
true,10,0,2,2,false,d,true,true,0.0-2.0-0.44-0.403-3.403,0,0,0,81,false,stim,false,1,944.8299999930896,0,0,1,14312,WMM1,1446928,false,true,1451,image-keyboard-response,43
true,10,1,2,1,true,z,false,true,0.0-2.0-0.44-0.404-3.404,0,0,0,90,false,stim,false,2,1249.9800000223331,0,0,0,14312,WMM1,1449721,false,false,1454,image-keyboard-response,44
true,10,0,2,0,true,q,false,true,0.0-2.0-0.45-0.405-3.405,0,0,0,81,false,stim,false,1,606.1049999552779,0,0,2,14312,WMM1,1451868,false,false,1457,image-keyboard-response,45
true,10,1,2,1,true,z,false,true,0.0-2.0-0.45-0.406-3.406,0,0,0,90,false,stim,false,2,1602.6849999907427,0,0,0,14312,WMM1,1455019,false,false,1460,image-keyboard-response,46
true,10,2,2,2,true,d,false,true,0.0-2.0-0.45-0.407-3.407,0,0,0,68,false,stim,false,1,1177.8300000005402,0,0,1,14312,WMM1,1457736,false,false,1463,image-keyboard-response,47
true,10,1,2,1,true,z,false,true,0.0-2.0-0.45-0.408-3.408,0,0,0,90,false,stim,false,2,1568.8350000418723,0,0,0,14312,WMM1,1460847,false,false,1466,image-keyboard-response,48
true,10,1,2,1,true,z,false,true,0.0-2.0-0.45-0.409-3.409,0,0,0,90,false,stim,false,2,764.595000015106,0,0,0,14312,WMM1,1463154,false,false,1469,image-keyboard-response,49
true,10,2,2,2,true,d,false,false,0.0-2.0-0.45-0.410-3.410,0,0,0,68,false,stim,false,1,963.5899999993853,0,0,1,14312,WMM1,1465668,false,true,1472,image-keyboard-response,50
true,10,0,2,0,true,q,false,true,0.0-2.0-0.45-0.411-3.411,0,0,0,81,false,stim,false,1,538.0200000363402,0,1,2,14312,WMM1,1467754,false,false,1475,image-keyboard-response,51
true,10,0,2,2,false,d,true,false,0.0-2.0-0.45-0.412-3.412,0,0,0,81,false,stim,false,1,1637.2149999951944,0,0,1,14312,WMM1,1470934,false,false,1478,image-keyboard-response,52
true,10,0,2,0,true,q,false,true,0.0-2.0-0.45-0.413-3.413,0,0,0,81,false,stim,false,1,1288.3900000015274,0,1,2,14312,WMM1,1473774,false,false,1481,image-keyboard-response,53
true,10,1,2,1,true,z,false,true,0.0-2.0-0.46-0.414-3.414,0,0,0,90,false,stim,false,2,1072.684999962803,0,0,0,14312,WMM1,1476399,false,false,1484,image-keyboard-response,54
true,10,0,2,0,true,q,false,true,0.0-2.0-0.46-0.415-3.415,0,0,0,81,false,stim,false,1,1246.0699999937788,0,1,2,14312,WMM1,1479183,false,false,1487,image-keyboard-response,55
true,10,1,2,1,true,z,false,true,0.0-2.0-0.46-0.416-3.416,0,0,0,90,false,stim,false,2,746.3199999765493,0,0,0,14312,WMM1,1481467,false,false,1490,image-keyboard-response,56
true,10,1,2,0,false,q,false,false,0.0-2.0-0.46-0.417-3.417,0,0,0,90,false,stim,true,1,1032.939999946393,0,1,2,14312,WMM1,1484029,false,false,1493,image-keyboard-response,57
true,10,1,2,2,false,d,false,true,0.0-2.0-0.46-0.418-3.418,0,0,0,90,false,stim,true,1,859.7900000168011,0,0,1,14312,WMM1,1486447,false,true,1496,image-keyboard-response,58
true,10,1,2,2,false,d,false,false,0.0-2.0-0.46-0.419-3.419,0,0,0,90,false,stim,true,1,1812.8900000010617,0,0,1,14312,WMM1,1489809,false,false,1499,image-keyboard-response,59
true,10,0,2,0,true,q,false,true,0.0-2.0-0.46-0.420-3.420,0,0,0,81,false,stim,false,1,742.3649999545887,0,1,2,14312,WMM1,1492099,false,false,1502,image-keyboard-response,60
true,11,2,3,1,false,z,false,false,0.0-2.0-0.46-0.421-3.421,0,0,1,68,true,stim,true,2,1422.4450000328943,0,0,1,14312,WMM1,1495062,false,false,1505,image-keyboard-response,1
true,11,1,3,2,false,d,false,false,0.0-2.0-0.46-0.422-3.422,0,0,1,90,false,stim,true,1,1517.9450000287034,0,0,0,14312,WMM1,1498133,false,false,1508,image-keyboard-response,2
true,11,0,3,0,true,q,false,true,0.0-2.0-0.47-0.423-3.423,0,0,1,81,false,stim,false,0,429.7800000058487,0,1,2,14312,WMM1,1500108,false,false,1511,image-keyboard-response,3
true,11,1,3,2,false,d,false,false,0.0-2.0-0.47-0.424-3.424,0,0,1,90,false,stim,true,1,1012.3749999911524,0,0,0,14312,WMM1,1502662,false,false,1514,image-keyboard-response,4
true,11,0,3,0,true,q,false,true,0.0-2.0-0.47-0.425-3.425,0,0,1,81,false,stim,false,0,512.7750000101514,0,1,2,14312,WMM1,1504713,false,false,1517,image-keyboard-response,5
true,11,0,3,0,true,q,false,true,0.0-2.0-0.47-0.426-3.426,0,0,1,81,false,stim,false,0,584.5900000422262,0,1,2,14312,WMM1,1506850,false,false,1520,image-keyboard-response,6
true,11,0,3,1,false,z,true,true,0.0-2.0-0.47-0.427-3.427,0,0,1,81,false,stim,false,2,864.5249999826774,0,0,1,14312,WMM1,1509252,false,true,1523,image-keyboard-response,7
true,11,1,3,2,false,d,false,false,0.0-2.0-0.47-0.428-3.428,0,0,1,90,false,stim,true,1,1369.8549999971874,0,0,0,14312,WMM1,1512159,false,false,1526,image-keyboard-response,8
true,11,0,3,1,false,z,true,false,0.0-2.0-0.47-0.429-3.429,0,0,1,81,false,stim,false,2,533.1749999895692,0,0,1,14312,WMM1,1514227,false,false,1529,image-keyboard-response,9
true,11,0,3,2,false,d,true,false,0.0-2.0-0.47-0.430-3.430,0,0,1,81,false,stim,false,1,1128.8749999948777,0,0,0,14312,WMM1,1516910,false,false,1532,image-keyboard-response,10
true,11,0,3,1,false,z,true,false,0.0-2.0-0.47-0.431-3.431,0,0,1,81,false,stim,false,2,1120.5900000059046,0,0,1,14312,WMM1,1519564,false,false,1535,image-keyboard-response,11
true,11,0,3,0,true,q,false,true,0.0-2.0-0.48-0.432-3.432,0,0,1,81,false,stim,false,0,1263.1899999687448,0,1,2,14312,WMM1,1522358,false,false,1538,image-keyboard-response,12
true,11,0,3,0,true,q,false,true,0.0-2.0-0.48-0.433-3.433,0,0,1,81,false,stim,false,0,1041.1999999778345,0,1,2,14312,WMM1,1524946,false,false,1541,image-keyboard-response,13
true,11,2,3,1,false,z,false,false,0.0-2.0-0.48-0.434-3.434,0,0,1,68,false,stim,true,2,1207.5799999875017,0,0,1,14312,WMM1,1527696,false,false,1544,image-keyboard-response,14
true,11,1,3,2,false,d,false,false,0.0-2.0-0.48-0.435-3.435,0,0,1,90,false,stim,true,1,2034.1849999967963,0,0,0,14312,WMM1,1531263,false,false,1547,image-keyboard-response,15
true,11,2,3,2,true,d,false,true,0.0-2.0-0.48-0.436-3.436,0,0,1,68,false,stim,false,1,1128.5550000029616,0,0,0,14312,WMM1,1533938,false,false,1550,image-keyboard-response,16
true,11,2,3,1,false,z,false,false,0.0-2.0-0.48-0.437-3.437,0,0,1,68,false,stim,true,2,822.9099999880418,0,0,1,14312,WMM1,1536298,false,false,1553,image-keyboard-response,17
true,11,1,3,1,true,z,false,true,0.0-2.0-0.48-0.438-3.438,0,0,1,90,false,stim,false,2,1138.585000007879,0,0,1,14312,WMM1,1538977,false,false,1556,image-keyboard-response,18
true,11,0,3,0,true,q,false,true,0.0-2.0-0.48-0.439-3.439,0,0,1,81,false,stim,false,0,1867.4950000131503,0,1,2,14312,WMM1,1542376,false,false,1559,image-keyboard-response,19
true,11,2,3,2,true,d,false,true,0.0-2.0-0.48-0.440-3.440,0,0,1,68,false,stim,false,1,1038.7950000003912,0,0,0,14312,WMM1,1544947,false,false,1562,image-keyboard-response,20
true,11,2,3,2,true,d,false,true,0.0-2.0-0.49-0.441-3.441,0,0,1,68,false,stim,false,1,961.379999993369,0,0,0,14312,WMM1,1547455,false,false,1565,image-keyboard-response,21
true,11,0,3,0,true,q,false,true,0.0-2.0-0.49-0.442-3.442,0,0,1,81,false,stim,false,0,1058.7350000278093,0,1,2,14312,WMM1,1550047,false,false,1568,image-keyboard-response,22
true,11,1,3,1,true,z,false,true,0.0-2.0-0.49-0.443-3.443,0,0,1,90,false,stim,false,2,1051.229999982752,0,0,1,14312,WMM1,1552633,false,false,1571,image-keyboard-response,23
true,11,0,3,0,true,q,false,true,0.0-2.0-0.49-0.444-3.444,0,0,1,81,false,stim,false,0,1035.4700000025332,0,0,2,14312,WMM1,1555217,false,false,1574,image-keyboard-response,24
true,11,0,3,0,true,q,false,true,0.0-2.0-0.49-0.445-3.445,0,0,1,81,false,stim,false,0,2296.7700000153854,0,0,2,14312,WMM1,1559050,false,false,1577,image-keyboard-response,25
true,11,1,3,1,true,z,false,true,0.0-2.0-0.49-0.446-3.446,0,0,1,90,false,stim,false,2,939.5800000056624,0,0,1,14312,WMM1,1561522,false,false,1580,image-keyboard-response,26
true,11,2,3,2,true,d,false,true,0.0-2.0-0.49-0.447-3.447,0,0,1,68,false,stim,false,1,1155.1549999858253,0,0,0,14312,WMM1,1564222,false,false,1583,image-keyboard-response,27
true,11,1,3,1,true,z,false,true,0.0-2.0-0.49-0.448-3.448,0,0,1,90,false,stim,false,2,1330.5699999909848,0,0,1,14312,WMM1,1567095,false,false,1586,image-keyboard-response,28
true,11,2,3,2,true,d,false,true,0.0-2.0-0.49-0.449-3.449,0,0,1,68,false,stim,false,1,1601.4500000164844,0,0,0,14312,WMM1,1570247,false,false,1589,image-keyboard-response,29
true,11,1,3,1,true,z,false,true,0.0-2.0-0.50-0.450-3.450,0,0,1,90,false,stim,false,2,1026.914999994915,0,0,1,14312,WMM1,1572818,false,false,1592,image-keyboard-response,30
true,11,1,3,1,true,z,false,true,0.0-2.0-0.50-0.451-3.451,0,0,1,90,false,stim,false,2,580.8850000030361,0,0,1,14312,WMM1,1574947,false,false,1595,image-keyboard-response,31
true,11,2,3,2,true,d,false,true,0.0-2.0-0.50-0.452-3.452,0,0,1,68,false,stim,false,1,697.3800000268966,0,0,0,14312,WMM1,1577186,false,false,1598,image-keyboard-response,32
true,11,1,3,1,true,z,false,true,0.0-2.0-0.50-0.453-3.453,0,0,1,90,false,stim,false,2,605.2650000201538,0,0,1,14312,WMM1,1579327,false,false,1601,image-keyboard-response,33
true,12,2,1,1,false,z,false,true,0.0-2.0-0.50-0.454-3.454,0,0,0,68,true,stim,true,2,743.0900000035763,0,0,0,14312,WMM1,1581604,false,true,1604,image-keyboard-response,1
true,12,0,1,1,false,z,false,false,0.0-2.0-0.50-0.455-3.455,0,0,0,81,false,stim,true,0,915.1599999750033,0,0,2,14312,WMM1,1584060,false,false,1607,image-keyboard-response,2
true,12,1,1,1,true,z,false,true,0.0-2.0-0.50-0.456-3.456,0,0,0,90,false,stim,false,0,1014.6750000421889,0,0,2,14312,WMM1,1586619,false,false,1610,image-keyboard-response,3
true,12,1,1,1,true,z,false,true,0.0-2.0-0.50-0.457-3.457,0,0,0,90,false,stim,false,0,1222.9750000406057,0,0,2,14312,WMM1,1589376,false,false,1613,image-keyboard-response,4
true,12,2,1,1,false,z,false,false,0.0-2.0-0.50-0.458-3.458,0,0,0,68,false,stim,true,2,706.1199999880046,0,0,0,14312,WMM1,1591627,false,false,1616,image-keyboard-response,5
true,12,1,1,2,false,d,false,false,0.0-2.0-0.51-0.459-3.459,0,0,0,90,false,stim,true,1,795.5300000030547,0,0,1,14312,WMM1,1593965,false,false,1619,image-keyboard-response,6
true,12,0,1,1,false,z,true,false,0.0-2.0-0.51-0.460-3.460,0,0,0,81,false,stim,false,2,1702.0699999993667,0,0,0,14312,WMM1,1597199,false,false,1622,image-keyboard-response,7
true,12,1,1,1,true,z,false,true,0.0-2.0-0.51-0.461-3.461,0,0,0,90,false,stim,false,2,158.5699999704957,0,0,0,14312,WMM1,1598894,false,false,1625,image-keyboard-response,8
true,12,1,1,1,true,z,false,true,0.0-2.0-0.51-0.462-3.462,0,0,0,90,false,stim,false,0,495.5049999989569,0,0,2,14312,WMM1,1600942,false,false,1628,image-keyboard-response,9
true,12,1,1,1,true,z,false,true,0.0-2.0-0.51-0.463-3.463,0,0,0,90,false,stim,false,2,657.9350000247359,0,0,0,14312,WMM1,1603135,false,false,1631,image-keyboard-response,10
true,12,1,1,2,false,d,false,false,0.0-2.0-0.51-0.464-3.464,0,0,0,90,false,stim,true,1,847.2450000117533,0,0,1,14312,WMM1,1605539,false,false,1634,image-keyboard-response,11
true,12,1,1,1,true,z,false,true,0.0-2.0-0.51-0.465-3.465,0,0,0,90,false,stim,false,0,593.1749999872409,0,0,2,14312,WMM1,1607665,false,false,1637,image-keyboard-response,12
true,12,1,1,1,true,z,false,true,0.0-2.0-0.51-0.466-3.466,0,0,0,90,false,stim,false,0,560.109999962151,0,0,2,14312,WMM1,1609763,false,false,1640,image-keyboard-response,13
true,12,0,1,2,false,d,true,false,0.0-2.0-0.51-0.467-3.467,0,0,0,81,false,stim,false,1,1207.3300000047311,0,0,1,14312,WMM1,1612524,false,false,1643,image-keyboard-response,14
true,12,1,1,1,true,z,false,true,0.0-2.0-0.52-0.468-3.468,0,0,0,90,false,stim,false,0,1749.6049999608658,0,0,2,14312,WMM1,1615817,false,false,1646,image-keyboard-response,15
true,12,2,1,2,true,d,false,true,0.0-2.0-0.52-0.469-3.469,0,0,0,68,false,stim,false,1,1095.949999988079,0,0,1,14312,WMM1,1618458,false,false,1649,image-keyboard-response,16
true,12,1,1,1,true,z,false,true,0.0-2.0-0.52-0.470-3.470,0,0,0,90,false,stim,false,0,583.2299999892712,0,0,2,14312,WMM1,1620576,false,false,1652,image-keyboard-response,17
true,12,1,1,1,true,z,false,true,0.0-2.0-0.52-0.471-3.471,0,0,0,90,false,stim,false,2,395.6250000046566,0,0,0,14312,WMM1,1622517,false,false,1655,image-keyboard-response,18
true,12,1,1,1,true,z,false,true,0.0-2.0-0.52-0.472-3.472,0,0,0,90,false,stim,false,2,448.8850000197999,0,0,0,14312,WMM1,1624514,false,false,1658,image-keyboard-response,19
true,12,2,1,2,true,d,false,true,0.0-2.0-0.52-0.473-3.473,0,0,0,68,false,stim,false,1,1213.4999999543652,0,0,1,14312,WMM1,1627285,false,false,1661,image-keyboard-response,20
true,12,1,1,1,true,z,false,true,0.0-2.0-0.52-0.474-3.474,0,0,0,90,false,stim,false,0,435.0149999954738,0,0,2,14312,WMM1,1629270,false,false,1664,image-keyboard-response,21
true,12,2,1,2,true,d,false,true,0.0-2.0-0.52-0.475-3.475,0,0,0,68,false,stim,false,1,530.5550000048243,0,0,1,14312,WMM1,1631362,false,false,1667,image-keyboard-response,22
true,12,1,1,1,true,z,false,true,0.0-2.0-0.52-0.476-3.476,0,0,0,90,false,stim,false,2,526.2349999975413,0,0,0,14312,WMM1,1633439,false,false,1670,image-keyboard-response,23
true,12,2,1,2,true,d,false,true,0.0-2.0-0.53-0.477-3.477,0,0,0,68,false,stim,false,1,741.234999964945,0,0,1,14312,WMM1,1635724,false,false,1673,image-keyboard-response,24
true,12,1,1,1,true,z,false,false,0.0-2.0-0.53-0.478-3.478,0,0,0,90,false,stim,false,0,558.3200000110082,0,0,2,14312,WMM1,1637826,false,true,1676,image-keyboard-response,25
true,12,0,1,1,false,z,false,false,0.0-2.0-0.53-0.479-3.479,0,0,0,81,false,stim,true,0,1297.9749999940395,0,0,2,14312,WMM1,1640669,false,false,1679,image-keyboard-response,26
true,12,2,1,1,false,z,true,false,0.0-2.0-0.53-0.480-3.480,0,0,0,68,false,stim,false,0,516.4000000222586,0,0,2,14312,WMM1,1642726,false,false,1682,image-keyboard-response,27
true,12,1,1,1,true,z,false,true,0.0-2.0-0.53-0.481-3.481,0,0,0,90,false,stim,false,2,2165.0700000463985,0,0,0,14312,WMM1,1646438,false,false,1685,image-keyboard-response,28
true,12,1,1,1,true,z,false,true,0.0-2.0-0.53-0.482-3.482,0,0,0,90,false,stim,false,2,687.5700000091456,0,0,0,14312,WMM1,1648658,false,false,1688,image-keyboard-response,29
true,12,1,1,1,true,z,false,true,0.0-2.0-0.53-0.483-3.483,0,0,0,90,false,stim,false,2,746.2350000278093,0,0,0,14312,WMM1,1650959,false,false,1691,image-keyboard-response,30
true,13,2,4,0,false,q,false,false,0.0-2.0-0.53-0.484-3.484,0,0,0,68,true,stim,true,2,1228.9200000232086,0,0,1,14312,WMM1,1653740,false,false,1694,image-keyboard-response,1
true,13,1,4,0,false,q,true,false,0.0-2.0-0.53-0.485-3.485,0,0,0,90,false,stim,false,2,1128.5849999985658,0,0,1,14312,WMM1,1656409,false,false,1697,image-keyboard-response,2
true,13,1,4,2,false,d,false,true,0.0-2.0-0.54-0.486-3.486,0,0,0,90,false,stim,true,1,1292.4950000015087,0,0,2,14312,WMM1,1659237,false,true,1700,image-keyboard-response,3
true,13,0,4,0,true,q,false,true,0.0-2.0-0.54-0.487-3.487,0,0,0,81,false,stim,false,2,843.9849999849685,0,0,1,14312,WMM1,1661653,false,false,1703,image-keyboard-response,4
true,13,0,4,0,true,q,false,true,0.0-2.0-0.54-0.488-3.488,0,0,0,81,false,stim,false,2,567.1649999567308,0,0,1,14312,WMM1,1663767,false,false,1706,image-keyboard-response,5
true,13,1,4,0,false,q,false,false,0.0-2.0-0.54-0.489-3.489,0,0,0,90,false,stim,true,1,1463.034999964293,0,0,0,14312,WMM1,1666766,false,false,1709,image-keyboard-response,6
true,13,1,4,2,false,d,false,false,0.0-2.0-0.54-0.490-3.490,0,0,0,90,false,stim,true,1,1339.31999997003,0,0,2,14312,WMM1,1669660,false,false,1712,image-keyboard-response,7
true,13,0,4,0,true,q,false,true,0.0-2.0-0.54-0.491-3.491,0,0,0,81,false,stim,false,2,942.5499999779277,0,0,1,14312,WMM1,1672138,false,false,1715,image-keyboard-response,8
true,13,2,4,0,false,q,true,false,0.0-2.0-0.54-0.492-3.492,0,0,0,68,false,stim,false,1,1285.889999999199,0,0,0,14312,WMM1,1674969,false,false,1718,image-keyboard-response,9
true,13,2,4,2,true,d,false,true,0.0-2.0-0.54-0.493-3.493,0,0,0,68,false,stim,false,1,497.72500002291054,0,0,2,14312,WMM1,1677007,false,false,1721,image-keyboard-response,10
true,13,1,4,0,false,q,false,false,0.0-2.0-0.54-0.494-3.494,0,0,0,90,false,stim,true,1,1586.7000000434928,0,0,0,14312,WMM1,1680146,false,false,1724,image-keyboard-response,11
true,13,0,4,0,true,q,false,true,0.0-2.0-0.55-0.495-3.495,0,0,0,81,false,stim,false,2,1489.6850000368431,0,0,1,14312,WMM1,1683172,false,false,1727,image-keyboard-response,12
true,13,2,4,2,true,d,false,true,0.0-2.0-0.55-0.496-3.496,0,0,0,68,false,stim,false,1,1013.3500000229105,0,0,2,14312,WMM1,1685730,false,false,1730,image-keyboard-response,13
true,13,0,4,0,true,q,false,true,0.0-2.0-0.55-0.497-3.497,0,0,0,81,false,stim,false,1,455.2549999789335,0,0,0,14312,WMM1,1687719,false,false,1733,image-keyboard-response,14
true,13,0,4,0,true,q,false,true,0.0-2.0-0.55-0.498-3.498,0,0,0,81,false,stim,false,1,518.8699999707751,0,0,0,14312,WMM1,1689776,false,false,1736,image-keyboard-response,15
true,13,2,4,0,false,q,false,true,0.0-2.0-0.55-0.499-3.499,0,0,0,68,false,stim,true,2,1030.635000031907,0,0,1,14312,WMM1,1692336,false,true,1739,image-keyboard-response,16
true,13,0,4,0,true,q,false,true,0.0-2.0-0.55-0.500-3.500,0,0,0,81,false,stim,false,1,637.8300000214949,0,0,0,14312,WMM1,1694544,false,false,1742,image-keyboard-response,17
true,13,2,4,0,false,q,false,false,0.0-2.0-0.55-0.501-3.501,0,0,0,68,false,stim,true,2,632.7550000278279,0,0,1,14312,WMM1,1696728,false,false,1745,image-keyboard-response,18
true,13,0,4,2,false,d,true,false,0.0-2.0-0.55-0.502-3.502,0,0,0,81,false,stim,false,1,1231.0949999955483,0,0,2,14312,WMM1,1699503,false,false,1748,image-keyboard-response,19
true,13,1,4,2,false,d,false,false,0.0-2.0-0.55-0.503-3.503,0,0,0,90,false,stim,true,1,997.9450000100769,0,0,2,14312,WMM1,1702035,false,false,1751,image-keyboard-response,20
true,13,2,4,0,false,q,false,false,0.0-2.0-0.56-0.504-3.504,0,0,0,68,false,stim,true,2,1598.4199999948032,0,0,1,14312,WMM1,1705179,false,false,1754,image-keyboard-response,21
true,13,0,4,0,true,q,false,true,0.0-2.0-0.56-0.505-3.505,0,0,0,81,false,stim,false,1,1486.7850000155158,0,0,0,14312,WMM1,1708205,false,false,1757,image-keyboard-response,22
true,13,1,4,2,false,d,false,false,0.0-2.0-0.56-0.506-3.506,0,0,0,90,false,stim,true,1,1549.5250000385568,0,0,2,14312,WMM1,1711311,false,false,1760,image-keyboard-response,23
true,13,1,4,0,false,q,true,false,0.0-2.0-0.56-0.507-3.507,0,0,0,90,false,stim,false,2,1192.700000014156,0,0,1,14312,WMM1,1714056,false,false,1763,image-keyboard-response,24
true,13,2,4,0,false,q,false,false,0.0-2.0-0.56-0.508-3.508,0,0,0,68,false,stim,true,2,981.0050000087358,0,0,1,14312,WMM1,1716584,false,false,1766,image-keyboard-response,25
true,13,0,4,0,true,q,false,true,0.0-2.0-0.56-0.509-3.509,0,0,0,81,false,stim,false,1,690.9900000318885,0,0,0,14312,WMM1,1718824,false,false,1769,image-keyboard-response,26
true,13,0,4,2,false,d,true,false,0.0-2.0-0.56-0.510-3.510,0,0,0,81,false,stim,false,1,610.6400000280701,0,0,2,14312,WMM1,1720991,false,false,1772,image-keyboard-response,27
true,13,1,4,2,false,d,false,false,0.0-2.0-0.56-0.511-3.511,0,0,0,90,false,stim,true,1,1555.5449999519624,0,0,2,14312,WMM1,1724086,false,false,1775,image-keyboard-response,28
true,13,0,4,0,true,q,false,true,0.0-2.0-0.56-0.512-3.512,0,0,0,81,false,stim,false,1,879.1049999999814,0,0,0,14312,WMM1,1726515,false,false,1778,image-keyboard-response,29
true,13,0,4,0,true,q,false,true,0.0-2.0-0.57-0.513-3.513,0,0,0,81,false,stim,false,1,528.1599999871105,0,0,0,14312,WMM1,1728606,false,false,1781,image-keyboard-response,30
true,13,0,4,0,true,q,false,true,0.0-2.0-0.57-0.514-3.514,0,0,0,81,false,stim,false,1,492.65500000910833,0,0,0,14312,WMM1,1730636,false,false,1784,image-keyboard-response,31
true,13,2,4,0,false,q,false,false,0.0-2.0-0.57-0.515-3.515,0,0,0,68,false,stim,true,2,775.2800000016578,0,0,1,14312,WMM1,1732960,false,false,1787,image-keyboard-response,32
true,13,1,4,0,false,q,true,false,0.0-2.0-0.57-0.516-3.516,0,0,0,90,false,stim,false,2,1032.8349999617785,0,0,1,14312,WMM1,1735556,false,false,1790,image-keyboard-response,33
true,13,0,4,0,true,q,false,true,0.0-2.0-0.57-0.517-3.517,0,0,0,81,false,stim,false,1,846.2449999642558,0,0,0,14312,WMM1,1737955,false,false,1793,image-keyboard-response,34
true,13,0,4,0,true,q,false,true,0.0-2.0-0.57-0.518-3.518,0,0,0,81,false,stim,false,2,482.43500001262873,0,0,1,14312,WMM1,1739983,false,false,1796,image-keyboard-response,35
true,13,0,4,2,false,d,true,true,0.0-2.0-0.57-0.519-3.519,0,0,0,81,false,stim,false,1,954.4899999746121,0,0,2,14312,WMM1,1742487,false,true,1799,image-keyboard-response,36
true,13,0,4,2,false,d,true,false,0.0-2.0-0.57-0.520-3.520,0,0,0,81,false,stim,false,1,545.7400000304915,0,0,2,14312,WMM1,1744570,false,false,1802,image-keyboard-response,37
true,13,0,4,2,false,d,true,false,0.0-2.0-0.57-0.521-3.521,0,0,0,81,false,stim,false,1,808.2500000018626,0,0,2,14312,WMM1,1746921,false,false,1805,image-keyboard-response,38
true,13,0,4,0,true,q,false,true,0.0-2.0-0.58-0.522-3.522,0,0,0,81,false,stim,false,1,1940.9800000139512,0,0,0,14312,WMM1,1750431,false,false,1808,image-keyboard-response,39
true,13,1,4,0,false,q,true,false,0.0-2.0-0.58-0.523-3.523,0,0,0,90,false,stim,false,2,1446.5199999976903,0,0,1,14312,WMM1,1753448,false,false,1811,image-keyboard-response,40
true,13,0,4,0,true,q,false,true,0.0-2.0-0.58-0.524-3.524,0,0,0,81,false,stim,false,1,1675.699999963399,0,0,0,14312,WMM1,1756668,false,false,1814,image-keyboard-response,41
true,13,2,4,2,true,d,false,true,0.0-2.0-0.58-0.525-3.525,0,0,0,68,false,stim,false,1,1109.900000039488,0,0,2,14312,WMM1,1759332,false,false,1817,image-keyboard-response,42
true,13,2,4,0,false,q,false,false,0.0-2.0-0.58-0.526-3.526,0,0,0,68,false,stim,true,2,2110.950000002049,0,0,1,14312,WMM1,1762996,false,false,1820,image-keyboard-response,43
true,13,0,4,0,true,q,false,true,0.0-2.0-0.58-0.527-3.527,0,0,0,81,false,stim,false,1,856.8950000335462,0,0,0,14312,WMM1,1765410,false,false,1823,image-keyboard-response,44
true,13,1,4,2,false,d,false,false,0.0-2.0-0.58-0.528-3.528,0,0,0,90,false,stim,true,1,1259.8899999866262,0,0,2,14312,WMM1,1768221,false,false,1826,image-keyboard-response,45
true,13,2,4,0,false,q,false,false,0.0-2.0-0.58-0.529-3.529,0,0,0,68,false,stim,true,2,1100.9499999927357,0,0,1,14312,WMM1,1770864,false,false,1829,image-keyboard-response,46
true,13,1,4,2,false,d,false,false,0.0-2.0-0.58-0.530-3.530,0,0,0,90,false,stim,true,1,1256.7050000070594,0,0,2,14312,WMM1,1773672,false,false,1832,image-keyboard-response,47
true,13,0,4,0,true,q,false,true,0.0-2.0-0.59-0.531-3.531,0,0,0,81,false,stim,false,2,566.5750000043772,0,0,1,14312,WMM1,1775790,false,false,1835,image-keyboard-response,48
true,13,0,4,0,true,q,false,true,0.0-2.0-0.59-0.532-3.532,0,0,0,81,false,stim,false,2,1341.1600000108592,0,0,1,14312,WMM1,1778681,false,false,1838,image-keyboard-response,49
true,13,0,4,2,false,d,true,false,0.0-2.0-0.59-0.533-3.533,0,0,0,81,false,stim,false,1,674.6550000389107,0,0,2,14312,WMM1,1780899,false,false,1841,image-keyboard-response,50
true,13,0,4,0,true,q,false,true,0.0-2.0-0.59-0.534-3.534,0,0,0,81,false,stim,false,2,559.6350000123493,0,1,1,14312,WMM1,1782994,false,false,1844,image-keyboard-response,51
true,13,1,4,0,false,q,false,false,0.0-2.0-0.59-0.535-3.535,0,0,0,90,false,stim,true,1,1375.7849999819882,0,1,0,14312,WMM1,1785906,false,false,1847,image-keyboard-response,52
true,13,0,4,2,false,d,true,false,0.0-2.0-0.59-0.536-3.536,0,0,0,81,false,stim,false,1,665.4749999870546,0,1,2,14312,WMM1,1788110,false,false,1850,image-keyboard-response,53
true,13,2,4,2,true,d,false,true,0.0-2.0-0.59-0.537-3.537,0,0,0,68,false,stim,false,1,1007.1900000330061,0,1,2,14312,WMM1,1790671,false,false,1853,image-keyboard-response,54
true,13,0,4,0,true,q,false,true,0.0-2.0-0.59-0.538-3.538,0,0,0,81,false,stim,false,1,1347.7999999886379,0,1,0,14312,WMM1,1793564,false,false,1856,image-keyboard-response,55
true,13,0,4,0,true,q,false,false,0.0-2.0-0.59-0.539-3.539,0,0,0,81,false,stim,false,1,501.09500001417473,0,1,0,14312,WMM1,1795609,false,true,1859,image-keyboard-response,56
true,13,2,4,2,true,d,false,true,0.0-2.0-0.60-0.540-3.540,0,0,0,68,false,stim,false,1,702.5349999894388,0,1,2,14312,WMM1,1797852,false,false,1862,image-keyboard-response,57
true,13,2,4,2,true,d,false,true,0.0-2.0-0.60-0.541-3.541,0,0,0,68,false,stim,false,1,517.2199999797158,0,1,2,14312,WMM1,1799905,false,false,1865,image-keyboard-response,58
true,13,1,4,0,false,q,true,false,0.0-2.0-0.60-0.542-3.542,0,0,0,90,false,stim,false,2,1452.820000005886,0,1,1,14312,WMM1,1802910,false,false,1868,image-keyboard-response,59
true,13,2,4,0,false,q,false,false,0.0-2.0-0.60-0.543-3.543,0,0,0,68,false,stim,true,2,999.8250000062399,0,1,1,14312,WMM1,1805465,false,false,1871,image-keyboard-response,60
false,14,-1,0,0,false,q,true,false,0.0-2.0-0.60-0.544-3.544,1,1,1,,true,stim,false,0,,0,1,0,14312,WMM1,1932191,false,false,1994,image-keyboard-response,1
true,14,0,0,2,false,d,true,false,0.0-2.0-0.60-0.545-3.545,1,1,1,81,false,stim,false,2,1332.334999984596,0,1,2,14312,WMM1,1935066,false,false,1997,image-keyboard-response,2
true,14,0,0,0,true,q,false,true,0.0-2.0-0.60-0.546-3.546,1,1,1,81,false,stim,false,0,803.9650000282563,0,1,0,14312,WMM1,1937418,false,false,2000,image-keyboard-response,3
true,14,1,0,0,false,q,true,false,0.0-2.0-0.60-0.547-3.547,1,1,1,90,false,stim,false,0,630.2099999738857,0,1,1,14312,WMM1,1939591,false,false,2003,image-keyboard-response,4
true,14,2,0,0,false,q,true,false,0.0-2.0-0.60-0.548-3.548,1,1,1,68,false,stim,false,0,1200.6650000112131,0,1,0,14312,WMM1,1942333,false,false,2006,image-keyboard-response,5
true,14,2,0,0,false,q,true,true,0.0-2.0-0.61-0.549-3.549,1,1,1,68,false,stim,false,0,1506.6250000381842,0,1,1,14312,WMM1,1945383,false,true,2009,image-keyboard-response,6
true,14,0,0,0,true,q,false,false,0.0-2.0-0.61-0.550-3.550,1,1,1,81,false,stim,false,0,774.535000033211,0,1,0,14312,WMM1,1947710,false,true,2012,image-keyboard-response,7
true,14,2,0,0,false,q,true,false,0.0-2.0-0.61-0.551-3.551,1,1,1,68,false,stim,false,0,1088.675000006333,0,1,1,14312,WMM1,1950380,false,false,2015,image-keyboard-response,8
true,14,1,0,2,false,d,true,false,0.0-2.0-0.61-0.552-3.552,1,1,1,90,false,stim,false,2,1177.9800000367686,0,1,2,14312,WMM1,1953106,false,false,2018,image-keyboard-response,9
true,14,2,0,2,true,d,false,true,0.0-2.0-0.61-0.553-3.553,1,1,1,68,false,stim,false,2,1100.0449999701232,0,1,2,14312,WMM1,1955751,false,false,2021,image-keyboard-response,10
true,14,2,0,2,true,d,false,true,0.0-2.0-0.61-0.554-3.554,1,1,1,68,false,stim,false,2,676.8400000291876,0,1,2,14312,WMM1,1957976,false,false,2024,image-keyboard-response,11
true,14,1,0,0,false,q,true,false,0.0-2.0-0.61-0.555-3.555,1,1,1,90,false,stim,false,0,1457.3700000182725,0,1,0,14312,WMM1,1960984,false,false,2027,image-keyboard-response,12
true,14,0,0,0,true,q,false,true,0.0-2.0-0.61-0.556-3.556,1,1,1,81,false,stim,false,0,2109.890000021551,0,1,1,14312,WMM1,1964639,false,false,2030,image-keyboard-response,13
true,14,0,0,0,true,q,false,true,0.0-2.0-0.61-0.557-3.557,1,1,1,81,false,stim,false,0,1091.4800000027753,0,1,0,14312,WMM1,1967281,false,false,2033,image-keyboard-response,14
true,14,2,0,2,true,d,false,false,0.0-2.0-0.62-0.558-3.558,1,1,1,68,false,stim,false,2,1024.7000000090338,0,1,2,14312,WMM1,1969845,false,true,2036,image-keyboard-response,15
true,14,1,0,2,false,d,true,false,0.0-2.0-0.62-0.559-3.559,1,1,1,90,false,stim,false,2,1650.5699999979697,0,1,2,14312,WMM1,1973059,false,false,2039,image-keyboard-response,16
true,14,0,0,0,true,q,false,false,0.0-2.0-0.62-0.560-3.560,1,1,1,81,false,stim,false,0,912.7599999774247,0,1,1,14312,WMM1,1975514,false,true,2042,image-keyboard-response,17
true,14,0,0,2,false,d,true,false,0.0-2.0-0.62-0.561-3.561,1,1,1,81,false,stim,false,2,789.1500000259839,0,1,2,14312,WMM1,1977864,false,false,2045,image-keyboard-response,18
true,14,0,0,0,true,q,false,true,0.0-2.0-0.62-0.562-3.562,1,1,1,81,false,stim,false,0,1665.964999992866,0,1,0,14312,WMM1,1981079,false,false,2048,image-keyboard-response,19
true,14,0,0,0,true,q,false,true,0.0-2.0-0.62-0.563-3.563,1,1,1,81,false,stim,false,0,537.1850000228733,0,1,0,14312,WMM1,1983158,false,false,2051,image-keyboard-response,20
true,14,0,0,0,true,q,false,true,0.0-2.0-0.62-0.564-3.564,1,1,1,81,false,stim,false,0,410.30499996850267,0,1,0,14312,WMM1,1985127,false,false,2054,image-keyboard-response,21
true,14,1,0,0,false,q,true,false,0.0-2.0-0.62-0.565-3.565,1,1,1,90,false,stim,false,0,1172.6100000087172,0,1,1,14312,WMM1,1987848,false,false,2057,image-keyboard-response,22
true,14,2,0,0,false,q,true,true,0.0-2.0-0.62-0.566-3.566,1,1,1,68,false,stim,false,0,520.1499999966472,0,1,1,14312,WMM1,1989919,false,true,2060,image-keyboard-response,23
true,14,2,0,0,false,q,true,false,0.0-2.0-0.63-0.567-3.567,1,1,1,68,false,stim,false,0,1049.6500000008382,0,1,1,14312,WMM1,1992503,false,false,2063,image-keyboard-response,24
true,14,2,0,0,false,q,true,false,0.0-2.0-0.63-0.568-3.568,1,1,1,68,false,stim,false,0,2995.11999997776,0,1,1,14312,WMM1,1997047,false,false,2066,image-keyboard-response,25
true,14,0,0,2,false,d,true,true,0.0-2.0-0.63-0.569-3.569,1,1,1,81,false,stim,false,2,2062.7199999871664,0,1,2,14312,WMM1,2000663,false,true,2069,image-keyboard-response,26
true,14,0,0,0,true,q,false,true,0.0-2.0-0.63-0.570-3.570,1,1,1,81,false,stim,false,0,602.7200000244193,0,1,0,14312,WMM1,2002826,false,false,2072,image-keyboard-response,27
true,14,0,0,0,true,q,false,true,0.0-2.0-0.63-0.571-3.571,1,1,1,81,false,stim,false,0,1061.5899999975227,0,1,0,14312,WMM1,2005433,false,false,2075,image-keyboard-response,28
true,14,0,0,2,false,d,true,false,0.0-2.0-0.63-0.572-3.572,1,1,1,81,false,stim,false,2,310.21500000497326,0,1,2,14312,WMM1,2007287,false,false,2078,image-keyboard-response,29
true,14,0,0,0,true,q,false,true,0.0-2.0-0.63-0.573-3.573,1,1,1,81,false,stim,false,0,466.5800000075251,0,1,0,14312,WMM1,2009304,false,false,2081,image-keyboard-response,30
true,14,1,0,0,false,q,true,false,0.0-2.0-0.63-0.574-3.574,1,1,1,90,false,stim,false,0,1229.3850000132807,0,1,1,14312,WMM1,2012088,false,false,2084,image-keyboard-response,31
true,14,2,0,2,true,d,false,false,0.0-2.0-0.63-0.575-3.575,1,1,1,68,false,stim,false,2,1604.4650000403635,0,1,2,14312,WMM1,2015249,false,true,2087,image-keyboard-response,32
true,14,0,0,0,true,q,false,true,0.0-2.0-0.64-0.576-3.576,1,1,1,81,false,stim,false,0,964.6000000066124,0,1,0,14312,WMM1,2017771,false,false,2090,image-keyboard-response,33
true,14,0,0,0,true,q,false,true,0.0-2.0-0.64-0.577-3.577,1,1,1,81,false,stim,false,0,2641.104999987874,0,1,1,14312,WMM1,2021972,false,false,2093,image-keyboard-response,34
true,14,0,0,0,true,q,false,true,0.0-2.0-0.64-0.578-3.578,1,1,1,81,false,stim,false,0,594.5199999841861,0,1,0,14312,WMM1,2024122,false,false,2096,image-keyboard-response,35
true,14,1,0,2,false,d,true,false,0.0-2.0-0.64-0.579-3.579,1,1,1,90,false,stim,false,2,1420.9599999594502,0,1,2,14312,WMM1,2027103,false,false,2099,image-keyboard-response,36
true,14,2,0,2,true,d,false,true,0.0-2.0-0.64-0.580-3.580,1,1,1,68,false,stim,false,2,1006.9899999652989,0,1,2,14312,WMM1,2029651,false,false,2102,image-keyboard-response,37
true,14,0,0,0,true,q,false,true,0.0-2.0-0.64-0.581-3.581,1,1,1,81,false,stim,false,0,650.6750000407919,0,1,1,14312,WMM1,2031849,false,false,2105,image-keyboard-response,38
true,14,2,0,2,true,d,false,true,0.0-2.0-0.64-0.582-3.582,1,1,1,68,false,stim,false,2,928.139999974519,0,1,2,14312,WMM1,2034322,false,false,2108,image-keyboard-response,39
true,14,2,0,0,false,q,true,false,0.0-2.0-0.64-0.583-3.583,1,1,1,68,false,stim,false,0,526.3099999865517,0,0,1,14312,WMM1,2036403,false,false,2111,image-keyboard-response,40
true,14,0,0,0,true,q,false,true,0.0-2.0-0.64-0.584-3.584,1,1,1,81,false,stim,false,0,421.23500001616776,0,0,0,14312,WMM1,2038391,false,false,2114,image-keyboard-response,41
