answered,blockNum,choice,condition,corResp,correct,correct_response,explo,fb,internal_node_id,isStable_1,isStable_2,isStable_3,key_press,newBlock,part,persev,persevResp,rt,sessNum,stableAS,stimulus,subject,task,time_elapsed,training,trap,trial_index,trial_type,trialsInBlock
true,1,0,0,2,false,d,true,false,0.0-2.0-0.0-0.0-3.0,0,0,0,81,true,stim,false,-1,1070.999999999971,3,0,0,15121,WMM1,237059,false,false,94,image-keyboard-response,1
true,1,1,0,2,false,d,true,false,0.0-2.0-0.0-0.1-3.1,0,0,0,90,false,stim,false,-1,1582.0,3,0,0,15121,WMM1,240147,false,false,97,image-keyboard-response,2
true,1,0,0,2,false,d,true,false,0.0-2.0-0.0-0.2-3.2,0,0,0,81,false,stim,false,-1,1430.0,3,0,1,15121,WMM1,243083,false,false,100,image-keyboard-response,3
true,1,1,0,2,false,d,true,false,0.0-2.0-0.0-0.3-3.3,0,0,0,90,false,stim,false,-1,1858.0,3,0,1,15121,WMM1,246445,false,false,103,image-keyboard-response,4
true,1,2,0,2,true,d,false,true,0.0-2.0-0.0-0.4-3.4,0,0,0,68,false,stim,false,-1,1765.0,3,0,0,15121,WMM1,249715,false,false,106,image-keyboard-response,5
true,1,0,0,0,true,q,false,true,0.0-2.0-0.0-0.5-3.5,0,0,0,81,false,stim,false,-1,1583.000000000029,3,0,2,15121,WMM1,252803,false,false,109,image-keyboard-response,6
true,1,2,0,2,true,d,false,true,0.0-2.0-0.0-0.6-3.6,0,0,0,68,false,stim,false,-1,1950.0,3,0,1,15121,WMM1,256259,false,false,112,image-keyboard-response,7
true,1,0,0,0,true,q,false,true,0.0-2.0-0.0-0.7-3.7,0,0,0,81,false,stim,false,-1,1630.0,3,0,2,15121,WMM1,259395,false,false,115,image-keyboard-response,8
true,1,0,0,0,true,q,false,true,0.0-2.0-0.0-0.8-3.8,0,0,0,81,false,stim,false,-1,2341.0,3,0,2,15121,WMM1,263242,false,false,118,image-keyboard-response,9
true,1,2,0,2,true,d,false,true,0.0-2.0-0.1-0.9-3.9,0,0,0,68,false,stim,false,-1,1247.0,3,0,1,15121,WMM1,265993,false,false,121,image-keyboard-response,10
true,1,2,0,2,true,d,false,true,0.0-2.0-0.1-0.10-3.10,0,0,0,68,false,stim,false,-1,1487.0,3,0,0,15121,WMM1,268986,false,false,124,image-keyboard-response,11
true,1,0,0,0,true,q,false,true,0.0-2.0-0.1-0.11-3.11,0,0,0,81,false,stim,false,-1,2308.999999999942,3,0,2,15121,WMM1,272800,false,false,127,image-keyboard-response,12
true,1,2,0,2,true,d,false,true,0.0-2.0-0.1-0.12-3.12,0,0,0,68,false,stim,false,-1,1726.0,3,0,1,15121,WMM1,276032,false,false,130,image-keyboard-response,13
true,1,0,0,0,true,q,false,true,0.0-2.0-0.1-0.13-3.13,0,0,0,81,false,stim,false,-1,1767.0,3,0,2,15121,WMM1,279304,false,false,133,image-keyboard-response,14
true,1,2,0,2,true,d,false,false,0.0-2.0-0.1-0.14-3.14,0,0,0,68,false,stim,false,-1,1558.0,3,0,1,15121,WMM1,282369,false,true,136,image-keyboard-response,15
true,1,2,0,2,true,d,false,true,0.0-2.0-0.1-0.15-3.15,0,0,0,68,false,stim,false,-1,2303.000000000058,3,0,0,15121,WMM1,286177,false,false,139,image-keyboard-response,16
true,1,0,0,0,true,q,false,true,0.0-2.0-0.1-0.16-3.16,0,0,0,81,false,stim,false,-1,1670.0,3,0,2,15121,WMM1,289353,false,false,142,image-keyboard-response,17
true,1,2,0,2,true,d,false,true,0.0-2.0-0.1-0.17-3.17,0,0,0,68,false,stim,false,-1,2377.0,3,0,0,15121,WMM1,293236,false,false,145,image-keyboard-response,18
true,1,0,0,0,true,q,false,false,0.0-2.0-0.2-0.18-3.18,0,0,0,81,false,stim,false,-1,1590.9999999999418,3,0,2,15121,WMM1,296333,false,true,148,image-keyboard-response,19
true,1,2,0,2,true,d,false,true,0.0-2.0-0.2-0.19-3.19,0,0,0,68,false,stim,false,-1,1694.9999999999418,3,0,1,15121,WMM1,299533,false,false,151,image-keyboard-response,20
false,1,-1,0,2,false,d,false,false,0.0-2.0-0.2-0.20-3.20,0,0,0,,false,stim,true,-1,,3,0,0,15121,WMM1,304040,false,false,154,image-keyboard-response,21
true,1,2,0,2,true,d,false,true,0.0-2.0-0.2-0.21-3.21,0,0,0,68,false,stim,false,-1,1054.0,3,0,1,15121,WMM1,306599,false,false,157,image-keyboard-response,22
true,1,2,0,2,true,d,false,true,0.0-2.0-0.2-0.22-3.22,0,0,0,68,false,stim,false,-1,831.0,3,0,1,15121,WMM1,308935,false,false,160,image-keyboard-response,23
true,1,2,0,2,true,d,false,true,0.0-2.0-0.2-0.23-3.23,0,0,0,68,false,stim,false,-1,1118.0,3,0,0,15121,WMM1,311559,false,false,163,image-keyboard-response,24
true,1,2,0,0,false,q,true,false,0.0-2.0-0.2-0.24-3.24,0,0,0,68,false,stim,false,-1,936.0,3,0,2,15121,WMM1,313999,false,false,166,image-keyboard-response,25
true,1,2,0,2,true,d,false,false,0.0-2.0-0.2-0.25-3.25,0,0,0,68,false,stim,false,-1,983.0,3,0,0,15121,WMM1,316487,false,true,169,image-keyboard-response,26
true,1,0,0,0,true,q,false,true,0.0-2.0-0.2-0.26-3.26,0,0,0,81,false,stim,false,-1,1654.9999999999418,3,0,2,15121,WMM1,319647,false,false,172,image-keyboard-response,27
true,1,2,0,2,true,d,false,true,0.0-2.0-0.3-0.27-3.27,0,0,0,68,false,stim,false,-1,1021.9999999999418,3,0,0,15121,WMM1,322175,false,false,175,image-keyboard-response,28
true,1,0,0,0,true,q,false,true,0.0-2.0-0.3-0.28-3.28,0,0,0,81,false,stim,false,-1,1415.0,3,0,2,15121,WMM1,325095,false,false,178,image-keyboard-response,29
false,1,-1,0,2,false,d,false,false,0.0-2.0-0.3-0.29-3.29,0,0,0,,false,stim,true,-1,,3,0,0,15121,WMM1,329601,false,false,181,image-keyboard-response,30
false,2,-1,1,2,false,d,true,false,0.0-2.0-0.3-0.30-3.30,0,0,0,,true,stim,false,0,,3,0,2,15121,WMM1,334107,false,false,184,image-keyboard-response,1
true,2,2,1,0,false,q,false,false,0.0-2.0-0.3-0.31-3.31,0,0,0,68,false,stim,true,2,1591.9999999999418,3,0,1,15121,WMM1,337205,false,false,187,image-keyboard-response,2
true,2,2,1,1,false,z,false,false,0.0-2.0-0.3-0.32-3.32,0,0,0,68,false,stim,true,2,1430.0,3,0,0,15121,WMM1,340141,false,false,190,image-keyboard-response,3
false,2,-1,1,0,false,q,true,false,0.0-2.0-0.3-0.33-3.33,0,0,0,,false,stim,false,2,,3,0,1,15121,WMM1,344647,false,false,193,image-keyboard-response,4
true,2,1,1,2,false,d,true,false,0.0-2.0-0.3-0.34-3.34,0,0,0,90,false,stim,false,0,2479.0,3,0,2,15121,WMM1,348632,false,false,196,image-keyboard-response,5
true,2,1,1,0,false,q,true,false,0.0-2.0-0.3-0.35-3.35,0,0,0,90,false,stim,false,2,2333.0,3,0,1,15121,WMM1,352470,false,false,199,image-keyboard-response,6
true,2,2,1,2,true,d,false,true,0.0-2.0-0.4-0.36-3.36,0,0,0,68,false,stim,false,0,1542.0,3,0,2,15121,WMM1,355518,false,false,202,image-keyboard-response,7
true,2,1,1,1,true,z,false,true,0.0-2.0-0.4-0.37-3.37,0,0,0,90,false,stim,false,2,1999.0,3,0,0,15121,WMM1,359022,false,false,205,image-keyboard-response,8
true,2,0,1,0,true,q,false,true,0.0-2.0-0.4-0.38-3.38,0,0,0,81,false,stim,false,2,2143.0,3,0,1,15121,WMM1,362670,false,false,208,image-keyboard-response,9
true,2,0,1,0,true,q,false,true,0.0-2.0-0.4-0.39-3.39,0,0,0,81,false,stim,false,2,1191.0,3,0,1,15121,WMM1,365367,false,false,211,image-keyboard-response,10
true,2,1,1,1,true,z,false,false,0.0-2.0-0.4-0.40-3.40,0,0,0,90,false,stim,false,2,1898.0,3,0,0,15121,WMM1,368770,false,true,214,image-keyboard-response,11
true,2,2,1,2,true,d,false,true,0.0-2.0-0.4-0.41-3.41,0,0,0,68,false,stim,false,0,2232.999999999942,3,0,2,15121,WMM1,372507,false,false,217,image-keyboard-response,12
true,2,0,1,0,true,q,false,true,0.0-2.0-0.4-0.42-3.42,0,0,0,81,false,stim,false,2,2151.0,3,0,1,15121,WMM1,376162,false,false,220,image-keyboard-response,13
true,2,2,1,2,true,d,false,true,0.0-2.0-0.4-0.43-3.43,0,0,0,68,false,stim,false,0,1931.0,3,0,2,15121,WMM1,379598,false,false,223,image-keyboard-response,14
true,2,1,1,1,true,z,false,true,0.0-2.0-0.4-0.44-3.44,0,0,0,90,false,stim,false,2,1390.0,3,0,0,15121,WMM1,382495,false,false,226,image-keyboard-response,15
true,2,2,1,2,true,d,false,true,0.0-2.0-0.5-0.45-3.45,0,0,0,68,false,stim,false,0,1509.9999999999418,3,0,2,15121,WMM1,385511,false,false,229,image-keyboard-response,16
true,2,2,1,2,true,d,false,true,0.0-2.0-0.5-0.46-3.46,0,0,0,68,false,stim,false,0,1022.0,3,0,2,15121,WMM1,388038,false,false,232,image-keyboard-response,17
true,2,1,1,1,true,z,false,true,0.0-2.0-0.5-0.47-3.47,0,0,0,90,false,stim,false,2,1399.0,3,0,0,15121,WMM1,390943,false,false,235,image-keyboard-response,18
true,2,2,1,2,true,d,false,true,0.0-2.0-0.5-0.48-3.48,0,0,0,68,false,stim,false,0,1718.0000000000582,3,0,2,15121,WMM1,394167,false,false,238,image-keyboard-response,19
true,2,0,1,0,true,q,false,true,0.0-2.0-0.5-0.49-3.49,0,0,0,81,false,stim,false,2,1726.0,3,0,1,15121,WMM1,397399,false,false,241,image-keyboard-response,20
true,2,1,1,1,true,z,false,true,0.0-2.0-0.5-0.50-3.50,0,0,0,90,false,stim,false,2,1541.9999999999418,3,0,0,15121,WMM1,400447,false,false,244,image-keyboard-response,21
true,2,1,1,1,true,z,false,true,0.0-2.0-0.5-0.51-3.51,0,0,0,90,false,stim,false,2,2156.0,3,0,0,15121,WMM1,404108,false,false,247,image-keyboard-response,22
true,2,0,1,0,true,q,false,true,0.0-2.0-0.5-0.52-3.52,0,0,0,81,false,stim,false,2,2065.0,3,0,1,15121,WMM1,407679,false,false,250,image-keyboard-response,23
true,2,0,1,0,true,q,false,true,0.0-2.0-0.5-0.53-3.53,0,0,0,81,false,stim,false,2,2007.0000000000582,3,0,1,15121,WMM1,411191,false,false,253,image-keyboard-response,24
true,2,0,1,0,true,q,false,true,0.0-2.0-0.6-0.54-3.54,0,0,0,81,false,stim,false,2,1078.0000000000582,3,0,1,15121,WMM1,413775,false,false,256,image-keyboard-response,25
true,2,0,1,0,true,q,false,true,0.0-2.0-0.6-0.55-3.55,0,0,0,81,false,stim,false,2,750.0,3,0,1,15121,WMM1,416031,false,false,259,image-keyboard-response,26
true,2,0,1,0,true,q,false,true,0.0-2.0-0.6-0.56-3.56,0,0,0,81,false,stim,false,2,1461.9999999999418,3,0,1,15121,WMM1,418999,false,false,262,image-keyboard-response,27
true,2,2,1,2,true,d,false,true,0.0-2.0-0.6-0.57-3.57,0,0,0,68,false,stim,false,0,1550.0,3,0,2,15121,WMM1,422055,false,false,265,image-keyboard-response,28
true,2,1,1,1,true,z,false,true,0.0-2.0-0.6-0.58-3.58,0,0,0,90,false,stim,false,2,1882.0,3,0,0,15121,WMM1,425443,false,false,268,image-keyboard-response,29
true,2,2,1,2,true,d,false,true,0.0-2.0-0.6-0.59-3.59,0,0,0,68,false,stim,false,0,1871.0,3,0,2,15121,WMM1,428819,false,false,271,image-keyboard-response,30
true,3,1,1,2,false,d,false,false,0.0-2.0-0.6-0.60-3.60,0,0,0,90,true,stim,true,1,1711.0,3,0,0,15121,WMM1,432035,false,false,274,image-keyboard-response,1
true,3,1,1,2,false,d,false,false,0.0-2.0-0.6-0.61-3.61,0,0,0,90,false,stim,true,1,511.0,3,0,0,15121,WMM1,434051,false,false,277,image-keyboard-response,2
true,3,2,1,0,false,q,false,false,0.0-2.0-0.6-0.62-3.62,0,0,0,68,false,stim,true,2,1575.0,3,0,2,15121,WMM1,437131,false,false,280,image-keyboard-response,3
true,3,1,1,0,false,q,true,false,0.0-2.0-0.7-0.63-3.63,0,0,0,90,false,stim,false,2,2128.0,3,0,2,15121,WMM1,440761,false,false,283,image-keyboard-response,4
true,3,1,1,1,true,z,false,false,0.0-2.0-0.7-0.64-3.64,0,0,0,90,false,stim,false,0,1777.0000000000582,3,0,1,15121,WMM1,444042,false,true,286,image-keyboard-response,5
true,3,2,1,2,true,d,false,true,0.0-2.0-0.7-0.65-3.65,0,0,0,68,false,stim,false,1,1951.0,3,0,0,15121,WMM1,447498,false,false,289,image-keyboard-response,6
false,3,-1,1,2,false,d,true,false,0.0-2.0-0.7-0.66-3.66,0,0,0,,false,stim,false,1,,3,0,0,15121,WMM1,452005,false,false,292,image-keyboard-response,7
false,3,-1,1,0,false,q,true,false,0.0-2.0-0.7-0.67-3.67,0,0,0,,false,stim,false,2,,3,0,2,15121,WMM1,456510,false,false,295,image-keyboard-response,8
false,3,-1,1,1,false,z,true,false,0.0-2.0-0.7-0.68-3.68,0,0,0,,false,stim,false,0,,3,0,1,15121,WMM1,461017,false,false,298,image-keyboard-response,9
true,3,0,1,0,true,q,false,true,0.0-2.0-0.7-0.69-3.69,0,0,0,81,false,stim,false,2,2222.0,3,0,2,15121,WMM1,464746,false,false,301,image-keyboard-response,10
true,3,0,1,1,false,z,false,false,0.0-2.0-0.7-0.70-3.70,0,0,0,81,false,stim,true,0,1887.0,3,0,1,15121,WMM1,468137,false,false,304,image-keyboard-response,11
true,3,0,1,2,false,d,true,false,0.0-2.0-0.7-0.71-3.71,0,0,0,81,false,stim,false,1,1638.0000000000582,3,0,0,15121,WMM1,471281,false,false,307,image-keyboard-response,12
true,3,2,1,2,true,d,false,true,0.0-2.0-0.8-0.72-3.72,0,0,0,68,false,stim,false,1,919.0,3,0,0,15121,WMM1,473705,false,false,310,image-keyboard-response,13
true,3,2,1,1,false,z,true,false,0.0-2.0-0.8-0.73-3.73,0,0,0,68,false,stim,false,0,1101.9999999999418,3,0,1,15121,WMM1,476314,false,false,313,image-keyboard-response,14
true,3,0,1,0,true,q,false,true,0.0-2.0-0.8-0.74-3.74,0,0,0,81,false,stim,false,2,1503.0,3,0,2,15121,WMM1,479322,false,false,316,image-keyboard-response,15
true,3,2,1,1,false,z,true,false,0.0-2.0-0.8-0.75-3.75,0,0,0,68,false,stim,false,0,1430.0000000000582,3,0,1,15121,WMM1,482257,false,false,319,image-keyboard-response,16
true,3,2,1,2,true,d,false,true,0.0-2.0-0.8-0.76-3.76,0,0,0,68,false,stim,false,1,1727.0,3,0,0,15121,WMM1,485490,false,false,322,image-keyboard-response,17
true,3,1,1,1,true,z,false,true,0.0-2.0-0.8-0.77-3.77,0,0,0,90,false,stim,false,0,1477.9999999999418,3,0,1,15121,WMM1,488474,false,false,325,image-keyboard-response,18
true,3,0,1,0,true,q,false,true,0.0-2.0-0.8-0.78-3.78,0,0,0,81,false,stim,false,2,1767.0,3,0,2,15121,WMM1,491746,false,false,328,image-keyboard-response,19
true,3,2,1,2,true,d,false,false,0.0-2.0-0.8-0.79-3.79,0,0,0,68,false,stim,false,1,1501.0000000000582,3,0,0,15121,WMM1,494753,false,true,331,image-keyboard-response,20
true,3,0,1,0,true,q,false,false,0.0-2.0-0.8-0.80-3.80,0,0,0,81,false,stim,false,2,1903.0,3,0,2,15121,WMM1,498162,false,true,334,image-keyboard-response,21
true,3,2,1,2,true,d,false,true,0.0-2.0-0.9-0.81-3.81,0,0,0,68,false,stim,false,1,1438.0,3,0,0,15121,WMM1,501106,false,false,337,image-keyboard-response,22
true,3,1,1,1,true,z,false,true,0.0-2.0-0.9-0.82-3.82,0,0,0,90,false,stim,false,0,1557.0000000000582,3,0,1,15121,WMM1,504169,false,false,340,image-keyboard-response,23
true,3,0,1,0,true,q,false,true,0.0-2.0-0.9-0.83-3.83,0,0,0,81,false,stim,false,2,991.0,3,0,2,15121,WMM1,506666,false,false,343,image-keyboard-response,24
true,3,2,1,2,true,d,false,false,0.0-2.0-0.9-0.84-3.84,0,0,0,68,false,stim,false,1,1390.0,3,0,0,15121,WMM1,509562,false,true,346,image-keyboard-response,25
true,3,0,1,0,true,q,false,true,0.0-2.0-0.9-0.85-3.85,0,0,0,81,false,stim,false,2,1901.9999999998836,3,0,2,15121,WMM1,512970,false,false,349,image-keyboard-response,26
true,3,0,1,0,true,q,false,true,0.0-2.0-0.9-0.86-3.86,0,0,0,81,false,stim,false,2,1086.0,3,0,2,15121,WMM1,515562,false,false,352,image-keyboard-response,27
true,3,2,1,2,true,d,false,false,0.0-2.0-0.9-0.87-3.87,0,0,0,68,false,stim,false,1,1414.9999999999418,3,0,0,15121,WMM1,518482,false,true,355,image-keyboard-response,28
true,3,1,1,1,true,z,false,true,0.0-2.0-0.9-0.88-3.88,0,0,0,90,false,stim,false,0,2067.0,3,0,1,15121,WMM1,522055,false,false,358,image-keyboard-response,29
true,3,1,1,1,true,z,false,true,0.0-2.0-0.9-0.89-3.89,0,0,0,90,false,stim,false,0,1590.0,3,0,1,15121,WMM1,525151,false,false,361,image-keyboard-response,30
true,3,0,1,0,true,q,false,true,0.0-2.0-0.10-0.90-3.90,0,0,0,81,false,stim,false,2,1390.0,3,0,2,15121,WMM1,528047,false,false,364,image-keyboard-response,31
true,3,1,1,2,false,d,false,false,0.0-2.0-0.10-0.91-3.91,0,0,0,90,false,stim,true,1,2041.0,3,0,0,15121,WMM1,531593,false,false,367,image-keyboard-response,32
true,3,0,1,2,false,d,true,true,0.0-2.0-0.10-0.92-3.92,0,0,0,81,false,stim,false,1,1007.0000000001164,3,0,0,15121,WMM1,534106,false,true,370,image-keyboard-response,33
true,4,0,2,1,false,z,true,true,0.0-2.0-0.10-0.93-3.93,0,0,0,81,true,stim,false,2,669.0,3,0,0,15121,WMM1,536281,false,true,373,image-keyboard-response,1
true,4,0,2,2,false,d,false,false,0.0-2.0-0.10-0.94-3.94,0,0,0,81,false,stim,true,0,1511.0,3,0,2,15121,WMM1,539297,false,false,376,image-keyboard-response,2
false,4,-1,2,2,false,d,true,false,0.0-2.0-0.10-0.95-3.95,0,0,0,,false,stim,false,0,,3,0,2,15121,WMM1,543804,false,false,379,image-keyboard-response,3
false,4,-1,2,0,false,q,true,false,0.0-2.0-0.10-0.96-3.96,0,0,0,,false,stim,false,1,,3,0,1,15121,WMM1,548310,false,false,382,image-keyboard-response,4
false,4,-1,2,0,false,q,true,false,0.0-2.0-0.10-0.97-3.97,0,0,0,,false,stim,false,1,,3,0,1,15121,WMM1,552816,false,false,385,image-keyboard-response,5
false,4,-1,2,0,false,q,true,false,0.0-2.0-0.10-0.98-3.98,0,0,0,,false,stim,false,1,,3,0,1,15121,WMM1,557321,false,false,388,image-keyboard-response,6
false,4,-1,2,0,false,q,true,false,0.0-2.0-0.11-0.99-3.99,0,0,0,,false,stim,false,1,,3,0,1,15121,WMM1,561828,false,false,391,image-keyboard-response,7
true,4,0,2,2,false,d,false,false,0.0-2.0-0.11-0.100-3.100,0,0,0,81,false,stim,true,0,1807.9999999998836,3,0,2,15121,WMM1,578717,false,false,395,image-keyboard-response,8
true,4,1,2,0,false,q,false,false,0.0-2.0-0.11-0.101-3.101,0,0,0,90,false,stim,true,1,2064.0,3,0,1,15121,WMM1,582287,false,false,398,image-keyboard-response,9
false,4,-1,2,2,false,d,true,false,0.0-2.0-0.11-0.102-3.102,0,0,0,,false,stim,false,0,,3,0,2,15121,WMM1,586795,false,false,401,image-keyboard-response,10
true,4,0,2,0,true,q,false,true,0.0-2.0-0.11-0.103-3.103,0,0,0,81,false,stim,false,1,1235.0,3,0,1,15121,WMM1,589536,false,false,404,image-keyboard-response,11
true,4,0,2,1,false,z,true,false,0.0-2.0-0.11-0.104-3.104,0,0,0,81,false,stim,false,2,1350.0000000001164,3,0,0,15121,WMM1,592391,false,false,407,image-keyboard-response,12
true,4,2,2,1,false,z,false,false,0.0-2.0-0.11-0.105-3.105,0,0,0,68,false,stim,true,2,1176.0,3,0,0,15121,WMM1,595072,false,false,410,image-keyboard-response,13
true,4,1,2,1,true,z,false,true,0.0-2.0-0.11-0.106-3.106,0,0,0,90,false,stim,false,2,991.0,3,0,0,15121,WMM1,597568,false,false,413,image-keyboard-response,14
true,4,2,2,2,true,d,false,true,0.0-2.0-0.11-0.107-3.107,0,0,0,68,false,stim,false,0,1638.0,3,0,2,15121,WMM1,600712,false,false,416,image-keyboard-response,15
true,4,1,2,1,true,z,false,true,0.0-2.0-0.12-0.108-3.108,0,0,0,90,false,stim,false,2,1774.0,3,0,0,15121,WMM1,603993,false,false,419,image-keyboard-response,16
true,4,1,2,1,true,z,false,true,0.0-2.0-0.12-0.109-3.109,0,0,0,90,false,stim,false,2,1718.0,3,0,0,15121,WMM1,607220,false,false,422,image-keyboard-response,17
true,4,0,2,0,true,q,false,true,0.0-2.0-0.12-0.110-3.110,0,0,0,81,false,stim,false,1,1765.0,3,0,1,15121,WMM1,610492,false,false,425,image-keyboard-response,18
true,4,1,2,1,true,z,false,true,0.0-2.0-0.12-0.111-3.111,0,0,0,90,false,stim,false,2,2300.0,3,0,0,15121,WMM1,614299,false,false,428,image-keyboard-response,19
true,4,0,2,0,true,q,false,true,0.0-2.0-0.12-0.112-3.112,0,0,0,81,false,stim,false,1,1927.0,3,0,1,15121,WMM1,617732,false,false,431,image-keyboard-response,20
true,4,2,2,2,true,d,false,true,0.0-2.0-0.12-0.113-3.113,0,0,0,68,false,stim,false,0,2202.0,3,0,2,15121,WMM1,621442,false,false,434,image-keyboard-response,21
true,4,0,2,0,true,q,false,true,0.0-2.0-0.12-0.114-3.114,0,0,0,81,false,stim,false,1,1526.0000000001164,3,0,1,15121,WMM1,624474,false,false,437,image-keyboard-response,22
true,4,2,2,2,true,d,false,true,0.0-2.0-0.12-0.115-3.115,0,0,0,68,false,stim,false,0,1447.0000000001164,3,0,2,15121,WMM1,627427,false,false,440,image-keyboard-response,23
true,4,2,2,2,true,d,false,true,0.0-2.0-0.12-0.116-3.116,0,0,0,68,false,stim,false,0,1470.0000000001164,3,0,2,15121,WMM1,630403,false,false,443,image-keyboard-response,24
true,4,0,2,0,true,q,false,true,0.0-2.0-0.13-0.117-3.117,0,0,0,81,false,stim,false,1,2320.0,3,0,1,15121,WMM1,634229,false,false,446,image-keyboard-response,25
false,4,-1,2,1,false,z,true,false,0.0-2.0-0.13-0.118-3.118,0,0,0,,false,stim,false,2,,3,1,0,15121,WMM1,638737,false,false,449,image-keyboard-response,26
true,4,2,2,2,true,d,false,true,0.0-2.0-0.13-0.119-3.119,0,0,0,68,false,stim,false,0,1271.0,3,0,2,15121,WMM1,641513,false,false,452,image-keyboard-response,27
true,4,1,2,1,true,z,false,true,0.0-2.0-0.13-0.120-3.120,0,0,0,90,false,stim,false,2,1790.0,3,1,0,15121,WMM1,644809,false,false,455,image-keyboard-response,28
true,4,1,2,1,true,z,false,true,0.0-2.0-0.13-0.121-3.121,0,0,0,90,false,stim,false,2,1263.0,3,1,0,15121,WMM1,647578,false,false,458,image-keyboard-response,29
true,4,2,2,2,true,d,false,true,0.0-2.0-0.13-0.122-3.122,0,0,0,68,false,stim,false,0,1263.0,3,0,2,15121,WMM1,650346,false,false,461,image-keyboard-response,30
true,4,0,2,0,true,q,false,true,0.0-2.0-0.13-0.123-3.123,0,0,0,81,false,stim,false,1,1055.0000000001164,3,0,1,15121,WMM1,652906,false,false,464,image-keyboard-response,31
true,5,2,3,0,false,q,false,false,0.0-2.0-0.13-0.124-3.124,1,0,0,68,true,stim,true,2,1359.0,3,0,2,15121,WMM1,655770,false,false,467,image-keyboard-response,1
true,5,2,3,1,false,z,true,false,0.0-2.0-0.13-0.125-3.125,1,0,0,68,false,stim,false,0,2552.0,3,0,1,15121,WMM1,659827,false,false,470,image-keyboard-response,2
true,5,0,3,1,false,z,false,true,0.0-2.0-0.14-0.126-3.126,1,0,0,81,false,stim,true,0,1094.0,3,0,1,15121,WMM1,662427,false,true,473,image-keyboard-response,3
true,5,1,3,1,true,z,false,true,0.0-2.0-0.14-0.127-3.127,1,0,0,90,false,stim,false,1,1526.0,3,1,0,15121,WMM1,665459,false,false,476,image-keyboard-response,4
true,5,0,3,1,false,z,false,false,0.0-2.0-0.14-0.128-3.128,1,0,0,81,false,stim,true,0,1926.0,3,0,1,15121,WMM1,668892,false,false,479,image-keyboard-response,5
true,5,2,3,1,false,z,true,false,0.0-2.0-0.14-0.129-3.129,1,0,0,68,false,stim,false,0,1150.9999999998836,3,0,1,15121,WMM1,671548,false,false,482,image-keyboard-response,6
true,5,2,3,0,false,q,false,false,0.0-2.0-0.14-0.130-3.130,1,0,0,68,false,stim,true,2,1439.0,3,0,2,15121,WMM1,674492,false,false,485,image-keyboard-response,7
true,5,1,3,1,true,z,false,true,0.0-2.0-0.14-0.131-3.131,1,0,0,90,false,stim,false,1,1678.0,3,1,0,15121,WMM1,677676,false,false,488,image-keyboard-response,8
true,5,1,3,1,true,z,false,true,0.0-2.0-0.14-0.132-3.132,1,0,0,90,false,stim,false,1,2038.9999999998836,3,1,0,15121,WMM1,681220,false,false,491,image-keyboard-response,9
true,5,1,3,0,false,q,true,false,0.0-2.0-0.14-0.133-3.133,1,0,0,90,false,stim,false,2,2023.0000000001164,3,0,2,15121,WMM1,684748,false,false,494,image-keyboard-response,10
true,5,0,3,0,true,q,false,true,0.0-2.0-0.14-0.134-3.134,1,0,0,81,false,stim,false,2,1597.9999999998836,3,0,2,15121,WMM1,687852,false,false,497,image-keyboard-response,11
true,5,1,3,1,true,z,false,true,0.0-2.0-0.15-0.135-3.135,1,0,0,90,false,stim,false,1,1961.0,3,1,0,15121,WMM1,691319,false,false,500,image-keyboard-response,12
true,5,0,3,0,true,q,false,true,0.0-2.0-0.15-0.136-3.136,1,0,0,81,false,stim,false,2,2469.0,3,0,2,15121,WMM1,695296,false,false,503,image-keyboard-response,13
true,5,0,3,0,true,q,false,true,0.0-2.0-0.15-0.137-3.137,1,0,0,81,false,stim,false,2,1335.0,3,0,2,15121,WMM1,698136,false,false,506,image-keyboard-response,14
true,5,2,3,1,false,z,true,false,0.0-2.0-0.15-0.138-3.138,1,0,0,68,false,stim,false,0,1055.0000000001164,3,0,1,15121,WMM1,700696,false,false,509,image-keyboard-response,15
true,5,0,3,1,false,z,false,false,0.0-2.0-0.15-0.139-3.139,1,0,0,81,false,stim,true,0,965.9999999998836,3,0,1,15121,WMM1,703168,false,false,512,image-keyboard-response,16
true,5,1,3,1,true,z,false,true,0.0-2.0-0.15-0.140-3.140,1,0,0,90,false,stim,false,1,1694.0,3,1,0,15121,WMM1,706368,false,false,515,image-keyboard-response,17
true,5,1,3,1,true,z,false,true,0.0-2.0-0.15-0.141-3.141,1,0,0,90,false,stim,false,0,598.0,3,0,1,15121,WMM1,708472,false,false,518,image-keyboard-response,18
true,5,1,3,1,true,z,false,true,0.0-2.0-0.15-0.142-3.142,1,0,0,90,false,stim,false,1,1846.0,3,1,0,15121,WMM1,711824,false,false,521,image-keyboard-response,19
true,5,0,3,0,true,q,false,true,0.0-2.0-0.15-0.143-3.143,1,0,0,81,false,stim,false,2,1134.0,3,0,2,15121,WMM1,714464,false,false,524,image-keyboard-response,20
true,5,1,3,1,true,z,false,true,0.0-2.0-0.16-0.144-3.144,1,0,0,90,false,stim,false,0,1340.9999999998836,3,0,1,15121,WMM1,717312,false,false,527,image-keyboard-response,21
true,5,1,3,1,true,z,false,false,0.0-2.0-0.16-0.145-3.145,1,0,0,90,false,stim,false,0,725.0,3,0,1,15121,WMM1,719544,false,true,530,image-keyboard-response,22
true,5,0,3,0,true,q,false,true,0.0-2.0-0.16-0.146-3.146,1,0,0,81,false,stim,false,2,1936.0,3,0,2,15121,WMM1,722985,false,false,533,image-keyboard-response,23
true,5,1,3,1,true,z,false,true,0.0-2.0-0.16-0.147-3.147,1,0,0,90,false,stim,false,1,1637.0,3,0,0,15121,WMM1,726128,false,false,536,image-keyboard-response,24
true,5,0,3,0,true,q,false,true,0.0-2.0-0.16-0.148-3.148,1,0,0,81,false,stim,false,2,1583.0,3,0,2,15121,WMM1,729217,false,false,539,image-keyboard-response,25
true,5,0,3,0,true,q,false,true,0.0-2.0-0.16-0.149-3.149,1,0,0,81,false,stim,false,2,1550.0,3,0,2,15121,WMM1,732273,false,false,542,image-keyboard-response,26
true,5,1,3,1,true,z,false,true,0.0-2.0-0.16-0.150-3.150,1,0,0,90,false,stim,false,1,2115.0,3,0,0,15121,WMM1,735894,false,false,545,image-keyboard-response,27
true,5,1,3,1,true,z,false,true,0.0-2.0-0.16-0.151-3.151,1,0,0,90,false,stim,false,0,2102.9999999998836,3,0,1,15121,WMM1,739502,false,false,548,image-keyboard-response,28
true,5,1,3,1,true,z,false,true,0.0-2.0-0.16-0.152-3.152,1,0,0,90,false,stim,false,1,2319.0,3,0,0,15121,WMM1,743326,false,false,551,image-keyboard-response,29
true,5,1,3,1,true,z,false,true,0.0-2.0-0.17-0.153-3.153,1,0,0,90,false,stim,false,1,900.9999999998836,3,0,0,15121,WMM1,745734,false,false,554,image-keyboard-response,30
true,5,1,3,1,true,z,false,true,0.0-2.0-0.17-0.154-3.154,1,0,0,90,false,stim,false,0,735.0,3,0,1,15121,WMM1,747974,false,false,557,image-keyboard-response,31
true,6,0,4,1,false,z,false,false,0.0-2.0-0.17-0.155-3.155,0,0,0,81,true,stim,true,0,974.0,3,0,2,15121,WMM1,750454,false,false,560,image-keyboard-response,1
true,6,1,4,0,false,q,false,false,0.0-2.0-0.17-0.156-3.156,0,0,0,90,false,stim,true,1,1094.0000000001164,3,0,0,15121,WMM1,753054,false,false,563,image-keyboard-response,2
true,6,2,4,0,false,q,true,false,0.0-2.0-0.17-0.157-3.157,0,0,0,68,false,stim,false,1,2094.9999999998836,3,0,0,15121,WMM1,756654,false,false,566,image-keyboard-response,3
true,6,1,4,2,false,d,false,false,0.0-2.0-0.17-0.158-3.158,0,0,0,90,false,stim,true,1,1669.9999999998836,3,0,1,15121,WMM1,759830,false,false,569,image-keyboard-response,4
true,6,0,4,1,false,z,false,false,0.0-2.0-0.17-0.159-3.159,0,0,0,81,false,stim,true,0,2582.0,3,0,2,15121,WMM1,763919,false,false,572,image-keyboard-response,5
true,6,2,4,2,true,d,false,true,0.0-2.0-0.17-0.160-3.160,0,0,0,68,false,stim,false,1,1661.9999999998836,3,0,1,15121,WMM1,767087,false,false,575,image-keyboard-response,6
true,6,2,4,1,false,z,true,false,0.0-2.0-0.17-0.161-3.161,0,0,0,68,false,stim,false,0,1431.0,3,0,2,15121,WMM1,770023,false,false,578,image-keyboard-response,7
true,6,1,4,1,true,z,false,true,0.0-2.0-0.18-0.162-3.162,0,0,0,90,false,stim,false,0,1141.0,3,0,2,15121,WMM1,772671,false,false,581,image-keyboard-response,8
true,6,1,4,1,true,z,false,false,0.0-2.0-0.18-0.163-3.163,0,0,0,90,false,stim,false,0,879.0000000001164,3,0,2,15121,WMM1,775055,false,true,584,image-keyboard-response,9
true,6,0,4,0,true,q,false,true,0.0-2.0-0.18-0.164-3.164,0,0,0,81,false,stim,false,1,1598.0,3,0,0,15121,WMM1,778159,false,false,587,image-keyboard-response,10
true,6,0,4,0,true,q,false,true,0.0-2.0-0.18-0.165-3.165,0,0,0,81,false,stim,false,1,1134.0,3,0,0,15121,WMM1,780799,false,false,590,image-keyboard-response,11
true,6,2,4,2,true,d,false,true,0.0-2.0-0.18-0.166-3.166,0,0,0,68,false,stim,false,1,1047.0,3,0,1,15121,WMM1,783351,false,false,593,image-keyboard-response,12
true,6,0,4,0,true,q,false,true,0.0-2.0-0.18-0.167-3.167,0,0,0,81,false,stim,false,1,1847.0000000001164,3,0,0,15121,WMM1,786703,false,false,596,image-keyboard-response,13
true,6,2,4,2,true,d,false,false,0.0-2.0-0.18-0.168-3.168,0,0,0,68,false,stim,false,1,1453.9999999998836,3,0,1,15121,WMM1,789663,false,true,599,image-keyboard-response,14
true,6,1,4,1,true,z,false,true,0.0-2.0-0.18-0.169-3.169,0,0,0,90,false,stim,false,0,1844.0,3,0,2,15121,WMM1,793016,false,false,602,image-keyboard-response,15
true,6,2,4,2,true,d,false,true,0.0-2.0-0.18-0.170-3.170,0,0,0,68,false,stim,false,1,1781.9999999998836,3,0,1,15121,WMM1,796304,false,false,605,image-keyboard-response,16
true,6,2,4,2,true,d,false,true,0.0-2.0-0.19-0.171-3.171,0,0,0,68,false,stim,false,1,814.0,3,0,1,15121,WMM1,798624,false,false,608,image-keyboard-response,17
true,6,1,4,1,true,z,false,true,0.0-2.0-0.19-0.172-3.172,0,0,0,90,false,stim,false,0,1582.0,3,0,2,15121,WMM1,801712,false,false,611,image-keyboard-response,18
true,6,1,4,1,true,z,false,true,0.0-2.0-0.19-0.173-3.173,0,0,0,90,false,stim,false,0,542.0,3,0,2,15121,WMM1,803760,false,false,614,image-keyboard-response,19
true,6,0,4,0,true,q,false,true,0.0-2.0-0.19-0.174-3.174,0,0,0,81,false,stim,false,1,1758.0,3,0,0,15121,WMM1,807024,false,false,617,image-keyboard-response,20
true,6,1,4,1,true,z,false,true,0.0-2.0-0.19-0.175-3.175,0,0,0,90,false,stim,false,0,1935.0,3,0,2,15121,WMM1,810465,false,false,620,image-keyboard-response,21
true,6,2,4,2,true,d,false,true,0.0-2.0-0.19-0.176-3.176,0,0,0,68,false,stim,false,1,1864.0,3,0,1,15121,WMM1,813833,false,false,623,image-keyboard-response,22
true,6,0,4,0,true,q,false,true,0.0-2.0-0.19-0.177-3.177,0,0,0,81,false,stim,false,1,1462.0,3,0,0,15121,WMM1,816802,false,false,626,image-keyboard-response,23
true,6,0,4,0,true,q,false,true,0.0-2.0-0.19-0.178-3.178,0,0,0,81,false,stim,false,1,1655.0,3,0,0,15121,WMM1,819962,false,false,629,image-keyboard-response,24
true,6,2,4,2,true,d,false,true,0.0-2.0-0.19-0.179-3.179,0,0,0,68,false,stim,false,1,1551.0,3,0,1,15121,WMM1,823018,false,false,632,image-keyboard-response,25
true,6,2,4,2,true,d,false,true,0.0-2.0-0.20-0.180-3.180,0,0,0,68,false,stim,false,1,806.0000000001164,3,0,1,15121,WMM1,825330,false,false,635,image-keyboard-response,26
true,6,1,4,1,true,z,false,true,0.0-2.0-0.20-0.181-3.181,0,0,0,90,false,stim,false,0,2212.0,3,0,2,15121,WMM1,829048,false,false,638,image-keyboard-response,27
true,6,1,4,0,false,q,false,false,0.0-2.0-0.20-0.182-3.182,0,0,0,90,false,stim,true,1,1886.0,3,0,0,15121,WMM1,832441,false,false,641,image-keyboard-response,28
true,6,2,4,2,true,d,false,true,0.0-2.0-0.20-0.183-3.183,0,0,0,68,false,stim,false,1,2287.0,3,0,1,15121,WMM1,836233,false,false,644,image-keyboard-response,29
true,6,1,4,1,true,z,false,true,0.0-2.0-0.20-0.184-3.184,0,0,0,90,false,stim,false,0,1718.0,3,0,2,15121,WMM1,839457,false,false,647,image-keyboard-response,30
true,7,0,2,1,false,z,false,false,0.0-2.0-0.20-0.185-3.185,0,0,0,81,true,stim,true,0,1638.0,3,0,0,15121,WMM1,842601,false,false,650,image-keyboard-response,1
true,7,2,2,0,false,q,false,false,0.0-2.0-0.20-0.186-3.186,0,0,0,68,false,stim,true,2,2043.0,3,0,1,15121,WMM1,846150,false,false,653,image-keyboard-response,2
true,7,1,2,2,false,d,false,false,0.0-2.0-0.20-0.187-3.187,0,0,0,90,false,stim,true,1,2267.0,3,0,2,15121,WMM1,849923,false,false,656,image-keyboard-response,3
true,7,2,2,1,false,z,true,false,0.0-2.0-0.20-0.188-3.188,0,0,0,68,false,stim,false,0,2423.0,3,0,0,15121,WMM1,853851,false,false,659,image-keyboard-response,4
true,7,0,2,1,false,z,false,false,0.0-2.0-0.21-0.189-3.189,0,0,0,81,false,stim,true,0,1295.0,3,0,0,15121,WMM1,856651,false,false,662,image-keyboard-response,5
true,7,0,2,2,false,d,true,false,0.0-2.0-0.21-0.190-3.190,0,0,0,81,false,stim,false,1,2773.0,3,0,2,15121,WMM1,860930,false,false,665,image-keyboard-response,6
true,7,0,2,0,true,q,false,true,0.0-2.0-0.21-0.191-3.191,0,0,0,81,false,stim,false,2,1447.0,3,0,1,15121,WMM1,863882,false,false,668,image-keyboard-response,7
true,7,0,2,1,false,z,false,false,0.0-2.0-0.21-0.192-3.192,0,0,0,81,false,stim,true,0,2300.0000000001164,3,0,0,15121,WMM1,867687,false,false,671,image-keyboard-response,8
true,7,2,2,1,false,z,true,false,0.0-2.0-0.21-0.193-3.193,0,0,0,68,false,stim,false,0,1102.0,3,0,0,15121,WMM1,870296,false,false,674,image-keyboard-response,9
true,7,0,2,0,true,q,false,true,0.0-2.0-0.21-0.194-3.194,0,0,0,81,false,stim,false,2,1494.0,3,0,1,15121,WMM1,873296,false,false,677,image-keyboard-response,10
true,7,0,2,2,false,d,true,false,0.0-2.0-0.21-0.195-3.195,0,0,0,81,false,stim,false,1,1961.0,3,0,2,15121,WMM1,876762,false,false,680,image-keyboard-response,11
true,7,2,2,2,true,d,false,true,0.0-2.0-0.21-0.196-3.196,0,0,0,68,false,stim,false,1,1143.0,3,0,2,15121,WMM1,879411,false,false,683,image-keyboard-response,12
true,7,0,2,0,true,q,false,true,0.0-2.0-0.21-0.197-3.197,0,0,0,81,false,stim,false,2,1591.0,3,0,1,15121,WMM1,882507,false,false,686,image-keyboard-response,13
true,7,1,2,1,true,z,false,true,0.0-2.0-0.22-0.198-3.198,0,0,0,90,false,stim,false,0,1533.0,3,0,0,15121,WMM1,885547,false,false,689,image-keyboard-response,14
true,7,1,2,1,true,z,false,true,0.0-2.0-0.22-0.199-3.199,0,0,0,90,false,stim,false,0,1454.9999999998836,3,0,0,15121,WMM1,888508,false,false,692,image-keyboard-response,15
true,7,0,2,0,true,q,false,true,0.0-2.0-0.22-0.200-3.200,0,0,0,81,false,stim,false,2,2022.0,3,0,1,15121,WMM1,892036,false,false,695,image-keyboard-response,16
true,7,2,2,2,true,d,false,true,0.0-2.0-0.22-0.201-3.201,0,0,0,68,false,stim,false,1,1807.0,3,0,2,15121,WMM1,895348,false,false,698,image-keyboard-response,17
true,7,2,2,2,true,d,false,true,0.0-2.0-0.22-0.202-3.202,0,0,0,68,false,stim,false,1,899.0,3,0,2,15121,WMM1,897756,false,false,701,image-keyboard-response,18
true,7,2,2,2,true,d,false,true,0.0-2.0-0.22-0.203-3.203,0,0,0,68,false,stim,false,1,502.0,3,0,2,15121,WMM1,899764,false,false,704,image-keyboard-response,19
true,7,0,2,0,true,q,false,true,0.0-2.0-0.22-0.204-3.204,0,0,0,81,false,stim,false,2,1846.0,3,0,1,15121,WMM1,903116,false,false,707,image-keyboard-response,20
true,7,0,2,0,true,q,false,true,0.0-2.0-0.22-0.205-3.205,0,0,0,81,false,stim,false,2,957.0,3,0,1,15121,WMM1,905579,false,false,710,image-keyboard-response,21
true,7,1,2,1,true,z,false,true,0.0-2.0-0.22-0.206-3.206,0,0,0,90,false,stim,false,0,1932.0,3,0,0,15121,WMM1,909016,false,false,713,image-keyboard-response,22
true,7,2,2,2,true,d,false,true,0.0-2.0-0.23-0.207-3.207,0,0,0,68,false,stim,false,1,1686.0,3,0,2,15121,WMM1,912209,false,false,716,image-keyboard-response,23
true,7,2,2,2,true,d,false,true,0.0-2.0-0.23-0.208-3.208,0,0,0,68,false,stim,false,1,1006.0,3,0,2,15121,WMM1,914720,false,false,719,image-keyboard-response,24
true,7,1,2,1,true,z,false,true,0.0-2.0-0.23-0.209-3.209,0,0,0,90,false,stim,false,0,1558.0,3,0,0,15121,WMM1,917785,false,false,722,image-keyboard-response,25
true,7,0,2,0,true,q,false,false,0.0-2.0-0.23-0.210-3.210,0,0,0,81,false,stim,false,2,1982.0,3,0,1,15121,WMM1,921273,false,true,725,image-keyboard-response,26
true,7,1,2,1,true,z,false,true,0.0-2.0-0.23-0.211-3.211,0,0,0,90,false,stim,false,0,2170.0,3,0,0,15121,WMM1,924949,false,false,728,image-keyboard-response,27
true,7,0,2,0,true,q,false,false,0.0-2.0-0.23-0.212-3.212,0,0,0,81,false,stim,false,2,1543.0,3,0,1,15121,WMM1,927997,false,true,731,image-keyboard-response,28
true,7,2,2,0,false,q,false,false,0.0-2.0-0.23-0.213-3.213,0,0,0,68,false,stim,true,2,1246.0,3,0,1,15121,WMM1,930749,false,false,734,image-keyboard-response,29
true,7,2,2,2,true,d,false,true,0.0-2.0-0.23-0.214-3.214,0,0,0,68,false,stim,false,1,1390.0,3,0,2,15121,WMM1,933645,false,false,737,image-keyboard-response,30
true,8,1,1,0,false,q,false,false,0.0-2.0-0.23-0.215-3.215,0,0,0,90,true,stim,true,1,1510.9999999998836,3,0,0,15121,WMM1,936661,false,false,740,image-keyboard-response,1
true,8,1,1,0,false,q,false,false,0.0-2.0-0.24-0.216-3.216,0,0,0,90,false,stim,true,1,550.0,3,0,0,15121,WMM1,938717,false,false,743,image-keyboard-response,2
true,8,2,1,1,false,z,false,false,0.0-2.0-0.24-0.217-3.217,0,0,0,68,false,stim,true,2,1840.0,3,0,2,15121,WMM1,942061,false,false,746,image-keyboard-response,3
true,8,2,1,0,false,q,true,false,0.0-2.0-0.24-0.218-3.218,0,0,0,68,false,stim,false,1,1686.0,3,0,0,15121,WMM1,945254,false,false,749,image-keyboard-response,4
true,8,1,1,1,true,z,false,true,0.0-2.0-0.24-0.219-3.219,0,0,0,90,false,stim,false,0,2111.0,3,0,1,15121,WMM1,948871,false,false,752,image-keyboard-response,5
true,8,1,1,1,true,z,false,true,0.0-2.0-0.24-0.220-3.220,0,0,0,90,false,stim,false,2,1565.9999999998836,3,0,2,15121,WMM1,951943,false,false,755,image-keyboard-response,6
true,8,1,1,1,true,z,false,true,0.0-2.0-0.24-0.221-3.221,0,0,0,90,false,stim,false,2,1165.9999999998836,3,0,2,15121,WMM1,954615,false,false,758,image-keyboard-response,7
true,8,0,1,0,true,q,false,true,0.0-2.0-0.24-0.222-3.222,0,0,0,81,false,stim,false,1,1446.0,3,0,0,15121,WMM1,957567,false,false,761,image-keyboard-response,8
true,8,1,1,1,true,z,false,true,0.0-2.0-0.24-0.223-3.223,0,0,0,90,false,stim,false,0,1431.0,3,0,1,15121,WMM1,960504,false,false,764,image-keyboard-response,9
true,8,1,1,1,true,z,false,true,0.0-2.0-0.24-0.224-3.224,0,0,0,90,false,stim,false,0,582.0,3,0,1,15121,WMM1,962591,false,false,767,image-keyboard-response,10
true,8,0,1,0,true,q,false,true,0.0-2.0-0.25-0.225-3.225,0,0,0,81,false,stim,false,1,1356.9999999998836,3,0,0,15121,WMM1,965455,false,false,770,image-keyboard-response,11
true,8,0,1,0,true,q,false,true,0.0-2.0-0.25-0.226-3.226,0,0,0,81,false,stim,false,1,654.0,3,0,0,15121,WMM1,967615,false,false,773,image-keyboard-response,12
true,8,1,1,1,true,z,false,true,0.0-2.0-0.25-0.227-3.227,0,0,0,90,false,stim,false,0,2070.0000000001164,3,0,1,15121,WMM1,971191,false,false,776,image-keyboard-response,13
true,8,1,1,1,true,z,false,true,0.0-2.0-0.25-0.228-3.228,0,0,0,90,false,stim,false,2,1558.0,3,0,2,15121,WMM1,974255,false,false,779,image-keyboard-response,14
true,8,1,1,1,true,z,false,true,0.0-2.0-0.25-0.229-3.229,0,0,0,90,false,stim,false,2,1030.0,3,0,2,15121,WMM1,976791,false,false,782,image-keyboard-response,15
true,8,1,1,1,true,z,false,true,0.0-2.0-0.25-0.230-3.230,0,0,0,90,false,stim,false,0,1342.0,3,0,1,15121,WMM1,979639,false,false,785,image-keyboard-response,16
true,8,1,1,1,true,z,false,true,0.0-2.0-0.25-0.231-3.231,0,0,0,90,false,stim,false,2,710.0,3,0,2,15121,WMM1,981855,false,false,788,image-keyboard-response,17
true,8,0,1,0,true,q,false,true,0.0-2.0-0.25-0.232-3.232,0,0,0,81,false,stim,false,1,998.0000000001164,3,0,0,15121,WMM1,984359,false,false,791,image-keyboard-response,18
true,8,1,1,1,true,z,false,true,0.0-2.0-0.25-0.233-3.233,0,0,0,90,false,stim,false,0,886.0,3,0,1,15121,WMM1,986751,false,false,794,image-keyboard-response,19
true,8,1,1,1,true,z,false,true,0.0-2.0-0.26-0.234-3.234,0,0,0,90,false,stim,false,0,780.9999999998836,3,0,1,15121,WMM1,989039,false,false,797,image-keyboard-response,20
true,8,0,1,0,true,q,false,true,0.0-2.0-0.26-0.235-3.235,0,0,0,81,false,stim,false,1,1029.0000000001164,3,0,0,15121,WMM1,991575,false,false,800,image-keyboard-response,21
true,8,1,1,1,true,z,false,true,0.0-2.0-0.26-0.236-3.236,0,0,0,90,false,stim,false,0,875.0,3,0,1,15121,WMM1,993959,false,false,803,image-keyboard-response,22
true,8,0,1,0,true,q,false,true,0.0-2.0-0.26-0.237-3.237,0,0,0,81,false,stim,false,1,1111.0000000001164,3,0,0,15121,WMM1,996575,false,false,806,image-keyboard-response,23
true,8,1,1,1,true,z,false,true,0.0-2.0-0.26-0.238-3.238,0,0,0,90,false,stim,false,2,830.0,3,0,2,15121,WMM1,998911,false,false,809,image-keyboard-response,24
true,8,1,1,1,true,z,false,true,0.0-2.0-0.26-0.239-3.239,0,0,0,90,false,stim,false,2,511.0,3,0,2,15121,WMM1,1000927,false,false,812,image-keyboard-response,25
true,8,1,1,1,true,z,false,true,0.0-2.0-0.26-0.240-3.240,0,0,0,90,false,stim,false,0,518.0,3,0,1,15121,WMM1,1002951,false,false,815,image-keyboard-response,26
true,8,0,1,0,true,q,false,true,0.0-2.0-0.26-0.241-3.241,0,0,0,81,false,stim,false,1,862.0,3,0,0,15121,WMM1,1005320,false,false,818,image-keyboard-response,27
true,8,1,1,1,true,z,false,true,0.0-2.0-0.26-0.242-3.242,0,0,0,90,false,stim,false,2,637.9999999998836,3,0,2,15121,WMM1,1007464,false,false,821,image-keyboard-response,28
true,8,1,1,1,true,z,false,true,0.0-2.0-0.27-0.243-3.243,0,0,0,90,false,stim,false,2,558.0000000001164,3,0,2,15121,WMM1,1009528,false,false,824,image-keyboard-response,29
true,8,0,1,0,true,q,false,true,0.0-2.0-0.27-0.244-3.244,0,0,0,81,false,stim,false,1,1230.0000000001164,3,0,0,15121,WMM1,1012264,false,false,827,image-keyboard-response,30
true,9,1,2,2,false,d,false,false,0.0-2.0-0.27-0.245-3.245,0,0,0,90,true,stim,true,1,1078.0,3,0,2,15121,WMM1,1014848,false,false,830,image-keyboard-response,1
true,9,1,2,0,false,q,false,false,0.0-2.0-0.27-0.246-3.246,0,0,0,90,false,stim,true,1,1015.0,3,0,1,15121,WMM1,1017368,false,false,833,image-keyboard-response,2
true,9,2,2,0,false,q,true,false,0.0-2.0-0.27-0.247-3.247,0,0,0,68,false,stim,false,1,1901.9999999998836,3,0,1,15121,WMM1,1020776,false,false,836,image-keyboard-response,3
true,9,0,2,0,true,q,false,true,0.0-2.0-0.27-0.248-3.248,0,0,0,81,false,stim,false,1,1046.0,3,0,1,15121,WMM1,1023328,false,false,839,image-keyboard-response,4
true,9,2,2,2,true,d,false,false,0.0-2.0-0.27-0.249-3.249,0,0,0,68,false,stim,false,1,1694.0,3,0,2,15121,WMM1,1026528,false,true,842,image-keyboard-response,5
true,9,0,2,1,false,z,false,false,0.0-2.0-0.27-0.250-3.250,0,0,0,81,false,stim,true,0,1486.0000000001164,3,0,0,15121,WMM1,1029520,false,false,845,image-keyboard-response,6
true,9,2,2,1,false,z,true,false,0.0-2.0-0.27-0.251-3.251,0,0,0,68,false,stim,false,0,1207.0000000001164,3,0,0,15121,WMM1,1032232,false,false,848,image-keyboard-response,7
true,9,1,2,1,true,z,false,true,0.0-2.0-0.28-0.252-3.252,0,0,0,90,false,stim,false,0,1213.9999999998836,3,0,0,15121,WMM1,1034952,false,false,851,image-keyboard-response,8
true,9,0,2,0,true,q,false,true,0.0-2.0-0.28-0.253-3.253,0,0,0,81,false,stim,false,1,1630.0000000001164,3,0,1,15121,WMM1,1038088,false,false,854,image-keyboard-response,9
true,9,0,2,2,false,d,true,false,0.0-2.0-0.28-0.254-3.254,0,0,0,81,false,stim,false,1,541.9999999998836,3,0,2,15121,WMM1,1040137,false,false,857,image-keyboard-response,10
true,9,1,2,1,true,z,false,true,0.0-2.0-0.28-0.255-3.255,0,0,0,90,false,stim,false,0,2530.0,3,0,0,15121,WMM1,1044173,false,false,860,image-keyboard-response,11
true,9,0,2,0,true,q,false,true,0.0-2.0-0.28-0.256-3.256,0,0,0,81,false,stim,false,1,1015.0000000001164,3,0,1,15121,WMM1,1046693,false,false,863,image-keyboard-response,12
true,9,1,2,1,true,z,false,true,0.0-2.0-0.28-0.257-3.257,0,0,0,90,false,stim,false,0,2577.999999999767,3,0,0,15121,WMM1,1050778,false,false,866,image-keyboard-response,13
true,9,2,2,2,true,d,false,true,0.0-2.0-0.28-0.258-3.258,0,0,0,68,false,stim,false,1,1318.0,3,0,2,15121,WMM1,1053602,false,false,869,image-keyboard-response,14
true,9,2,2,2,true,d,false,true,0.0-2.0-0.28-0.259-3.259,0,0,0,68,false,stim,false,1,1078.0,3,0,2,15121,WMM1,1056186,false,false,872,image-keyboard-response,15
true,9,0,2,0,true,q,false,true,0.0-2.0-0.28-0.260-3.260,0,0,0,81,false,stim,false,1,1454.0,3,0,1,15121,WMM1,1059146,false,false,875,image-keyboard-response,16
true,9,1,2,1,true,z,false,false,0.0-2.0-0.29-0.261-3.261,0,0,0,90,false,stim,false,0,1517.9999999997672,3,0,0,15121,WMM1,1062170,false,true,878,image-keyboard-response,17
true,9,0,2,0,true,q,false,true,0.0-2.0-0.29-0.262-3.262,0,0,0,81,false,stim,false,1,1566.0,3,0,1,15121,WMM1,1065242,false,false,881,image-keyboard-response,18
true,9,2,2,2,true,d,false,true,0.0-2.0-0.29-0.263-3.263,0,0,0,68,false,stim,false,1,1317.9999999997672,3,0,2,15121,WMM1,1068066,false,false,884,image-keyboard-response,19
true,9,0,2,0,true,q,false,true,0.0-2.0-0.29-0.264-3.264,0,0,0,81,false,stim,false,1,2803.0,3,0,1,15121,WMM1,1072375,false,false,887,image-keyboard-response,20
true,9,1,2,1,true,z,false,true,0.0-2.0-0.29-0.265-3.265,0,0,0,90,false,stim,false,0,1787.0,3,1,0,15121,WMM1,1075670,false,false,890,image-keyboard-response,21
true,9,2,2,2,true,d,false,true,0.0-2.0-0.29-0.266-3.266,0,0,0,68,false,stim,false,1,1406.0,3,0,2,15121,WMM1,1078582,false,false,893,image-keyboard-response,22
true,9,2,2,2,true,d,false,true,0.0-2.0-0.29-0.267-3.267,0,0,0,68,false,stim,false,1,590.0,3,0,2,15121,WMM1,1080678,false,false,896,image-keyboard-response,23
true,9,1,2,1,true,z,false,true,0.0-2.0-0.29-0.268-3.268,0,0,0,90,false,stim,false,0,2021.0,3,1,0,15121,WMM1,1084205,false,false,899,image-keyboard-response,24
true,9,0,2,0,true,q,false,true,0.0-2.0-0.29-0.269-3.269,0,0,0,81,false,stim,false,1,1865.0,3,0,1,15121,WMM1,1087581,false,false,902,image-keyboard-response,25
true,9,1,2,1,true,z,false,true,0.0-2.0-0.30-0.270-3.270,0,0,0,90,false,stim,false,0,2028.0,3,1,0,15121,WMM1,1091116,false,false,905,image-keyboard-response,26
true,9,0,2,0,true,q,false,true,0.0-2.0-0.30-0.271-3.271,0,0,0,81,false,stim,false,1,1854.0,3,0,1,15121,WMM1,1094476,false,false,908,image-keyboard-response,27
true,9,0,2,1,false,z,false,true,0.0-2.0-0.30-0.272-3.272,0,0,0,81,false,stim,true,0,1703.0,3,1,0,15121,WMM1,1097684,false,true,911,image-keyboard-response,28
true,9,2,2,2,true,d,false,true,0.0-2.0-0.30-0.273-3.273,0,0,0,68,false,stim,false,1,1639.0,3,0,2,15121,WMM1,1100828,false,false,914,image-keyboard-response,29
true,9,2,2,2,true,d,false,true,0.0-2.0-0.30-0.274-3.274,0,0,0,68,false,stim,false,1,1254.0,3,0,2,15121,WMM1,1103588,false,false,917,image-keyboard-response,30
true,10,0,3,2,false,d,false,false,0.0-2.0-0.30-0.275-3.275,1,0,0,81,true,stim,true,0,1894.0,3,0,1,15121,WMM1,1106988,false,false,920,image-keyboard-response,1
false,10,-1,3,1,false,z,true,false,0.0-2.0-0.30-0.276-3.276,1,0,0,,false,stim,false,2,,3,0,2,15121,WMM1,1111495,false,false,923,image-keyboard-response,2
true,10,0,3,2,false,d,false,true,0.0-2.0-0.30-0.277-3.277,1,0,0,81,false,stim,true,0,1494.0,3,0,1,15121,WMM1,1114496,false,true,926,image-keyboard-response,3
true,10,1,3,1,true,z,false,true,0.0-2.0-0.30-0.278-3.278,1,0,0,90,false,stim,false,1,2186.0,3,1,0,15121,WMM1,1118188,false,false,929,image-keyboard-response,4
true,10,2,3,1,false,z,false,false,0.0-2.0-0.31-0.279-3.279,1,0,0,68,false,stim,true,2,1877.0,3,0,2,15121,WMM1,1121572,false,false,932,image-keyboard-response,5
true,10,1,3,1,true,z,false,false,0.0-2.0-0.31-0.280-3.280,1,0,0,90,false,stim,false,1,2195.0,3,1,0,15121,WMM1,1125273,false,true,935,image-keyboard-response,6
true,10,2,3,2,true,d,false,true,0.0-2.0-0.31-0.281-3.281,1,0,0,68,false,stim,false,0,1559.0,3,0,1,15121,WMM1,1128337,false,false,938,image-keyboard-response,7
true,10,2,3,2,true,d,false,true,0.0-2.0-0.31-0.282-3.282,1,0,0,68,false,stim,false,0,775.0,3,0,1,15121,WMM1,1130617,false,false,941,image-keyboard-response,8
true,10,1,3,1,true,z,false,true,0.0-2.0-0.31-0.283-3.283,1,0,0,90,false,stim,false,2,1694.0000000002328,3,0,2,15121,WMM1,1133817,false,false,944,image-keyboard-response,9
true,10,2,3,1,false,z,true,false,0.0-2.0-0.31-0.284-3.284,1,0,0,68,false,stim,false,1,1567.0,3,1,0,15121,WMM1,1136889,false,false,947,image-keyboard-response,10
true,10,0,3,1,false,z,true,true,0.0-2.0-0.31-0.285-3.285,1,0,0,81,false,stim,false,1,1231.0,3,1,0,15121,WMM1,1139625,false,true,950,image-keyboard-response,11
true,10,2,3,2,true,d,false,true,0.0-2.0-0.31-0.286-3.286,1,0,0,68,false,stim,false,0,1990.0,3,0,1,15121,WMM1,1143121,false,false,953,image-keyboard-response,12
true,10,1,3,1,true,z,false,true,0.0-2.0-0.31-0.287-3.287,1,0,0,90,false,stim,false,2,830.0,3,0,2,15121,WMM1,1145457,false,false,956,image-keyboard-response,13
true,10,2,3,2,true,d,false,true,0.0-2.0-0.32-0.288-3.288,1,0,0,68,false,stim,false,0,1262.0,3,0,1,15121,WMM1,1148225,false,false,959,image-keyboard-response,14
true,10,1,3,1,true,z,false,true,0.0-2.0-0.32-0.289-3.289,1,0,0,90,false,stim,false,2,1653.9999999997672,3,0,2,15121,WMM1,1151385,false,false,962,image-keyboard-response,15
true,10,0,3,1,false,z,true,false,0.0-2.0-0.32-0.290-3.290,1,0,0,81,false,stim,false,1,894.0,3,1,0,15121,WMM1,1153786,false,false,965,image-keyboard-response,16
true,10,2,3,2,true,d,false,true,0.0-2.0-0.32-0.291-3.291,1,0,0,68,false,stim,false,0,1542.0,3,0,1,15121,WMM1,1156834,false,false,968,image-keyboard-response,17
true,10,0,3,1,false,z,true,false,0.0-2.0-0.32-0.292-3.292,1,0,0,81,false,stim,false,1,1327.0,3,1,0,15121,WMM1,1159666,false,false,971,image-keyboard-response,18
true,10,1,3,1,true,z,false,false,0.0-2.0-0.32-0.293-3.293,1,0,0,90,false,stim,false,2,1743.0000000002328,3,0,2,15121,WMM1,1162914,false,true,974,image-keyboard-response,19
true,10,2,3,1,false,z,false,true,0.0-2.0-0.32-0.294-3.294,1,0,0,68,false,stim,true,2,1582.0,3,0,2,15121,WMM1,1166002,false,true,977,image-keyboard-response,20
true,10,2,3,1,false,z,true,true,0.0-2.0-0.32-0.295-3.295,1,0,0,68,false,stim,false,1,1559.0,3,1,0,15121,WMM1,1169066,false,true,980,image-keyboard-response,21
true,10,2,3,2,true,d,false,true,0.0-2.0-0.32-0.296-3.296,1,0,0,68,false,stim,false,0,1078.0,3,0,1,15121,WMM1,1171650,false,false,983,image-keyboard-response,22
true,10,2,3,2,true,d,false,true,0.0-2.0-0.33-0.297-3.297,1,0,0,68,false,stim,false,0,469.00000000023283,3,0,1,15121,WMM1,1173626,false,false,986,image-keyboard-response,23
true,10,2,3,1,false,z,true,false,0.0-2.0-0.33-0.298-3.298,1,0,0,68,false,stim,false,1,466.0,3,1,0,15121,WMM1,1175602,false,false,989,image-keyboard-response,24
true,10,2,3,2,true,d,false,true,0.0-2.0-0.33-0.299-3.299,1,0,0,68,false,stim,false,0,502.0,3,0,1,15121,WMM1,1177610,false,false,992,image-keyboard-response,25
true,10,2,3,1,false,z,true,false,0.0-2.0-0.33-0.300-3.300,1,0,0,68,false,stim,false,1,669.0,3,1,0,15121,WMM1,1179786,false,false,995,image-keyboard-response,26
true,10,2,3,1,false,z,false,true,0.0-2.0-0.33-0.301-3.301,1,0,0,68,false,stim,true,2,1037.0,3,0,2,15121,WMM1,1182330,false,true,998,image-keyboard-response,27
true,10,2,3,2,true,d,false,true,0.0-2.0-0.33-0.302-3.302,1,0,0,68,false,stim,false,0,785.0000000002328,3,0,1,15121,WMM1,1184627,false,false,1001,image-keyboard-response,28
true,10,2,3,1,false,z,false,true,0.0-2.0-0.33-0.303-3.303,1,0,0,68,false,stim,true,2,517.0,3,0,2,15121,WMM1,1186651,false,true,1004,image-keyboard-response,29
true,10,2,3,1,false,z,false,false,0.0-2.0-0.33-0.304-3.304,1,0,0,68,false,stim,true,2,550.0,3,0,2,15121,WMM1,1188707,false,false,1007,image-keyboard-response,30
true,10,1,3,1,true,z,false,true,0.0-2.0-0.33-0.305-3.305,1,0,0,90,false,stim,false,1,1324.0,3,1,0,15121,WMM1,1191539,false,false,1010,image-keyboard-response,31
true,10,2,3,2,true,d,false,true,0.0-2.0-0.34-0.306-3.306,1,0,0,68,false,stim,false,0,1645.0,3,0,1,15121,WMM1,1194691,false,false,1013,image-keyboard-response,32
true,10,2,3,2,true,d,false,true,0.0-2.0-0.34-0.307-3.307,1,0,0,68,false,stim,false,0,484.0,3,0,1,15121,WMM1,1196683,false,false,1016,image-keyboard-response,33
true,10,1,3,1,true,z,false,true,0.0-2.0-0.34-0.308-3.308,1,0,0,90,false,stim,false,1,1413.0,3,1,0,15121,WMM1,1199603,false,false,1019,image-keyboard-response,34
true,10,1,3,1,true,z,false,false,0.0-2.0-0.34-0.309-3.309,1,0,0,90,false,stim,false,2,2241.0,3,0,2,15121,WMM1,1203351,false,true,1022,image-keyboard-response,35
true,10,1,3,1,true,z,false,true,0.0-2.0-0.34-0.310-3.310,1,0,0,90,false,stim,false,1,2618.0,3,1,0,15121,WMM1,1207477,false,false,1025,image-keyboard-response,36
true,10,2,3,2,true,d,false,true,0.0-2.0-0.34-0.311-3.311,1,0,0,68,false,stim,false,0,1636.0,3,0,1,15121,WMM1,1210622,false,false,1028,image-keyboard-response,37
true,10,1,3,1,true,z,false,true,0.0-2.0-0.34-0.312-3.312,1,0,0,90,false,stim,false,1,2832.0,3,1,0,15121,WMM1,1214961,false,false,1031,image-keyboard-response,38
true,10,1,3,1,true,z,false,true,0.0-2.0-0.34-0.313-3.313,1,0,0,90,false,stim,false,2,1789.0,3,0,2,15121,WMM1,1218257,false,false,1034,image-keyboard-response,39
true,10,1,3,1,true,z,false,true,0.0-2.0-0.34-0.314-3.314,1,0,0,90,false,stim,false,2,828.0,3,0,2,15121,WMM1,1220593,false,false,1037,image-keyboard-response,40
true,10,2,3,2,true,d,false,true,0.0-2.0-0.35-0.315-3.315,1,0,0,68,false,stim,false,0,1821.9999999997672,3,0,1,15121,WMM1,1223921,false,false,1040,image-keyboard-response,41
true,10,1,3,1,true,z,false,true,0.0-2.0-0.35-0.316-3.316,1,0,0,90,false,stim,false,2,1206.0,3,0,2,15121,WMM1,1226633,false,false,1043,image-keyboard-response,42
true,10,2,3,2,true,d,false,true,0.0-2.0-0.35-0.317-3.317,1,0,0,68,false,stim,false,0,1965.0,3,0,1,15121,WMM1,1230105,false,false,1046,image-keyboard-response,43
true,10,2,3,2,true,d,false,true,0.0-2.0-0.35-0.318-3.318,1,0,0,68,false,stim,false,0,918.0,3,0,1,15121,WMM1,1232529,false,false,1049,image-keyboard-response,44
true,10,1,3,1,true,z,false,true,0.0-2.0-0.35-0.319-3.319,1,0,0,90,false,stim,false,1,846.0,3,0,0,15121,WMM1,1234881,false,false,1052,image-keyboard-response,45
true,10,1,3,1,true,z,false,true,0.0-2.0-0.35-0.320-3.320,1,0,0,90,false,stim,false,2,445.0,3,0,2,15121,WMM1,1236833,false,false,1055,image-keyboard-response,46
true,10,1,3,1,true,z,false,true,0.0-2.0-0.35-0.321-3.321,1,0,0,90,false,stim,false,1,413.00000000023283,3,0,0,15121,WMM1,1238754,false,false,1058,image-keyboard-response,47
true,10,1,3,1,true,z,false,true,0.0-2.0-0.35-0.322-3.322,1,0,0,90,false,stim,false,1,614.0,3,0,0,15121,WMM1,1240873,false,false,1061,image-keyboard-response,48
true,10,1,3,1,true,z,false,true,0.0-2.0-0.35-0.323-3.323,1,0,0,90,false,stim,false,2,598.0,3,0,2,15121,WMM1,1242977,false,false,1064,image-keyboard-response,49
true,11,2,1,1,false,z,false,false,0.0-2.0-0.36-0.324-3.324,0,0,0,68,true,stim,true,2,924.0,3,0,1,15121,WMM1,1245410,false,false,1067,image-keyboard-response,1
true,11,1,1,0,false,q,false,false,0.0-2.0-0.36-0.325-3.325,0,0,0,90,false,stim,true,1,1150.0,3,0,0,15121,WMM1,1248066,false,false,1070,image-keyboard-response,2
true,11,2,1,0,false,q,true,false,0.0-2.0-0.36-0.326-3.326,0,0,0,68,false,stim,false,1,1710.0,3,0,0,15121,WMM1,1251282,false,false,1073,image-keyboard-response,3
true,11,0,1,0,true,q,false,true,0.0-2.0-0.36-0.327-3.327,0,0,0,81,false,stim,false,1,869.0000000002328,3,0,0,15121,WMM1,1253658,false,false,1076,image-keyboard-response,4
true,11,1,1,0,false,q,false,false,0.0-2.0-0.36-0.328-3.328,0,0,0,90,false,stim,true,1,2408.0,3,0,2,15121,WMM1,1257572,false,false,1079,image-keyboard-response,5
true,11,2,1,0,false,q,true,false,0.0-2.0-0.36-0.329-3.329,0,0,0,68,false,stim,false,1,1485.0,3,0,2,15121,WMM1,1260564,false,false,1082,image-keyboard-response,6
true,11,2,1,1,false,z,false,false,0.0-2.0-0.36-0.330-3.330,0,0,0,68,false,stim,true,2,1380.9999999997672,3,0,1,15121,WMM1,1263452,false,false,1085,image-keyboard-response,7
false,11,-1,1,0,false,q,true,false,0.0-2.0-0.36-0.331-3.331,0,0,0,,false,stim,false,1,,3,0,2,15121,WMM1,1267961,false,false,1088,image-keyboard-response,8
true,11,2,1,1,false,z,false,false,0.0-2.0-0.36-0.332-3.332,0,0,0,68,false,stim,true,2,2770.0,3,0,1,15121,WMM1,1272237,false,false,1091,image-keyboard-response,9
true,11,1,1,1,true,z,false,true,0.0-2.0-0.37-0.333-3.333,0,0,0,90,false,stim,false,2,2146.999999999767,3,0,1,15121,WMM1,1275891,false,false,1094,image-keyboard-response,10
true,11,0,1,0,true,q,false,true,0.0-2.0-0.37-0.334-3.334,0,0,0,81,false,stim,false,1,1828.9999999997672,3,0,0,15121,WMM1,1279228,false,false,1097,image-keyboard-response,11
true,11,1,1,1,true,z,false,true,0.0-2.0-0.37-0.335-3.335,0,0,0,90,false,stim,false,2,1732.0,3,0,1,15121,WMM1,1282467,false,false,1100,image-keyboard-response,12
true,11,0,1,0,true,q,false,true,0.0-2.0-0.37-0.336-3.336,0,0,0,81,false,stim,false,1,1887.0,3,0,2,15121,WMM1,1285864,false,false,1103,image-keyboard-response,13
true,11,0,1,0,true,q,false,true,0.0-2.0-0.37-0.337-3.337,0,0,0,81,false,stim,false,1,846.9999999997672,3,0,2,15121,WMM1,1288217,false,false,1106,image-keyboard-response,14
true,11,1,1,1,true,z,false,true,0.0-2.0-0.37-0.338-3.338,0,0,0,90,false,stim,false,2,1989.0,3,0,1,15121,WMM1,1291713,false,false,1109,image-keyboard-response,15
true,11,0,1,0,true,q,false,true,0.0-2.0-0.37-0.339-3.339,0,0,0,81,false,stim,false,1,972.0,3,0,2,15121,WMM1,1294194,false,false,1112,image-keyboard-response,16
true,11,0,1,0,true,q,false,true,0.0-2.0-0.37-0.340-3.340,0,0,0,81,false,stim,false,1,710.0,3,0,0,15121,WMM1,1296410,false,false,1115,image-keyboard-response,17
true,11,0,1,0,true,q,false,true,0.0-2.0-0.37-0.341-3.341,0,0,0,81,false,stim,false,1,454.0,3,0,0,15121,WMM1,1298369,false,false,1118,image-keyboard-response,18
true,11,1,1,1,true,z,false,true,0.0-2.0-0.38-0.342-3.342,0,0,0,90,false,stim,false,2,1429.0,3,0,1,15121,WMM1,1301306,false,false,1121,image-keyboard-response,19
true,11,0,1,0,true,q,false,true,0.0-2.0-0.38-0.343-3.343,0,0,0,81,false,stim,false,1,1636.9999999997672,3,0,0,15121,WMM1,1304450,false,false,1124,image-keyboard-response,20
true,11,0,1,1,false,z,true,false,0.0-2.0-0.38-0.344-3.344,0,0,0,81,false,stim,false,2,389.0,3,0,1,15121,WMM1,1306346,false,false,1127,image-keyboard-response,21
true,11,0,1,0,true,q,false,true,0.0-2.0-0.38-0.345-3.345,0,0,0,81,false,stim,false,1,1038.0,3,0,0,15121,WMM1,1308890,false,false,1130,image-keyboard-response,22
true,11,0,1,0,true,q,false,true,0.0-2.0-0.38-0.346-3.346,0,0,0,81,false,stim,false,1,604.0,3,0,2,15121,WMM1,1311002,false,false,1133,image-keyboard-response,23
true,11,1,1,1,true,z,false,true,0.0-2.0-0.38-0.347-3.347,0,0,0,90,false,stim,false,2,965.0,3,0,1,15121,WMM1,1313474,false,false,1136,image-keyboard-response,24
true,11,0,1,0,true,q,false,true,0.0-2.0-0.38-0.348-3.348,0,0,0,81,false,stim,false,1,781.0,3,0,2,15121,WMM1,1315762,false,false,1139,image-keyboard-response,25
true,11,0,1,0,true,q,false,false,0.0-2.0-0.38-0.349-3.349,0,0,0,81,false,stim,false,1,444.0,3,0,0,15121,WMM1,1317714,false,true,1142,image-keyboard-response,26
true,11,0,1,0,true,q,false,true,0.0-2.0-0.38-0.350-3.350,0,0,0,81,false,stim,false,1,1037.0,3,0,2,15121,WMM1,1320258,false,false,1145,image-keyboard-response,27
true,11,0,1,0,true,q,false,true,0.0-2.0-0.39-0.351-3.351,0,0,0,81,false,stim,false,1,1156.9999999997672,3,0,0,15121,WMM1,1322922,false,false,1148,image-keyboard-response,28
true,11,0,1,0,true,q,false,true,0.0-2.0-0.39-0.352-3.352,0,0,0,81,false,stim,false,1,1096.0,3,0,2,15121,WMM1,1325523,false,false,1151,image-keyboard-response,29
true,11,0,1,0,true,q,false,false,0.0-2.0-0.39-0.353-3.353,0,0,0,81,false,stim,false,1,796.0,3,0,2,15121,WMM1,1327826,false,true,1154,image-keyboard-response,30
true,12,1,2,0,false,q,false,false,0.0-2.0-0.39-0.354-3.354,0,0,0,90,true,stim,true,1,1509.9999999997672,3,0,1,15121,WMM1,1330843,false,false,1157,image-keyboard-response,1
true,12,1,2,0,false,q,false,false,0.0-2.0-0.39-0.355-3.355,0,0,0,90,false,stim,true,1,558.0,3,0,1,15121,WMM1,1332907,false,false,1160,image-keyboard-response,2
true,12,0,2,2,false,d,false,false,0.0-2.0-0.39-0.356-3.356,0,0,0,81,false,stim,true,0,1797.0,3,0,2,15121,WMM1,1336211,false,false,1163,image-keyboard-response,3
true,12,0,2,1,false,z,false,false,0.0-2.0-0.39-0.357-3.357,0,0,0,81,false,stim,true,0,1709.9999999997672,3,0,0,15121,WMM1,1339427,false,false,1166,image-keyboard-response,4
true,12,2,2,0,false,q,true,false,0.0-2.0-0.39-0.358-3.358,0,0,0,68,false,stim,false,1,1686.0,3,0,1,15121,WMM1,1342619,false,false,1169,image-keyboard-response,5
true,12,2,2,1,false,z,true,false,0.0-2.0-0.39-0.359-3.359,0,0,0,68,false,stim,false,0,1583.0,3,0,0,15121,WMM1,1345707,false,false,1172,image-keyboard-response,6
true,12,2,2,2,true,d,false,true,0.0-2.0-0.40-0.360-3.360,0,0,0,68,false,stim,false,0,1252.0,3,0,2,15121,WMM1,1348467,false,false,1175,image-keyboard-response,7
true,12,0,2,0,true,q,false,true,0.0-2.0-0.40-0.361-3.361,0,0,0,81,false,stim,false,1,2010.0,3,0,1,15121,WMM1,1351984,false,false,1178,image-keyboard-response,8
true,12,1,2,1,true,z,false,true,0.0-2.0-0.40-0.362-3.362,0,0,0,90,false,stim,false,0,1670.0,3,0,0,15121,WMM1,1355160,false,false,1181,image-keyboard-response,9
true,12,2,2,2,true,d,false,true,0.0-2.0-0.40-0.363-3.363,0,0,0,68,false,stim,false,0,1517.0,3,0,2,15121,WMM1,1358184,false,false,1184,image-keyboard-response,10
true,12,1,2,1,true,z,false,true,0.0-2.0-0.40-0.364-3.364,0,0,0,90,false,stim,false,0,1986.0,3,0,0,15121,WMM1,1361677,false,false,1187,image-keyboard-response,11
true,12,0,2,0,true,q,false,true,0.0-2.0-0.40-0.365-3.365,0,0,0,81,false,stim,false,1,2026.0000000002328,3,0,1,15121,WMM1,1365209,false,false,1190,image-keyboard-response,12
true,12,0,2,0,true,q,false,true,0.0-2.0-0.40-0.366-3.366,0,0,0,81,false,stim,false,1,1109.0,3,0,1,15121,WMM1,1367825,false,false,1193,image-keyboard-response,13
true,12,2,2,2,true,d,false,true,0.0-2.0-0.40-0.367-3.367,0,0,0,68,false,stim,false,0,2116.000000000233,3,0,2,15121,WMM1,1371450,false,false,1196,image-keyboard-response,14
true,12,1,2,1,true,z,false,true,0.0-2.0-0.40-0.368-3.368,0,0,0,90,false,stim,false,0,2127.0,3,0,0,15121,WMM1,1375083,false,false,1199,image-keyboard-response,15
true,12,0,2,0,true,q,false,false,0.0-2.0-0.41-0.369-3.369,0,0,0,81,false,stim,false,1,1913.0000000002328,3,0,1,15121,WMM1,1378507,false,true,1202,image-keyboard-response,16
true,12,1,2,1,true,z,false,true,0.0-2.0-0.41-0.370-3.370,0,0,0,90,false,stim,false,0,1710.0,3,0,0,15121,WMM1,1381723,false,false,1205,image-keyboard-response,17
true,12,1,2,1,true,z,false,true,0.0-2.0-0.41-0.371-3.371,0,0,0,90,false,stim,false,0,965.0,3,0,0,15121,WMM1,1384196,false,false,1208,image-keyboard-response,18
true,12,2,2,2,true,d,false,true,0.0-2.0-0.41-0.372-3.372,0,0,0,68,false,stim,false,0,1590.0,3,0,2,15121,WMM1,1387291,false,false,1211,image-keyboard-response,19
true,12,1,2,1,true,z,false,true,0.0-2.0-0.41-0.373-3.373,0,0,0,90,false,stim,false,0,1998.0000000002328,3,0,0,15121,WMM1,1390796,false,false,1214,image-keyboard-response,20
true,12,2,2,2,true,d,false,true,0.0-2.0-0.41-0.374-3.374,0,0,0,68,false,stim,false,0,1605.0,3,1,2,15121,WMM1,1393908,false,false,1217,image-keyboard-response,21
true,12,0,2,0,true,q,false,true,0.0-2.0-0.41-0.375-3.375,0,0,0,81,false,stim,false,1,1036.0,3,0,1,15121,WMM1,1396452,false,false,1220,image-keyboard-response,22
true,12,0,2,0,true,q,false,true,0.0-2.0-0.41-0.376-3.376,0,0,0,81,false,stim,false,1,766.0,3,0,1,15121,WMM1,1398724,false,false,1223,image-keyboard-response,23
true,12,2,2,2,true,d,false,true,0.0-2.0-0.41-0.377-3.377,0,0,0,68,false,stim,false,0,1470.0000000002328,3,1,2,15121,WMM1,1401700,false,false,1226,image-keyboard-response,24
true,12,1,2,1,true,z,false,false,0.0-2.0-0.42-0.378-3.378,0,0,0,90,false,stim,false,0,1700.0,3,0,0,15121,WMM1,1404908,false,true,1229,image-keyboard-response,25
true,12,1,2,1,true,z,false,true,0.0-2.0-0.42-0.379-3.379,0,0,0,90,false,stim,false,0,583.9999999997672,3,0,0,15121,WMM1,1406996,false,false,1232,image-keyboard-response,26
true,12,2,2,2,true,d,false,true,0.0-2.0-0.42-0.380-3.380,0,0,0,68,false,stim,false,0,2022.0,3,1,2,15121,WMM1,1410524,false,false,1235,image-keyboard-response,27
true,12,1,2,1,true,z,false,true,0.0-2.0-0.42-0.381-3.381,0,0,0,90,false,stim,false,0,1798.0,3,0,0,15121,WMM1,1413828,false,false,1238,image-keyboard-response,28
true,12,2,2,2,true,d,false,true,0.0-2.0-0.42-0.382-3.382,0,0,0,68,false,stim,false,0,1988.9999999997672,3,1,2,15121,WMM1,1417325,false,false,1241,image-keyboard-response,29
true,12,0,2,0,true,q,false,true,0.0-2.0-0.42-0.383-3.383,0,0,0,81,false,stim,false,1,1631.0000000002328,3,0,1,15121,WMM1,1420460,false,false,1244,image-keyboard-response,30
true,13,2,3,2,true,d,false,true,0.0-2.0-0.42-0.384-3.384,0,0,1,68,true,stim,false,2,1846.0,3,1,2,15121,WMM1,1423813,false,false,1247,image-keyboard-response,1
true,13,0,3,2,false,d,false,false,0.0-2.0-0.42-0.385-3.385,0,0,1,81,false,stim,true,0,1462.0,3,0,1,15121,WMM1,1426781,false,false,1250,image-keyboard-response,2
true,13,0,3,2,false,d,false,false,0.0-2.0-0.42-0.386-3.386,0,0,1,81,false,stim,true,0,580.9999999997672,3,0,1,15121,WMM1,1428869,false,false,1253,image-keyboard-response,3
true,13,1,3,0,false,q,false,false,0.0-2.0-0.43-0.387-3.387,0,0,1,90,false,stim,true,1,1709.0,3,0,0,15121,WMM1,1432085,false,false,1256,image-keyboard-response,4
true,13,2,3,0,false,q,true,false,0.0-2.0-0.43-0.388-3.388,0,0,1,68,false,stim,false,1,1126.0,3,0,0,15121,WMM1,1434717,false,false,1259,image-keyboard-response,5
true,13,0,3,2,false,d,true,false,0.0-2.0-0.43-0.389-3.389,0,0,1,81,false,stim,false,2,2332.0,3,1,2,15121,WMM1,1438556,false,false,1262,image-keyboard-response,6
true,13,1,3,2,false,d,true,false,0.0-2.0-0.43-0.390-3.390,0,0,1,90,false,stim,false,0,2108.0,3,0,1,15121,WMM1,1442170,false,false,1265,image-keyboard-response,7
true,13,2,3,2,true,d,false,true,0.0-2.0-0.43-0.391-3.391,0,0,1,68,false,stim,false,0,958.0000000002328,3,0,1,15121,WMM1,1444635,false,false,1268,image-keyboard-response,8
true,13,2,3,2,true,d,false,true,0.0-2.0-0.43-0.392-3.392,0,0,1,68,false,stim,false,0,693.0,3,0,1,15121,WMM1,1446835,false,false,1271,image-keyboard-response,9
true,13,0,3,0,true,q,false,true,0.0-2.0-0.43-0.393-3.393,0,0,1,81,false,stim,false,1,1334.0,3,0,0,15121,WMM1,1449675,false,false,1274,image-keyboard-response,10
true,13,1,3,2,false,d,true,false,0.0-2.0-0.43-0.394-3.394,0,0,1,90,false,stim,false,2,1470.0,3,1,2,15121,WMM1,1452651,false,false,1277,image-keyboard-response,11
true,13,2,3,2,true,d,false,true,0.0-2.0-0.43-0.395-3.395,0,0,1,68,false,stim,false,2,758.0,3,1,2,15121,WMM1,1454915,false,false,1280,image-keyboard-response,12
true,13,2,3,2,true,d,false,true,0.0-2.0-0.44-0.396-3.396,0,0,1,68,false,stim,false,0,1525.0,3,0,1,15121,WMM1,1457947,false,false,1283,image-keyboard-response,13
true,13,0,3,0,true,q,false,false,0.0-2.0-0.44-0.397-3.397,0,0,1,81,false,stim,false,1,1621.0,3,0,0,15121,WMM1,1461075,false,true,1286,image-keyboard-response,14
true,13,2,3,2,true,d,false,true,0.0-2.0-0.44-0.398-3.398,0,0,1,68,false,stim,false,0,1359.0,3,0,1,15121,WMM1,1463939,false,false,1289,image-keyboard-response,15
true,13,0,3,0,true,q,false,true,0.0-2.0-0.44-0.399-3.399,0,0,1,81,false,stim,false,1,1420.0,3,0,0,15121,WMM1,1466867,false,false,1292,image-keyboard-response,16
true,13,0,3,0,true,q,false,true,0.0-2.0-0.44-0.400-3.400,0,0,1,81,false,stim,false,1,796.0,3,0,0,15121,WMM1,1469170,false,false,1295,image-keyboard-response,17
true,13,2,3,2,true,d,false,true,0.0-2.0-0.44-0.401-3.401,0,0,1,68,false,stim,false,2,1631.0,3,1,2,15121,WMM1,1472307,false,false,1298,image-keyboard-response,18
true,13,2,3,2,true,d,false,true,0.0-2.0-0.44-0.402-3.402,0,0,1,68,false,stim,false,0,488.0,3,0,1,15121,WMM1,1474306,false,false,1301,image-keyboard-response,19
true,13,2,3,2,true,d,false,true,0.0-2.0-0.44-0.403-3.403,0,0,1,68,false,stim,false,2,567.0,3,1,2,15121,WMM1,1476379,false,false,1304,image-keyboard-response,20
true,13,2,3,2,true,d,false,true,0.0-2.0-0.44-0.404-3.404,0,0,1,68,false,stim,false,2,533.0,3,1,2,15121,WMM1,1478419,false,false,1307,image-keyboard-response,21
true,13,2,3,2,true,d,false,true,0.0-2.0-0.45-0.405-3.405,0,0,1,68,false,stim,false,0,1117.0,3,1,1,15121,WMM1,1481044,false,false,1310,image-keyboard-response,22
true,13,0,3,0,true,q,false,true,0.0-2.0-0.45-0.406-3.406,0,0,1,81,false,stim,false,1,2377.0,3,1,0,15121,WMM1,1484928,false,false,1313,image-keyboard-response,23
true,13,0,3,0,true,q,false,true,0.0-2.0-0.45-0.407-3.407,0,0,1,81,false,stim,false,1,789.9999999997672,3,1,0,15121,WMM1,1487224,false,false,1316,image-keyboard-response,24
true,13,2,3,2,true,d,false,true,0.0-2.0-0.45-0.408-3.408,0,0,1,68,false,stim,false,2,2106.0,3,1,2,15121,WMM1,1490837,false,false,1319,image-keyboard-response,25
true,13,0,3,0,true,q,false,true,0.0-2.0-0.45-0.409-3.409,0,0,1,81,false,stim,false,1,1861.0,3,1,0,15121,WMM1,1494204,false,false,1322,image-keyboard-response,26
true,13,2,3,2,true,d,false,true,0.0-2.0-0.45-0.410-3.410,0,0,1,68,false,stim,false,0,1710.0,3,1,1,15121,WMM1,1497421,false,false,1325,image-keyboard-response,27
true,13,2,3,2,true,d,false,true,0.0-2.0-0.45-0.411-3.411,0,0,1,68,false,stim,false,2,1918.0,3,1,2,15121,WMM1,1500845,false,false,1328,image-keyboard-response,28
true,13,2,3,2,true,d,false,true,0.0-2.0-0.45-0.412-3.412,0,0,1,68,false,stim,false,2,846.0,3,1,2,15121,WMM1,1503197,false,false,1331,image-keyboard-response,29
true,13,2,3,2,true,d,false,true,0.0-2.0-0.45-0.413-3.413,0,0,1,68,false,stim,false,0,557.0000000002328,3,1,1,15121,WMM1,1505261,false,false,1334,image-keyboard-response,30
true,14,0,0,2,false,d,true,false,0.0-2.0-0.46-0.414-3.414,1,1,1,81,true,stim,false,2,1856.0,3,1,2,15121,WMM1,1523676,false,false,1353,image-keyboard-response,1
true,14,0,0,0,true,q,false,true,0.0-2.0-0.46-0.415-3.415,1,1,1,81,false,stim,false,0,1142.0,3,1,0,15121,WMM1,1526326,false,false,1356,image-keyboard-response,2
true,14,0,0,2,false,d,true,false,0.0-2.0-0.46-0.416-3.416,1,1,1,81,false,stim,false,2,1244.0,3,1,2,15121,WMM1,1529077,false,false,1359,image-keyboard-response,3
true,14,0,0,2,false,d,true,false,0.0-2.0-0.46-0.417-3.417,1,1,1,81,false,stim,false,2,2052.0,3,1,1,15121,WMM1,1532635,false,false,1362,image-keyboard-response,4
false,14,-1,0,2,false,d,true,false,0.0-2.0-0.46-0.418-3.418,1,1,1,,false,stim,false,2,,3,1,2,15121,WMM1,1537143,false,false,1365,image-keyboard-response,5
true,14,2,0,2,true,d,false,false,0.0-2.0-0.46-0.419-3.419,1,1,1,68,false,stim,false,2,1710.0,3,1,1,15121,WMM1,1540359,false,true,1368,image-keyboard-response,6
true,14,0,0,0,true,q,false,false,0.0-2.0-0.46-0.420-3.420,1,1,1,81,false,stim,false,0,1822.0,3,1,0,15121,WMM1,1543687,false,true,1371,image-keyboard-response,7
true,14,1,0,2,false,d,true,false,0.0-2.0-0.46-0.421-3.421,1,1,1,90,false,stim,false,2,2112.0,3,1,1,15121,WMM1,1547306,false,false,1374,image-keyboard-response,8
true,14,2,0,0,false,q,true,false,0.0-2.0-0.46-0.422-3.422,1,1,1,68,false,stim,false,0,2085.0,3,1,0,15121,WMM1,1550898,false,false,1377,image-keyboard-response,9
true,14,2,0,2,true,d,false,false,0.0-2.0-0.47-0.423-3.423,1,1,1,68,false,stim,false,2,1332.0,3,1,2,15121,WMM1,1553738,false,true,1380,image-keyboard-response,10
true,14,1,0,0,false,q,true,false,0.0-2.0-0.47-0.424-3.424,1,1,1,90,false,stim,false,0,1693.9999999997672,3,1,0,15121,WMM1,1556938,false,false,1383,image-keyboard-response,11
true,14,0,0,0,true,q,false,true,0.0-2.0-0.47-0.425-3.425,1,1,1,81,false,stim,false,0,1255.0,3,1,0,15121,WMM1,1559700,false,false,1386,image-keyboard-response,12
true,14,0,0,0,true,q,false,true,0.0-2.0-0.47-0.426-3.426,1,1,1,81,false,stim,false,0,1547.0,3,1,0,15121,WMM1,1562755,false,false,1389,image-keyboard-response,13
true,14,1,0,2,false,d,true,true,0.0-2.0-0.47-0.427-3.427,1,1,1,90,false,stim,false,2,2117.000000000233,3,1,2,15121,WMM1,1566379,false,true,1392,image-keyboard-response,14
true,14,1,0,2,false,d,true,false,0.0-2.0-0.47-0.428-3.428,1,1,1,90,false,stim,false,2,789.0,3,1,2,15121,WMM1,1568674,false,false,1395,image-keyboard-response,15
true,14,1,0,2,false,d,true,false,0.0-2.0-0.47-0.429-3.429,1,1,1,90,false,stim,false,2,1190.0,3,1,1,15121,WMM1,1571370,false,false,1398,image-keyboard-response,16
true,14,2,0,2,true,d,false,true,0.0-2.0-0.47-0.430-3.430,1,1,1,68,false,stim,false,2,1080.0,3,1,1,15121,WMM1,1573962,false,false,1401,image-keyboard-response,17
true,14,2,0,2,true,d,false,true,0.0-2.0-0.47-0.431-3.431,1,1,1,68,false,stim,false,2,670.0000000002328,3,1,1,15121,WMM1,1576138,false,false,1404,image-keyboard-response,18
true,14,0,0,0,true,q,false,true,0.0-2.0-0.48-0.432-3.432,1,1,1,81,false,stim,false,0,1316.0,3,1,0,15121,WMM1,1578962,false,false,1407,image-keyboard-response,19
true,14,2,0,2,true,d,false,true,0.0-2.0-0.48-0.433-3.433,1,1,1,68,false,stim,false,2,1309.0,3,1,1,15121,WMM1,1581778,false,false,1410,image-keyboard-response,20
true,14,1,0,2,false,d,true,false,0.0-2.0-0.48-0.434-3.434,1,1,1,90,false,stim,false,2,2347.0,3,1,2,15121,WMM1,1585633,false,false,1413,image-keyboard-response,21
true,14,0,0,0,true,q,false,true,0.0-2.0-0.48-0.435-3.435,1,1,1,81,false,stim,false,0,1476.0,3,1,0,15121,WMM1,1588616,false,false,1416,image-keyboard-response,22
true,14,2,0,2,true,d,false,true,0.0-2.0-0.48-0.436-3.436,1,1,1,68,false,stim,false,2,965.0,3,1,1,15121,WMM1,1591089,false,false,1419,image-keyboard-response,23
true,14,1,0,2,false,d,true,false,0.0-2.0-0.48-0.437-3.437,1,1,1,90,false,stim,false,2,1819.0,3,1,2,15121,WMM1,1594416,false,false,1422,image-keyboard-response,24
true,14,2,0,2,true,d,false,true,0.0-2.0-0.48-0.438-3.438,1,1,1,68,false,stim,false,2,1749.0,3,1,1,15121,WMM1,1597672,false,false,1425,image-keyboard-response,25
true,14,0,0,0,true,q,false,true,0.0-2.0-0.48-0.439-3.439,1,1,1,81,false,stim,false,0,1228.0000000002328,3,1,0,15121,WMM1,1600408,false,false,1428,image-keyboard-response,26
true,14,0,0,2,false,d,true,false,0.0-2.0-0.48-0.440-3.440,1,1,1,81,false,stim,false,2,2216.0,3,1,2,15121,WMM1,1604133,false,false,1431,image-keyboard-response,27
false,14,-1,0,0,false,q,true,true,0.0-2.0-0.49-0.441-3.441,1,1,1,,false,stim,false,0,,3,1,0,15121,WMM1,1608643,false,true,1434,image-keyboard-response,28
true,14,2,0,2,true,d,false,true,0.0-2.0-0.49-0.442-3.442,1,1,1,68,false,stim,false,2,1444.0,3,1,1,15121,WMM1,1611595,false,false,1437,image-keyboard-response,29
true,14,2,0,2,true,d,false,true,0.0-2.0-0.49-0.443-3.443,1,1,1,68,false,stim,false,2,1099.0,3,1,2,15121,WMM1,1614202,false,false,1440,image-keyboard-response,30
true,14,0,0,0,true,q,false,true,0.0-2.0-0.49-0.444-3.444,1,1,1,81,false,stim,false,0,1326.0,3,1,0,15121,WMM1,1617035,false,false,1443,image-keyboard-response,31
true,14,2,0,2,true,d,false,true,0.0-2.0-0.49-0.445-3.445,1,1,1,68,false,stim,false,2,1058.9999999997672,3,1,1,15121,WMM1,1619603,false,false,1446,image-keyboard-response,32
true,14,0,0,0,true,q,false,true,0.0-2.0-0.49-0.446-3.446,1,1,1,81,false,stim,false,0,948.9999999997672,3,1,0,15121,WMM1,1622060,false,false,1449,image-keyboard-response,33
true,14,2,0,2,true,d,false,true,0.0-2.0-0.49-0.447-3.447,1,1,1,68,false,stim,false,2,540.0,3,1,2,15121,WMM1,1624107,false,false,1452,image-keyboard-response,34
true,14,2,0,2,true,d,false,true,0.0-2.0-0.49-0.448-3.448,1,1,1,68,false,stim,false,2,693.0,3,0,2,15121,WMM1,1626307,false,false,1455,image-keyboard-response,35
true,14,2,0,2,true,d,false,true,0.0-2.0-0.49-0.449-3.449,1,1,1,68,false,stim,false,2,852.0,3,0,1,15121,WMM1,1628667,false,false,1458,image-keyboard-response,36
true,14,0,0,0,true,q,false,true,0.0-2.0-0.50-0.450-3.450,1,1,1,81,false,stim,false,0,1013.0,3,0,0,15121,WMM1,1631187,false,false,1461,image-keyboard-response,37
true,14,2,0,2,true,d,false,true,0.0-2.0-0.50-0.451-3.451,1,1,1,68,false,stim,false,2,878.0000000002328,3,0,1,15121,WMM1,1633572,false,false,1464,image-keyboard-response,38
true,14,2,0,2,true,d,false,true,0.0-2.0-0.50-0.452-3.452,1,1,1,68,false,stim,false,2,804.0,3,0,2,15121,WMM1,1635883,false,false,1467,image-keyboard-response,39
true,14,2,0,2,true,d,false,true,0.0-2.0-0.50-0.453-3.453,1,1,1,68,false,stim,false,2,468.99999999976717,3,0,2,15121,WMM1,1637859,false,false,1470,image-keyboard-response,40
true,14,2,0,2,true,d,false,false,0.0-2.0-0.50-0.454-3.454,1,1,1,68,false,stim,false,2,494.0,3,0,1,15121,WMM1,1639859,false,true,1473,image-keyboard-response,41
true,14,0,0,0,true,q,false,true,0.0-2.0-0.50-0.455-3.455,1,1,1,81,false,stim,false,0,1397.0,3,0,0,15121,WMM1,1642764,false,false,1476,image-keyboard-response,42
true,14,2,0,2,true,d,false,true,0.0-2.0-0.50-0.456-3.456,1,1,1,68,false,stim,false,2,525.0,3,0,1,15121,WMM1,1644795,false,false,1479,image-keyboard-response,43
true,14,0,0,0,true,q,false,true,0.0-2.0-0.50-0.457-3.457,1,1,1,81,false,stim,false,0,1071.0000000002328,3,0,0,15121,WMM1,1647372,false,false,1482,image-keyboard-response,44
true,15,2,1,1,false,z,false,false,0.0-2.0-0.50-0.458-3.458,0,0,0,68,true,stim,true,2,701.0,3,0,2,15121,WMM1,1649580,false,false,1485,image-keyboard-response,1
true,15,2,1,1,false,z,false,true,0.0-2.0-0.51-0.459-3.459,0,0,0,68,false,stim,true,2,653.0,3,0,1,15121,WMM1,1651740,false,true,1488,image-keyboard-response,2
true,15,2,1,1,false,z,false,false,0.0-2.0-0.51-0.460-3.460,0,0,0,68,false,stim,true,2,844.0000000002328,3,0,2,15121,WMM1,1654092,false,false,1491,image-keyboard-response,3
true,15,2,1,1,false,z,false,false,0.0-2.0-0.51-0.461-3.461,0,0,0,68,false,stim,true,2,1501.0,3,0,1,15121,WMM1,1657100,false,false,1494,image-keyboard-response,4
true,15,1,1,1,true,z,false,true,0.0-2.0-0.51-0.462-3.462,0,0,0,90,false,stim,false,2,1637.0,3,0,2,15121,WMM1,1660244,false,false,1497,image-keyboard-response,5
true,15,0,1,2,false,d,false,true,0.0-2.0-0.51-0.463-3.463,0,0,0,81,false,stim,true,0,2140.0,3,0,0,15121,WMM1,1663892,false,true,1500,image-keyboard-response,6
true,15,1,1,1,true,z,false,true,0.0-2.0-0.51-0.464-3.464,0,0,0,90,false,stim,false,2,2276.000000000233,3,0,2,15121,WMM1,1667680,false,false,1503,image-keyboard-response,7
true,15,0,1,2,false,d,false,false,0.0-2.0-0.51-0.465-3.465,0,0,0,81,false,stim,true,0,1678.0,3,0,0,15121,WMM1,1670865,false,false,1506,image-keyboard-response,8
true,15,0,1,2,false,d,false,false,0.0-2.0-0.51-0.466-3.466,0,0,0,81,false,stim,true,0,459.99999999976717,3,0,0,15121,WMM1,1672832,false,false,1509,image-keyboard-response,9
true,15,2,1,1,false,z,false,false,0.0-2.0-0.51-0.467-3.467,0,0,0,68,false,stim,true,2,2554.0,3,0,1,15121,WMM1,1676893,false,false,1512,image-keyboard-response,10
true,15,2,1,2,true,d,false,true,0.0-2.0-0.52-0.468-3.468,0,0,0,68,false,stim,false,0,1931.9999999997672,3,0,0,15121,WMM1,1680333,false,false,1515,image-keyboard-response,11
true,15,2,1,1,false,z,false,false,0.0-2.0-0.52-0.469-3.469,0,0,0,68,false,stim,true,2,1876.0,3,0,1,15121,WMM1,1683715,false,false,1518,image-keyboard-response,12
false,15,-1,1,1,false,z,true,true,0.0-2.0-0.52-0.470-3.470,0,0,0,,false,stim,false,2,,3,0,2,15121,WMM1,1688222,false,true,1521,image-keyboard-response,13
true,15,2,1,2,true,d,false,true,0.0-2.0-0.52-0.471-3.471,0,0,0,68,false,stim,false,0,1438.0,3,0,0,15121,WMM1,1691167,false,false,1524,image-keyboard-response,14
true,15,1,1,1,true,z,false,true,0.0-2.0-0.52-0.472-3.472,0,0,0,90,false,stim,false,2,1044.0000000002328,3,0,2,15121,WMM1,1693718,false,false,1527,image-keyboard-response,15
true,15,1,1,1,true,z,false,true,0.0-2.0-0.52-0.473-3.473,0,0,0,90,false,stim,false,2,1637.0,3,0,1,15121,WMM1,1696862,false,false,1530,image-keyboard-response,16
true,15,1,1,1,true,z,false,true,0.0-2.0-0.52-0.474-3.474,0,0,0,90,false,stim,false,2,1334.0,3,0,1,15121,WMM1,1699702,false,false,1533,image-keyboard-response,17
true,15,2,1,2,true,d,false,true,0.0-2.0-0.52-0.475-3.475,0,0,0,68,false,stim,false,0,1468.9999999997672,3,0,0,15121,WMM1,1702679,false,false,1536,image-keyboard-response,18
true,15,1,1,1,true,z,false,true,0.0-2.0-0.52-0.476-3.476,0,0,0,90,false,stim,false,2,1646.0,3,0,2,15121,WMM1,1705831,false,false,1539,image-keyboard-response,19
true,15,1,1,1,true,z,false,true,0.0-2.0-0.53-0.477-3.477,0,0,0,90,false,stim,false,2,563.0,3,0,1,15121,WMM1,1707903,false,false,1542,image-keyboard-response,20
true,15,1,1,1,true,z,false,true,0.0-2.0-0.53-0.478-3.478,0,0,0,90,false,stim,false,2,748.0,3,0,2,15121,WMM1,1710159,false,false,1545,image-keyboard-response,21
true,15,0,1,2,false,d,false,false,0.0-2.0-0.53-0.479-3.479,0,0,0,81,false,stim,true,0,1101.0000000002328,3,0,0,15121,WMM1,1712767,false,false,1548,image-keyboard-response,22
true,15,1,1,1,true,z,false,true,0.0-2.0-0.53-0.480-3.480,0,0,0,90,false,stim,false,2,1548.0,3,0,2,15121,WMM1,1715822,false,false,1551,image-keyboard-response,23
true,15,1,1,1,true,z,false,true,0.0-2.0-0.53-0.481-3.481,0,0,0,90,false,stim,false,2,1606.0,3,0,1,15121,WMM1,1718935,false,false,1554,image-keyboard-response,24
true,15,1,1,1,true,z,false,true,0.0-2.0-0.53-0.482-3.482,0,0,0,90,false,stim,false,2,676.0,3,0,2,15121,WMM1,1721119,false,false,1557,image-keyboard-response,25
true,15,2,1,2,true,d,false,true,0.0-2.0-0.53-0.483-3.483,0,0,0,68,false,stim,false,0,820.0,3,0,0,15121,WMM1,1723447,false,false,1560,image-keyboard-response,26
true,15,1,1,1,true,z,false,true,0.0-2.0-0.53-0.484-3.484,0,0,0,90,false,stim,false,2,895.0,3,0,1,15121,WMM1,1725848,false,false,1563,image-keyboard-response,27
true,15,2,1,2,true,d,false,false,0.0-2.0-0.53-0.485-3.485,0,0,0,68,false,stim,false,0,973.9999999997672,3,0,0,15121,WMM1,1728329,false,true,1566,image-keyboard-response,28
true,15,1,1,1,true,z,false,true,0.0-2.0-0.54-0.486-3.486,0,0,0,90,false,stim,false,2,1387.0,3,0,2,15121,WMM1,1731224,false,false,1569,image-keyboard-response,29
true,15,2,1,2,true,d,false,true,0.0-2.0-0.54-0.487-3.487,0,0,0,68,false,stim,false,0,1093.0,3,0,0,15121,WMM1,1733824,false,false,1572,image-keyboard-response,30
true,16,2,2,1,false,z,false,false,0.0-2.0-0.54-0.488-3.488,0,0,0,68,true,stim,true,2,483.00000000023283,3,0,0,15121,WMM1,1735815,false,false,1575,image-keyboard-response,1
true,16,2,2,1,false,z,false,false,0.0-2.0-0.54-0.489-3.489,0,0,0,68,false,stim,true,2,814.0,3,0,0,15121,WMM1,1738136,false,false,1578,image-keyboard-response,2
true,16,1,2,2,false,d,false,false,0.0-2.0-0.54-0.490-3.490,0,0,0,90,false,stim,true,1,1989.9999999997672,3,0,2,15121,WMM1,1741633,false,false,1581,image-keyboard-response,3
true,16,1,2,0,false,q,false,false,0.0-2.0-0.54-0.491-3.491,0,0,0,90,false,stim,true,1,1252.0,3,0,1,15121,WMM1,1744392,false,false,1584,image-keyboard-response,4
true,16,2,2,2,true,d,false,true,0.0-2.0-0.54-0.492-3.492,0,0,0,68,false,stim,false,1,1982.0,3,0,2,15121,WMM1,1747881,false,false,1587,image-keyboard-response,5
true,16,2,2,0,false,q,true,true,0.0-2.0-0.54-0.493-3.493,0,0,0,68,false,stim,false,1,1307.0,3,0,1,15121,WMM1,1750696,false,true,1590,image-keyboard-response,6
true,16,2,2,0,false,q,true,false,0.0-2.0-0.54-0.494-3.494,0,0,0,68,false,stim,false,1,1157.0,3,0,1,15121,WMM1,1753360,false,false,1593,image-keyboard-response,7
true,16,1,2,1,true,z,false,true,0.0-2.0-0.55-0.495-3.495,0,0,0,90,false,stim,false,2,2239.0,3,0,0,15121,WMM1,1757108,false,false,1596,image-keyboard-response,8
true,16,2,2,0,false,q,true,false,0.0-2.0-0.55-0.496-3.496,0,0,0,68,false,stim,false,1,1405.9999999997672,3,0,1,15121,WMM1,1760021,false,false,1599,image-keyboard-response,9
true,16,1,2,1,true,z,false,true,0.0-2.0-0.55-0.497-3.497,0,0,0,90,false,stim,false,2,1978.0,3,0,0,15121,WMM1,1763514,false,false,1602,image-keyboard-response,10
true,16,2,2,2,true,d,false,true,0.0-2.0-0.55-0.498-3.498,0,0,0,68,false,stim,false,1,1764.0,3,0,2,15121,WMM1,1766785,false,false,1605,image-keyboard-response,11
true,16,2,2,2,true,d,false,true,0.0-2.0-0.55-0.499-3.499,0,0,0,68,false,stim,false,1,1630.0,3,0,2,15121,WMM1,1769922,false,false,1608,image-keyboard-response,12
true,16,1,2,1,true,z,false,true,0.0-2.0-0.55-0.500-3.500,0,0,0,90,false,stim,false,2,1821.0,3,0,0,15121,WMM1,1773249,false,false,1611,image-keyboard-response,13
true,16,0,2,0,true,q,false,false,0.0-2.0-0.55-0.501-3.501,0,0,0,81,false,stim,false,1,973.0,3,0,1,15121,WMM1,1775729,false,true,1614,image-keyboard-response,14
true,16,1,2,0,false,q,false,true,0.0-2.0-0.55-0.502-3.502,0,0,0,90,false,stim,true,1,1766.0,3,0,1,15121,WMM1,1779002,false,true,1617,image-keyboard-response,15
false,16,-1,2,2,false,d,true,false,0.0-2.0-0.55-0.503-3.503,0,0,0,,false,stim,false,1,,3,0,2,15121,WMM1,1783511,false,false,1620,image-keyboard-response,16
true,16,2,2,2,true,d,false,true,0.0-2.0-0.56-0.504-3.504,0,0,0,68,false,stim,false,1,518.9999999997672,3,0,2,15121,WMM1,1785538,false,false,1623,image-keyboard-response,17
true,16,1,2,1,true,z,false,true,0.0-2.0-0.56-0.505-3.505,0,0,0,90,false,stim,false,2,1565.0,3,0,0,15121,WMM1,1788610,false,false,1626,image-keyboard-response,18
true,16,1,2,1,true,z,false,false,0.0-2.0-0.56-0.506-3.506,0,0,0,90,false,stim,false,2,1156.9999999997672,3,0,0,15121,WMM1,1791275,false,true,1629,image-keyboard-response,19
true,16,1,2,1,true,z,false,true,0.0-2.0-0.56-0.507-3.507,0,0,0,90,false,stim,false,2,726.0,3,0,0,15121,WMM1,1793509,false,false,1632,image-keyboard-response,20
true,16,1,2,0,false,q,false,false,0.0-2.0-0.56-0.508-3.508,0,0,0,90,false,stim,true,1,659.0000000002328,3,0,1,15121,WMM1,1795675,false,false,1635,image-keyboard-response,21
true,16,1,2,2,false,d,false,false,0.0-2.0-0.56-0.509-3.509,0,0,0,90,false,stim,true,1,864.0,3,0,2,15121,WMM1,1798045,false,false,1638,image-keyboard-response,22
true,16,2,2,2,true,d,false,true,0.0-2.0-0.56-0.510-3.510,0,0,0,68,false,stim,false,1,923.0,3,0,2,15121,WMM1,1800476,false,false,1641,image-keyboard-response,23
true,16,1,2,0,false,q,false,false,0.0-2.0-0.56-0.511-3.511,0,0,0,90,false,stim,true,1,2059.999999999767,3,0,1,15121,WMM1,1804045,false,false,1644,image-keyboard-response,24
true,16,2,2,0,false,q,true,false,0.0-2.0-0.56-0.512-3.512,0,0,0,68,false,stim,false,1,1243.9999999997672,3,0,1,15121,WMM1,1806797,false,false,1647,image-keyboard-response,25
true,16,2,2,2,true,d,false,true,0.0-2.0-0.57-0.513-3.513,0,0,0,68,false,stim,false,1,1896.0,3,0,2,15121,WMM1,1810202,false,false,1650,image-keyboard-response,26
true,16,0,2,0,true,q,false,true,0.0-2.0-0.57-0.514-3.514,0,0,0,81,false,stim,false,1,1117.0,3,0,1,15121,WMM1,1812826,false,false,1653,image-keyboard-response,27
true,16,0,2,0,true,q,false,true,0.0-2.0-0.57-0.515-3.515,0,0,0,81,false,stim,false,1,580.0,3,0,1,15121,WMM1,1814915,false,false,1656,image-keyboard-response,28
true,16,2,2,2,true,d,false,true,0.0-2.0-0.57-0.516-3.516,0,0,0,68,false,stim,false,1,1933.0,3,0,2,15121,WMM1,1818355,false,false,1659,image-keyboard-response,29
true,16,1,2,1,true,z,false,false,0.0-2.0-0.57-0.517-3.517,0,0,0,90,false,stim,false,2,2130.0,3,0,0,15121,WMM1,1821993,false,true,1662,image-keyboard-response,30
true,16,2,2,2,true,d,false,true,0.0-2.0-0.57-0.518-3.518,0,0,0,68,false,stim,false,1,1869.0,3,0,2,15121,WMM1,1825370,false,false,1665,image-keyboard-response,31
true,16,1,2,1,true,z,false,true,0.0-2.0-0.57-0.519-3.519,0,0,0,90,false,stim,false,2,1597.0,3,0,0,15121,WMM1,1828474,false,false,1668,image-keyboard-response,32
true,16,1,2,1,true,z,false,true,0.0-2.0-0.57-0.520-3.520,0,0,0,90,false,stim,false,2,591.0,3,0,0,15121,WMM1,1830570,false,false,1671,image-keyboard-response,33
false,16,-1,2,0,false,q,true,false,0.0-2.0-0.57-0.521-3.521,0,0,0,,false,stim,false,1,,3,0,1,15121,WMM1,1835078,false,false,1674,image-keyboard-response,34
true,16,1,2,1,true,z,false,true,0.0-2.0-0.58-0.522-3.522,0,0,0,90,false,stim,false,2,2247.000000000233,3,0,0,15121,WMM1,1838833,false,false,1677,image-keyboard-response,35
true,16,2,2,2,true,d,false,true,0.0-2.0-0.58-0.523-3.523,0,0,0,68,false,stim,false,1,1862.0,3,0,2,15121,WMM1,1842201,false,false,1680,image-keyboard-response,36
true,16,2,2,0,false,q,true,true,0.0-2.0-0.58-0.524-3.524,0,0,0,68,false,stim,false,1,1116.0,3,0,1,15121,WMM1,1844825,false,true,1683,image-keyboard-response,37
true,16,1,2,1,true,z,false,true,0.0-2.0-0.58-0.525-3.525,0,0,0,90,false,stim,false,2,1493.0,3,0,0,15121,WMM1,1847825,false,false,1686,image-keyboard-response,38
true,16,2,2,0,false,q,true,true,0.0-2.0-0.58-0.526-3.526,0,0,0,68,false,stim,false,1,2323.999999999767,3,0,1,15121,WMM1,1851657,false,true,1689,image-keyboard-response,39
true,17,2,1,2,true,d,false,true,0.0-2.0-0.58-0.527-3.527,0,0,0,68,true,stim,false,0,1101.0,3,0,1,15121,WMM1,1854265,false,false,1692,image-keyboard-response,1
true,17,2,1,1,false,z,false,false,0.0-2.0-0.58-0.528-3.528,0,0,0,68,false,stim,true,2,1365.0,3,0,2,15121,WMM1,1857137,false,false,1695,image-keyboard-response,2
true,17,2,1,1,false,z,false,false,0.0-2.0-0.58-0.529-3.529,0,0,0,68,false,stim,true,2,734.0,3,0,2,15121,WMM1,1859377,false,false,1698,image-keyboard-response,3
true,17,1,1,2,false,d,false,false,0.0-2.0-0.58-0.530-3.530,0,0,0,90,false,stim,true,1,1550.9999999997672,3,0,0,15121,WMM1,1862443,false,false,1701,image-keyboard-response,4
true,17,2,1,2,true,d,false,true,0.0-2.0-0.59-0.531-3.531,0,0,0,68,false,stim,false,0,1451.0000000002328,3,0,1,15121,WMM1,1865402,false,false,1704,image-keyboard-response,5
true,17,2,1,2,true,d,false,true,0.0-2.0-0.59-0.532-3.532,0,0,0,68,false,stim,false,0,1197.0,3,0,1,15121,WMM1,1868106,false,false,1707,image-keyboard-response,6
true,17,1,1,1,true,z,false,true,0.0-2.0-0.59-0.533-3.533,0,0,0,90,false,stim,false,2,2766.999999999767,3,0,2,15121,WMM1,1872380,false,false,1710,image-keyboard-response,7
true,17,0,1,2,false,d,true,false,0.0-2.0-0.59-0.534-3.534,0,0,0,81,false,stim,false,1,2295.000000000233,3,0,0,15121,WMM1,1876180,false,false,1713,image-keyboard-response,8
true,17,2,1,2,true,d,false,true,0.0-2.0-0.59-0.535-3.535,0,0,0,68,false,stim,false,1,933.0,3,0,0,15121,WMM1,1878619,false,false,1716,image-keyboard-response,9
true,17,1,1,1,true,z,false,true,0.0-2.0-0.59-0.536-3.536,0,0,0,90,false,stim,false,2,1575.0000000002328,3,0,2,15121,WMM1,1881700,false,false,1719,image-keyboard-response,10
true,17,2,1,2,true,d,false,true,0.0-2.0-0.59-0.537-3.537,0,0,0,68,false,stim,false,0,1501.0,3,0,1,15121,WMM1,1884709,false,false,1722,image-keyboard-response,11
true,17,1,1,1,true,z,false,true,0.0-2.0-0.59-0.538-3.538,0,0,0,90,false,stim,false,2,1893.0,3,0,2,15121,WMM1,1888108,false,false,1725,image-keyboard-response,12
true,17,2,1,2,true,d,false,true,0.0-2.0-0.59-0.539-3.539,0,0,0,68,false,stim,false,1,1460.0,3,0,0,15121,WMM1,1891076,false,false,1728,image-keyboard-response,13
false,17,-1,1,1,false,z,true,false,0.0-2.0-0.60-0.540-3.540,0,0,0,,false,stim,false,2,,3,0,2,15121,WMM1,1895585,false,false,1731,image-keyboard-response,14
true,17,2,1,2,true,d,false,true,0.0-2.0-0.60-0.541-3.541,0,0,0,68,false,stim,false,0,1604.0,3,0,1,15121,WMM1,1898697,false,false,1734,image-keyboard-response,15
true,17,2,1,2,true,d,false,true,0.0-2.0-0.60-0.542-3.542,0,0,0,68,false,stim,false,1,1356.0,3,0,0,15121,WMM1,1901560,false,false,1737,image-keyboard-response,16
true,17,1,1,1,true,z,false,true,0.0-2.0-0.60-0.543-3.543,0,0,0,90,false,stim,false,2,1950.0,3,0,2,15121,WMM1,1905017,false,false,1740,image-keyboard-response,17
true,17,2,1,2,true,d,false,true,0.0-2.0-0.60-0.544-3.544,0,0,0,68,false,stim,false,1,949.0,3,0,0,15121,WMM1,1907473,false,false,1743,image-keyboard-response,18
true,17,2,1,2,true,d,false,true,0.0-2.0-0.60-0.545-3.545,0,0,0,68,false,stim,false,1,612.9999999997672,3,0,0,15121,WMM1,1909593,false,false,1746,image-keyboard-response,19
true,17,2,1,2,true,d,false,false,0.0-2.0-0.60-0.546-3.546,0,0,0,68,false,stim,false,0,796.0,3,0,1,15121,WMM1,1911897,false,true,1749,image-keyboard-response,20
true,17,1,1,1,true,z,false,true,0.0-2.0-0.60-0.547-3.547,0,0,0,90,false,stim,false,2,1676.0,3,0,2,15121,WMM1,1915081,false,false,1752,image-keyboard-response,21
true,17,2,1,2,true,d,false,true,0.0-2.0-0.60-0.548-3.548,0,0,0,68,false,stim,false,0,1197.0,3,0,1,15121,WMM1,1917787,false,false,1755,image-keyboard-response,22
true,17,1,1,1,true,z,false,true,0.0-2.0-0.61-0.549-3.549,0,0,0,90,false,stim,false,2,2080.000000000233,3,0,2,15121,WMM1,1921374,false,false,1758,image-keyboard-response,23
true,17,2,1,2,true,d,false,true,0.0-2.0-0.61-0.550-3.550,0,0,0,68,false,stim,false,1,1244.0,3,0,0,15121,WMM1,1924126,false,false,1761,image-keyboard-response,24
true,17,2,1,2,true,d,false,true,0.0-2.0-0.61-0.551-3.551,0,0,0,68,false,stim,false,1,749.0,3,0,0,15121,WMM1,1926382,false,false,1764,image-keyboard-response,25
true,17,2,1,2,true,d,false,true,0.0-2.0-0.61-0.552-3.552,0,0,0,68,false,stim,false,0,933.0,3,0,1,15121,WMM1,1928822,false,false,1767,image-keyboard-response,26
true,17,2,1,2,true,d,false,true,0.0-2.0-0.61-0.553-3.553,0,0,0,68,false,stim,false,1,1108.0,3,0,0,15121,WMM1,1931438,false,false,1770,image-keyboard-response,27
true,17,2,1,2,true,d,false,false,0.0-2.0-0.61-0.554-3.554,0,0,0,68,false,stim,false,0,2108.0,3,0,1,15121,WMM1,1935053,false,true,1773,image-keyboard-response,28
true,17,1,1,1,true,z,false,true,0.0-2.0-0.61-0.555-3.555,0,0,0,90,false,stim,false,2,2038.0,3,0,2,15121,WMM1,1938598,false,false,1776,image-keyboard-response,29
true,17,1,1,1,true,z,false,true,0.0-2.0-0.61-0.556-3.556,0,0,0,90,false,stim,false,2,867.9999999997672,3,0,2,15121,WMM1,1940973,false,false,1779,image-keyboard-response,30
true,17,2,1,2,true,d,false,true,0.0-2.0-0.61-0.557-3.557,0,0,0,68,false,stim,false,0,1453.0,3,0,1,15121,WMM1,1943934,false,false,1782,image-keyboard-response,31
true,18,1,2,2,false,d,false,false,0.0-2.0-0.62-0.558-3.558,0,0,0,90,true,stim,true,1,2124.0,3,0,2,15121,WMM1,1947565,false,false,1785,image-keyboard-response,1
true,18,2,2,1,false,z,false,false,0.0-2.0-0.62-0.559-3.559,0,0,0,68,false,stim,true,2,1548.0,3,0,0,15121,WMM1,1950621,false,false,1788,image-keyboard-response,2
true,18,1,2,0,false,q,true,false,0.0-2.0-0.62-0.560-3.560,0,0,0,90,false,stim,false,2,1830.0,3,0,1,15121,WMM1,1953958,false,false,1791,image-keyboard-response,3
true,18,0,2,0,true,q,false,true,0.0-2.0-0.62-0.561-3.561,0,0,0,81,false,stim,false,2,1404.0,3,0,1,15121,WMM1,1956869,false,false,1794,image-keyboard-response,4
true,18,0,2,2,false,d,true,false,0.0-2.0-0.62-0.562-3.562,0,0,0,81,false,stim,false,1,1380.9999999997672,3,0,2,15121,WMM1,1959757,false,false,1797,image-keyboard-response,5
true,18,1,2,2,false,d,false,false,0.0-2.0-0.62-0.563-3.563,0,0,0,90,false,stim,true,1,1118.0,3,0,2,15121,WMM1,1962382,false,false,1800,image-keyboard-response,6
true,18,0,2,0,true,q,false,true,0.0-2.0-0.62-0.564-3.564,0,0,0,81,false,stim,false,2,2059.0,3,0,1,15121,WMM1,1965957,false,false,1803,image-keyboard-response,7
true,18,1,2,1,true,z,false,true,0.0-2.0-0.62-0.565-3.565,0,0,0,90,false,stim,false,2,1717.0,3,0,0,15121,WMM1,1969181,false,false,1806,image-keyboard-response,8
true,18,1,2,1,true,z,false,false,0.0-2.0-0.62-0.566-3.566,0,0,0,90,false,stim,false,2,1813.0000000002328,3,0,0,15121,WMM1,1972501,false,true,1809,image-keyboard-response,9
true,18,1,2,1,true,z,false,true,0.0-2.0-0.63-0.567-3.567,0,0,0,90,false,stim,false,2,508.0,3,0,0,15121,WMM1,1974517,false,false,1812,image-keyboard-response,10
true,18,0,2,0,true,q,false,true,0.0-2.0-0.63-0.568-3.568,0,0,0,81,false,stim,false,2,1405.0,3,0,1,15121,WMM1,1977429,false,false,1815,image-keyboard-response,11
true,18,2,2,2,true,d,false,true,0.0-2.0-0.63-0.569-3.569,0,0,0,68,false,stim,false,1,1588.0,3,0,2,15121,WMM1,1980525,false,false,1818,image-keyboard-response,12
true,18,0,2,0,true,q,false,true,0.0-2.0-0.63-0.570-3.570,0,0,0,81,false,stim,false,2,1749.0,3,0,1,15121,WMM1,1983781,false,false,1821,image-keyboard-response,13
true,18,1,2,1,true,z,false,true,0.0-2.0-0.63-0.571-3.571,0,0,0,90,false,stim,false,2,1536.0,3,0,0,15121,WMM1,1986822,false,false,1824,image-keyboard-response,14
true,18,2,2,2,true,d,false,false,0.0-2.0-0.63-0.572-3.572,0,0,0,68,false,stim,false,1,1708.0,3,0,2,15121,WMM1,1990038,false,true,1827,image-keyboard-response,15
true,18,0,2,0,true,q,false,true,0.0-2.0-0.63-0.573-3.573,0,0,0,81,false,stim,false,2,1430.0,3,0,1,15121,WMM1,1992974,false,false,1830,image-keyboard-response,16
true,18,1,2,1,true,z,false,true,0.0-2.0-0.63-0.574-3.574,0,0,0,90,false,stim,false,2,1589.0,3,0,0,15121,WMM1,1996070,false,false,1833,image-keyboard-response,17
true,18,1,2,2,false,d,false,true,0.0-2.0-0.63-0.575-3.575,0,0,0,90,false,stim,true,1,1285.0,3,0,2,15121,WMM1,1998862,false,true,1836,image-keyboard-response,18
true,18,1,2,2,false,d,false,false,0.0-2.0-0.64-0.576-3.576,0,0,0,90,false,stim,true,1,1003.0,3,0,2,15121,WMM1,2001374,false,false,1839,image-keyboard-response,19
true,18,1,2,1,true,z,false,true,0.0-2.0-0.64-0.577-3.577,0,0,0,90,false,stim,false,2,2941.0,3,0,0,15121,WMM1,2005822,false,false,1842,image-keyboard-response,20
true,18,2,2,2,true,d,false,true,0.0-2.0-0.64-0.578-3.578,0,0,0,68,false,stim,false,1,1196.0,3,0,2,15121,WMM1,2008526,false,false,1845,image-keyboard-response,21
true,18,0,2,0,true,q,false,true,0.0-2.0-0.64-0.579-3.579,0,0,0,81,false,stim,false,2,2176.0,3,0,1,15121,WMM1,2012211,false,false,1848,image-keyboard-response,22
true,18,1,2,1,true,z,false,true,0.0-2.0-0.64-0.580-3.580,0,0,0,90,false,stim,false,2,1490.0,3,0,0,15121,WMM1,2015211,false,false,1851,image-keyboard-response,23
true,18,1,2,1,true,z,false,true,0.0-2.0-0.64-0.581-3.581,0,0,0,90,false,stim,false,2,824.0,3,0,0,15121,WMM1,2017542,false,false,1854,image-keyboard-response,24
true,18,0,2,0,true,q,false,true,0.0-2.0-0.64-0.582-3.582,0,0,0,81,false,stim,false,2,1808.9999999997672,3,0,1,15121,WMM1,2020859,false,false,1857,image-keyboard-response,25
true,18,0,2,0,true,q,false,true,0.0-2.0-0.64-0.583-3.583,0,0,0,81,false,stim,false,2,1147.9999999997672,3,0,1,15121,WMM1,2023515,false,false,1860,image-keyboard-response,26
true,18,2,2,2,true,d,false,true,0.0-2.0-0.64-0.584-3.584,0,0,0,68,false,stim,false,1,1427.0,3,0,2,15121,WMM1,2026451,false,false,1863,image-keyboard-response,27
true,18,1,2,1,true,z,false,true,0.0-2.0-0.65-0.585-3.585,0,0,0,90,false,stim,false,2,1403.0,3,0,0,15121,WMM1,2029363,false,false,1866,image-keyboard-response,28
true,18,2,2,2,true,d,false,true,0.0-2.0-0.65-0.586-3.586,0,0,0,68,false,stim,false,1,1494.0,3,0,2,15121,WMM1,2032363,false,false,1869,image-keyboard-response,29
true,18,0,2,0,true,q,false,true,0.0-2.0-0.65-0.587-3.587,0,0,0,81,false,stim,false,2,1357.0,3,0,1,15121,WMM1,2035228,false,false,1872,image-keyboard-response,30
true,18,0,2,0,true,q,false,true,0.0-2.0-0.65-0.588-3.588,0,0,0,81,false,stim,false,2,692.0,3,0,1,15121,WMM1,2037427,false,false,1875,image-keyboard-response,31
true,18,2,2,2,true,d,false,true,0.0-2.0-0.65-0.589-3.589,0,0,0,68,false,stim,false,1,1939.9999999997672,3,0,2,15121,WMM1,2040876,false,false,1878,image-keyboard-response,32
true,18,1,2,1,true,z,false,true,0.0-2.0-0.65-0.590-3.590,0,0,0,90,false,stim,false,2,1484.0,3,0,0,15121,WMM1,2043868,false,false,1881,image-keyboard-response,33
true,18,2,2,2,true,d,false,true,0.0-2.0-0.65-0.591-3.591,0,0,0,68,false,stim,false,1,1717.0,3,0,2,15121,WMM1,2047092,false,false,1884,image-keyboard-response,34
true,18,1,2,1,true,z,false,true,0.0-2.0-0.65-0.592-3.592,0,0,0,90,false,stim,false,2,2032.9999999997672,3,0,0,15121,WMM1,2050633,false,false,1887,image-keyboard-response,35
true,18,0,2,0,true,q,false,true,0.0-2.0-0.65-0.593-3.593,0,0,0,81,false,stim,false,2,2005.0000000002328,3,0,1,15121,WMM1,2054145,false,false,1890,image-keyboard-response,36
true,18,2,2,2,true,d,false,false,0.0-2.0-0.66-0.594-3.594,0,0,0,68,false,stim,false,1,1426.9999999997672,3,0,2,15121,WMM1,2057081,false,true,1893,image-keyboard-response,37
true,19,2,1,0,false,q,false,true,0.0-2.0-0.66-0.595-3.595,0,0,0,68,true,stim,true,2,677.0,3,0,2,15121,WMM1,2059265,false,true,1896,image-keyboard-response,1
true,19,0,1,2,false,d,false,false,0.0-2.0-0.66-0.596-3.596,0,0,0,81,false,stim,true,0,1862.0,3,0,1,15121,WMM1,2062634,false,false,1899,image-keyboard-response,2
true,19,1,1,0,false,q,false,false,0.0-2.0-0.66-0.597-3.597,0,0,0,90,false,stim,true,1,1822.9999999997672,3,0,0,15121,WMM1,2065970,false,false,1902,image-keyboard-response,3
true,19,2,1,0,false,q,true,false,0.0-2.0-0.66-0.598-3.598,0,0,0,68,false,stim,false,1,1389.0000000002328,3,0,0,15121,WMM1,2068865,false,false,1905,image-keyboard-response,4
true,19,0,1,0,true,q,false,true,0.0-2.0-0.66-0.599-3.599,0,0,0,81,false,stim,false,2,2014.0000000002328,3,0,2,15121,WMM1,2072386,false,false,1908,image-keyboard-response,5
true,19,0,1,2,false,d,false,false,0.0-2.0-0.66-0.600-3.600,0,0,0,81,false,stim,true,0,899.9999999997672,3,0,1,15121,WMM1,2074793,false,false,1911,image-keyboard-response,6
true,19,2,1,2,true,d,false,false,0.0-2.0-0.66-0.601-3.601,0,0,0,68,false,stim,false,0,693.0000000002328,3,0,1,15121,WMM1,2076993,false,true,1914,image-keyboard-response,7
true,19,0,1,0,true,q,false,true,0.0-2.0-0.66-0.602-3.602,0,0,0,81,false,stim,false,1,1596.9999999997672,3,0,0,15121,WMM1,2080098,false,false,1917,image-keyboard-response,8
true,19,1,1,2,false,d,true,false,0.0-2.0-0.67-0.603-3.603,0,0,0,90,false,stim,false,0,1676.0,3,0,1,15121,WMM1,2083282,false,false,1920,image-keyboard-response,9
true,19,1,1,2,false,d,true,false,0.0-2.0-0.67-0.604-3.604,0,0,0,90,false,stim,false,0,708.9999999997672,3,0,1,15121,WMM1,2085498,false,false,1923,image-keyboard-response,10
true,19,0,1,0,true,q,false,true,0.0-2.0-0.67-0.605-3.605,0,0,0,81,false,stim,false,1,2452.000000000233,3,0,0,15121,WMM1,2089458,false,false,1926,image-keyboard-response,11
true,19,0,1,0,true,q,false,true,0.0-2.0-0.67-0.606-3.606,0,0,0,81,false,stim,false,1,924.9999999997672,3,0,0,15121,WMM1,2091890,false,false,1929,image-keyboard-response,12
true,19,0,1,0,true,q,false,true,0.0-2.0-0.67-0.607-3.607,0,0,0,81,false,stim,false,1,748.0,3,0,0,15121,WMM1,2094146,false,false,1932,image-keyboard-response,13
true,19,2,1,2,true,d,false,true,0.0-2.0-0.67-0.608-3.608,0,0,0,68,false,stim,false,0,1710.0,3,0,1,15121,WMM1,2097362,false,false,1935,image-keyboard-response,14
true,19,0,1,0,true,q,false,true,0.0-2.0-0.67-0.609-3.609,0,0,0,81,false,stim,false,2,1446.0,3,0,2,15121,WMM1,2100315,false,false,1938,image-keyboard-response,15
true,19,0,1,0,true,q,false,false,0.0-2.0-0.67-0.610-3.610,0,0,0,81,false,stim,false,2,1093.0,3,0,2,15121,WMM1,2102914,false,true,1941,image-keyboard-response,16
true,19,0,1,0,true,q,false,true,0.0-2.0-0.67-0.611-3.611,0,0,0,81,false,stim,false,2,597.0,3,0,2,15121,WMM1,2105018,false,false,1944,image-keyboard-response,17
true,19,0,1,0,true,q,false,false,0.0-2.0-0.68-0.612-3.612,0,0,0,81,false,stim,false,1,1229.0,3,0,0,15121,WMM1,2107756,false,true,1947,image-keyboard-response,18
true,19,2,1,2,true,d,false,true,0.0-2.0-0.68-0.613-3.613,0,0,0,68,false,stim,false,0,1468.0,3,0,1,15121,WMM1,2110731,false,false,1950,image-keyboard-response,19
true,19,0,1,0,true,q,false,true,0.0-2.0-0.68-0.614-3.614,0,0,0,81,false,stim,false,2,1782.0000000004657,3,0,2,15121,WMM1,2114019,false,false,1953,image-keyboard-response,20
true,19,2,1,2,true,d,false,true,0.0-2.0-0.68-0.615-3.615,0,0,0,68,false,stim,false,0,1708.0,3,0,1,15121,WMM1,2117235,false,false,1956,image-keyboard-response,21
