answered,blockNum,choice,condition,corResp,correct,correct_response,explo,fb,internal_node_id,isStable_1,isStable_2,isStable_3,key_press,newBlock,part,persev,persevResp,rt,sessNum,stableAS,stimulus,subject,task,time_elapsed,training,trap,trial_index,trial_type,trialsInBlock
true,1,0,0,2,false,d,true,false,0.0-2.0-0.0-0.0-3.0,0,0,0,81,true,stim,false,-1,1333.0,2,0,0,15121,WMM1,927419,false,false,79,image-keyboard-response,1
true,1,1,0,2,false,d,true,false,0.0-2.0-0.0-0.1-3.1,0,0,0,90,false,stim,false,-1,1630.0,2,0,0,15121,WMM1,930555,false,false,82,image-keyboard-response,2
true,1,0,0,2,false,d,true,false,0.0-2.0-0.0-0.2-3.2,0,0,0,81,false,stim,false,-1,1447.0,2,0,1,15121,WMM1,933507,false,false,85,image-keyboard-response,3
true,1,0,0,0,true,q,false,true,0.0-2.0-0.0-0.3-3.3,0,0,0,81,false,stim,false,-1,1486.0,2,0,2,15121,WMM1,936499,false,false,88,image-keyboard-response,4
true,1,0,0,0,true,q,false,true,0.0-2.0-0.0-0.4-3.4,0,0,0,81,false,stim,false,-1,1293.0,2,0,2,15121,WMM1,939299,false,false,91,image-keyboard-response,5
true,1,2,0,2,true,d,false,false,0.0-2.0-0.0-0.5-3.5,0,0,0,68,false,stim,false,-1,2155.0,2,0,0,15121,WMM1,942960,false,true,94,image-keyboard-response,6
true,1,1,0,2,false,d,true,false,0.0-2.0-0.0-0.6-3.6,0,0,0,90,false,stim,false,-1,2810.0,2,0,1,15121,WMM1,947276,false,false,97,image-keyboard-response,7
true,1,0,0,2,false,d,true,false,0.0-2.0-0.0-0.7-3.7,0,0,0,81,false,stim,false,-1,1894.0,2,0,1,15121,WMM1,950676,false,false,100,image-keyboard-response,8
true,1,0,0,0,true,q,false,true,0.0-2.0-0.0-0.8-3.8,0,0,0,81,false,stim,false,-1,1942.0,2,0,2,15121,WMM1,954124,false,false,103,image-keyboard-response,9
true,1,0,0,0,true,q,false,false,0.0-2.0-0.1-0.9-3.9,0,0,0,81,false,stim,false,-1,709.9999999998836,2,0,2,15121,WMM1,956340,false,true,106,image-keyboard-response,10
true,1,0,0,0,true,q,false,true,0.0-2.0-0.1-0.10-3.10,0,0,0,81,false,stim,false,-1,710.0,2,0,2,15121,WMM1,958556,false,false,109,image-keyboard-response,11
true,1,2,0,2,true,d,false,true,0.0-2.0-0.1-0.11-3.11,0,0,0,68,false,stim,false,-1,2253.0,2,0,0,15121,WMM1,962314,false,false,112,image-keyboard-response,12
true,1,0,0,0,true,q,false,true,0.0-2.0-0.1-0.12-3.12,0,0,0,81,false,stim,false,-1,2260.0,2,0,2,15121,WMM1,966080,false,false,115,image-keyboard-response,13
true,1,1,0,2,false,d,true,false,0.0-2.0-0.1-0.13-3.13,0,0,0,90,false,stim,false,-1,2502.0000000001164,2,0,1,15121,WMM1,970088,false,false,118,image-keyboard-response,14
true,1,2,0,2,true,d,false,false,0.0-2.0-0.1-0.14-3.14,0,0,0,68,false,stim,false,-1,2348.0,2,0,1,15121,WMM1,973942,false,true,121,image-keyboard-response,15
false,1,-1,0,2,false,d,false,false,0.0-2.0-0.1-0.15-3.15,0,0,0,,false,stim,true,-1,,2,0,0,15121,WMM1,978451,false,false,124,image-keyboard-response,16
true,1,2,0,2,true,d,false,false,0.0-2.0-0.1-0.16-3.16,0,0,0,68,false,stim,false,-1,548.0,2,0,0,15121,WMM1,980505,false,true,127,image-keyboard-response,17
true,1,0,0,2,false,d,true,false,0.0-2.0-0.1-0.17-3.17,0,0,0,81,false,stim,false,-1,2534.9999999998836,2,0,1,15121,WMM1,984545,false,false,130,image-keyboard-response,18
false,1,-1,0,0,false,q,false,false,0.0-2.0-0.2-0.18-3.18,0,0,0,,false,stim,true,-1,,2,0,2,15121,WMM1,989053,false,false,133,image-keyboard-response,19
true,1,0,0,0,true,q,false,false,0.0-2.0-0.2-0.19-3.19,0,0,0,81,false,stim,false,-1,1171.9999999998836,2,0,2,15121,WMM1,991730,false,true,136,image-keyboard-response,20
true,1,0,0,2,false,d,true,false,0.0-2.0-0.2-0.20-3.20,0,0,0,81,false,stim,false,-1,2459.9999999998836,2,0,0,15121,WMM1,995696,false,false,139,image-keyboard-response,21
true,1,2,0,2,true,d,false,true,0.0-2.0-0.2-0.21-3.21,0,0,0,68,false,stim,false,-1,1446.0,2,0,0,15121,WMM1,998647,false,false,142,image-keyboard-response,22
true,1,2,0,2,true,d,false,true,0.0-2.0-0.2-0.22-3.22,0,0,0,68,false,stim,false,-1,2868.0,2,0,1,15121,WMM1,1003021,false,false,145,image-keyboard-response,23
true,1,2,0,2,true,d,false,true,0.0-2.0-0.2-0.23-3.23,0,0,0,68,false,stim,false,-1,2069.0,2,0,1,15121,WMM1,1006597,false,false,148,image-keyboard-response,24
true,1,2,0,2,true,d,false,false,0.0-2.0-0.2-0.24-3.24,0,0,0,68,false,stim,false,-1,798.0,2,0,1,15121,WMM1,1008901,false,true,151,image-keyboard-response,25
true,1,2,0,2,true,d,false,true,0.0-2.0-0.2-0.25-3.25,0,0,0,68,false,stim,false,-1,1590.0,2,0,0,15121,WMM1,1011997,false,false,154,image-keyboard-response,26
true,1,2,0,0,false,q,true,true,0.0-2.0-0.2-0.26-3.26,0,0,0,68,false,stim,false,-1,1630.0,2,0,2,15121,WMM1,1015133,false,true,157,image-keyboard-response,27
true,1,2,0,2,true,d,false,true,0.0-2.0-0.3-0.27-3.27,0,0,0,68,false,stim,false,-1,1550.0,2,0,0,15121,WMM1,1018189,false,false,160,image-keyboard-response,28
true,1,2,0,0,false,q,true,false,0.0-2.0-0.3-0.28-3.28,0,0,0,68,false,stim,false,-1,517.0,2,0,2,15121,WMM1,1020213,false,false,163,image-keyboard-response,29
true,1,2,0,2,true,d,false,true,0.0-2.0-0.3-0.29-3.29,0,0,0,68,false,stim,false,-1,678.0,2,0,0,15121,WMM1,1022397,false,false,166,image-keyboard-response,30
true,1,2,0,2,true,d,false,true,0.0-2.0-0.3-0.30-3.30,0,0,0,68,false,stim,false,-1,1886.0,2,0,1,15121,WMM1,1025789,false,false,169,image-keyboard-response,31
true,1,2,0,2,true,d,false,true,0.0-2.0-0.3-0.31-3.31,0,0,0,68,false,stim,false,-1,966.9999999997672,2,0,1,15121,WMM1,1028261,false,false,172,image-keyboard-response,32
true,1,2,0,2,true,d,false,true,0.0-2.0-0.3-0.32-3.32,0,0,0,68,false,stim,false,-1,621.0000000001164,2,0,1,15121,WMM1,1030389,false,false,175,image-keyboard-response,33
true,1,2,0,0,false,q,true,true,0.0-2.0-0.3-0.33-3.33,0,0,0,68,false,stim,false,-1,957.0000000001164,2,0,2,15121,WMM1,1032853,false,true,178,image-keyboard-response,34
true,1,2,0,2,true,d,false,true,0.0-2.0-0.3-0.34-3.34,0,0,0,68,false,stim,false,-1,1368.0000000002328,2,0,0,15121,WMM1,1035725,false,false,181,image-keyboard-response,35
true,1,2,0,0,false,q,true,false,0.0-2.0-0.3-0.35-3.35,0,0,0,68,false,stim,false,-1,837.9999999998836,2,0,2,15121,WMM1,1038069,false,false,184,image-keyboard-response,36
true,1,2,0,2,true,d,false,true,0.0-2.0-0.4-0.36-3.36,0,0,0,68,false,stim,false,-1,630.0000000001164,2,0,0,15121,WMM1,1040205,false,false,187,image-keyboard-response,37
true,1,2,0,0,false,q,true,false,0.0-2.0-0.4-0.37-3.37,0,0,0,68,false,stim,false,-1,485.0000000001164,2,0,2,15121,WMM1,1042197,false,false,190,image-keyboard-response,38
true,1,2,0,2,true,d,false,true,0.0-2.0-0.4-0.38-3.38,0,0,0,68,false,stim,false,-1,1726.0000000001164,2,0,1,15121,WMM1,1045429,false,false,193,image-keyboard-response,39
true,1,2,0,2,true,d,false,true,0.0-2.0-0.4-0.39-3.39,0,0,0,68,false,stim,false,-1,1446.0000000001164,2,0,0,15121,WMM1,1048381,false,false,196,image-keyboard-response,40
true,1,1,0,0,false,q,true,false,0.0-2.0-0.4-0.40-3.40,0,0,0,90,false,stim,false,-1,1885.9999999997672,2,0,2,15121,WMM1,1051773,false,false,199,image-keyboard-response,41
true,1,2,0,2,true,d,false,false,0.0-2.0-0.4-0.41-3.41,0,0,0,68,false,stim,false,-1,1310.0000000002328,2,0,0,15121,WMM1,1054589,false,true,202,image-keyboard-response,42
true,1,0,0,0,true,q,false,true,0.0-2.0-0.4-0.42-3.42,0,0,0,81,false,stim,false,-1,2283.0,2,0,2,15121,WMM1,1058376,false,false,205,image-keyboard-response,43
true,1,2,0,2,true,d,false,true,0.0-2.0-0.4-0.43-3.43,0,0,0,68,false,stim,false,-1,2216.0,2,0,1,15121,WMM1,1062101,false,false,208,image-keyboard-response,44
true,1,2,0,2,true,d,false,true,0.0-2.0-0.4-0.44-3.44,0,0,0,68,false,stim,false,-1,1030.0,2,0,1,15121,WMM1,1064643,false,false,211,image-keyboard-response,45
true,1,2,0,2,true,d,false,true,0.0-2.0-0.5-0.45-3.45,0,0,0,68,false,stim,false,-1,2055.0,2,0,0,15121,WMM1,1068211,false,false,214,image-keyboard-response,46
true,1,0,0,0,true,q,false,true,0.0-2.0-0.5-0.46-3.46,0,0,0,81,false,stim,false,-1,1881.0,2,0,2,15121,WMM1,1071605,false,false,217,image-keyboard-response,47
true,1,2,0,2,true,d,false,true,0.0-2.0-0.5-0.47-3.47,0,0,0,68,false,stim,false,-1,1062.0,2,0,1,15121,WMM1,1074176,false,false,220,image-keyboard-response,48
true,1,2,0,2,true,d,false,true,0.0-2.0-0.5-0.48-3.48,0,0,0,68,false,stim,false,-1,718.0,2,0,1,15121,WMM1,1076403,false,false,223,image-keyboard-response,49
true,1,2,0,2,true,d,false,false,0.0-2.0-0.5-0.49-3.49,0,0,0,68,false,stim,false,-1,1590.0,2,0,0,15121,WMM1,1079502,false,true,226,image-keyboard-response,50
true,1,0,0,0,true,q,false,true,0.0-2.0-0.5-0.50-3.50,0,0,0,81,false,stim,false,-1,2377.0,2,0,2,15121,WMM1,1083388,false,false,229,image-keyboard-response,51
true,1,0,0,0,true,q,false,true,0.0-2.0-0.5-0.51-3.51,0,0,0,81,false,stim,false,-1,1654.0,2,0,2,15121,WMM1,1086550,false,false,232,image-keyboard-response,52
true,1,0,0,2,false,d,true,false,0.0-2.0-0.5-0.52-3.52,0,0,0,81,false,stim,false,-1,1261.0,2,0,0,15121,WMM1,1089320,false,false,235,image-keyboard-response,53
true,1,0,0,2,false,d,true,false,0.0-2.0-0.5-0.53-3.53,0,0,0,81,false,stim,false,-1,2570.0,2,0,1,15121,WMM1,1093397,false,false,238,image-keyboard-response,54
false,1,-1,0,2,false,d,false,false,0.0-2.0-0.6-0.54-3.54,0,0,0,,false,stim,true,-1,,2,0,0,15121,WMM1,1097906,false,false,241,image-keyboard-response,55
false,1,-1,0,2,false,d,false,false,0.0-2.0-0.6-0.55-3.55,0,0,0,,false,stim,true,-1,,2,0,0,15121,WMM1,1102414,false,false,244,image-keyboard-response,56
false,1,-1,0,0,false,q,false,false,0.0-2.0-0.6-0.56-3.56,0,0,0,,false,stim,true,-1,,2,0,2,15121,WMM1,1106925,false,false,247,image-keyboard-response,57
true,2,2,1,0,false,q,false,false,0.0-2.0-0.6-0.57-3.57,0,0,0,68,true,stim,true,2,1713.9999999997672,2,0,1,15121,WMM1,1110145,false,false,250,image-keyboard-response,1
false,2,-1,1,0,false,q,true,false,0.0-2.0-0.6-0.58-3.58,0,0,0,,false,stim,false,2,,2,0,1,15121,WMM1,1114652,false,false,253,image-keyboard-response,2
true,2,0,1,2,false,d,false,false,0.0-2.0-0.6-0.59-3.59,0,0,0,81,false,stim,true,0,2138.0,2,0,2,15121,WMM1,1118296,false,false,256,image-keyboard-response,3
true,2,1,1,0,false,q,true,false,0.0-2.0-0.6-0.60-3.60,0,0,0,90,false,stim,false,2,1861.0,2,0,1,15121,WMM1,1121662,false,false,259,image-keyboard-response,4
true,2,0,1,1,false,z,true,false,0.0-2.0-0.6-0.61-3.61,0,0,0,81,false,stim,false,2,2198.000000000233,2,0,0,15121,WMM1,1125365,false,false,262,image-keyboard-response,5
true,2,1,1,2,false,d,true,false,0.0-2.0-0.6-0.62-3.62,0,0,0,90,false,stim,false,0,2511.0,2,0,2,15121,WMM1,1129382,false,false,265,image-keyboard-response,6
true,2,1,1,1,true,z,false,true,0.0-2.0-0.7-0.63-3.63,0,0,0,90,false,stim,false,2,2053.0,2,0,0,15121,WMM1,1132941,false,false,268,image-keyboard-response,7
false,2,-1,1,2,false,d,true,false,0.0-2.0-0.7-0.64-3.64,0,0,0,,false,stim,false,0,,2,0,2,15121,WMM1,1137448,false,false,271,image-keyboard-response,8
true,2,2,1,2,true,d,false,true,0.0-2.0-0.7-0.65-3.65,0,0,0,68,false,stim,false,0,534.0,2,0,2,15121,WMM1,1139488,false,false,274,image-keyboard-response,9
true,2,2,1,2,true,d,false,true,0.0-2.0-0.7-0.66-3.66,0,0,0,68,false,stim,false,0,839.0,2,0,2,15121,WMM1,1141833,false,false,277,image-keyboard-response,10
true,2,1,1,1,true,z,false,true,0.0-2.0-0.7-0.67-3.67,0,0,0,90,false,stim,false,2,2621.0,2,0,0,15121,WMM1,1145960,false,false,280,image-keyboard-response,11
true,2,0,1,0,true,q,false,true,0.0-2.0-0.7-0.68-3.68,0,0,0,81,false,stim,false,2,2230.0,2,0,1,15121,WMM1,1149697,false,false,283,image-keyboard-response,12
true,2,0,1,0,true,q,false,true,0.0-2.0-0.7-0.69-3.69,0,0,0,81,false,stim,false,2,574.0,2,0,1,15121,WMM1,1151777,false,false,286,image-keyboard-response,13
true,2,0,1,0,true,q,false,true,0.0-2.0-0.7-0.70-3.70,0,0,0,81,false,stim,false,2,542.0,2,0,1,15121,WMM1,1153825,false,false,289,image-keyboard-response,14
true,2,1,1,1,true,z,false,true,0.0-2.0-0.7-0.71-3.71,0,0,0,90,false,stim,false,2,1898.0,2,0,0,15121,WMM1,1157230,false,false,292,image-keyboard-response,15
true,2,0,1,0,true,q,false,true,0.0-2.0-0.8-0.72-3.72,0,0,0,81,false,stim,false,2,2281.0,2,0,1,15121,WMM1,1161017,false,false,295,image-keyboard-response,16
true,2,1,1,1,true,z,false,true,0.0-2.0-0.8-0.73-3.73,0,0,0,90,false,stim,false,2,1895.0,2,0,0,15121,WMM1,1164418,false,false,298,image-keyboard-response,17
true,2,0,1,0,true,q,false,true,0.0-2.0-0.8-0.74-3.74,0,0,0,81,false,stim,false,2,2305.0,2,0,1,15121,WMM1,1168230,false,false,301,image-keyboard-response,18
true,2,2,1,2,true,d,false,true,0.0-2.0-0.8-0.75-3.75,0,0,0,68,false,stim,false,0,1637.0,2,0,2,15121,WMM1,1171374,false,false,304,image-keyboard-response,19
true,2,0,1,0,true,q,false,true,0.0-2.0-0.8-0.76-3.76,0,0,0,81,false,stim,false,2,2218.0,2,0,1,15121,WMM1,1175098,false,false,307,image-keyboard-response,20
true,2,1,1,1,true,z,false,true,0.0-2.0-0.8-0.77-3.77,0,0,0,90,false,stim,false,2,1334.0,2,0,0,15121,WMM1,1177938,false,false,310,image-keyboard-response,21
true,2,1,1,1,true,z,false,true,0.0-2.0-0.8-0.78-3.78,0,0,0,90,false,stim,false,2,803.9999999997672,2,0,0,15121,WMM1,1180249,false,false,313,image-keyboard-response,22
true,2,2,1,2,true,d,false,true,0.0-2.0-0.8-0.79-3.79,0,0,0,68,false,stim,false,0,2112.0,2,0,2,15121,WMM1,1183866,false,false,316,image-keyboard-response,23
true,2,2,1,2,true,d,false,true,0.0-2.0-0.8-0.80-3.80,0,0,0,68,false,stim,false,0,1599.0,2,0,2,15121,WMM1,1186970,false,false,319,image-keyboard-response,24
true,2,1,1,1,true,z,false,true,0.0-2.0-0.9-0.81-3.81,0,0,0,90,false,stim,false,2,1886.0,2,0,0,15121,WMM1,1190362,false,false,322,image-keyboard-response,25
true,2,2,1,2,true,d,false,true,0.0-2.0-0.9-0.82-3.82,0,0,0,68,false,stim,false,0,1886.0000000002328,2,0,2,15121,WMM1,1193754,false,false,325,image-keyboard-response,26
true,2,2,1,2,true,d,false,true,0.0-2.0-0.9-0.83-3.83,0,0,0,68,false,stim,false,0,1528.0,2,0,2,15121,WMM1,1196786,false,false,328,image-keyboard-response,27
true,2,1,1,1,true,z,false,false,0.0-2.0-0.9-0.84-3.84,0,0,0,90,false,stim,false,2,2149.999999999767,2,0,0,15121,WMM1,1200442,false,true,331,image-keyboard-response,28
false,2,-1,1,0,false,q,true,false,0.0-2.0-0.9-0.85-3.85,0,0,0,,false,stim,false,2,,2,0,1,15121,WMM1,1204948,false,false,334,image-keyboard-response,29
true,2,0,1,0,true,q,false,true,0.0-2.0-0.9-0.86-3.86,0,0,0,81,false,stim,false,2,1054.0,2,0,1,15121,WMM1,1207509,false,false,337,image-keyboard-response,30
true,3,0,1,1,false,z,false,false,0.0-2.0-0.9-0.87-3.87,0,0,0,81,true,stim,true,0,895.0,2,0,1,15121,WMM1,1209909,false,false,340,image-keyboard-response,1
true,3,2,1,0,false,q,false,true,0.0-2.0-0.9-0.88-3.88,0,0,0,68,false,stim,true,2,2022.0,2,0,2,15121,WMM1,1213437,false,true,343,image-keyboard-response,2
true,3,1,1,2,false,d,false,false,0.0-2.0-0.9-0.89-3.89,0,0,0,90,false,stim,true,1,2907.000000000233,2,0,0,15121,WMM1,1217851,false,false,346,image-keyboard-response,3
true,3,2,1,2,true,d,false,true,0.0-2.0-0.10-0.90-3.90,0,0,0,68,false,stim,false,1,2182.0,2,0,0,15121,WMM1,1221538,false,false,349,image-keyboard-response,4
true,3,0,1,1,false,z,false,false,0.0-2.0-0.10-0.91-3.91,0,0,0,81,false,stim,true,0,2949.000000000233,2,0,1,15121,WMM1,1225994,false,false,352,image-keyboard-response,5
true,3,2,1,2,true,d,false,true,0.0-2.0-0.10-0.92-3.92,0,0,0,68,false,stim,false,1,1582.0,2,0,0,15121,WMM1,1229083,false,false,355,image-keyboard-response,6
true,3,2,1,2,true,d,false,true,0.0-2.0-0.10-0.93-3.93,0,0,0,68,false,stim,false,1,734.0,2,0,0,15121,WMM1,1231323,false,false,358,image-keyboard-response,7
true,3,2,1,0,false,q,false,false,0.0-2.0-0.10-0.94-3.94,0,0,0,68,false,stim,true,2,1806.0,2,0,2,15121,WMM1,1234635,false,false,361,image-keyboard-response,8
true,3,1,1,1,true,z,false,true,0.0-2.0-0.10-0.95-3.95,0,0,0,90,false,stim,false,0,2399.0,2,0,1,15121,WMM1,1238539,false,false,364,image-keyboard-response,9
true,3,1,1,1,true,z,false,true,0.0-2.0-0.10-0.96-3.96,0,0,0,90,false,stim,false,0,2605.0,2,0,1,15121,WMM1,1242651,false,false,367,image-keyboard-response,10
true,3,1,1,0,false,q,true,false,0.0-2.0-0.10-0.97-3.97,0,0,0,90,false,stim,false,2,1758.0,2,0,2,15121,WMM1,1245915,false,false,370,image-keyboard-response,11
true,3,0,1,0,true,q,false,true,0.0-2.0-0.10-0.98-3.98,0,0,0,81,false,stim,false,2,1032.0,2,0,2,15121,WMM1,1248451,false,false,373,image-keyboard-response,12
true,3,1,1,1,true,z,false,true,0.0-2.0-0.11-0.99-3.99,0,0,0,90,false,stim,false,0,1907.0,2,0,1,15121,WMM1,1251864,false,false,376,image-keyboard-response,13
true,3,1,1,1,true,z,false,true,0.0-2.0-0.11-0.100-3.100,0,0,0,90,false,stim,false,0,1222.0000000002328,2,0,1,15121,WMM1,1254592,false,false,379,image-keyboard-response,14
true,3,1,1,1,true,z,false,true,0.0-2.0-0.11-0.101-3.101,0,0,0,90,false,stim,false,0,702.0,2,0,1,15121,WMM1,1256800,false,false,382,image-keyboard-response,15
true,3,2,1,2,true,d,false,true,0.0-2.0-0.11-0.102-3.102,0,0,0,68,false,stim,false,1,1606.0,2,0,0,15121,WMM1,1259912,false,false,385,image-keyboard-response,16
true,3,0,1,0,true,q,false,true,0.0-2.0-0.11-0.103-3.103,0,0,0,81,false,stim,false,2,2396.0,2,0,2,15121,WMM1,1263816,false,false,388,image-keyboard-response,17
true,3,2,1,2,true,d,false,true,0.0-2.0-0.11-0.104-3.104,0,0,0,68,false,stim,false,1,1462.0000000002328,2,0,0,15121,WMM1,1266784,false,false,391,image-keyboard-response,18
true,3,0,1,0,true,q,false,true,0.0-2.0-0.11-0.105-3.105,0,0,0,81,false,stim,false,2,1782.0,2,0,2,15121,WMM1,1270072,false,false,394,image-keyboard-response,19
true,3,2,1,2,true,d,false,true,0.0-2.0-0.11-0.106-3.106,0,0,0,68,false,stim,false,1,1654.0,2,0,0,15121,WMM1,1273232,false,false,397,image-keyboard-response,20
true,3,0,1,0,true,q,false,true,0.0-2.0-0.11-0.107-3.107,0,0,0,81,false,stim,false,2,2213.0,2,0,2,15121,WMM1,1276951,false,false,400,image-keyboard-response,21
true,3,2,1,2,true,d,false,true,0.0-2.0-0.12-0.108-3.108,0,0,0,68,false,stim,false,1,2289.999999999767,2,0,0,15121,WMM1,1280747,false,false,403,image-keyboard-response,22
true,3,2,1,2,true,d,false,true,0.0-2.0-0.12-0.109-3.109,0,0,0,68,false,stim,false,1,1334.0,2,0,0,15121,WMM1,1283587,false,false,406,image-keyboard-response,23
true,3,0,1,0,true,q,false,false,0.0-2.0-0.12-0.110-3.110,0,0,0,81,false,stim,false,2,2357.999999999767,2,0,2,15121,WMM1,1287450,false,true,409,image-keyboard-response,24
true,3,1,1,1,true,z,false,true,0.0-2.0-0.12-0.111-3.111,0,0,0,90,false,stim,false,0,2289.999999999767,2,0,1,15121,WMM1,1291247,false,false,412,image-keyboard-response,25
true,3,0,1,0,true,q,false,true,0.0-2.0-0.12-0.112-3.112,0,0,0,81,false,stim,false,2,2047.0,2,0,2,15121,WMM1,1294799,false,false,415,image-keyboard-response,26
true,3,2,1,2,true,d,false,true,0.0-2.0-0.12-0.113-3.113,0,0,0,68,false,stim,false,1,2130.0,2,0,0,15121,WMM1,1298436,false,false,418,image-keyboard-response,27
true,3,1,1,1,true,z,false,true,0.0-2.0-0.12-0.114-3.114,0,0,0,90,false,stim,false,0,2150.0,2,0,1,15121,WMM1,1302092,false,false,421,image-keyboard-response,28
true,3,0,1,0,true,q,false,true,0.0-2.0-0.12-0.115-3.115,0,0,0,81,false,stim,false,2,2022.0,2,0,2,15121,WMM1,1305620,false,false,424,image-keyboard-response,29
true,3,1,1,1,true,z,false,true,0.0-2.0-0.12-0.116-3.116,0,0,0,90,false,stim,false,0,2261.0,2,0,1,15121,WMM1,1309388,false,false,427,image-keyboard-response,30
true,4,0,2,2,false,d,false,true,0.0-2.0-0.13-0.117-3.117,0,0,0,81,true,stim,true,0,1701.0,2,0,2,15121,WMM1,1312596,false,true,430,image-keyboard-response,1
true,4,2,2,1,false,z,false,false,0.0-2.0-0.13-0.118-3.118,0,0,0,68,false,stim,true,2,1446.0,2,0,0,15121,WMM1,1315549,false,false,433,image-keyboard-response,2
true,4,1,2,0,false,q,false,false,0.0-2.0-0.13-0.119-3.119,0,0,0,90,false,stim,true,1,1931.0,2,0,1,15121,WMM1,1318985,false,false,436,image-keyboard-response,3
true,4,1,2,2,false,d,true,false,0.0-2.0-0.13-0.120-3.120,0,0,0,90,false,stim,false,0,2951.0,2,0,2,15121,WMM1,1323441,false,false,439,image-keyboard-response,4
true,4,1,2,1,true,z,false,true,0.0-2.0-0.13-0.121-3.121,0,0,0,90,false,stim,false,2,1079.0,2,0,0,15121,WMM1,1326025,false,false,442,image-keyboard-response,5
true,4,2,2,2,true,d,false,true,0.0-2.0-0.13-0.122-3.122,0,0,0,68,false,stim,false,0,1812.0,2,0,2,15121,WMM1,1329345,false,false,445,image-keyboard-response,6
true,4,1,2,1,true,z,false,true,0.0-2.0-0.13-0.123-3.123,0,0,0,90,false,stim,false,2,2787.0,2,0,0,15121,WMM1,1333638,false,false,448,image-keyboard-response,7
true,4,2,2,0,false,q,true,true,0.0-2.0-0.13-0.124-3.124,0,0,0,68,false,stim,false,1,1958.0,2,0,1,15121,WMM1,1337102,false,true,451,image-keyboard-response,8
true,4,2,2,0,false,q,true,false,0.0-2.0-0.13-0.125-3.125,0,0,0,68,false,stim,false,1,1342.0000000002328,2,0,1,15121,WMM1,1339950,false,false,454,image-keyboard-response,9
true,4,2,2,2,true,d,false,true,0.0-2.0-0.14-0.126-3.126,0,0,0,68,false,stim,false,0,1790.0,2,0,2,15121,WMM1,1343246,false,false,457,image-keyboard-response,10
true,4,1,2,1,true,z,false,true,0.0-2.0-0.14-0.127-3.127,0,0,0,90,false,stim,false,2,2107.0,2,0,0,15121,WMM1,1346859,false,false,460,image-keyboard-response,11
true,4,1,2,1,true,z,false,true,0.0-2.0-0.14-0.128-3.128,0,0,0,90,false,stim,false,2,685.0,2,0,0,15121,WMM1,1349051,false,false,463,image-keyboard-response,12
true,4,2,2,2,true,d,false,false,0.0-2.0-0.14-0.129-3.129,0,0,0,68,false,stim,false,0,1077.0,2,0,2,15121,WMM1,1351635,false,true,466,image-keyboard-response,13
true,4,2,2,0,false,q,true,false,0.0-2.0-0.14-0.130-3.130,0,0,0,68,false,stim,false,1,950.0,2,0,1,15121,WMM1,1354091,false,false,469,image-keyboard-response,14
true,4,2,2,0,false,q,true,false,0.0-2.0-0.14-0.131-3.131,0,0,0,68,false,stim,false,1,916.0,2,0,1,15121,WMM1,1356515,false,false,472,image-keyboard-response,15
true,4,1,2,1,true,z,false,true,0.0-2.0-0.14-0.132-3.132,0,0,0,90,false,stim,false,2,2880.0,2,0,0,15121,WMM1,1360902,false,false,475,image-keyboard-response,16
true,4,0,2,0,true,q,false,true,0.0-2.0-0.14-0.133-3.133,0,0,0,81,false,stim,false,1,2094.0,2,0,1,15121,WMM1,1364502,false,false,478,image-keyboard-response,17
true,4,0,2,2,false,d,false,false,0.0-2.0-0.14-0.134-3.134,0,0,0,81,false,stim,true,0,1159.0,2,0,2,15121,WMM1,1367166,false,false,481,image-keyboard-response,18
true,4,1,2,2,false,d,true,false,0.0-2.0-0.15-0.135-3.135,0,0,0,90,false,stim,false,0,2054.999999999767,2,0,2,15121,WMM1,1370728,false,false,484,image-keyboard-response,19
true,4,1,2,1,true,z,false,true,0.0-2.0-0.15-0.136-3.136,0,0,0,90,false,stim,false,2,1853.0,2,0,0,15121,WMM1,1374086,false,false,487,image-keyboard-response,20
true,4,1,2,1,true,z,false,true,0.0-2.0-0.15-0.137-3.137,0,0,0,90,false,stim,false,2,894.0,2,0,0,15121,WMM1,1376486,false,false,490,image-keyboard-response,21
true,4,2,2,2,true,d,false,true,0.0-2.0-0.15-0.138-3.138,0,0,0,68,false,stim,false,0,1999.0,2,0,2,15121,WMM1,1379992,false,false,493,image-keyboard-response,22
true,4,2,2,2,true,d,false,true,0.0-2.0-0.15-0.139-3.139,0,0,0,68,false,stim,false,0,580.0,2,0,2,15121,WMM1,1382078,false,false,496,image-keyboard-response,23
true,4,0,2,0,true,q,false,true,0.0-2.0-0.15-0.140-3.140,0,0,0,81,false,stim,false,1,1549.0000000002328,2,0,1,15121,WMM1,1385133,false,false,499,image-keyboard-response,24
true,4,0,2,0,true,q,false,true,0.0-2.0-0.15-0.141-3.141,0,0,0,81,false,stim,false,1,850.9999999997672,2,0,1,15121,WMM1,1387494,false,false,502,image-keyboard-response,25
true,4,1,2,1,true,z,false,true,0.0-2.0-0.15-0.142-3.142,0,0,0,90,false,stim,false,2,1750.0,2,1,0,15121,WMM1,1390750,false,false,505,image-keyboard-response,26
true,4,0,2,0,true,q,false,true,0.0-2.0-0.15-0.143-3.143,0,0,0,81,false,stim,false,1,2238.0,2,0,1,15121,WMM1,1394495,false,false,508,image-keyboard-response,27
true,4,0,2,0,true,q,false,true,0.0-2.0-0.16-0.144-3.144,0,0,0,81,false,stim,false,1,1324.0000000002328,2,0,1,15121,WMM1,1397327,false,false,511,image-keyboard-response,28
true,4,1,2,1,true,z,false,true,0.0-2.0-0.16-0.145-3.145,0,0,0,90,false,stim,false,2,2007.0,2,1,0,15121,WMM1,1400839,false,false,514,image-keyboard-response,29
true,4,2,2,2,true,d,false,true,0.0-2.0-0.16-0.146-3.146,0,0,0,68,false,stim,false,0,1950.0,2,0,2,15121,WMM1,1404295,false,false,517,image-keyboard-response,30
true,4,2,2,2,true,d,false,true,0.0-2.0-0.16-0.147-3.147,0,0,0,68,false,stim,false,0,1142.0,2,0,2,15121,WMM1,1406943,false,false,520,image-keyboard-response,31
true,4,1,2,1,true,z,false,true,0.0-2.0-0.16-0.148-3.148,0,0,0,90,false,stim,false,2,2294.0,2,1,0,15121,WMM1,1410744,false,false,523,image-keyboard-response,32
true,4,1,2,1,true,z,false,true,0.0-2.0-0.16-0.149-3.149,0,0,0,90,false,stim,false,2,637.9999999997672,2,1,0,15121,WMM1,1412888,false,false,526,image-keyboard-response,33
true,4,0,2,0,true,q,false,true,0.0-2.0-0.16-0.150-3.150,0,0,0,81,false,stim,false,1,2414.0,2,0,1,15121,WMM1,1416809,false,false,529,image-keyboard-response,34
true,5,0,3,1,false,z,false,false,0.0-2.0-0.16-0.151-3.151,1,0,0,81,true,stim,true,0,550.0,2,0,1,15121,WMM1,1418864,false,false,532,image-keyboard-response,1
true,5,2,3,0,false,q,false,false,0.0-2.0-0.16-0.152-3.152,1,0,0,68,false,stim,true,2,1829.0,2,0,2,15121,WMM1,1422201,false,false,535,image-keyboard-response,2
false,5,-1,3,0,false,q,true,false,0.0-2.0-0.17-0.153-3.153,1,0,0,,false,stim,false,2,,2,0,2,15121,WMM1,1426708,false,false,538,image-keyboard-response,3
true,5,0,3,1,false,z,true,false,0.0-2.0-0.17-0.154-3.154,1,0,0,81,false,stim,false,1,1350.0,2,1,0,15121,WMM1,1429564,false,false,541,image-keyboard-response,4
true,5,0,3,1,false,z,false,false,0.0-2.0-0.17-0.155-3.155,1,0,0,81,false,stim,true,0,1328.0,2,0,1,15121,WMM1,1432398,false,false,544,image-keyboard-response,5
true,5,1,3,1,true,z,false,true,0.0-2.0-0.17-0.156-3.156,1,0,0,90,false,stim,false,1,1747.9999999997672,2,1,0,15121,WMM1,1435653,false,false,547,image-keyboard-response,6
true,5,1,3,0,false,q,true,false,0.0-2.0-0.17-0.157-3.157,1,0,0,90,false,stim,false,2,1270.0,2,0,2,15121,WMM1,1438429,false,false,550,image-keyboard-response,7
true,5,1,3,1,true,z,false,true,0.0-2.0-0.17-0.158-3.158,1,0,0,90,false,stim,false,0,1946.9999999997672,2,0,1,15121,WMM1,1441881,false,false,553,image-keyboard-response,8
true,5,0,3,0,true,q,false,true,0.0-2.0-0.17-0.159-3.159,1,0,0,81,false,stim,false,2,2234.999999999767,2,0,2,15121,WMM1,1445621,false,false,556,image-keyboard-response,9
true,5,1,3,1,true,z,false,true,0.0-2.0-0.17-0.160-3.160,1,0,0,90,false,stim,false,0,1693.0,2,0,1,15121,WMM1,1448822,false,false,559,image-keyboard-response,10
true,5,1,3,1,true,z,false,true,0.0-2.0-0.17-0.161-3.161,1,0,0,90,false,stim,false,1,1804.9999999997672,2,1,0,15121,WMM1,1452134,false,false,562,image-keyboard-response,11
true,5,1,3,1,true,z,false,true,0.0-2.0-0.18-0.162-3.162,1,0,0,90,false,stim,false,0,1949.0,2,0,1,15121,WMM1,1455590,false,false,565,image-keyboard-response,12
true,5,1,3,1,true,z,false,true,0.0-2.0-0.18-0.163-3.163,1,0,0,90,false,stim,false,0,1045.0,2,0,1,15121,WMM1,1458142,false,false,568,image-keyboard-response,13
true,5,1,3,1,true,z,false,true,0.0-2.0-0.18-0.164-3.164,1,0,0,90,false,stim,false,1,1957.0,2,1,0,15121,WMM1,1461606,false,false,571,image-keyboard-response,14
true,5,1,3,1,true,z,false,true,0.0-2.0-0.18-0.165-3.165,1,0,0,90,false,stim,false,0,1134.0,2,0,1,15121,WMM1,1464246,false,false,574,image-keyboard-response,15
true,5,0,3,0,true,q,false,true,0.0-2.0-0.18-0.166-3.166,1,0,0,81,false,stim,false,2,1069.9999999997672,2,0,2,15121,WMM1,1466822,false,false,577,image-keyboard-response,16
true,5,1,3,1,true,z,false,true,0.0-2.0-0.18-0.167-3.167,1,0,0,90,false,stim,false,1,1992.0,2,1,0,15121,WMM1,1470320,false,false,580,image-keyboard-response,17
true,5,0,3,0,true,q,false,true,0.0-2.0-0.18-0.168-3.168,1,0,0,81,false,stim,false,2,1975.0,2,0,2,15121,WMM1,1473802,false,false,583,image-keyboard-response,18
true,5,0,3,1,false,z,true,false,0.0-2.0-0.18-0.169-3.169,1,0,0,81,false,stim,false,1,2223.000000000233,2,1,0,15121,WMM1,1477531,false,false,586,image-keyboard-response,19
true,5,0,3,0,true,q,false,true,0.0-2.0-0.18-0.170-3.170,1,0,0,81,false,stim,false,2,1923.0,2,0,2,15121,WMM1,1480959,false,false,589,image-keyboard-response,20
true,5,0,3,0,true,q,false,true,0.0-2.0-0.19-0.171-3.171,1,0,0,81,false,stim,false,2,780.0,2,0,2,15121,WMM1,1483248,false,false,592,image-keyboard-response,21
true,5,1,3,1,true,z,false,true,0.0-2.0-0.19-0.172-3.172,1,0,0,90,false,stim,false,1,2352.0,2,1,0,15121,WMM1,1487107,false,false,595,image-keyboard-response,22
true,5,1,3,1,true,z,false,true,0.0-2.0-0.19-0.173-3.173,1,0,0,90,false,stim,false,1,1223.0,2,1,0,15121,WMM1,1489836,false,false,598,image-keyboard-response,23
true,5,1,3,1,true,z,false,true,0.0-2.0-0.19-0.174-3.174,1,0,0,90,false,stim,false,0,2233.000000000233,2,0,1,15121,WMM1,1493580,false,false,601,image-keyboard-response,24
true,5,1,3,1,true,z,false,true,0.0-2.0-0.19-0.175-3.175,1,0,0,90,false,stim,false,0,773.0,2,0,1,15121,WMM1,1495860,false,false,604,image-keyboard-response,25
true,5,0,3,0,true,q,false,true,0.0-2.0-0.19-0.176-3.176,1,0,0,81,false,stim,false,2,1885.0,2,0,2,15121,WMM1,1499252,false,false,607,image-keyboard-response,26
true,5,0,3,0,true,q,false,true,0.0-2.0-0.19-0.177-3.177,1,0,0,81,false,stim,false,2,1406.0,2,0,2,15121,WMM1,1502164,false,false,610,image-keyboard-response,27
true,5,1,3,1,true,z,false,false,0.0-2.0-0.19-0.178-3.178,1,0,0,90,false,stim,false,0,1637.0,2,0,1,15121,WMM1,1505308,false,true,613,image-keyboard-response,28
true,5,1,3,1,true,z,false,true,0.0-2.0-0.19-0.179-3.179,1,0,0,90,false,stim,false,1,1910.0000000002328,2,0,0,15121,WMM1,1508724,false,false,616,image-keyboard-response,29
true,5,1,3,1,true,z,false,true,0.0-2.0-0.20-0.180-3.180,1,0,0,90,false,stim,false,0,1685.0000000002328,2,0,1,15121,WMM1,1511916,false,false,619,image-keyboard-response,30
true,5,1,3,1,true,z,false,true,0.0-2.0-0.20-0.181-3.181,1,0,0,90,false,stim,false,1,1054.0,2,0,0,15121,WMM1,1514476,false,false,622,image-keyboard-response,31
true,5,0,3,0,true,q,false,true,0.0-2.0-0.20-0.182-3.182,1,0,0,81,false,stim,false,2,1918.0,2,0,2,15121,WMM1,1517901,false,false,625,image-keyboard-response,32
true,5,0,3,0,true,q,false,true,0.0-2.0-0.20-0.183-3.183,1,0,0,81,false,stim,false,2,1140.9999999997672,2,0,2,15121,WMM1,1520549,false,false,628,image-keyboard-response,33
true,6,1,4,2,false,d,false,false,0.0-2.0-0.20-0.184-3.184,0,0,0,90,true,stim,true,1,1711.0,2,0,1,15121,WMM1,1523765,false,false,631,image-keyboard-response,1
true,6,0,4,1,false,z,false,false,0.0-2.0-0.20-0.185-3.185,0,0,0,81,false,stim,true,0,1688.0,2,0,2,15121,WMM1,1526957,false,false,634,image-keyboard-response,2
false,6,-1,4,2,false,d,true,false,0.0-2.0-0.20-0.186-3.186,0,0,0,,false,stim,false,1,,2,0,1,15121,WMM1,1531464,false,false,637,image-keyboard-response,3
true,6,0,4,0,true,q,false,false,0.0-2.0-0.20-0.187-3.187,0,0,0,81,false,stim,false,1,1762.0000000002328,2,0,0,15121,WMM1,1534734,false,true,640,image-keyboard-response,4
true,6,1,4,0,false,q,false,false,0.0-2.0-0.20-0.188-3.188,0,0,0,90,false,stim,true,1,1566.0,2,0,0,15121,WMM1,1537806,false,false,643,image-keyboard-response,5
true,6,0,4,1,false,z,false,false,0.0-2.0-0.21-0.189-3.189,0,0,0,81,false,stim,true,0,1773.9999999997672,2,0,2,15121,WMM1,1541086,false,false,646,image-keyboard-response,6
true,6,0,4,2,false,d,true,false,0.0-2.0-0.21-0.190-3.190,0,0,0,81,false,stim,false,1,1389.0,2,0,1,15121,WMM1,1543982,false,false,649,image-keyboard-response,7
true,6,2,4,2,true,d,false,true,0.0-2.0-0.21-0.191-3.191,0,0,0,68,false,stim,false,1,1407.0,2,0,1,15121,WMM1,1546896,false,false,652,image-keyboard-response,8
true,6,2,4,0,false,q,true,false,0.0-2.0-0.21-0.192-3.192,0,0,0,68,false,stim,false,1,1548.0,2,0,0,15121,WMM1,1549950,false,false,655,image-keyboard-response,9
true,6,2,4,2,true,d,false,true,0.0-2.0-0.21-0.193-3.193,0,0,0,68,false,stim,false,1,1853.9999999997672,2,0,1,15121,WMM1,1553311,false,false,658,image-keyboard-response,10
true,6,2,4,1,false,z,true,false,0.0-2.0-0.21-0.194-3.194,0,0,0,68,false,stim,false,0,1053.0,2,0,2,15121,WMM1,1555871,false,false,661,image-keyboard-response,11
true,6,2,4,0,false,q,true,false,0.0-2.0-0.21-0.195-3.195,0,0,0,68,false,stim,false,1,1480.0,2,0,0,15121,WMM1,1558856,false,false,664,image-keyboard-response,12
false,6,-1,4,1,false,z,true,true,0.0-2.0-0.21-0.196-3.196,0,0,0,,false,stim,false,0,,2,0,2,15121,WMM1,1563364,false,true,667,image-keyboard-response,13
true,6,0,4,0,true,q,false,true,0.0-2.0-0.21-0.197-3.197,0,0,0,81,false,stim,false,1,2435.999999999767,2,0,0,15121,WMM1,1567306,false,false,670,image-keyboard-response,14
true,6,2,4,2,true,d,false,true,0.0-2.0-0.22-0.198-3.198,0,0,0,68,false,stim,false,1,1957.9999999997672,2,0,1,15121,WMM1,1570770,false,false,673,image-keyboard-response,15
true,6,1,4,1,true,z,false,true,0.0-2.0-0.22-0.199-3.199,0,0,0,90,false,stim,false,0,1077.0,2,0,2,15121,WMM1,1573354,false,false,676,image-keyboard-response,16
true,6,1,4,1,true,z,false,false,0.0-2.0-0.22-0.200-3.200,0,0,0,90,false,stim,false,0,919.0,2,0,2,15121,WMM1,1575778,false,true,679,image-keyboard-response,17
true,6,2,4,2,true,d,false,true,0.0-2.0-0.22-0.201-3.201,0,0,0,68,false,stim,false,1,1541.9999999997672,2,0,1,15121,WMM1,1578826,false,false,682,image-keyboard-response,18
true,6,0,4,0,true,q,false,true,0.0-2.0-0.22-0.202-3.202,0,0,0,81,false,stim,false,1,1597.9999999997672,2,0,0,15121,WMM1,1581930,false,false,685,image-keyboard-response,19
true,6,1,4,1,true,z,false,true,0.0-2.0-0.22-0.203-3.203,0,0,0,90,false,stim,false,0,1079.0000000002328,2,0,2,15121,WMM1,1584516,false,false,688,image-keyboard-response,20
true,6,0,4,0,true,q,false,true,0.0-2.0-0.22-0.204-3.204,0,0,0,81,false,stim,false,1,2098.000000000233,2,0,0,15121,WMM1,1588121,false,false,691,image-keyboard-response,21
true,6,0,4,0,true,q,false,true,0.0-2.0-0.22-0.205-3.205,0,0,0,81,false,stim,false,1,710.0,2,0,0,15121,WMM1,1590337,false,false,694,image-keyboard-response,22
true,6,2,4,2,true,d,false,true,0.0-2.0-0.22-0.206-3.206,0,0,0,68,false,stim,false,1,1997.0,2,0,1,15121,WMM1,1593841,false,false,697,image-keyboard-response,23
true,6,2,4,0,false,q,true,false,0.0-2.0-0.23-0.207-3.207,0,0,0,68,false,stim,false,1,605.0,2,0,0,15121,WMM1,1595953,false,false,700,image-keyboard-response,24
true,6,2,4,2,true,d,false,true,0.0-2.0-0.23-0.208-3.208,0,0,0,68,false,stim,false,1,2001.0,2,0,1,15121,WMM1,1599465,false,false,703,image-keyboard-response,25
true,6,1,4,1,true,z,false,false,0.0-2.0-0.23-0.209-3.209,0,0,0,90,false,stim,false,0,1710.0,2,0,2,15121,WMM1,1602681,false,true,706,image-keyboard-response,26
true,6,2,4,2,true,d,false,true,0.0-2.0-0.23-0.210-3.210,0,0,0,68,false,stim,false,1,1582.0,2,0,1,15121,WMM1,1605769,false,false,709,image-keyboard-response,27
true,6,1,4,1,true,z,false,false,0.0-2.0-0.23-0.211-3.211,0,0,0,90,false,stim,false,0,1181.9999999997672,2,0,2,15121,WMM1,1608457,false,true,712,image-keyboard-response,28
true,6,0,4,1,false,z,false,false,0.0-2.0-0.23-0.212-3.212,0,0,0,81,false,stim,true,0,2485.0,2,0,2,15121,WMM1,1612450,false,false,715,image-keyboard-response,29
true,6,0,4,0,true,q,false,true,0.0-2.0-0.23-0.213-3.213,0,0,0,81,false,stim,false,1,1845.0,2,0,0,15121,WMM1,1615801,false,false,718,image-keyboard-response,30
true,7,2,2,0,false,q,false,true,0.0-2.0-0.23-0.214-3.214,0,0,0,68,true,stim,true,2,1086.0,2,0,1,15121,WMM1,1618394,false,true,721,image-keyboard-response,1
true,7,2,2,1,false,z,true,false,0.0-2.0-0.23-0.215-3.215,0,0,0,68,false,stim,false,0,1319.0,2,0,0,15121,WMM1,1621219,false,false,724,image-keyboard-response,2
true,7,0,2,1,false,z,false,false,0.0-2.0-0.24-0.216-3.216,0,0,0,81,false,stim,true,0,2216.0,2,0,0,15121,WMM1,1624942,false,false,727,image-keyboard-response,3
true,7,0,2,0,true,q,false,true,0.0-2.0-0.24-0.217-3.217,0,0,0,81,false,stim,false,2,1886.0000000002328,2,0,1,15121,WMM1,1628333,false,false,730,image-keyboard-response,4
false,7,-1,2,2,false,d,true,false,0.0-2.0-0.24-0.218-3.218,0,0,0,,false,stim,false,1,,2,0,2,15121,WMM1,1632841,false,false,733,image-keyboard-response,5
true,7,0,2,1,false,z,false,false,0.0-2.0-0.24-0.219-3.219,0,0,0,81,false,stim,true,0,1444.0,2,0,0,15121,WMM1,1635792,false,false,736,image-keyboard-response,6
true,7,0,2,0,true,q,false,true,0.0-2.0-0.24-0.220-3.220,0,0,0,81,false,stim,false,2,2529.0,2,0,1,15121,WMM1,1639827,false,false,739,image-keyboard-response,7
true,7,0,2,2,false,d,true,false,0.0-2.0-0.24-0.221-3.221,0,0,0,81,false,stim,false,1,1813.0,2,0,2,15121,WMM1,1643147,false,false,742,image-keyboard-response,8
false,7,-1,2,1,false,z,true,false,0.0-2.0-0.24-0.222-3.222,0,0,0,,false,stim,false,0,,2,0,0,15121,WMM1,1647653,false,false,745,image-keyboard-response,9
true,7,1,2,2,false,d,false,false,0.0-2.0-0.24-0.223-3.223,0,0,0,90,false,stim,true,1,2209.0,2,0,2,15121,WMM1,1651369,false,false,748,image-keyboard-response,10
true,7,1,2,0,false,q,true,false,0.0-2.0-0.24-0.224-3.224,0,0,0,90,false,stim,false,2,1452.0,2,0,1,15121,WMM1,1654327,false,false,751,image-keyboard-response,11
true,7,2,2,1,false,z,true,false,0.0-2.0-0.25-0.225-3.225,0,0,0,68,false,stim,false,0,2038.0,2,0,0,15121,WMM1,1657871,false,false,754,image-keyboard-response,12
true,7,2,2,1,false,z,true,false,0.0-2.0-0.25-0.226-3.226,0,0,0,68,false,stim,false,0,1006.0,2,0,0,15121,WMM1,1660383,false,false,757,image-keyboard-response,13
false,7,-1,2,2,false,d,true,false,0.0-2.0-0.25-0.227-3.227,0,0,0,,false,stim,false,1,,2,0,2,15121,WMM1,1664891,false,false,760,image-keyboard-response,14
true,7,2,2,2,true,d,false,true,0.0-2.0-0.25-0.228-3.228,0,0,0,68,false,stim,false,1,608.0,2,0,2,15121,WMM1,1667005,false,false,763,image-keyboard-response,15
true,7,2,2,2,true,d,false,true,0.0-2.0-0.25-0.229-3.229,0,0,0,68,false,stim,false,1,1653.0,2,0,2,15121,WMM1,1670164,false,false,766,image-keyboard-response,16
true,7,0,2,1,false,z,false,false,0.0-2.0-0.25-0.230-3.230,0,0,0,81,false,stim,true,0,2240.0,2,0,0,15121,WMM1,1673910,false,false,769,image-keyboard-response,17
true,7,1,2,0,false,q,true,false,0.0-2.0-0.25-0.231-3.231,0,0,0,90,false,stim,false,2,2046.0,2,0,1,15121,WMM1,1677464,false,false,772,image-keyboard-response,18
true,7,0,2,0,true,q,false,false,0.0-2.0-0.25-0.232-3.232,0,0,0,81,false,stim,false,2,1716.9999999997672,2,0,1,15121,WMM1,1680686,false,true,775,image-keyboard-response,19
true,7,2,2,0,false,q,false,false,0.0-2.0-0.25-0.233-3.233,0,0,0,68,false,stim,true,2,2345.000000000233,2,0,1,15121,WMM1,1684538,false,false,778,image-keyboard-response,20
true,7,2,2,1,false,z,true,false,0.0-2.0-0.26-0.234-3.234,0,0,0,68,false,stim,false,0,1941.0,2,0,0,15121,WMM1,1687986,false,false,781,image-keyboard-response,21
true,7,2,2,0,false,q,false,false,0.0-2.0-0.26-0.235-3.235,0,0,0,68,false,stim,true,2,1430.0,2,0,1,15121,WMM1,1690924,false,false,784,image-keyboard-response,22
true,7,0,2,2,false,d,true,false,0.0-2.0-0.26-0.236-3.236,0,0,0,81,false,stim,false,1,1603.0,2,0,2,15121,WMM1,1694034,false,false,787,image-keyboard-response,23
true,7,0,2,1,false,z,false,false,0.0-2.0-0.26-0.237-3.237,0,0,0,81,false,stim,true,0,2884.0,2,0,0,15121,WMM1,1698424,false,false,790,image-keyboard-response,24
true,7,2,2,2,true,d,false,true,0.0-2.0-0.26-0.238-3.238,0,0,0,68,false,stim,false,1,1612.0,2,0,2,15121,WMM1,1701544,false,false,793,image-keyboard-response,25
true,7,1,2,0,false,q,true,false,0.0-2.0-0.26-0.239-3.239,0,0,0,90,false,stim,false,2,2225.0,2,0,1,15121,WMM1,1705277,false,false,796,image-keyboard-response,26
true,7,2,2,0,false,q,false,false,0.0-2.0-0.26-0.240-3.240,0,0,0,68,false,stim,true,2,1398.0000000002328,2,0,1,15121,WMM1,1708182,false,false,799,image-keyboard-response,27
true,7,2,2,2,true,d,false,true,0.0-2.0-0.26-0.241-3.241,0,0,0,68,false,stim,false,1,2617.0,2,0,2,15121,WMM1,1712311,false,false,802,image-keyboard-response,28
true,7,1,2,1,true,z,false,true,0.0-2.0-0.26-0.242-3.242,0,0,0,90,false,stim,false,0,2208.999999999767,2,0,0,15121,WMM1,1716026,false,false,805,image-keyboard-response,29
true,7,2,2,2,true,d,false,true,0.0-2.0-0.27-0.243-3.243,0,0,0,68,false,stim,false,1,2319.0,2,0,2,15121,WMM1,1719852,false,false,808,image-keyboard-response,30
true,7,1,2,1,true,z,false,true,0.0-2.0-0.27-0.244-3.244,0,0,0,90,false,stim,false,0,2176.0,2,0,0,15121,WMM1,1723535,false,false,811,image-keyboard-response,31
true,7,2,2,2,true,d,false,true,0.0-2.0-0.27-0.245-3.245,0,0,0,68,false,stim,false,1,1453.0,2,0,2,15121,WMM1,1726495,false,false,814,image-keyboard-response,32
true,7,1,2,1,true,z,false,true,0.0-2.0-0.27-0.246-3.246,0,0,0,90,false,stim,false,0,2523.0,2,0,0,15121,WMM1,1730524,false,false,817,image-keyboard-response,33
true,7,2,2,2,true,d,false,true,0.0-2.0-0.27-0.247-3.247,0,0,0,68,false,stim,false,1,2166.0,2,0,2,15121,WMM1,1734198,false,false,820,image-keyboard-response,34
true,7,0,2,0,true,q,false,true,0.0-2.0-0.27-0.248-3.248,0,0,0,81,false,stim,false,2,1845.0,2,0,1,15121,WMM1,1737550,false,false,823,image-keyboard-response,35
true,7,0,2,0,true,q,false,true,0.0-2.0-0.27-0.249-3.249,0,0,0,81,false,stim,false,2,846.0,2,0,1,15121,WMM1,1739902,false,false,826,image-keyboard-response,36
true,7,1,2,1,true,z,false,true,0.0-2.0-0.27-0.250-3.250,0,0,0,90,false,stim,false,0,2200.0,2,0,0,15121,WMM1,1743609,false,false,829,image-keyboard-response,37
true,7,0,2,0,true,q,false,true,0.0-2.0-0.27-0.251-3.251,0,0,0,81,false,stim,false,2,2237.999999999767,2,0,1,15121,WMM1,1747354,false,false,832,image-keyboard-response,38
true,7,1,2,1,true,z,false,true,0.0-2.0-0.28-0.252-3.252,0,0,0,90,false,stim,false,0,1989.0,2,0,0,15121,WMM1,1750850,false,false,835,image-keyboard-response,39
true,7,2,2,2,true,d,false,true,0.0-2.0-0.28-0.253-3.253,0,0,0,68,false,stim,false,1,2404.0,2,0,2,15121,WMM1,1754762,false,false,838,image-keyboard-response,40
true,7,1,2,1,true,z,false,true,0.0-2.0-0.28-0.254-3.254,0,0,0,90,false,stim,false,0,2582.0,2,0,0,15121,WMM1,1758850,false,false,841,image-keyboard-response,41
true,7,1,2,1,true,z,false,true,0.0-2.0-0.28-0.255-3.255,0,0,0,90,false,stim,false,0,637.9999999997672,2,0,0,15121,WMM1,1760994,false,false,844,image-keyboard-response,42
true,7,2,2,2,true,d,false,true,0.0-2.0-0.28-0.256-3.256,0,0,0,68,false,stim,false,1,2742.999999999767,2,0,2,15121,WMM1,1765244,false,false,847,image-keyboard-response,43
true,7,0,2,0,true,q,false,true,0.0-2.0-0.28-0.257-3.257,0,0,0,81,false,stim,false,2,1867.9999999997672,2,0,1,15121,WMM1,1768619,false,false,850,image-keyboard-response,44
true,7,0,2,0,true,q,false,true,0.0-2.0-0.28-0.258-3.258,0,0,0,81,false,stim,false,2,1398.0,2,0,1,15121,WMM1,1771523,false,false,853,image-keyboard-response,45
true,7,2,2,2,true,d,false,true,0.0-2.0-0.28-0.259-3.259,0,0,0,68,false,stim,false,1,1654.0,2,0,2,15121,WMM1,1774683,false,false,856,image-keyboard-response,46
true,8,2,1,1,false,z,true,false,0.0-2.0-0.28-0.260-3.260,0,0,0,68,true,stim,false,0,2158.000000000233,2,0,1,15121,WMM1,1778348,false,false,859,image-keyboard-response,1
true,8,2,1,1,false,z,false,false,0.0-2.0-0.29-0.261-3.261,0,0,0,68,false,stim,true,2,2074.0,2,0,2,15121,WMM1,1781927,false,false,862,image-keyboard-response,2
true,8,0,1,1,false,z,false,false,0.0-2.0-0.29-0.262-3.262,0,0,0,81,false,stim,true,0,1768.0,2,0,1,15121,WMM1,1785200,false,false,865,image-keyboard-response,3
true,8,0,1,0,true,q,false,false,0.0-2.0-0.29-0.263-3.263,0,0,0,81,false,stim,false,1,2847.0,2,0,0,15121,WMM1,1789552,false,true,868,image-keyboard-response,4
true,8,1,1,0,false,q,false,true,0.0-2.0-0.29-0.264-3.264,0,0,0,90,false,stim,true,1,1970.0,2,0,0,15121,WMM1,1793027,false,true,871,image-keyboard-response,5
true,8,1,1,1,true,z,false,true,0.0-2.0-0.29-0.265-3.265,0,0,0,90,false,stim,false,0,1813.0000000002328,2,0,1,15121,WMM1,1796348,false,false,874,image-keyboard-response,6
true,8,1,1,0,false,q,false,false,0.0-2.0-0.29-0.266-3.266,0,0,0,90,false,stim,true,1,1462.0,2,0,0,15121,WMM1,1799316,false,false,877,image-keyboard-response,7
true,8,1,1,1,true,z,false,false,0.0-2.0-0.29-0.267-3.267,0,0,0,90,false,stim,false,2,1270.0,2,0,2,15121,WMM1,1802092,false,true,880,image-keyboard-response,8
true,8,1,1,1,true,z,false,true,0.0-2.0-0.29-0.268-3.268,0,0,0,90,false,stim,false,0,1511.0000000002328,2,0,1,15121,WMM1,1805108,false,false,883,image-keyboard-response,9
true,8,0,1,1,false,z,true,false,0.0-2.0-0.29-0.269-3.269,0,0,0,81,false,stim,false,2,1693.0,2,0,2,15121,WMM1,1808308,false,false,886,image-keyboard-response,10
true,8,1,1,1,true,z,false,true,0.0-2.0-0.30-0.270-3.270,0,0,0,90,false,stim,false,0,2137.0,2,0,1,15121,WMM1,1811952,false,false,889,image-keyboard-response,11
true,8,1,1,0,false,q,false,false,0.0-2.0-0.30-0.271-3.271,0,0,0,90,false,stim,true,1,533.0000000002328,2,0,0,15121,WMM1,1813993,false,false,892,image-keyboard-response,12
true,8,2,1,1,false,z,false,false,0.0-2.0-0.30-0.272-3.272,0,0,0,68,false,stim,true,2,2231.0,2,0,2,15121,WMM1,1817730,false,false,895,image-keyboard-response,13
true,8,0,1,1,false,z,true,false,0.0-2.0-0.30-0.273-3.273,0,0,0,81,false,stim,false,2,2903.0,2,0,2,15121,WMM1,1822139,false,false,898,image-keyboard-response,14
true,8,0,1,1,false,z,false,false,0.0-2.0-0.30-0.274-3.274,0,0,0,81,false,stim,true,0,1530.0,2,0,1,15121,WMM1,1825179,false,false,901,image-keyboard-response,15
true,8,0,1,0,true,q,false,true,0.0-2.0-0.30-0.275-3.275,0,0,0,81,false,stim,false,1,869.9999999997672,2,0,0,15121,WMM1,1827555,false,false,904,image-keyboard-response,16
true,8,0,1,0,true,q,false,true,0.0-2.0-0.30-0.276-3.276,0,0,0,81,false,stim,false,1,1286.9999999997672,2,0,0,15121,WMM1,1830347,false,false,907,image-keyboard-response,17
true,8,1,1,1,true,z,false,true,0.0-2.0-0.30-0.277-3.277,0,0,0,90,false,stim,false,2,2287.0,2,0,2,15121,WMM1,1834142,false,false,910,image-keyboard-response,18
true,8,1,1,1,true,z,false,false,0.0-2.0-0.30-0.278-3.278,0,0,0,90,false,stim,false,0,1230.0,2,0,1,15121,WMM1,1836878,false,true,913,image-keyboard-response,19
true,8,2,1,1,false,z,true,false,0.0-2.0-0.31-0.279-3.279,0,0,0,68,false,stim,false,0,1158.0000000002328,2,0,1,15121,WMM1,1839542,false,false,916,image-keyboard-response,20
true,8,1,1,1,true,z,false,true,0.0-2.0-0.31-0.280-3.280,0,0,0,90,false,stim,false,2,2237.0,2,0,2,15121,WMM1,1843285,false,false,919,image-keyboard-response,21
true,8,0,1,0,true,q,false,true,0.0-2.0-0.31-0.281-3.281,0,0,0,81,false,stim,false,1,2036.0,2,0,0,15121,WMM1,1846829,false,false,922,image-keyboard-response,22
true,8,1,1,1,true,z,false,true,0.0-2.0-0.31-0.282-3.282,0,0,0,90,false,stim,false,2,2274.0,2,0,2,15121,WMM1,1850610,false,false,925,image-keyboard-response,23
true,8,1,1,1,true,z,false,true,0.0-2.0-0.31-0.283-3.283,0,0,0,90,false,stim,false,2,1047.0,2,0,2,15121,WMM1,1853163,false,false,928,image-keyboard-response,24
true,8,0,1,0,true,q,false,true,0.0-2.0-0.31-0.284-3.284,0,0,0,81,false,stim,false,1,2014.0,2,0,0,15121,WMM1,1856685,false,false,931,image-keyboard-response,25
true,8,2,1,1,false,z,true,false,0.0-2.0-0.31-0.285-3.285,0,0,0,68,false,stim,false,0,2429.0,2,0,1,15121,WMM1,1860621,false,false,934,image-keyboard-response,26
true,8,0,1,1,false,z,false,false,0.0-2.0-0.31-0.286-3.286,0,0,0,81,false,stim,true,0,1260.0,2,0,1,15121,WMM1,1863389,false,false,937,image-keyboard-response,27
true,8,0,1,0,true,q,false,true,0.0-2.0-0.31-0.287-3.287,0,0,0,81,false,stim,false,1,2435.0,2,0,0,15121,WMM1,1867332,false,false,940,image-keyboard-response,28
true,8,0,1,0,true,q,false,true,0.0-2.0-0.32-0.288-3.288,0,0,0,81,false,stim,false,1,2193.0,2,0,0,15121,WMM1,1871033,false,false,943,image-keyboard-response,29
true,8,2,1,1,false,z,true,false,0.0-2.0-0.32-0.289-3.289,0,0,0,68,false,stim,false,0,2222.0,2,0,1,15121,WMM1,1874762,false,false,946,image-keyboard-response,30
true,8,1,1,1,true,z,false,true,0.0-2.0-0.32-0.290-3.290,0,0,0,90,false,stim,false,2,2772.000000000233,2,0,2,15121,WMM1,1879044,false,false,949,image-keyboard-response,31
true,8,1,1,1,true,z,false,false,0.0-2.0-0.32-0.291-3.291,0,0,0,90,false,stim,false,0,1582.0,2,0,1,15121,WMM1,1882132,false,true,952,image-keyboard-response,32
false,8,-1,1,1,false,z,true,false,0.0-2.0-0.32-0.292-3.292,0,0,0,,false,stim,false,0,,2,0,1,15121,WMM1,1886641,false,false,955,image-keyboard-response,33
true,8,1,1,1,true,z,false,true,0.0-2.0-0.32-0.293-3.293,0,0,0,90,false,stim,false,2,2241.999999999767,2,0,2,15121,WMM1,1890390,false,false,958,image-keyboard-response,34
true,8,0,1,0,true,q,false,false,0.0-2.0-0.32-0.294-3.294,0,0,0,81,false,stim,false,1,1709.0,2,0,0,15121,WMM1,1893607,false,true,961,image-keyboard-response,35
true,8,1,1,0,false,q,false,false,0.0-2.0-0.32-0.295-3.295,0,0,0,90,false,stim,true,1,2819.0,2,0,0,15121,WMM1,1897932,false,false,964,image-keyboard-response,36
true,8,0,1,1,false,z,true,false,0.0-2.0-0.32-0.296-3.296,0,0,0,81,false,stim,false,2,2132.000000000233,2,0,2,15121,WMM1,1901572,false,false,967,image-keyboard-response,37
true,8,0,1,1,false,z,false,true,0.0-2.0-0.33-0.297-3.297,0,0,0,81,false,stim,true,0,1669.0,2,0,1,15121,WMM1,1904748,false,true,970,image-keyboard-response,38
false,8,-1,1,0,false,q,true,false,0.0-2.0-0.33-0.298-3.298,0,0,0,,false,stim,false,1,,2,0,0,15121,WMM1,1909256,false,false,973,image-keyboard-response,39
true,8,0,1,1,false,z,false,false,0.0-2.0-0.33-0.299-3.299,0,0,0,81,false,stim,true,0,1597.0,2,0,1,15121,WMM1,1912361,false,false,976,image-keyboard-response,40
true,8,2,1,0,false,q,true,false,0.0-2.0-0.33-0.300-3.300,0,0,0,68,false,stim,false,1,2629.0,2,0,0,15121,WMM1,1916498,false,false,979,image-keyboard-response,41
true,8,0,1,0,true,q,false,true,0.0-2.0-0.33-0.301-3.301,0,0,0,81,false,stim,false,1,2274.999999999767,2,0,0,15121,WMM1,1920281,false,false,982,image-keyboard-response,42
true,8,0,1,1,false,z,true,true,0.0-2.0-0.33-0.302-3.302,0,0,0,81,false,stim,false,2,1902.0,2,0,2,15121,WMM1,1923690,false,true,985,image-keyboard-response,43
true,8,0,1,1,false,z,true,false,0.0-2.0-0.33-0.303-3.303,0,0,0,81,false,stim,false,2,1598.0000000002328,2,0,2,15121,WMM1,1926794,false,false,988,image-keyboard-response,44
true,8,0,1,1,false,z,true,false,0.0-2.0-0.33-0.304-3.304,0,0,0,81,false,stim,false,2,564.0,2,0,2,15121,WMM1,1928866,false,false,991,image-keyboard-response,45
true,8,0,1,1,false,z,false,false,0.0-2.0-0.33-0.305-3.305,0,0,0,81,false,stim,true,0,1845.0,2,0,1,15121,WMM1,1932219,false,false,994,image-keyboard-response,46
false,8,-1,1,1,false,z,true,true,0.0-2.0-0.34-0.306-3.306,0,0,0,,false,stim,false,2,,2,0,2,15121,WMM1,1936728,false,true,997,image-keyboard-response,47
false,8,-1,1,1,false,z,true,false,0.0-2.0-0.34-0.307-3.307,0,0,0,,false,stim,false,0,,2,0,1,15121,WMM1,1941237,false,false,1000,image-keyboard-response,48
true,8,0,1,0,true,q,false,true,0.0-2.0-0.34-0.308-3.308,0,0,0,81,false,stim,false,1,1715.0,2,0,0,15121,WMM1,1944463,false,false,1003,image-keyboard-response,49
true,8,1,1,1,true,z,false,true,0.0-2.0-0.34-0.309-3.309,0,0,0,90,false,stim,false,0,2233.0,2,0,1,15121,WMM1,1948205,false,false,1006,image-keyboard-response,50
true,8,0,1,0,true,q,false,true,0.0-2.0-0.34-0.310-3.310,0,0,0,81,false,stim,false,1,2061.0,2,0,0,15121,WMM1,1951773,false,false,1009,image-keyboard-response,51
true,8,0,1,0,true,q,false,false,0.0-2.0-0.34-0.311-3.311,0,0,0,81,false,stim,false,1,966.0,2,0,0,15121,WMM1,1954245,false,true,1012,image-keyboard-response,52
true,8,0,1,1,false,z,true,false,0.0-2.0-0.34-0.312-3.312,0,0,0,81,false,stim,false,2,2029.0,2,0,2,15121,WMM1,1957781,false,false,1015,image-keyboard-response,53
true,8,2,1,1,false,z,false,false,0.0-2.0-0.34-0.313-3.313,0,0,0,68,false,stim,true,2,1866.0,2,0,2,15121,WMM1,1961154,false,false,1018,image-keyboard-response,54
true,8,1,1,1,true,z,false,true,0.0-2.0-0.34-0.314-3.314,0,0,0,90,false,stim,false,0,2448.0,2,0,1,15121,WMM1,1965108,false,false,1021,image-keyboard-response,55
true,8,1,1,1,true,z,false,true,0.0-2.0-0.35-0.315-3.315,0,0,0,90,false,stim,false,0,1980.0,2,0,1,15121,WMM1,1968596,false,false,1024,image-keyboard-response,56
true,8,0,1,0,true,q,false,true,0.0-2.0-0.35-0.316-3.316,0,0,0,81,false,stim,false,1,2748.999999999767,2,0,0,15121,WMM1,1972852,false,false,1027,image-keyboard-response,57
true,8,1,1,1,true,z,false,true,0.0-2.0-0.35-0.317-3.317,0,0,0,90,false,stim,false,2,2683.0,2,0,2,15121,WMM1,1977041,false,false,1030,image-keyboard-response,58
true,8,0,1,0,true,q,false,true,0.0-2.0-0.35-0.318-3.318,0,0,0,81,false,stim,false,1,1421.0000000002328,2,0,0,15121,WMM1,1979969,false,false,1033,image-keyboard-response,59
true,8,1,1,1,true,z,false,true,0.0-2.0-0.35-0.319-3.319,0,0,0,90,false,stim,false,0,1453.0,2,0,1,15121,WMM1,1982929,false,false,1036,image-keyboard-response,60
true,9,1,2,2,false,d,false,false,0.0-2.0-0.35-0.320-3.320,0,0,0,90,true,stim,true,1,542.0,2,0,2,15121,WMM1,1984977,false,false,1039,image-keyboard-response,1
true,9,1,2,0,false,q,false,true,0.0-2.0-0.35-0.321-3.321,0,0,0,90,false,stim,true,1,800.0,2,0,1,15121,WMM1,1987281,false,true,1042,image-keyboard-response,2
true,9,1,2,2,false,d,false,false,0.0-2.0-0.35-0.322-3.322,0,0,0,90,false,stim,true,1,821.0,2,0,2,15121,WMM1,1989609,false,false,1045,image-keyboard-response,3
true,9,0,2,1,false,z,false,false,0.0-2.0-0.35-0.323-3.323,0,0,0,81,false,stim,true,0,2357.0,2,0,0,15121,WMM1,1993474,false,false,1048,image-keyboard-response,4
true,9,0,2,2,false,d,true,false,0.0-2.0-0.36-0.324-3.324,0,0,0,81,false,stim,false,1,1862.0,2,0,2,15121,WMM1,1996842,false,false,1051,image-keyboard-response,5
true,9,2,2,2,true,d,false,true,0.0-2.0-0.36-0.325-3.325,0,0,0,68,false,stim,false,1,1781.0,2,0,2,15121,WMM1,2000130,false,false,1054,image-keyboard-response,6
true,9,2,2,1,false,z,true,false,0.0-2.0-0.36-0.326-3.326,0,0,0,68,false,stim,false,0,2527.0,2,0,0,15121,WMM1,2004163,false,false,1057,image-keyboard-response,7
true,9,2,2,0,false,q,true,false,0.0-2.0-0.36-0.327-3.327,0,0,0,68,false,stim,false,1,2184.0,2,0,1,15121,WMM1,2007853,false,false,1060,image-keyboard-response,8
true,9,1,2,0,false,q,false,false,0.0-2.0-0.36-0.328-3.328,0,0,0,90,false,stim,true,1,1718.0,2,0,1,15121,WMM1,2011077,false,false,1063,image-keyboard-response,9
true,9,2,2,2,true,d,false,true,0.0-2.0-0.36-0.329-3.329,0,0,0,68,false,stim,false,1,2173.0,2,0,2,15121,WMM1,2014758,false,false,1066,image-keyboard-response,10
true,9,0,2,0,true,q,false,true,0.0-2.0-0.36-0.330-3.330,0,0,0,81,false,stim,false,1,1893.0,2,0,1,15121,WMM1,2018157,false,false,1069,image-keyboard-response,11
true,9,0,2,1,false,z,false,true,0.0-2.0-0.36-0.331-3.331,0,0,0,81,false,stim,true,0,2197.0,2,0,0,15121,WMM1,2021861,false,true,1072,image-keyboard-response,12
true,9,0,2,1,false,z,false,false,0.0-2.0-0.36-0.332-3.332,0,0,0,81,false,stim,true,0,631.0,2,0,0,15121,WMM1,2023998,false,false,1075,image-keyboard-response,13
true,9,2,2,2,true,d,false,true,0.0-2.0-0.37-0.333-3.333,0,0,0,68,false,stim,false,1,1859.0000000002328,2,0,2,15121,WMM1,2027365,false,false,1078,image-keyboard-response,14
true,9,0,2,1,false,z,false,false,0.0-2.0-0.37-0.334-3.334,0,0,0,81,false,stim,true,0,1398.0,2,0,0,15121,WMM1,2030270,false,false,1081,image-keyboard-response,15
true,9,2,2,2,true,d,false,true,0.0-2.0-0.37-0.335-3.335,0,0,0,68,false,stim,false,1,2778.0,2,0,2,15121,WMM1,2034554,false,false,1084,image-keyboard-response,16
true,9,1,2,1,true,z,false,true,0.0-2.0-0.37-0.336-3.336,0,0,0,90,false,stim,false,0,1830.0,2,0,0,15121,WMM1,2037891,false,false,1087,image-keyboard-response,17
false,9,-1,2,1,false,z,true,false,0.0-2.0-0.37-0.337-3.337,0,0,0,,false,stim,false,0,,2,0,0,15121,WMM1,2042397,false,false,1090,image-keyboard-response,18
true,9,0,2,0,true,q,false,true,0.0-2.0-0.37-0.338-3.338,0,0,0,81,false,stim,false,1,2007.9999999997672,2,0,1,15121,WMM1,2045912,false,false,1093,image-keyboard-response,19
true,9,2,2,2,true,d,false,true,0.0-2.0-0.37-0.339-3.339,0,0,0,68,false,stim,false,1,1605.0,2,0,2,15121,WMM1,2049024,false,false,1096,image-keyboard-response,20
true,9,0,2,0,true,q,false,true,0.0-2.0-0.37-0.340-3.340,0,0,0,81,false,stim,false,1,2071.0000000004657,2,0,1,15121,WMM1,2052602,false,false,1099,image-keyboard-response,21
true,9,0,2,0,true,q,false,true,0.0-2.0-0.37-0.341-3.341,0,0,0,81,false,stim,false,1,905.0000000002328,2,0,1,15121,WMM1,2055019,false,false,1102,image-keyboard-response,22
true,9,2,2,2,true,d,false,true,0.0-2.0-0.38-0.342-3.342,0,0,0,68,false,stim,false,1,1684.0000000002328,2,0,2,15121,WMM1,2058211,false,false,1105,image-keyboard-response,23
true,9,2,2,2,true,d,false,false,0.0-2.0-0.38-0.343-3.343,0,0,0,68,false,stim,false,1,1828.9999999997672,2,0,2,15121,WMM1,2061547,false,true,1108,image-keyboard-response,24
true,9,1,2,1,true,z,false,true,0.0-2.0-0.38-0.344-3.344,0,0,0,90,false,stim,false,0,2248.0,2,0,0,15121,WMM1,2065304,false,false,1111,image-keyboard-response,25
true,9,0,2,0,true,q,false,true,0.0-2.0-0.38-0.345-3.345,0,0,0,81,false,stim,false,1,2429.000000000233,2,0,1,15121,WMM1,2069240,false,false,1114,image-keyboard-response,26
true,9,1,2,1,true,z,false,true,0.0-2.0-0.38-0.346-3.346,0,0,0,90,false,stim,false,0,1980.0,2,0,0,15121,WMM1,2072728,false,false,1117,image-keyboard-response,27
true,9,2,2,2,true,d,false,true,0.0-2.0-0.38-0.347-3.347,0,0,0,68,false,stim,false,1,1685.0000000004657,2,0,2,15121,WMM1,2075920,false,false,1120,image-keyboard-response,28
true,9,0,2,0,true,q,false,true,0.0-2.0-0.38-0.348-3.348,0,0,0,81,false,stim,false,1,1181.9999999997672,2,0,1,15121,WMM1,2078608,false,false,1123,image-keyboard-response,29
true,9,0,2,0,true,q,false,true,0.0-2.0-0.38-0.349-3.349,0,0,0,81,false,stim,false,1,853.0,2,0,1,15121,WMM1,2080968,false,false,1126,image-keyboard-response,30
false,9,-1,2,1,false,z,true,false,0.0-2.0-0.38-0.350-3.350,0,0,0,,false,stim,false,0,,2,1,0,15121,WMM1,2085476,false,false,1129,image-keyboard-response,31
true,9,0,2,0,true,q,false,false,0.0-2.0-0.39-0.351-3.351,0,0,0,81,false,stim,false,1,2448.000000000233,2,0,1,15121,WMM1,2089429,false,true,1132,image-keyboard-response,32
false,9,-1,2,1,false,z,true,true,0.0-2.0-0.39-0.352-3.352,0,0,0,,false,stim,false,0,,2,1,0,15121,WMM1,2093937,false,true,1135,image-keyboard-response,33
true,9,0,2,0,true,q,false,true,0.0-2.0-0.39-0.353-3.353,0,0,0,81,false,stim,false,1,880.0,2,0,1,15121,WMM1,2096323,false,false,1138,image-keyboard-response,34
true,9,0,2,2,false,d,true,true,0.0-2.0-0.39-0.354-3.354,0,0,0,81,false,stim,false,1,1613.0,2,0,2,15121,WMM1,2099443,false,true,1141,image-keyboard-response,35
true,9,0,2,0,true,q,false,true,0.0-2.0-0.39-0.355-3.355,0,0,0,81,false,stim,false,1,1404.0,2,0,1,15121,WMM1,2102355,false,false,1144,image-keyboard-response,36
true,9,0,2,1,false,z,false,false,0.0-2.0-0.39-0.356-3.356,0,0,0,81,false,stim,true,0,2060.0,2,1,0,15121,WMM1,2105922,false,false,1147,image-keyboard-response,37
true,10,0,3,1,false,z,true,false,0.0-2.0-0.39-0.357-3.357,1,0,0,81,true,stim,false,2,1278.0,2,0,2,15121,WMM1,2108707,false,false,1150,image-keyboard-response,1
true,10,0,3,1,false,z,true,false,0.0-2.0-0.39-0.358-3.358,1,0,0,81,false,stim,false,2,604.0,2,0,2,15121,WMM1,2110819,false,false,1153,image-keyboard-response,2
false,10,-1,3,1,false,z,true,false,0.0-2.0-0.39-0.359-3.359,1,0,0,,false,stim,false,1,,2,1,0,15121,WMM1,2115328,false,false,1156,image-keyboard-response,3
true,10,1,3,1,true,z,false,false,0.0-2.0-0.40-0.360-3.360,1,0,0,90,false,stim,false,2,2267.0000000004657,2,0,2,15121,WMM1,2119102,false,true,1159,image-keyboard-response,4
true,10,0,3,2,false,d,false,false,0.0-2.0-0.40-0.361-3.361,1,0,0,81,false,stim,true,0,2501.0,2,0,1,15121,WMM1,2123111,false,false,1162,image-keyboard-response,5
true,10,0,3,1,false,z,true,false,0.0-2.0-0.40-0.362-3.362,1,0,0,81,false,stim,false,1,1164.0,2,1,0,15121,WMM1,2125782,false,false,1165,image-keyboard-response,6
true,10,1,3,2,false,d,true,false,0.0-2.0-0.40-0.363-3.363,1,0,0,90,false,stim,false,0,1887.0,2,0,1,15121,WMM1,2129177,false,false,1168,image-keyboard-response,7
false,10,-1,3,1,false,z,true,false,0.0-2.0-0.40-0.364-3.364,1,0,0,,false,stim,false,2,,2,0,2,15121,WMM1,2133685,false,false,1171,image-keyboard-response,8
true,10,2,3,2,true,d,false,false,0.0-2.0-0.40-0.365-3.365,1,0,0,68,false,stim,false,0,1913.0,2,0,1,15121,WMM1,2137105,false,true,1174,image-keyboard-response,9
true,10,2,3,1,false,z,true,false,0.0-2.0-0.40-0.366-3.366,1,0,0,68,false,stim,false,1,1533.0,2,1,0,15121,WMM1,2140145,false,false,1177,image-keyboard-response,10
true,10,0,3,1,false,z,true,false,0.0-2.0-0.40-0.367-3.367,1,0,0,81,false,stim,false,2,1904.0,2,0,2,15121,WMM1,2143555,false,false,1180,image-keyboard-response,11
false,10,-1,3,1,false,z,true,false,0.0-2.0-0.40-0.368-3.368,1,0,0,,false,stim,false,1,,2,1,0,15121,WMM1,2148063,false,false,1183,image-keyboard-response,12
true,10,1,3,1,true,z,false,false,0.0-2.0-0.41-0.369-3.369,1,0,0,90,false,stim,false,1,516.0,2,1,0,15121,WMM1,2150086,false,true,1186,image-keyboard-response,13
true,10,2,3,2,true,d,false,true,0.0-2.0-0.41-0.370-3.370,1,0,0,68,false,stim,false,0,2357.0000000004657,2,0,1,15121,WMM1,2153950,false,false,1189,image-keyboard-response,14
true,10,2,3,1,false,z,false,false,0.0-2.0-0.41-0.371-3.371,1,0,0,68,false,stim,true,2,2582.0,2,0,2,15121,WMM1,2158038,false,false,1192,image-keyboard-response,15
true,10,2,3,2,true,d,false,true,0.0-2.0-0.41-0.372-3.372,1,0,0,68,false,stim,false,0,2249.0,2,0,1,15121,WMM1,2161794,false,false,1195,image-keyboard-response,16
false,10,-1,3,1,false,z,true,false,0.0-2.0-0.41-0.373-3.373,1,0,0,,false,stim,false,1,,2,1,0,15121,WMM1,2166302,false,false,1198,image-keyboard-response,17
true,10,1,3,1,true,z,false,true,0.0-2.0-0.41-0.374-3.374,1,0,0,90,false,stim,false,2,2240.0,2,0,2,15121,WMM1,2170053,false,false,1201,image-keyboard-response,18
true,10,1,3,1,true,z,false,true,0.0-2.0-0.41-0.375-3.375,1,0,0,90,false,stim,false,1,2702.0,2,1,0,15121,WMM1,2174261,false,false,1204,image-keyboard-response,19
true,10,2,3,1,false,z,false,false,0.0-2.0-0.41-0.376-3.376,1,0,0,68,false,stim,true,2,1876.0,2,0,2,15121,WMM1,2177645,false,false,1207,image-keyboard-response,20
true,10,0,3,2,false,d,false,false,0.0-2.0-0.41-0.377-3.377,1,0,0,81,false,stim,true,0,2401.0,2,0,1,15121,WMM1,2181553,false,false,1210,image-keyboard-response,21
true,10,1,3,1,true,z,false,false,0.0-2.0-0.42-0.378-3.378,1,0,0,90,false,stim,false,2,2389.0,2,0,2,15121,WMM1,2185450,false,true,1213,image-keyboard-response,22
true,10,1,3,1,true,z,false,true,0.0-2.0-0.42-0.379-3.379,1,0,0,90,false,stim,false,1,1427.0,2,1,0,15121,WMM1,2188385,false,false,1216,image-keyboard-response,23
true,10,1,3,1,true,z,false,true,0.0-2.0-0.42-0.380-3.380,1,0,0,90,false,stim,false,1,1078.0,2,1,0,15121,WMM1,2190970,false,false,1219,image-keyboard-response,24
true,10,1,3,2,false,d,true,false,0.0-2.0-0.42-0.381-3.381,1,0,0,90,false,stim,false,0,1460.0,2,0,1,15121,WMM1,2193937,false,false,1222,image-keyboard-response,25
false,10,-1,3,1,false,z,true,true,0.0-2.0-0.42-0.382-3.382,1,0,0,,false,stim,false,2,,2,0,2,15121,WMM1,2198445,false,true,1225,image-keyboard-response,26
true,10,1,3,1,true,z,false,true,0.0-2.0-0.42-0.383-3.383,1,0,0,90,false,stim,false,2,543.0,2,0,2,15121,WMM1,2200497,false,false,1228,image-keyboard-response,27
true,10,1,3,1,true,z,false,true,0.0-2.0-0.42-0.384-3.384,1,0,0,90,false,stim,false,1,1836.0,2,1,0,15121,WMM1,2203841,false,false,1231,image-keyboard-response,28
true,10,0,3,2,false,d,false,false,0.0-2.0-0.42-0.385-3.385,1,0,0,81,false,stim,true,0,2101.0,2,0,1,15121,WMM1,2207450,false,false,1234,image-keyboard-response,29
true,10,2,3,2,true,d,false,true,0.0-2.0-0.42-0.386-3.386,1,0,0,68,false,stim,false,0,868.0,2,0,1,15121,WMM1,2209826,false,false,1237,image-keyboard-response,30
false,10,-1,3,1,false,z,true,false,0.0-2.0-0.43-0.387-3.387,1,0,0,,false,stim,false,1,,2,1,0,15121,WMM1,2214334,false,false,1240,image-keyboard-response,31
true,10,1,3,1,true,z,false,true,0.0-2.0-0.43-0.388-3.388,1,0,0,90,false,stim,false,2,1205.0000000004657,2,0,2,15121,WMM1,2217047,false,false,1243,image-keyboard-response,32
true,10,1,3,1,true,z,false,false,0.0-2.0-0.43-0.389-3.389,1,0,0,90,false,stim,false,2,556.0,2,0,2,15121,WMM1,2219110,false,true,1246,image-keyboard-response,33
true,10,2,3,2,true,d,false,true,0.0-2.0-0.43-0.390-3.390,1,0,0,68,false,stim,false,0,2006.0,2,0,1,15121,WMM1,2222624,false,false,1249,image-keyboard-response,34
true,10,1,3,1,true,z,false,true,0.0-2.0-0.43-0.391-3.391,1,0,0,90,false,stim,false,1,2515.0,2,1,0,15121,WMM1,2226646,false,false,1252,image-keyboard-response,35
true,10,1,3,1,true,z,false,true,0.0-2.0-0.43-0.392-3.392,1,0,0,90,false,stim,false,2,1346.9999999995343,2,0,2,15121,WMM1,2229502,false,false,1255,image-keyboard-response,36
true,10,2,3,2,true,d,false,true,0.0-2.0-0.43-0.393-3.393,1,0,0,68,false,stim,false,0,974.0,2,0,1,15121,WMM1,2231982,false,false,1258,image-keyboard-response,37
true,10,2,3,2,true,d,false,true,0.0-2.0-0.43-0.394-3.394,1,0,0,68,false,stim,false,0,1100.0,2,0,1,15121,WMM1,2234590,false,false,1261,image-keyboard-response,38
true,10,1,3,1,true,z,false,true,0.0-2.0-0.43-0.395-3.395,1,0,0,90,false,stim,false,1,1452.0,2,1,0,15121,WMM1,2237550,false,false,1264,image-keyboard-response,39
true,10,2,3,2,true,d,false,true,0.0-2.0-0.44-0.396-3.396,1,0,0,68,false,stim,false,0,1236.0,2,0,1,15121,WMM1,2240295,false,false,1267,image-keyboard-response,40
true,10,1,3,1,true,z,false,true,0.0-2.0-0.44-0.397-3.397,1,0,0,90,false,stim,false,2,1036.0,2,0,2,15121,WMM1,2242839,false,false,1270,image-keyboard-response,41
true,10,2,3,2,true,d,false,true,0.0-2.0-0.44-0.398-3.398,1,0,0,68,false,stim,false,0,1125.0,2,0,1,15121,WMM1,2245471,false,false,1273,image-keyboard-response,42
true,10,1,3,1,true,z,false,true,0.0-2.0-0.44-0.399-3.399,1,0,0,90,false,stim,false,2,885.0,2,0,2,15121,WMM1,2247863,false,false,1276,image-keyboard-response,43
true,10,1,3,1,true,z,false,true,0.0-2.0-0.44-0.400-3.400,1,0,0,90,false,stim,false,2,742.0,2,0,2,15121,WMM1,2250112,false,false,1279,image-keyboard-response,44
true,10,1,3,1,true,z,false,true,0.0-2.0-0.44-0.401-3.401,1,0,0,90,false,stim,false,1,1574.0,2,0,0,15121,WMM1,2253193,false,false,1282,image-keyboard-response,45
true,10,1,3,1,true,z,false,true,0.0-2.0-0.44-0.402-3.402,1,0,0,90,false,stim,false,1,627.0,2,0,0,15121,WMM1,2255329,false,false,1285,image-keyboard-response,46
true,10,1,3,1,true,z,false,true,0.0-2.0-0.44-0.403-3.403,1,0,0,90,false,stim,false,1,1437.0,2,0,0,15121,WMM1,2258273,false,false,1288,image-keyboard-response,47
true,10,2,3,2,true,d,false,true,0.0-2.0-0.44-0.404-3.404,1,0,0,68,false,stim,false,0,2549.0,2,0,1,15121,WMM1,2262330,false,false,1291,image-keyboard-response,48
true,10,1,3,1,true,z,false,true,0.0-2.0-0.45-0.405-3.405,1,0,0,90,false,stim,false,2,1180.0,2,0,2,15121,WMM1,2265018,false,false,1294,image-keyboard-response,49
true,11,2,1,1,false,z,false,false,0.0-2.0-0.45-0.406-3.406,0,0,0,68,true,stim,true,2,1069.0,2,0,1,15121,WMM1,2267595,false,false,1297,image-keyboard-response,1
true,11,1,1,0,false,q,false,false,0.0-2.0-0.45-0.407-3.407,0,0,0,90,false,stim,true,1,973.9999999995343,2,0,2,15121,WMM1,2270076,false,false,1300,image-keyboard-response,2
false,11,-1,1,0,false,q,true,false,0.0-2.0-0.45-0.408-3.408,0,0,0,,false,stim,false,1,,2,0,2,15121,WMM1,2274587,false,false,1303,image-keyboard-response,3
true,11,0,1,0,true,q,false,true,0.0-2.0-0.45-0.409-3.409,0,0,0,81,false,stim,false,1,1214.0,2,0,0,15121,WMM1,2277310,false,false,1306,image-keyboard-response,4
true,11,0,1,1,false,z,true,false,0.0-2.0-0.45-0.410-3.410,0,0,0,81,false,stim,false,2,1866.0,2,0,1,15121,WMM1,2280683,false,false,1309,image-keyboard-response,5
true,11,0,1,0,true,q,false,true,0.0-2.0-0.45-0.411-3.411,0,0,0,81,false,stim,false,1,2751.0,2,0,0,15121,WMM1,2284941,false,false,1312,image-keyboard-response,6
true,11,2,1,1,false,z,false,false,0.0-2.0-0.45-0.412-3.412,0,0,0,68,false,stim,true,2,1470.0,2,0,1,15121,WMM1,2287917,false,false,1315,image-keyboard-response,7
true,11,0,1,0,true,q,false,true,0.0-2.0-0.45-0.413-3.413,0,0,0,81,false,stim,false,1,2730.0,2,0,0,15121,WMM1,2292154,false,false,1318,image-keyboard-response,8
true,11,1,1,1,true,z,false,true,0.0-2.0-0.46-0.414-3.414,0,0,0,90,false,stim,false,2,2305.0,2,0,1,15121,WMM1,2295967,false,false,1321,image-keyboard-response,9
true,11,1,1,0,false,q,false,false,0.0-2.0-0.46-0.415-3.415,0,0,0,90,false,stim,true,1,1316.0,2,0,2,15121,WMM1,2298791,false,false,1324,image-keyboard-response,10
true,11,0,1,0,true,q,false,true,0.0-2.0-0.46-0.416-3.416,0,0,0,81,false,stim,false,1,2611.0,2,0,0,15121,WMM1,2302908,false,false,1327,image-keyboard-response,11
true,11,0,1,0,true,q,false,true,0.0-2.0-0.46-0.417-3.417,0,0,0,81,false,stim,false,1,1229.0,2,0,0,15121,WMM1,2305644,false,false,1330,image-keyboard-response,12
true,11,0,1,0,true,q,false,true,0.0-2.0-0.46-0.418-3.418,0,0,0,81,false,stim,false,1,797.0,2,0,0,15121,WMM1,2307948,false,false,1333,image-keyboard-response,13
true,11,1,1,1,true,z,false,true,0.0-2.0-0.46-0.419-3.419,0,0,0,90,false,stim,false,2,2376.0,2,0,1,15121,WMM1,2311830,false,false,1336,image-keyboard-response,14
true,11,1,1,1,true,z,false,false,0.0-2.0-0.46-0.420-3.420,0,0,0,90,false,stim,false,2,1654.0,2,0,1,15121,WMM1,2314990,false,true,1339,image-keyboard-response,15
true,11,0,1,0,true,q,false,true,0.0-2.0-0.46-0.421-3.421,0,0,0,81,false,stim,false,1,2684.0,2,0,2,15121,WMM1,2319183,false,false,1342,image-keyboard-response,16
true,11,0,1,0,true,q,false,true,0.0-2.0-0.46-0.422-3.422,0,0,0,81,false,stim,false,1,830.0,2,0,2,15121,WMM1,2321519,false,false,1345,image-keyboard-response,17
true,11,0,1,0,true,q,false,true,0.0-2.0-0.47-0.423-3.423,0,0,0,81,false,stim,false,1,1044.9999999995343,2,0,2,15121,WMM1,2324070,false,false,1348,image-keyboard-response,18
true,11,0,1,0,true,q,false,true,0.0-2.0-0.47-0.424-3.424,0,0,0,81,false,stim,false,1,677.0,2,0,2,15121,WMM1,2326255,false,false,1351,image-keyboard-response,19
true,11,1,1,1,true,z,false,true,0.0-2.0-0.47-0.425-3.425,0,0,0,90,false,stim,false,2,2061.0,2,0,1,15121,WMM1,2329823,false,false,1354,image-keyboard-response,20
true,11,0,1,0,true,q,false,true,0.0-2.0-0.47-0.426-3.426,0,0,0,81,false,stim,false,1,2141.0,2,0,0,15121,WMM1,2333472,false,false,1357,image-keyboard-response,21
true,11,0,1,0,true,q,false,true,0.0-2.0-0.47-0.427-3.427,0,0,0,81,false,stim,false,1,517.0,2,0,0,15121,WMM1,2335495,false,false,1360,image-keyboard-response,22
true,11,0,1,0,true,q,false,true,0.0-2.0-0.47-0.428-3.428,0,0,0,81,false,stim,false,1,2473.0,2,0,2,15121,WMM1,2339475,false,false,1363,image-keyboard-response,23
true,11,1,1,1,true,z,false,true,0.0-2.0-0.47-0.429-3.429,0,0,0,90,false,stim,false,2,2749.0,2,0,1,15121,WMM1,2343731,false,false,1366,image-keyboard-response,24
true,11,1,1,1,true,z,false,true,0.0-2.0-0.47-0.430-3.430,0,0,0,90,false,stim,false,2,1068.9999999995343,2,0,1,15121,WMM1,2346307,false,false,1369,image-keyboard-response,25
true,11,0,1,0,true,q,false,true,0.0-2.0-0.47-0.431-3.431,0,0,0,81,false,stim,false,1,926.0,2,0,0,15121,WMM1,2348741,false,false,1372,image-keyboard-response,26
true,11,0,1,0,true,q,false,true,0.0-2.0-0.48-0.432-3.432,0,0,0,81,false,stim,false,1,571.9999999995343,2,0,2,15121,WMM1,2350819,false,false,1375,image-keyboard-response,27
true,11,1,1,1,true,z,false,true,0.0-2.0-0.48-0.433-3.433,0,0,0,90,false,stim,false,2,1253.0,2,0,1,15121,WMM1,2353580,false,false,1378,image-keyboard-response,28
true,11,0,1,0,true,q,false,true,0.0-2.0-0.48-0.434-3.434,0,0,0,81,false,stim,false,1,1181.0000000004657,2,0,2,15121,WMM1,2356268,false,false,1381,image-keyboard-response,29
true,11,1,1,1,true,z,false,true,0.0-2.0-0.48-0.435-3.435,0,0,0,90,false,stim,false,2,2277.0,2,0,1,15121,WMM1,2360052,false,false,1384,image-keyboard-response,30
true,12,0,2,1,false,z,false,false,0.0-2.0-0.48-0.436-3.436,0,0,0,81,true,stim,true,0,1469.0,2,0,0,15121,WMM1,2363028,false,false,1387,image-keyboard-response,1
true,12,0,2,2,false,d,false,false,0.0-2.0-0.48-0.437-3.437,0,0,0,81,false,stim,true,0,2838.0000000004657,2,0,2,15121,WMM1,2367373,false,false,1390,image-keyboard-response,2
false,12,-1,2,0,false,q,true,false,0.0-2.0-0.48-0.438-3.438,0,0,0,,false,stim,false,1,,2,0,1,15121,WMM1,2371880,false,false,1393,image-keyboard-response,3
true,12,0,2,1,false,z,false,false,0.0-2.0-0.48-0.439-3.439,0,0,0,81,false,stim,true,0,2336.0,2,0,0,15121,WMM1,2375724,false,false,1396,image-keyboard-response,4
true,12,2,2,1,false,z,true,false,0.0-2.0-0.48-0.440-3.440,0,0,0,68,false,stim,false,0,1989.0,2,0,0,15121,WMM1,2379221,false,false,1399,image-keyboard-response,5
false,12,-1,2,0,false,q,true,false,0.0-2.0-0.49-0.441-3.441,0,0,0,,false,stim,false,1,,2,0,1,15121,WMM1,2383736,false,false,1402,image-keyboard-response,6
true,12,0,2,2,false,d,false,false,0.0-2.0-0.49-0.442-3.442,0,0,0,81,false,stim,true,0,2231.0,2,0,2,15121,WMM1,2387473,false,false,1405,image-keyboard-response,7
true,12,1,2,2,false,d,true,false,0.0-2.0-0.49-0.443-3.443,0,0,0,90,false,stim,false,0,2286.9999999995343,2,0,2,15121,WMM1,2391268,false,false,1408,image-keyboard-response,8
true,12,0,2,1,false,z,false,false,0.0-2.0-0.49-0.444-3.444,0,0,0,81,false,stim,true,0,2015.0,2,0,0,15121,WMM1,2394790,false,false,1411,image-keyboard-response,9
true,12,2,2,2,true,d,false,true,0.0-2.0-0.49-0.445-3.445,0,0,0,68,false,stim,false,0,2948.0,2,0,2,15121,WMM1,2399244,false,false,1414,image-keyboard-response,10
false,12,-1,2,1,false,z,true,false,0.0-2.0-0.49-0.446-3.446,0,0,0,,false,stim,false,0,,2,0,0,15121,WMM1,2403753,false,false,1417,image-keyboard-response,11
true,12,1,2,1,true,z,false,true,0.0-2.0-0.49-0.447-3.447,0,0,0,90,false,stim,false,0,1601.0,2,0,0,15121,WMM1,2406860,false,false,1420,image-keyboard-response,12
false,12,-1,2,0,false,q,true,true,0.0-2.0-0.49-0.448-3.448,0,0,0,,false,stim,false,1,,2,0,1,15121,WMM1,2411368,false,true,1423,image-keyboard-response,13
true,12,1,2,0,false,q,false,false,0.0-2.0-0.49-0.449-3.449,0,0,0,90,false,stim,true,1,591.0,2,0,1,15121,WMM1,2413467,false,false,1426,image-keyboard-response,14
true,12,0,2,0,true,q,false,true,0.0-2.0-0.50-0.450-3.450,0,0,0,81,false,stim,false,1,1930.0000000004657,2,0,1,15121,WMM1,2416903,false,false,1429,image-keyboard-response,15
true,12,1,2,1,true,z,false,false,0.0-2.0-0.50-0.451-3.451,0,0,0,90,false,stim,false,0,2318.0,2,0,0,15121,WMM1,2420727,false,true,1432,image-keyboard-response,16
true,12,0,2,0,true,q,false,true,0.0-2.0-0.50-0.452-3.452,0,0,0,81,false,stim,false,1,2292.0,2,0,1,15121,WMM1,2424525,false,false,1435,image-keyboard-response,17
true,12,2,2,2,true,d,false,false,0.0-2.0-0.50-0.453-3.453,0,0,0,68,false,stim,false,0,1364.0,2,0,2,15121,WMM1,2427396,false,true,1438,image-keyboard-response,18
true,12,1,2,1,true,z,false,true,0.0-2.0-0.50-0.454-3.454,0,0,0,90,false,stim,false,0,2372.0,2,0,0,15121,WMM1,2431274,false,false,1441,image-keyboard-response,19
true,12,1,2,1,true,z,false,true,0.0-2.0-0.50-0.455-3.455,0,0,0,90,false,stim,false,0,948.0,2,0,0,15121,WMM1,2433730,false,false,1444,image-keyboard-response,20
true,12,0,2,2,false,d,false,false,0.0-2.0-0.50-0.456-3.456,0,0,0,81,false,stim,true,0,2711.0,2,1,2,15121,WMM1,2437949,false,false,1447,image-keyboard-response,21
true,12,1,2,2,false,d,true,false,0.0-2.0-0.50-0.457-3.457,0,0,0,90,false,stim,false,0,2103.0000000004657,2,1,2,15121,WMM1,2441558,false,false,1450,image-keyboard-response,22
true,12,0,2,0,true,q,false,true,0.0-2.0-0.50-0.458-3.458,0,0,0,81,false,stim,false,1,2312.0,2,0,1,15121,WMM1,2445377,false,false,1453,image-keyboard-response,23
true,12,0,2,0,true,q,false,true,0.0-2.0-0.51-0.459-3.459,0,0,0,81,false,stim,false,1,2428.0,2,0,1,15121,WMM1,2449312,false,false,1456,image-keyboard-response,24
true,12,0,2,0,true,q,false,true,0.0-2.0-0.51-0.460-3.460,0,0,0,81,false,stim,false,1,692.0000000004657,2,0,1,15121,WMM1,2451512,false,false,1459,image-keyboard-response,25
true,12,1,2,1,true,z,false,true,0.0-2.0-0.51-0.461-3.461,0,0,0,90,false,stim,false,0,2141.0,2,0,0,15121,WMM1,2455160,false,false,1462,image-keyboard-response,26
true,12,1,2,1,true,z,false,true,0.0-2.0-0.51-0.462-3.462,0,0,0,90,false,stim,false,0,766.0,2,0,0,15121,WMM1,2457432,false,false,1465,image-keyboard-response,27
true,12,2,2,2,true,d,false,true,0.0-2.0-0.51-0.463-3.463,0,0,0,68,false,stim,false,0,1684.0,2,1,2,15121,WMM1,2460624,false,false,1468,image-keyboard-response,28
true,12,2,2,2,true,d,false,false,0.0-2.0-0.51-0.464-3.464,0,0,0,68,false,stim,false,0,525.0,2,1,2,15121,WMM1,2462656,false,true,1471,image-keyboard-response,29
true,12,2,2,2,true,d,false,true,0.0-2.0-0.51-0.465-3.465,0,0,0,68,false,stim,false,0,630.0,2,1,2,15121,WMM1,2464792,false,false,1474,image-keyboard-response,30
true,13,0,3,2,false,d,false,false,0.0-2.0-0.51-0.466-3.466,0,0,1,81,true,stim,true,0,2030.0000000004657,2,0,1,15121,WMM1,2468329,false,false,1477,image-keyboard-response,1
true,13,1,3,0,false,q,false,true,0.0-2.0-0.51-0.467-3.467,0,0,1,90,false,stim,true,1,1869.0000000004657,2,0,0,15121,WMM1,2471704,false,true,1480,image-keyboard-response,2
true,13,2,3,2,true,d,false,false,0.0-2.0-0.52-0.468-3.468,0,0,1,68,false,stim,false,2,1758.0,2,1,2,15121,WMM1,2474970,false,true,1483,image-keyboard-response,3
false,13,-1,3,0,false,q,true,false,0.0-2.0-0.52-0.469-3.469,0,0,1,,false,stim,false,1,,2,0,0,15121,WMM1,2479478,false,false,1486,image-keyboard-response,4
true,13,1,3,0,false,q,false,false,0.0-2.0-0.52-0.470-3.470,0,0,1,90,false,stim,true,1,548.0,2,0,0,15121,WMM1,2481532,false,false,1489,image-keyboard-response,5
false,13,-1,3,2,false,d,true,false,0.0-2.0-0.52-0.471-3.471,0,0,1,,false,stim,false,0,,2,0,1,15121,WMM1,2486041,false,false,1492,image-keyboard-response,6
true,13,1,3,2,false,d,true,true,0.0-2.0-0.52-0.472-3.472,0,0,1,90,false,stim,false,2,552.0,2,1,2,15121,WMM1,2488100,false,true,1495,image-keyboard-response,7
true,13,1,3,2,false,d,true,false,0.0-2.0-0.52-0.473-3.473,0,0,1,90,false,stim,false,2,2430.0,2,1,2,15121,WMM1,2492036,false,false,1498,image-keyboard-response,8
true,13,1,3,2,false,d,true,false,0.0-2.0-0.52-0.474-3.474,0,0,1,90,false,stim,false,0,973.0,2,0,1,15121,WMM1,2494521,false,false,1501,image-keyboard-response,9
true,13,1,3,0,false,q,false,false,0.0-2.0-0.52-0.475-3.475,0,0,1,90,false,stim,true,1,2006.0,2,0,0,15121,WMM1,2498033,false,false,1504,image-keyboard-response,10
true,13,0,3,2,false,d,false,false,0.0-2.0-0.52-0.476-3.476,0,0,1,81,false,stim,true,0,2241.0,2,0,1,15121,WMM1,2501780,false,false,1507,image-keyboard-response,11
true,13,2,3,2,true,d,false,false,0.0-2.0-0.53-0.477-3.477,0,0,1,68,false,stim,false,0,1125.0,2,0,1,15121,WMM1,2504412,false,true,1510,image-keyboard-response,12
true,13,2,3,0,false,q,true,false,0.0-2.0-0.53-0.478-3.478,0,0,1,68,false,stim,false,1,2308.0,2,0,0,15121,WMM1,2508228,false,false,1513,image-keyboard-response,13
true,13,1,3,2,false,d,true,false,0.0-2.0-0.53-0.479-3.479,0,0,1,90,false,stim,false,2,2101.9999999995343,2,1,2,15121,WMM1,2511836,false,false,1516,image-keyboard-response,14
true,13,0,3,2,false,d,true,false,0.0-2.0-0.53-0.480-3.480,0,0,1,81,false,stim,false,2,2258.0,2,1,2,15121,WMM1,2515601,false,false,1519,image-keyboard-response,15
true,13,0,3,0,true,q,false,false,0.0-2.0-0.53-0.481-3.481,0,0,1,81,false,stim,false,1,1881.0,2,0,0,15121,WMM1,2518989,false,true,1522,image-keyboard-response,16
true,13,1,3,0,false,q,false,false,0.0-2.0-0.53-0.482-3.482,0,0,1,90,false,stim,true,1,2837.0,2,0,0,15121,WMM1,2523333,false,false,1525,image-keyboard-response,17
true,13,1,3,2,false,d,true,false,0.0-2.0-0.53-0.483-3.483,0,0,1,90,false,stim,false,0,2817.0,2,0,1,15121,WMM1,2527657,false,false,1528,image-keyboard-response,18
false,13,-1,3,2,false,d,true,false,0.0-2.0-0.53-0.484-3.484,0,0,1,,false,stim,false,2,,2,1,2,15121,WMM1,2532166,false,false,1531,image-keyboard-response,19
true,13,0,3,2,false,d,false,false,0.0-2.0-0.53-0.485-3.485,0,0,1,81,false,stim,true,0,2178.0,2,0,1,15121,WMM1,2535850,false,false,1534,image-keyboard-response,20
true,13,0,3,2,false,d,true,false,0.0-2.0-0.54-0.486-3.486,0,0,1,81,false,stim,false,2,1434.0000000004657,2,1,2,15121,WMM1,2538793,false,false,1537,image-keyboard-response,21
true,13,0,3,0,true,q,false,true,0.0-2.0-0.54-0.487-3.487,0,0,1,81,false,stim,false,1,690.9999999995343,2,0,0,15121,WMM1,2540993,false,false,1540,image-keyboard-response,22
true,13,1,3,2,false,d,true,false,0.0-2.0-0.54-0.488-3.488,0,0,1,90,false,stim,false,2,2100.0,2,1,2,15121,WMM1,2544601,false,false,1543,image-keyboard-response,23
true,13,0,3,0,true,q,false,true,0.0-2.0-0.54-0.489-3.489,0,0,1,81,false,stim,false,1,1859.0,2,0,0,15121,WMM1,2547969,false,false,1546,image-keyboard-response,24
true,13,0,3,2,false,d,false,false,0.0-2.0-0.54-0.490-3.490,0,0,1,81,false,stim,true,0,1597.0,2,0,1,15121,WMM1,2551073,false,false,1549,image-keyboard-response,25
true,13,2,3,2,true,d,false,true,0.0-2.0-0.54-0.491-3.491,0,0,1,68,false,stim,false,2,1635.9999999995343,2,1,2,15121,WMM1,2554218,false,false,1552,image-keyboard-response,26
true,13,0,3,0,true,q,false,true,0.0-2.0-0.54-0.492-3.492,0,0,1,81,false,stim,false,1,2395.0,2,0,0,15121,WMM1,2558121,false,false,1555,image-keyboard-response,27
true,13,2,3,2,true,d,false,true,0.0-2.0-0.54-0.493-3.493,0,0,1,68,false,stim,false,0,971.9999999995343,2,0,1,15121,WMM1,2560601,false,false,1558,image-keyboard-response,28
true,13,2,3,2,true,d,false,true,0.0-2.0-0.54-0.494-3.494,0,0,1,68,false,stim,false,0,869.0,2,0,1,15121,WMM1,2562977,false,false,1561,image-keyboard-response,29
true,13,2,3,2,true,d,false,true,0.0-2.0-0.55-0.495-3.495,0,0,1,68,false,stim,false,0,1282.9999999995343,2,0,1,15121,WMM1,2565769,false,false,1564,image-keyboard-response,30
true,13,0,3,0,true,q,false,true,0.0-2.0-0.55-0.496-3.496,0,0,1,81,false,stim,false,1,1276.0000000004657,2,0,0,15121,WMM1,2568553,false,false,1567,image-keyboard-response,31
true,13,2,3,2,true,d,false,true,0.0-2.0-0.55-0.497-3.497,0,0,1,68,false,stim,false,2,1668.0,2,1,2,15121,WMM1,2571729,false,false,1570,image-keyboard-response,32
true,13,2,3,2,true,d,false,true,0.0-2.0-0.55-0.498-3.498,0,0,1,68,false,stim,false,0,1860.0,2,1,1,15121,WMM1,2575098,false,false,1573,image-keyboard-response,33
true,13,2,3,2,true,d,false,true,0.0-2.0-0.55-0.499-3.499,0,0,1,68,false,stim,false,0,837.0,2,1,1,15121,WMM1,2577442,false,false,1576,image-keyboard-response,34
true,13,2,3,2,true,d,false,true,0.0-2.0-0.55-0.500-3.500,0,0,1,68,false,stim,false,2,1891.0,2,1,2,15121,WMM1,2580840,false,false,1579,image-keyboard-response,35
true,13,0,3,0,true,q,false,true,0.0-2.0-0.55-0.501-3.501,0,0,1,81,false,stim,false,1,1381.0,2,1,0,15121,WMM1,2583728,false,false,1582,image-keyboard-response,36
true,13,0,3,0,true,q,false,true,0.0-2.0-0.55-0.502-3.502,0,0,1,81,false,stim,false,1,909.0,2,1,0,15121,WMM1,2586145,false,false,1585,image-keyboard-response,37
true,13,2,3,2,true,d,false,false,0.0-2.0-0.55-0.503-3.503,0,0,1,68,false,stim,false,2,1468.0000000004657,2,1,2,15121,WMM1,2589121,false,true,1588,image-keyboard-response,38
true,13,2,3,2,true,d,false,true,0.0-2.0-0.56-0.504-3.504,0,0,1,68,false,stim,false,0,925.0,2,1,1,15121,WMM1,2591553,false,false,1591,image-keyboard-response,39
true,13,0,3,0,true,q,false,true,0.0-2.0-0.56-0.505-3.505,0,0,1,81,false,stim,false,1,2107.0,2,1,0,15121,WMM1,2595166,false,false,1594,image-keyboard-response,40
true,13,2,3,2,true,d,false,true,0.0-2.0-0.56-0.506-3.506,0,0,1,68,false,stim,false,2,1276.0,2,1,2,15121,WMM1,2597949,false,false,1597,image-keyboard-response,41
true,13,0,3,0,true,q,false,true,0.0-2.0-0.56-0.507-3.507,0,0,1,81,false,stim,false,1,1397.0,2,1,0,15121,WMM1,2600853,false,false,1600,image-keyboard-response,42
true,14,0,0,2,false,d,true,false,0.0-2.0-0.56-0.508-3.508,1,1,1,81,true,stim,false,2,2525.0,2,1,2,15121,WMM1,2725167,false,false,1723,image-keyboard-response,1
true,14,1,0,2,false,d,true,false,0.0-2.0-0.56-0.509-3.509,1,1,1,90,false,stim,false,2,1538.0,2,1,2,15121,WMM1,2728211,false,false,1726,image-keyboard-response,2
true,14,0,0,2,false,d,true,false,0.0-2.0-0.56-0.510-3.510,1,1,1,81,false,stim,false,2,1438.0,2,1,1,15121,WMM1,2731155,false,false,1729,image-keyboard-response,3
true,14,0,0,0,true,q,false,true,0.0-2.0-0.56-0.511-3.511,1,1,1,81,false,stim,false,0,1310.0,2,1,0,15121,WMM1,2733972,false,false,1732,image-keyboard-response,4
true,14,1,0,2,false,d,true,false,0.0-2.0-0.56-0.512-3.512,1,1,1,90,false,stim,false,2,2290.0,2,1,1,15121,WMM1,2737769,false,false,1735,image-keyboard-response,5
true,14,2,0,2,true,d,false,false,0.0-2.0-0.57-0.513-3.513,1,1,1,68,false,stim,false,2,1038.0,2,1,1,15121,WMM1,2740312,false,true,1738,image-keyboard-response,6
true,14,2,0,2,true,d,false,true,0.0-2.0-0.57-0.514-3.514,1,1,1,68,false,stim,false,2,1524.0,2,1,2,15121,WMM1,2743344,false,false,1741,image-keyboard-response,7
true,14,0,0,0,true,q,false,true,0.0-2.0-0.57-0.515-3.515,1,1,1,81,false,stim,false,0,2018.0,2,1,0,15121,WMM1,2746869,false,false,1744,image-keyboard-response,8
true,14,2,0,2,true,d,false,true,0.0-2.0-0.57-0.516-3.516,1,1,1,68,false,stim,false,2,1886.0,2,1,2,15121,WMM1,2750262,false,false,1747,image-keyboard-response,9
true,14,2,0,2,true,d,false,true,0.0-2.0-0.57-0.517-3.517,1,1,1,68,false,stim,false,2,1005.0,2,1,2,15121,WMM1,2752773,false,false,1750,image-keyboard-response,10
true,14,2,0,2,true,d,false,true,0.0-2.0-0.57-0.518-3.518,1,1,1,68,false,stim,false,2,1525.0,2,1,1,15121,WMM1,2755806,false,false,1753,image-keyboard-response,11
true,14,0,0,0,true,q,false,true,0.0-2.0-0.57-0.519-3.519,1,1,1,81,false,stim,false,0,1945.0,2,1,0,15121,WMM1,2759258,false,false,1756,image-keyboard-response,12
true,14,0,0,0,true,q,false,true,0.0-2.0-0.57-0.520-3.520,1,1,1,81,false,stim,false,0,1907.0,2,1,0,15121,WMM1,2762672,false,false,1759,image-keyboard-response,13
true,14,2,0,2,true,d,false,true,0.0-2.0-0.57-0.521-3.521,1,1,1,68,false,stim,false,2,1188.0,2,1,1,15121,WMM1,2765368,false,false,1762,image-keyboard-response,14
true,14,2,0,2,true,d,false,true,0.0-2.0-0.58-0.522-3.522,1,1,1,68,false,stim,false,2,467.99999999953434,2,1,2,15121,WMM1,2767344,false,false,1765,image-keyboard-response,15
true,14,2,0,2,true,d,false,true,0.0-2.0-0.58-0.523-3.523,1,1,1,68,false,stim,false,2,557.0,2,1,1,15121,WMM1,2769408,false,false,1768,image-keyboard-response,16
true,14,2,0,2,true,d,false,true,0.0-2.0-0.58-0.524-3.524,1,1,1,68,false,stim,false,2,660.0,2,1,1,15121,WMM1,2771576,false,false,1771,image-keyboard-response,17
true,14,2,0,2,true,d,false,true,0.0-2.0-0.58-0.525-3.525,1,1,1,68,false,stim,false,2,940.0,2,1,2,15121,WMM1,2774025,false,false,1774,image-keyboard-response,18
true,14,0,0,0,true,q,false,true,0.0-2.0-0.58-0.526-3.526,1,1,1,81,false,stim,false,0,884.0,2,1,0,15121,WMM1,2776417,false,false,1777,image-keyboard-response,19
true,14,2,0,2,true,d,false,true,0.0-2.0-0.58-0.527-3.527,1,1,1,68,false,stim,false,2,908.0,2,1,2,15121,WMM1,2778833,false,false,1780,image-keyboard-response,20
true,14,0,0,0,true,q,false,true,0.0-2.0-0.58-0.528-3.528,1,1,1,81,false,stim,false,0,1004.0,2,0,0,15121,WMM1,2781346,false,false,1783,image-keyboard-response,21
true,14,0,0,0,true,q,false,true,0.0-2.0-0.58-0.529-3.529,1,1,1,81,false,stim,false,0,868.0,2,0,0,15121,WMM1,2783721,false,false,1786,image-keyboard-response,22
true,14,2,0,2,true,d,false,true,0.0-2.0-0.58-0.530-3.530,1,1,1,68,false,stim,false,2,853.0,2,0,1,15121,WMM1,2786081,false,false,1789,image-keyboard-response,23
true,14,2,0,2,true,d,false,true,0.0-2.0-0.59-0.531-3.531,1,1,1,68,false,stim,false,2,1547.0,2,0,2,15121,WMM1,2789137,false,false,1792,image-keyboard-response,24
true,14,0,0,0,true,q,false,true,0.0-2.0-0.59-0.532-3.532,1,1,1,81,false,stim,false,0,1996.0,2,0,0,15121,WMM1,2792641,false,false,1795,image-keyboard-response,25
true,14,0,0,0,true,q,false,true,0.0-2.0-0.59-0.533-3.533,1,1,1,81,false,stim,false,0,660.0,2,0,0,15121,WMM1,2794809,false,false,1798,image-keyboard-response,26
true,14,0,0,0,true,q,false,true,0.0-2.0-0.59-0.534-3.534,1,1,1,81,false,stim,false,0,1046.0,2,0,0,15121,WMM1,2797369,false,false,1801,image-keyboard-response,27
true,14,2,0,2,true,d,false,true,0.0-2.0-0.59-0.535-3.535,1,1,1,68,false,stim,false,2,1675.9999999995343,2,0,2,15121,WMM1,2800553,false,false,1804,image-keyboard-response,28
true,14,2,0,2,true,d,false,true,0.0-2.0-0.59-0.536-3.536,1,1,1,68,false,stim,false,2,1275.0,2,0,1,15121,WMM1,2803337,false,false,1807,image-keyboard-response,29
true,14,2,0,2,true,d,false,true,0.0-2.0-0.59-0.537-3.537,1,1,1,68,false,stim,false,2,765.0,2,0,1,15121,WMM1,2805609,false,false,1810,image-keyboard-response,30
true,15,2,1,1,false,z,false,true,0.0-2.0-0.59-0.538-3.538,0,0,0,68,true,stim,true,2,1388.0,2,0,2,15121,WMM1,2808506,false,true,1813,image-keyboard-response,1
true,15,2,1,1,false,z,false,false,0.0-2.0-0.59-0.539-3.539,0,0,0,68,false,stim,true,2,708.0,2,0,1,15121,WMM1,2810722,false,false,1816,image-keyboard-response,2
true,15,0,1,2,false,d,false,false,0.0-2.0-0.60-0.540-3.540,0,0,0,81,false,stim,true,0,1404.0,2,0,0,15121,WMM1,2813634,false,false,1819,image-keyboard-response,3
true,15,2,1,2,true,d,false,true,0.0-2.0-0.60-0.541-3.541,0,0,0,68,false,stim,false,0,2511.0,2,0,0,15121,WMM1,2817651,false,false,1822,image-keyboard-response,4
true,15,2,1,1,false,z,false,false,0.0-2.0-0.60-0.542-3.542,0,0,0,68,false,stim,true,2,2650.0,2,0,2,15121,WMM1,2821807,false,false,1825,image-keyboard-response,5
true,15,2,1,1,false,z,false,false,0.0-2.0-0.60-0.543-3.543,0,0,0,68,false,stim,true,2,1341.0,2,0,1,15121,WMM1,2824656,false,false,1828,image-keyboard-response,6
true,15,0,1,2,false,d,false,false,0.0-2.0-0.60-0.544-3.544,0,0,0,81,false,stim,true,0,1876.0,2,0,0,15121,WMM1,2828040,false,false,1831,image-keyboard-response,7
true,15,0,1,1,false,z,true,false,0.0-2.0-0.60-0.545-3.545,0,0,0,81,false,stim,false,2,1332.0,2,0,1,15121,WMM1,2830880,false,false,1834,image-keyboard-response,8
true,15,1,1,1,true,z,false,true,0.0-2.0-0.60-0.546-3.546,0,0,0,90,false,stim,false,2,1958.9999999995343,2,0,1,15121,WMM1,2834346,false,false,1837,image-keyboard-response,9
true,15,0,1,1,false,z,true,false,0.0-2.0-0.60-0.547-3.547,0,0,0,81,false,stim,false,2,2587.0,2,0,2,15121,WMM1,2838440,false,false,1840,image-keyboard-response,10
true,15,1,1,1,true,z,false,true,0.0-2.0-0.60-0.548-3.548,0,0,0,90,false,stim,false,2,1101.0,2,0,2,15121,WMM1,2841048,false,false,1843,image-keyboard-response,11
true,15,1,1,2,false,d,true,true,0.0-2.0-0.61-0.549-3.549,0,0,0,90,false,stim,false,0,1749.0,2,0,0,15121,WMM1,2844306,false,true,1846,image-keyboard-response,12
true,15,1,1,2,false,d,true,false,0.0-2.0-0.61-0.550-3.550,0,0,0,90,false,stim,false,0,444.0,2,0,0,15121,WMM1,2846256,false,false,1849,image-keyboard-response,13
true,15,1,1,1,true,z,false,true,0.0-2.0-0.61-0.551-3.551,0,0,0,90,false,stim,false,2,789.0000000004657,2,0,2,15121,WMM1,2848552,false,false,1852,image-keyboard-response,14
true,15,1,1,1,true,z,false,true,0.0-2.0-0.61-0.552-3.552,0,0,0,90,false,stim,false,2,1004.0,2,0,1,15121,WMM1,2851065,false,false,1855,image-keyboard-response,15
true,15,1,1,1,true,z,false,false,0.0-2.0-0.61-0.553-3.553,0,0,0,90,false,stim,false,2,781.0,2,0,2,15121,WMM1,2853352,false,true,1858,image-keyboard-response,16
true,15,0,1,1,false,z,true,false,0.0-2.0-0.61-0.554-3.554,0,0,0,81,false,stim,false,2,2646.9999999995343,2,0,2,15121,WMM1,2857506,false,false,1861,image-keyboard-response,17
true,15,1,1,1,true,z,false,true,0.0-2.0-0.61-0.555-3.555,0,0,0,90,false,stim,false,2,2275.0,2,0,1,15121,WMM1,2861289,false,false,1864,image-keyboard-response,18
true,15,1,1,1,true,z,false,true,0.0-2.0-0.61-0.556-3.556,0,0,0,90,false,stim,false,2,1638.0,2,0,1,15121,WMM1,2864434,false,false,1867,image-keyboard-response,19
true,15,1,1,2,false,d,true,false,0.0-2.0-0.61-0.557-3.557,0,0,0,90,false,stim,false,0,716.0,2,0,0,15121,WMM1,2866657,false,false,1870,image-keyboard-response,20
true,15,1,1,1,true,z,false,true,0.0-2.0-0.62-0.558-3.558,0,0,0,90,false,stim,false,2,2722.0000000004657,2,0,1,15121,WMM1,2870888,false,false,1873,image-keyboard-response,21
true,15,0,1,2,false,d,false,false,0.0-2.0-0.62-0.559-3.559,0,0,0,81,false,stim,true,0,1573.0,2,0,0,15121,WMM1,2873969,false,false,1876,image-keyboard-response,22
true,15,2,1,1,false,z,false,false,0.0-2.0-0.62-0.560-3.560,0,0,0,68,false,stim,true,2,1869.0,2,0,2,15121,WMM1,2877346,false,false,1879,image-keyboard-response,23
true,15,2,1,2,true,d,false,true,0.0-2.0-0.62-0.561-3.561,0,0,0,68,false,stim,false,0,2300.0,2,0,0,15121,WMM1,2881154,false,false,1882,image-keyboard-response,24
true,15,1,1,1,true,z,false,true,0.0-2.0-0.62-0.562-3.562,0,0,0,90,false,stim,false,2,2161.0,2,0,1,15121,WMM1,2884824,false,false,1885,image-keyboard-response,25
true,15,1,1,1,true,z,false,true,0.0-2.0-0.62-0.563-3.563,0,0,0,90,false,stim,false,2,1372.0,2,0,2,15121,WMM1,2887705,false,false,1888,image-keyboard-response,26
true,15,1,1,1,true,z,false,true,0.0-2.0-0.62-0.564-3.564,0,0,0,90,false,stim,false,2,779.0,2,0,2,15121,WMM1,2889992,false,false,1891,image-keyboard-response,27
true,15,2,1,2,true,d,false,true,0.0-2.0-0.62-0.565-3.565,0,0,0,68,false,stim,false,0,1580.0000000004657,2,0,0,15121,WMM1,2893081,false,false,1894,image-keyboard-response,28
true,15,1,1,1,true,z,false,true,0.0-2.0-0.62-0.566-3.566,0,0,0,90,false,stim,false,2,1043.0,2,0,1,15121,WMM1,2895633,false,false,1897,image-keyboard-response,29
true,15,1,1,1,true,z,false,false,0.0-2.0-0.63-0.567-3.567,0,0,0,90,false,stim,false,2,638.0,2,0,2,15121,WMM1,2897778,false,true,1900,image-keyboard-response,30
true,15,2,1,2,true,d,false,true,0.0-2.0-0.63-0.568-3.568,0,0,0,68,false,stim,false,0,1701.0,2,0,0,15121,WMM1,2900993,false,false,1903,image-keyboard-response,31
true,15,1,1,1,true,z,false,false,0.0-2.0-0.63-0.569-3.569,0,0,0,90,false,stim,false,2,1565.0,2,0,1,15121,WMM1,2904065,false,true,1906,image-keyboard-response,32
true,15,0,1,1,false,z,true,false,0.0-2.0-0.63-0.570-3.570,0,0,0,81,false,stim,false,2,2924.0,2,0,2,15121,WMM1,2908497,false,false,1909,image-keyboard-response,33
false,15,-1,1,1,false,z,true,false,0.0-2.0-0.63-0.571-3.571,0,0,0,,false,stim,false,2,,2,0,1,15121,WMM1,2913006,false,false,1912,image-keyboard-response,34
true,15,2,1,2,true,d,false,true,0.0-2.0-0.63-0.572-3.572,0,0,0,68,false,stim,false,0,2399.0,2,0,0,15121,WMM1,2916912,false,false,1915,image-keyboard-response,35
true,15,1,1,1,true,z,false,true,0.0-2.0-0.63-0.573-3.573,0,0,0,90,false,stim,false,2,2150.0,2,0,2,15121,WMM1,2920570,false,false,1918,image-keyboard-response,36
false,15,-1,1,2,false,d,true,false,0.0-2.0-0.63-0.574-3.574,0,0,0,,false,stim,false,0,,2,0,0,15121,WMM1,2925079,false,false,1921,image-keyboard-response,37
true,15,1,1,1,true,z,false,true,0.0-2.0-0.63-0.575-3.575,0,0,0,90,false,stim,false,2,2026.0,2,0,1,15121,WMM1,2928612,false,false,1924,image-keyboard-response,38
true,16,1,2,2,false,d,false,false,0.0-2.0-0.64-0.576-3.576,0,0,0,90,true,stim,true,1,1779.0,2,0,2,15121,WMM1,2931900,false,false,1927,image-keyboard-response,1
true,16,1,2,0,false,q,false,false,0.0-2.0-0.64-0.577-3.577,0,0,0,90,false,stim,true,1,2189.0,2,0,1,15121,WMM1,2935596,false,false,1930,image-keyboard-response,2
true,16,2,2,1,false,z,false,false,0.0-2.0-0.64-0.578-3.578,0,0,0,68,false,stim,true,2,2156.0,2,0,0,15121,WMM1,2939260,false,false,1933,image-keyboard-response,3
true,16,0,2,1,false,z,true,false,0.0-2.0-0.64-0.579-3.579,0,0,0,81,false,stim,false,2,1565.0000000004657,2,0,0,15121,WMM1,2942332,false,false,1936,image-keyboard-response,4
false,16,-1,2,2,false,d,true,false,0.0-2.0-0.64-0.580-3.580,0,0,0,,false,stim,false,1,,2,0,2,15121,WMM1,2946841,false,false,1939,image-keyboard-response,5
true,16,1,2,1,true,z,false,true,0.0-2.0-0.64-0.581-3.581,0,0,0,90,false,stim,false,2,1773.0,2,0,0,15121,WMM1,2950122,false,false,1942,image-keyboard-response,6
true,16,0,2,0,true,q,false,true,0.0-2.0-0.64-0.582-3.582,0,0,0,81,false,stim,false,1,1949.0,2,0,1,15121,WMM1,2953578,false,false,1945,image-keyboard-response,7
true,16,0,2,2,false,d,true,false,0.0-2.0-0.64-0.583-3.583,0,0,0,81,false,stim,false,1,1702.0,2,0,2,15121,WMM1,2956787,false,false,1948,image-keyboard-response,8
true,16,0,2,0,true,q,false,true,0.0-2.0-0.64-0.584-3.584,0,0,0,81,false,stim,false,1,1587.9999999995343,2,0,1,15121,WMM1,2959882,false,false,1951,image-keyboard-response,9
true,16,0,2,0,true,q,false,true,0.0-2.0-0.65-0.585-3.585,0,0,0,81,false,stim,false,1,852.0,2,0,1,15121,WMM1,2962242,false,false,1954,image-keyboard-response,10
true,16,2,2,2,true,d,false,true,0.0-2.0-0.65-0.586-3.586,0,0,0,68,false,stim,false,1,2556.0000000004657,2,0,2,15121,WMM1,2966306,false,false,1957,image-keyboard-response,11
true,16,2,2,2,true,d,false,false,0.0-2.0-0.65-0.587-3.587,0,0,0,68,false,stim,false,1,2034.0,2,0,2,15121,WMM1,2969846,false,true,1960,image-keyboard-response,12
true,16,0,2,0,true,q,false,true,0.0-2.0-0.65-0.588-3.588,0,0,0,81,false,stim,false,1,1821.9999999995343,2,0,1,15121,WMM1,2973176,false,false,1963,image-keyboard-response,13
true,16,1,2,1,true,z,false,true,0.0-2.0-0.65-0.589-3.589,0,0,0,90,false,stim,false,2,2649.0,2,0,0,15121,WMM1,2977331,false,false,1966,image-keyboard-response,14
true,16,0,2,0,true,q,false,true,0.0-2.0-0.65-0.590-3.590,0,0,0,81,false,stim,false,1,2765.0000000004657,2,0,1,15121,WMM1,2981604,false,false,1969,image-keyboard-response,15
true,16,2,2,2,true,d,false,true,0.0-2.0-0.65-0.591-3.591,0,0,0,68,false,stim,false,1,2270.0,2,0,2,15121,WMM1,2985382,false,false,1972,image-keyboard-response,16
true,16,1,2,1,true,z,false,true,0.0-2.0-0.65-0.592-3.592,0,0,0,90,false,stim,false,2,1986.0,2,0,0,15121,WMM1,2988876,false,false,1975,image-keyboard-response,17
true,16,1,2,1,true,z,false,true,0.0-2.0-0.65-0.593-3.593,0,0,0,90,false,stim,false,2,2309.9999999995343,2,0,0,15121,WMM1,2992692,false,false,1978,image-keyboard-response,18
true,16,0,2,0,true,q,false,true,0.0-2.0-0.66-0.594-3.594,0,0,0,81,false,stim,false,1,1844.9999999995343,2,0,1,15121,WMM1,2996044,false,false,1981,image-keyboard-response,19
true,16,0,2,0,true,q,false,true,0.0-2.0-0.66-0.595-3.595,0,0,0,81,false,stim,false,1,2325.0,2,0,1,15121,WMM1,2999876,false,false,1984,image-keyboard-response,20
true,16,2,2,2,true,d,false,true,0.0-2.0-0.66-0.596-3.596,0,0,0,68,false,stim,false,1,1412.0,2,0,2,15121,WMM1,3002797,false,false,1987,image-keyboard-response,21
true,16,2,2,2,true,d,false,true,0.0-2.0-0.66-0.597-3.597,0,0,0,68,false,stim,false,1,612.0,2,0,2,15121,WMM1,3004916,false,false,1990,image-keyboard-response,22
true,16,0,2,0,true,q,false,true,0.0-2.0-0.66-0.598-3.598,0,0,0,81,false,stim,false,1,1981.0,2,0,1,15121,WMM1,3008405,false,false,1993,image-keyboard-response,23
true,16,2,2,2,true,d,false,true,0.0-2.0-0.66-0.599-3.599,0,0,0,68,false,stim,false,1,2119.0,2,0,2,15121,WMM1,3012032,false,false,1996,image-keyboard-response,24
true,16,1,2,1,true,z,false,true,0.0-2.0-0.66-0.600-3.600,0,0,0,90,false,stim,false,2,1709.0,2,0,0,15121,WMM1,3015248,false,false,1999,image-keyboard-response,25
true,16,1,2,1,true,z,false,true,0.0-2.0-0.66-0.601-3.601,0,0,0,90,false,stim,false,2,1822.0000000004657,2,0,0,15121,WMM1,3018584,false,false,2002,image-keyboard-response,26
true,16,1,2,1,true,z,false,true,0.0-2.0-0.66-0.602-3.602,0,0,0,90,false,stim,false,2,766.0,2,0,0,15121,WMM1,3020858,false,false,2005,image-keyboard-response,27
true,16,0,2,0,true,q,false,true,0.0-2.0-0.67-0.603-3.603,0,0,0,81,false,stim,false,1,2091.0,2,0,1,15121,WMM1,3024456,false,false,2008,image-keyboard-response,28
true,16,2,2,2,true,d,false,true,0.0-2.0-0.67-0.604-3.604,0,0,0,68,false,stim,false,1,1932.0,2,0,2,15121,WMM1,3027896,false,false,2011,image-keyboard-response,29
true,16,2,2,2,true,d,false,true,0.0-2.0-0.67-0.605-3.605,0,0,0,68,false,stim,false,1,1373.9999999995343,2,0,2,15121,WMM1,3030777,false,false,2014,image-keyboard-response,30
true,17,1,1,2,false,d,false,false,0.0-2.0-0.67-0.606-3.606,0,0,0,90,true,stim,true,1,2543.0,2,0,0,15121,WMM1,3034826,false,false,2017,image-keyboard-response,1
false,17,-1,1,2,false,d,true,false,0.0-2.0-0.67-0.607-3.607,0,0,0,,false,stim,false,1,,2,0,0,15121,WMM1,3039335,false,false,2020,image-keyboard-response,2
false,17,-1,1,2,false,d,true,false,0.0-2.0-0.67-0.608-3.608,0,0,0,,false,stim,false,1,,2,0,0,15121,WMM1,3043872,false,false,2023,image-keyboard-response,3
false,17,-1,1,2,false,d,true,false,0.0-2.0-0.67-0.609-3.609,0,0,0,,false,stim,false,0,,2,0,1,15121,WMM1,3060819,false,false,2027,image-keyboard-response,4
true,17,0,1,2,false,d,false,false,0.0-2.0-0.67-0.610-3.610,0,0,0,81,false,stim,true,0,513.0,2,0,1,15121,WMM1,3062839,false,false,2030,image-keyboard-response,5
false,17,-1,1,1,false,z,true,false,0.0-2.0-0.67-0.611-3.611,0,0,0,,false,stim,false,2,,2,0,2,15121,WMM1,3067347,false,false,2033,image-keyboard-response,6
true,17,1,1,2,false,d,false,false,0.0-2.0-0.68-0.612-3.612,0,0,0,90,false,stim,true,1,2407.0,2,0,0,15121,WMM1,3071262,false,false,2036,image-keyboard-response,7
false,17,-1,1,1,false,z,true,false,0.0-2.0-0.68-0.613-3.613,0,0,0,,false,stim,false,2,,2,0,2,15121,WMM1,3075772,false,false,2039,image-keyboard-response,8
true,17,0,1,2,false,d,false,false,0.0-2.0-0.68-0.614-3.614,0,0,0,81,false,stim,true,0,1647.0,2,0,1,15121,WMM1,3078927,false,false,2042,image-keyboard-response,9
true,17,2,1,2,true,d,false,true,0.0-2.0-0.68-0.615-3.615,0,0,0,68,false,stim,false,0,1643.9999999995343,2,0,1,15121,WMM1,3082079,false,false,2045,image-keyboard-response,10
true,17,0,1,2,false,d,true,false,0.0-2.0-0.68-0.616-3.616,0,0,0,81,false,stim,false,1,1661.0,2,0,0,15121,WMM1,3085247,false,false,2048,image-keyboard-response,11
true,17,2,1,2,true,d,false,true,0.0-2.0-0.68-0.617-3.617,0,0,0,68,false,stim,false,0,1774.0,2,0,1,15121,WMM1,3088528,false,false,2051,image-keyboard-response,12
