answered,blockNum,choice,condition,corResp,correct,correct_response,explo,fb,internal_node_id,isStable_1,isStable_2,isStable_3,key_press,newBlock,part,persev,persevResp,rt,sessNum,stableAS,stimulus,subject,task,time_elapsed,training,trap,trial_index,trial_type,trialsInBlock
true,1,0,0,0,true,q,false,true,0.0-2.0-0.0-0.0-3.0,0,0,0,81,true,stim,false,-1,1536.0,1,0,2,15121,WMM2,493573,false,false,197,image-keyboard-response,1
true,1,0,0,1,false,z,true,false,0.0-2.0-0.0-0.1-3.1,0,0,0,81,false,stim,false,-1,1685.0,1,0,1,15121,WMM2,496765,false,false,200,image-keyboard-response,2
true,1,0,0,0,true,q,false,true,0.0-2.0-0.0-0.2-3.2,0,0,0,81,false,stim,false,-1,2424.0,1,0,2,15121,WMM2,500696,false,false,203,image-keyboard-response,3
true,1,0,0,1,false,z,true,false,0.0-2.0-0.0-0.3-3.3,0,0,0,81,false,stim,false,-1,1061.0,1,0,0,15121,WMM2,503264,false,false,206,image-keyboard-response,4
true,1,1,0,1,true,z,false,true,0.0-2.0-0.0-0.4-3.4,0,0,0,90,false,stim,false,-1,1825.0,1,0,0,15121,WMM2,506591,false,false,209,image-keyboard-response,5
true,1,0,0,0,true,q,false,true,0.0-2.0-0.0-0.5-3.5,0,0,0,81,false,stim,false,-1,2482.0,1,0,2,15121,WMM2,510579,false,false,212,image-keyboard-response,6
true,1,0,0,1,false,z,true,false,0.0-2.0-0.0-0.6-3.6,0,0,0,81,false,stim,false,-1,1092.9999999999418,1,0,1,15121,WMM2,513183,false,false,215,image-keyboard-response,7
true,1,2,0,1,false,z,true,false,0.0-2.0-0.0-0.7-3.7,0,0,0,68,false,stim,false,-1,870.0,1,0,1,15121,WMM2,515562,false,false,218,image-keyboard-response,8
true,1,1,0,1,true,z,false,true,0.0-2.0-0.0-0.8-3.8,0,0,0,90,false,stim,false,-1,2519.0,1,0,0,15121,WMM2,519590,false,false,221,image-keyboard-response,9
true,1,1,0,1,true,z,false,false,0.0-2.0-0.1-0.9-3.9,0,0,0,90,false,stim,false,-1,2298.999999999942,1,0,1,15121,WMM2,523400,false,true,224,image-keyboard-response,10
true,1,0,0,0,true,q,false,true,0.0-2.0-0.1-0.10-3.10,0,0,0,81,false,stim,false,-1,2506.0,1,0,2,15121,WMM2,527414,false,false,227,image-keyboard-response,11
true,1,0,0,0,true,q,false,true,0.0-2.0-0.1-0.11-3.11,0,0,0,81,false,stim,false,-1,975.0,1,0,2,15121,WMM2,529895,false,false,230,image-keyboard-response,12
true,1,1,0,1,true,z,false,true,0.0-2.0-0.1-0.12-3.12,0,0,0,90,false,stim,false,-1,2579.0,1,0,0,15121,WMM2,533980,false,false,233,image-keyboard-response,13
false,1,-1,0,1,false,z,false,false,0.0-2.0-0.1-0.13-3.13,0,0,0,,false,stim,true,-1,,1,0,1,15121,WMM2,538490,false,false,236,image-keyboard-response,14
true,1,0,0,0,true,q,false,false,0.0-2.0-0.1-0.14-3.14,0,0,0,81,false,stim,false,-1,2410.0,1,0,2,15121,WMM2,542408,false,true,239,image-keyboard-response,15
true,1,1,0,1,true,z,false,true,0.0-2.0-0.1-0.15-3.15,0,0,0,90,false,stim,false,-1,2653.0,1,0,0,15121,WMM2,546568,false,false,242,image-keyboard-response,16
true,1,1,0,1,true,z,false,true,0.0-2.0-0.1-0.16-3.16,0,0,0,90,false,stim,false,-1,1575.0,1,0,0,15121,WMM2,549648,false,false,245,image-keyboard-response,17
true,1,1,0,1,true,z,false,true,0.0-2.0-0.1-0.17-3.17,0,0,0,90,false,stim,false,-1,2388.0,1,0,1,15121,WMM2,553544,false,false,248,image-keyboard-response,18
true,1,1,0,1,true,z,false,true,0.0-2.0-0.2-0.18-3.18,0,0,0,90,false,stim,false,-1,1901.0,1,0,0,15121,WMM2,556952,false,false,251,image-keyboard-response,19
true,1,1,0,1,true,z,false,false,0.0-2.0-0.2-0.19-3.19,0,0,0,90,false,stim,false,-1,744.0000000001164,1,0,0,15121,WMM2,559201,false,true,254,image-keyboard-response,20
true,1,1,0,1,true,z,false,true,0.0-2.0-0.2-0.20-3.20,0,0,0,90,false,stim,false,-1,2021.9999999998836,1,0,1,15121,WMM2,562728,false,false,257,image-keyboard-response,21
true,1,1,0,1,true,z,false,true,0.0-2.0-0.2-0.21-3.21,0,0,0,90,false,stim,false,-1,1462.0,1,1,1,15121,WMM2,565697,false,false,260,image-keyboard-response,22
true,1,1,0,1,true,z,false,true,0.0-2.0-0.2-0.22-3.22,0,0,0,90,false,stim,false,-1,2029.0,1,1,0,15121,WMM2,569234,false,false,263,image-keyboard-response,23
true,1,0,0,0,true,q,false,true,0.0-2.0-0.2-0.23-3.23,0,0,0,81,false,stim,false,-1,1957.0,1,0,2,15121,WMM2,572698,false,false,266,image-keyboard-response,24
true,1,1,0,1,true,z,false,true,0.0-2.0-0.2-0.24-3.24,0,0,0,90,false,stim,false,-1,2181.0,1,1,1,15121,WMM2,576386,false,false,269,image-keyboard-response,25
true,1,0,0,0,true,q,false,true,0.0-2.0-0.2-0.25-3.25,0,0,0,81,false,stim,false,-1,2227.0,1,0,2,15121,WMM2,580118,false,false,272,image-keyboard-response,26
true,1,0,0,0,true,q,false,true,0.0-2.0-0.2-0.26-3.26,0,0,0,81,false,stim,false,-1,1245.0,1,0,2,15121,WMM2,582871,false,false,275,image-keyboard-response,27
true,1,1,0,1,true,z,false,false,0.0-2.0-0.3-0.27-3.27,0,0,0,90,false,stim,false,-1,2220.0,1,1,0,15121,WMM2,586598,false,true,278,image-keyboard-response,28
true,1,1,0,1,true,z,false,true,0.0-2.0-0.3-0.28-3.28,0,0,0,90,false,stim,false,-1,798.0,1,1,0,15121,WMM2,588902,false,false,281,image-keyboard-response,29
false,1,-1,0,1,false,z,false,false,0.0-2.0-0.3-0.29-3.29,0,0,0,,false,stim,true,-1,,1,1,1,15121,WMM2,593409,false,false,284,image-keyboard-response,30
false,1,-1,0,1,false,z,false,false,0.0-2.0-0.3-0.30-3.30,0,0,0,,false,stim,true,-1,,1,1,0,15121,WMM2,597917,false,false,287,image-keyboard-response,31
false,2,-1,2,2,false,d,true,false,0.0-2.0-0.3-0.31-3.31,1,1,0,,true,stim,false,0,,1,0,2,15121,WMM2,602425,false,false,290,image-keyboard-response,1
true,2,0,2,2,false,d,false,false,0.0-2.0-0.3-0.32-3.32,1,1,0,81,false,stim,true,0,586.0,1,0,2,15121,WMM2,604517,false,false,293,image-keyboard-response,2
true,2,2,2,2,true,d,false,true,0.0-2.0-0.3-0.33-3.33,1,1,0,68,false,stim,false,0,2758.0,1,0,2,15121,WMM2,608781,false,false,296,image-keyboard-response,3
false,2,-1,2,1,false,z,true,false,0.0-2.0-0.3-0.34-3.34,1,1,0,,false,stim,false,1,,1,1,1,15121,WMM2,613288,false,false,299,image-keyboard-response,4
true,2,0,2,1,false,z,true,false,0.0-2.0-0.3-0.35-3.35,1,1,0,81,false,stim,false,1,1670.0,1,1,1,15121,WMM2,616467,false,false,302,image-keyboard-response,5
true,2,2,2,2,true,d,false,false,0.0-2.0-0.4-0.36-3.36,1,1,0,68,false,stim,false,0,2270.0,1,0,2,15121,WMM2,620243,false,true,305,image-keyboard-response,6
false,2,-1,2,1,false,z,true,false,0.0-2.0-0.4-0.37-3.37,1,1,0,,false,stim,false,1,,1,1,0,15121,WMM2,624748,false,false,308,image-keyboard-response,7
true,2,0,2,1,false,z,true,false,0.0-2.0-0.4-0.38-3.38,1,1,0,81,false,stim,false,1,957.9999999998836,1,1,0,15121,WMM2,627214,false,false,311,image-keyboard-response,8
true,2,1,2,2,false,d,true,false,0.0-2.0-0.4-0.39-3.39,1,1,0,90,false,stim,false,0,2218.0,1,0,2,15121,WMM2,630938,false,false,314,image-keyboard-response,9
true,2,1,2,1,true,z,false,true,0.0-2.0-0.4-0.40-3.40,1,1,0,90,false,stim,false,1,1614.0,1,1,1,15121,WMM2,634058,false,false,317,image-keyboard-response,10
true,2,1,2,1,true,z,false,true,0.0-2.0-0.4-0.41-3.41,1,1,0,90,false,stim,false,1,2175.0,1,1,0,15121,WMM2,637738,false,false,320,image-keyboard-response,11
true,2,2,2,2,true,d,false,true,0.0-2.0-0.4-0.42-3.42,1,1,0,68,false,stim,false,0,2518.0,1,0,2,15121,WMM2,641762,false,false,323,image-keyboard-response,12
true,2,1,2,1,true,z,false,false,0.0-2.0-0.4-0.43-3.43,1,1,0,90,false,stim,false,1,2442.0,1,1,1,15121,WMM2,645711,false,true,326,image-keyboard-response,13
true,2,1,2,1,true,z,false,true,0.0-2.0-0.4-0.44-3.44,1,1,0,90,false,stim,false,1,791.0,1,1,1,15121,WMM2,648007,false,false,329,image-keyboard-response,14
true,2,2,2,2,true,d,false,true,0.0-2.0-0.5-0.45-3.45,1,1,0,68,false,stim,false,0,1709.0,1,0,2,15121,WMM2,651223,false,false,332,image-keyboard-response,15
false,2,-1,2,2,false,d,true,false,0.0-2.0-0.5-0.46-3.46,1,1,0,,false,stim,false,0,,1,0,2,15121,WMM2,655730,false,false,335,image-keyboard-response,16
true,2,1,2,1,true,z,false,true,0.0-2.0-0.5-0.47-3.47,1,1,0,90,false,stim,false,1,2717.0,1,1,0,15121,WMM2,659955,false,false,338,image-keyboard-response,17
true,2,1,2,1,true,z,false,true,0.0-2.0-0.5-0.48-3.48,1,1,0,90,false,stim,false,1,2414.0000000001164,1,1,1,15121,WMM2,663875,false,false,341,image-keyboard-response,18
true,2,1,2,1,true,z,false,true,0.0-2.0-0.5-0.49-3.49,1,1,0,90,false,stim,false,1,2220.0000000001164,1,1,0,15121,WMM2,667601,false,false,344,image-keyboard-response,19
true,2,1,2,1,true,z,false,true,0.0-2.0-0.5-0.50-3.50,1,1,0,90,false,stim,false,1,2216.9999999998836,1,1,1,15121,WMM2,671324,false,false,347,image-keyboard-response,20
true,2,1,2,1,true,z,false,true,0.0-2.0-0.5-0.51-3.51,1,1,0,90,false,stim,false,1,2577.0,1,1,0,15121,WMM2,675408,false,false,350,image-keyboard-response,21
true,2,1,2,1,true,z,false,true,0.0-2.0-0.5-0.52-3.52,1,1,0,90,false,stim,false,1,2615.0000000001164,1,1,1,15121,WMM2,679530,false,false,353,image-keyboard-response,22
true,2,2,2,2,true,d,false,true,0.0-2.0-0.5-0.53-3.53,1,1,0,68,false,stim,false,0,1957.0,1,0,2,15121,WMM2,682994,false,false,356,image-keyboard-response,23
true,2,1,2,1,true,z,false,false,0.0-2.0-0.6-0.54-3.54,1,1,0,90,false,stim,false,1,2493.0,1,1,0,15121,WMM2,686997,false,true,359,image-keyboard-response,24
true,2,1,2,1,true,z,false,true,0.0-2.0-0.6-0.55-3.55,1,1,0,90,false,stim,false,1,520.0,1,1,0,15121,WMM2,689022,false,false,362,image-keyboard-response,25
true,2,1,2,1,true,z,false,false,0.0-2.0-0.6-0.56-3.56,1,1,0,90,false,stim,false,1,1751.0,1,1,1,15121,WMM2,692277,false,true,365,image-keyboard-response,26
true,2,2,2,2,true,d,false,true,0.0-2.0-0.6-0.57-3.57,1,1,0,68,false,stim,false,0,2390.0,1,0,2,15121,WMM2,696173,false,false,368,image-keyboard-response,27
true,2,2,2,2,true,d,false,true,0.0-2.0-0.6-0.58-3.58,1,1,0,68,false,stim,false,0,676.0,1,1,2,15121,WMM2,698358,false,false,371,image-keyboard-response,28
true,2,1,2,1,true,z,false,true,0.0-2.0-0.6-0.59-3.59,1,1,0,90,false,stim,false,1,2540.0,1,0,0,15121,WMM2,702404,false,false,374,image-keyboard-response,29
true,2,2,2,2,true,d,false,true,0.0-2.0-0.6-0.60-3.60,1,1,0,68,false,stim,false,0,2420.9999999998836,1,1,2,15121,WMM2,706331,false,false,377,image-keyboard-response,30
true,2,1,2,1,true,z,false,true,0.0-2.0-0.6-0.61-3.61,1,1,0,90,false,stim,false,1,2983.0,1,1,1,15121,WMM2,710820,false,false,380,image-keyboard-response,31
true,2,1,2,1,true,z,false,false,0.0-2.0-0.6-0.62-3.62,1,1,0,90,false,stim,false,1,683.0,1,1,1,15121,WMM2,713011,false,true,383,image-keyboard-response,32
true,2,1,2,1,true,z,false,true,0.0-2.0-0.7-0.63-3.63,1,1,0,90,false,stim,false,1,536.0,1,1,1,15121,WMM2,715052,false,false,386,image-keyboard-response,33
true,2,1,2,1,true,z,false,true,0.0-2.0-0.7-0.64-3.64,1,1,0,90,false,stim,false,1,2695.0,1,0,0,15121,WMM2,719252,false,false,389,image-keyboard-response,34
true,2,2,2,2,true,d,false,true,0.0-2.0-0.7-0.65-3.65,1,1,0,68,false,stim,false,0,2362.0,1,1,2,15121,WMM2,723121,false,false,392,image-keyboard-response,35
true,2,2,2,2,true,d,false,true,0.0-2.0-0.7-0.66-3.66,1,1,0,68,false,stim,false,0,741.0,1,1,2,15121,WMM2,725370,false,false,395,image-keyboard-response,36
true,2,1,2,1,true,z,false,true,0.0-2.0-0.7-0.67-3.67,1,1,0,90,false,stim,false,1,1917.9999999998836,1,0,0,15121,WMM2,728794,false,false,398,image-keyboard-response,37
true,3,1,2,2,false,d,false,false,0.0-2.0-0.7-0.68-3.68,0,1,1,90,true,stim,true,1,548.0,1,0,0,15121,WMM2,730850,false,false,401,image-keyboard-response,1
true,3,2,2,2,true,d,false,true,0.0-2.0-0.7-0.69-3.69,0,1,1,68,false,stim,false,2,2525.0,1,1,2,15121,WMM2,734884,false,false,404,image-keyboard-response,2
true,3,1,2,1,true,z,false,true,0.0-2.0-0.7-0.70-3.70,0,1,1,90,false,stim,false,1,2740.0,1,1,1,15121,WMM2,739129,false,false,407,image-keyboard-response,3
true,3,1,2,1,true,z,false,true,0.0-2.0-0.7-0.71-3.71,0,1,1,90,false,stim,false,1,662.0,1,1,1,15121,WMM2,741297,false,false,410,image-keyboard-response,4
true,3,1,2,2,false,d,false,false,0.0-2.0-0.8-0.72-3.72,0,1,1,90,false,stim,true,1,2425.9999999998836,1,0,0,15121,WMM2,745230,false,false,413,image-keyboard-response,5
true,3,1,2,2,false,d,false,false,0.0-2.0-0.8-0.73-3.73,0,1,1,90,false,stim,true,1,439.0,1,0,0,15121,WMM2,747177,false,false,416,image-keyboard-response,6
false,3,-1,2,2,false,d,true,false,0.0-2.0-0.8-0.74-3.74,0,1,1,,false,stim,false,2,,1,1,2,15121,WMM2,751685,false,false,419,image-keyboard-response,7
true,3,1,2,1,true,z,false,true,0.0-2.0-0.8-0.75-3.75,0,1,1,90,false,stim,false,1,2420.0,1,1,1,15121,WMM2,755611,false,false,422,image-keyboard-response,8
true,3,1,2,2,false,d,false,false,0.0-2.0-0.8-0.76-3.76,0,1,1,90,false,stim,true,1,1511.0,1,0,0,15121,WMM2,758628,false,false,425,image-keyboard-response,9
true,3,1,2,1,true,z,false,true,0.0-2.0-0.8-0.77-3.77,0,1,1,90,false,stim,false,1,2403.9999999998836,1,1,1,15121,WMM2,762540,false,false,428,image-keyboard-response,10
true,3,2,2,2,true,d,false,true,0.0-2.0-0.8-0.78-3.78,0,1,1,68,false,stim,false,2,2197.0,1,1,2,15121,WMM2,766242,false,false,431,image-keyboard-response,11
true,3,2,2,2,true,d,false,true,0.0-2.0-0.8-0.79-3.79,0,1,1,68,false,stim,false,2,2709.0,1,1,2,15121,WMM2,770457,false,false,434,image-keyboard-response,12
true,3,1,2,1,true,z,false,true,0.0-2.0-0.8-0.80-3.80,0,1,1,90,false,stim,false,1,2234.0000000001164,1,1,1,15121,WMM2,774198,false,false,437,image-keyboard-response,13
false,3,-1,2,2,false,d,true,false,0.0-2.0-0.9-0.81-3.81,0,1,1,,false,stim,false,2,,1,1,2,15121,WMM2,778707,false,false,440,image-keyboard-response,14
true,3,1,2,1,true,z,false,true,0.0-2.0-0.9-0.82-3.82,0,1,1,90,false,stim,false,1,2557.0,1,1,1,15121,WMM2,782771,false,false,443,image-keyboard-response,15
true,3,2,2,2,true,d,false,false,0.0-2.0-0.9-0.83-3.83,0,1,1,68,false,stim,false,1,1670.0,1,0,0,15121,WMM2,785947,false,true,446,image-keyboard-response,16
false,3,-1,2,1,false,z,true,false,0.0-2.0-0.9-0.84-3.84,0,1,1,,false,stim,false,1,,1,1,1,15121,WMM2,790456,false,false,449,image-keyboard-response,17
true,3,0,2,2,false,d,true,false,0.0-2.0-0.9-0.85-3.85,0,1,1,81,false,stim,false,1,2235.9999999998836,1,0,0,15121,WMM2,794199,false,false,452,image-keyboard-response,18
true,3,2,2,2,true,d,false,true,0.0-2.0-0.9-0.86-3.86,0,1,1,68,false,stim,false,2,2262.0,1,1,2,15121,WMM2,797967,false,false,455,image-keyboard-response,19
true,3,2,2,2,true,d,false,true,0.0-2.0-0.9-0.87-3.87,0,1,1,68,false,stim,false,2,918.0,1,1,2,15121,WMM2,800391,false,false,458,image-keyboard-response,20
true,3,1,2,1,true,z,false,true,0.0-2.0-0.9-0.88-3.88,0,1,1,90,false,stim,false,1,2165.0,1,1,1,15121,WMM2,804063,false,false,461,image-keyboard-response,21
true,3,1,2,2,false,d,false,false,0.0-2.0-0.9-0.89-3.89,0,1,1,90,false,stim,true,1,1700.0,1,0,0,15121,WMM2,807271,false,false,464,image-keyboard-response,22
true,3,1,2,1,true,z,false,true,0.0-2.0-0.10-0.90-3.90,0,1,1,90,false,stim,false,1,2321.0,1,1,1,15121,WMM2,811099,false,false,467,image-keyboard-response,23
true,3,0,2,2,false,d,true,false,0.0-2.0-0.10-0.91-3.91,0,1,1,81,false,stim,false,1,2745.9999999998836,1,0,0,15121,WMM2,815353,false,false,470,image-keyboard-response,24
true,3,0,2,1,false,z,true,true,0.0-2.0-0.10-0.92-3.92,0,1,1,81,false,stim,false,1,1389.0,1,1,1,15121,WMM2,818249,false,true,473,image-keyboard-response,25
false,3,-1,2,1,false,z,true,false,0.0-2.0-0.10-0.93-3.93,0,1,1,,false,stim,false,1,,1,1,1,15121,WMM2,822756,false,false,476,image-keyboard-response,26
true,3,0,2,2,false,d,true,false,0.0-2.0-0.10-0.94-3.94,0,1,1,81,false,stim,false,2,1284.0000000001164,1,1,2,15121,WMM2,825549,false,false,479,image-keyboard-response,27
true,3,2,2,2,true,d,false,false,0.0-2.0-0.10-0.95-3.95,0,1,1,68,false,stim,false,2,1189.0,1,1,2,15121,WMM2,828244,false,true,482,image-keyboard-response,28
false,3,-1,2,2,false,d,true,false,0.0-2.0-0.10-0.96-3.96,0,1,1,,false,stim,false,1,,1,0,0,15121,WMM2,832752,false,false,485,image-keyboard-response,29
true,3,1,2,2,false,d,true,false,0.0-2.0-0.10-0.97-3.97,0,1,1,90,false,stim,false,2,2168.0,1,1,2,15121,WMM2,836428,false,false,488,image-keyboard-response,30
true,3,1,2,2,false,d,false,true,0.0-2.0-0.10-0.98-3.98,0,1,1,90,false,stim,true,1,1751.0000000001164,1,0,0,15121,WMM2,839684,false,true,491,image-keyboard-response,31
true,3,1,2,2,false,d,true,false,0.0-2.0-0.11-0.99-3.99,0,1,1,90,false,stim,false,2,1917.0,1,1,2,15121,WMM2,843108,false,false,494,image-keyboard-response,32
true,3,1,2,2,false,d,true,false,0.0-2.0-0.11-0.100-3.100,0,1,1,90,false,stim,false,2,542.0,1,1,2,15121,WMM2,845156,false,false,497,image-keyboard-response,33
true,3,1,2,2,false,d,false,false,0.0-2.0-0.11-0.101-3.101,0,1,1,90,false,stim,true,1,2165.0000000001164,1,0,0,15121,WMM2,848828,false,false,500,image-keyboard-response,34
true,3,1,2,2,false,d,false,false,0.0-2.0-0.11-0.102-3.102,0,1,1,90,false,stim,true,1,437.0,1,0,0,15121,WMM2,850773,false,false,503,image-keyboard-response,35
false,3,-1,2,1,false,z,true,false,0.0-2.0-0.11-0.103-3.103,0,1,1,,false,stim,false,1,,1,1,1,15121,WMM2,855281,false,false,506,image-keyboard-response,36
true,3,0,2,1,false,z,true,false,0.0-2.0-0.11-0.104-3.104,0,1,1,81,false,stim,false,1,393.0,1,1,1,15121,WMM2,857181,false,false,509,image-keyboard-response,37
true,3,0,2,2,false,d,true,false,0.0-2.0-0.11-0.105-3.105,0,1,1,81,false,stim,false,1,1683.0,1,0,0,15121,WMM2,860372,false,false,512,image-keyboard-response,38
true,3,0,2,1,false,z,true,false,0.0-2.0-0.11-0.106-3.106,0,1,1,81,false,stim,false,1,2974.0000000001164,1,1,1,15121,WMM2,864852,false,false,515,image-keyboard-response,39
true,3,0,2,2,false,d,true,false,0.0-2.0-0.11-0.107-3.107,0,1,1,81,false,stim,false,2,574.0,1,1,2,15121,WMM2,866932,false,false,518,image-keyboard-response,40
true,3,1,2,2,false,d,false,false,0.0-2.0-0.12-0.108-3.108,0,1,1,90,false,stim,true,1,1533.0000000001164,1,0,0,15121,WMM2,869973,false,false,521,image-keyboard-response,41
true,3,2,2,2,true,d,false,true,0.0-2.0-0.12-0.109-3.109,0,1,1,68,false,stim,false,1,1597.0,1,0,0,15121,WMM2,873076,false,false,524,image-keyboard-response,42
true,3,2,2,2,true,d,false,true,0.0-2.0-0.12-0.110-3.110,0,1,1,68,false,stim,false,1,1356.9999999998836,1,0,0,15121,WMM2,875941,false,false,527,image-keyboard-response,43
true,3,2,2,2,true,d,false,true,0.0-2.0-0.12-0.111-3.111,0,1,1,68,false,stim,false,2,990.0,1,1,2,15121,WMM2,878436,false,false,530,image-keyboard-response,44
true,3,2,2,2,true,d,false,true,0.0-2.0-0.12-0.112-3.112,0,1,1,68,false,stim,false,2,1614.0,1,1,2,15121,WMM2,881556,false,false,533,image-keyboard-response,45
true,3,2,2,1,false,z,true,false,0.0-2.0-0.12-0.113-3.113,0,1,1,68,false,stim,false,1,1036.0,1,1,1,15121,WMM2,884100,false,false,536,image-keyboard-response,46
true,3,0,2,2,false,d,true,false,0.0-2.0-0.12-0.114-3.114,0,1,1,81,false,stim,false,2,1158.0,1,1,2,15121,WMM2,886764,false,false,539,image-keyboard-response,47
true,3,1,2,1,true,z,false,true,0.0-2.0-0.12-0.115-3.115,0,1,1,90,false,stim,false,1,2154.0,1,1,1,15121,WMM2,890426,false,false,542,image-keyboard-response,48
true,3,1,2,1,true,z,false,true,0.0-2.0-0.12-0.116-3.116,0,1,1,90,false,stim,false,1,827.0,1,1,1,15121,WMM2,892762,false,false,545,image-keyboard-response,49
true,3,2,2,2,true,d,false,true,0.0-2.0-0.13-0.117-3.117,0,1,1,68,false,stim,false,2,1637.0,1,1,2,15121,WMM2,895906,false,false,548,image-keyboard-response,50
true,3,2,2,2,true,d,false,true,0.0-2.0-0.13-0.118-3.118,0,1,1,68,false,stim,false,1,773.0,1,0,0,15121,WMM2,898186,false,false,551,image-keyboard-response,51
true,3,2,2,2,true,d,false,true,0.0-2.0-0.13-0.119-3.119,0,1,1,68,false,stim,false,2,2169.0000000001164,1,1,2,15121,WMM2,901862,false,false,554,image-keyboard-response,52
true,3,1,2,1,true,z,false,true,0.0-2.0-0.13-0.120-3.120,0,1,1,90,false,stim,false,1,1248.0,1,0,1,15121,WMM2,904614,false,false,557,image-keyboard-response,53
true,3,2,2,2,true,d,false,true,0.0-2.0-0.13-0.121-3.121,0,1,1,68,false,stim,false,1,1143.0,1,0,0,15121,WMM2,907262,false,false,560,image-keyboard-response,54
true,3,2,2,2,true,d,false,false,0.0-2.0-0.13-0.122-3.122,0,1,1,68,false,stim,false,2,613.0,1,1,2,15121,WMM2,909382,false,true,563,image-keyboard-response,55
true,3,1,2,1,true,z,false,true,0.0-2.0-0.13-0.123-3.123,0,1,1,90,false,stim,false,1,2657.0,1,0,1,15121,WMM2,913545,false,false,566,image-keyboard-response,56
true,3,2,2,2,true,d,false,true,0.0-2.0-0.13-0.124-3.124,0,1,1,68,false,stim,false,1,1135.0,1,0,0,15121,WMM2,916186,false,false,569,image-keyboard-response,57
true,3,1,2,1,true,z,false,true,0.0-2.0-0.13-0.125-3.125,0,1,1,90,false,stim,false,1,1716.0,1,0,1,15121,WMM2,919410,false,false,572,image-keyboard-response,58
true,3,2,2,2,true,d,false,true,0.0-2.0-0.14-0.126-3.126,0,1,1,68,false,stim,false,2,987.0,1,1,2,15121,WMM2,921905,false,false,575,image-keyboard-response,59
true,3,2,2,2,true,d,false,true,0.0-2.0-0.14-0.127-3.127,0,1,1,68,false,stim,false,1,981.0,1,0,0,15121,WMM2,924393,false,false,578,image-keyboard-response,60
true,4,1,1,2,false,d,true,false,0.0-2.0-0.14-0.128-3.128,0,0,1,90,true,stim,false,2,2501.0,1,1,2,15121,WMM2,928398,false,false,581,image-keyboard-response,1
false,4,-1,1,0,false,q,true,false,0.0-2.0-0.14-0.129-3.129,0,0,1,,false,stim,false,2,,1,0,0,15121,WMM2,932904,false,false,584,image-keyboard-response,2
true,4,1,1,2,false,d,false,false,0.0-2.0-0.14-0.130-3.130,0,0,1,90,false,stim,true,1,2219.0000000001164,1,0,1,15121,WMM2,936632,false,false,587,image-keyboard-response,3
true,4,1,1,2,false,d,true,false,0.0-2.0-0.14-0.131-3.131,0,0,1,90,false,stim,false,2,2589.0,1,1,2,15121,WMM2,940726,false,false,590,image-keyboard-response,4
false,4,-1,1,0,false,q,true,false,0.0-2.0-0.14-0.132-3.132,0,0,1,,false,stim,false,2,,1,0,0,15121,WMM2,945234,false,false,593,image-keyboard-response,5
true,4,2,1,2,true,d,false,true,0.0-2.0-0.14-0.133-3.133,0,0,1,68,false,stim,false,1,1022.0000000001164,1,0,1,15121,WMM2,947761,false,false,596,image-keyboard-response,6
true,4,2,1,2,true,d,false,false,0.0-2.0-0.14-0.134-3.134,0,0,1,68,false,stim,false,1,1196.0,1,0,1,15121,WMM2,950465,false,true,599,image-keyboard-response,7
true,4,2,1,2,true,d,false,true,0.0-2.0-0.15-0.135-3.135,0,0,1,68,false,stim,false,1,1604.0,1,0,1,15121,WMM2,953577,false,false,602,image-keyboard-response,8
true,4,2,1,2,true,d,false,true,0.0-2.0-0.15-0.136-3.136,0,0,1,68,false,stim,false,2,843.0,1,1,2,15121,WMM2,955929,false,false,605,image-keyboard-response,9
true,4,2,1,0,false,q,false,false,0.0-2.0-0.15-0.137-3.137,0,0,1,68,false,stim,true,2,1277.0,1,0,0,15121,WMM2,958713,false,false,608,image-keyboard-response,10
true,4,2,1,2,true,d,false,true,0.0-2.0-0.15-0.138-3.138,0,0,1,68,false,stim,false,1,1982.0,1,0,1,15121,WMM2,962201,false,false,611,image-keyboard-response,11
true,4,2,1,2,true,d,false,true,0.0-2.0-0.15-0.139-3.139,0,0,1,68,false,stim,false,1,974.0,1,0,1,15121,WMM2,964681,false,false,614,image-keyboard-response,12
true,4,2,1,2,true,d,false,true,0.0-2.0-0.15-0.140-3.140,0,0,1,68,false,stim,false,2,767.0,1,1,2,15121,WMM2,966961,false,false,617,image-keyboard-response,13
true,4,0,1,0,true,q,false,true,0.0-2.0-0.15-0.141-3.141,0,0,1,81,false,stim,false,2,1166.0,1,0,0,15121,WMM2,969633,false,false,620,image-keyboard-response,14
true,4,2,1,2,true,d,false,true,0.0-2.0-0.15-0.142-3.142,0,0,1,68,false,stim,false,2,1278.0,1,1,2,15121,WMM2,972417,false,false,623,image-keyboard-response,15
true,4,0,1,0,true,q,false,true,0.0-2.0-0.15-0.143-3.143,0,0,1,81,false,stim,false,2,1822.0,1,0,0,15121,WMM2,975745,false,false,626,image-keyboard-response,16
true,4,2,1,2,true,d,false,true,0.0-2.0-0.16-0.144-3.144,0,0,1,68,false,stim,false,2,1007.9999999998836,1,1,2,15121,WMM2,978260,false,false,629,image-keyboard-response,17
true,4,2,1,2,true,d,false,false,0.0-2.0-0.16-0.145-3.145,0,0,1,68,false,stim,false,1,644.0,1,0,1,15121,WMM2,980409,false,true,632,image-keyboard-response,18
true,4,2,1,2,true,d,false,true,0.0-2.0-0.16-0.146-3.146,0,0,1,68,false,stim,false,2,838.0,1,1,2,15121,WMM2,982753,false,false,635,image-keyboard-response,19
true,4,0,1,0,true,q,false,true,0.0-2.0-0.16-0.147-3.147,0,0,1,81,false,stim,false,2,1150.0,1,0,0,15121,WMM2,985409,false,false,638,image-keyboard-response,20
true,4,2,1,2,true,d,false,true,0.0-2.0-0.16-0.148-3.148,0,0,1,68,false,stim,false,2,2207.0,1,0,2,15121,WMM2,989123,false,false,641,image-keyboard-response,21
true,4,0,1,0,true,q,false,true,0.0-2.0-0.16-0.149-3.149,0,0,1,81,false,stim,false,2,1142.0000000001164,1,1,0,15121,WMM2,991771,false,false,644,image-keyboard-response,22
true,4,2,1,2,true,d,false,false,0.0-2.0-0.16-0.150-3.150,0,0,1,68,false,stim,false,1,772.0,1,1,1,15121,WMM2,994051,false,true,647,image-keyboard-response,23
true,4,0,1,0,true,q,false,true,0.0-2.0-0.16-0.151-3.151,0,0,1,81,false,stim,false,2,1885.0,1,1,0,15121,WMM2,997443,false,false,650,image-keyboard-response,24
true,4,1,1,2,false,d,false,true,0.0-2.0-0.16-0.152-3.152,0,0,1,90,false,stim,true,1,2374.0000000001164,1,1,1,15121,WMM2,1001324,false,true,653,image-keyboard-response,25
true,4,1,1,2,false,d,true,false,0.0-2.0-0.17-0.153-3.153,0,0,1,90,false,stim,false,2,1414.0,1,0,2,15121,WMM2,1004243,false,false,656,image-keyboard-response,26
true,4,0,1,0,true,q,false,false,0.0-2.0-0.17-0.154-3.154,0,0,1,81,false,stim,false,2,1582.0,1,1,0,15121,WMM2,1007331,false,true,659,image-keyboard-response,27
false,4,-1,1,2,false,d,true,false,0.0-2.0-0.17-0.155-3.155,0,0,1,,false,stim,false,2,,1,0,2,15121,WMM2,1011840,false,false,662,image-keyboard-response,28
true,4,2,1,2,true,d,false,true,0.0-2.0-0.17-0.156-3.156,0,0,1,68,false,stim,false,1,2264.0,1,1,1,15121,WMM2,1015611,false,false,665,image-keyboard-response,29
true,4,0,1,0,true,q,false,true,0.0-2.0-0.17-0.157-3.157,0,0,1,81,false,stim,false,2,2817.0,1,1,0,15121,WMM2,1019934,false,false,668,image-keyboard-response,30
true,5,2,4,2,true,d,false,true,0.0-2.0-0.17-0.158-3.158,1,1,0,68,true,stim,false,2,1773.0,1,0,2,15121,WMM2,1023214,false,false,671,image-keyboard-response,1
true,5,0,4,0,true,q,false,false,0.0-2.0-0.17-0.159-3.159,1,1,0,81,false,stim,false,0,2045.0000000001164,1,1,0,15121,WMM2,1026765,false,true,674,image-keyboard-response,2
false,5,-1,4,2,false,d,true,true,0.0-2.0-0.17-0.160-3.160,1,1,0,,false,stim,false,2,,1,1,1,15121,WMM2,1031272,false,true,677,image-keyboard-response,3
true,5,2,4,2,true,d,false,true,0.0-2.0-0.17-0.161-3.161,1,1,0,68,false,stim,false,2,1371.0000000001164,1,1,1,15121,WMM2,1034149,false,false,680,image-keyboard-response,4
true,5,2,4,2,true,d,false,false,0.0-2.0-0.18-0.162-3.162,1,1,0,68,false,stim,false,2,844.0,1,1,1,15121,WMM2,1036500,false,true,683,image-keyboard-response,5
true,5,2,4,2,true,d,false,true,0.0-2.0-0.18-0.163-3.163,1,1,0,68,false,stim,false,2,750.0,1,1,1,15121,WMM2,1038755,false,false,686,image-keyboard-response,6
true,5,0,4,0,true,q,false,true,0.0-2.0-0.18-0.164-3.164,1,1,0,81,false,stim,false,0,1231.0,1,1,0,15121,WMM2,1041493,false,false,689,image-keyboard-response,7
true,5,0,4,0,true,q,false,false,0.0-2.0-0.18-0.165-3.165,1,1,0,81,false,stim,false,0,788.0,1,1,0,15121,WMM2,1043788,false,true,692,image-keyboard-response,8
true,5,2,4,2,true,d,false,true,0.0-2.0-0.18-0.166-3.166,1,1,0,68,false,stim,false,2,1829.9999999998836,1,0,2,15121,WMM2,1047124,false,false,695,image-keyboard-response,9
true,5,0,4,0,true,q,false,true,0.0-2.0-0.18-0.167-3.167,1,1,0,81,false,stim,false,0,1495.0,1,1,0,15121,WMM2,1050125,false,false,698,image-keyboard-response,10
true,5,2,4,2,true,d,false,false,0.0-2.0-0.18-0.168-3.168,1,1,0,68,false,stim,false,2,1696.0,1,1,1,15121,WMM2,1053332,false,true,701,image-keyboard-response,11
true,5,2,4,2,true,d,false,true,0.0-2.0-0.18-0.169-3.169,1,1,0,68,false,stim,false,2,1726.0,1,0,2,15121,WMM2,1056564,false,false,704,image-keyboard-response,12
true,5,2,4,2,true,d,false,true,0.0-2.0-0.18-0.170-3.170,1,1,0,68,false,stim,false,2,2046.0,1,0,2,15121,WMM2,1060116,false,false,707,image-keyboard-response,13
true,5,0,4,0,true,q,false,true,0.0-2.0-0.19-0.171-3.171,1,1,0,81,false,stim,false,0,1927.0,1,1,0,15121,WMM2,1063549,false,false,710,image-keyboard-response,14
true,5,2,4,2,true,d,false,false,0.0-2.0-0.19-0.172-3.172,1,1,0,68,false,stim,false,2,2143.0,1,0,2,15121,WMM2,1067198,false,true,713,image-keyboard-response,15
true,5,2,4,2,true,d,false,true,0.0-2.0-0.19-0.173-3.173,1,1,0,68,false,stim,false,2,590.0,1,0,2,15121,WMM2,1069294,false,false,716,image-keyboard-response,16
true,5,0,4,0,true,q,false,false,0.0-2.0-0.19-0.174-3.174,1,1,0,81,false,stim,false,0,1166.0000000002328,1,1,0,15121,WMM2,1071966,false,true,719,image-keyboard-response,17
true,5,1,4,2,false,d,true,true,0.0-2.0-0.19-0.175-3.175,1,1,0,90,false,stim,false,2,2005.0,1,1,1,15121,WMM2,1075478,false,true,722,image-keyboard-response,18
true,5,2,4,2,true,d,false,true,0.0-2.0-0.19-0.176-3.176,1,1,0,68,false,stim,false,2,2624.0,1,0,2,15121,WMM2,1079607,false,false,725,image-keyboard-response,19
true,5,2,4,2,true,d,false,true,0.0-2.0-0.19-0.177-3.177,1,1,0,68,false,stim,false,2,2388.0,1,1,1,15121,WMM2,1083502,false,false,728,image-keyboard-response,20
true,5,2,4,2,true,d,false,true,0.0-2.0-0.19-0.178-3.178,1,1,0,68,false,stim,false,2,2094.0,1,1,1,15121,WMM2,1087102,false,false,731,image-keyboard-response,21
true,5,0,4,0,true,q,false,true,0.0-2.0-0.19-0.179-3.179,1,1,0,81,false,stim,false,0,2365.0,1,1,0,15121,WMM2,1090973,false,false,734,image-keyboard-response,22
true,5,2,4,2,true,d,false,true,0.0-2.0-0.20-0.180-3.180,1,1,0,68,false,stim,false,2,2168.0,1,1,2,15121,WMM2,1094648,false,false,737,image-keyboard-response,23
true,5,0,4,0,true,q,false,true,0.0-2.0-0.20-0.181-3.181,1,1,0,81,false,stim,false,0,1118.0,1,1,0,15121,WMM2,1097272,false,false,740,image-keyboard-response,24
true,5,0,4,0,true,q,false,true,0.0-2.0-0.20-0.182-3.182,1,1,0,81,false,stim,false,0,694.0,1,1,0,15121,WMM2,1099472,false,false,743,image-keyboard-response,25
true,5,2,4,2,true,d,false,true,0.0-2.0-0.20-0.183-3.183,1,1,0,68,false,stim,false,2,1877.0,1,0,1,15121,WMM2,1102856,false,false,746,image-keyboard-response,26
true,5,2,4,2,true,d,false,false,0.0-2.0-0.20-0.184-3.184,1,1,0,68,false,stim,false,2,1318.0,1,1,2,15121,WMM2,1105680,false,true,749,image-keyboard-response,27
false,5,-1,4,0,false,q,true,false,0.0-2.0-0.20-0.185-3.185,1,1,0,,false,stim,false,0,,1,1,0,15121,WMM2,1110187,false,false,752,image-keyboard-response,28
true,5,0,4,2,false,d,true,false,0.0-2.0-0.20-0.186-3.186,1,1,0,81,false,stim,false,2,1680.0,1,0,1,15121,WMM2,1113373,false,false,755,image-keyboard-response,29
true,5,0,4,2,false,d,true,false,0.0-2.0-0.20-0.187-3.187,1,1,0,81,false,stim,false,2,2932.0,1,1,2,15121,WMM2,1117813,false,false,758,image-keyboard-response,30
true,5,2,4,2,true,d,false,true,0.0-2.0-0.20-0.188-3.188,1,1,0,68,false,stim,false,2,1878.0000000002328,1,0,1,15121,WMM2,1121197,false,false,761,image-keyboard-response,31
true,6,2,3,1,false,z,false,true,0.0-2.0-0.21-0.189-3.189,1,0,1,68,true,stim,true,2,1350.0,1,0,1,15121,WMM2,1124053,false,true,764,image-keyboard-response,1
true,6,2,3,0,false,q,true,true,0.0-2.0-0.21-0.190-3.190,1,0,1,68,false,stim,false,0,710.0,1,1,0,15121,WMM2,1126269,false,true,767,image-keyboard-response,2
true,6,2,3,2,true,d,false,true,0.0-2.0-0.21-0.191-3.191,1,0,1,68,false,stim,false,2,1230.0,1,1,2,15121,WMM2,1129005,false,false,770,image-keyboard-response,3
true,6,2,3,0,false,q,true,false,0.0-2.0-0.21-0.192-3.192,1,0,1,68,false,stim,false,0,854.0,1,1,0,15121,WMM2,1131365,false,false,773,image-keyboard-response,4
true,6,2,3,0,false,q,true,false,0.0-2.0-0.21-0.193-3.193,1,0,1,68,false,stim,false,0,414.0,1,1,0,15121,WMM2,1133285,false,false,776,image-keyboard-response,5
true,6,2,3,1,false,z,false,false,0.0-2.0-0.21-0.194-3.194,1,0,1,68,false,stim,true,2,1477.0,1,0,1,15121,WMM2,1136269,false,false,779,image-keyboard-response,6
true,6,0,3,1,false,z,true,false,0.0-2.0-0.21-0.195-3.195,1,0,1,81,false,stim,false,2,1318.0,1,0,1,15121,WMM2,1139093,false,false,782,image-keyboard-response,7
true,6,2,3,2,true,d,false,true,0.0-2.0-0.21-0.196-3.196,1,0,1,68,false,stim,false,2,2027.0,1,1,2,15121,WMM2,1142626,false,false,785,image-keyboard-response,8
true,6,2,3,2,true,d,false,true,0.0-2.0-0.21-0.197-3.197,1,0,1,68,false,stim,false,2,1071.0,1,1,2,15121,WMM2,1145202,false,false,788,image-keyboard-response,9
true,6,2,3,2,true,d,false,true,0.0-2.0-0.22-0.198-3.198,1,0,1,68,false,stim,false,2,1475.0,1,1,2,15121,WMM2,1148186,false,false,791,image-keyboard-response,10
true,6,1,3,0,false,q,true,false,0.0-2.0-0.22-0.199-3.199,1,0,1,90,false,stim,false,0,1782.0,1,1,0,15121,WMM2,1151474,false,false,794,image-keyboard-response,11
false,6,-1,3,2,false,d,true,false,0.0-2.0-0.22-0.200-3.200,1,0,1,,false,stim,false,2,,1,1,2,15121,WMM2,1155982,false,false,797,image-keyboard-response,12
true,6,2,3,1,false,z,false,false,0.0-2.0-0.22-0.201-3.201,1,0,1,68,false,stim,true,2,1426.0,1,0,1,15121,WMM2,1158914,false,false,800,image-keyboard-response,13
true,6,2,3,0,false,q,true,true,0.0-2.0-0.22-0.202-3.202,1,0,1,68,false,stim,false,0,1786.0,1,1,0,15121,WMM2,1162210,false,true,803,image-keyboard-response,14
true,6,2,3,0,false,q,true,false,0.0-2.0-0.22-0.203-3.203,1,0,1,68,false,stim,false,0,871.0,1,1,0,15121,WMM2,1164586,false,false,806,image-keyboard-response,15
true,6,2,3,2,true,d,false,true,0.0-2.0-0.22-0.204-3.204,1,0,1,68,false,stim,false,2,2321.0,1,1,2,15121,WMM2,1168415,false,false,809,image-keyboard-response,16
true,6,1,3,1,true,z,false,true,0.0-2.0-0.22-0.205-3.205,1,0,1,90,false,stim,false,2,1830.0,1,0,1,15121,WMM2,1171751,false,false,812,image-keyboard-response,17
true,6,1,3,1,true,z,false,true,0.0-2.0-0.22-0.206-3.206,1,0,1,90,false,stim,false,2,711.0000000002328,1,0,1,15121,WMM2,1173967,false,false,815,image-keyboard-response,18
true,6,2,3,2,true,d,false,false,0.0-2.0-0.23-0.207-3.207,1,0,1,68,false,stim,false,2,1869.0,1,1,2,15121,WMM2,1177343,false,true,818,image-keyboard-response,19
true,6,2,3,0,false,q,true,false,0.0-2.0-0.23-0.208-3.208,1,0,1,68,false,stim,false,0,1493.0,1,1,0,15121,WMM2,1180343,false,false,821,image-keyboard-response,20
true,6,2,3,2,true,d,false,true,0.0-2.0-0.23-0.209-3.209,1,0,1,68,false,stim,false,2,2409.0,1,1,2,15121,WMM2,1184258,false,false,824,image-keyboard-response,21
true,6,2,3,2,true,d,false,false,0.0-2.0-0.23-0.210-3.210,1,0,1,68,false,stim,false,2,733.9999999997672,1,1,2,15121,WMM2,1186498,false,true,827,image-keyboard-response,22
true,6,1,3,1,true,z,false,true,0.0-2.0-0.23-0.211-3.211,1,0,1,90,false,stim,false,2,2420.0,1,0,1,15121,WMM2,1190426,false,false,830,image-keyboard-response,23
true,6,1,3,1,true,z,false,true,0.0-2.0-0.23-0.212-3.212,1,0,1,90,false,stim,false,2,1365.0,1,0,1,15121,WMM2,1193298,false,false,833,image-keyboard-response,24
true,6,1,3,0,false,q,true,false,0.0-2.0-0.23-0.213-3.213,1,0,1,90,false,stim,false,0,1406.0,1,1,0,15121,WMM2,1196210,false,false,836,image-keyboard-response,25
true,6,2,3,0,false,q,true,false,0.0-2.0-0.23-0.214-3.214,1,0,1,68,false,stim,false,0,1716.0,1,1,0,15121,WMM2,1199434,false,false,839,image-keyboard-response,26
true,6,1,3,1,true,z,false,true,0.0-2.0-0.23-0.215-3.215,1,0,1,90,false,stim,false,2,2621.000000000233,1,0,1,15121,WMM2,1203562,false,false,842,image-keyboard-response,27
true,6,0,3,0,true,q,false,true,0.0-2.0-0.24-0.216-3.216,1,0,1,81,false,stim,false,0,2124.0,1,1,0,15121,WMM2,1207195,false,false,845,image-keyboard-response,28
true,6,0,3,0,true,q,false,true,0.0-2.0-0.24-0.217-3.217,1,0,1,81,false,stim,false,0,1572.0000000002328,1,1,0,15121,WMM2,1210274,false,false,848,image-keyboard-response,29
true,6,1,3,1,true,z,false,true,0.0-2.0-0.24-0.218-3.218,1,0,1,90,false,stim,false,2,2561.0,1,0,1,15121,WMM2,1214343,false,false,851,image-keyboard-response,30
true,6,2,3,2,true,d,false,false,0.0-2.0-0.24-0.219-3.219,1,0,1,68,false,stim,false,2,2038.0,1,0,2,15121,WMM2,1217888,false,true,854,image-keyboard-response,31
true,6,2,3,1,false,z,false,true,0.0-2.0-0.24-0.220-3.220,1,0,1,68,false,stim,true,2,1940.0,1,1,1,15121,WMM2,1221335,false,true,857,image-keyboard-response,32
true,6,2,3,2,true,d,false,true,0.0-2.0-0.24-0.221-3.221,1,0,1,68,false,stim,false,2,2426.0,1,0,2,15121,WMM2,1225266,false,false,860,image-keyboard-response,33
true,6,2,3,2,true,d,false,true,0.0-2.0-0.24-0.222-3.222,1,0,1,68,false,stim,false,2,955.9999999997672,1,0,2,15121,WMM2,1227731,false,false,863,image-keyboard-response,34
true,6,0,3,0,true,q,false,true,0.0-2.0-0.24-0.223-3.223,1,0,1,81,false,stim,false,0,1917.0,1,1,0,15121,WMM2,1231155,false,false,866,image-keyboard-response,35
true,6,2,3,1,false,z,false,false,0.0-2.0-0.24-0.224-3.224,1,0,1,68,false,stim,true,2,1866.0,1,1,1,15121,WMM2,1234527,false,false,869,image-keyboard-response,36
true,6,0,3,0,true,q,false,true,0.0-2.0-0.25-0.225-3.225,1,0,1,81,false,stim,false,0,2015.0,1,1,0,15121,WMM2,1238051,false,false,872,image-keyboard-response,37
true,6,2,3,1,false,z,false,true,0.0-2.0-0.25-0.226-3.226,1,0,1,68,false,stim,true,2,1419.0,1,1,1,15121,WMM2,1240976,false,true,875,image-keyboard-response,38
true,6,2,3,2,true,d,false,true,0.0-2.0-0.25-0.227-3.227,1,0,1,68,false,stim,false,2,702.0,1,0,2,15121,WMM2,1243184,false,false,878,image-keyboard-response,39
true,6,2,3,1,false,z,false,false,0.0-2.0-0.25-0.228-3.228,1,0,1,68,false,stim,true,2,1678.0,1,1,1,15121,WMM2,1246368,false,false,881,image-keyboard-response,40
true,7,2,2,0,false,q,false,false,0.0-2.0-0.25-0.229-3.229,1,1,0,68,true,stim,true,2,1093.0,1,0,2,15121,WMM2,1248968,false,false,884,image-keyboard-response,1
true,7,0,2,0,true,q,false,true,0.0-2.0-0.25-0.230-3.230,1,1,0,81,false,stim,false,0,2574.0,1,1,0,15121,WMM2,1253049,false,false,887,image-keyboard-response,2
true,7,1,2,1,true,z,false,true,0.0-2.0-0.25-0.231-3.231,1,1,0,90,false,stim,false,1,2067.0,1,1,1,15121,WMM2,1256623,false,false,890,image-keyboard-response,3
true,7,1,2,0,false,q,true,false,0.0-2.0-0.25-0.232-3.232,1,1,0,90,false,stim,false,2,1692.0000000002328,1,0,2,15121,WMM2,1259822,false,false,893,image-keyboard-response,4
false,7,-1,2,0,false,q,true,false,0.0-2.0-0.25-0.233-3.233,1,1,0,,false,stim,false,0,,1,1,0,15121,WMM2,1264330,false,false,896,image-keyboard-response,5
true,7,1,2,1,true,z,false,true,0.0-2.0-0.26-0.234-3.234,1,1,0,90,false,stim,false,1,2081.0,1,1,1,15121,WMM2,1267917,false,false,899,image-keyboard-response,6
true,7,2,2,0,false,q,false,true,0.0-2.0-0.26-0.235-3.235,1,1,0,68,false,stim,true,2,1929.9999999997672,1,0,2,15121,WMM2,1271358,false,true,902,image-keyboard-response,7
true,7,2,2,0,false,q,true,false,0.0-2.0-0.26-0.236-3.236,1,1,0,68,false,stim,false,0,1870.0,1,1,0,15121,WMM2,1274734,false,false,905,image-keyboard-response,8
false,7,-1,2,0,false,q,true,false,0.0-2.0-0.26-0.237-3.237,1,1,0,,false,stim,false,2,,1,0,2,15121,WMM2,1279241,false,false,908,image-keyboard-response,9
true,7,1,2,1,true,z,false,true,0.0-2.0-0.26-0.238-3.238,1,1,0,90,false,stim,false,1,2138.0,1,1,1,15121,WMM2,1282886,false,false,911,image-keyboard-response,10
true,7,2,2,0,false,q,false,false,0.0-2.0-0.26-0.239-3.239,1,1,0,68,false,stim,true,2,1965.0,1,0,2,15121,WMM2,1286357,false,false,914,image-keyboard-response,11
true,7,2,2,0,false,q,true,false,0.0-2.0-0.26-0.240-3.240,1,1,0,68,false,stim,false,0,911.0,1,1,0,15121,WMM2,1288773,false,false,917,image-keyboard-response,12
true,7,1,2,1,true,z,false,false,0.0-2.0-0.26-0.241-3.241,1,1,0,90,false,stim,false,1,2938.000000000233,1,1,1,15121,WMM2,1293217,false,true,920,image-keyboard-response,13
true,7,1,2,0,false,q,true,false,0.0-2.0-0.26-0.242-3.242,1,1,0,90,false,stim,false,0,916.0000000002328,1,1,0,15121,WMM2,1295639,false,false,923,image-keyboard-response,14
false,7,-1,2,1,false,z,true,false,0.0-2.0-0.27-0.243-3.243,1,1,0,,false,stim,false,1,,1,1,1,15121,WMM2,1300147,false,false,926,image-keyboard-response,15
true,7,2,2,0,false,q,false,false,0.0-2.0-0.27-0.244-3.244,1,1,0,68,false,stim,true,2,1755.0,1,0,2,15121,WMM2,1303408,false,false,929,image-keyboard-response,16
true,7,0,2,0,true,q,false,true,0.0-2.0-0.27-0.245-3.245,1,1,0,81,false,stim,false,0,2100.000000000233,1,1,0,15121,WMM2,1307015,false,false,932,image-keyboard-response,17
true,7,0,2,0,true,q,false,true,0.0-2.0-0.27-0.246-3.246,1,1,0,81,false,stim,false,0,1222.0,1,1,0,15121,WMM2,1309744,false,false,935,image-keyboard-response,18
true,7,0,2,0,true,q,false,false,0.0-2.0-0.27-0.247-3.247,1,1,0,81,false,stim,false,0,1078.0,1,1,0,15121,WMM2,1312328,false,true,938,image-keyboard-response,19
true,7,0,2,1,false,z,true,false,0.0-2.0-0.27-0.248-3.248,1,1,0,81,false,stim,false,1,1231.0,1,1,1,15121,WMM2,1315065,false,false,941,image-keyboard-response,20
true,7,2,2,1,false,z,true,false,0.0-2.0-0.27-0.249-3.249,1,1,0,68,false,stim,false,1,1925.0000000002328,1,1,1,15121,WMM2,1318495,false,false,944,image-keyboard-response,21
true,7,2,2,0,false,q,false,false,0.0-2.0-0.27-0.250-3.250,1,1,0,68,false,stim,true,2,2397.000000000233,1,0,2,15121,WMM2,1322400,false,false,947,image-keyboard-response,22
true,7,1,2,0,false,q,true,false,0.0-2.0-0.27-0.251-3.251,1,1,0,90,false,stim,false,2,1460.0,1,0,2,15121,WMM2,1325368,false,false,950,image-keyboard-response,23
true,7,0,2,0,true,q,false,false,0.0-2.0-0.28-0.252-3.252,1,1,0,81,false,stim,false,2,1429.0,1,0,2,15121,WMM2,1328304,false,true,953,image-keyboard-response,24
true,7,0,2,0,true,q,false,true,0.0-2.0-0.28-0.253-3.253,1,1,0,81,false,stim,false,0,2757.0,1,1,0,15121,WMM2,1332568,false,false,956,image-keyboard-response,25
true,7,2,2,1,false,z,true,false,0.0-2.0-0.28-0.254-3.254,1,1,0,68,false,stim,false,1,1444.0,1,1,1,15121,WMM2,1335520,false,false,959,image-keyboard-response,26
true,7,1,2,1,true,z,false,true,0.0-2.0-0.28-0.255-3.255,1,1,0,90,false,stim,false,1,1109.0,1,1,1,15121,WMM2,1338136,false,false,962,image-keyboard-response,27
true,7,0,2,0,true,q,false,true,0.0-2.0-0.28-0.256-3.256,1,1,0,81,false,stim,false,0,1349.0,1,1,0,15121,WMM2,1340992,false,false,965,image-keyboard-response,28
true,7,2,2,0,false,q,false,false,0.0-2.0-0.28-0.257-3.257,1,1,0,68,false,stim,true,2,1749.0,1,0,2,15121,WMM2,1344248,false,false,968,image-keyboard-response,29
true,7,0,2,0,true,q,false,true,0.0-2.0-0.28-0.258-3.258,1,1,0,81,false,stim,false,2,1268.9999999997672,1,0,2,15121,WMM2,1347024,false,false,971,image-keyboard-response,30
true,7,0,2,0,true,q,false,true,0.0-2.0-0.28-0.259-3.259,1,1,0,81,false,stim,false,0,1775.0,1,1,0,15121,WMM2,1350305,false,false,974,image-keyboard-response,31
false,7,-1,2,1,false,z,true,false,0.0-2.0-0.28-0.260-3.260,1,1,0,,false,stim,false,1,,1,1,1,15121,WMM2,1354813,false,false,977,image-keyboard-response,32
true,7,0,2,0,true,q,false,false,0.0-2.0-0.29-0.261-3.261,1,1,0,81,false,stim,false,0,1253.0,1,1,0,15121,WMM2,1357575,false,true,980,image-keyboard-response,33
true,7,0,2,0,true,q,false,true,0.0-2.0-0.29-0.262-3.262,1,1,0,81,false,stim,false,0,644.0,1,1,0,15121,WMM2,1359727,false,false,983,image-keyboard-response,34
true,7,1,2,1,true,z,false,true,0.0-2.0-0.29-0.263-3.263,1,1,0,90,false,stim,false,1,1333.0,1,1,1,15121,WMM2,1362567,false,false,986,image-keyboard-response,35
true,7,1,2,1,true,z,false,true,0.0-2.0-0.29-0.264-3.264,1,1,0,90,false,stim,false,1,892.0000000002328,1,1,1,15121,WMM2,1364967,false,false,989,image-keyboard-response,36
true,7,0,2,0,true,q,false,true,0.0-2.0-0.29-0.265-3.265,1,1,0,81,false,stim,false,2,2321.0,1,0,2,15121,WMM2,1368796,false,false,992,image-keyboard-response,37
true,7,0,2,0,true,q,false,true,0.0-2.0-0.29-0.266-3.266,1,1,0,81,false,stim,false,0,1796.9999999997672,1,1,0,15121,WMM2,1372100,false,false,995,image-keyboard-response,38
true,7,0,2,0,true,q,false,true,0.0-2.0-0.29-0.267-3.267,1,1,0,81,false,stim,false,2,2476.0,1,0,2,15121,WMM2,1376083,false,false,998,image-keyboard-response,39
true,7,0,2,0,true,q,false,false,0.0-2.0-0.29-0.268-3.268,1,1,0,81,false,stim,false,2,1014.0,1,0,2,15121,WMM2,1378608,false,true,1001,image-keyboard-response,40
true,7,0,2,1,false,z,true,true,0.0-2.0-0.29-0.269-3.269,1,1,0,81,false,stim,false,1,508.0,1,1,1,15121,WMM2,1380624,false,true,1004,image-keyboard-response,41
true,7,0,2,1,false,z,true,false,0.0-2.0-0.30-0.270-3.270,1,1,0,81,false,stim,false,1,1533.0,1,1,1,15121,WMM2,1383664,false,false,1007,image-keyboard-response,42
true,7,0,2,0,true,q,false,false,0.0-2.0-0.30-0.271-3.271,1,1,0,81,false,stim,false,0,2526.0,1,1,0,15121,WMM2,1387697,false,true,1010,image-keyboard-response,43
true,7,1,2,1,true,z,false,true,0.0-2.0-0.30-0.272-3.272,1,1,0,90,false,stim,false,1,2045.0,1,1,1,15121,WMM2,1391248,false,false,1013,image-keyboard-response,44
true,7,0,2,0,true,q,false,true,0.0-2.0-0.30-0.273-3.273,1,1,0,81,false,stim,false,0,2645.000000000233,1,1,0,15121,WMM2,1395400,false,false,1016,image-keyboard-response,45
true,7,0,2,0,true,q,false,false,0.0-2.0-0.30-0.274-3.274,1,1,0,81,false,stim,false,2,1946.0,1,0,2,15121,WMM2,1398852,false,true,1019,image-keyboard-response,46
true,7,0,2,0,true,q,false,false,0.0-2.0-0.30-0.275-3.275,1,1,0,81,false,stim,false,0,813.0,1,1,0,15121,WMM2,1401172,false,true,1022,image-keyboard-response,47
true,8,0,3,1,false,z,false,false,0.0-2.0-0.30-0.276-3.276,1,1,0,81,true,stim,true,0,1317.0000000002328,1,0,2,15121,WMM2,1403996,false,false,1025,image-keyboard-response,1
true,8,2,3,1,false,z,true,false,0.0-2.0-0.30-0.277-3.277,1,1,0,68,false,stim,false,0,2405.0,1,0,2,15121,WMM2,1407907,false,false,1028,image-keyboard-response,2
true,8,2,3,1,false,z,true,true,0.0-2.0-0.30-0.278-3.278,1,1,0,68,false,stim,false,1,2317.0,1,1,1,15121,WMM2,1411732,false,true,1031,image-keyboard-response,3
true,8,2,3,1,false,z,true,false,0.0-2.0-0.31-0.279-3.279,1,1,0,68,false,stim,false,1,942.0,1,1,1,15121,WMM2,1414180,false,false,1034,image-keyboard-response,4
true,8,1,3,1,true,z,false,true,0.0-2.0-0.31-0.280-3.280,1,1,0,90,false,stim,false,1,2040.0,1,1,1,15121,WMM2,1417725,false,false,1037,image-keyboard-response,5
true,8,1,3,1,true,z,false,true,0.0-2.0-0.31-0.281-3.281,1,1,0,90,false,stim,false,0,1075.0,1,0,2,15121,WMM2,1420308,false,false,1040,image-keyboard-response,6
true,8,1,3,1,true,z,false,false,0.0-2.0-0.31-0.282-3.282,1,1,0,90,false,stim,false,0,1174.9999999997672,1,0,2,15121,WMM2,1422988,false,true,1043,image-keyboard-response,7
true,8,1,3,0,false,q,true,true,0.0-2.0-0.31-0.283-3.283,1,1,0,90,false,stim,false,0,1134.0,1,1,0,15121,WMM2,1425628,false,true,1046,image-keyboard-response,8
true,8,1,3,1,true,z,false,true,0.0-2.0-0.31-0.284-3.284,1,1,0,90,false,stim,false,0,910.0000000002328,1,0,2,15121,WMM2,1428044,false,false,1049,image-keyboard-response,9
true,8,1,3,0,false,q,true,true,0.0-2.0-0.31-0.285-3.285,1,1,0,90,false,stim,false,0,917.0,1,1,0,15121,WMM2,1430468,false,true,1052,image-keyboard-response,10
true,8,1,3,0,false,q,true,false,0.0-2.0-0.31-0.286-3.286,1,1,0,90,false,stim,false,0,1205.0,1,1,0,15121,WMM2,1433180,false,false,1055,image-keyboard-response,11
true,8,1,3,1,true,z,false,true,0.0-2.0-0.31-0.287-3.287,1,1,0,90,false,stim,false,1,670.0,1,1,1,15121,WMM2,1435356,false,false,1058,image-keyboard-response,12
true,8,1,3,1,true,z,false,false,0.0-2.0-0.32-0.288-3.288,1,1,0,90,false,stim,false,1,662.0000000002328,1,1,1,15121,WMM2,1437524,false,true,1061,image-keyboard-response,13
true,8,1,3,1,true,z,false,true,0.0-2.0-0.32-0.289-3.289,1,1,0,90,false,stim,false,0,1117.0,1,0,2,15121,WMM2,1440148,false,false,1064,image-keyboard-response,14
true,8,1,3,1,true,z,false,false,0.0-2.0-0.32-0.290-3.290,1,1,0,90,false,stim,false,1,902.0,1,1,1,15121,WMM2,1442556,false,true,1067,image-keyboard-response,15
true,8,1,3,1,true,z,false,false,0.0-2.0-0.32-0.291-3.291,1,1,0,90,false,stim,false,0,421.0,1,0,2,15121,WMM2,1444484,false,true,1070,image-keyboard-response,16
true,8,1,3,0,false,q,true,true,0.0-2.0-0.32-0.292-3.292,1,1,0,90,false,stim,false,0,421.0,1,1,0,15121,WMM2,1446412,false,true,1073,image-keyboard-response,17
true,8,1,3,1,true,z,false,true,0.0-2.0-0.32-0.293-3.293,1,1,0,90,false,stim,false,0,579.9999999997672,1,0,2,15121,WMM2,1448499,false,false,1076,image-keyboard-response,18
true,8,1,3,1,true,z,false,false,0.0-2.0-0.32-0.294-3.294,1,1,0,90,false,stim,false,1,640.0,1,1,1,15121,WMM2,1450644,false,true,1079,image-keyboard-response,19
true,8,1,3,0,false,q,true,false,0.0-2.0-0.32-0.295-3.295,1,1,0,90,false,stim,false,0,1829.9999999997672,1,1,0,15121,WMM2,1453985,false,false,1082,image-keyboard-response,20
true,8,1,3,0,false,q,true,false,0.0-2.0-0.32-0.296-3.296,1,1,0,90,false,stim,false,0,397.0,1,1,0,15121,WMM2,1455892,false,false,1085,image-keyboard-response,21
true,8,1,3,1,true,z,false,true,0.0-2.0-0.33-0.297-3.297,1,1,0,90,false,stim,false,1,1833.0,1,1,1,15121,WMM2,1459238,false,false,1088,image-keyboard-response,22
true,8,0,3,0,true,q,false,false,0.0-2.0-0.33-0.298-3.298,1,1,0,81,false,stim,false,0,1470.0,1,1,0,15121,WMM2,1462219,false,true,1091,image-keyboard-response,23
false,8,-1,3,1,false,z,true,false,0.0-2.0-0.33-0.299-3.299,1,1,0,,false,stim,false,1,,1,1,1,15121,WMM2,1466729,false,false,1094,image-keyboard-response,24
true,8,1,3,1,true,z,false,true,0.0-2.0-0.33-0.300-3.300,1,1,0,90,false,stim,false,0,2520.0,1,0,2,15121,WMM2,1470760,false,false,1097,image-keyboard-response,25
true,8,1,3,1,true,z,false,true,0.0-2.0-0.33-0.301-3.301,1,1,0,90,false,stim,false,0,668.9999999997672,1,0,2,15121,WMM2,1472937,false,false,1100,image-keyboard-response,26
true,8,2,3,0,false,q,true,false,0.0-2.0-0.33-0.302-3.302,1,1,0,68,false,stim,false,0,1770.0,1,1,0,15121,WMM2,1476218,false,false,1103,image-keyboard-response,27
true,8,2,3,0,false,q,true,true,0.0-2.0-0.33-0.303-3.303,1,1,0,68,false,stim,false,0,502.0,1,1,0,15121,WMM2,1478228,false,true,1106,image-keyboard-response,28
true,8,1,3,1,true,z,false,true,0.0-2.0-0.33-0.304-3.304,1,1,0,90,false,stim,false,1,2223.0,1,1,1,15121,WMM2,1481959,false,false,1109,image-keyboard-response,29
true,8,1,3,1,true,z,false,true,0.0-2.0-0.33-0.305-3.305,1,1,0,90,false,stim,false,0,972.0,1,0,2,15121,WMM2,1484440,false,false,1112,image-keyboard-response,30
true,8,2,3,0,false,q,true,false,0.0-2.0-0.34-0.306-3.306,1,1,0,68,false,stim,false,0,1396.0,1,1,0,15121,WMM2,1487345,false,false,1115,image-keyboard-response,31
true,8,2,3,0,false,q,true,false,0.0-2.0-0.34-0.307-3.307,1,1,0,68,false,stim,false,0,608.0,1,1,0,15121,WMM2,1489459,false,false,1118,image-keyboard-response,32
true,8,1,3,1,true,z,false,false,0.0-2.0-0.34-0.308-3.308,1,1,0,90,false,stim,false,1,2113.0,1,1,1,15121,WMM2,1493080,false,true,1121,image-keyboard-response,33
true,8,1,3,1,true,z,false,false,0.0-2.0-0.34-0.309-3.309,1,1,0,90,false,stim,false,0,1332.0,1,0,2,15121,WMM2,1495919,false,true,1124,image-keyboard-response,34
true,8,1,3,1,true,z,false,true,0.0-2.0-0.34-0.310-3.310,1,1,0,90,false,stim,false,1,511.00000000023283,1,1,1,15121,WMM2,1497937,false,false,1127,image-keyboard-response,35
true,8,1,3,1,true,z,false,true,0.0-2.0-0.34-0.311-3.311,1,1,0,90,false,stim,false,1,739.0,1,1,1,15121,WMM2,1500183,false,false,1130,image-keyboard-response,36
true,8,2,3,0,false,q,true,false,0.0-2.0-0.34-0.312-3.312,1,1,0,68,false,stim,false,0,1381.0,1,1,0,15121,WMM2,1503071,false,false,1133,image-keyboard-response,37
true,8,1,3,1,true,z,false,true,0.0-2.0-0.34-0.313-3.313,1,1,0,90,false,stim,false,0,2747.0,1,0,2,15121,WMM2,1507328,false,false,1136,image-keyboard-response,38
true,8,1,3,1,true,z,false,true,0.0-2.0-0.34-0.314-3.314,1,1,0,90,false,stim,false,0,964.0,1,0,2,15121,WMM2,1509800,false,false,1139,image-keyboard-response,39
true,8,1,3,1,true,z,false,true,0.0-2.0-0.35-0.315-3.315,1,1,0,90,false,stim,false,1,883.0,1,1,1,15121,WMM2,1512192,false,false,1142,image-keyboard-response,40
true,8,1,3,1,true,z,false,true,0.0-2.0-0.35-0.316-3.316,1,1,0,90,false,stim,false,1,581.0,1,1,1,15121,WMM2,1514280,false,false,1145,image-keyboard-response,41
true,8,1,3,1,true,z,false,true,0.0-2.0-0.35-0.317-3.317,1,1,0,90,false,stim,false,0,893.0,1,0,2,15121,WMM2,1516680,false,false,1148,image-keyboard-response,42
true,8,1,3,1,true,z,false,true,0.0-2.0-0.35-0.318-3.318,1,1,0,90,false,stim,false,0,686.0,1,0,2,15121,WMM2,1518872,false,false,1151,image-keyboard-response,43
true,8,1,3,1,true,z,false,true,0.0-2.0-0.35-0.319-3.319,1,1,0,90,false,stim,false,0,629.0,1,0,2,15121,WMM2,1521009,false,false,1154,image-keyboard-response,44
true,8,1,3,0,false,q,true,false,0.0-2.0-0.35-0.320-3.320,1,1,0,90,false,stim,false,0,1756.0,1,1,0,15121,WMM2,1524273,false,false,1157,image-keyboard-response,45
true,8,2,3,0,false,q,true,false,0.0-2.0-0.35-0.321-3.321,1,1,0,68,false,stim,false,0,1198.0000000002328,1,1,0,15121,WMM2,1526977,false,false,1160,image-keyboard-response,46
true,8,0,3,0,true,q,false,true,0.0-2.0-0.35-0.322-3.322,1,1,0,81,false,stim,false,0,1374.0,1,1,0,15121,WMM2,1529860,false,false,1163,image-keyboard-response,47
true,8,1,3,1,true,z,false,true,0.0-2.0-0.35-0.323-3.323,1,1,0,90,false,stim,false,1,1875.0,1,1,1,15121,WMM2,1533241,false,false,1166,image-keyboard-response,48
true,8,1,3,1,true,z,false,true,0.0-2.0-0.36-0.324-3.324,1,1,0,90,false,stim,false,1,603.0000000002328,1,1,1,15121,WMM2,1535353,false,false,1169,image-keyboard-response,49
true,8,1,3,1,true,z,false,true,0.0-2.0-0.36-0.325-3.325,1,1,0,90,false,stim,false,1,733.0000000002328,1,1,1,15121,WMM2,1537593,false,false,1172,image-keyboard-response,50
true,8,1,3,1,true,z,false,true,0.0-2.0-0.36-0.326-3.326,1,1,0,90,false,stim,false,1,565.0,1,0,1,15121,WMM2,1539665,false,false,1175,image-keyboard-response,51
true,8,1,3,1,true,z,false,true,0.0-2.0-0.36-0.327-3.327,1,1,0,90,false,stim,false,0,1085.0,1,1,2,15121,WMM2,1542257,false,false,1178,image-keyboard-response,52
true,8,1,3,1,true,z,false,true,0.0-2.0-0.36-0.328-3.328,1,1,0,90,false,stim,false,0,462.0,1,1,2,15121,WMM2,1544225,false,false,1181,image-keyboard-response,53
true,8,0,3,0,true,q,false,true,0.0-2.0-0.36-0.329-3.329,1,1,0,81,false,stim,false,0,1118.0,1,1,0,15121,WMM2,1546850,false,false,1184,image-keyboard-response,54
true,8,0,3,0,true,q,false,true,0.0-2.0-0.36-0.330-3.330,1,1,0,81,false,stim,false,0,468.0,1,1,0,15121,WMM2,1548826,false,false,1187,image-keyboard-response,55
true,8,1,3,1,true,z,false,true,0.0-2.0-0.36-0.331-3.331,1,1,0,90,false,stim,false,0,933.0,1,1,2,15121,WMM2,1551266,false,false,1190,image-keyboard-response,56
true,8,1,3,0,false,q,true,false,0.0-2.0-0.36-0.332-3.332,1,1,0,90,false,stim,false,0,448.0,1,1,0,15121,WMM2,1553220,false,false,1193,image-keyboard-response,57
true,8,0,3,0,true,q,false,true,0.0-2.0-0.37-0.333-3.333,1,1,0,81,false,stim,false,0,604.0,1,1,0,15121,WMM2,1555330,false,false,1196,image-keyboard-response,58
true,8,1,3,1,true,z,false,true,0.0-2.0-0.37-0.334-3.334,1,1,0,90,false,stim,false,1,1197.0,1,0,1,15121,WMM2,1558034,false,false,1199,image-keyboard-response,59
true,8,1,3,1,true,z,false,false,0.0-2.0-0.37-0.335-3.335,1,1,0,90,false,stim,false,0,625.0,1,1,2,15121,WMM2,1560170,false,true,1202,image-keyboard-response,60
true,9,1,4,1,true,z,false,false,0.0-2.0-0.37-0.336-3.336,1,0,1,90,true,stim,false,1,391.0,1,1,2,15121,WMM2,1562066,false,true,1205,image-keyboard-response,1
true,9,1,4,1,true,z,false,true,0.0-2.0-0.37-0.337-3.337,1,0,1,90,false,stim,false,1,1950.0,1,0,1,15121,WMM2,1565522,false,false,1208,image-keyboard-response,2
true,9,1,4,1,true,z,false,true,0.0-2.0-0.37-0.338-3.338,1,0,1,90,false,stim,false,1,2036.0,1,1,2,15121,WMM2,1569066,false,false,1211,image-keyboard-response,3
true,9,0,4,0,true,q,false,true,0.0-2.0-0.37-0.339-3.339,1,0,1,81,false,stim,false,0,1350.0,1,1,0,15121,WMM2,1571922,false,false,1214,image-keyboard-response,4
true,9,1,4,1,true,z,false,true,0.0-2.0-0.37-0.340-3.340,1,0,1,90,false,stim,false,1,1382.0,1,0,1,15121,WMM2,1574810,false,false,1217,image-keyboard-response,5
true,9,0,4,0,true,q,false,false,0.0-2.0-0.37-0.341-3.341,1,0,1,81,false,stim,false,0,1173.0,1,1,0,15121,WMM2,1577491,false,true,1220,image-keyboard-response,6
true,9,1,4,1,true,z,false,true,0.0-2.0-0.38-0.342-3.342,1,0,1,90,false,stim,false,1,1341.0,1,0,1,15121,WMM2,1580339,false,false,1223,image-keyboard-response,7
false,9,-1,4,1,false,z,true,false,0.0-2.0-0.38-0.343-3.343,1,0,1,,false,stim,false,1,,1,1,2,15121,WMM2,1584847,false,false,1226,image-keyboard-response,8
true,9,1,4,1,true,z,false,true,0.0-2.0-0.38-0.344-3.344,1,0,1,90,false,stim,false,1,625.0,1,1,2,15121,WMM2,1586979,false,false,1229,image-keyboard-response,9
true,9,0,4,0,true,q,false,true,0.0-2.0-0.38-0.345-3.345,1,0,1,81,false,stim,false,0,1045.0,1,1,0,15121,WMM2,1589531,false,false,1232,image-keyboard-response,10
true,9,0,4,0,true,q,false,true,0.0-2.0-0.38-0.346-3.346,1,0,1,81,false,stim,false,0,1108.0,1,1,0,15121,WMM2,1592147,false,false,1235,image-keyboard-response,11
true,9,1,4,1,true,z,false,true,0.0-2.0-0.38-0.347-3.347,1,0,1,90,false,stim,false,1,1045.0,1,1,2,15121,WMM2,1594699,false,false,1238,image-keyboard-response,12
true,9,1,4,1,true,z,false,true,0.0-2.0-0.38-0.348-3.348,1,0,1,90,false,stim,false,1,918.0,1,0,1,15121,WMM2,1597123,false,false,1241,image-keyboard-response,13
true,9,0,4,0,true,q,false,true,0.0-2.0-0.38-0.349-3.349,1,0,1,81,false,stim,false,0,988.0,1,1,0,15121,WMM2,1599620,false,false,1244,image-keyboard-response,14
true,9,1,4,1,true,z,false,true,0.0-2.0-0.38-0.350-3.350,1,0,1,90,false,stim,false,1,933.0,1,0,1,15121,WMM2,1602059,false,false,1247,image-keyboard-response,15
true,9,1,4,0,false,q,true,false,0.0-2.0-0.39-0.351-3.351,1,0,1,90,false,stim,false,0,512.0000000002328,1,1,0,15121,WMM2,1604077,false,false,1250,image-keyboard-response,16
true,9,1,4,1,true,z,false,false,0.0-2.0-0.39-0.352-3.352,1,0,1,90,false,stim,false,1,596.0,1,1,2,15121,WMM2,1606179,false,true,1253,image-keyboard-response,17
true,9,1,4,1,true,z,false,true,0.0-2.0-0.39-0.353-3.353,1,0,1,90,false,stim,false,1,1848.0,1,0,1,15121,WMM2,1609534,false,false,1256,image-keyboard-response,18
true,9,1,4,1,true,z,false,true,0.0-2.0-0.39-0.354-3.354,1,0,1,90,false,stim,false,1,841.0000000002328,1,0,1,15121,WMM2,1611884,false,false,1259,image-keyboard-response,19
true,9,1,4,1,true,z,false,true,0.0-2.0-0.39-0.355-3.355,1,0,1,90,false,stim,false,1,598.0,1,0,1,15121,WMM2,1613988,false,false,1262,image-keyboard-response,20
true,9,0,4,0,true,q,false,true,0.0-2.0-0.39-0.356-3.356,1,0,1,81,false,stim,false,0,941.0,1,1,0,15121,WMM2,1616436,false,false,1265,image-keyboard-response,21
true,9,0,4,0,true,q,false,true,0.0-2.0-0.39-0.357-3.357,1,0,1,81,false,stim,false,0,532.0,1,1,0,15121,WMM2,1618476,false,false,1268,image-keyboard-response,22
true,9,1,4,1,true,z,false,false,0.0-2.0-0.39-0.358-3.358,1,0,1,90,false,stim,false,1,1093.0000000002328,1,0,2,15121,WMM2,1621076,false,true,1271,image-keyboard-response,23
true,9,1,4,1,true,z,false,true,0.0-2.0-0.39-0.359-3.359,1,0,1,90,false,stim,false,1,556.0,1,0,2,15121,WMM2,1623140,false,false,1274,image-keyboard-response,24
true,9,1,4,1,true,z,false,true,0.0-2.0-0.40-0.360-3.360,1,0,1,90,false,stim,false,1,517.0,1,0,2,15121,WMM2,1625164,false,false,1277,image-keyboard-response,25
true,9,0,4,0,true,q,false,true,0.0-2.0-0.40-0.361-3.361,1,0,1,81,false,stim,false,0,1181.0,1,1,0,15121,WMM2,1627852,false,false,1280,image-keyboard-response,26
true,9,0,4,0,true,q,false,true,0.0-2.0-0.40-0.362-3.362,1,0,1,81,false,stim,false,0,484.0,1,1,0,15121,WMM2,1629844,false,false,1283,image-keyboard-response,27
true,9,0,4,0,true,q,false,true,0.0-2.0-0.40-0.363-3.363,1,0,1,81,false,stim,false,0,478.0,1,1,0,15121,WMM2,1631828,false,false,1286,image-keyboard-response,28
true,9,1,4,1,true,z,false,true,0.0-2.0-0.40-0.364-3.364,1,0,1,90,false,stim,false,1,1093.0,1,0,1,15121,WMM2,1634428,false,false,1289,image-keyboard-response,29
true,9,1,4,1,true,z,false,true,0.0-2.0-0.40-0.365-3.365,1,0,1,90,false,stim,false,1,525.0,1,0,1,15121,WMM2,1636460,false,false,1292,image-keyboard-response,30
true,9,1,4,1,true,z,false,true,0.0-2.0-0.40-0.366-3.366,1,0,1,90,false,stim,false,1,591.0,1,0,1,15121,WMM2,1638556,false,false,1295,image-keyboard-response,31
true,9,1,4,1,true,z,false,true,0.0-2.0-0.40-0.367-3.367,1,0,1,90,false,stim,false,1,2046.0,1,0,2,15121,WMM2,1642109,false,false,1298,image-keyboard-response,32
true,10,1,1,0,false,q,false,false,0.0-2.0-0.40-0.368-3.368,1,0,0,90,true,stim,true,1,945.0,1,0,2,15121,WMM2,1644565,false,false,1301,image-keyboard-response,1
true,10,0,1,0,true,q,false,true,0.0-2.0-0.41-0.369-3.369,1,0,0,81,false,stim,false,0,1276.0,1,1,0,15121,WMM2,1647349,false,false,1304,image-keyboard-response,2
true,10,0,1,0,true,q,false,true,0.0-2.0-0.41-0.370-3.370,1,0,0,81,false,stim,false,0,902.0,1,1,0,15121,WMM2,1649757,false,false,1307,image-keyboard-response,3
true,10,1,1,0,false,q,false,false,0.0-2.0-0.41-0.371-3.371,1,0,0,90,false,stim,true,1,1231.0,1,0,2,15121,WMM2,1652494,false,false,1310,image-keyboard-response,4
true,10,1,1,2,false,d,false,false,0.0-2.0-0.41-0.372-3.372,1,0,0,90,false,stim,true,1,1037.0,1,0,1,15121,WMM2,1655037,false,false,1313,image-keyboard-response,5
true,10,1,1,2,false,d,false,false,0.0-2.0-0.41-0.373-3.373,1,0,0,90,false,stim,true,1,631.0,1,0,1,15121,WMM2,1657173,false,false,1316,image-keyboard-response,6
true,10,0,1,0,true,q,false,true,0.0-2.0-0.41-0.374-3.374,1,0,0,81,false,stim,false,0,2061.000000000233,1,1,0,15121,WMM2,1660741,false,false,1319,image-keyboard-response,7
true,10,1,1,0,false,q,false,false,0.0-2.0-0.41-0.375-3.375,1,0,0,90,false,stim,true,1,1525.0,1,0,2,15121,WMM2,1663773,false,false,1322,image-keyboard-response,8
true,10,2,1,0,false,q,true,false,0.0-2.0-0.41-0.376-3.376,1,0,0,68,false,stim,false,1,1357.9999999997672,1,0,2,15121,WMM2,1666637,false,false,1325,image-keyboard-response,9
true,10,0,1,2,false,d,true,false,0.0-2.0-0.41-0.377-3.377,1,0,0,81,false,stim,false,1,1814.0,1,0,1,15121,WMM2,1669957,false,false,1328,image-keyboard-response,10
true,10,0,1,0,true,q,false,false,0.0-2.0-0.42-0.378-3.378,1,0,0,81,false,stim,false,0,1835.0,1,1,0,15121,WMM2,1673302,false,true,1331,image-keyboard-response,11
true,10,0,1,0,true,q,false,true,0.0-2.0-0.42-0.379-3.379,1,0,0,81,false,stim,false,1,2542.0,1,0,2,15121,WMM2,1677349,false,false,1334,image-keyboard-response,12
true,10,0,1,0,true,q,false,true,0.0-2.0-0.42-0.380-3.380,1,0,0,81,false,stim,false,1,1970.0,1,0,2,15121,WMM2,1680825,false,false,1337,image-keyboard-response,13
true,10,1,1,0,false,q,true,false,0.0-2.0-0.42-0.381-3.381,1,0,0,90,false,stim,false,0,1955.0,1,1,0,15121,WMM2,1684287,false,false,1340,image-keyboard-response,14
true,10,2,1,0,false,q,true,false,0.0-2.0-0.42-0.382-3.382,1,0,0,68,false,stim,false,0,1678.0,1,1,0,15121,WMM2,1687471,false,false,1343,image-keyboard-response,15
true,10,2,1,2,true,d,false,true,0.0-2.0-0.42-0.383-3.383,1,0,0,68,false,stim,false,1,2518.0,1,0,1,15121,WMM2,1691496,false,false,1346,image-keyboard-response,16
true,10,2,1,2,true,d,false,true,0.0-2.0-0.42-0.384-3.384,1,0,0,68,false,stim,false,1,620.9999999997672,1,0,1,15121,WMM2,1693624,false,false,1349,image-keyboard-response,17
true,10,2,1,2,true,d,false,true,0.0-2.0-0.42-0.385-3.385,1,0,0,68,false,stim,false,1,829.0,1,0,1,15121,WMM2,1695960,false,false,1352,image-keyboard-response,18
true,10,0,1,0,true,q,false,true,0.0-2.0-0.42-0.386-3.386,1,0,0,81,false,stim,false,1,1453.0,1,0,2,15121,WMM2,1698920,false,false,1355,image-keyboard-response,19
true,10,1,1,0,false,q,true,false,0.0-2.0-0.43-0.387-3.387,1,0,0,90,false,stim,false,0,2285.0,1,1,0,15121,WMM2,1702712,false,false,1358,image-keyboard-response,20
true,10,1,1,0,false,q,true,false,0.0-2.0-0.43-0.388-3.388,1,0,0,90,false,stim,false,0,590.0,1,1,0,15121,WMM2,1704808,false,false,1361,image-keyboard-response,21
true,10,0,1,0,true,q,false,true,0.0-2.0-0.43-0.389-3.389,1,0,0,81,false,stim,false,1,2585.0,1,0,2,15121,WMM2,1708902,false,false,1364,image-keyboard-response,22
true,10,2,1,2,true,d,false,true,0.0-2.0-0.43-0.390-3.390,1,0,0,68,false,stim,false,1,2025.0000000002328,1,0,1,15121,WMM2,1712435,false,false,1367,image-keyboard-response,23
true,10,2,1,0,false,q,true,false,0.0-2.0-0.43-0.391-3.391,1,0,0,68,false,stim,false,0,556.0,1,1,0,15121,WMM2,1714499,false,false,1370,image-keyboard-response,24
true,10,0,1,0,true,q,false,false,0.0-2.0-0.43-0.392-3.392,1,0,0,81,false,stim,false,1,2285.000000000233,1,0,2,15121,WMM2,1718291,false,true,1373,image-keyboard-response,25
true,10,0,1,0,true,q,false,true,0.0-2.0-0.43-0.393-3.393,1,0,0,81,false,stim,false,1,1174.0,1,0,2,15121,WMM2,1720971,false,false,1376,image-keyboard-response,26
false,10,-1,1,2,false,d,true,true,0.0-2.0-0.43-0.394-3.394,1,0,0,,false,stim,false,1,,1,0,1,15121,WMM2,1725480,false,true,1379,image-keyboard-response,27
true,10,2,1,2,true,d,false,true,0.0-2.0-0.43-0.395-3.395,1,0,0,68,false,stim,false,1,555.0,1,0,1,15121,WMM2,1727543,false,false,1382,image-keyboard-response,28
true,10,0,1,0,true,q,false,true,0.0-2.0-0.44-0.396-3.396,1,0,0,81,false,stim,false,1,2401.999999999767,1,0,2,15121,WMM2,1731453,false,false,1385,image-keyboard-response,29
true,10,2,1,2,true,d,false,true,0.0-2.0-0.44-0.397-3.397,1,0,0,68,false,stim,false,1,2426.0,1,0,1,15121,WMM2,1735388,false,false,1388,image-keyboard-response,30
true,10,0,1,0,true,q,false,true,0.0-2.0-0.44-0.398-3.398,1,0,0,81,false,stim,false,1,2461.0,1,0,2,15121,WMM2,1739357,false,false,1391,image-keyboard-response,31
true,10,2,1,2,true,d,false,true,0.0-2.0-0.44-0.399-3.399,1,0,0,68,false,stim,false,1,1836.0,1,0,1,15121,WMM2,1742701,false,false,1394,image-keyboard-response,32
true,10,2,1,0,false,q,true,false,0.0-2.0-0.44-0.400-3.400,1,0,0,68,false,stim,false,0,1524.0,1,1,0,15121,WMM2,1745733,false,false,1397,image-keyboard-response,33
true,10,0,1,0,true,q,false,true,0.0-2.0-0.44-0.401-3.401,1,0,0,81,false,stim,false,1,2282.000000000233,1,0,2,15121,WMM2,1749524,false,false,1400,image-keyboard-response,34
true,10,0,1,0,true,q,false,true,0.0-2.0-0.44-0.402-3.402,1,0,0,81,false,stim,false,0,2906.0,1,1,0,15121,WMM2,1753943,false,false,1403,image-keyboard-response,35
true,10,0,1,0,true,q,false,true,0.0-2.0-0.44-0.403-3.403,1,0,0,81,false,stim,false,0,570.0,1,1,0,15121,WMM2,1756021,false,false,1406,image-keyboard-response,36
true,10,2,1,2,true,d,false,true,0.0-2.0-0.44-0.404-3.404,1,0,0,68,false,stim,false,1,868.0,1,0,1,15121,WMM2,1758397,false,false,1409,image-keyboard-response,37
true,10,0,1,0,true,q,false,true,0.0-2.0-0.45-0.405-3.405,1,0,0,81,false,stim,false,0,1037.0,1,1,0,15121,WMM2,1760941,false,false,1412,image-keyboard-response,38
true,10,0,1,0,true,q,false,true,0.0-2.0-0.45-0.406-3.406,1,0,0,81,false,stim,false,1,1301.0,1,0,2,15121,WMM2,1763749,false,false,1415,image-keyboard-response,39
true,10,2,1,2,true,d,false,true,0.0-2.0-0.45-0.407-3.407,1,0,0,68,false,stim,false,1,1173.0,1,0,1,15121,WMM2,1766429,false,false,1418,image-keyboard-response,40
true,10,2,1,2,true,d,false,true,0.0-2.0-0.45-0.408-3.408,1,0,0,68,false,stim,false,1,934.0000000002328,1,0,1,15121,WMM2,1768869,false,false,1421,image-keyboard-response,41
true,10,0,1,0,true,q,false,true,0.0-2.0-0.45-0.409-3.409,1,0,0,81,false,stim,false,0,1357.0,1,1,0,15121,WMM2,1771733,false,false,1424,image-keyboard-response,42
true,10,0,1,0,true,q,false,false,0.0-2.0-0.45-0.410-3.410,1,0,0,81,false,stim,false,1,1630.0000000002328,1,0,2,15121,WMM2,1774870,false,true,1427,image-keyboard-response,43
true,10,0,1,0,true,q,false,true,0.0-2.0-0.45-0.411-3.411,1,0,0,81,false,stim,false,0,1679.0,1,1,0,15121,WMM2,1778055,false,false,1430,image-keyboard-response,44
true,10,0,1,0,true,q,false,true,0.0-2.0-0.45-0.412-3.412,1,0,0,81,false,stim,false,1,2059.999999999767,1,0,2,15121,WMM2,1781622,false,false,1433,image-keyboard-response,45
true,10,2,1,2,true,d,false,true,0.0-2.0-0.45-0.413-3.413,1,0,0,68,false,stim,false,1,948.9999999997672,1,0,1,15121,WMM2,1784078,false,false,1436,image-keyboard-response,46
true,11,0,1,0,true,q,false,true,0.0-2.0-0.46-0.414-3.414,1,0,0,81,true,stim,false,0,1334.0,1,1,0,15121,WMM2,1786919,false,false,1439,image-keyboard-response,1
true,11,0,1,2,false,d,false,false,0.0-2.0-0.46-0.415-3.415,1,0,0,81,false,stim,true,0,1556.0,1,0,2,15121,WMM2,1789982,false,false,1442,image-keyboard-response,2
true,11,2,1,0,false,q,false,false,0.0-2.0-0.46-0.416-3.416,1,0,0,68,false,stim,true,2,1607.0,1,0,1,15121,WMM2,1793096,false,false,1445,image-keyboard-response,3
true,11,0,1,2,false,d,false,false,0.0-2.0-0.46-0.417-3.417,1,0,0,81,false,stim,true,0,1971.0,1,0,2,15121,WMM2,1796574,false,false,1448,image-keyboard-response,4
true,11,0,1,0,true,q,false,true,0.0-2.0-0.46-0.418-3.418,1,0,0,81,false,stim,false,0,1887.0000000002328,1,1,0,15121,WMM2,1799966,false,false,1451,image-keyboard-response,5
true,11,2,1,0,false,q,false,true,0.0-2.0-0.46-0.419-3.419,1,0,0,68,false,stim,true,2,2035.0,1,0,1,15121,WMM2,1803508,false,true,1454,image-keyboard-response,6
true,11,2,1,0,false,q,false,true,0.0-2.0-0.46-0.420-3.420,1,0,0,68,false,stim,true,2,866.9999999997672,1,0,1,15121,WMM2,1805882,false,true,1457,image-keyboard-response,7
true,11,0,1,2,false,d,false,false,0.0-2.0-0.46-0.421-3.421,1,0,0,81,false,stim,true,0,2572.0,1,0,2,15121,WMM2,1809960,false,false,1460,image-keyboard-response,8
true,11,0,1,0,true,q,false,true,0.0-2.0-0.46-0.422-3.422,1,0,0,81,false,stim,false,0,1630.0,1,1,0,15121,WMM2,1813096,false,false,1463,image-keyboard-response,9
true,11,0,1,2,false,d,false,false,0.0-2.0-0.47-0.423-3.423,1,0,0,81,false,stim,true,0,2469.0,1,0,2,15121,WMM2,1817072,false,false,1466,image-keyboard-response,10
true,11,0,1,2,false,d,false,false,0.0-2.0-0.47-0.424-3.424,1,0,0,81,false,stim,true,0,468.0,1,0,2,15121,WMM2,1819048,false,false,1469,image-keyboard-response,11
true,11,2,1,0,false,q,false,false,0.0-2.0-0.47-0.425-3.425,1,0,0,68,false,stim,true,2,1757.0,1,0,1,15121,WMM2,1822312,false,false,1472,image-keyboard-response,12
true,11,0,1,0,true,q,false,true,0.0-2.0-0.47-0.426-3.426,1,0,0,81,false,stim,false,0,1844.0,1,1,0,15121,WMM2,1825664,false,false,1475,image-keyboard-response,13
true,11,0,1,0,true,q,false,true,0.0-2.0-0.47-0.427-3.427,1,0,0,81,false,stim,false,0,1118.0,1,1,0,15121,WMM2,1828288,false,false,1478,image-keyboard-response,14
true,11,0,1,0,true,q,false,true,0.0-2.0-0.47-0.428-3.428,1,0,0,81,false,stim,false,0,1261.9999999997672,1,1,0,15121,WMM2,1831057,false,false,1481,image-keyboard-response,15
false,11,-1,1,0,false,q,true,false,0.0-2.0-0.47-0.429-3.429,1,0,0,,false,stim,false,2,,1,0,1,15121,WMM2,1835566,false,false,1484,image-keyboard-response,16
true,11,1,1,0,false,q,true,false,0.0-2.0-0.47-0.430-3.430,1,0,0,90,false,stim,false,2,617.0000000002328,1,0,1,15121,WMM2,1837689,false,false,1487,image-keyboard-response,17
true,11,1,1,2,false,d,true,false,0.0-2.0-0.47-0.431-3.431,1,0,0,90,false,stim,false,0,2640.0,1,0,2,15121,WMM2,1841836,false,false,1490,image-keyboard-response,18
true,11,2,1,2,true,d,false,true,0.0-2.0-0.48-0.432-3.432,1,0,0,68,false,stim,false,0,1910.9999999997672,1,0,2,15121,WMM2,1845254,false,false,1493,image-keyboard-response,19
true,11,0,1,0,true,q,false,true,0.0-2.0-0.48-0.433-3.433,1,0,0,81,false,stim,false,0,1744.0,1,1,0,15121,WMM2,1848503,false,false,1496,image-keyboard-response,20
true,11,0,1,0,true,q,false,true,0.0-2.0-0.48-0.434-3.434,1,0,0,81,false,stim,false,2,531.0,1,0,1,15121,WMM2,1850542,false,false,1499,image-keyboard-response,21
true,11,2,1,2,true,d,false,true,0.0-2.0-0.48-0.435-3.435,1,0,0,68,false,stim,false,0,1775.9999999997672,1,0,2,15121,WMM2,1853831,false,false,1502,image-keyboard-response,22
true,11,0,1,0,true,q,false,true,0.0-2.0-0.48-0.436-3.436,1,0,0,81,false,stim,false,2,2225.0,1,0,1,15121,WMM2,1857563,false,false,1505,image-keyboard-response,23
true,11,2,1,2,true,d,false,true,0.0-2.0-0.48-0.437-3.437,1,0,0,68,false,stim,false,0,1652.0,1,1,2,15121,WMM2,1860722,false,false,1508,image-keyboard-response,24
true,11,0,1,0,true,q,false,true,0.0-2.0-0.48-0.438-3.438,1,0,0,81,false,stim,false,0,1493.0,1,1,0,15121,WMM2,1863722,false,false,1511,image-keyboard-response,25
true,11,0,1,0,true,q,false,false,0.0-2.0-0.48-0.439-3.439,1,0,0,81,false,stim,false,0,501.0,1,1,0,15121,WMM2,1865730,false,true,1514,image-keyboard-response,26
true,11,0,1,0,true,q,false,true,0.0-2.0-0.48-0.440-3.440,1,0,0,81,false,stim,false,2,2128.999999999767,1,0,1,15121,WMM2,1869367,false,false,1517,image-keyboard-response,27
true,11,0,1,0,true,q,false,true,0.0-2.0-0.49-0.441-3.441,1,0,0,81,false,stim,false,0,1469.0,1,1,0,15121,WMM2,1872343,false,false,1520,image-keyboard-response,28
true,11,0,1,0,true,q,false,true,0.0-2.0-0.49-0.442-3.442,1,0,0,81,false,stim,false,0,724.0000000002328,1,1,0,15121,WMM2,1874575,false,false,1523,image-keyboard-response,29
true,11,2,1,2,true,d,false,false,0.0-2.0-0.49-0.443-3.443,1,0,0,68,false,stim,false,0,2337.0,1,1,2,15121,WMM2,1878420,false,true,1526,image-keyboard-response,30
true,11,0,1,0,true,q,false,false,0.0-2.0-0.49-0.444-3.444,1,0,0,81,false,stim,false,0,1174.0,1,1,0,15121,WMM2,1881100,false,true,1529,image-keyboard-response,31
true,11,0,1,0,true,q,false,true,0.0-2.0-0.49-0.445-3.445,1,0,0,81,false,stim,false,2,2071.0,1,0,1,15121,WMM2,1884678,false,false,1532,image-keyboard-response,32
true,11,0,1,0,true,q,false,true,0.0-2.0-0.49-0.446-3.446,1,0,0,81,false,stim,false,2,773.0,1,0,1,15121,WMM2,1886958,false,false,1535,image-keyboard-response,33
true,12,2,4,2,true,d,false,true,0.0-2.0-0.49-0.447-3.447,1,0,1,68,true,stim,false,2,1939.0000000002328,1,1,2,15121,WMM2,1890402,false,false,1538,image-keyboard-response,1
true,12,0,4,0,true,q,false,true,0.0-2.0-0.49-0.448-3.448,1,0,1,81,false,stim,false,0,2358.0,1,0,1,15121,WMM2,1894267,false,false,1541,image-keyboard-response,2
true,12,2,4,2,true,d,false,true,0.0-2.0-0.49-0.449-3.449,1,0,1,68,false,stim,false,2,1812.0000000002328,1,1,2,15121,WMM2,1897586,false,false,1544,image-keyboard-response,3
true,12,2,4,2,true,d,false,true,0.0-2.0-0.50-0.450-3.450,1,0,1,68,false,stim,false,2,2245.0,1,1,2,15121,WMM2,1901339,false,false,1547,image-keyboard-response,4
true,12,0,4,0,true,q,false,true,0.0-2.0-0.50-0.451-3.451,1,0,1,81,false,stim,false,0,1373.9999999997672,1,0,1,15121,WMM2,1904219,false,false,1550,image-keyboard-response,5
true,12,0,4,0,true,q,false,false,0.0-2.0-0.50-0.452-3.452,1,0,1,81,false,stim,false,0,692.0,1,0,1,15121,WMM2,1906419,false,true,1553,image-keyboard-response,6
true,12,0,4,0,true,q,false,true,0.0-2.0-0.50-0.453-3.453,1,0,1,81,false,stim,false,0,1637.0,1,1,0,15121,WMM2,1909563,false,false,1556,image-keyboard-response,7
true,12,2,4,2,true,d,false,true,0.0-2.0-0.50-0.454-3.454,1,0,1,68,false,stim,false,2,2249.0,1,1,2,15121,WMM2,1913319,false,false,1559,image-keyboard-response,8
true,12,0,4,0,true,q,false,true,0.0-2.0-0.50-0.455-3.455,1,0,1,81,false,stim,false,0,1524.0,1,1,0,15121,WMM2,1916351,false,false,1562,image-keyboard-response,9
true,12,0,4,0,true,q,false,false,0.0-2.0-0.50-0.456-3.456,1,0,1,81,false,stim,false,0,718.0000000002328,1,1,0,15121,WMM2,1918576,false,true,1565,image-keyboard-response,10
true,12,2,4,2,true,d,false,true,0.0-2.0-0.50-0.457-3.457,1,0,1,68,false,stim,false,2,2356.0,1,1,2,15121,WMM2,1922440,false,false,1568,image-keyboard-response,11
true,12,0,4,0,true,q,false,true,0.0-2.0-0.50-0.458-3.458,1,0,1,81,false,stim,false,0,2778.0,1,0,1,15121,WMM2,1926724,false,false,1571,image-keyboard-response,12
true,12,0,4,0,true,q,false,true,0.0-2.0-0.51-0.459-3.459,1,0,1,81,false,stim,false,0,2490.999999999767,1,0,1,15121,WMM2,1930722,false,false,1574,image-keyboard-response,13
true,12,0,4,0,true,q,false,false,0.0-2.0-0.51-0.460-3.460,1,0,1,81,false,stim,false,0,1253.0000000002328,1,1,0,15121,WMM2,1933480,false,true,1577,image-keyboard-response,14
false,12,-1,4,0,false,q,true,false,0.0-2.0-0.51-0.461-3.461,1,0,1,,false,stim,false,0,,1,0,1,15121,WMM2,1937988,false,false,1580,image-keyboard-response,15
true,12,0,4,0,true,q,false,true,0.0-2.0-0.51-0.462-3.462,1,0,1,81,false,stim,false,0,552.0000000002328,1,0,1,15121,WMM2,1940048,false,false,1583,image-keyboard-response,16
true,12,2,4,2,true,d,false,true,0.0-2.0-0.51-0.463-3.463,1,0,1,68,false,stim,false,2,1626.0,1,1,2,15121,WMM2,1943181,false,false,1586,image-keyboard-response,17
true,12,2,4,0,false,q,true,false,0.0-2.0-0.51-0.464-3.464,1,0,1,68,false,stim,false,0,1526.0,1,1,0,15121,WMM2,1946214,false,false,1589,image-keyboard-response,18
true,12,2,4,2,true,d,false,true,0.0-2.0-0.51-0.465-3.465,1,0,1,68,false,stim,false,2,2298.0,1,1,2,15121,WMM2,1950019,false,false,1592,image-keyboard-response,19
true,12,2,4,2,true,d,false,true,0.0-2.0-0.51-0.466-3.466,1,0,1,68,false,stim,false,2,1096.0,1,1,2,15121,WMM2,1952620,false,false,1595,image-keyboard-response,20
true,12,1,4,0,false,q,true,false,0.0-2.0-0.51-0.467-3.467,1,0,1,90,false,stim,false,0,1846.0,1,1,0,15121,WMM2,1955973,false,false,1598,image-keyboard-response,21
false,12,-1,4,0,false,q,true,false,0.0-2.0-0.52-0.468-3.468,1,0,1,,false,stim,false,0,,1,0,1,15121,WMM2,1960491,false,false,1601,image-keyboard-response,22
true,12,2,4,2,true,d,false,true,0.0-2.0-0.52-0.469-3.469,1,0,1,68,false,stim,false,2,2034.9999999997672,1,1,2,15121,WMM2,1964035,false,false,1604,image-keyboard-response,23
true,12,2,4,2,true,d,false,false,0.0-2.0-0.52-0.470-3.470,1,0,1,68,false,stim,false,2,588.0,1,1,2,15121,WMM2,1966131,false,true,1607,image-keyboard-response,24
true,12,2,4,0,false,q,true,false,0.0-2.0-0.52-0.471-3.471,1,0,1,68,false,stim,false,0,2486.0,1,1,0,15121,WMM2,1970127,false,false,1610,image-keyboard-response,25
true,12,0,4,0,true,q,false,true,0.0-2.0-0.52-0.472-3.472,1,0,1,81,false,stim,false,0,1972.0,1,0,1,15121,WMM2,1973607,false,false,1613,image-keyboard-response,26
true,12,0,4,0,true,q,false,true,0.0-2.0-0.52-0.473-3.473,1,0,1,81,false,stim,false,0,1428.0,1,1,0,15121,WMM2,1976543,false,false,1616,image-keyboard-response,27
true,12,2,4,2,true,d,false,true,0.0-2.0-0.52-0.474-3.474,1,0,1,68,false,stim,false,2,2052.0,1,1,2,15121,WMM2,1980103,false,false,1619,image-keyboard-response,28
true,12,0,4,0,true,q,false,true,0.0-2.0-0.52-0.475-3.475,1,0,1,81,false,stim,false,0,2272.0,1,0,1,15121,WMM2,1983883,false,false,1622,image-keyboard-response,29
true,12,0,4,0,true,q,false,true,0.0-2.0-0.52-0.476-3.476,1,0,1,81,false,stim,false,0,1292.0000000002328,1,1,0,15121,WMM2,1986683,false,false,1625,image-keyboard-response,30
true,12,0,4,0,true,q,false,true,0.0-2.0-0.53-0.477-3.477,1,0,1,81,false,stim,false,0,700.0,1,0,0,15121,WMM2,1988892,false,false,1628,image-keyboard-response,31
true,12,0,4,0,true,q,false,true,0.0-2.0-0.53-0.478-3.478,1,0,1,81,false,stim,false,0,2069.0,1,1,1,15121,WMM2,1992468,false,false,1631,image-keyboard-response,32
true,12,2,4,2,true,d,false,true,0.0-2.0-0.53-0.479-3.479,1,0,1,68,false,stim,false,2,853.0000000002328,1,1,2,15121,WMM2,1994828,false,false,1634,image-keyboard-response,33
true,12,0,4,2,false,d,true,false,0.0-2.0-0.53-0.480-3.480,1,0,1,81,false,stim,false,2,1029.0,1,1,2,15121,WMM2,1997364,false,false,1637,image-keyboard-response,34
true,12,0,4,0,true,q,false,true,0.0-2.0-0.53-0.481-3.481,1,0,1,81,false,stim,false,0,2074.0,1,1,1,15121,WMM2,2000945,false,false,1640,image-keyboard-response,35
true,12,2,4,2,true,d,false,true,0.0-2.0-0.53-0.482-3.482,1,0,1,68,false,stim,false,2,2116.0,1,1,2,15121,WMM2,2004568,false,false,1643,image-keyboard-response,36
true,12,0,4,0,true,q,false,true,0.0-2.0-0.53-0.483-3.483,1,0,1,81,false,stim,false,0,2137.000000000233,1,0,0,15121,WMM2,2008212,false,false,1646,image-keyboard-response,37
true,12,0,4,0,true,q,false,true,0.0-2.0-0.53-0.484-3.484,1,0,1,81,false,stim,false,0,2219.0,1,1,1,15121,WMM2,2011939,false,false,1649,image-keyboard-response,38
true,12,0,4,0,true,q,false,true,0.0-2.0-0.53-0.485-3.485,1,0,1,81,false,stim,false,0,885.0,1,0,0,15121,WMM2,2014331,false,false,1652,image-keyboard-response,39
true,12,0,4,0,true,q,false,true,0.0-2.0-0.54-0.486-3.486,1,0,1,81,false,stim,false,0,694.0000000002328,1,0,0,15121,WMM2,2016531,false,false,1655,image-keyboard-response,40
true,13,2,3,2,true,d,false,false,0.0-2.0-0.54-0.487-3.487,0,1,1,68,true,stim,false,2,1957.0,1,1,2,15121,WMM2,2019995,false,true,1658,image-keyboard-response,1
true,13,0,3,0,true,q,false,true,0.0-2.0-0.54-0.488-3.488,0,1,1,81,false,stim,false,0,2272.0,1,1,1,15121,WMM2,2023773,false,false,1661,image-keyboard-response,2
true,13,2,3,2,true,d,false,true,0.0-2.0-0.54-0.489-3.489,0,1,1,68,false,stim,false,2,1963.9999999997672,1,1,2,15121,WMM2,2027245,false,false,1664,image-keyboard-response,3
true,13,0,3,2,false,d,false,false,0.0-2.0-0.54-0.490-3.490,0,1,1,81,false,stim,true,0,2180.999999999767,1,0,0,15121,WMM2,2030934,false,false,1667,image-keyboard-response,4
true,13,0,3,2,false,d,false,false,0.0-2.0-0.54-0.491-3.491,0,1,1,81,false,stim,true,0,517.0,1,0,0,15121,WMM2,2032958,false,false,1670,image-keyboard-response,5
true,13,0,3,0,true,q,false,true,0.0-2.0-0.54-0.492-3.492,0,1,1,81,false,stim,false,0,1796.0000000002328,1,1,1,15121,WMM2,2036262,false,false,1673,image-keyboard-response,6
true,13,0,3,0,true,q,false,true,0.0-2.0-0.54-0.493-3.493,0,1,1,81,false,stim,false,0,1389.0,1,1,1,15121,WMM2,2039158,false,false,1676,image-keyboard-response,7
true,13,2,3,2,true,d,false,true,0.0-2.0-0.54-0.494-3.494,0,1,1,68,false,stim,false,2,1483.9999999997672,1,1,2,15121,WMM2,2042150,false,false,1679,image-keyboard-response,8
true,13,2,3,2,true,d,false,true,0.0-2.0-0.55-0.495-3.495,0,1,1,68,false,stim,false,2,2016.9999999997672,1,1,2,15121,WMM2,2045674,false,false,1682,image-keyboard-response,9
true,13,2,3,2,true,d,false,true,0.0-2.0-0.55-0.496-3.496,0,1,1,68,false,stim,false,0,931.9999999997672,1,0,0,15121,WMM2,2048114,false,false,1685,image-keyboard-response,10
true,13,2,3,2,true,d,false,true,0.0-2.0-0.55-0.497-3.497,0,1,1,68,false,stim,false,0,1662.0000000004657,1,0,0,15121,WMM2,2051282,false,false,1688,image-keyboard-response,11
true,13,2,3,2,true,d,false,true,0.0-2.0-0.55-0.498-3.498,0,1,1,68,false,stim,false,2,2038.0,1,1,2,15121,WMM2,2054827,false,false,1691,image-keyboard-response,12
true,13,0,3,0,true,q,false,true,0.0-2.0-0.55-0.499-3.499,0,1,1,81,false,stim,false,0,1756.0,1,1,1,15121,WMM2,2058090,false,false,1694,image-keyboard-response,13
true,13,0,3,0,true,q,false,true,0.0-2.0-0.55-0.500-3.500,0,1,1,81,false,stim,false,0,518.0,1,1,1,15121,WMM2,2060116,false,false,1697,image-keyboard-response,14
true,13,0,3,0,true,q,false,false,0.0-2.0-0.55-0.501-3.501,0,1,1,81,false,stim,false,0,605.9999999997672,1,1,1,15121,WMM2,2062228,false,true,1700,image-keyboard-response,15
true,13,2,3,2,true,d,false,true,0.0-2.0-0.55-0.502-3.502,0,1,1,68,false,stim,false,2,2696.0,1,1,2,15121,WMM2,2066435,false,false,1703,image-keyboard-response,16
true,13,2,3,2,true,d,false,true,0.0-2.0-0.55-0.503-3.503,0,1,1,68,false,stim,false,0,2286.0,1,0,0,15121,WMM2,2070228,false,false,1706,image-keyboard-response,17
true,13,2,3,2,true,d,false,true,0.0-2.0-0.56-0.504-3.504,0,1,1,68,false,stim,false,0,941.0,1,0,0,15121,WMM2,2072677,false,false,1709,image-keyboard-response,18
true,13,0,3,0,true,q,false,true,0.0-2.0-0.56-0.505-3.505,0,1,1,81,false,stim,false,0,2462.0,1,1,1,15121,WMM2,2076646,false,false,1712,image-keyboard-response,19
true,13,0,3,0,true,q,false,false,0.0-2.0-0.56-0.506-3.506,0,1,1,81,false,stim,false,0,789.0000000002328,1,1,1,15121,WMM2,2078941,false,true,1715,image-keyboard-response,20
true,13,2,3,2,true,d,false,false,0.0-2.0-0.56-0.507-3.507,0,1,1,68,false,stim,false,0,2389.000000000233,1,0,0,15121,WMM2,2082838,false,true,1718,image-keyboard-response,21
true,13,2,3,2,true,d,false,true,0.0-2.0-0.56-0.508-3.508,0,1,1,68,false,stim,false,2,2745.0,1,1,2,15121,WMM2,2087090,false,false,1721,image-keyboard-response,22
true,13,2,3,2,true,d,false,true,0.0-2.0-0.56-0.509-3.509,0,1,1,68,false,stim,false,2,1790.0,1,1,2,15121,WMM2,2090388,false,false,1724,image-keyboard-response,23
true,13,0,3,0,true,q,false,true,0.0-2.0-0.56-0.510-3.510,0,1,1,81,false,stim,false,0,1933.0,1,1,1,15121,WMM2,2093827,false,false,1727,image-keyboard-response,24
true,13,2,3,2,true,d,false,false,0.0-2.0-0.56-0.511-3.511,0,1,1,68,false,stim,false,0,1866.0000000002328,1,0,0,15121,WMM2,2097202,false,true,1730,image-keyboard-response,25
true,13,2,3,2,true,d,false,true,0.0-2.0-0.56-0.512-3.512,0,1,1,68,false,stim,false,2,1835.0,1,1,2,15121,WMM2,2100543,false,false,1733,image-keyboard-response,26
true,13,2,3,2,true,d,false,true,0.0-2.0-0.57-0.513-3.513,0,1,1,68,false,stim,false,2,803.0000000004657,1,1,2,15121,WMM2,2102855,false,false,1736,image-keyboard-response,27
true,13,0,3,0,true,q,false,true,0.0-2.0-0.57-0.514-3.514,0,1,1,81,false,stim,false,0,1924.0,1,1,1,15121,WMM2,2106287,false,false,1739,image-keyboard-response,28
true,13,2,3,2,true,d,false,true,0.0-2.0-0.57-0.515-3.515,0,1,1,68,false,stim,false,0,1926.0,1,0,0,15121,WMM2,2109720,false,false,1742,image-keyboard-response,29
true,13,2,3,2,true,d,false,true,0.0-2.0-0.57-0.516-3.516,0,1,1,68,false,stim,false,2,1861.0,1,1,2,15121,WMM2,2113088,false,false,1745,image-keyboard-response,30
true,14,0,0,0,true,q,false,true,0.0-2.0-0.57-0.517-3.517,0,1,1,81,true,stim,false,0,1808.0000000004657,1,1,1,15121,WMM2,2146682,false,false,1779,image-keyboard-response,1
true,14,0,0,2,false,d,true,false,0.0-2.0-0.57-0.518-3.518,0,1,1,81,false,stim,false,2,1342.0,1,0,0,15121,WMM2,2149531,false,false,1782,image-keyboard-response,2
true,14,2,0,2,true,d,false,true,0.0-2.0-0.57-0.519-3.519,0,1,1,68,false,stim,false,2,1205.0,1,0,0,15121,WMM2,2152243,false,false,1785,image-keyboard-response,3
true,14,0,0,0,true,q,false,true,0.0-2.0-0.57-0.520-3.520,0,1,1,81,false,stim,false,0,2038.0,1,1,1,15121,WMM2,2155788,false,false,1788,image-keyboard-response,4
true,14,0,0,2,false,d,true,false,0.0-2.0-0.57-0.521-3.521,0,1,1,81,false,stim,false,2,1717.0,1,1,2,15121,WMM2,2159014,false,false,1791,image-keyboard-response,5
true,14,0,0,0,true,q,false,true,0.0-2.0-0.58-0.522-3.522,0,1,1,81,false,stim,false,0,1594.0000000004657,1,1,1,15121,WMM2,2162117,false,false,1794,image-keyboard-response,6
true,14,1,0,2,false,d,true,true,0.0-2.0-0.58-0.523-3.523,0,1,1,90,false,stim,false,2,1300.0000000004657,1,1,2,15121,WMM2,2164925,false,true,1797,image-keyboard-response,7
true,14,1,0,2,false,d,true,false,0.0-2.0-0.58-0.524-3.524,0,1,1,90,false,stim,false,2,1093.0,1,1,2,15121,WMM2,2167525,false,false,1800,image-keyboard-response,8
true,14,0,0,0,true,q,false,true,0.0-2.0-0.58-0.525-3.525,0,1,1,81,false,stim,false,0,2076.0,1,1,1,15121,WMM2,2171114,false,false,1803,image-keyboard-response,9
true,14,0,0,0,true,q,false,true,0.0-2.0-0.58-0.526-3.526,0,1,1,81,false,stim,false,0,1902.0,1,1,1,15121,WMM2,2174524,false,false,1806,image-keyboard-response,10
true,14,1,0,2,false,d,true,false,0.0-2.0-0.58-0.527-3.527,0,1,1,90,false,stim,false,2,2689.0,1,1,2,15121,WMM2,2178720,false,false,1809,image-keyboard-response,11
true,14,2,0,2,true,d,false,true,0.0-2.0-0.58-0.528-3.528,0,1,1,68,false,stim,false,2,2914.0,1,0,0,15121,WMM2,2183141,false,false,1812,image-keyboard-response,12
true,14,2,0,2,true,d,false,true,0.0-2.0-0.58-0.529-3.529,0,1,1,68,false,stim,false,2,1372.0000000004657,1,0,0,15121,WMM2,2186022,false,false,1815,image-keyboard-response,13
true,14,2,0,2,true,d,false,true,0.0-2.0-0.58-0.530-3.530,0,1,1,68,false,stim,false,2,1957.0,1,0,0,15121,WMM2,2189486,false,false,1818,image-keyboard-response,14
true,14,2,0,2,true,d,false,true,0.0-2.0-0.59-0.531-3.531,0,1,1,68,false,stim,false,2,644.0,1,0,0,15121,WMM2,2191638,false,false,1821,image-keyboard-response,15
true,14,0,0,0,true,q,false,true,0.0-2.0-0.59-0.532-3.532,0,1,1,81,false,stim,false,0,1941.0,1,1,1,15121,WMM2,2195086,false,false,1824,image-keyboard-response,16
true,14,1,0,2,false,d,true,false,0.0-2.0-0.59-0.533-3.533,0,1,1,90,false,stim,false,2,2047.0,1,1,2,15121,WMM2,2198641,false,false,1827,image-keyboard-response,17
true,14,2,0,2,true,d,false,true,0.0-2.0-0.59-0.534-3.534,0,1,1,68,false,stim,false,2,1908.0,1,0,0,15121,WMM2,2202055,false,false,1830,image-keyboard-response,18
true,14,2,0,2,true,d,false,true,0.0-2.0-0.59-0.535-3.535,0,1,1,68,false,stim,false,2,742.0,1,0,0,15121,WMM2,2204303,false,false,1833,image-keyboard-response,19
true,14,1,0,2,false,d,true,false,0.0-2.0-0.59-0.536-3.536,0,1,1,90,false,stim,false,2,2627.9999999995343,1,1,2,15121,WMM2,2208438,false,false,1836,image-keyboard-response,20
false,14,-1,0,0,false,q,true,false,0.0-2.0-0.59-0.537-3.537,0,1,1,,false,stim,false,0,,1,1,1,15121,WMM2,2212948,false,false,1839,image-keyboard-response,21
true,14,1,0,2,false,d,true,false,0.0-2.0-0.59-0.538-3.538,0,1,1,90,false,stim,false,2,1977.0000000004657,1,1,2,15121,WMM2,2216435,false,false,1842,image-keyboard-response,22
true,14,0,0,0,true,q,false,true,0.0-2.0-0.59-0.539-3.539,0,1,1,81,false,stim,false,0,2249.0,1,1,1,15121,WMM2,2220192,false,false,1845,image-keyboard-response,23
true,14,0,0,0,true,q,false,true,0.0-2.0-0.60-0.540-3.540,0,1,1,81,false,stim,false,0,1899.0,1,1,1,15121,WMM2,2223599,false,false,1848,image-keyboard-response,24
true,14,1,0,2,false,d,true,false,0.0-2.0-0.60-0.541-3.541,0,1,1,90,false,stim,false,2,2244.9999999995343,1,1,2,15121,WMM2,2227354,false,false,1851,image-keyboard-response,25
true,14,2,0,2,true,d,false,false,0.0-2.0-0.60-0.542-3.542,0,1,1,68,false,stim,false,2,1476.0,1,1,2,15121,WMM2,2230339,false,true,1854,image-keyboard-response,26
false,14,-1,0,0,false,q,true,false,0.0-2.0-0.60-0.543-3.543,0,1,1,,false,stim,false,0,,1,1,1,15121,WMM2,2234848,false,false,1857,image-keyboard-response,27
true,14,2,0,2,true,d,false,true,0.0-2.0-0.60-0.544-3.544,0,1,1,68,false,stim,false,2,2127.0000000004657,1,0,0,15121,WMM2,2238484,false,false,1860,image-keyboard-response,28
true,14,0,0,2,false,d,true,false,0.0-2.0-0.60-0.545-3.545,0,1,1,81,false,stim,false,2,1987.0,1,1,2,15121,WMM2,2241979,false,false,1863,image-keyboard-response,29
true,14,2,0,2,true,d,false,true,0.0-2.0-0.60-0.546-3.546,0,1,1,68,false,stim,false,2,1700.0,1,0,0,15121,WMM2,2245187,false,false,1866,image-keyboard-response,30
true,14,0,0,0,true,q,false,true,0.0-2.0-0.60-0.547-3.547,0,1,1,81,false,stim,false,0,1630.0,1,1,1,15121,WMM2,2248326,false,false,1869,image-keyboard-response,31
true,14,2,0,2,true,d,false,true,0.0-2.0-0.60-0.548-3.548,0,1,1,68,false,stim,false,2,2523.0,1,0,0,15121,WMM2,2252357,false,false,1872,image-keyboard-response,32
true,14,0,0,2,false,d,true,true,0.0-2.0-0.61-0.549-3.549,0,1,1,81,false,stim,false,2,2787.0,1,1,2,15121,WMM2,2256654,false,true,1875,image-keyboard-response,33
true,14,0,0,2,false,d,true,false,0.0-2.0-0.61-0.550-3.550,0,1,1,81,false,stim,false,2,806.0,1,1,2,15121,WMM2,2258968,false,false,1878,image-keyboard-response,34
true,14,0,0,0,true,q,false,true,0.0-2.0-0.61-0.551-3.551,0,1,1,81,false,stim,false,0,1314.0,1,1,1,15121,WMM2,2261791,false,false,1881,image-keyboard-response,35
true,14,0,0,2,false,d,true,true,0.0-2.0-0.61-0.552-3.552,0,1,1,81,false,stim,false,2,1109.0000000004657,1,1,2,15121,WMM2,2264408,false,true,1884,image-keyboard-response,36
true,14,0,0,0,true,q,false,false,0.0-2.0-0.61-0.553-3.553,0,1,1,81,false,stim,false,0,506.0,1,1,1,15121,WMM2,2266423,false,true,1887,image-keyboard-response,37
true,14,2,0,2,true,d,false,true,0.0-2.0-0.61-0.554-3.554,0,1,1,68,false,stim,false,2,1580.0,1,0,0,15121,WMM2,2269512,false,false,1890,image-keyboard-response,38
true,14,2,0,2,true,d,false,true,0.0-2.0-0.61-0.555-3.555,0,1,1,68,false,stim,false,2,995.0000000004657,1,0,0,15121,WMM2,2272015,false,false,1893,image-keyboard-response,39
true,14,2,0,2,true,d,false,true,0.0-2.0-0.61-0.556-3.556,0,1,1,68,false,stim,false,2,1026.0,1,0,0,15121,WMM2,2274551,false,false,1896,image-keyboard-response,40
true,14,0,0,0,true,q,false,true,0.0-2.0-0.61-0.557-3.557,0,1,1,81,false,stim,false,0,2433.0,1,1,1,15121,WMM2,2278493,false,false,1899,image-keyboard-response,41
true,14,2,0,2,true,d,false,true,0.0-2.0-0.62-0.558-3.558,0,1,1,68,false,stim,false,2,1581.0,1,0,0,15121,WMM2,2281590,false,false,1902,image-keyboard-response,42
true,14,2,0,2,true,d,false,true,0.0-2.0-0.62-0.559-3.559,0,1,1,68,false,stim,false,2,571.0,1,0,0,15121,WMM2,2283668,false,false,1905,image-keyboard-response,43
true,14,0,0,0,true,q,false,true,0.0-2.0-0.62-0.560-3.560,0,1,1,81,false,stim,false,0,2219.0,1,1,1,15121,WMM2,2287396,false,false,1908,image-keyboard-response,44
true,14,0,0,0,true,q,false,true,0.0-2.0-0.62-0.561-3.561,0,1,1,81,false,stim,false,0,1794.0,1,1,1,15121,WMM2,2290699,false,false,1911,image-keyboard-response,45
true,14,2,0,2,true,d,false,true,0.0-2.0-0.62-0.562-3.562,0,1,1,68,false,stim,false,2,1754.9999999995343,1,0,0,15121,WMM2,2293962,false,false,1914,image-keyboard-response,46
true,14,0,0,0,true,q,false,true,0.0-2.0-0.62-0.563-3.563,0,1,1,81,false,stim,false,0,2482.0,1,1,1,15121,WMM2,2297953,false,false,1917,image-keyboard-response,47
false,14,-1,0,2,false,d,true,false,0.0-2.0-0.62-0.564-3.564,0,1,1,,false,stim,false,2,,1,1,2,15121,WMM2,2302464,false,false,1920,image-keyboard-response,48
true,14,0,0,2,false,d,true,false,0.0-2.0-0.62-0.565-3.565,0,1,1,81,false,stim,false,2,584.0,1,1,2,15121,WMM2,2304558,false,false,1923,image-keyboard-response,49
true,14,0,0,2,false,d,true,false,0.0-2.0-0.62-0.566-3.566,0,1,1,81,false,stim,false,2,1163.0,1,1,2,15121,WMM2,2307230,false,false,1926,image-keyboard-response,50
true,14,2,0,2,true,d,false,true,0.0-2.0-0.63-0.567-3.567,0,1,1,68,false,stim,false,2,1282.0,1,0,2,15121,WMM2,2310022,false,false,1929,image-keyboard-response,51
true,14,0,0,0,true,q,false,true,0.0-2.0-0.63-0.568-3.568,0,1,1,81,false,stim,false,0,2173.0,1,1,1,15121,WMM2,2313702,false,false,1932,image-keyboard-response,52
true,14,2,0,0,false,q,true,false,0.0-2.0-0.63-0.569-3.569,0,1,1,68,false,stim,false,0,2518.0,1,1,1,15121,WMM2,2317728,false,false,1935,image-keyboard-response,53
true,14,2,0,2,true,d,false,true,0.0-2.0-0.63-0.570-3.570,0,1,1,68,false,stim,false,2,1501.0,1,0,2,15121,WMM2,2320736,false,false,1938,image-keyboard-response,54
true,14,0,0,0,true,q,false,true,0.0-2.0-0.63-0.571-3.571,0,1,1,81,false,stim,false,0,1164.0,1,1,1,15121,WMM2,2323409,false,false,1941,image-keyboard-response,55
true,14,2,0,2,true,d,false,true,0.0-2.0-0.63-0.572-3.572,0,1,1,68,false,stim,false,2,1316.0,1,0,0,15121,WMM2,2326233,false,false,1944,image-keyboard-response,56
true,14,2,0,2,true,d,false,true,0.0-2.0-0.63-0.573-3.573,0,1,1,68,false,stim,false,2,645.0,1,0,0,15121,WMM2,2328385,false,false,1947,image-keyboard-response,57
true,14,2,0,2,true,d,false,true,0.0-2.0-0.63-0.574-3.574,0,1,1,68,false,stim,false,2,900.0,1,0,0,15121,WMM2,2330793,false,false,1950,image-keyboard-response,58
true,14,2,0,2,true,d,false,true,0.0-2.0-0.63-0.575-3.575,0,1,1,68,false,stim,false,2,1676.0,1,0,2,15121,WMM2,2333977,false,false,1953,image-keyboard-response,59
true,14,0,0,0,true,q,false,true,0.0-2.0-0.64-0.576-3.576,0,1,1,81,false,stim,false,0,1405.0,1,1,1,15121,WMM2,2336891,false,false,1956,image-keyboard-response,60
true,15,2,1,0,false,q,false,false,0.0-2.0-0.64-0.577-3.577,0,1,0,68,true,stim,true,2,1523.0,1,0,2,15121,WMM2,2339921,false,false,1959,image-keyboard-response,1
true,15,2,1,1,false,z,false,false,0.0-2.0-0.64-0.578-3.578,0,1,0,68,false,stim,true,2,1954.0,1,0,0,15121,WMM2,2343381,false,false,1962,image-keyboard-response,2
true,15,2,1,0,false,q,false,false,0.0-2.0-0.64-0.579-3.579,0,1,0,68,false,stim,true,2,1652.0,1,0,2,15121,WMM2,2346540,false,false,1965,image-keyboard-response,3
true,15,0,1,1,false,z,true,false,0.0-2.0-0.64-0.580-3.580,0,1,0,81,false,stim,false,2,2500.0,1,0,0,15121,WMM2,2350548,false,false,1968,image-keyboard-response,4
true,15,0,1,0,true,q,false,true,0.0-2.0-0.64-0.581-3.581,0,1,0,81,false,stim,false,2,1820.9999999995343,1,0,2,15121,WMM2,2353876,false,false,1971,image-keyboard-response,5
true,15,0,1,0,true,q,false,true,0.0-2.0-0.64-0.582-3.582,0,1,0,81,false,stim,false,0,1951.0,1,1,1,15121,WMM2,2357333,false,false,1974,image-keyboard-response,6
true,15,0,1,0,true,q,false,true,0.0-2.0-0.64-0.583-3.583,0,1,0,81,false,stim,false,0,877.0,1,1,1,15121,WMM2,2359716,false,false,1977,image-keyboard-response,7
true,15,1,1,1,true,z,false,true,0.0-2.0-0.64-0.584-3.584,0,1,0,90,false,stim,false,2,2008.0,1,0,0,15121,WMM2,2363232,false,false,1980,image-keyboard-response,8
false,15,-1,1,0,false,q,true,false,0.0-2.0-0.65-0.585-3.585,0,1,0,,false,stim,false,2,,1,0,2,15121,WMM2,2367742,false,false,1983,image-keyboard-response,9
true,15,1,1,1,true,z,false,false,0.0-2.0-0.65-0.586-3.586,0,1,0,90,false,stim,false,2,2968.0,1,0,0,15121,WMM2,2372217,false,true,1986,image-keyboard-response,10
true,15,0,1,0,true,q,false,false,0.0-2.0-0.65-0.587-3.587,0,1,0,81,false,stim,false,2,2143.0,1,0,2,15121,WMM2,2375868,false,true,1989,image-keyboard-response,11
true,15,0,1,0,true,q,false,true,0.0-2.0-0.65-0.588-3.588,0,1,0,81,false,stim,false,0,1117.0,1,1,1,15121,WMM2,2378492,false,false,1992,image-keyboard-response,12
true,15,0,1,0,true,q,false,false,0.0-2.0-0.65-0.589-3.589,0,1,0,81,false,stim,false,0,1653.0000000004657,1,1,1,15121,WMM2,2381652,false,true,1995,image-keyboard-response,13
true,15,0,1,0,true,q,false,true,0.0-2.0-0.65-0.590-3.590,0,1,0,81,false,stim,false,2,2167.0,1,0,2,15121,WMM2,2385327,false,false,1998,image-keyboard-response,14
true,15,0,1,0,true,q,false,true,0.0-2.0-0.65-0.591-3.591,0,1,0,81,false,stim,false,0,1317.0,1,1,1,15121,WMM2,2388160,false,false,2001,image-keyboard-response,15
true,15,1,1,1,true,z,false,true,0.0-2.0-0.65-0.592-3.592,0,1,0,90,false,stim,false,2,2759.0,1,0,0,15121,WMM2,2392426,false,false,2004,image-keyboard-response,16
true,15,1,1,1,true,z,false,true,0.0-2.0-0.65-0.593-3.593,0,1,0,90,false,stim,false,2,1059.0,1,0,0,15121,WMM2,2394995,false,false,2007,image-keyboard-response,17
true,15,0,1,0,true,q,false,true,0.0-2.0-0.66-0.594-3.594,0,1,0,81,false,stim,false,0,2124.0,1,1,1,15121,WMM2,2398627,false,false,2010,image-keyboard-response,18
true,15,0,1,0,true,q,false,true,0.0-2.0-0.66-0.595-3.595,0,1,0,81,false,stim,false,2,1116.0,1,0,2,15121,WMM2,2401251,false,false,2013,image-keyboard-response,19
true,15,0,1,0,true,q,false,true,0.0-2.0-0.66-0.596-3.596,0,1,0,81,false,stim,false,2,645.0,1,0,2,15121,WMM2,2403403,false,false,2016,image-keyboard-response,20
true,15,0,1,0,true,q,false,true,0.0-2.0-0.66-0.597-3.597,0,1,0,81,false,stim,false,2,683.0,1,1,2,15121,WMM2,2405595,false,false,2019,image-keyboard-response,21
true,15,1,1,1,true,z,false,false,0.0-2.0-0.66-0.598-3.598,0,1,0,90,false,stim,false,2,2465.0,1,1,0,15121,WMM2,2409568,false,true,2022,image-keyboard-response,22
true,15,1,1,1,true,z,false,true,0.0-2.0-0.66-0.599-3.599,0,1,0,90,false,stim,false,2,460.0,1,1,0,15121,WMM2,2411536,false,false,2025,image-keyboard-response,23
true,15,1,1,1,true,z,false,true,0.0-2.0-0.66-0.600-3.600,0,1,0,90,false,stim,false,2,542.0,1,1,0,15121,WMM2,2413584,false,false,2028,image-keyboard-response,24
true,15,0,1,0,true,q,false,true,0.0-2.0-0.66-0.601-3.601,0,1,0,81,false,stim,false,0,1214.0,1,0,1,15121,WMM2,2416304,false,false,2031,image-keyboard-response,25
true,15,0,1,0,true,q,false,false,0.0-2.0-0.66-0.602-3.602,0,1,0,81,false,stim,false,0,557.0,1,0,1,15121,WMM2,2418368,false,true,2034,image-keyboard-response,26
true,15,0,1,0,true,q,false,true,0.0-2.0-0.67-0.603-3.603,0,1,0,81,false,stim,false,0,460.0,1,0,1,15121,WMM2,2420336,false,false,2037,image-keyboard-response,27
true,15,1,1,1,true,z,false,true,0.0-2.0-0.67-0.604-3.604,0,1,0,90,false,stim,false,2,2441.0,1,1,0,15121,WMM2,2424284,false,false,2040,image-keyboard-response,28
true,15,0,1,0,true,q,false,false,0.0-2.0-0.67-0.605-3.605,0,1,0,81,false,stim,false,2,2413.0,1,1,2,15121,WMM2,2428204,false,true,2043,image-keyboard-response,29
true,15,0,1,0,true,q,false,true,0.0-2.0-0.67-0.606-3.606,0,1,0,81,false,stim,false,0,1268.0,1,0,1,15121,WMM2,2430980,false,false,2046,image-keyboard-response,30
true,16,0,4,0,true,q,false,false,0.0-2.0-0.67-0.607-3.607,1,0,1,81,true,stim,false,0,701.0,1,1,2,15121,WMM2,2433189,false,true,2049,image-keyboard-response,1
true,16,0,4,0,true,q,false,false,0.0-2.0-0.67-0.608-3.608,1,0,1,81,false,stim,false,0,437.0,1,1,2,15121,WMM2,2435132,false,true,2052,image-keyboard-response,2
true,16,1,4,1,true,z,false,true,0.0-2.0-0.67-0.609-3.609,1,0,1,90,false,stim,false,1,2560.0,1,1,0,15121,WMM2,2439201,false,false,2055,image-keyboard-response,3
true,16,1,4,1,true,z,false,true,0.0-2.0-0.67-0.610-3.610,1,0,1,90,false,stim,false,1,1620.0,1,1,0,15121,WMM2,2442329,false,false,2058,image-keyboard-response,4
true,16,1,4,0,false,q,true,false,0.0-2.0-0.67-0.611-3.611,1,0,1,90,false,stim,false,0,1603.9999999995343,1,0,1,15121,WMM2,2445441,false,false,2061,image-keyboard-response,5
true,16,1,4,0,false,q,true,false,0.0-2.0-0.68-0.612-3.612,1,0,1,90,false,stim,false,0,1644.0,1,1,2,15121,WMM2,2448593,false,false,2064,image-keyboard-response,6
true,16,1,4,1,true,z,false,true,0.0-2.0-0.68-0.613-3.613,1,0,1,90,false,stim,false,1,2078.0,1,1,0,15121,WMM2,2452179,false,false,2067,image-keyboard-response,7
true,16,1,4,1,true,z,false,true,0.0-2.0-0.68-0.614-3.614,1,0,1,90,false,stim,false,1,957.0,1,1,0,15121,WMM2,2454642,false,false,2070,image-keyboard-response,8
true,16,2,4,0,false,q,true,false,0.0-2.0-0.68-0.615-3.615,1,0,1,68,false,stim,false,0,1636.0,1,0,1,15121,WMM2,2457786,false,false,2073,image-keyboard-response,9
true,16,2,4,0,false,q,true,false,0.0-2.0-0.68-0.616-3.616,1,0,1,68,false,stim,false,0,2052.0,1,1,2,15121,WMM2,2461346,false,false,2076,image-keyboard-response,10
true,16,0,4,0,true,q,false,true,0.0-2.0-0.68-0.617-3.617,1,0,1,81,false,stim,false,0,1878.0,1,1,2,15121,WMM2,2464730,false,false,2079,image-keyboard-response,11
true,16,0,4,0,true,q,false,true,0.0-2.0-0.68-0.618-3.618,1,0,1,81,false,stim,false,0,2509.0,1,0,1,15121,WMM2,2468746,false,false,2082,image-keyboard-response,12
