answered,blockNum,choice,condition,corResp,correct,correct_response,explo,fb,internal_node_id,isStable_1,isStable_2,isStable_3,key_press,newBlock,part,persev,persevResp,rt,sessNum,stableAS,stimulus,subject,task,time_elapsed,training,trap,trial_index,trial_type,trialsInBlock
true,1,2,0,1,false,z,true,false,0.0-2.0-0.0-0.0-3.0,0,0,0,68,true,stim,false,-1,2241.0000000001164,0,0,1,15121,WMM2,825071,false,false,352,image-keyboard-response,1
true,1,2,0,1,false,z,true,true,0.0-2.0-0.0-0.1-3.1,0,0,0,68,false,stim,false,-1,1490.0,0,0,0,15121,WMM2,858070,false,true,356,image-keyboard-response,2
true,1,2,0,1,false,z,true,false,0.0-2.0-0.0-0.2-3.2,0,0,0,68,false,stim,false,-1,2523.0,0,0,0,15121,WMM2,862099,false,false,359,image-keyboard-response,3
true,1,2,0,1,false,z,true,false,0.0-2.0-0.0-0.3-3.3,0,0,0,68,false,stim,false,-1,1526.0,0,0,1,15121,WMM2,865131,false,false,362,image-keyboard-response,4
false,1,-1,0,0,false,q,false,false,0.0-2.0-0.0-0.4-3.4,0,0,0,,false,stim,true,-1,,0,0,2,15121,WMM2,869638,false,false,365,image-keyboard-response,5
true,1,0,0,1,false,z,true,false,0.0-2.0-0.0-0.5-3.5,0,0,0,81,false,stim,false,-1,991.0000000001164,0,0,1,15121,WMM2,872135,false,false,368,image-keyboard-response,6
true,1,2,0,0,false,q,true,false,0.0-2.0-0.0-0.6-3.6,0,0,0,68,false,stim,false,-1,542.0,0,0,2,15121,WMM2,874183,false,false,371,image-keyboard-response,7
true,1,1,0,0,false,q,true,false,0.0-2.0-0.0-0.7-3.7,0,0,0,90,false,stim,false,-1,2431.0,0,0,2,15121,WMM2,878120,false,false,374,image-keyboard-response,8
true,1,0,0,1,false,z,true,true,0.0-2.0-0.0-0.8-3.8,0,0,0,81,false,stim,false,-1,557.9999999998836,0,0,0,15121,WMM2,880184,false,true,377,image-keyboard-response,9
false,1,-1,0,1,false,z,false,false,0.0-2.0-0.1-0.9-3.9,0,0,0,,false,stim,true,-1,,0,0,0,15121,WMM2,884692,false,false,380,image-keyboard-response,10
true,1,0,0,1,false,z,true,false,0.0-2.0-0.1-0.10-3.10,0,0,0,81,false,stim,false,-1,977.0000000001164,0,0,0,15121,WMM2,887174,false,false,383,image-keyboard-response,11
true,1,2,0,1,false,z,true,true,0.0-2.0-0.1-0.11-3.11,0,0,0,68,false,stim,false,-1,1167.0,0,0,1,15121,WMM2,889846,false,true,386,image-keyboard-response,12
true,1,1,0,0,false,q,true,false,0.0-2.0-0.1-0.12-3.12,0,0,0,90,false,stim,false,-1,2389.0,0,0,2,15121,WMM2,893740,false,false,389,image-keyboard-response,13
true,1,2,0,0,false,q,true,false,0.0-2.0-0.1-0.13-3.13,0,0,0,68,false,stim,false,-1,823.0000000001164,0,0,2,15121,WMM2,896068,false,false,392,image-keyboard-response,14
true,1,2,0,1,false,z,true,false,0.0-2.0-0.1-0.14-3.14,0,0,0,68,false,stim,false,-1,2619.0000000001164,0,0,1,15121,WMM2,900194,false,false,395,image-keyboard-response,15
true,1,0,0,0,true,q,false,true,0.0-2.0-0.1-0.15-3.15,0,0,0,81,false,stim,false,-1,822.0,0,0,2,15121,WMM2,902522,false,false,398,image-keyboard-response,16
true,1,0,0,1,false,z,true,false,0.0-2.0-0.1-0.16-3.16,0,0,0,81,false,stim,false,-1,2324.0,0,0,0,15121,WMM2,906355,false,false,401,image-keyboard-response,17
true,1,2,0,1,false,z,true,false,0.0-2.0-0.1-0.17-3.17,0,0,0,68,false,stim,false,-1,2145.0,0,0,1,15121,WMM2,910007,false,false,404,image-keyboard-response,18
true,1,0,0,1,false,z,true,false,0.0-2.0-0.2-0.18-3.18,0,0,0,81,false,stim,false,-1,589.9999999998836,0,0,1,15121,WMM2,912103,false,false,407,image-keyboard-response,19
true,1,0,0,0,true,q,false,true,0.0-2.0-0.2-0.19-3.19,0,0,0,81,false,stim,false,-1,2167.0,0,0,2,15121,WMM2,915775,false,false,410,image-keyboard-response,20
true,1,0,0,0,true,q,false,true,0.0-2.0-0.2-0.20-3.20,0,0,0,81,false,stim,false,-1,1502.0,0,0,2,15121,WMM2,918784,false,false,413,image-keyboard-response,21
true,1,2,0,1,false,z,true,false,0.0-2.0-0.2-0.21-3.21,0,0,0,68,false,stim,false,-1,1774.0,0,0,0,15121,WMM2,922064,false,false,416,image-keyboard-response,22
true,1,1,0,1,true,z,false,true,0.0-2.0-0.2-0.22-3.22,0,0,0,90,false,stim,false,-1,582.0,0,0,0,15121,WMM2,924152,false,false,419,image-keyboard-response,23
false,1,-1,0,0,false,q,false,false,0.0-2.0-0.2-0.23-3.23,0,0,0,,false,stim,true,-1,,0,0,2,15121,WMM2,928660,false,false,422,image-keyboard-response,24
true,1,2,0,1,false,z,true,false,0.0-2.0-0.2-0.24-3.24,0,0,0,68,false,stim,false,-1,1538.0,0,0,1,15121,WMM2,931704,false,false,425,image-keyboard-response,25
true,1,1,0,1,true,z,false,true,0.0-2.0-0.2-0.25-3.25,0,0,0,90,false,stim,false,-1,2536.0,0,0,0,15121,WMM2,935747,false,false,428,image-keyboard-response,26
true,1,1,0,1,true,z,false,true,0.0-2.0-0.2-0.26-3.26,0,0,0,90,false,stim,false,-1,2891.0,0,0,1,15121,WMM2,940145,false,false,431,image-keyboard-response,27
true,1,1,0,1,true,z,false,false,0.0-2.0-0.3-0.27-3.27,0,0,0,90,false,stim,false,-1,2519.0,0,0,0,15121,WMM2,944170,false,true,434,image-keyboard-response,28
true,1,0,0,0,true,q,false,true,0.0-2.0-0.3-0.28-3.28,0,0,0,81,false,stim,false,-1,1166.0,0,0,2,15121,WMM2,946842,false,false,437,image-keyboard-response,29
true,1,0,0,0,true,q,false,true,0.0-2.0-0.3-0.29-3.29,0,0,0,81,false,stim,false,-1,2694.9999999998836,0,0,2,15121,WMM2,951044,false,false,440,image-keyboard-response,30
true,1,1,0,1,true,z,false,true,0.0-2.0-0.3-0.30-3.30,0,0,0,90,false,stim,false,-1,2286.9999999998836,0,0,1,15121,WMM2,954837,false,false,443,image-keyboard-response,31
true,1,1,0,1,true,z,false,true,0.0-2.0-0.3-0.31-3.31,0,0,0,90,false,stim,false,-1,1669.9999999998836,0,1,1,15121,WMM2,958013,false,false,446,image-keyboard-response,32
true,1,1,0,1,true,z,false,true,0.0-2.0-0.3-0.32-3.32,0,0,0,90,false,stim,false,-1,1406.0000000001164,0,1,1,15121,WMM2,960925,false,false,449,image-keyboard-response,33
true,1,0,0,0,true,q,false,true,0.0-2.0-0.3-0.33-3.33,0,0,0,81,false,stim,false,-1,2638.0000000001164,0,0,2,15121,WMM2,965069,false,false,452,image-keyboard-response,34
true,1,1,0,1,true,z,false,false,0.0-2.0-0.3-0.34-3.34,0,0,0,90,false,stim,false,-1,2652.0,0,1,0,15121,WMM2,969227,false,true,455,image-keyboard-response,35
true,1,0,0,1,false,z,true,false,0.0-2.0-0.3-0.35-3.35,0,0,0,81,false,stim,false,-1,2027.0,0,1,0,15121,WMM2,972760,false,false,458,image-keyboard-response,36
true,1,2,0,0,false,q,true,false,0.0-2.0-0.4-0.36-3.36,0,0,0,68,false,stim,false,-1,431.0,0,0,2,15121,WMM2,974696,false,false,461,image-keyboard-response,37
true,1,1,0,1,true,z,false,true,0.0-2.0-0.4-0.37-3.37,0,0,0,90,false,stim,false,-1,2423.0,0,1,1,15121,WMM2,978624,false,false,464,image-keyboard-response,38
false,1,-1,0,1,false,z,false,false,0.0-2.0-0.4-0.38-3.38,0,0,0,,false,stim,true,-1,,0,1,0,15121,WMM2,983131,false,false,467,image-keyboard-response,39
false,1,-1,0,1,false,z,false,false,0.0-2.0-0.4-0.39-3.39,0,0,0,,false,stim,true,-1,,0,1,1,15121,WMM2,987638,false,false,470,image-keyboard-response,40
true,1,0,0,1,false,z,true,false,0.0-2.0-0.4-0.40-3.40,0,0,0,81,false,stim,false,-1,2517.0,0,1,0,15121,WMM2,991662,false,false,473,image-keyboard-response,41
true,2,1,2,1,true,z,false,true,0.0-2.0-0.4-0.41-3.41,1,1,0,90,true,stim,false,1,2949.0,0,1,1,15121,WMM2,996118,false,false,476,image-keyboard-response,1
true,2,0,2,2,false,d,false,false,0.0-2.0-0.4-0.42-3.42,1,1,0,81,false,stim,true,0,2231.9999999998836,0,0,2,15121,WMM2,999856,false,false,479,image-keyboard-response,2
true,2,1,2,2,false,d,true,false,0.0-2.0-0.4-0.43-3.43,1,1,0,90,false,stim,false,0,1846.0,0,0,2,15121,WMM2,1003208,false,false,482,image-keyboard-response,3
true,2,1,2,1,true,z,false,true,0.0-2.0-0.4-0.44-3.44,1,1,0,90,false,stim,false,1,2917.0,0,1,0,15121,WMM2,1007631,false,false,485,image-keyboard-response,4
true,2,1,2,1,true,z,false,true,0.0-2.0-0.5-0.45-3.45,1,1,0,90,false,stim,false,1,2484.0,0,1,1,15121,WMM2,1011621,false,false,488,image-keyboard-response,5
true,2,1,2,1,true,z,false,true,0.0-2.0-0.5-0.46-3.46,1,1,0,90,false,stim,false,1,1790.0000000001164,0,1,0,15121,WMM2,1014917,false,false,491,image-keyboard-response,6
true,2,1,2,1,true,z,false,true,0.0-2.0-0.5-0.47-3.47,1,1,0,90,false,stim,false,1,1286.0,0,1,1,15121,WMM2,1017710,false,false,494,image-keyboard-response,7
true,2,2,2,2,true,d,false,true,0.0-2.0-0.5-0.48-3.48,1,1,0,68,false,stim,false,0,1733.9999999998836,0,0,2,15121,WMM2,1020950,false,false,497,image-keyboard-response,8
true,2,2,2,2,true,d,false,false,0.0-2.0-0.5-0.49-3.49,1,1,0,68,false,stim,false,0,2238.0,0,0,2,15121,WMM2,1024693,false,true,500,image-keyboard-response,9
true,2,1,2,1,true,z,false,false,0.0-2.0-0.5-0.50-3.50,1,1,0,90,false,stim,false,1,1994.9999999998836,0,1,0,15121,WMM2,1028195,false,true,503,image-keyboard-response,10
true,2,2,2,2,true,d,false,true,0.0-2.0-0.5-0.51-3.51,1,1,0,68,false,stim,false,0,1358.9999999998836,0,0,2,15121,WMM2,1031059,false,false,506,image-keyboard-response,11
true,2,0,2,1,false,z,true,false,0.0-2.0-0.5-0.52-3.52,1,1,0,81,false,stim,false,1,1423.0,0,1,1,15121,WMM2,1033987,false,false,509,image-keyboard-response,12
true,2,1,2,1,true,z,false,true,0.0-2.0-0.5-0.53-3.53,1,1,0,90,false,stim,false,1,2371.0000000001164,0,1,0,15121,WMM2,1037864,false,false,512,image-keyboard-response,13
true,2,1,2,1,true,z,false,false,0.0-2.0-0.6-0.54-3.54,1,1,0,90,false,stim,false,1,1174.9999999998836,0,1,0,15121,WMM2,1040545,false,true,515,image-keyboard-response,14
true,2,0,2,2,false,d,false,false,0.0-2.0-0.6-0.55-3.55,1,1,0,81,false,stim,true,0,1782.9999999998836,0,0,2,15121,WMM2,1043833,false,false,518,image-keyboard-response,15
true,2,1,2,1,true,z,false,false,0.0-2.0-0.6-0.56-3.56,1,1,0,90,false,stim,false,1,1533.9999999998836,0,1,1,15121,WMM2,1046873,false,true,521,image-keyboard-response,16
false,2,-1,2,2,false,d,true,false,0.0-2.0-0.6-0.57-3.57,1,1,0,,false,stim,false,0,,0,0,2,15121,WMM2,1051380,false,false,524,image-keyboard-response,17
true,2,1,2,1,true,z,false,false,0.0-2.0-0.6-0.58-3.58,1,1,0,90,false,stim,false,1,2811.0,0,1,0,15121,WMM2,1055696,false,true,527,image-keyboard-response,18
true,2,0,2,1,false,z,true,false,0.0-2.0-0.6-0.59-3.59,1,1,0,81,false,stim,false,1,1566.0,0,1,0,15121,WMM2,1058768,false,false,530,image-keyboard-response,19
false,2,-1,2,1,false,z,true,false,0.0-2.0-0.6-0.60-3.60,1,1,0,,false,stim,false,1,,0,1,1,15121,WMM2,1063275,false,false,533,image-keyboard-response,20
true,2,1,2,1,true,z,false,true,0.0-2.0-0.6-0.61-3.61,1,1,0,90,false,stim,false,1,1213.0,0,1,1,15121,WMM2,1065995,false,false,536,image-keyboard-response,21
true,2,0,2,2,false,d,false,false,0.0-2.0-0.6-0.62-3.62,1,1,0,81,false,stim,true,0,2216.0,0,0,2,15121,WMM2,1069717,false,false,539,image-keyboard-response,22
true,2,1,2,1,true,z,false,true,0.0-2.0-0.7-0.63-3.63,1,1,0,90,false,stim,false,1,2681.0,0,1,1,15121,WMM2,1073904,false,false,542,image-keyboard-response,23
true,2,0,2,1,false,z,true,false,0.0-2.0-0.7-0.64-3.64,1,1,0,81,false,stim,false,1,1686.0,0,1,0,15121,WMM2,1077096,false,false,545,image-keyboard-response,24
true,2,1,2,2,false,d,true,false,0.0-2.0-0.7-0.65-3.65,1,1,0,90,false,stim,false,0,2392.0,0,0,2,15121,WMM2,1080995,false,false,548,image-keyboard-response,25
true,2,0,2,2,false,d,false,false,0.0-2.0-0.7-0.66-3.66,1,1,0,81,false,stim,true,0,2510.0,0,0,2,15121,WMM2,1085011,false,false,551,image-keyboard-response,26
true,2,2,2,2,true,d,false,true,0.0-2.0-0.7-0.67-3.67,1,1,0,68,false,stim,false,0,1286.0,0,0,2,15121,WMM2,1087803,false,false,554,image-keyboard-response,27
true,2,1,2,1,true,z,false,false,0.0-2.0-0.7-0.68-3.68,1,1,0,90,false,stim,false,1,2897.0,0,1,0,15121,WMM2,1092206,false,true,557,image-keyboard-response,28
true,2,1,2,1,true,z,false,true,0.0-2.0-0.7-0.69-3.69,1,1,0,90,false,stim,false,1,2419.0,0,1,1,15121,WMM2,1096130,false,false,560,image-keyboard-response,29
false,2,-1,2,1,false,z,true,false,0.0-2.0-0.7-0.70-3.70,1,1,0,,false,stim,false,1,,0,1,0,15121,WMM2,1100637,false,false,563,image-keyboard-response,30
true,2,1,2,1,true,z,false,true,0.0-2.0-0.7-0.71-3.71,1,1,0,90,false,stim,false,1,2916.999999999767,0,1,1,15121,WMM2,1105061,false,false,566,image-keyboard-response,31
true,2,2,2,2,true,d,false,true,0.0-2.0-0.8-0.72-3.72,1,1,0,68,false,stim,false,0,2108.999999999767,0,0,2,15121,WMM2,1108676,false,false,569,image-keyboard-response,32
true,2,1,2,1,true,z,false,true,0.0-2.0-0.8-0.73-3.73,1,1,0,90,false,stim,false,1,2567.999999999767,0,1,1,15121,WMM2,1112750,false,false,572,image-keyboard-response,33
true,2,1,2,1,true,z,false,false,0.0-2.0-0.8-0.74-3.74,1,1,0,90,false,stim,false,1,1222.0,0,1,1,15121,WMM2,1115478,false,true,575,image-keyboard-response,34
true,2,0,2,1,false,z,true,false,0.0-2.0-0.8-0.75-3.75,1,1,0,81,false,stim,false,1,2715.0,0,1,0,15121,WMM2,1119699,false,false,578,image-keyboard-response,35
true,2,2,2,2,true,d,false,true,0.0-2.0-0.8-0.76-3.76,1,1,0,68,false,stim,false,0,2867.0,0,0,2,15121,WMM2,1124072,false,false,581,image-keyboard-response,36
true,2,1,2,1,true,z,false,true,0.0-2.0-0.8-0.77-3.77,1,1,0,90,false,stim,false,1,2615.0,0,1,1,15121,WMM2,1128193,false,false,584,image-keyboard-response,37
true,2,2,2,1,false,z,true,false,0.0-2.0-0.8-0.78-3.78,1,1,0,68,false,stim,false,1,2438.0,0,1,0,15121,WMM2,1132137,false,false,587,image-keyboard-response,38
true,2,1,2,1,true,z,false,true,0.0-2.0-0.8-0.79-3.79,1,1,0,90,false,stim,false,1,959.0,0,1,0,15121,WMM2,1134601,false,false,590,image-keyboard-response,39
true,2,2,2,2,true,d,false,false,0.0-2.0-0.8-0.80-3.80,1,1,0,68,false,stim,false,0,2830.0,0,0,2,15121,WMM2,1138937,false,true,593,image-keyboard-response,40
false,2,-1,2,1,false,z,true,false,0.0-2.0-0.9-0.81-3.81,1,1,0,,false,stim,false,1,,0,1,0,15121,WMM2,1143444,false,false,596,image-keyboard-response,41
true,2,2,2,2,true,d,false,true,0.0-2.0-0.9-0.82-3.82,1,1,0,68,false,stim,false,0,2090.0,0,0,2,15121,WMM2,1147040,false,false,599,image-keyboard-response,42
true,2,1,2,1,true,z,false,true,0.0-2.0-0.9-0.83-3.83,1,1,0,90,false,stim,false,1,2564.0,0,1,0,15121,WMM2,1151115,false,false,602,image-keyboard-response,43
true,2,1,2,1,true,z,false,true,0.0-2.0-0.9-0.84-3.84,1,1,0,90,false,stim,false,1,2623.0,0,1,1,15121,WMM2,1155244,false,false,605,image-keyboard-response,44
true,2,1,2,1,true,z,false,true,0.0-2.0-0.9-0.85-3.85,1,1,0,90,false,stim,false,1,1125.0,0,1,1,15121,WMM2,1157876,false,false,608,image-keyboard-response,45
true,2,0,2,2,false,d,false,false,0.0-2.0-0.9-0.86-3.86,1,1,0,81,false,stim,true,0,1526.0,0,0,2,15121,WMM2,1160908,false,false,611,image-keyboard-response,46
true,2,2,2,2,true,d,false,true,0.0-2.0-0.9-0.87-3.87,1,1,0,68,false,stim,false,0,1190.0,0,0,2,15121,WMM2,1163604,false,false,614,image-keyboard-response,47
true,2,1,2,1,true,z,false,true,0.0-2.0-0.9-0.88-3.88,1,1,0,90,false,stim,false,1,2981.0,0,1,0,15121,WMM2,1168092,false,false,617,image-keyboard-response,48
true,2,1,2,1,true,z,false,true,0.0-2.0-0.9-0.89-3.89,1,1,0,90,false,stim,false,1,2607.0,0,1,1,15121,WMM2,1172207,false,false,620,image-keyboard-response,49
true,2,1,2,1,true,z,false,true,0.0-2.0-0.10-0.90-3.90,1,1,0,90,false,stim,false,1,869.0,0,1,0,15121,WMM2,1174583,false,false,623,image-keyboard-response,50
true,2,1,2,1,true,z,false,true,0.0-2.0-0.10-0.91-3.91,1,1,0,90,false,stim,false,1,1013.0,0,0,0,15121,WMM2,1177103,false,false,626,image-keyboard-response,51
true,2,1,2,1,true,z,false,true,0.0-2.0-0.10-0.92-3.92,1,1,0,90,false,stim,false,1,838.0,0,1,1,15121,WMM2,1179447,false,false,629,image-keyboard-response,52
true,2,1,2,2,false,d,true,false,0.0-2.0-0.10-0.93-3.93,1,1,0,90,false,stim,false,0,1045.9999999997672,0,1,2,15121,WMM2,1182000,false,false,632,image-keyboard-response,53
true,2,2,2,2,true,d,false,true,0.0-2.0-0.10-0.94-3.94,1,1,0,68,false,stim,false,0,823.0,0,1,2,15121,WMM2,1184327,false,false,635,image-keyboard-response,54
true,2,1,2,1,true,z,false,true,0.0-2.0-0.10-0.95-3.95,1,1,0,90,false,stim,false,1,1630.0000000002328,0,1,1,15121,WMM2,1187464,false,false,638,image-keyboard-response,55
true,2,2,2,1,false,z,true,false,0.0-2.0-0.10-0.96-3.96,1,1,0,68,false,stim,false,1,1037.0,0,0,0,15121,WMM2,1190008,false,false,641,image-keyboard-response,56
true,2,1,2,2,false,d,true,false,0.0-2.0-0.10-0.97-3.97,1,1,0,90,false,stim,false,0,1142.0000000002328,0,1,2,15121,WMM2,1192656,false,false,644,image-keyboard-response,57
true,2,1,2,1,true,z,false,false,0.0-2.0-0.10-0.98-3.98,1,1,0,90,false,stim,false,1,1670.0,0,1,1,15121,WMM2,1195832,false,true,647,image-keyboard-response,58
false,2,-1,2,1,false,z,true,false,0.0-2.0-0.11-0.99-3.99,1,1,0,,false,stim,false,1,,0,1,1,15121,WMM2,1200339,false,false,650,image-keyboard-response,59
true,2,2,2,2,true,d,false,true,0.0-2.0-0.11-0.100-3.100,1,1,0,68,false,stim,false,0,557.0,0,1,2,15121,WMM2,1202401,false,false,653,image-keyboard-response,60
true,3,2,2,2,true,d,false,false,0.0-2.0-0.11-0.101-3.101,0,1,1,68,true,stim,false,2,678.0,0,1,2,15121,WMM2,1204585,false,true,656,image-keyboard-response,1
true,3,1,2,2,false,d,false,false,0.0-2.0-0.11-0.102-3.102,0,1,1,90,false,stim,true,1,1871.0,0,0,0,15121,WMM2,1207962,false,false,659,image-keyboard-response,2
true,3,0,2,2,false,d,true,false,0.0-2.0-0.11-0.103-3.103,0,1,1,81,false,stim,false,1,551.0,0,0,0,15121,WMM2,1210018,false,false,662,image-keyboard-response,3
true,3,1,2,2,false,d,false,false,0.0-2.0-0.11-0.104-3.104,0,1,1,90,false,stim,true,1,2561.0,0,0,0,15121,WMM2,1214084,false,false,665,image-keyboard-response,4
false,3,-1,2,2,false,d,true,false,0.0-2.0-0.11-0.105-3.105,0,1,1,,false,stim,false,2,,0,1,2,15121,WMM2,1218591,false,false,668,image-keyboard-response,5
true,3,1,2,1,true,z,false,true,0.0-2.0-0.11-0.106-3.106,0,1,1,90,false,stim,false,1,2593.0,0,1,1,15121,WMM2,1222689,false,false,671,image-keyboard-response,6
true,3,1,2,1,true,z,false,true,0.0-2.0-0.11-0.107-3.107,0,1,1,90,false,stim,false,1,1333.9999999997672,0,1,1,15121,WMM2,1225529,false,false,674,image-keyboard-response,7
true,3,1,2,2,false,d,false,false,0.0-2.0-0.12-0.108-3.108,0,1,1,90,false,stim,true,1,2654.0,0,0,0,15121,WMM2,1229689,false,false,677,image-keyboard-response,8
true,3,0,2,2,false,d,true,false,0.0-2.0-0.12-0.109-3.109,0,1,1,81,false,stim,false,2,2517.999999999767,0,1,2,15121,WMM2,1233714,false,false,680,image-keyboard-response,9
true,3,1,2,1,true,z,false,true,0.0-2.0-0.12-0.110-3.110,0,1,1,90,false,stim,false,1,2410.0,0,1,1,15121,WMM2,1237628,false,false,683,image-keyboard-response,10
false,3,-1,2,2,false,d,true,false,0.0-2.0-0.12-0.111-3.111,0,1,1,,false,stim,false,1,,0,0,0,15121,WMM2,1242135,false,false,686,image-keyboard-response,11
true,3,2,2,2,true,d,false,true,0.0-2.0-0.12-0.112-3.112,0,1,1,68,false,stim,false,2,1876.0,0,1,2,15121,WMM2,1245517,false,false,689,image-keyboard-response,12
true,3,1,2,2,false,d,false,false,0.0-2.0-0.12-0.113-3.113,0,1,1,90,false,stim,true,1,1301.9999999997672,0,0,0,15121,WMM2,1248325,false,false,692,image-keyboard-response,13
true,3,1,2,1,true,z,false,true,0.0-2.0-0.12-0.114-3.114,0,1,1,90,false,stim,false,1,2854.0,0,1,1,15121,WMM2,1252686,false,false,695,image-keyboard-response,14
true,3,2,2,2,true,d,false,true,0.0-2.0-0.12-0.115-3.115,0,1,1,68,false,stim,false,2,2191.0,0,1,2,15121,WMM2,1256383,false,false,698,image-keyboard-response,15
true,3,0,2,1,false,z,true,false,0.0-2.0-0.12-0.116-3.116,0,1,1,81,false,stim,false,1,2074.0,0,1,1,15121,WMM2,1259966,false,false,701,image-keyboard-response,16
true,3,1,2,2,false,d,false,false,0.0-2.0-0.13-0.117-3.117,0,1,1,90,false,stim,true,1,2259.0,0,0,0,15121,WMM2,1263732,false,false,704,image-keyboard-response,17
true,3,2,2,2,true,d,false,true,0.0-2.0-0.13-0.118-3.118,0,1,1,68,false,stim,false,2,1974.0,0,1,2,15121,WMM2,1267212,false,false,707,image-keyboard-response,18
true,3,1,2,1,true,z,false,true,0.0-2.0-0.13-0.119-3.119,0,1,1,90,false,stim,false,1,2257.0,0,1,1,15121,WMM2,1270974,false,false,710,image-keyboard-response,19
true,3,1,2,1,true,z,false,true,0.0-2.0-0.13-0.120-3.120,0,1,1,90,false,stim,false,1,1582.0000000002328,0,1,1,15121,WMM2,1274062,false,false,713,image-keyboard-response,20
true,3,0,2,2,false,d,true,true,0.0-2.0-0.13-0.121-3.121,0,1,1,81,false,stim,false,1,1069.0,0,0,0,15121,WMM2,1276638,false,true,716,image-keyboard-response,21
false,3,-1,2,2,false,d,true,false,0.0-2.0-0.13-0.122-3.122,0,1,1,,false,stim,false,1,,0,0,0,15121,WMM2,1281146,false,false,719,image-keyboard-response,22
false,3,-1,2,1,false,z,true,false,0.0-2.0-0.13-0.123-3.123,0,1,1,,false,stim,false,1,,0,1,1,15121,WMM2,1285655,false,false,722,image-keyboard-response,23
true,3,2,2,2,true,d,false,true,0.0-2.0-0.13-0.124-3.124,0,1,1,68,false,stim,false,2,2140.0,0,1,2,15121,WMM2,1289301,false,false,725,image-keyboard-response,24
true,3,2,2,2,true,d,false,true,0.0-2.0-0.13-0.125-3.125,0,1,1,68,false,stim,false,2,1238.0,0,1,2,15121,WMM2,1292045,false,false,728,image-keyboard-response,25
true,3,2,2,2,true,d,false,true,0.0-2.0-0.14-0.126-3.126,0,1,1,68,false,stim,false,2,837.0000000002328,0,1,2,15121,WMM2,1294389,false,false,731,image-keyboard-response,26
true,3,1,2,2,false,d,false,false,0.0-2.0-0.14-0.127-3.127,0,1,1,90,false,stim,true,1,2898.0,0,0,0,15121,WMM2,1298795,false,false,734,image-keyboard-response,27
true,3,0,2,2,false,d,true,false,0.0-2.0-0.14-0.128-3.128,0,1,1,81,false,stim,false,1,813.0,0,0,0,15121,WMM2,1301115,false,false,737,image-keyboard-response,28
true,3,1,2,1,true,z,false,true,0.0-2.0-0.14-0.129-3.129,0,1,1,90,false,stim,false,1,2879.0,0,1,1,15121,WMM2,1305501,false,false,740,image-keyboard-response,29
true,3,2,2,2,true,d,false,true,0.0-2.0-0.14-0.130-3.130,0,1,1,68,false,stim,false,2,2151.0,0,1,2,15121,WMM2,1309158,false,false,743,image-keyboard-response,30
true,3,2,2,2,true,d,false,true,0.0-2.0-0.14-0.131-3.131,0,1,1,68,false,stim,false,2,1158.0,0,1,2,15121,WMM2,1311822,false,false,746,image-keyboard-response,31
true,3,1,2,1,true,z,false,true,0.0-2.0-0.14-0.132-3.132,0,1,1,90,false,stim,false,1,2315.0,0,1,1,15121,WMM2,1315644,false,false,749,image-keyboard-response,32
true,3,1,2,1,true,z,false,true,0.0-2.0-0.14-0.133-3.133,0,1,1,90,false,stim,false,1,924.9999999997672,0,1,1,15121,WMM2,1318076,false,false,752,image-keyboard-response,33
true,3,2,2,2,true,d,false,false,0.0-2.0-0.14-0.134-3.134,0,1,1,68,false,stim,false,1,2321.999999999767,0,0,0,15121,WMM2,1321904,false,true,755,image-keyboard-response,34
true,3,1,2,2,false,d,false,false,0.0-2.0-0.15-0.135-3.135,0,1,1,90,false,stim,true,1,886.0,0,0,0,15121,WMM2,1324296,false,false,758,image-keyboard-response,35
true,3,0,2,2,false,d,true,false,0.0-2.0-0.15-0.136-3.136,0,1,1,81,false,stim,false,2,462.0,0,1,2,15121,WMM2,1326265,false,false,761,image-keyboard-response,36
true,3,1,2,2,false,d,false,false,0.0-2.0-0.15-0.137-3.137,0,1,1,90,false,stim,true,1,1328.0,0,0,0,15121,WMM2,1329098,false,false,764,image-keyboard-response,37
false,3,-1,2,1,false,z,true,false,0.0-2.0-0.15-0.138-3.138,0,1,1,,false,stim,false,1,,0,1,1,15121,WMM2,1333606,false,false,767,image-keyboard-response,38
true,3,0,2,2,false,d,true,false,0.0-2.0-0.15-0.139-3.139,0,1,1,81,false,stim,false,2,2951.000000000233,0,1,2,15121,WMM2,1338064,false,false,770,image-keyboard-response,39
true,3,2,2,2,true,d,false,true,0.0-2.0-0.15-0.140-3.140,0,1,1,68,false,stim,false,2,1493.0000000002328,0,1,2,15121,WMM2,1341064,false,false,773,image-keyboard-response,40
false,3,-1,2,1,false,z,true,false,0.0-2.0-0.15-0.141-3.141,0,1,1,,false,stim,false,1,,0,1,1,15121,WMM2,1345572,false,false,776,image-keyboard-response,41
true,3,2,2,2,true,d,false,true,0.0-2.0-0.15-0.142-3.142,0,1,1,68,false,stim,false,1,898.0,0,0,0,15121,WMM2,1347977,false,false,779,image-keyboard-response,42
false,3,-1,2,1,false,z,true,false,0.0-2.0-0.15-0.143-3.143,0,1,1,,false,stim,false,1,,0,1,1,15121,WMM2,1352485,false,false,782,image-keyboard-response,43
true,3,1,2,1,true,z,false,true,0.0-2.0-0.16-0.144-3.144,0,1,1,90,false,stim,false,1,2175.0,0,1,1,15121,WMM2,1356168,false,false,785,image-keyboard-response,44
false,3,-1,2,2,false,d,true,false,0.0-2.0-0.16-0.145-3.145,0,1,1,,false,stim,false,1,,0,0,0,15121,WMM2,1360676,false,false,788,image-keyboard-response,45
true,3,2,2,2,true,d,false,true,0.0-2.0-0.16-0.146-3.146,0,1,1,68,false,stim,false,1,519.0,0,0,0,15121,WMM2,1362701,false,false,791,image-keyboard-response,46
false,3,-1,2,2,false,d,true,false,0.0-2.0-0.16-0.147-3.147,0,1,1,,false,stim,false,2,,0,1,2,15121,WMM2,1367209,false,false,794,image-keyboard-response,47
true,3,1,2,2,false,d,true,false,0.0-2.0-0.16-0.148-3.148,0,1,1,90,false,stim,false,2,1200.0,0,1,2,15121,WMM2,1369916,false,false,797,image-keyboard-response,48
true,3,0,2,2,false,d,true,false,0.0-2.0-0.16-0.149-3.149,0,1,1,81,false,stim,false,1,2913.0,0,0,0,15121,WMM2,1374335,false,false,800,image-keyboard-response,49
true,3,1,2,1,true,z,false,true,0.0-2.0-0.16-0.150-3.150,0,1,1,90,false,stim,false,1,2637.999999999767,0,1,1,15121,WMM2,1378482,false,false,803,image-keyboard-response,50
true,3,1,2,1,true,z,false,true,0.0-2.0-0.16-0.151-3.151,0,1,1,90,false,stim,false,1,1404.0,0,0,1,15121,WMM2,1381394,false,false,806,image-keyboard-response,51
true,3,2,2,2,true,d,false,true,0.0-2.0-0.16-0.152-3.152,0,1,1,68,false,stim,false,2,2018.0,0,1,2,15121,WMM2,1384919,false,false,809,image-keyboard-response,52
true,3,2,2,2,true,d,false,true,0.0-2.0-0.17-0.153-3.153,0,1,1,68,false,stim,false,2,1519.0,0,1,2,15121,WMM2,1387943,false,false,812,image-keyboard-response,53
true,3,1,2,1,true,z,false,true,0.0-2.0-0.17-0.154-3.154,0,1,1,90,false,stim,false,1,2905.000000000233,0,0,1,15121,WMM2,1392355,false,false,815,image-keyboard-response,54
true,3,1,2,1,true,z,false,true,0.0-2.0-0.17-0.155-3.155,0,1,1,90,false,stim,false,1,934.0,0,0,1,15121,WMM2,1394795,false,false,818,image-keyboard-response,55
true,3,0,2,2,false,d,true,false,0.0-2.0-0.17-0.156-3.156,0,1,1,81,false,stim,false,1,2269.0,0,0,0,15121,WMM2,1398570,false,false,821,image-keyboard-response,56
true,3,2,2,2,true,d,false,true,0.0-2.0-0.17-0.157-3.157,0,1,1,68,false,stim,false,1,645.9999999997672,0,0,0,15121,WMM2,1400722,false,false,824,image-keyboard-response,57
false,3,-1,2,1,false,z,true,false,0.0-2.0-0.17-0.158-3.158,0,1,1,,false,stim,false,1,,0,0,1,15121,WMM2,1405229,false,false,827,image-keyboard-response,58
true,3,2,2,2,true,d,false,true,0.0-2.0-0.17-0.159-3.159,0,1,1,68,false,stim,false,2,1967.0,0,1,2,15121,WMM2,1408703,false,false,830,image-keyboard-response,59
true,3,2,2,2,true,d,false,true,0.0-2.0-0.17-0.160-3.160,0,1,1,68,false,stim,false,2,1166.0,0,1,2,15121,WMM2,1411375,false,false,833,image-keyboard-response,60
true,4,2,1,0,false,q,false,false,0.0-2.0-0.17-0.161-3.161,0,0,1,68,true,stim,true,2,1998.0,0,0,0,15121,WMM2,1414879,false,false,836,image-keyboard-response,1
true,4,1,1,2,false,d,true,false,0.0-2.0-0.18-0.162-3.162,0,0,1,90,false,stim,false,2,2991.0,0,1,2,15121,WMM2,1419376,false,false,839,image-keyboard-response,2
false,4,-1,1,2,false,d,true,true,0.0-2.0-0.18-0.163-3.163,0,0,1,,false,stim,false,2,,0,1,2,15121,WMM2,1423884,false,true,842,image-keyboard-response,3
true,4,1,1,2,false,d,false,false,0.0-2.0-0.18-0.164-3.164,0,0,1,90,false,stim,true,1,2463.0,0,0,1,15121,WMM2,1427855,false,false,845,image-keyboard-response,4
true,4,2,1,2,true,d,false,true,0.0-2.0-0.18-0.165-3.165,0,0,1,68,false,stim,false,1,655.0,0,0,1,15121,WMM2,1430015,false,false,848,image-keyboard-response,5
false,4,-1,1,0,false,q,true,false,0.0-2.0-0.18-0.166-3.166,0,0,1,,false,stim,false,2,,0,0,0,15121,WMM2,1434522,false,false,851,image-keyboard-response,6
false,4,-1,1,0,false,q,true,false,0.0-2.0-0.18-0.167-3.167,0,0,1,,false,stim,false,2,,0,0,0,15121,WMM2,1439029,false,false,854,image-keyboard-response,7
true,4,2,1,2,true,d,false,true,0.0-2.0-0.18-0.168-3.168,0,0,1,68,false,stim,false,2,2068.0,0,1,2,15121,WMM2,1442603,false,false,857,image-keyboard-response,8
true,4,2,1,0,false,q,false,false,0.0-2.0-0.18-0.169-3.169,0,0,1,68,false,stim,true,2,1745.0,0,0,0,15121,WMM2,1445854,false,false,860,image-keyboard-response,9
true,4,2,1,2,true,d,false,true,0.0-2.0-0.18-0.170-3.170,0,0,1,68,false,stim,false,1,2072.000000000233,0,0,1,15121,WMM2,1449432,false,false,863,image-keyboard-response,10
true,4,1,1,0,false,q,true,false,0.0-2.0-0.19-0.171-3.171,0,0,1,90,false,stim,false,2,1924.0,0,0,0,15121,WMM2,1452862,false,false,866,image-keyboard-response,11
true,4,0,1,0,true,q,false,true,0.0-2.0-0.19-0.172-3.172,0,0,1,81,false,stim,false,2,839.0,0,0,0,15121,WMM2,1455206,false,false,869,image-keyboard-response,12
false,4,-1,1,2,false,d,true,false,0.0-2.0-0.19-0.173-3.173,0,0,1,,false,stim,false,1,,0,0,1,15121,WMM2,1459713,false,false,872,image-keyboard-response,13
true,4,2,1,2,true,d,false,true,0.0-2.0-0.19-0.174-3.174,0,0,1,68,false,stim,false,1,490.0,0,0,1,15121,WMM2,1461709,false,false,875,image-keyboard-response,14
true,4,2,1,2,true,d,false,true,0.0-2.0-0.19-0.175-3.175,0,0,1,68,false,stim,false,2,1406.0,0,1,2,15121,WMM2,1464621,false,false,878,image-keyboard-response,15
true,4,0,1,0,true,q,false,true,0.0-2.0-0.19-0.176-3.176,0,0,1,81,false,stim,false,2,974.0,0,0,0,15121,WMM2,1467101,false,false,881,image-keyboard-response,16
true,4,2,1,2,true,d,false,true,0.0-2.0-0.19-0.177-3.177,0,0,1,68,false,stim,false,2,1366.9999999997672,0,1,2,15121,WMM2,1469974,false,false,884,image-keyboard-response,17
true,4,2,1,2,true,d,false,true,0.0-2.0-0.19-0.178-3.178,0,0,1,68,false,stim,false,2,741.0,0,1,2,15121,WMM2,1472220,false,false,887,image-keyboard-response,18
true,4,1,1,2,false,d,false,true,0.0-2.0-0.19-0.179-3.179,0,0,1,90,false,stim,true,1,2423.0,0,0,1,15121,WMM2,1476149,false,true,890,image-keyboard-response,19
true,4,1,1,2,false,d,false,false,0.0-2.0-0.20-0.180-3.180,0,0,1,90,false,stim,true,1,618.0,0,0,1,15121,WMM2,1478278,false,false,893,image-keyboard-response,20
true,4,0,1,0,true,q,false,true,0.0-2.0-0.20-0.181-3.181,0,0,1,81,false,stim,false,2,1732.0,0,0,0,15121,WMM2,1481518,false,false,896,image-keyboard-response,21
true,4,2,1,2,true,d,false,true,0.0-2.0-0.20-0.182-3.182,0,0,1,68,false,stim,false,2,2547.0,0,1,2,15121,WMM2,1485572,false,false,899,image-keyboard-response,22
true,4,0,1,0,true,q,false,true,0.0-2.0-0.20-0.183-3.183,0,0,1,81,false,stim,false,2,1401.0,0,0,0,15121,WMM2,1488484,false,false,902,image-keyboard-response,23
true,4,1,1,2,false,d,false,false,0.0-2.0-0.20-0.184-3.184,0,0,1,90,false,stim,true,1,1476.9999999997672,0,0,1,15121,WMM2,1491468,false,false,905,image-keyboard-response,24
true,4,0,1,0,true,q,false,true,0.0-2.0-0.20-0.185-3.185,0,0,1,81,false,stim,false,2,1085.0,0,0,0,15121,WMM2,1494061,false,false,908,image-keyboard-response,25
true,4,2,1,2,true,d,false,true,0.0-2.0-0.20-0.186-3.186,0,0,1,68,false,stim,false,2,1835.9999999997672,0,1,2,15121,WMM2,1497405,false,false,911,image-keyboard-response,26
true,4,2,1,2,true,d,false,true,0.0-2.0-0.20-0.187-3.187,0,0,1,68,false,stim,false,2,1173.0,0,1,2,15121,WMM2,1500085,false,false,914,image-keyboard-response,27
true,4,1,1,2,false,d,false,false,0.0-2.0-0.20-0.188-3.188,0,0,1,90,false,stim,true,1,1999.0,0,0,1,15121,WMM2,1503591,false,false,917,image-keyboard-response,28
true,4,0,1,0,true,q,false,true,0.0-2.0-0.21-0.189-3.189,0,0,1,81,false,stim,false,2,1292.0,0,0,0,15121,WMM2,1506391,false,false,920,image-keyboard-response,29
false,4,-1,1,0,false,q,true,false,0.0-2.0-0.21-0.190-3.190,0,0,1,,false,stim,false,2,,0,0,0,15121,WMM2,1510899,false,false,923,image-keyboard-response,30
true,4,0,1,2,false,d,true,false,0.0-2.0-0.21-0.191-3.191,0,0,1,81,false,stim,false,1,1097.9999999997672,0,0,1,15121,WMM2,1513504,false,false,926,image-keyboard-response,31
true,4,1,1,2,false,d,false,false,0.0-2.0-0.21-0.192-3.192,0,0,1,90,false,stim,true,1,494.0,0,0,1,15121,WMM2,1515504,false,false,929,image-keyboard-response,32
true,4,0,1,2,false,d,true,false,0.0-2.0-0.21-0.193-3.193,0,0,1,81,false,stim,false,2,1182.0,0,1,2,15121,WMM2,1518192,false,false,932,image-keyboard-response,33
false,4,-1,1,2,false,d,true,false,0.0-2.0-0.21-0.194-3.194,0,0,1,,false,stim,false,1,,0,0,1,15121,WMM2,1522700,false,false,935,image-keyboard-response,34
true,4,2,1,0,false,q,false,false,0.0-2.0-0.21-0.195-3.195,0,0,1,68,false,stim,true,2,583.0,0,0,0,15121,WMM2,1524789,false,false,938,image-keyboard-response,35
true,4,2,1,2,true,d,false,true,0.0-2.0-0.21-0.196-3.196,0,0,1,68,false,stim,false,2,2988.0,0,1,2,15121,WMM2,1529284,false,false,941,image-keyboard-response,36
true,4,2,1,2,true,d,false,false,0.0-2.0-0.21-0.197-3.197,0,0,1,68,false,stim,false,2,677.9999999997672,0,1,2,15121,WMM2,1531469,false,true,944,image-keyboard-response,37
true,4,0,1,0,true,q,false,true,0.0-2.0-0.22-0.198-3.198,0,0,1,81,false,stim,false,2,2801.0,0,0,0,15121,WMM2,1535777,false,false,947,image-keyboard-response,38
true,4,0,1,2,false,d,true,false,0.0-2.0-0.22-0.199-3.199,0,0,1,81,false,stim,false,1,1906.0,0,0,1,15121,WMM2,1539191,false,false,950,image-keyboard-response,39
true,4,0,1,2,false,d,true,true,0.0-2.0-0.22-0.200-3.200,0,0,1,81,false,stim,false,2,1487.0,0,1,2,15121,WMM2,1542185,false,true,953,image-keyboard-response,40
true,4,0,1,2,false,d,true,false,0.0-2.0-0.22-0.201-3.201,0,0,1,81,false,stim,false,2,901.0,0,1,2,15121,WMM2,1544592,false,false,956,image-keyboard-response,41
true,4,2,1,0,false,q,false,false,0.0-2.0-0.22-0.202-3.202,0,0,1,68,false,stim,true,2,2075.999999999767,0,0,0,15121,WMM2,1548176,false,false,959,image-keyboard-response,42
true,4,1,1,2,false,d,false,false,0.0-2.0-0.22-0.203-3.203,0,0,1,90,false,stim,true,1,1260.0,0,0,1,15121,WMM2,1550944,false,false,962,image-keyboard-response,43
true,4,0,1,0,true,q,false,true,0.0-2.0-0.22-0.204-3.204,0,0,1,81,false,stim,false,2,1365.0,0,0,0,15121,WMM2,1553816,false,false,965,image-keyboard-response,44
false,4,-1,1,2,false,d,true,false,0.0-2.0-0.22-0.205-3.205,0,0,1,,false,stim,false,1,,0,0,1,15121,WMM2,1558324,false,false,968,image-keyboard-response,45
true,4,0,1,2,false,d,true,false,0.0-2.0-0.22-0.206-3.206,0,0,1,81,false,stim,false,2,868.0,0,1,2,15121,WMM2,1560700,false,false,971,image-keyboard-response,46
true,4,1,1,2,false,d,true,false,0.0-2.0-0.23-0.207-3.207,0,0,1,90,false,stim,false,2,1342.0,0,1,2,15121,WMM2,1563549,false,false,974,image-keyboard-response,47
true,4,2,1,2,true,d,false,false,0.0-2.0-0.23-0.208-3.208,0,0,1,68,false,stim,false,1,644.0,0,0,1,15121,WMM2,1565701,false,true,977,image-keyboard-response,48
true,4,2,1,0,false,q,false,false,0.0-2.0-0.23-0.209-3.209,0,0,1,68,false,stim,true,2,1629.0,0,0,0,15121,WMM2,1568837,false,false,980,image-keyboard-response,49
true,4,0,1,0,true,q,false,true,0.0-2.0-0.23-0.210-3.210,0,0,1,81,false,stim,false,2,1719.0000000002328,0,0,0,15121,WMM2,1572062,false,false,983,image-keyboard-response,50
true,4,0,1,0,true,q,false,true,0.0-2.0-0.23-0.211-3.211,0,0,1,81,false,stim,false,2,1037.0,0,1,0,15121,WMM2,1574606,false,false,986,image-keyboard-response,51
true,4,0,1,2,false,d,true,true,0.0-2.0-0.23-0.212-3.212,0,0,1,81,false,stim,false,1,694.0,0,1,1,15121,WMM2,1576806,false,true,989,image-keyboard-response,52
true,4,0,1,2,false,d,true,true,0.0-2.0-0.23-0.213-3.213,0,0,1,81,false,stim,false,2,1005.9999999997672,0,0,2,15121,WMM2,1579318,false,true,992,image-keyboard-response,53
true,4,0,1,2,false,d,true,true,0.0-2.0-0.23-0.214-3.214,0,0,1,81,false,stim,false,1,1151.0000000002328,0,1,1,15121,WMM2,1581975,false,true,995,image-keyboard-response,54
true,4,0,1,2,false,d,true,false,0.0-2.0-0.23-0.215-3.215,0,0,1,81,false,stim,false,2,821.0000000002328,0,0,2,15121,WMM2,1584302,false,false,998,image-keyboard-response,55
true,4,0,1,2,false,d,true,true,0.0-2.0-0.24-0.216-3.216,0,0,1,81,false,stim,false,1,1641.9999999997672,0,1,1,15121,WMM2,1587454,false,true,1001,image-keyboard-response,56
true,4,0,1,0,true,q,false,false,0.0-2.0-0.24-0.217-3.217,0,0,1,81,false,stim,false,2,1565.0,0,1,0,15121,WMM2,1590526,false,true,1004,image-keyboard-response,57
false,4,-1,1,2,false,d,true,false,0.0-2.0-0.24-0.218-3.218,0,0,1,,false,stim,false,2,,0,0,2,15121,WMM2,1595034,false,false,1007,image-keyboard-response,58
true,4,0,1,2,false,d,true,false,0.0-2.0-0.24-0.219-3.219,0,0,1,81,false,stim,false,1,1789.0,0,1,1,15121,WMM2,1598330,false,false,1010,image-keyboard-response,59
true,4,2,1,2,true,d,false,true,0.0-2.0-0.24-0.220-3.220,0,0,1,68,false,stim,false,1,884.0,0,1,1,15121,WMM2,1600721,false,false,1013,image-keyboard-response,60
true,5,1,4,0,false,q,true,true,0.0-2.0-0.24-0.221-3.221,1,1,0,90,true,stim,false,0,1295.0,0,1,0,15121,WMM2,1603522,false,true,1016,image-keyboard-response,1
true,5,1,4,2,false,d,true,false,0.0-2.0-0.24-0.222-3.222,1,1,0,90,false,stim,false,2,1582.0000000002328,0,0,2,15121,WMM2,1606610,false,false,1019,image-keyboard-response,2
true,5,0,4,2,false,d,true,false,0.0-2.0-0.24-0.223-3.223,1,1,0,81,false,stim,false,2,1174.0,0,0,2,15121,WMM2,1609290,false,false,1022,image-keyboard-response,3
true,5,2,4,0,false,q,true,false,0.0-2.0-0.24-0.224-3.224,1,1,0,68,false,stim,false,0,1724.0,0,1,0,15121,WMM2,1612522,false,false,1025,image-keyboard-response,4
true,5,1,4,2,false,d,true,false,0.0-2.0-0.25-0.225-3.225,1,1,0,90,false,stim,false,2,2130.000000000233,0,1,1,15121,WMM2,1616159,false,false,1028,image-keyboard-response,5
true,5,2,4,2,true,d,false,true,0.0-2.0-0.25-0.226-3.226,1,1,0,68,false,stim,false,2,2241.0,0,0,2,15121,WMM2,1619907,false,false,1031,image-keyboard-response,6
false,5,-1,4,0,false,q,true,true,0.0-2.0-0.25-0.227-3.227,1,1,0,,false,stim,false,0,,0,1,0,15121,WMM2,1624413,false,true,1034,image-keyboard-response,7
true,5,2,4,0,false,q,true,false,0.0-2.0-0.25-0.228-3.228,1,1,0,68,false,stim,false,0,2267.000000000233,0,1,0,15121,WMM2,1628187,false,false,1037,image-keyboard-response,8
true,5,2,4,2,true,d,false,true,0.0-2.0-0.25-0.229-3.229,1,1,0,68,false,stim,false,2,2009.0,0,0,2,15121,WMM2,1631703,false,false,1040,image-keyboard-response,9
true,5,0,4,0,true,q,false,true,0.0-2.0-0.25-0.230-3.230,1,1,0,81,false,stim,false,0,2126.0,0,1,0,15121,WMM2,1635335,false,false,1043,image-keyboard-response,10
true,5,1,4,2,false,d,true,false,0.0-2.0-0.25-0.231-3.231,1,1,0,90,false,stim,false,2,1628.0,0,1,1,15121,WMM2,1638471,false,false,1046,image-keyboard-response,11
true,5,2,4,2,true,d,false,true,0.0-2.0-0.25-0.232-3.232,1,1,0,68,false,stim,false,2,1781.0,0,0,2,15121,WMM2,1641759,false,false,1049,image-keyboard-response,12
true,5,0,4,2,false,d,true,false,0.0-2.0-0.25-0.233-3.233,1,1,0,81,false,stim,false,2,1541.0,0,1,1,15121,WMM2,1644807,false,false,1052,image-keyboard-response,13
true,5,0,4,0,true,q,false,true,0.0-2.0-0.26-0.234-3.234,1,1,0,81,false,stim,false,0,2077.0,0,1,0,15121,WMM2,1648392,false,false,1055,image-keyboard-response,14
true,5,1,4,0,false,q,true,true,0.0-2.0-0.26-0.235-3.235,1,1,0,90,false,stim,false,0,1662.0,0,1,0,15121,WMM2,1651560,false,true,1058,image-keyboard-response,15
true,5,1,4,0,false,q,true,false,0.0-2.0-0.26-0.236-3.236,1,1,0,90,false,stim,false,0,2390.0,0,1,0,15121,WMM2,1655456,false,false,1061,image-keyboard-response,16
true,5,0,4,2,false,d,true,false,0.0-2.0-0.26-0.237-3.237,1,1,0,81,false,stim,false,2,2703.0,0,1,1,15121,WMM2,1659666,false,false,1064,image-keyboard-response,17
true,5,2,4,2,true,d,false,false,0.0-2.0-0.26-0.238-3.238,1,1,0,68,false,stim,false,2,2244.0,0,0,2,15121,WMM2,1663417,false,true,1067,image-keyboard-response,18
true,5,0,4,2,false,d,true,false,0.0-2.0-0.26-0.239-3.239,1,1,0,81,false,stim,false,2,1646.0,0,0,2,15121,WMM2,1666569,false,false,1070,image-keyboard-response,19
false,5,-1,4,2,false,d,true,false,0.0-2.0-0.26-0.240-3.240,1,1,0,,false,stim,false,2,,0,1,1,15121,WMM2,1671077,false,false,1073,image-keyboard-response,20
true,5,0,4,2,false,d,true,false,0.0-2.0-0.26-0.241-3.241,1,1,0,81,false,stim,false,2,972.0,0,1,1,15121,WMM2,1673558,false,false,1076,image-keyboard-response,21
true,5,2,4,2,true,d,false,true,0.0-2.0-0.26-0.242-3.242,1,1,0,68,false,stim,false,2,1413.0,0,0,2,15121,WMM2,1676478,false,false,1079,image-keyboard-response,22
true,5,1,4,2,false,d,true,false,0.0-2.0-0.27-0.243-3.243,1,1,0,90,false,stim,false,2,2395.999999999767,0,1,1,15121,WMM2,1680384,false,false,1082,image-keyboard-response,23
true,5,2,4,2,true,d,false,true,0.0-2.0-0.27-0.244-3.244,1,1,0,68,false,stim,false,2,2151.0,0,0,2,15121,WMM2,1684043,false,false,1085,image-keyboard-response,24
true,5,1,4,0,false,q,true,false,0.0-2.0-0.27-0.245-3.245,1,1,0,90,false,stim,false,0,2438.000000000233,0,1,0,15121,WMM2,1687988,false,false,1088,image-keyboard-response,25
true,5,0,4,0,true,q,false,true,0.0-2.0-0.27-0.246-3.246,1,1,0,81,false,stim,false,0,1756.0,0,1,0,15121,WMM2,1691252,false,false,1091,image-keyboard-response,26
true,5,1,4,2,false,d,true,false,0.0-2.0-0.27-0.247-3.247,1,1,0,90,false,stim,false,2,2252.0,0,1,1,15121,WMM2,1695011,false,false,1094,image-keyboard-response,27
true,5,2,4,2,true,d,false,true,0.0-2.0-0.27-0.248-3.248,1,1,0,68,false,stim,false,2,1269.0,0,1,1,15121,WMM2,1697788,false,false,1097,image-keyboard-response,28
false,5,-1,4,0,false,q,true,false,0.0-2.0-0.27-0.249-3.249,1,1,0,,false,stim,false,0,,0,1,0,15121,WMM2,1702297,false,false,1100,image-keyboard-response,29
true,5,2,4,2,true,d,false,true,0.0-2.0-0.27-0.250-3.250,1,1,0,68,false,stim,false,2,2667.0,0,0,2,15121,WMM2,1706476,false,false,1103,image-keyboard-response,30
true,5,2,4,2,true,d,false,true,0.0-2.0-0.27-0.251-3.251,1,1,0,68,false,stim,false,2,1690.0,0,0,2,15121,WMM2,1709673,false,false,1106,image-keyboard-response,31
true,5,0,4,0,true,q,false,true,0.0-2.0-0.28-0.252-3.252,1,1,0,81,false,stim,false,0,1483.9999999997672,0,1,0,15121,WMM2,1712665,false,false,1109,image-keyboard-response,32
true,5,2,4,2,true,d,false,true,0.0-2.0-0.28-0.253-3.253,1,1,0,68,false,stim,false,2,2186.0,0,0,2,15121,WMM2,1716358,false,false,1112,image-keyboard-response,33
true,5,2,4,2,true,d,false,true,0.0-2.0-0.28-0.254-3.254,1,1,0,68,false,stim,false,2,1363.0,0,0,2,15121,WMM2,1719231,false,false,1115,image-keyboard-response,34
true,5,0,4,0,true,q,false,true,0.0-2.0-0.28-0.255-3.255,1,1,0,81,false,stim,false,0,1404.0,0,1,0,15121,WMM2,1722143,false,false,1118,image-keyboard-response,35
true,5,2,4,2,true,d,false,true,0.0-2.0-0.28-0.256-3.256,1,1,0,68,false,stim,false,2,1429.0,0,0,2,15121,WMM2,1725080,false,false,1121,image-keyboard-response,36
true,5,2,4,2,true,d,false,true,0.0-2.0-0.28-0.257-3.257,1,1,0,68,false,stim,false,2,2317.0,0,1,1,15121,WMM2,1728903,false,false,1124,image-keyboard-response,37
true,5,0,4,0,true,q,false,true,0.0-2.0-0.28-0.258-3.258,1,1,0,81,false,stim,false,0,1579.0000000002328,0,1,0,15121,WMM2,1731989,false,false,1127,image-keyboard-response,38
true,5,2,4,2,true,d,false,true,0.0-2.0-0.28-0.259-3.259,1,1,0,68,false,stim,false,2,1390.0,0,0,1,15121,WMM2,1734886,false,false,1130,image-keyboard-response,39
true,5,2,4,2,true,d,false,true,0.0-2.0-0.28-0.260-3.260,1,1,0,68,false,stim,false,2,1109.0,0,0,1,15121,WMM2,1737501,false,false,1133,image-keyboard-response,40
true,5,0,4,0,true,q,false,true,0.0-2.0-0.29-0.261-3.261,1,1,0,81,false,stim,false,0,1212.9999999997672,0,1,0,15121,WMM2,1740222,false,false,1136,image-keyboard-response,41
true,5,2,4,2,true,d,false,true,0.0-2.0-0.29-0.262-3.262,1,1,0,68,false,stim,false,2,2369.0,0,0,1,15121,WMM2,1744098,false,false,1139,image-keyboard-response,42
true,5,2,4,2,true,d,false,false,0.0-2.0-0.29-0.263-3.263,1,1,0,68,false,stim,false,2,1302.0,0,1,2,15121,WMM2,1746906,false,true,1142,image-keyboard-response,43
true,5,0,4,2,false,d,true,false,0.0-2.0-0.29-0.264-3.264,1,1,0,81,false,stim,false,2,1740.9999999997672,0,0,1,15121,WMM2,1750155,false,false,1145,image-keyboard-response,44
true,5,2,4,2,true,d,false,true,0.0-2.0-0.29-0.265-3.265,1,1,0,68,false,stim,false,2,1205.0,0,1,2,15121,WMM2,1752867,false,false,1148,image-keyboard-response,45
true,5,2,4,2,true,d,false,false,0.0-2.0-0.29-0.266-3.266,1,1,0,68,false,stim,false,2,1358.0000000002328,0,0,1,15121,WMM2,1755730,false,true,1151,image-keyboard-response,46
false,5,-1,4,2,false,d,true,false,0.0-2.0-0.29-0.267-3.267,1,1,0,,false,stim,false,2,,0,1,2,15121,WMM2,1760238,false,false,1154,image-keyboard-response,47
true,6,0,3,0,true,q,false,true,0.0-2.0-0.29-0.268-3.268,1,0,1,81,true,stim,false,0,1752.0,0,1,0,15121,WMM2,1763497,false,false,1157,image-keyboard-response,1
true,6,0,3,0,true,q,false,true,0.0-2.0-0.29-0.269-3.269,1,0,1,81,false,stim,false,0,1088.0,0,1,0,15121,WMM2,1766091,false,false,1160,image-keyboard-response,2
true,6,0,3,0,true,q,false,false,0.0-2.0-0.30-0.270-3.270,1,0,1,81,false,stim,false,0,995.0,0,1,0,15121,WMM2,1768593,false,true,1163,image-keyboard-response,3
false,6,-1,3,1,false,z,true,false,0.0-2.0-0.30-0.271-3.271,1,0,1,,false,stim,false,2,,0,0,1,15121,WMM2,1773102,false,false,1166,image-keyboard-response,4
true,6,2,3,1,false,z,false,false,0.0-2.0-0.30-0.272-3.272,1,0,1,68,false,stim,true,2,810.0,0,0,1,15121,WMM2,1775419,false,false,1169,image-keyboard-response,5
true,6,0,3,0,true,q,false,true,0.0-2.0-0.30-0.273-3.273,1,0,1,81,false,stim,false,0,1326.0,0,1,0,15121,WMM2,1778252,false,false,1172,image-keyboard-response,6
true,6,2,3,2,true,d,false,true,0.0-2.0-0.30-0.274-3.274,1,0,1,68,false,stim,false,2,1596.0,0,1,2,15121,WMM2,1781355,false,false,1175,image-keyboard-response,7
true,6,2,3,2,true,d,false,true,0.0-2.0-0.30-0.275-3.275,1,0,1,68,false,stim,false,2,950.0,0,1,2,15121,WMM2,1783811,false,false,1178,image-keyboard-response,8
true,6,1,3,1,true,z,false,true,0.0-2.0-0.30-0.276-3.276,1,0,1,90,false,stim,false,2,2559.999999999767,0,0,1,15121,WMM2,1787877,false,false,1181,image-keyboard-response,9
true,6,2,3,2,true,d,false,true,0.0-2.0-0.30-0.277-3.277,1,0,1,68,false,stim,false,2,1439.0,0,1,2,15121,WMM2,1790821,false,false,1184,image-keyboard-response,10
true,6,0,3,0,true,q,false,true,0.0-2.0-0.30-0.278-3.278,1,0,1,81,false,stim,false,0,1447.0,0,1,0,15121,WMM2,1793776,false,false,1187,image-keyboard-response,11
true,6,2,3,2,true,d,false,true,0.0-2.0-0.31-0.279-3.279,1,0,1,68,false,stim,false,2,1442.0,0,1,2,15121,WMM2,1796726,false,false,1190,image-keyboard-response,12
true,6,1,3,1,true,z,false,true,0.0-2.0-0.31-0.280-3.280,1,0,1,90,false,stim,false,2,2314.999999999767,0,0,1,15121,WMM2,1800547,false,false,1193,image-keyboard-response,13
true,6,0,3,0,true,q,false,false,0.0-2.0-0.31-0.281-3.281,1,0,1,81,false,stim,false,0,1882.0,0,1,0,15121,WMM2,1803935,false,true,1196,image-keyboard-response,14
true,6,1,3,0,false,q,true,false,0.0-2.0-0.31-0.282-3.282,1,0,1,90,false,stim,false,0,2574.0,0,1,0,15121,WMM2,1808016,false,false,1199,image-keyboard-response,15
true,6,2,3,0,false,q,true,true,0.0-2.0-0.31-0.283-3.283,1,0,1,68,false,stim,false,0,554.0,0,1,0,15121,WMM2,1810080,false,true,1202,image-keyboard-response,16
true,6,2,3,1,false,z,false,false,0.0-2.0-0.31-0.284-3.284,1,0,1,68,false,stim,true,2,1702.0,0,0,1,15121,WMM2,1813288,false,false,1205,image-keyboard-response,17
true,6,1,3,2,false,d,true,true,0.0-2.0-0.31-0.285-3.285,1,0,1,90,false,stim,false,2,1246.0000000002328,0,1,2,15121,WMM2,1816040,false,true,1208,image-keyboard-response,18
true,6,1,3,2,false,d,true,false,0.0-2.0-0.31-0.286-3.286,1,0,1,90,false,stim,false,2,1773.0,0,1,2,15121,WMM2,1819320,false,false,1211,image-keyboard-response,19
false,6,-1,3,1,false,z,true,false,0.0-2.0-0.31-0.287-3.287,1,0,1,,false,stim,false,2,,0,0,1,15121,WMM2,1823828,false,false,1214,image-keyboard-response,20
true,6,2,3,2,true,d,false,false,0.0-2.0-0.32-0.288-3.288,1,0,1,68,false,stim,false,2,1715.0,0,1,2,15121,WMM2,1827050,false,true,1217,image-keyboard-response,21
true,6,2,3,1,false,z,false,false,0.0-2.0-0.32-0.289-3.289,1,0,1,68,false,stim,true,2,1723.9999999997672,0,0,1,15121,WMM2,1830283,false,false,1220,image-keyboard-response,22
true,6,0,3,1,false,z,true,false,0.0-2.0-0.32-0.290-3.290,1,0,1,81,false,stim,false,2,2116.0,0,0,1,15121,WMM2,1833905,false,false,1223,image-keyboard-response,23
true,6,1,3,0,false,q,true,false,0.0-2.0-0.32-0.291-3.291,1,0,1,90,false,stim,false,0,1813.0,0,1,0,15121,WMM2,1837226,false,false,1226,image-keyboard-response,24
true,6,2,3,0,false,q,true,false,0.0-2.0-0.32-0.292-3.292,1,0,1,68,false,stim,false,0,572.9999999997672,0,1,0,15121,WMM2,1839306,false,false,1229,image-keyboard-response,25
true,6,0,3,2,false,d,true,true,0.0-2.0-0.32-0.293-3.293,1,0,1,81,false,stim,false,2,2909.0,0,1,2,15121,WMM2,1843722,false,true,1232,image-keyboard-response,26
true,6,2,3,0,false,q,true,false,0.0-2.0-0.32-0.294-3.294,1,0,1,68,false,stim,false,0,2773.0,0,1,0,15121,WMM2,1848003,false,false,1235,image-keyboard-response,27
false,6,-1,3,2,false,d,true,false,0.0-2.0-0.32-0.295-3.295,1,0,1,,false,stim,false,2,,0,1,2,15121,WMM2,1852511,false,false,1238,image-keyboard-response,28
true,6,0,3,1,false,z,true,false,0.0-2.0-0.32-0.296-3.296,1,0,1,81,false,stim,false,2,1202.0,0,0,1,15121,WMM2,1855221,false,false,1241,image-keyboard-response,29
true,6,1,3,1,true,z,false,true,0.0-2.0-0.33-0.297-3.297,1,0,1,90,false,stim,false,2,2638.0,0,0,1,15121,WMM2,1859367,false,false,1244,image-keyboard-response,30
true,6,2,3,2,true,d,false,true,0.0-2.0-0.33-0.298-3.298,1,0,1,68,false,stim,false,2,1772.0,0,1,2,15121,WMM2,1862645,false,false,1247,image-keyboard-response,31
true,6,0,3,0,true,q,false,true,0.0-2.0-0.33-0.299-3.299,1,0,1,81,false,stim,false,0,1973.0,0,1,0,15121,WMM2,1866127,false,false,1250,image-keyboard-response,32
true,6,1,3,1,true,z,false,true,0.0-2.0-0.33-0.300-3.300,1,0,1,90,false,stim,false,2,2965.000000000233,0,0,1,15121,WMM2,1870599,false,false,1253,image-keyboard-response,33
true,6,1,3,1,true,z,false,false,0.0-2.0-0.33-0.301-3.301,1,0,1,90,false,stim,false,2,1219.0,0,0,1,15121,WMM2,1873327,false,true,1256,image-keyboard-response,34
true,6,1,3,0,false,q,true,true,0.0-2.0-0.33-0.302-3.302,1,0,1,90,false,stim,false,0,2464.0,0,1,0,15121,WMM2,1877300,false,true,1259,image-keyboard-response,35
true,6,1,3,2,false,d,true,false,0.0-2.0-0.33-0.303-3.303,1,0,1,90,false,stim,false,2,1604.0,0,1,2,15121,WMM2,1880413,false,false,1262,image-keyboard-response,36
true,6,1,3,0,false,q,true,false,0.0-2.0-0.33-0.304-3.304,1,0,1,90,false,stim,false,0,1373.0,0,1,0,15121,WMM2,1883293,false,false,1265,image-keyboard-response,37
true,6,0,3,2,false,d,true,false,0.0-2.0-0.33-0.305-3.305,1,0,1,81,false,stim,false,2,2002.9999999997672,0,1,2,15121,WMM2,1886805,false,false,1268,image-keyboard-response,38
false,6,-1,3,1,false,z,true,false,0.0-2.0-0.34-0.306-3.306,1,0,1,,false,stim,false,2,,0,0,1,15121,WMM2,1891315,false,false,1271,image-keyboard-response,39
true,6,0,3,0,true,q,false,true,0.0-2.0-0.34-0.307-3.307,1,0,1,81,false,stim,false,0,1295.0000000002328,0,1,0,15121,WMM2,1894119,false,false,1274,image-keyboard-response,40
true,6,1,3,1,true,z,false,true,0.0-2.0-0.34-0.308-3.308,1,0,1,90,false,stim,false,2,2307.0,0,0,1,15121,WMM2,1897933,false,false,1277,image-keyboard-response,41
true,6,1,3,0,false,q,true,true,0.0-2.0-0.34-0.309-3.309,1,0,1,90,false,stim,false,0,1780.0,0,1,0,15121,WMM2,1901221,false,true,1280,image-keyboard-response,42
true,6,2,3,1,false,z,false,false,0.0-2.0-0.34-0.310-3.310,1,0,1,68,false,stim,true,2,2254.0,0,0,1,15121,WMM2,1904983,false,false,1283,image-keyboard-response,43
true,6,2,3,2,true,d,false,true,0.0-2.0-0.34-0.311-3.311,1,0,1,68,false,stim,false,2,1508.0,0,1,2,15121,WMM2,1907999,false,false,1286,image-keyboard-response,44
true,6,0,3,2,false,d,true,false,0.0-2.0-0.34-0.312-3.312,1,0,1,81,false,stim,false,2,2520.0,0,1,2,15121,WMM2,1912025,false,false,1289,image-keyboard-response,45
true,6,0,3,0,true,q,false,true,0.0-2.0-0.34-0.313-3.313,1,0,1,81,false,stim,false,0,2332.0,0,1,0,15121,WMM2,1915864,false,false,1292,image-keyboard-response,46
true,6,2,3,2,true,d,false,true,0.0-2.0-0.34-0.314-3.314,1,0,1,68,false,stim,false,2,1524.0,0,1,2,15121,WMM2,1918896,false,false,1295,image-keyboard-response,47
true,6,2,3,2,true,d,false,true,0.0-2.0-0.35-0.315-3.315,1,0,1,68,false,stim,false,2,851.0,0,1,2,15121,WMM2,1921256,false,false,1298,image-keyboard-response,48
true,6,0,3,0,true,q,false,true,0.0-2.0-0.35-0.316-3.316,1,0,1,81,false,stim,false,0,1383.0,0,1,0,15121,WMM2,1924153,false,false,1301,image-keyboard-response,49
true,6,1,3,1,true,z,false,true,0.0-2.0-0.35-0.317-3.317,1,0,1,90,false,stim,false,2,1692.0,0,0,1,15121,WMM2,1927353,false,false,1304,image-keyboard-response,50
true,6,0,3,0,true,q,false,true,0.0-2.0-0.35-0.318-3.318,1,0,1,81,false,stim,false,0,1756.9999999997672,0,1,0,15121,WMM2,1930616,false,false,1307,image-keyboard-response,51
true,6,1,3,1,true,z,false,false,0.0-2.0-0.35-0.319-3.319,1,0,1,90,false,stim,false,2,1987.0000000002328,0,1,1,15121,WMM2,1934111,false,true,1310,image-keyboard-response,52
true,6,2,3,2,true,d,false,true,0.0-2.0-0.35-0.320-3.320,1,0,1,68,false,stim,false,2,1326.0,0,0,2,15121,WMM2,1936944,false,false,1313,image-keyboard-response,53
true,6,0,3,2,false,d,true,true,0.0-2.0-0.35-0.321-3.321,1,0,1,81,false,stim,false,2,1205.0,0,0,2,15121,WMM2,1939655,false,true,1316,image-keyboard-response,54
true,6,0,3,0,true,q,false,true,0.0-2.0-0.35-0.322-3.322,1,0,1,81,false,stim,false,0,1630.0,0,1,0,15121,WMM2,1942791,false,false,1319,image-keyboard-response,55
true,6,0,3,1,false,z,true,false,0.0-2.0-0.35-0.323-3.323,1,0,1,81,false,stim,false,2,2249.0,0,1,1,15121,WMM2,1946547,false,false,1322,image-keyboard-response,56
true,6,1,3,0,false,q,true,false,0.0-2.0-0.36-0.324-3.324,1,0,1,90,false,stim,false,0,2668.999999999767,0,1,0,15121,WMM2,1950722,false,false,1325,image-keyboard-response,57
true,6,2,3,1,false,z,false,false,0.0-2.0-0.36-0.325-3.325,1,0,1,68,false,stim,true,2,2339.0,0,1,1,15121,WMM2,1954568,false,false,1328,image-keyboard-response,58
true,6,2,3,2,true,d,false,true,0.0-2.0-0.36-0.326-3.326,1,0,1,68,false,stim,false,2,2494.999999999767,0,0,2,15121,WMM2,1958568,false,false,1331,image-keyboard-response,59
true,6,1,3,1,true,z,false,true,0.0-2.0-0.36-0.327-3.327,1,0,1,90,false,stim,false,2,2638.0,0,1,1,15121,WMM2,1962712,false,false,1334,image-keyboard-response,60
true,7,0,2,0,true,q,false,true,0.0-2.0-0.36-0.328-3.328,1,1,0,81,true,stim,false,0,2140.0,0,1,0,15121,WMM2,1966360,false,false,1337,image-keyboard-response,1
false,7,-1,2,1,false,z,true,false,0.0-2.0-0.36-0.329-3.329,1,1,0,,false,stim,false,1,,0,1,1,15121,WMM2,1970869,false,false,1340,image-keyboard-response,2
true,7,2,2,0,false,q,false,false,0.0-2.0-0.36-0.330-3.330,1,1,0,68,false,stim,true,2,1915.0,0,0,2,15121,WMM2,1974291,false,false,1343,image-keyboard-response,3
true,7,0,2,0,true,q,false,true,0.0-2.0-0.36-0.331-3.331,1,1,0,81,false,stim,false,0,1559.0,0,1,0,15121,WMM2,1977356,false,false,1346,image-keyboard-response,4
true,7,1,2,0,false,q,true,false,0.0-2.0-0.36-0.332-3.332,1,1,0,90,false,stim,false,2,2088.999999999767,0,0,2,15121,WMM2,1980951,false,false,1349,image-keyboard-response,5
true,7,0,2,0,true,q,false,true,0.0-2.0-0.37-0.333-3.333,1,1,0,81,false,stim,false,0,1365.0,0,1,0,15121,WMM2,1983823,false,false,1352,image-keyboard-response,6
true,7,2,2,1,false,z,true,false,0.0-2.0-0.37-0.334-3.334,1,1,0,68,false,stim,false,1,2576.0,0,1,1,15121,WMM2,1987908,false,false,1355,image-keyboard-response,7
true,7,2,2,0,false,q,false,false,0.0-2.0-0.37-0.335-3.335,1,1,0,68,false,stim,true,2,1556.0,0,0,2,15121,WMM2,1990971,false,false,1358,image-keyboard-response,8
true,7,0,2,0,true,q,false,true,0.0-2.0-0.37-0.336-3.336,1,1,0,81,false,stim,false,0,1077.0,0,1,0,15121,WMM2,1993555,false,false,1361,image-keyboard-response,9
true,7,1,2,0,false,q,true,false,0.0-2.0-0.37-0.337-3.337,1,1,0,90,false,stim,false,2,644.0,0,0,2,15121,WMM2,1995707,false,false,1364,image-keyboard-response,10
true,7,2,2,1,false,z,true,true,0.0-2.0-0.37-0.338-3.338,1,1,0,68,false,stim,false,1,2611.000000000233,0,1,1,15121,WMM2,1999825,false,true,1367,image-keyboard-response,11
true,7,2,2,1,false,z,true,false,0.0-2.0-0.37-0.339-3.339,1,1,0,68,false,stim,false,1,974.0000000002328,0,1,1,15121,WMM2,2002304,false,false,1370,image-keyboard-response,12
true,7,0,2,0,true,q,false,true,0.0-2.0-0.37-0.340-3.340,1,1,0,81,false,stim,false,2,1462.0,0,0,2,15121,WMM2,2005273,false,false,1373,image-keyboard-response,13
true,7,0,2,0,true,q,false,true,0.0-2.0-0.37-0.341-3.341,1,1,0,81,false,stim,false,0,1774.0,0,1,0,15121,WMM2,2008553,false,false,1376,image-keyboard-response,14
true,7,0,2,0,true,q,false,true,0.0-2.0-0.38-0.342-3.342,1,1,0,81,false,stim,false,0,1246.0000000002328,0,1,0,15121,WMM2,2011305,false,false,1379,image-keyboard-response,15
true,7,0,2,0,true,q,false,false,0.0-2.0-0.38-0.343-3.343,1,1,0,81,false,stim,false,2,1012.0000000002328,0,0,2,15121,WMM2,2013825,false,true,1382,image-keyboard-response,16
true,7,2,2,0,false,q,false,false,0.0-2.0-0.38-0.344-3.344,1,1,0,68,false,stim,true,2,1390.0,0,0,2,15121,WMM2,2016721,false,false,1385,image-keyboard-response,17
false,7,-1,2,1,false,z,true,false,0.0-2.0-0.38-0.345-3.345,1,1,0,,false,stim,false,1,,0,1,1,15121,WMM2,2021229,false,false,1388,image-keyboard-response,18
true,7,0,2,0,true,q,false,true,0.0-2.0-0.38-0.346-3.346,1,1,0,81,false,stim,false,2,609.0,0,0,2,15121,WMM2,2023345,false,false,1391,image-keyboard-response,19
true,7,0,2,1,false,z,true,false,0.0-2.0-0.38-0.347-3.347,1,1,0,81,false,stim,false,1,1534.0,0,1,1,15121,WMM2,2026385,false,false,1394,image-keyboard-response,20
true,7,2,2,1,false,z,true,false,0.0-2.0-0.38-0.348-3.348,1,1,0,68,false,stim,false,1,1444.0,0,1,1,15121,WMM2,2029337,false,false,1397,image-keyboard-response,21
true,7,0,2,0,true,q,false,true,0.0-2.0-0.38-0.349-3.349,1,1,0,81,false,stim,false,0,1564.9999999997672,0,1,0,15121,WMM2,2032410,false,false,1400,image-keyboard-response,22
true,7,0,2,0,true,q,false,true,0.0-2.0-0.38-0.350-3.350,1,1,0,81,false,stim,false,0,1367.9999999997672,0,1,0,15121,WMM2,2035289,false,false,1403,image-keyboard-response,23
true,7,0,2,0,true,q,false,true,0.0-2.0-0.39-0.351-3.351,1,1,0,81,false,stim,false,2,949.0,0,0,2,15121,WMM2,2037747,false,false,1406,image-keyboard-response,24
true,7,1,2,1,true,z,false,true,0.0-2.0-0.39-0.352-3.352,1,1,0,90,false,stim,false,1,1949.0,0,1,1,15121,WMM2,2041202,false,false,1409,image-keyboard-response,25
true,7,0,2,0,true,q,false,true,0.0-2.0-0.39-0.353-3.353,1,1,0,81,false,stim,false,0,1404.0,0,1,0,15121,WMM2,2044114,false,false,1412,image-keyboard-response,26
true,7,0,2,1,false,z,true,false,0.0-2.0-0.39-0.354-3.354,1,1,0,81,false,stim,false,1,804.0,0,1,1,15121,WMM2,2046426,false,false,1415,image-keyboard-response,27
false,7,-1,2,0,false,q,true,false,0.0-2.0-0.39-0.355-3.355,1,1,0,,false,stim,false,2,,0,0,2,15121,WMM2,2050935,false,false,1418,image-keyboard-response,28
true,7,0,2,1,false,z,true,false,0.0-2.0-0.39-0.356-3.356,1,1,0,81,false,stim,false,1,2398.999999999767,0,1,1,15121,WMM2,2054841,false,false,1421,image-keyboard-response,29
true,7,0,2,0,true,q,false,true,0.0-2.0-0.39-0.357-3.357,1,1,0,81,false,stim,false,2,1819.0,0,0,2,15121,WMM2,2058168,false,false,1424,image-keyboard-response,30
true,7,0,2,0,true,q,false,true,0.0-2.0-0.39-0.358-3.358,1,1,0,81,false,stim,false,0,1109.0,0,1,0,15121,WMM2,2060785,false,false,1427,image-keyboard-response,31
true,7,0,2,0,true,q,false,true,0.0-2.0-0.39-0.359-3.359,1,1,0,81,false,stim,false,0,1004.0,0,1,0,15121,WMM2,2063297,false,false,1430,image-keyboard-response,32
true,7,0,2,0,true,q,false,true,0.0-2.0-0.40-0.360-3.360,1,1,0,81,false,stim,false,0,860.0,0,1,0,15121,WMM2,2065665,false,false,1433,image-keyboard-response,33
true,7,0,2,0,true,q,false,false,0.0-2.0-0.40-0.361-3.361,1,1,0,81,false,stim,false,2,1013.0000000002328,0,0,2,15121,WMM2,2068186,false,true,1436,image-keyboard-response,34
true,7,0,2,0,true,q,false,false,0.0-2.0-0.40-0.362-3.362,1,1,0,81,false,stim,false,0,1452.0000000002328,0,1,0,15121,WMM2,2071145,false,true,1439,image-keyboard-response,35
true,7,2,2,0,false,q,true,false,0.0-2.0-0.40-0.363-3.363,1,1,0,68,false,stim,false,0,2107.0,0,1,0,15121,WMM2,2074760,false,false,1442,image-keyboard-response,36
true,7,1,2,1,true,z,false,false,0.0-2.0-0.40-0.364-3.364,1,1,0,90,false,stim,false,1,1000.0,0,1,1,15121,WMM2,2077267,false,true,1445,image-keyboard-response,37
true,7,0,2,1,false,z,true,false,0.0-2.0-0.40-0.365-3.365,1,1,0,81,false,stim,false,1,882.9999999997672,0,1,1,15121,WMM2,2079657,false,false,1448,image-keyboard-response,38
true,7,2,2,1,false,z,true,false,0.0-2.0-0.40-0.366-3.366,1,1,0,68,false,stim,false,1,1708.0000000002328,0,1,1,15121,WMM2,2082873,false,false,1451,image-keyboard-response,39
true,7,1,2,0,false,q,true,false,0.0-2.0-0.40-0.367-3.367,1,1,0,90,false,stim,false,2,1516.0,0,0,2,15121,WMM2,2085897,false,false,1454,image-keyboard-response,40
true,7,0,2,0,true,q,false,true,0.0-2.0-0.40-0.368-3.368,1,1,0,81,false,stim,false,2,1069.0,0,0,2,15121,WMM2,2088474,false,false,1457,image-keyboard-response,41
true,7,0,2,0,true,q,false,true,0.0-2.0-0.41-0.369-3.369,1,1,0,81,false,stim,false,2,1077.0,0,0,2,15121,WMM2,2091059,false,false,1460,image-keyboard-response,42
true,7,0,2,0,true,q,false,true,0.0-2.0-0.41-0.370-3.370,1,1,0,81,false,stim,false,0,1179.9999999997672,0,1,0,15121,WMM2,2093747,false,false,1463,image-keyboard-response,43
true,7,0,2,0,true,q,false,true,0.0-2.0-0.41-0.371-3.371,1,1,0,81,false,stim,false,0,910.0,0,1,0,15121,WMM2,2096164,false,false,1466,image-keyboard-response,44
true,7,1,2,0,false,q,true,false,0.0-2.0-0.41-0.372-3.372,1,1,0,90,false,stim,false,2,2280.0,0,0,2,15121,WMM2,2099952,false,false,1469,image-keyboard-response,45
true,7,1,2,1,true,z,false,true,0.0-2.0-0.41-0.373-3.373,1,1,0,90,false,stim,false,1,2738.0000000004657,0,1,1,15121,WMM2,2104200,false,false,1472,image-keyboard-response,46
true,7,1,2,1,true,z,false,true,0.0-2.0-0.41-0.374-3.374,1,1,0,90,false,stim,false,1,1206.0,0,1,1,15121,WMM2,2106914,false,false,1475,image-keyboard-response,47
true,7,0,2,0,true,q,false,false,0.0-2.0-0.41-0.375-3.375,1,1,0,81,false,stim,false,2,1804.0,0,0,2,15121,WMM2,2110225,false,true,1478,image-keyboard-response,48
true,7,0,2,0,true,q,false,true,0.0-2.0-0.41-0.376-3.376,1,1,0,81,false,stim,false,0,1222.0,0,1,0,15121,WMM2,2112953,false,false,1481,image-keyboard-response,49
true,7,2,2,1,false,z,true,false,0.0-2.0-0.41-0.377-3.377,1,1,0,68,false,stim,false,1,1828.0,0,1,1,15121,WMM2,2116289,false,false,1484,image-keyboard-response,50
true,7,1,2,0,false,q,true,false,0.0-2.0-0.42-0.378-3.378,1,1,0,90,false,stim,false,0,1098.0,0,1,0,15121,WMM2,2118897,false,false,1487,image-keyboard-response,51
true,7,0,2,0,true,q,false,true,0.0-2.0-0.42-0.379-3.379,1,1,0,81,false,stim,false,2,517.0,0,0,2,15121,WMM2,2120921,false,false,1490,image-keyboard-response,52
false,7,-1,2,1,false,z,true,false,0.0-2.0-0.42-0.380-3.380,1,1,0,,false,stim,false,1,,0,1,1,15121,WMM2,2125430,false,false,1493,image-keyboard-response,53
true,7,0,2,0,true,q,false,true,0.0-2.0-0.42-0.381-3.381,1,1,0,81,false,stim,false,0,1138.0,0,1,0,15121,WMM2,2128076,false,false,1496,image-keyboard-response,54
true,7,0,2,0,true,q,false,false,0.0-2.0-0.42-0.382-3.382,1,1,0,81,false,stim,false,2,693.0,0,0,2,15121,WMM2,2130276,false,true,1499,image-keyboard-response,55
true,7,0,2,0,true,q,false,true,0.0-2.0-0.42-0.383-3.383,1,1,0,81,false,stim,false,0,1089.0,0,1,0,15121,WMM2,2132876,false,false,1502,image-keyboard-response,56
true,7,2,2,0,false,q,false,false,0.0-2.0-0.42-0.384-3.384,1,1,0,68,false,stim,true,2,1622.0,0,0,2,15121,WMM2,2136004,false,false,1505,image-keyboard-response,57
true,7,1,2,1,true,z,false,true,0.0-2.0-0.42-0.385-3.385,1,1,0,90,false,stim,false,1,604.0,0,1,1,15121,WMM2,2138116,false,false,1508,image-keyboard-response,58
true,7,1,2,1,true,z,false,true,0.0-2.0-0.42-0.386-3.386,1,1,0,90,false,stim,false,1,782.0,0,1,1,15121,WMM2,2140404,false,false,1511,image-keyboard-response,59
true,7,0,2,0,true,q,false,true,0.0-2.0-0.43-0.387-3.387,1,1,0,81,false,stim,false,2,1873.0,0,0,2,15121,WMM2,2143785,false,false,1514,image-keyboard-response,60
true,8,1,3,1,true,z,false,true,0.0-2.0-0.43-0.388-3.388,1,1,0,90,true,stim,false,1,2468.0,0,1,1,15121,WMM2,2147761,false,false,1517,image-keyboard-response,1
true,8,0,3,0,true,q,false,true,0.0-2.0-0.43-0.389-3.389,1,1,0,81,false,stim,false,0,1165.0,0,1,0,15121,WMM2,2150433,false,false,1520,image-keyboard-response,2
true,8,1,3,1,true,z,false,true,0.0-2.0-0.43-0.390-3.390,1,1,0,90,false,stim,false,1,869.0,0,1,1,15121,WMM2,2152809,false,false,1523,image-keyboard-response,3
true,8,0,3,1,false,z,false,false,0.0-2.0-0.43-0.391-3.391,1,1,0,81,false,stim,true,0,2451.0,0,0,2,15121,WMM2,2156768,false,false,1526,image-keyboard-response,4
true,8,0,3,0,true,q,false,true,0.0-2.0-0.43-0.392-3.392,1,1,0,81,false,stim,false,0,1061.0000000004657,0,1,0,15121,WMM2,2159336,false,false,1529,image-keyboard-response,5
true,8,1,3,1,true,z,false,true,0.0-2.0-0.43-0.393-3.393,1,1,0,90,false,stim,false,1,573.0,0,1,1,15121,WMM2,2161416,false,false,1532,image-keyboard-response,6
true,8,0,3,1,false,z,false,false,0.0-2.0-0.43-0.394-3.394,1,1,0,81,false,stim,true,0,1236.9999999995343,0,0,2,15121,WMM2,2164160,false,false,1535,image-keyboard-response,7
true,8,0,3,0,true,q,false,true,0.0-2.0-0.43-0.395-3.395,1,1,0,81,false,stim,false,0,1533.0,0,1,0,15121,WMM2,2167201,false,false,1538,image-keyboard-response,8
true,8,1,3,1,true,z,false,true,0.0-2.0-0.44-0.396-3.396,1,1,0,90,false,stim,false,1,2129.0000000004657,0,1,1,15121,WMM2,2170837,false,false,1541,image-keyboard-response,9
true,8,1,3,1,true,z,false,true,0.0-2.0-0.44-0.397-3.397,1,1,0,90,false,stim,false,1,557.0,0,1,1,15121,WMM2,2172899,false,false,1544,image-keyboard-response,10
true,8,0,3,1,false,z,false,false,0.0-2.0-0.44-0.398-3.398,1,1,0,81,false,stim,true,0,2097.0,0,0,2,15121,WMM2,2176504,false,false,1547,image-keyboard-response,11
true,8,1,3,1,true,z,false,true,0.0-2.0-0.44-0.399-3.399,1,1,0,90,false,stim,false,0,1348.0,0,0,2,15121,WMM2,2179360,false,false,1550,image-keyboard-response,12
true,8,1,3,1,true,z,false,true,0.0-2.0-0.44-0.400-3.400,1,1,0,90,false,stim,false,0,909.9999999995343,0,0,2,15121,WMM2,2181776,false,false,1553,image-keyboard-response,13
true,8,0,3,0,true,q,false,true,0.0-2.0-0.44-0.401-3.401,1,1,0,81,false,stim,false,0,1254.0,0,1,0,15121,WMM2,2184537,false,false,1556,image-keyboard-response,14
true,8,0,3,0,true,q,false,false,0.0-2.0-0.44-0.402-3.402,1,1,0,81,false,stim,false,0,972.0,0,1,0,15121,WMM2,2187017,false,true,1559,image-keyboard-response,15
true,8,0,3,0,true,q,false,false,0.0-2.0-0.44-0.403-3.403,1,1,0,81,false,stim,false,0,1166.0,0,1,0,15121,WMM2,2189689,false,true,1562,image-keyboard-response,16
true,8,1,3,1,true,z,false,true,0.0-2.0-0.44-0.404-3.404,1,1,0,90,false,stim,false,1,1940.0,0,1,1,15121,WMM2,2193137,false,false,1565,image-keyboard-response,17
true,8,1,3,1,true,z,false,true,0.0-2.0-0.45-0.405-3.405,1,1,0,90,false,stim,false,1,621.0,0,1,1,15121,WMM2,2195265,false,false,1568,image-keyboard-response,18
true,8,1,3,1,true,z,false,true,0.0-2.0-0.45-0.406-3.406,1,1,0,90,false,stim,false,1,566.0000000004657,0,1,1,15121,WMM2,2197338,false,false,1571,image-keyboard-response,19
true,8,0,3,0,true,q,false,false,0.0-2.0-0.45-0.407-3.407,1,1,0,81,false,stim,false,0,1579.0000000004657,0,1,0,15121,WMM2,2200425,false,true,1574,image-keyboard-response,20
true,8,1,3,1,true,z,false,false,0.0-2.0-0.45-0.408-3.408,1,1,0,90,false,stim,false,0,2088.0000000004657,0,1,2,15121,WMM2,2204021,false,true,1577,image-keyboard-response,21
true,8,2,3,1,false,z,true,false,0.0-2.0-0.45-0.409-3.409,1,1,0,68,false,stim,false,1,1812.0,0,0,1,15121,WMM2,2207340,false,false,1580,image-keyboard-response,22
true,8,0,3,1,false,z,false,false,0.0-2.0-0.45-0.410-3.410,1,1,0,81,false,stim,true,0,1597.9999999995343,0,1,2,15121,WMM2,2210445,false,false,1583,image-keyboard-response,23
true,8,0,3,0,true,q,false,true,0.0-2.0-0.45-0.411-3.411,1,1,0,81,false,stim,false,0,2077.0,0,1,0,15121,WMM2,2214029,false,false,1586,image-keyboard-response,24
true,8,1,3,1,true,z,false,true,0.0-2.0-0.45-0.412-3.412,1,1,0,90,false,stim,false,0,1839.0,0,1,2,15121,WMM2,2217373,false,false,1589,image-keyboard-response,25
true,8,0,3,0,true,q,false,true,0.0-2.0-0.45-0.413-3.413,1,1,0,81,false,stim,false,0,1564.0,0,1,0,15121,WMM2,2220445,false,false,1592,image-keyboard-response,26
true,8,0,3,0,true,q,false,true,0.0-2.0-0.46-0.414-3.414,1,1,0,81,false,stim,false,0,1125.0,0,1,0,15121,WMM2,2223077,false,false,1595,image-keyboard-response,27
true,8,0,3,0,true,q,false,true,0.0-2.0-0.46-0.415-3.415,1,1,0,81,false,stim,false,0,1093.0,0,1,0,15121,WMM2,2225678,false,false,1598,image-keyboard-response,28
true,8,1,3,1,true,z,false,true,0.0-2.0-0.46-0.416-3.416,1,1,0,90,false,stim,false,0,1712.0,0,1,2,15121,WMM2,2228904,false,false,1601,image-keyboard-response,29
true,8,1,3,1,true,z,false,true,0.0-2.0-0.46-0.417-3.417,1,1,0,90,false,stim,false,0,1077.0,0,1,2,15121,WMM2,2231488,false,false,1604,image-keyboard-response,30
true,9,2,4,1,false,z,true,false,0.0-2.0-0.46-0.418-3.418,1,0,1,68,true,stim,false,1,1412.0,0,0,1,15121,WMM2,2234407,false,false,1607,image-keyboard-response,1
true,9,0,4,0,true,q,false,true,0.0-2.0-0.46-0.419-3.419,1,0,1,81,false,stim,false,0,1068.0,0,1,0,15121,WMM2,2236982,false,false,1610,image-keyboard-response,2
true,9,1,4,1,true,z,false,false,0.0-2.0-0.46-0.420-3.420,1,0,1,90,false,stim,false,1,1429.0,0,1,2,15121,WMM2,2239918,false,true,1613,image-keyboard-response,3
true,9,1,4,1,true,z,false,true,0.0-2.0-0.46-0.421-3.421,1,0,1,90,false,stim,false,1,1933.0,0,0,1,15121,WMM2,2243358,false,false,1616,image-keyboard-response,4
true,9,1,4,1,true,z,false,true,0.0-2.0-0.46-0.422-3.422,1,0,1,90,false,stim,false,1,860.0,0,0,1,15121,WMM2,2245726,false,false,1619,image-keyboard-response,5
true,9,2,4,1,false,z,true,true,0.0-2.0-0.47-0.423-3.423,1,0,1,68,false,stim,false,1,1948.0,0,1,2,15121,WMM2,2249182,false,true,1622,image-keyboard-response,6
true,9,1,4,1,true,z,false,true,0.0-2.0-0.47-0.424-3.424,1,0,1,90,false,stim,false,1,2422.0,0,0,1,15121,WMM2,2253111,false,false,1625,image-keyboard-response,7
true,9,0,4,0,true,q,false,true,0.0-2.0-0.47-0.425-3.425,1,0,1,81,false,stim,false,0,1500.9999999995343,0,1,0,15121,WMM2,2256119,false,false,1628,image-keyboard-response,8
true,9,0,4,0,true,q,false,false,0.0-2.0-0.47-0.426-3.426,1,0,1,81,false,stim,false,0,1054.0,0,1,0,15121,WMM2,2258680,false,true,1631,image-keyboard-response,9
true,9,2,4,1,false,z,true,false,0.0-2.0-0.47-0.427-3.427,1,0,1,68,false,stim,false,1,1676.0,0,0,1,15121,WMM2,2261863,false,false,1634,image-keyboard-response,10
true,9,2,4,1,false,z,true,false,0.0-2.0-0.47-0.428-3.428,1,0,1,68,false,stim,false,1,1958.0,0,1,2,15121,WMM2,2265328,false,false,1637,image-keyboard-response,11
true,9,1,4,1,true,z,false,true,0.0-2.0-0.47-0.429-3.429,1,0,1,90,false,stim,false,1,1143.0,0,1,2,15121,WMM2,2267978,false,false,1640,image-keyboard-response,12
true,9,2,4,1,false,z,true,false,0.0-2.0-0.47-0.430-3.430,1,0,1,68,false,stim,false,1,2931.0000000004657,0,0,1,15121,WMM2,2272417,false,false,1643,image-keyboard-response,13
true,9,0,4,0,true,q,false,true,0.0-2.0-0.47-0.431-3.431,1,0,1,81,false,stim,false,0,993.0,0,1,0,15121,WMM2,2274918,false,false,1646,image-keyboard-response,14
true,9,1,4,1,true,z,false,true,0.0-2.0-0.48-0.432-3.432,1,0,1,90,false,stim,false,1,2060.0,0,0,1,15121,WMM2,2278486,false,false,1649,image-keyboard-response,15
true,9,0,4,0,true,q,false,true,0.0-2.0-0.48-0.433-3.433,1,0,1,81,false,stim,false,0,1150.0,0,1,0,15121,WMM2,2281142,false,false,1652,image-keyboard-response,16
true,9,1,4,1,true,z,false,true,0.0-2.0-0.48-0.434-3.434,1,0,1,90,false,stim,false,1,1293.0,0,0,1,15121,WMM2,2283942,false,false,1655,image-keyboard-response,17
true,9,1,4,1,true,z,false,true,0.0-2.0-0.48-0.435-3.435,1,0,1,90,false,stim,false,1,1596.0,0,1,2,15121,WMM2,2287046,false,false,1658,image-keyboard-response,18
true,9,0,4,0,true,q,false,true,0.0-2.0-0.48-0.436-3.436,1,0,1,81,false,stim,false,0,1180.0,0,1,0,15121,WMM2,2289734,false,false,1661,image-keyboard-response,19
true,9,1,4,1,true,z,false,true,0.0-2.0-0.48-0.437-3.437,1,0,1,90,false,stim,false,1,974.0,0,1,2,15121,WMM2,2292214,false,false,1664,image-keyboard-response,20
true,9,0,4,0,true,q,false,true,0.0-2.0-0.48-0.438-3.438,1,0,1,81,false,stim,false,0,955.0,0,1,0,15121,WMM2,2294678,false,false,1667,image-keyboard-response,21
true,9,1,4,1,true,z,false,true,0.0-2.0-0.48-0.439-3.439,1,0,1,90,false,stim,false,1,870.0,0,0,2,15121,WMM2,2297054,false,false,1670,image-keyboard-response,22
true,9,0,4,1,false,z,true,false,0.0-2.0-0.48-0.440-3.440,1,0,1,81,false,stim,false,1,1581.9999999995343,0,0,1,15121,WMM2,2300143,false,false,1673,image-keyboard-response,23
true,9,0,4,0,true,q,false,true,0.0-2.0-0.49-0.441-3.441,1,0,1,81,false,stim,false,0,996.0,0,1,0,15121,WMM2,2302646,false,false,1676,image-keyboard-response,24
true,9,1,4,1,true,z,false,true,0.0-2.0-0.49-0.442-3.442,1,0,1,90,false,stim,false,1,502.0,0,0,1,15121,WMM2,2304655,false,false,1679,image-keyboard-response,25
true,9,1,4,1,true,z,false,true,0.0-2.0-0.49-0.443-3.443,1,0,1,90,false,stim,false,1,1579.0,0,0,2,15121,WMM2,2307742,false,false,1682,image-keyboard-response,26
true,9,1,4,1,true,z,false,false,0.0-2.0-0.49-0.444-3.444,1,0,1,90,false,stim,false,1,861.0,0,0,1,15121,WMM2,2310111,false,true,1685,image-keyboard-response,27
true,9,2,4,0,false,q,true,false,0.0-2.0-0.49-0.445-3.445,1,0,1,68,false,stim,false,0,1814.0,0,1,0,15121,WMM2,2313432,false,false,1688,image-keyboard-response,28
true,9,0,4,0,true,q,false,true,0.0-2.0-0.49-0.446-3.446,1,0,1,81,false,stim,false,0,884.0,0,1,0,15121,WMM2,2315823,false,false,1691,image-keyboard-response,29
true,9,1,4,1,true,z,false,true,0.0-2.0-0.49-0.447-3.447,1,0,1,90,false,stim,false,1,1061.0,0,0,2,15121,WMM2,2318391,false,false,1694,image-keyboard-response,30
true,10,1,1,0,false,q,false,false,0.0-2.0-0.49-0.448-3.448,1,0,0,90,true,stim,true,1,581.0,0,0,2,15121,WMM2,2320480,false,false,1697,image-keyboard-response,1
true,10,2,1,2,true,d,false,true,0.0-2.0-0.49-0.449-3.449,1,0,0,68,false,stim,false,1,1936.0,0,0,1,15121,WMM2,2323923,false,false,1700,image-keyboard-response,2
true,10,2,1,0,false,q,true,false,0.0-2.0-0.50-0.450-3.450,1,0,0,68,false,stim,false,1,2484.9999999995343,0,0,2,15121,WMM2,2327922,false,false,1703,image-keyboard-response,3
true,10,1,1,2,false,d,false,false,0.0-2.0-0.50-0.451-3.451,1,0,0,90,false,stim,true,1,2025.0,0,0,1,15121,WMM2,2331455,false,false,1706,image-keyboard-response,4
true,10,2,1,0,false,q,true,false,0.0-2.0-0.50-0.452-3.452,1,0,0,68,false,stim,false,1,525.0,0,0,2,15121,WMM2,2333487,false,false,1709,image-keyboard-response,5
true,10,1,1,2,false,d,false,false,0.0-2.0-0.50-0.453-3.453,1,0,0,90,false,stim,true,1,1742.0,0,0,1,15121,WMM2,2336736,false,false,1712,image-keyboard-response,6
true,10,0,1,0,true,q,false,false,0.0-2.0-0.50-0.454-3.454,1,0,0,81,false,stim,false,0,981.0,0,1,0,15121,WMM2,2339223,false,true,1715,image-keyboard-response,7
true,10,0,1,0,true,q,false,true,0.0-2.0-0.50-0.455-3.455,1,0,0,81,false,stim,false,1,2146.0,0,0,2,15121,WMM2,2342876,false,false,1718,image-keyboard-response,8
true,10,2,1,2,true,d,false,true,0.0-2.0-0.50-0.456-3.456,1,0,0,68,false,stim,false,1,1661.0,0,0,1,15121,WMM2,2346044,false,false,1721,image-keyboard-response,9
true,10,0,1,0,true,q,false,true,0.0-2.0-0.50-0.457-3.457,1,0,0,81,false,stim,false,0,1421.0,0,1,0,15121,WMM2,2348972,false,false,1724,image-keyboard-response,10
true,10,0,1,0,true,q,false,false,0.0-2.0-0.50-0.458-3.458,1,0,0,81,false,stim,false,0,911.0,0,1,0,15121,WMM2,2351389,false,true,1727,image-keyboard-response,11
true,10,0,1,0,true,q,false,true,0.0-2.0-0.51-0.459-3.459,1,0,0,81,false,stim,false,0,932.0,0,1,0,15121,WMM2,2353828,false,false,1730,image-keyboard-response,12
true,10,2,1,0,false,q,true,true,0.0-2.0-0.51-0.460-3.460,1,0,0,68,false,stim,false,1,1437.0,0,0,2,15121,WMM2,2356772,false,true,1733,image-keyboard-response,13
true,10,0,1,0,true,q,false,true,0.0-2.0-0.51-0.461-3.461,1,0,0,81,false,stim,false,0,1686.0,0,1,0,15121,WMM2,2359964,false,false,1736,image-keyboard-response,14
true,10,1,1,2,false,d,false,false,0.0-2.0-0.51-0.462-3.462,1,0,0,90,false,stim,true,1,1149.0,0,0,1,15121,WMM2,2362620,false,false,1739,image-keyboard-response,15
true,10,1,1,2,false,d,false,false,0.0-2.0-0.51-0.463-3.463,1,0,0,90,false,stim,true,1,965.0000000004657,0,0,1,15121,WMM2,2365093,false,false,1742,image-keyboard-response,16
true,10,2,1,2,true,d,false,true,0.0-2.0-0.51-0.464-3.464,1,0,0,68,false,stim,false,1,829.0,0,0,1,15121,WMM2,2367428,false,false,1745,image-keyboard-response,17
true,10,0,1,0,true,q,false,true,0.0-2.0-0.51-0.465-3.465,1,0,0,81,false,stim,false,0,1212.0,0,1,0,15121,WMM2,2370148,false,false,1748,image-keyboard-response,18
true,10,2,1,0,false,q,true,false,0.0-2.0-0.51-0.466-3.466,1,0,0,68,false,stim,false,1,1125.0,0,0,2,15121,WMM2,2372782,false,false,1751,image-keyboard-response,19
true,10,1,1,0,false,q,false,false,0.0-2.0-0.51-0.467-3.467,1,0,0,90,false,stim,true,1,1316.0,0,0,2,15121,WMM2,2375604,false,false,1754,image-keyboard-response,20
true,10,1,1,2,false,d,false,false,0.0-2.0-0.52-0.468-3.468,1,0,0,90,false,stim,true,1,2469.0,0,0,1,15121,WMM2,2379582,false,false,1757,image-keyboard-response,21
true,10,0,1,0,true,q,false,true,0.0-2.0-0.52-0.469-3.469,1,0,0,81,false,stim,false,0,1122.0,0,1,0,15121,WMM2,2382213,false,false,1760,image-keyboard-response,22
true,10,0,1,0,true,q,false,true,0.0-2.0-0.52-0.470-3.470,1,0,0,81,false,stim,false,0,1243.0,0,1,0,15121,WMM2,2384966,false,false,1763,image-keyboard-response,23
true,10,2,1,2,true,d,false,true,0.0-2.0-0.52-0.471-3.471,1,0,0,68,false,stim,false,1,1444.0,0,0,1,15121,WMM2,2387917,false,false,1766,image-keyboard-response,24
true,10,0,1,0,true,q,false,false,0.0-2.0-0.52-0.472-3.472,1,0,0,81,false,stim,false,0,1221.0,0,1,0,15121,WMM2,2390646,false,true,1769,image-keyboard-response,25
true,10,2,1,0,false,q,true,false,0.0-2.0-0.52-0.473-3.473,1,0,0,68,false,stim,false,1,987.0,0,0,2,15121,WMM2,2393141,false,false,1772,image-keyboard-response,26
true,10,1,1,0,false,q,false,false,0.0-2.0-0.52-0.474-3.474,1,0,0,90,false,stim,true,1,806.0,0,0,2,15121,WMM2,2395455,false,false,1775,image-keyboard-response,27
true,10,2,1,2,true,d,false,true,0.0-2.0-0.52-0.475-3.475,1,0,0,68,false,stim,false,1,1955.0,0,0,1,15121,WMM2,2398917,false,false,1778,image-keyboard-response,28
true,10,2,1,0,false,q,true,false,0.0-2.0-0.52-0.476-3.476,1,0,0,68,false,stim,false,1,1140.0,0,0,2,15121,WMM2,2401565,false,false,1781,image-keyboard-response,29
true,10,0,1,0,true,q,false,true,0.0-2.0-0.53-0.477-3.477,1,0,0,81,false,stim,false,1,1413.0,0,0,2,15121,WMM2,2404485,false,false,1784,image-keyboard-response,30
true,10,2,1,2,true,d,false,true,0.0-2.0-0.53-0.478-3.478,1,0,0,68,false,stim,false,1,1260.0,0,0,1,15121,WMM2,2407254,false,false,1787,image-keyboard-response,31
true,10,0,1,0,true,q,false,true,0.0-2.0-0.53-0.479-3.479,1,0,0,81,false,stim,false,1,1918.0,0,0,2,15121,WMM2,2410680,false,false,1790,image-keyboard-response,32
true,10,1,1,2,false,d,false,false,0.0-2.0-0.53-0.480-3.480,1,0,0,90,false,stim,true,1,1922.0,0,0,1,15121,WMM2,2414110,false,false,1793,image-keyboard-response,33
true,10,0,1,0,true,q,false,true,0.0-2.0-0.53-0.481-3.481,1,0,0,81,false,stim,false,0,1277.0,0,1,0,15121,WMM2,2416895,false,false,1796,image-keyboard-response,34
true,10,1,1,0,false,q,false,false,0.0-2.0-0.53-0.482-3.482,1,0,0,90,false,stim,true,1,1339.9999999995343,0,0,2,15121,WMM2,2419742,false,false,1799,image-keyboard-response,35
true,10,0,1,0,true,q,false,true,0.0-2.0-0.53-0.483-3.483,1,0,0,81,false,stim,false,0,1092.9999999995343,0,1,0,15121,WMM2,2422350,false,false,1802,image-keyboard-response,36
true,10,0,1,0,true,q,false,true,0.0-2.0-0.53-0.484-3.484,1,0,0,81,false,stim,false,0,1029.0,0,1,0,15121,WMM2,2424886,false,false,1805,image-keyboard-response,37
true,10,0,1,2,false,d,true,false,0.0-2.0-0.53-0.485-3.485,1,0,0,81,false,stim,false,1,1420.0,0,0,1,15121,WMM2,2427814,false,false,1808,image-keyboard-response,38
true,10,0,1,0,true,q,false,true,0.0-2.0-0.54-0.486-3.486,1,0,0,81,false,stim,false,1,1325.0,0,0,2,15121,WMM2,2430646,false,false,1811,image-keyboard-response,39
true,10,1,1,0,false,q,true,false,0.0-2.0-0.54-0.487-3.487,1,0,0,90,false,stim,false,0,2771.0,0,1,0,15121,WMM2,2434925,false,false,1814,image-keyboard-response,40
true,10,0,1,2,false,d,true,false,0.0-2.0-0.54-0.488-3.488,1,0,0,81,false,stim,false,1,1894.9999999995343,0,0,1,15121,WMM2,2438327,false,false,1817,image-keyboard-response,41
true,10,1,1,0,false,q,true,false,0.0-2.0-0.54-0.489-3.489,1,0,0,90,false,stim,false,0,1612.0,0,1,0,15121,WMM2,2441446,false,false,1820,image-keyboard-response,42
true,11,1,1,0,false,q,true,false,0.0-2.0-0.54-0.490-3.490,1,0,0,90,true,stim,false,2,2054.0,0,0,1,15121,WMM2,2445006,false,false,1823,image-keyboard-response,1
true,11,0,1,0,true,q,false,true,0.0-2.0-0.54-0.491-3.491,1,0,0,81,false,stim,false,0,492.0,0,1,0,15121,WMM2,2447006,false,false,1826,image-keyboard-response,2
true,11,2,1,2,true,d,false,false,0.0-2.0-0.54-0.492-3.492,1,0,0,68,false,stim,false,0,2518.0,0,0,2,15121,WMM2,2451030,false,true,1829,image-keyboard-response,3
true,11,2,1,0,false,q,false,false,0.0-2.0-0.54-0.493-3.493,1,0,0,68,false,stim,true,2,1396.9999999995343,0,0,1,15121,WMM2,2453934,false,false,1832,image-keyboard-response,4
true,11,0,1,2,false,d,false,false,0.0-2.0-0.54-0.494-3.494,1,0,0,81,false,stim,true,0,1284.9999999995343,0,0,2,15121,WMM2,2456726,false,false,1835,image-keyboard-response,5
true,11,1,1,2,false,d,true,false,0.0-2.0-0.55-0.495-3.495,1,0,0,90,false,stim,false,0,980.0,0,0,2,15121,WMM2,2459213,false,false,1838,image-keyboard-response,6
true,11,0,1,0,true,q,false,true,0.0-2.0-0.55-0.496-3.496,1,0,0,81,false,stim,false,0,1272.0,0,1,0,15121,WMM2,2461992,false,false,1841,image-keyboard-response,7
true,11,2,1,0,false,q,false,false,0.0-2.0-0.55-0.497-3.497,1,0,0,68,false,stim,true,2,948.0,0,0,1,15121,WMM2,2464446,false,false,1844,image-keyboard-response,8
true,11,1,1,2,false,d,true,true,0.0-2.0-0.55-0.498-3.498,1,0,0,90,false,stim,false,0,1509.0,0,0,2,15121,WMM2,2467462,false,true,1847,image-keyboard-response,9
false,11,-1,1,0,false,q,true,false,0.0-2.0-0.55-0.499-3.499,1,0,0,,false,stim,false,2,,0,0,1,15121,WMM2,2471971,false,false,1850,image-keyboard-response,10
true,11,0,1,0,true,q,false,true,0.0-2.0-0.55-0.500-3.500,1,0,0,81,false,stim,false,0,1438.0,0,1,0,15121,WMM2,2474917,false,false,1853,image-keyboard-response,11
true,11,0,1,0,true,q,false,true,0.0-2.0-0.55-0.501-3.501,1,0,0,81,false,stim,false,0,1243.0,0,1,0,15121,WMM2,2477669,false,false,1856,image-keyboard-response,12
true,11,1,1,2,false,d,true,false,0.0-2.0-0.55-0.502-3.502,1,0,0,90,false,stim,false,0,2381.0,0,0,2,15121,WMM2,2481557,false,false,1859,image-keyboard-response,13
true,11,0,1,0,true,q,false,true,0.0-2.0-0.55-0.503-3.503,1,0,0,81,false,stim,false,2,2831.0,0,0,1,15121,WMM2,2485895,false,false,1862,image-keyboard-response,14
true,11,0,1,0,true,q,false,true,0.0-2.0-0.56-0.504-3.504,1,0,0,81,false,stim,false,0,1052.0,0,1,0,15121,WMM2,2488454,false,false,1865,image-keyboard-response,15
true,11,1,1,0,false,q,true,false,0.0-2.0-0.56-0.505-3.505,1,0,0,90,false,stim,false,2,2461.0000000004657,0,0,1,15121,WMM2,2492422,false,false,1868,image-keyboard-response,16
true,11,2,1,2,true,d,false,true,0.0-2.0-0.56-0.506-3.506,1,0,0,68,false,stim,false,0,1068.0,0,0,2,15121,WMM2,2494999,false,false,1871,image-keyboard-response,17
true,11,2,1,2,true,d,false,true,0.0-2.0-0.56-0.507-3.507,1,0,0,68,false,stim,false,0,2101.0,0,0,2,15121,WMM2,2498607,false,false,1874,image-keyboard-response,18
true,11,0,1,0,true,q,false,false,0.0-2.0-0.56-0.508-3.508,1,0,0,81,false,stim,false,2,1327.0,0,0,1,15121,WMM2,2501440,false,true,1877,image-keyboard-response,19
true,11,2,1,2,true,d,false,false,0.0-2.0-0.56-0.509-3.509,1,0,0,68,false,stim,false,0,1476.0000000004657,0,0,2,15121,WMM2,2504423,false,true,1880,image-keyboard-response,20
true,11,1,1,0,false,q,true,false,0.0-2.0-0.56-0.510-3.510,1,0,0,90,false,stim,false,0,1659.0,0,1,0,15121,WMM2,2507591,false,false,1883,image-keyboard-response,21
true,11,2,1,0,false,q,true,false,0.0-2.0-0.56-0.511-3.511,1,0,0,68,false,stim,false,0,2294.0000000004657,0,1,0,15121,WMM2,2511394,false,false,1886,image-keyboard-response,22
true,11,1,1,0,false,q,true,false,0.0-2.0-0.56-0.512-3.512,1,0,0,90,false,stim,false,2,2993.0,0,0,1,15121,WMM2,2515897,false,false,1889,image-keyboard-response,23
true,11,2,1,0,false,q,true,false,0.0-2.0-0.57-0.513-3.513,1,0,0,68,false,stim,false,0,1026.0,0,1,0,15121,WMM2,2518433,false,false,1892,image-keyboard-response,24
true,11,0,1,0,true,q,false,true,0.0-2.0-0.57-0.514-3.514,1,0,0,81,false,stim,false,0,1222.0000000004657,0,1,0,15121,WMM2,2521164,false,false,1895,image-keyboard-response,25
true,11,2,1,0,false,q,false,false,0.0-2.0-0.57-0.515-3.515,1,0,0,68,false,stim,true,2,2423.0,0,0,1,15121,WMM2,2525095,false,false,1898,image-keyboard-response,26
true,11,0,1,0,true,q,false,true,0.0-2.0-0.57-0.516-3.516,1,0,0,81,false,stim,false,0,1157.0,0,1,0,15121,WMM2,2527767,false,false,1901,image-keyboard-response,27
true,11,2,1,2,true,d,false,true,0.0-2.0-0.57-0.517-3.517,1,0,0,68,false,stim,false,0,2059.0,0,0,2,15121,WMM2,2531333,false,false,1904,image-keyboard-response,28
true,11,1,1,0,false,q,true,false,0.0-2.0-0.57-0.518-3.518,1,0,0,90,false,stim,false,2,1833.0000000004657,0,0,1,15121,WMM2,2534674,false,false,1907,image-keyboard-response,29
true,11,0,1,0,true,q,false,true,0.0-2.0-0.57-0.519-3.519,1,0,0,81,false,stim,false,2,917.0,0,0,1,15121,WMM2,2537099,false,false,1910,image-keyboard-response,30
true,11,2,1,2,true,d,false,true,0.0-2.0-0.57-0.520-3.520,1,0,0,68,false,stim,false,0,2986.9999999995343,0,0,2,15121,WMM2,2541594,false,false,1913,image-keyboard-response,31
true,11,2,1,2,true,d,false,true,0.0-2.0-0.57-0.521-3.521,1,0,0,68,false,stim,false,0,1283.0000000004657,0,0,2,15121,WMM2,2544386,false,false,1916,image-keyboard-response,32
true,11,0,1,0,true,q,false,false,0.0-2.0-0.58-0.522-3.522,1,0,0,81,false,stim,false,2,1146.0,0,0,1,15121,WMM2,2547042,false,true,1919,image-keyboard-response,33
true,11,0,1,0,true,q,false,true,0.0-2.0-0.58-0.523-3.523,1,0,0,81,false,stim,false,0,1076.0,0,1,0,15121,WMM2,2549626,false,false,1922,image-keyboard-response,34
true,11,2,1,0,false,q,false,true,0.0-2.0-0.58-0.524-3.524,1,0,0,68,false,stim,true,2,2147.0,0,0,1,15121,WMM2,2553281,false,true,1925,image-keyboard-response,35
true,11,2,1,0,false,q,false,false,0.0-2.0-0.58-0.525-3.525,1,0,0,68,false,stim,true,2,860.0,0,0,1,15121,WMM2,2555648,false,false,1928,image-keyboard-response,36
false,11,-1,1,2,false,d,true,false,0.0-2.0-0.58-0.526-3.526,1,0,0,,false,stim,false,0,,0,1,2,15121,WMM2,2560156,false,false,1931,image-keyboard-response,37
true,11,0,1,0,true,q,false,false,0.0-2.0-0.58-0.527-3.527,1,0,0,81,false,stim,false,0,1421.0,0,1,0,15121,WMM2,2563085,false,true,1934,image-keyboard-response,38
true,11,0,1,0,true,q,false,true,0.0-2.0-0.58-0.528-3.528,1,0,0,81,false,stim,false,0,1278.0,0,1,0,15121,WMM2,2565870,false,false,1937,image-keyboard-response,39
true,11,2,1,2,true,d,false,true,0.0-2.0-0.58-0.529-3.529,1,0,0,68,false,stim,false,0,1475.9999999995343,0,1,2,15121,WMM2,2568853,false,false,1940,image-keyboard-response,40
true,11,2,1,2,true,d,false,false,0.0-2.0-0.58-0.530-3.530,1,0,0,68,false,stim,false,0,1136.0,0,1,2,15121,WMM2,2571496,false,true,1943,image-keyboard-response,41
true,11,0,1,2,false,d,false,false,0.0-2.0-0.59-0.531-3.531,1,0,0,81,false,stim,true,0,1721.0,0,1,2,15121,WMM2,2574726,false,false,1946,image-keyboard-response,42
true,11,1,1,2,false,d,true,false,0.0-2.0-0.59-0.532-3.532,1,0,0,90,false,stim,false,0,1134.0,0,1,2,15121,WMM2,2577366,false,false,1949,image-keyboard-response,43
true,12,2,4,2,true,d,false,true,0.0-2.0-0.59-0.533-3.533,1,0,1,68,true,stim,false,2,670.0,0,1,2,15121,WMM2,2579543,false,false,1952,image-keyboard-response,1
true,12,0,4,0,true,q,false,true,0.0-2.0-0.59-0.534-3.534,1,0,1,81,false,stim,false,0,1563.9999999995343,0,1,0,15121,WMM2,2582614,false,false,1955,image-keyboard-response,2
true,12,2,4,0,false,q,true,true,0.0-2.0-0.59-0.535-3.535,1,0,1,68,false,stim,false,0,2385.0,0,0,1,15121,WMM2,2586507,false,true,1958,image-keyboard-response,3
true,12,2,4,0,false,q,true,false,0.0-2.0-0.59-0.536-3.536,1,0,1,68,false,stim,false,0,1071.0,0,0,1,15121,WMM2,2589084,false,false,1961,image-keyboard-response,4
true,12,1,4,0,false,q,true,false,0.0-2.0-0.59-0.537-3.537,1,0,1,90,false,stim,false,0,2117.0,0,1,0,15121,WMM2,2592709,false,false,1964,image-keyboard-response,5
true,12,0,4,0,true,q,false,true,0.0-2.0-0.59-0.538-3.538,1,0,1,81,false,stim,false,0,1053.9999999995343,0,0,1,15121,WMM2,2595270,false,false,1967,image-keyboard-response,6
true,12,0,4,0,true,q,false,false,0.0-2.0-0.59-0.539-3.539,1,0,1,81,false,stim,false,0,836.0,0,1,0,15121,WMM2,2597613,false,true,1970,image-keyboard-response,7
true,12,1,4,2,false,d,true,false,0.0-2.0-0.60-0.540-3.540,1,0,1,90,false,stim,false,2,2994.0,0,1,2,15121,WMM2,2602115,false,false,1973,image-keyboard-response,8
true,12,2,4,0,false,q,true,false,0.0-2.0-0.60-0.541-3.541,1,0,1,68,false,stim,false,0,1381.0,0,1,0,15121,WMM2,2605003,false,false,1976,image-keyboard-response,9
true,12,0,4,2,false,d,true,false,0.0-2.0-0.60-0.542-3.542,1,0,1,81,false,stim,false,2,1102.0,0,1,2,15121,WMM2,2607612,false,false,1979,image-keyboard-response,10
false,12,-1,4,0,false,q,true,false,0.0-2.0-0.60-0.543-3.543,1,0,1,,false,stim,false,0,,0,1,0,15121,WMM2,2612119,false,false,1982,image-keyboard-response,11
true,12,1,4,0,false,q,true,false,0.0-2.0-0.60-0.544-3.544,1,0,1,90,false,stim,false,0,1462.0,0,1,0,15121,WMM2,2615089,false,false,1985,image-keyboard-response,12
true,12,2,4,0,false,q,true,false,0.0-2.0-0.60-0.545-3.545,1,0,1,68,false,stim,false,0,1500.0,0,0,1,15121,WMM2,2618097,false,false,1988,image-keyboard-response,13
false,12,-1,4,0,false,q,true,false,0.0-2.0-0.60-0.546-3.546,1,0,1,,false,stim,false,0,,0,0,1,15121,WMM2,2622606,false,false,1991,image-keyboard-response,14
true,12,0,4,2,false,d,true,false,0.0-2.0-0.60-0.547-3.547,1,0,1,81,false,stim,false,2,475.0,0,1,2,15121,WMM2,2624588,false,false,1994,image-keyboard-response,15
true,12,2,4,0,false,q,true,false,0.0-2.0-0.60-0.548-3.548,1,0,1,68,false,stim,false,0,1229.0,0,0,1,15121,WMM2,2627324,false,false,1997,image-keyboard-response,16
true,12,0,4,0,true,q,false,true,0.0-2.0-0.61-0.549-3.549,1,0,1,81,false,stim,false,0,1740.0,0,1,0,15121,WMM2,2630573,false,false,2000,image-keyboard-response,17
true,12,2,4,2,true,d,false,false,0.0-2.0-0.61-0.550-3.550,1,0,1,68,false,stim,false,2,1535.0,0,1,2,15121,WMM2,2633620,false,true,2003,image-keyboard-response,18
true,12,2,4,0,false,q,true,false,0.0-2.0-0.61-0.551-3.551,1,0,1,68,false,stim,false,0,1574.0,0,0,1,15121,WMM2,2636700,false,false,2006,image-keyboard-response,19
true,12,1,4,2,false,d,true,false,0.0-2.0-0.61-0.552-3.552,1,0,1,90,false,stim,false,2,1829.0,0,1,2,15121,WMM2,2640037,false,false,2009,image-keyboard-response,20
true,12,0,4,0,true,q,false,true,0.0-2.0-0.61-0.553-3.553,1,0,1,81,false,stim,false,0,1612.0,0,1,0,15121,WMM2,2643157,false,false,2012,image-keyboard-response,21
true,12,0,4,0,true,q,false,true,0.0-2.0-0.61-0.554-3.554,1,0,1,81,false,stim,false,0,852.0,0,0,1,15121,WMM2,2645517,false,false,2015,image-keyboard-response,22
true,12,0,4,0,true,q,false,true,0.0-2.0-0.61-0.555-3.555,1,0,1,81,false,stim,false,0,1029.0,0,1,0,15121,WMM2,2648054,false,false,2018,image-keyboard-response,23
true,12,0,4,0,true,q,false,true,0.0-2.0-0.61-0.556-3.556,1,0,1,81,false,stim,false,0,1579.0,0,0,1,15121,WMM2,2651141,false,false,2021,image-keyboard-response,24
true,12,2,4,2,true,d,false,true,0.0-2.0-0.61-0.557-3.557,1,0,1,68,false,stim,false,2,2778.0,0,1,2,15121,WMM2,2655428,false,false,2024,image-keyboard-response,25
true,12,0,4,0,true,q,false,true,0.0-2.0-0.62-0.558-3.558,1,0,1,81,false,stim,false,0,1292.0,0,1,0,15121,WMM2,2658229,false,false,2027,image-keyboard-response,26
true,12,0,4,0,true,q,false,true,0.0-2.0-0.62-0.559-3.559,1,0,1,81,false,stim,false,0,547.0000000004657,0,0,1,15121,WMM2,2660284,false,false,2030,image-keyboard-response,27
true,12,0,4,0,true,q,false,true,0.0-2.0-0.62-0.560-3.560,1,0,1,81,false,stim,false,0,1462.0,0,0,1,15121,WMM2,2663254,false,false,2033,image-keyboard-response,28
true,12,0,4,0,true,q,false,false,0.0-2.0-0.62-0.561-3.561,1,0,1,81,false,stim,false,0,1251.0,0,1,0,15121,WMM2,2666013,false,true,2036,image-keyboard-response,29
true,12,2,4,2,true,d,false,true,0.0-2.0-0.62-0.562-3.562,1,0,1,68,false,stim,false,2,1579.0,0,1,2,15121,WMM2,2669101,false,false,2039,image-keyboard-response,30
true,12,2,4,2,true,d,false,false,0.0-2.0-0.62-0.563-3.563,1,0,1,68,false,stim,false,2,861.0,0,1,2,15121,WMM2,2671470,false,true,2042,image-keyboard-response,31
true,12,2,4,0,false,q,true,false,0.0-2.0-0.62-0.564-3.564,1,0,1,68,false,stim,false,0,1261.0,0,1,1,15121,WMM2,2674237,false,false,2045,image-keyboard-response,32
true,12,2,4,2,true,d,false,true,0.0-2.0-0.62-0.565-3.565,1,0,1,68,false,stim,false,2,1311.0000000004657,0,1,2,15121,WMM2,2677053,false,false,2048,image-keyboard-response,33
true,12,0,4,0,true,q,false,false,0.0-2.0-0.62-0.566-3.566,1,0,1,81,false,stim,false,0,1644.0,0,0,0,15121,WMM2,2680205,false,true,2051,image-keyboard-response,34
true,12,2,4,0,false,q,true,false,0.0-2.0-0.63-0.567-3.567,1,0,1,68,false,stim,false,0,2052.0000000004657,0,0,0,15121,WMM2,2683765,false,false,2054,image-keyboard-response,35
true,12,2,4,2,true,d,false,true,0.0-2.0-0.63-0.568-3.568,1,0,1,68,false,stim,false,2,1653.0,0,1,2,15121,WMM2,2686927,false,false,2057,image-keyboard-response,36
true,12,1,4,0,false,q,true,true,0.0-2.0-0.63-0.569-3.569,1,0,1,90,false,stim,false,0,2948.0,0,1,1,15121,WMM2,2691383,false,true,2060,image-keyboard-response,37
true,12,2,4,2,true,d,false,true,0.0-2.0-0.63-0.570-3.570,1,0,1,68,false,stim,false,2,2158.0,0,1,2,15121,WMM2,2695048,false,false,2063,image-keyboard-response,38
true,12,2,4,2,true,d,false,true,0.0-2.0-0.63-0.571-3.571,1,0,1,68,false,stim,false,2,1128.0,0,1,2,15121,WMM2,2697682,false,false,2066,image-keyboard-response,39
true,12,1,4,0,false,q,true,false,0.0-2.0-0.63-0.572-3.572,1,0,1,90,false,stim,false,0,2240.9999999995343,0,1,1,15121,WMM2,2701431,false,false,2069,image-keyboard-response,40
true,13,0,3,2,false,d,false,false,0.0-2.0-0.63-0.573-3.573,0,1,1,81,true,stim,true,0,1429.0,0,0,0,15121,WMM2,2704367,false,false,2072,image-keyboard-response,1
false,13,-1,3,0,false,q,true,false,0.0-2.0-0.63-0.574-3.574,0,1,1,,false,stim,false,0,,0,1,1,15121,WMM2,2708876,false,false,2075,image-keyboard-response,2
true,13,0,3,2,false,d,false,false,0.0-2.0-0.63-0.575-3.575,0,1,1,81,false,stim,true,0,2318.9999999995343,0,0,0,15121,WMM2,2712701,false,false,2078,image-keyboard-response,3
false,13,-1,3,2,false,d,true,false,0.0-2.0-0.64-0.576-3.576,0,1,1,,false,stim,false,2,,0,1,2,15121,WMM2,2717212,false,false,2081,image-keyboard-response,4
true,13,1,3,2,false,d,true,true,0.0-2.0-0.64-0.577-3.577,0,1,1,90,false,stim,false,2,600.0,0,1,2,15121,WMM2,2719319,false,true,2084,image-keyboard-response,5
true,13,2,3,0,false,q,true,false,0.0-2.0-0.64-0.578-3.578,0,1,1,68,false,stim,false,0,2627.0,0,1,1,15121,WMM2,2723452,false,false,2087,image-keyboard-response,6
true,13,1,3,2,false,d,true,false,0.0-2.0-0.64-0.579-3.579,0,1,1,90,false,stim,false,0,1884.0,0,0,0,15121,WMM2,2726844,false,false,2090,image-keyboard-response,7
true,13,2,3,2,true,d,false,true,0.0-2.0-0.64-0.580-3.580,0,1,1,68,false,stim,false,0,621.0,0,0,0,15121,WMM2,2728972,false,false,2093,image-keyboard-response,8
false,13,-1,3,2,false,d,true,true,0.0-2.0-0.64-0.581-3.581,0,1,1,,false,stim,false,2,,0,1,2,15121,WMM2,2733481,false,true,2096,image-keyboard-response,9
true,13,0,3,0,true,q,false,false,0.0-2.0-0.64-0.582-3.582,0,1,1,81,false,stim,false,0,1516.0,0,1,1,15121,WMM2,2736505,false,true,2099,image-keyboard-response,10
true,13,0,3,0,true,q,false,false,0.0-2.0-0.64-0.583-3.583,0,1,1,81,false,stim,false,0,1206.0,0,1,1,15121,WMM2,2739225,false,true,2102,image-keyboard-response,11
true,13,0,3,2,false,d,false,false,0.0-2.0-0.64-0.584-3.584,0,1,1,81,false,stim,true,0,1334.0,0,0,0,15121,WMM2,2742065,false,false,2105,image-keyboard-response,12
true,13,1,3,2,false,d,true,false,0.0-2.0-0.65-0.585-3.585,0,1,1,90,false,stim,false,0,1107.0,0,0,0,15121,WMM2,2744681,false,false,2108,image-keyboard-response,13
true,13,2,3,2,true,d,false,true,0.0-2.0-0.65-0.586-3.586,0,1,1,68,false,stim,false,0,1045.0,0,0,0,15121,WMM2,2747233,false,false,2111,image-keyboard-response,14
true,13,2,3,0,false,q,true,false,0.0-2.0-0.65-0.587-3.587,0,1,1,68,false,stim,false,0,2256.0,0,1,1,15121,WMM2,2750997,false,false,2114,image-keyboard-response,15
true,13,2,3,2,true,d,false,true,0.0-2.0-0.65-0.588-3.588,0,1,1,68,false,stim,false,0,1113.0,0,0,0,15121,WMM2,2753617,false,false,2117,image-keyboard-response,16
true,13,1,3,2,false,d,true,false,0.0-2.0-0.65-0.589-3.589,0,1,1,90,false,stim,false,2,2884.9999999995343,0,1,2,15121,WMM2,2758007,false,false,2120,image-keyboard-response,17
true,13,0,3,2,false,d,true,false,0.0-2.0-0.65-0.590-3.590,0,1,1,81,false,stim,false,2,1021.0,0,1,2,15121,WMM2,2760535,false,false,2123,image-keyboard-response,18
true,13,1,3,0,false,q,true,false,0.0-2.0-0.65-0.591-3.591,0,1,1,90,false,stim,false,0,1237.0,0,1,1,15121,WMM2,2763280,false,false,2126,image-keyboard-response,19
true,13,1,3,2,false,d,true,false,0.0-2.0-0.65-0.592-3.592,0,1,1,90,false,stim,false,2,348.0,0,1,2,15121,WMM2,2765134,false,false,2129,image-keyboard-response,20
true,13,2,3,0,false,q,true,false,0.0-2.0-0.65-0.593-3.593,0,1,1,68,false,stim,false,0,2416.9999999995343,0,1,1,15121,WMM2,2769060,false,false,2132,image-keyboard-response,21
false,13,-1,3,2,false,d,true,false,0.0-2.0-0.66-0.594-3.594,0,1,1,,false,stim,false,0,,0,0,0,15121,WMM2,2773570,false,false,2135,image-keyboard-response,22
true,13,2,3,2,true,d,false,true,0.0-2.0-0.66-0.595-3.595,0,1,1,68,false,stim,false,0,725.0,0,0,0,15121,WMM2,2775805,false,false,2138,image-keyboard-response,23
true,13,1,3,2,false,d,true,false,0.0-2.0-0.66-0.596-3.596,0,1,1,90,false,stim,false,2,2927.0,0,1,2,15121,WMM2,2780241,false,false,2141,image-keyboard-response,24
true,13,0,3,0,true,q,false,true,0.0-2.0-0.66-0.597-3.597,0,1,1,81,false,stim,false,0,2177.9999999995343,0,1,1,15121,WMM2,2783926,false,false,2144,image-keyboard-response,25
false,13,-1,3,2,false,d,true,false,0.0-2.0-0.66-0.598-3.598,0,1,1,,false,stim,false,2,,0,1,2,15121,WMM2,2788436,false,false,2147,image-keyboard-response,26
true,13,2,3,0,false,q,true,false,0.0-2.0-0.66-0.599-3.599,0,1,1,68,false,stim,false,0,2201.0,0,1,1,15121,WMM2,2792149,false,false,2150,image-keyboard-response,27
true,13,2,3,2,true,d,false,true,0.0-2.0-0.66-0.600-3.600,0,1,1,68,false,stim,false,2,1981.0,0,1,2,15121,WMM2,2795639,false,false,2153,image-keyboard-response,28
true,13,1,3,0,false,q,true,false,0.0-2.0-0.66-0.601-3.601,0,1,1,90,false,stim,false,0,2830.0,0,1,1,15121,WMM2,2799977,false,false,2156,image-keyboard-response,29
false,13,-1,3,2,false,d,true,false,0.0-2.0-0.66-0.602-3.602,0,1,1,,false,stim,false,0,,0,0,0,15121,WMM2,2804487,false,false,2159,image-keyboard-response,30
true,13,1,3,2,false,d,true,true,0.0-2.0-0.67-0.603-3.603,0,1,1,90,false,stim,false,2,921.0,0,1,2,15121,WMM2,2806918,false,true,2162,image-keyboard-response,31
true,13,1,3,2,false,d,true,false,0.0-2.0-0.67-0.604-3.604,0,1,1,90,false,stim,false,2,1025.0,0,1,2,15121,WMM2,2809453,false,false,2165,image-keyboard-response,32
true,13,1,3,0,false,q,true,false,0.0-2.0-0.67-0.605-3.605,0,1,1,90,false,stim,false,0,1899.9999999995343,0,1,1,15121,WMM2,2812861,false,false,2168,image-keyboard-response,33
true,13,1,3,2,false,d,true,false,0.0-2.0-0.67-0.606-3.606,0,1,1,90,false,stim,false,0,1051.0,0,0,0,15121,WMM2,2815421,false,false,2171,image-keyboard-response,34
true,13,1,3,2,false,d,true,false,0.0-2.0-0.67-0.607-3.607,0,1,1,90,false,stim,false,2,2027.0,0,1,2,15121,WMM2,2818956,false,false,2174,image-keyboard-response,35
true,13,0,3,0,true,q,false,false,0.0-2.0-0.67-0.608-3.608,0,1,1,81,false,stim,false,0,405.0,0,1,1,15121,WMM2,2820869,false,true,2177,image-keyboard-response,36
true,13,0,3,2,false,d,false,false,0.0-2.0-0.67-0.609-3.609,0,1,1,81,false,stim,true,0,1578.0,0,0,0,15121,WMM2,2823957,false,false,2180,image-keyboard-response,37
true,13,1,3,2,false,d,true,false,0.0-2.0-0.67-0.610-3.610,0,1,1,90,false,stim,false,0,1962.0,0,0,0,15121,WMM2,2827429,false,false,2183,image-keyboard-response,38
true,13,2,3,0,false,q,true,false,0.0-2.0-0.67-0.611-3.611,0,1,1,68,false,stim,false,0,2491.0,0,1,1,15121,WMM2,2831429,false,false,2186,image-keyboard-response,39
true,13,1,3,2,false,d,true,false,0.0-2.0-0.68-0.612-3.612,0,1,1,90,false,stim,false,0,2928.0,0,0,0,15121,WMM2,2835866,false,false,2189,image-keyboard-response,40
true,13,2,3,2,true,d,false,true,0.0-2.0-0.68-0.613-3.613,0,1,1,68,false,stim,false,0,930.9999999995343,0,0,0,15121,WMM2,2838306,false,false,2192,image-keyboard-response,41
true,13,2,3,0,false,q,true,false,0.0-2.0-0.68-0.614-3.614,0,1,1,68,false,stim,false,0,2600.0,0,1,1,15121,WMM2,2842414,false,false,2195,image-keyboard-response,42
true,13,0,3,0,true,q,false,false,0.0-2.0-0.68-0.615-3.615,0,1,1,81,false,stim,false,0,2313.0,0,1,1,15121,WMM2,2846235,false,true,2198,image-keyboard-response,43
false,13,-1,3,2,false,d,true,true,0.0-2.0-0.68-0.616-3.616,0,1,1,,false,stim,false,2,,0,1,2,15121,WMM2,2850751,false,true,2201,image-keyboard-response,44
true,13,1,3,0,false,q,true,false,0.0-2.0-0.68-0.617-3.617,0,1,1,90,false,stim,false,0,776.0,0,1,1,15121,WMM2,2853037,false,false,2204,image-keyboard-response,45
