answered,blockNum,choice,condition,corResp,correct,correct_response,explo,fb,internal_node_id,isStable_1,isStable_2,isStable_3,key_press,newBlock,part,persev,persevResp,rt,sessNum,stableAS,stimulus,subject,task,time_elapsed,training,trap,trial_index,trial_type,trialsInBlock
true,1,0,0,2,false,d,true,false,0.0-2.0-0.0-0.0-3.0,0,0,0,81,true,stim,false,-1,695.6800001207739,0,0,0,17172,WMM1,135290,false,false,130,image-keyboard-response,1
true,1,1,0,1,true,z,false,true,0.0-2.0-0.0-0.1-3.1,0,0,0,90,false,stim,false,-1,516.1200000438839,0,0,1,17172,WMM1,137327,false,false,133,image-keyboard-response,2
true,1,2,0,0,false,q,true,false,0.0-2.0-0.0-0.2-3.2,0,0,0,68,false,stim,false,-1,558.1999998539686,0,0,2,17172,WMM1,139416,false,false,136,image-keyboard-response,3
true,1,1,0,1,true,z,false,true,0.0-2.0-0.0-0.3-3.3,0,0,0,90,false,stim,false,-1,524.0100000519305,0,0,1,17172,WMM1,141467,false,false,139,image-keyboard-response,4
true,1,0,0,0,true,q,false,true,0.0-2.0-0.0-0.4-3.4,0,0,0,81,false,stim,false,-1,726.9450000021607,0,0,2,17172,WMM1,143716,false,false,142,image-keyboard-response,5
true,1,2,0,2,true,d,false,true,0.0-2.0-0.0-0.5-3.5,0,0,0,68,false,stim,false,-1,375.8600000292063,0,0,0,17172,WMM1,145599,false,false,145,image-keyboard-response,6
true,1,0,0,0,true,q,false,true,0.0-2.0-0.0-0.6-3.6,0,0,0,81,false,stim,false,-1,644.4149999879301,0,0,2,17172,WMM1,147771,false,false,148,image-keyboard-response,7
true,1,1,0,1,true,z,false,false,0.0-2.0-0.0-0.7-3.7,0,0,0,90,false,stim,false,-1,360.2700000628829,0,0,1,17172,WMM1,149655,false,true,151,image-keyboard-response,8
true,1,2,0,2,true,d,false,true,0.0-2.0-0.0-0.8-3.8,0,0,0,68,false,stim,false,-1,749.7400001157075,0,0,0,17172,WMM1,151931,false,false,154,image-keyboard-response,9
true,1,1,0,1,true,z,false,true,0.0-2.0-0.1-0.9-3.9,0,0,0,90,false,stim,false,-1,418.5699999798089,0,0,1,17172,WMM1,153876,false,false,157,image-keyboard-response,10
true,1,1,0,1,true,z,false,false,0.0-2.0-0.1-0.10-3.10,0,0,0,90,false,stim,false,-1,529.805000172928,0,0,1,17172,WMM1,155927,false,true,160,image-keyboard-response,11
true,1,2,0,2,true,d,false,true,0.0-2.0-0.1-0.11-3.11,0,0,0,68,false,stim,false,-1,980.6999999564141,0,0,0,17172,WMM1,158430,false,false,163,image-keyboard-response,12
true,1,0,0,0,true,q,false,true,0.0-2.0-0.1-0.12-3.12,0,0,0,81,false,stim,false,-1,868.7299999874085,0,0,2,17172,WMM1,160813,false,false,166,image-keyboard-response,13
true,1,2,0,2,true,d,false,true,0.0-2.0-0.1-0.13-3.13,0,0,0,68,false,stim,false,-1,1065.0349999777973,0,0,0,17172,WMM1,163389,false,false,169,image-keyboard-response,14
true,1,0,0,0,true,q,false,false,0.0-2.0-0.1-0.14-3.14,0,0,0,81,false,stim,false,-1,950.1199999358505,0,0,2,17172,WMM1,165852,false,true,172,image-keyboard-response,15
true,1,0,0,2,false,d,true,false,0.0-2.0-0.1-0.15-3.15,0,0,0,81,false,stim,false,-1,1017.6050001755357,0,0,0,17172,WMM1,168374,false,false,175,image-keyboard-response,16
true,1,1,0,1,true,z,false,true,0.0-2.0-0.1-0.16-3.16,0,0,0,90,false,stim,false,-1,407.82500011846423,0,0,1,17172,WMM1,170297,false,false,178,image-keyboard-response,17
true,1,0,0,0,true,q,false,true,0.0-2.0-0.1-0.17-3.17,0,0,0,81,false,stim,false,-1,888.2699999958277,0,0,2,17172,WMM1,172712,false,false,181,image-keyboard-response,18
true,1,2,0,2,true,d,false,true,0.0-2.0-0.2-0.18-3.18,0,0,0,68,false,stim,false,-1,466.1049998831004,0,0,0,17172,WMM1,174699,false,false,184,image-keyboard-response,19
true,1,0,0,1,false,z,true,false,0.0-2.0-0.2-0.19-3.19,0,0,0,81,false,stim,false,-1,839.1299999784678,0,0,1,17172,WMM1,177064,false,false,187,image-keyboard-response,20
true,1,0,0,0,true,q,false,true,0.0-2.0-0.2-0.20-3.20,0,0,0,81,false,stim,false,-1,876.8350000027567,0,0,2,17172,WMM1,179457,false,false,190,image-keyboard-response,21
true,1,2,0,2,true,d,false,true,0.0-2.0-0.2-0.21-3.21,0,0,0,68,false,stim,false,-1,588.22499983944,0,0,0,17172,WMM1,181566,false,false,193,image-keyboard-response,22
true,1,2,0,2,true,d,false,true,0.0-2.0-0.2-0.22-3.22,0,0,0,68,false,stim,false,-1,695.005000103265,0,0,0,17172,WMM1,183788,false,false,196,image-keyboard-response,23
true,1,1,0,1,true,z,false,true,0.0-2.0-0.2-0.23-3.23,0,0,0,90,false,stim,false,-1,764.5550000015646,0,0,1,17172,WMM1,186072,false,false,199,image-keyboard-response,24
true,1,1,0,1,true,z,false,true,0.0-2.0-0.2-0.24-3.24,0,0,0,90,false,stim,false,-1,564.3849999178201,0,0,1,17172,WMM1,188163,false,false,202,image-keyboard-response,25
true,1,0,0,0,true,q,false,true,0.0-2.0-0.2-0.25-3.25,0,0,0,81,false,stim,false,-1,889.1050000675023,0,0,2,17172,WMM1,190573,false,false,205,image-keyboard-response,26
true,1,0,0,0,true,q,false,true,0.0-2.0-0.2-0.26-3.26,0,0,0,81,false,stim,false,-1,660.2300000376999,0,0,2,17172,WMM1,192754,false,false,208,image-keyboard-response,27
true,1,0,0,0,true,q,false,true,0.0-2.0-0.3-0.27-3.27,0,0,0,81,false,stim,false,-1,532.8699999954551,0,0,2,17172,WMM1,194808,false,false,211,image-keyboard-response,28
true,1,1,0,1,true,z,false,true,0.0-2.0-0.3-0.28-3.28,0,0,0,90,false,stim,false,-1,639.035000000149,0,1,1,17172,WMM1,196957,false,false,214,image-keyboard-response,29
true,1,0,0,0,true,q,false,true,0.0-2.0-0.3-0.29-3.29,0,0,0,81,false,stim,false,-1,1537.8900000359863,0,0,2,17172,WMM1,200021,false,false,217,image-keyboard-response,30
true,1,0,0,0,true,q,false,true,0.0-2.0-0.3-0.30-3.30,0,0,0,81,false,stim,false,-1,555.3299998864532,0,0,2,17172,WMM1,202087,false,false,220,image-keyboard-response,31
true,1,1,0,1,true,z,false,true,0.0-2.0-0.3-0.31-3.31,0,0,0,90,false,stim,false,-1,638.6250001378357,0,1,1,17172,WMM1,204241,false,false,223,image-keyboard-response,32
true,1,0,0,1,false,z,true,false,0.0-2.0-0.3-0.32-3.32,0,0,0,81,false,stim,false,-1,739.0650000888854,0,1,1,17172,WMM1,206496,false,false,226,image-keyboard-response,33
true,1,2,0,2,true,d,false,true,0.0-2.0-0.3-0.33-3.33,0,0,0,68,false,stim,false,-1,640.0599998887628,0,0,0,17172,WMM1,208659,false,false,229,image-keyboard-response,34
true,1,2,0,2,true,d,false,true,0.0-2.0-0.3-0.34-3.34,0,0,0,68,false,stim,false,-1,347.14500000700355,0,0,0,17172,WMM1,210533,false,false,232,image-keyboard-response,35
true,2,2,3,0,false,q,false,false,0.0-2.0-0.3-0.35-3.35,0,1,0,68,true,stim,true,2,396.6449999716133,0,0,0,17172,WMM1,212455,false,false,235,image-keyboard-response,1
true,2,1,3,1,true,z,false,true,0.0-2.0-0.4-0.36-3.36,0,1,0,90,false,stim,false,1,901.5049999579787,0,1,1,17172,WMM1,214876,false,false,238,image-keyboard-response,2
true,2,2,3,0,false,q,false,false,0.0-2.0-0.4-0.37-3.37,0,1,0,68,false,stim,true,2,1030.765000032261,0,0,0,17172,WMM1,217438,false,false,241,image-keyboard-response,3
true,2,0,3,2,false,d,false,false,0.0-2.0-0.4-0.38-3.38,0,1,0,81,false,stim,true,0,631.7400000989437,0,0,2,17172,WMM1,219577,false,false,244,image-keyboard-response,4
true,2,0,3,2,false,d,false,true,0.0-2.0-0.4-0.39-3.39,0,1,0,81,false,stim,true,0,658.2049999851733,0,0,2,17172,WMM1,221756,false,true,247,image-keyboard-response,5
true,2,2,3,0,false,q,false,false,0.0-2.0-0.4-0.40-3.40,0,1,0,68,false,stim,true,2,1048.1950000394136,0,0,0,17172,WMM1,224321,false,false,250,image-keyboard-response,6
true,2,0,3,2,false,d,false,false,0.0-2.0-0.4-0.41-3.41,0,1,0,81,false,stim,true,0,2207.5700000859797,0,0,2,17172,WMM1,228035,false,false,253,image-keyboard-response,7
true,2,1,3,1,true,z,false,true,0.0-2.0-0.4-0.42-3.42,0,1,0,90,false,stim,false,1,1530.640000011772,0,1,1,17172,WMM1,231074,false,false,256,image-keyboard-response,8
true,2,2,3,0,false,q,false,false,0.0-2.0-0.4-0.43-3.43,0,1,0,68,false,stim,true,2,1997.1499999519438,0,0,0,17172,WMM1,234589,false,false,259,image-keyboard-response,9
true,2,1,3,1,true,z,false,true,0.0-2.0-0.4-0.44-3.44,0,1,0,90,false,stim,false,1,2402.449999935925,0,1,1,17172,WMM1,238512,false,false,262,image-keyboard-response,10
true,2,0,3,2,false,d,false,false,0.0-2.0-0.5-0.45-3.45,0,1,0,81,false,stim,true,0,660.4149998165667,0,0,2,17172,WMM1,240692,false,false,265,image-keyboard-response,11
true,2,1,3,1,true,z,false,true,0.0-2.0-0.5-0.46-3.46,0,1,0,90,false,stim,false,1,865.6300001312047,0,1,1,17172,WMM1,243083,false,false,268,image-keyboard-response,12
true,2,2,3,0,false,q,false,false,0.0-2.0-0.5-0.47-3.47,0,1,0,68,false,stim,true,2,622.2749999724329,0,0,0,17172,WMM1,245235,false,false,271,image-keyboard-response,13
true,2,0,3,0,true,q,false,true,0.0-2.0-0.5-0.48-3.48,0,1,0,81,false,stim,false,2,776.5450000297278,0,0,0,17172,WMM1,247549,false,false,274,image-keyboard-response,14
true,2,2,3,2,true,d,false,true,0.0-2.0-0.5-0.49-3.49,0,1,0,68,false,stim,false,0,601.1150002013892,0,0,2,17172,WMM1,249668,false,false,277,image-keyboard-response,15
true,2,1,3,1,true,z,false,true,0.0-2.0-0.5-0.50-3.50,0,1,0,90,false,stim,false,1,506.88500003889203,0,1,1,17172,WMM1,251694,false,false,280,image-keyboard-response,16
true,2,1,3,1,true,z,false,true,0.0-2.0-0.5-0.51-3.51,0,1,0,90,false,stim,false,1,514.9249997921288,0,1,1,17172,WMM1,253728,false,false,283,image-keyboard-response,17
true,2,2,3,2,true,d,false,true,0.0-2.0-0.5-0.52-3.52,0,1,0,68,false,stim,false,0,633.7550000753254,0,0,2,17172,WMM1,255889,false,false,286,image-keyboard-response,18
true,2,0,3,0,true,q,false,true,0.0-2.0-0.5-0.53-3.53,0,1,0,81,false,stim,false,2,483.3600001875311,0,0,0,17172,WMM1,257893,false,false,289,image-keyboard-response,19
true,2,0,3,0,true,q,false,true,0.0-2.0-0.6-0.54-3.54,0,1,0,81,false,stim,false,2,473.66999997757375,0,0,0,17172,WMM1,259894,false,false,292,image-keyboard-response,20
true,2,0,3,0,true,q,false,true,0.0-2.0-0.6-0.55-3.55,0,1,0,81,false,stim,false,2,443.1400001049042,0,0,0,17172,WMM1,261854,false,false,295,image-keyboard-response,21
true,2,1,3,1,true,z,false,true,0.0-2.0-0.6-0.56-3.56,0,1,0,90,false,stim,false,1,525.290000019595,0,0,1,17172,WMM1,263902,false,false,298,image-keyboard-response,22
true,2,1,3,1,true,z,false,true,0.0-2.0-0.6-0.57-3.57,0,1,0,90,false,stim,false,1,460.56500007398427,0,0,1,17172,WMM1,265885,false,false,301,image-keyboard-response,23
true,2,2,3,2,true,d,false,true,0.0-2.0-0.6-0.58-3.58,0,1,0,68,false,stim,false,0,475.3050000872463,0,0,2,17172,WMM1,267890,false,false,304,image-keyboard-response,24
true,2,2,3,2,true,d,false,true,0.0-2.0-0.6-0.59-3.59,0,1,0,68,false,stim,false,0,368.53000009432435,0,0,2,17172,WMM1,269781,false,false,307,image-keyboard-response,25
true,2,0,3,1,false,z,true,false,0.0-2.0-0.6-0.60-3.60,0,1,0,81,false,stim,false,1,588.1199999712408,0,0,1,17172,WMM1,271887,false,false,310,image-keyboard-response,26
true,2,0,3,0,true,q,false,true,0.0-2.0-0.6-0.61-3.61,0,1,0,81,false,stim,false,2,299.31499995291233,0,0,0,17172,WMM1,273712,false,false,313,image-keyboard-response,27
true,2,2,3,2,true,d,false,true,0.0-2.0-0.6-0.62-3.62,0,1,0,68,false,stim,false,0,571.3700000196695,0,0,2,17172,WMM1,275806,false,false,316,image-keyboard-response,28
true,2,2,3,2,true,d,false,true,0.0-2.0-0.7-0.63-3.63,0,1,0,68,false,stim,false,0,432.8699999023229,0,0,2,17172,WMM1,277757,false,false,319,image-keyboard-response,29
true,2,2,3,2,true,d,false,false,0.0-2.0-0.7-0.64-3.64,0,1,0,68,false,stim,false,0,698.4749999828637,0,0,2,17172,WMM1,279975,false,true,322,image-keyboard-response,30
true,3,0,1,2,false,d,false,false,0.0-2.0-0.7-0.65-3.65,0,0,0,81,true,stim,true,0,561.7649999912828,0,0,0,17172,WMM1,282059,false,false,325,image-keyboard-response,1
true,3,1,1,0,false,q,false,false,0.0-2.0-0.7-0.66-3.66,0,0,0,90,false,stim,true,1,437.7250000834465,0,0,1,17172,WMM1,284026,false,false,328,image-keyboard-response,2
true,3,1,1,0,false,q,false,false,0.0-2.0-0.7-0.67-3.67,0,0,0,90,false,stim,true,1,770.7249999511987,0,0,1,17172,WMM1,286322,false,false,331,image-keyboard-response,3
true,3,2,1,0,false,q,false,false,0.0-2.0-0.7-0.68-3.68,0,0,0,68,false,stim,true,2,1701.3300000689924,0,0,2,17172,WMM1,289545,false,false,334,image-keyboard-response,4
true,3,1,1,2,false,d,true,false,0.0-2.0-0.7-0.69-3.69,0,0,0,90,false,stim,false,0,1078.5400001332164,0,0,0,17172,WMM1,292148,false,false,337,image-keyboard-response,5
true,3,0,1,0,true,q,false,false,0.0-2.0-0.7-0.70-3.70,0,0,0,81,false,stim,false,1,865.7849999144673,0,0,1,17172,WMM1,294539,false,true,340,image-keyboard-response,6
true,3,2,1,2,true,d,false,true,0.0-2.0-0.7-0.71-3.71,0,0,0,68,false,stim,false,0,842.3750000074506,0,0,0,17172,WMM1,296896,false,false,343,image-keyboard-response,7
true,3,2,1,0,false,q,true,false,0.0-2.0-0.8-0.72-3.72,0,0,0,68,false,stim,false,1,1184.4750000163913,0,0,1,17172,WMM1,299609,false,false,346,image-keyboard-response,8
true,3,2,1,2,true,d,false,true,0.0-2.0-0.8-0.73-3.73,0,0,0,68,false,stim,false,0,605.5700001306832,0,0,0,17172,WMM1,301732,false,false,349,image-keyboard-response,9
true,3,0,1,0,true,q,false,true,0.0-2.0-0.8-0.74-3.74,0,0,0,81,false,stim,false,2,423.685000045225,0,0,2,17172,WMM1,303684,false,false,352,image-keyboard-response,10
true,3,0,1,0,true,q,false,false,0.0-2.0-0.8-0.75-3.75,0,0,0,81,false,stim,false,2,711.295000044629,0,0,2,17172,WMM1,305924,false,true,355,image-keyboard-response,11
true,3,1,1,0,false,q,false,false,0.0-2.0-0.8-0.76-3.76,0,0,0,90,false,stim,true,1,747.959999833256,0,0,1,17172,WMM1,308186,false,false,358,image-keyboard-response,12
true,3,2,1,2,true,d,false,true,0.0-2.0-0.8-0.77-3.77,0,0,0,68,false,stim,false,0,368.92500007525086,0,0,0,17172,WMM1,310084,false,false,361,image-keyboard-response,13
true,3,2,1,0,false,q,true,false,0.0-2.0-0.8-0.78-3.78,0,0,0,68,false,stim,false,1,428.4749999642372,0,0,1,17172,WMM1,312034,false,false,364,image-keyboard-response,14
true,3,2,1,2,true,d,false,true,0.0-2.0-0.8-0.79-3.79,0,0,0,68,false,stim,false,0,676.8150001298636,0,0,0,17172,WMM1,314230,false,false,367,image-keyboard-response,15
true,3,0,1,0,true,q,false,true,0.0-2.0-0.8-0.80-3.80,0,0,0,81,false,stim,false,2,1100.825000088662,0,0,2,17172,WMM1,316857,false,false,370,image-keyboard-response,16
true,3,0,1,0,true,q,false,true,0.0-2.0-0.9-0.81-3.81,0,0,0,81,false,stim,false,1,447.56000000052154,0,0,1,17172,WMM1,318824,false,false,373,image-keyboard-response,17
true,3,0,1,0,true,q,false,true,0.0-2.0-0.9-0.82-3.82,0,0,0,81,false,stim,false,2,320.1600001193583,0,0,2,17172,WMM1,320672,false,false,376,image-keyboard-response,18
true,3,0,1,0,true,q,false,true,0.0-2.0-0.9-0.83-3.83,0,0,0,81,false,stim,false,2,373.90000000596046,0,0,2,17172,WMM1,322576,false,false,379,image-keyboard-response,19
true,3,0,1,0,true,q,false,false,0.0-2.0-0.9-0.84-3.84,0,0,0,81,false,stim,false,1,371.430000057444,0,0,1,17172,WMM1,324476,false,true,382,image-keyboard-response,20
true,3,0,1,0,true,q,false,true,0.0-2.0-0.9-0.85-3.85,0,0,0,81,false,stim,false,1,547.6150000467896,0,0,1,17172,WMM1,326551,false,false,385,image-keyboard-response,21
true,3,0,1,0,true,q,false,true,0.0-2.0-0.9-0.86-3.86,0,0,0,81,false,stim,false,2,414.97499984689057,0,0,2,17172,WMM1,328488,false,false,388,image-keyboard-response,22
true,3,2,1,2,true,d,false,true,0.0-2.0-0.9-0.87-3.87,0,0,0,68,false,stim,false,0,442.4550000112504,0,0,0,17172,WMM1,330447,false,false,391,image-keyboard-response,23
true,3,2,1,2,true,d,false,true,0.0-2.0-0.9-0.88-3.88,0,0,0,68,false,stim,false,0,549.3449999485165,0,0,0,17172,WMM1,332505,false,false,394,image-keyboard-response,24
true,3,2,1,2,true,d,false,true,0.0-2.0-0.9-0.89-3.89,0,0,0,68,false,stim,false,0,412.2450000140816,0,0,0,17172,WMM1,334441,false,false,397,image-keyboard-response,25
true,3,0,1,0,true,q,false,true,0.0-2.0-0.10-0.90-3.90,0,0,0,81,false,stim,false,2,435.6199998874217,0,0,2,17172,WMM1,336387,false,false,400,image-keyboard-response,26
true,3,0,1,0,true,q,false,true,0.0-2.0-0.10-0.91-3.91,0,0,0,81,false,stim,false,1,420.2499999664724,0,0,1,17172,WMM1,338328,false,false,403,image-keyboard-response,27
true,3,2,1,0,false,q,false,false,0.0-2.0-0.10-0.92-3.92,0,0,0,68,false,stim,true,2,628.9000001270324,0,0,2,17172,WMM1,340474,false,false,406,image-keyboard-response,28
true,3,0,1,0,true,q,false,true,0.0-2.0-0.10-0.93-3.93,0,0,0,81,false,stim,false,1,567.2299999278039,0,0,1,17172,WMM1,342559,false,false,409,image-keyboard-response,29
true,3,2,1,2,true,d,false,true,0.0-2.0-0.10-0.94-3.94,0,0,0,68,false,stim,false,0,502.03999993391335,0,0,0,17172,WMM1,344578,false,false,412,image-keyboard-response,30
true,4,0,4,2,false,d,false,false,0.0-2.0-0.10-0.95-3.95,0,0,0,81,true,stim,true,0,595.2850000467151,0,0,1,17172,WMM1,346687,false,false,415,image-keyboard-response,1
true,4,0,4,1,false,z,false,false,0.0-2.0-0.10-0.96-3.96,0,0,0,81,false,stim,true,0,361.1699999310076,0,0,2,17172,WMM1,348570,false,false,418,image-keyboard-response,2
true,4,2,4,1,false,z,false,false,0.0-2.0-0.10-0.97-3.97,0,0,0,68,false,stim,true,2,376.94500014185905,0,0,0,17172,WMM1,350463,false,false,421,image-keyboard-response,3
true,4,2,4,1,false,z,false,false,0.0-2.0-0.10-0.98-3.98,0,0,0,68,false,stim,true,2,505.6100001093,0,0,0,17172,WMM1,352481,false,false,424,image-keyboard-response,4
true,4,1,4,1,true,z,false,true,0.0-2.0-0.11-0.99-3.99,0,0,0,90,false,stim,false,0,697.1749998629093,0,0,2,17172,WMM1,354704,false,false,427,image-keyboard-response,5
true,4,2,4,2,true,d,false,true,0.0-2.0-0.11-0.100-3.100,0,0,0,68,false,stim,false,0,450.4600001964718,0,0,1,17172,WMM1,356684,false,false,430,image-keyboard-response,6
true,4,2,4,2,true,d,false,true,0.0-2.0-0.11-0.101-3.101,0,0,0,68,false,stim,false,0,465.2599999681115,0,0,1,17172,WMM1,358667,false,false,433,image-keyboard-response,7
true,4,0,4,1,false,z,true,false,0.0-2.0-0.11-0.102-3.102,0,0,0,81,false,stim,false,2,357.04999999143183,0,0,0,17172,WMM1,360542,false,false,436,image-keyboard-response,8
true,4,1,4,1,true,z,false,true,0.0-2.0-0.11-0.103-3.103,0,0,0,90,false,stim,false,2,338.80500006489456,0,0,0,17172,WMM1,362406,false,false,439,image-keyboard-response,9
true,4,2,4,1,false,z,true,false,0.0-2.0-0.11-0.104-3.104,0,0,0,68,false,stim,false,0,1400.995000032708,0,0,2,17172,WMM1,365326,false,false,442,image-keyboard-response,10
true,4,1,4,1,true,z,false,false,0.0-2.0-0.11-0.105-3.105,0,0,0,90,false,stim,false,2,494.2450001835823,0,0,0,17172,WMM1,367340,false,true,445,image-keyboard-response,11
true,4,2,4,2,true,d,false,true,0.0-2.0-0.11-0.106-3.106,0,0,0,68,false,stim,false,0,915.8399999141693,0,0,1,17172,WMM1,369786,false,false,448,image-keyboard-response,12
true,4,0,4,1,false,z,false,false,0.0-2.0-0.11-0.107-3.107,0,0,0,81,false,stim,true,0,860.2400000672787,0,0,2,17172,WMM1,372159,false,false,451,image-keyboard-response,13
true,4,2,4,2,true,d,false,true,0.0-2.0-0.12-0.108-3.108,0,0,0,68,false,stim,false,0,670.2149999327958,0,0,1,17172,WMM1,374351,false,false,454,image-keyboard-response,14
true,4,2,4,1,false,z,true,true,0.0-2.0-0.12-0.109-3.109,0,0,0,68,false,stim,false,0,704.4400000013411,0,0,2,17172,WMM1,376583,false,true,457,image-keyboard-response,15
true,4,2,4,1,false,z,true,false,0.0-2.0-0.12-0.110-3.110,0,0,0,68,false,stim,false,0,510.83000004291534,0,0,2,17172,WMM1,378619,false,false,460,image-keyboard-response,16
true,4,2,4,2,true,d,false,true,0.0-2.0-0.12-0.111-3.111,0,0,0,68,false,stim,false,0,441.03500014171004,0,0,1,17172,WMM1,380590,false,false,463,image-keyboard-response,17
true,4,2,4,2,true,d,false,true,0.0-2.0-0.12-0.112-3.112,0,0,0,68,false,stim,false,0,589.2799999564886,0,0,1,17172,WMM1,382703,false,false,466,image-keyboard-response,18
true,4,0,4,1,false,z,true,false,0.0-2.0-0.12-0.113-3.113,0,0,0,81,false,stim,false,2,1865.2599998749793,0,0,0,17172,WMM1,386089,false,false,469,image-keyboard-response,19
true,4,1,4,1,true,z,false,true,0.0-2.0-0.12-0.114-3.114,0,0,0,90,false,stim,false,2,498.9300000015646,0,0,0,17172,WMM1,388115,false,false,472,image-keyboard-response,20
true,4,2,4,1,false,z,true,true,0.0-2.0-0.12-0.115-3.115,0,0,0,68,false,stim,false,0,489.9850001093,0,0,2,17172,WMM1,390130,false,true,475,image-keyboard-response,21
true,4,1,4,1,true,z,false,true,0.0-2.0-0.12-0.116-3.116,0,0,0,90,false,stim,false,2,439.32999996468425,0,0,0,17172,WMM1,392089,false,false,478,image-keyboard-response,22
true,4,2,4,2,true,d,false,true,0.0-2.0-0.13-0.117-3.117,0,0,0,68,false,stim,false,0,415.20499996840954,0,0,1,17172,WMM1,394027,false,false,481,image-keyboard-response,23
true,4,2,4,1,false,z,true,false,0.0-2.0-0.13-0.118-3.118,0,0,0,68,false,stim,false,0,480.43500003404915,0,0,2,17172,WMM1,396026,false,false,484,image-keyboard-response,24
true,4,1,4,2,false,d,true,false,0.0-2.0-0.13-0.119-3.119,0,0,0,90,false,stim,false,0,387.3850000090897,0,0,1,17172,WMM1,397927,false,false,487,image-keyboard-response,25
true,4,2,4,1,false,z,true,false,0.0-2.0-0.13-0.120-3.120,0,0,0,68,false,stim,false,0,662.3649999964982,0,0,2,17172,WMM1,400120,false,false,490,image-keyboard-response,26
true,4,1,4,1,true,z,false,true,0.0-2.0-0.13-0.121-3.121,0,0,0,90,false,stim,false,0,882.9999999143183,0,0,2,17172,WMM1,402521,false,false,493,image-keyboard-response,27
true,4,1,4,1,true,z,false,true,0.0-2.0-0.13-0.122-3.122,0,0,0,90,false,stim,false,2,645.1550000347197,0,0,0,17172,WMM1,404684,false,false,496,image-keyboard-response,28
true,4,1,4,1,true,z,false,true,0.0-2.0-0.13-0.123-3.123,0,0,0,90,false,stim,false,2,332.56000000983477,0,0,0,17172,WMM1,406528,false,false,499,image-keyboard-response,29
true,4,2,4,2,true,d,false,true,0.0-2.0-0.13-0.124-3.124,0,0,0,68,false,stim,false,0,664.0699999406934,0,0,1,17172,WMM1,408707,false,false,502,image-keyboard-response,30
true,4,1,4,1,true,z,false,true,0.0-2.0-0.13-0.125-3.125,0,0,0,90,false,stim,false,2,381.7599997855723,0,0,0,17172,WMM1,410607,false,false,505,image-keyboard-response,31
true,4,1,4,1,true,z,false,true,0.0-2.0-0.14-0.126-3.126,0,0,0,90,false,stim,false,0,831.9649999029934,0,0,2,17172,WMM1,412957,false,false,508,image-keyboard-response,32
true,4,1,4,1,true,z,false,true,0.0-2.0-0.14-0.127-3.127,0,0,0,90,false,stim,false,0,756.9750000257045,0,0,2,17172,WMM1,415222,false,false,511,image-keyboard-response,33
true,4,1,4,1,true,z,false,true,0.0-2.0-0.14-0.128-3.128,0,0,0,90,false,stim,false,2,583.6399998515844,0,0,0,17172,WMM1,417326,false,false,514,image-keyboard-response,34
true,4,1,4,1,true,z,false,true,0.0-2.0-0.14-0.129-3.129,0,0,0,90,false,stim,false,0,435.93999999575317,0,0,2,17172,WMM1,419280,false,false,517,image-keyboard-response,35
true,4,1,4,1,true,z,false,true,0.0-2.0-0.14-0.130-3.130,0,0,0,90,false,stim,false,2,540.5200000386685,0,0,0,17172,WMM1,421349,false,false,520,image-keyboard-response,36
true,4,1,4,1,true,z,false,true,0.0-2.0-0.14-0.131-3.131,0,0,0,90,false,stim,false,2,556.1799998395145,0,0,0,17172,WMM1,423431,false,false,523,image-keyboard-response,37
true,4,1,4,2,false,d,true,false,0.0-2.0-0.14-0.132-3.132,0,0,0,90,false,stim,false,0,416.3200000766665,0,0,1,17172,WMM1,425352,false,false,526,image-keyboard-response,38
true,4,2,4,2,true,d,false,false,0.0-2.0-0.14-0.133-3.133,0,0,0,68,false,stim,false,0,436.0249999444932,0,0,1,17172,WMM1,427295,false,true,529,image-keyboard-response,39
true,4,0,4,2,false,d,false,false,0.0-2.0-0.14-0.134-3.134,0,0,0,81,false,stim,true,0,464.54499987885356,0,0,1,17172,WMM1,429288,false,false,532,image-keyboard-response,40
true,4,1,4,1,true,z,false,true,0.0-2.0-0.15-0.135-3.135,0,0,0,90,false,stim,false,2,364.3749998882413,0,0,0,17172,WMM1,431166,false,false,535,image-keyboard-response,41
true,4,1,4,1,true,z,false,true,0.0-2.0-0.15-0.136-3.136,0,0,0,90,false,stim,false,0,435.6649999972433,0,0,2,17172,WMM1,433120,false,false,538,image-keyboard-response,42
true,4,1,4,1,true,z,false,true,0.0-2.0-0.15-0.137-3.137,0,0,0,90,false,stim,false,2,542.9400000721216,0,0,0,17172,WMM1,435182,false,false,541,image-keyboard-response,43
true,4,1,4,2,false,d,true,false,0.0-2.0-0.15-0.138-3.138,0,0,0,90,false,stim,false,0,568.1849999818951,0,0,1,17172,WMM1,437278,false,false,544,image-keyboard-response,44
true,4,2,4,2,true,d,false,true,0.0-2.0-0.15-0.139-3.139,0,0,0,68,false,stim,false,0,465.3849999886006,0,0,1,17172,WMM1,439271,false,false,547,image-keyboard-response,45
true,4,1,4,1,true,z,false,true,0.0-2.0-0.15-0.140-3.140,0,0,0,90,false,stim,false,0,428.9949999656528,0,0,2,17172,WMM1,441218,false,false,550,image-keyboard-response,46
true,4,1,4,1,true,z,false,true,0.0-2.0-0.15-0.141-3.141,0,0,0,90,false,stim,false,2,488.03999996744096,0,0,0,17172,WMM1,443231,false,false,553,image-keyboard-response,47
true,4,2,4,2,true,d,false,true,0.0-2.0-0.15-0.142-3.142,0,0,0,68,false,stim,false,0,399.91499995812774,0,0,1,17172,WMM1,445157,false,false,556,image-keyboard-response,48
true,4,1,4,1,true,z,false,true,0.0-2.0-0.15-0.143-3.143,0,0,0,90,false,stim,false,0,541.749999858439,0,0,2,17172,WMM1,447219,false,false,559,image-keyboard-response,49
true,4,1,4,1,true,z,false,true,0.0-2.0-0.16-0.144-3.144,0,0,0,90,false,stim,false,2,353.40999998152256,0,0,0,17172,WMM1,449097,false,false,562,image-keyboard-response,50
true,4,1,4,1,true,z,false,true,0.0-2.0-0.16-0.145-3.145,0,0,0,90,false,stim,false,2,400.46999999322,0,0,0,17172,WMM1,451017,false,false,565,image-keyboard-response,51
true,4,1,4,1,true,z,false,true,0.0-2.0-0.16-0.146-3.146,0,0,0,90,false,stim,false,2,719.3549999501556,0,0,0,17172,WMM1,453254,false,false,568,image-keyboard-response,52
true,4,2,4,2,true,d,false,true,0.0-2.0-0.16-0.147-3.147,0,0,0,68,false,stim,false,0,498.1750000733882,0,0,1,17172,WMM1,455271,false,false,571,image-keyboard-response,53
true,4,1,4,1,true,z,false,true,0.0-2.0-0.16-0.148-3.148,0,0,0,90,false,stim,false,0,651.4250000473112,0,0,2,17172,WMM1,457428,false,false,574,image-keyboard-response,54
true,4,2,4,1,false,z,true,false,0.0-2.0-0.16-0.149-3.149,0,0,0,68,false,stim,false,0,1374.040000140667,0,0,2,17172,WMM1,460307,false,false,577,image-keyboard-response,55
true,4,1,4,1,true,z,false,true,0.0-2.0-0.16-0.150-3.150,0,0,0,90,false,stim,false,0,1674.1850001271814,0,0,2,17172,WMM1,463495,false,false,580,image-keyboard-response,56
true,4,2,4,2,true,d,false,true,0.0-2.0-0.16-0.151-3.151,0,0,0,68,false,stim,false,0,776.4699999243021,0,0,1,17172,WMM1,465784,false,false,583,image-keyboard-response,57
true,4,2,4,2,true,d,false,true,0.0-2.0-0.16-0.152-3.152,0,0,0,68,false,stim,false,0,449.08499997109175,0,0,1,17172,WMM1,467756,false,false,586,image-keyboard-response,58
true,5,2,2,1,false,z,false,false,0.0-2.0-0.17-0.153-3.153,0,0,0,68,true,stim,true,2,504.08499990589917,0,0,1,17172,WMM1,469779,false,false,589,image-keyboard-response,1
true,5,1,2,0,false,q,false,false,0.0-2.0-0.17-0.154-3.154,0,0,0,90,false,stim,true,1,591.444999910891,0,0,0,17172,WMM1,471879,false,false,592,image-keyboard-response,2
true,5,1,2,2,false,d,false,false,0.0-2.0-0.17-0.155-3.155,0,0,0,90,false,stim,true,1,562.7399999648333,0,0,2,17172,WMM1,473972,false,false,595,image-keyboard-response,3
true,5,1,2,0,false,q,false,true,0.0-2.0-0.17-0.156-3.156,0,0,0,90,false,stim,true,1,992.4800000153482,0,0,0,17172,WMM1,476479,false,true,598,image-keyboard-response,4
true,5,2,2,1,false,z,false,false,0.0-2.0-0.17-0.157-3.157,0,0,0,68,false,stim,true,2,592.9550000000745,0,0,1,17172,WMM1,478580,false,false,601,image-keyboard-response,5
true,5,1,2,2,false,d,false,false,0.0-2.0-0.17-0.158-3.158,0,0,0,90,false,stim,true,1,548.3099999837577,0,0,2,17172,WMM1,480659,false,false,604,image-keyboard-response,6
true,5,0,2,2,false,d,true,false,0.0-2.0-0.17-0.159-3.159,0,0,0,81,false,stim,false,1,974.540000082925,0,0,2,17172,WMM1,483156,false,false,607,image-keyboard-response,7
true,5,0,2,1,false,z,true,false,0.0-2.0-0.17-0.160-3.160,0,0,0,81,false,stim,false,2,393.9699998591095,0,0,1,17172,WMM1,485081,false,false,610,image-keyboard-response,8
true,5,1,2,0,false,q,false,false,0.0-2.0-0.17-0.161-3.161,0,0,0,90,false,stim,true,1,669.5399999152869,0,0,0,17172,WMM1,487273,false,false,613,image-keyboard-response,9
true,5,1,2,0,false,q,false,false,0.0-2.0-0.18-0.162-3.162,0,0,0,90,false,stim,true,1,1007.065000012517,0,0,0,17172,WMM1,489809,false,false,616,image-keyboard-response,10
true,5,2,2,2,true,d,false,true,0.0-2.0-0.18-0.163-3.163,0,0,0,68,false,stim,false,1,1132.5749999377877,0,0,2,17172,WMM1,492461,false,false,619,image-keyboard-response,11
true,5,1,2,1,true,z,false,true,0.0-2.0-0.18-0.164-3.164,0,0,0,90,false,stim,false,2,516.6200001258403,0,0,1,17172,WMM1,494503,false,false,622,image-keyboard-response,12
true,5,1,2,1,true,z,false,true,0.0-2.0-0.18-0.165-3.165,0,0,0,90,false,stim,false,2,431.5899999346584,0,0,1,17172,WMM1,496460,false,false,625,image-keyboard-response,13
true,5,1,2,1,true,z,false,true,0.0-2.0-0.18-0.166-3.166,0,0,0,90,false,stim,false,2,368.65999992005527,0,0,1,17172,WMM1,498348,false,false,628,image-keyboard-response,14
true,5,2,2,2,true,d,false,true,0.0-2.0-0.18-0.167-3.167,0,0,0,68,false,stim,false,1,449.50499990954995,0,0,2,17172,WMM1,500317,false,false,631,image-keyboard-response,15
true,5,0,2,0,true,q,false,true,0.0-2.0-0.18-0.168-3.168,0,0,0,81,false,stim,false,1,631.4049998763949,0,0,0,17172,WMM1,502463,false,false,634,image-keyboard-response,16
true,5,0,2,0,true,q,false,true,0.0-2.0-0.18-0.169-3.169,0,0,0,81,false,stim,false,1,442.6649999804795,0,0,0,17172,WMM1,504426,false,false,637,image-keyboard-response,17
true,5,2,2,2,true,d,false,true,0.0-2.0-0.18-0.170-3.170,0,0,0,68,false,stim,false,1,361.89999990165234,0,0,2,17172,WMM1,506298,false,false,640,image-keyboard-response,18
true,5,2,2,2,true,d,false,true,0.0-2.0-0.19-0.171-3.171,0,0,0,68,false,stim,false,1,424.9899999704212,0,0,2,17172,WMM1,508250,false,false,643,image-keyboard-response,19
true,5,0,2,0,true,q,false,false,0.0-2.0-0.19-0.172-3.172,0,0,0,81,false,stim,false,1,753.2850001007318,0,0,0,17172,WMM1,510536,false,true,646,image-keyboard-response,20
true,5,0,2,0,true,q,false,true,0.0-2.0-0.19-0.173-3.173,0,0,0,81,false,stim,false,1,427.1100000478327,0,0,0,17172,WMM1,512486,false,false,649,image-keyboard-response,21
true,5,2,2,2,true,d,false,true,0.0-2.0-0.19-0.174-3.174,0,0,0,68,false,stim,false,1,480.0950000062585,0,0,2,17172,WMM1,514494,false,false,652,image-keyboard-response,22
true,5,1,2,1,true,z,false,true,0.0-2.0-0.19-0.175-3.175,0,0,0,90,false,stim,false,2,470.45499994419515,0,0,1,17172,WMM1,516483,false,false,655,image-keyboard-response,23
true,5,1,2,1,true,z,false,false,0.0-2.0-0.19-0.176-3.176,0,0,0,90,false,stim,false,2,459.2699999921024,0,0,1,17172,WMM1,518466,false,true,658,image-keyboard-response,24
true,5,1,2,1,true,z,false,true,0.0-2.0-0.19-0.177-3.177,0,0,0,90,false,stim,false,2,382.234999909997,0,0,1,17172,WMM1,520365,false,false,661,image-keyboard-response,25
true,5,2,2,2,true,d,false,true,0.0-2.0-0.19-0.178-3.178,0,0,0,68,false,stim,false,1,507.5550000183284,0,0,2,17172,WMM1,522388,false,false,664,image-keyboard-response,26
true,5,0,2,0,true,q,false,true,0.0-2.0-0.19-0.179-3.179,0,0,0,81,false,stim,false,1,506.04000012390316,0,0,0,17172,WMM1,524409,false,false,667,image-keyboard-response,27
true,5,2,2,2,true,d,false,true,0.0-2.0-0.20-0.180-3.180,0,0,0,68,false,stim,false,1,483.0449998844415,0,0,2,17172,WMM1,526405,false,false,670,image-keyboard-response,28
true,5,1,2,1,true,z,false,true,0.0-2.0-0.20-0.181-3.181,0,0,0,90,false,stim,false,2,387.7449999563396,0,0,1,17172,WMM1,528316,false,false,673,image-keyboard-response,29
true,5,0,2,0,true,q,false,true,0.0-2.0-0.20-0.182-3.182,0,0,0,81,false,stim,false,1,533.3199999295175,0,0,0,17172,WMM1,530359,false,false,676,image-keyboard-response,30
true,6,2,1,0,false,q,false,false,0.0-2.0-0.20-0.183-3.183,0,0,0,68,true,stim,true,2,372.0350000075996,0,0,2,17172,WMM1,532238,false,false,679,image-keyboard-response,1
true,6,0,1,0,true,q,false,true,0.0-2.0-0.20-0.184-3.184,0,0,0,81,false,stim,false,1,625.4050000570714,0,0,1,17172,WMM1,534392,false,false,682,image-keyboard-response,2
true,6,2,1,0,false,q,false,false,0.0-2.0-0.20-0.185-3.185,0,0,0,68,false,stim,true,2,583.199999993667,0,0,2,17172,WMM1,536500,false,false,685,image-keyboard-response,3
true,6,1,1,1,true,z,false,true,0.0-2.0-0.20-0.186-3.186,0,0,0,90,false,stim,false,0,634.8500000312924,0,0,0,17172,WMM1,538656,false,false,688,image-keyboard-response,4
true,6,0,1,0,true,q,false,true,0.0-2.0-0.20-0.187-3.187,0,0,0,81,false,stim,false,1,414.4800000358373,0,0,1,17172,WMM1,540590,false,false,691,image-keyboard-response,5
true,6,1,1,1,true,z,false,true,0.0-2.0-0.20-0.188-3.188,0,0,0,90,false,stim,false,0,601.4099998865277,0,0,0,17172,WMM1,542710,false,false,694,image-keyboard-response,6
true,6,0,1,0,true,q,false,false,0.0-2.0-0.21-0.189-3.189,0,0,0,81,false,stim,false,1,372.8499999269843,0,0,1,17172,WMM1,544608,false,true,697,image-keyboard-response,7
true,6,1,1,0,false,q,true,false,0.0-2.0-0.21-0.190-3.190,0,0,0,90,false,stim,false,2,763.0199999548495,0,0,2,17172,WMM1,546897,false,false,700,image-keyboard-response,8
true,6,0,1,0,true,q,false,true,0.0-2.0-0.21-0.191-3.191,0,0,0,81,false,stim,false,1,619.2749999463558,0,0,1,17172,WMM1,549049,false,false,703,image-keyboard-response,9
true,6,1,1,1,true,z,false,true,0.0-2.0-0.21-0.192-3.192,0,0,0,90,false,stim,false,0,361.90999997779727,0,0,0,17172,WMM1,550920,false,false,706,image-keyboard-response,10
true,6,0,1,0,true,q,false,true,0.0-2.0-0.21-0.193-3.193,0,0,0,81,false,stim,false,2,484.42000010982156,0,0,2,17172,WMM1,552926,false,false,709,image-keyboard-response,11
true,6,0,1,0,true,q,false,true,0.0-2.0-0.21-0.194-3.194,0,0,0,81,false,stim,false,1,380.0250000786036,0,0,1,17172,WMM1,554832,false,false,712,image-keyboard-response,12
true,6,1,1,1,true,z,false,true,0.0-2.0-0.21-0.195-3.195,0,0,0,90,false,stim,false,0,461.59500000067055,0,0,0,17172,WMM1,556817,false,false,715,image-keyboard-response,13
true,6,1,1,1,true,z,false,true,0.0-2.0-0.21-0.196-3.196,0,0,0,90,false,stim,false,0,505.5700000375509,0,0,0,17172,WMM1,558849,false,false,718,image-keyboard-response,14
true,6,0,1,0,true,q,false,true,0.0-2.0-0.21-0.197-3.197,0,0,0,81,false,stim,false,2,611.1450002063066,0,0,2,17172,WMM1,560986,false,false,721,image-keyboard-response,15
true,6,0,1,0,true,q,false,true,0.0-2.0-0.22-0.198-3.198,0,0,0,81,false,stim,false,2,484.9350000731647,0,0,2,17172,WMM1,562980,false,false,724,image-keyboard-response,16
true,6,1,1,1,true,z,false,true,0.0-2.0-0.22-0.199-3.199,0,0,0,90,false,stim,false,0,458.3499999716878,0,0,0,17172,WMM1,564968,false,false,727,image-keyboard-response,17
true,6,0,1,0,true,q,false,true,0.0-2.0-0.22-0.200-3.200,0,0,0,81,false,stim,false,1,446.8300000298768,0,0,1,17172,WMM1,566937,false,false,730,image-keyboard-response,18
true,6,0,1,0,true,q,false,true,0.0-2.0-0.22-0.201-3.201,0,0,0,81,false,stim,false,1,379.02499991469085,0,0,1,17172,WMM1,568835,false,false,733,image-keyboard-response,19
true,6,0,1,0,true,q,false,false,0.0-2.0-0.22-0.202-3.202,0,0,0,81,false,stim,false,2,337.13000011630356,0,0,2,17172,WMM1,570696,false,true,736,image-keyboard-response,20
true,6,1,1,1,true,z,false,true,0.0-2.0-0.22-0.203-3.203,0,0,0,90,false,stim,false,0,413.27999997884035,0,0,0,17172,WMM1,572628,false,false,739,image-keyboard-response,21
true,6,0,1,0,true,q,false,true,0.0-2.0-0.22-0.204-3.204,0,0,0,81,false,stim,false,1,333.3749999292195,0,0,1,17172,WMM1,574478,false,false,742,image-keyboard-response,22
true,6,0,1,0,true,q,false,true,0.0-2.0-0.22-0.205-3.205,0,0,0,81,false,stim,false,2,378.7950000260025,0,0,2,17172,WMM1,576369,false,false,745,image-keyboard-response,23
true,6,1,1,1,true,z,false,true,0.0-2.0-0.22-0.206-3.206,0,0,0,90,false,stim,false,0,313.11500002630055,0,0,0,17172,WMM1,578205,false,false,748,image-keyboard-response,24
true,6,0,1,0,true,q,false,true,0.0-2.0-0.23-0.207-3.207,0,0,0,81,false,stim,false,2,521.3399999774992,0,0,2,17172,WMM1,580252,false,false,751,image-keyboard-response,25
true,6,1,1,1,true,z,false,true,0.0-2.0-0.23-0.208-3.208,0,0,0,90,false,stim,false,0,848.8799999468029,0,0,0,17172,WMM1,582629,false,false,754,image-keyboard-response,26
true,6,1,1,1,true,z,false,true,0.0-2.0-0.23-0.209-3.209,0,0,0,90,false,stim,false,0,498.88999992981553,0,0,0,17172,WMM1,584651,false,false,757,image-keyboard-response,27
true,6,0,1,0,true,q,false,true,0.0-2.0-0.23-0.210-3.210,0,0,0,81,false,stim,false,1,400.41000000201166,0,0,1,17172,WMM1,586580,false,false,760,image-keyboard-response,28
true,6,0,1,0,true,q,false,true,0.0-2.0-0.23-0.211-3.211,0,0,0,81,false,stim,false,1,542.9150001145899,0,0,1,17172,WMM1,588654,false,false,763,image-keyboard-response,29
true,6,0,1,0,true,q,false,true,0.0-2.0-0.23-0.212-3.212,0,0,0,81,false,stim,false,1,418.9450000412762,0,0,1,17172,WMM1,590586,false,false,766,image-keyboard-response,30
true,7,1,2,0,false,q,false,false,0.0-2.0-0.23-0.213-3.213,0,0,0,90,true,stim,true,1,462.6149998512119,0,0,0,17172,WMM1,592575,false,false,769,image-keyboard-response,1
true,7,0,2,2,false,d,false,false,0.0-2.0-0.23-0.214-3.214,0,0,0,81,false,stim,true,0,417.62999980710447,0,0,2,17172,WMM1,594515,false,false,772,image-keyboard-response,2
true,7,1,2,2,false,d,true,false,0.0-2.0-0.23-0.215-3.215,0,0,0,90,false,stim,false,0,583.0900000873953,0,0,2,17172,WMM1,596613,false,false,775,image-keyboard-response,3
true,7,2,2,2,true,d,false,true,0.0-2.0-0.24-0.216-3.216,0,0,0,68,false,stim,false,0,642.5799999851733,0,0,2,17172,WMM1,598780,false,false,778,image-keyboard-response,4
true,7,0,2,1,false,z,false,false,0.0-2.0-0.24-0.217-3.217,0,0,0,81,false,stim,true,0,426.73499998636544,0,0,1,17172,WMM1,600730,false,false,781,image-keyboard-response,5
true,7,2,2,2,true,d,false,true,0.0-2.0-0.24-0.218-3.218,0,0,0,68,false,stim,false,0,568.4899999760091,0,0,2,17172,WMM1,602808,false,false,784,image-keyboard-response,6
true,7,0,2,1,false,z,false,false,0.0-2.0-0.24-0.219-3.219,0,0,0,81,false,stim,true,0,494.47500007227063,0,0,1,17172,WMM1,604825,false,false,787,image-keyboard-response,7
true,7,0,2,0,true,q,false,true,0.0-2.0-0.24-0.220-3.220,0,0,0,81,false,stim,false,1,386.1050000414252,0,0,0,17172,WMM1,606717,false,false,790,image-keyboard-response,8
true,7,2,2,2,true,d,false,true,0.0-2.0-0.24-0.221-3.221,0,0,0,68,false,stim,false,0,565.5650000553578,0,0,2,17172,WMM1,608801,false,false,793,image-keyboard-response,9
true,7,0,2,0,true,q,false,true,0.0-2.0-0.24-0.222-3.222,0,0,0,81,false,stim,false,1,496.0200001951307,0,0,0,17172,WMM1,610823,false,false,796,image-keyboard-response,10
true,7,1,2,1,true,z,false,true,0.0-2.0-0.24-0.223-3.223,0,0,0,90,false,stim,false,0,505.3499999921769,0,0,1,17172,WMM1,612834,false,false,799,image-keyboard-response,11
true,7,0,2,0,true,q,false,true,0.0-2.0-0.24-0.224-3.224,0,0,0,81,false,stim,false,1,405.7549999561161,0,0,0,17172,WMM1,614758,false,false,802,image-keyboard-response,12
true,7,0,2,0,true,q,false,true,0.0-2.0-0.25-0.225-3.225,0,0,0,81,false,stim,false,1,510.1399999111891,0,0,0,17172,WMM1,616797,false,false,805,image-keyboard-response,13
true,7,1,2,1,true,z,false,false,0.0-2.0-0.25-0.226-3.226,0,0,0,90,false,stim,false,0,416.01999988779426,0,0,1,17172,WMM1,618732,false,true,808,image-keyboard-response,14
true,7,2,2,2,true,d,false,true,0.0-2.0-0.25-0.227-3.227,0,0,0,68,false,stim,false,0,447.6650001015514,0,0,2,17172,WMM1,620698,false,false,811,image-keyboard-response,15
true,7,0,2,0,true,q,false,true,0.0-2.0-0.25-0.228-3.228,0,0,0,81,false,stim,false,1,460.1199999451637,0,0,0,17172,WMM1,622676,false,false,814,image-keyboard-response,16
true,7,2,2,2,true,d,false,true,0.0-2.0-0.25-0.229-3.229,0,0,0,68,false,stim,false,0,436.54999998398125,0,0,2,17172,WMM1,624633,false,false,817,image-keyboard-response,17
true,7,2,2,2,true,d,false,true,0.0-2.0-0.25-0.230-3.230,0,0,0,68,false,stim,false,0,490.19999988377094,0,0,2,17172,WMM1,626649,false,false,820,image-keyboard-response,18
true,7,1,2,1,true,z,false,true,0.0-2.0-0.25-0.231-3.231,0,0,0,90,false,stim,false,0,420.854999916628,0,0,1,17172,WMM1,628576,false,false,823,image-keyboard-response,19
true,7,0,2,0,true,q,false,true,0.0-2.0-0.25-0.232-3.232,0,0,0,81,false,stim,false,1,512.6650000456721,0,0,0,17172,WMM1,630619,false,false,826,image-keyboard-response,20
true,7,1,2,1,true,z,false,true,0.0-2.0-0.25-0.233-3.233,0,0,0,90,false,stim,false,0,445.8999999333173,0,0,1,17172,WMM1,632596,false,false,829,image-keyboard-response,21
true,7,0,2,0,true,q,false,true,0.0-2.0-0.26-0.234-3.234,0,0,0,81,false,stim,false,1,514.0400000382215,0,0,0,17172,WMM1,634630,false,false,832,image-keyboard-response,22
true,7,0,2,0,true,q,false,true,0.0-2.0-0.26-0.235-3.235,0,0,0,81,false,stim,false,1,477.964999852702,0,0,0,17172,WMM1,636631,false,false,835,image-keyboard-response,23
true,7,0,2,0,true,q,false,true,0.0-2.0-0.26-0.236-3.236,0,0,0,81,false,stim,false,1,443.60500015318394,0,0,0,17172,WMM1,638594,false,false,838,image-keyboard-response,24
true,7,1,2,1,true,z,false,true,0.0-2.0-0.26-0.237-3.237,0,0,0,90,false,stim,false,0,557.9649999272078,0,0,1,17172,WMM1,640675,false,false,841,image-keyboard-response,25
true,7,1,2,1,true,z,false,true,0.0-2.0-0.26-0.238-3.238,0,0,0,90,false,stim,false,0,322.7999999653548,0,0,1,17172,WMM1,642506,false,false,844,image-keyboard-response,26
true,7,2,2,2,true,d,false,true,0.0-2.0-0.26-0.239-3.239,0,0,0,68,false,stim,false,0,453.3100000116974,0,0,2,17172,WMM1,644483,false,false,847,image-keyboard-response,27
true,7,1,2,1,true,z,false,false,0.0-2.0-0.26-0.240-3.240,0,0,0,90,false,stim,false,0,411.1199998296797,0,0,1,17172,WMM1,646425,false,true,850,image-keyboard-response,28
true,7,2,2,2,true,d,false,true,0.0-2.0-0.26-0.241-3.241,0,0,0,68,false,stim,false,0,383.6900000460446,0,0,2,17172,WMM1,648325,false,false,853,image-keyboard-response,29
true,7,2,2,2,true,d,false,true,0.0-2.0-0.26-0.242-3.242,0,0,0,68,false,stim,false,0,589.2199999652803,0,0,2,17172,WMM1,650431,false,false,856,image-keyboard-response,30
true,8,2,1,0,false,q,false,false,0.0-2.0-0.27-0.243-3.243,0,0,0,68,true,stim,true,2,412.9849998280406,0,0,2,17172,WMM1,652361,false,false,859,image-keyboard-response,1
true,8,1,1,2,false,d,false,false,0.0-2.0-0.27-0.244-3.244,0,0,0,90,false,stim,true,1,372.5999998860061,0,0,1,17172,WMM1,654242,false,false,862,image-keyboard-response,2
true,8,2,1,0,false,q,false,false,0.0-2.0-0.27-0.245-3.245,0,0,0,68,false,stim,true,2,424.30500010959804,0,0,2,17172,WMM1,656195,false,false,865,image-keyboard-response,3
true,8,0,1,2,false,d,false,false,0.0-2.0-0.27-0.246-3.246,0,0,0,81,false,stim,true,0,481.96000000461936,0,0,0,17172,WMM1,658203,false,false,868,image-keyboard-response,4
true,8,1,1,0,false,q,true,false,0.0-2.0-0.27-0.247-3.247,0,0,0,90,false,stim,false,2,645.0999998487532,0,0,2,17172,WMM1,660378,false,false,871,image-keyboard-response,5
true,8,0,1,2,false,d,false,false,0.0-2.0-0.27-0.248-3.248,0,0,0,81,false,stim,true,0,687.6850000116974,0,0,0,17172,WMM1,662585,false,false,874,image-keyboard-response,6
true,8,2,1,2,true,d,false,false,0.0-2.0-0.27-0.249-3.249,0,0,0,68,false,stim,false,1,629.5749999117106,0,0,1,17172,WMM1,664742,false,true,877,image-keyboard-response,7
true,8,0,1,2,false,d,true,false,0.0-2.0-0.27-0.250-3.250,0,0,0,81,false,stim,false,1,426.89500004053116,0,0,1,17172,WMM1,666693,false,false,880,image-keyboard-response,8
true,8,2,1,2,true,d,false,true,0.0-2.0-0.27-0.251-3.251,0,0,0,68,false,stim,false,0,1176.824999973178,0,0,0,17172,WMM1,669376,false,false,883,image-keyboard-response,9
true,8,1,1,0,false,q,true,false,0.0-2.0-0.28-0.252-3.252,0,0,0,90,false,stim,false,2,668.3950000442564,0,0,2,17172,WMM1,671566,false,false,886,image-keyboard-response,10
true,8,2,1,2,true,d,false,true,0.0-2.0-0.28-0.253-3.253,0,0,0,68,false,stim,false,0,480.16000003553927,0,0,0,17172,WMM1,673571,false,false,889,image-keyboard-response,11
true,8,0,1,0,true,q,false,true,0.0-2.0-0.28-0.254-3.254,0,0,0,81,false,stim,false,2,410.0599999073893,0,0,2,17172,WMM1,675508,false,false,892,image-keyboard-response,12
true,8,1,1,2,false,d,false,false,0.0-2.0-0.28-0.255-3.255,0,0,0,90,false,stim,true,1,711.4000001456589,0,0,1,17172,WMM1,677743,false,false,895,image-keyboard-response,13
true,8,0,1,0,true,q,false,false,0.0-2.0-0.28-0.256-3.256,0,0,0,81,false,stim,false,2,777.5099999271333,0,0,2,17172,WMM1,680039,false,true,898,image-keyboard-response,14
true,8,2,1,2,true,d,false,true,0.0-2.0-0.28-0.257-3.257,0,0,0,68,false,stim,false,0,457.4149998370558,0,0,0,17172,WMM1,682010,false,false,901,image-keyboard-response,15
true,8,0,1,2,false,d,true,false,0.0-2.0-0.28-0.258-3.258,0,0,0,81,false,stim,false,1,711.200000019744,0,0,1,17172,WMM1,684240,false,false,904,image-keyboard-response,16
true,8,2,1,2,true,d,false,true,0.0-2.0-0.28-0.259-3.259,0,0,0,68,false,stim,false,0,870.4049999359995,0,0,0,17172,WMM1,686635,false,false,907,image-keyboard-response,17
true,8,0,1,2,false,d,true,false,0.0-2.0-0.28-0.260-3.260,0,0,0,81,false,stim,false,1,629.674999974668,0,0,1,17172,WMM1,688788,false,false,910,image-keyboard-response,18
true,8,2,1,2,true,d,false,true,0.0-2.0-0.29-0.261-3.261,0,0,0,68,false,stim,false,1,558.7450000457466,0,0,1,17172,WMM1,690866,false,false,913,image-keyboard-response,19
true,8,2,1,2,true,d,false,true,0.0-2.0-0.29-0.262-3.262,0,0,0,68,false,stim,false,0,376.3800000306219,0,0,0,17172,WMM1,692766,false,false,916,image-keyboard-response,20
true,8,2,1,2,true,d,false,true,0.0-2.0-0.29-0.263-3.263,0,0,0,68,false,stim,false,0,404.9700000323355,0,0,0,17172,WMM1,694687,false,false,919,image-keyboard-response,21
true,8,2,1,2,true,d,false,true,0.0-2.0-0.29-0.264-3.264,0,0,0,68,false,stim,false,1,349.87500007264316,0,0,1,17172,WMM1,696564,false,false,922,image-keyboard-response,22
true,8,1,1,0,false,q,true,false,0.0-2.0-0.29-0.265-3.265,0,0,0,90,false,stim,false,2,404.8199998214841,0,0,2,17172,WMM1,698475,false,false,925,image-keyboard-response,23
true,8,2,1,2,true,d,false,true,0.0-2.0-0.29-0.266-3.266,0,0,0,68,false,stim,false,0,435.6300001963973,0,0,0,17172,WMM1,700428,false,false,928,image-keyboard-response,24
true,8,2,1,2,true,d,false,true,0.0-2.0-0.29-0.267-3.267,0,0,0,68,false,stim,false,1,543.2349999900907,0,0,1,17172,WMM1,702480,false,false,931,image-keyboard-response,25
true,8,2,1,0,false,q,false,false,0.0-2.0-0.29-0.268-3.268,0,0,0,68,false,stim,true,2,345.3849998768419,0,0,2,17172,WMM1,704353,false,false,934,image-keyboard-response,26
true,8,0,1,0,true,q,false,true,0.0-2.0-0.29-0.269-3.269,0,0,0,81,false,stim,false,2,1003.8900000508875,0,0,2,17172,WMM1,706887,false,false,937,image-keyboard-response,27
true,8,2,1,2,true,d,false,true,0.0-2.0-0.30-0.270-3.270,0,0,0,68,false,stim,false,0,417.68000018782914,0,0,0,17172,WMM1,708836,false,false,940,image-keyboard-response,28
true,8,2,1,2,true,d,false,true,0.0-2.0-0.30-0.271-3.271,0,0,0,68,false,stim,false,1,387.2500001452863,0,0,1,17172,WMM1,710738,false,false,943,image-keyboard-response,29
true,8,2,1,0,false,q,false,false,0.0-2.0-0.30-0.272-3.272,0,0,0,68,false,stim,true,2,474.9350000638515,0,0,2,17172,WMM1,712738,false,false,946,image-keyboard-response,30
true,8,2,1,2,true,d,false,true,0.0-2.0-0.30-0.273-3.273,0,0,0,68,false,stim,false,1,394.91500006988645,0,0,1,17172,WMM1,714653,false,false,949,image-keyboard-response,31
true,8,2,1,2,true,d,false,true,0.0-2.0-0.30-0.274-3.274,0,0,0,68,false,stim,false,1,396.4949999935925,0,0,1,17172,WMM1,716570,false,false,952,image-keyboard-response,32
true,9,2,2,0,false,q,false,false,0.0-2.0-0.30-0.275-3.275,0,0,0,68,true,stim,true,2,530.9250000864267,0,0,0,17172,WMM1,718627,false,false,955,image-keyboard-response,1
true,9,0,2,2,false,d,false,false,0.0-2.0-0.30-0.276-3.276,0,0,0,81,false,stim,true,0,606.0000001452863,0,0,2,17172,WMM1,720749,false,false,958,image-keyboard-response,2
true,9,0,2,2,false,d,false,false,0.0-2.0-0.30-0.277-3.277,0,0,0,81,false,stim,true,0,522.0600001048297,0,0,2,17172,WMM1,722781,false,false,961,image-keyboard-response,3
true,9,1,2,0,false,q,true,false,0.0-2.0-0.30-0.278-3.278,0,0,0,90,false,stim,false,2,1290.535000152886,0,0,0,17172,WMM1,725594,false,false,964,image-keyboard-response,4
true,9,2,2,0,false,q,false,false,0.0-2.0-0.31-0.279-3.279,0,0,0,68,false,stim,true,2,616.8599999509752,0,0,0,17172,WMM1,727732,false,false,967,image-keyboard-response,5
true,9,2,2,2,true,d,false,true,0.0-2.0-0.31-0.280-3.280,0,0,0,68,false,stim,false,0,1307.3700000531971,0,0,2,17172,WMM1,730558,false,false,970,image-keyboard-response,6
true,9,2,2,1,false,z,false,false,0.0-2.0-0.31-0.281-3.281,0,0,0,68,false,stim,true,2,722.8099999483675,0,0,1,17172,WMM1,732800,false,false,973,image-keyboard-response,7
true,9,0,2,1,false,z,true,false,0.0-2.0-0.31-0.282-3.282,0,0,0,81,false,stim,false,2,1554.64500002563,0,0,1,17172,WMM1,735876,false,false,976,image-keyboard-response,8
true,9,2,2,2,true,d,false,true,0.0-2.0-0.31-0.283-3.283,0,0,0,68,false,stim,false,0,608.754999935627,0,0,2,17172,WMM1,738003,false,false,979,image-keyboard-response,9
true,9,1,2,0,false,q,true,false,0.0-2.0-0.31-0.284-3.284,0,0,0,90,false,stim,false,2,1376.9449999090284,0,0,0,17172,WMM1,740903,false,false,982,image-keyboard-response,10
true,9,0,2,0,true,q,false,true,0.0-2.0-0.31-0.285-3.285,0,0,0,81,false,stim,false,2,401.5349999535829,0,0,0,17172,WMM1,742865,false,false,985,image-keyboard-response,11
true,9,2,2,1,false,z,false,false,0.0-2.0-0.31-0.286-3.286,0,0,0,68,false,stim,true,2,1780.7450001128018,0,0,1,17172,WMM1,746179,false,false,988,image-keyboard-response,12
true,9,2,2,2,true,d,false,true,0.0-2.0-0.31-0.287-3.287,0,0,0,68,false,stim,false,0,318.3699999935925,0,0,2,17172,WMM1,748027,false,false,991,image-keyboard-response,13
true,9,2,2,2,true,d,false,true,0.0-2.0-0.32-0.288-3.288,0,0,0,68,false,stim,false,0,420.36499991081655,0,0,2,17172,WMM1,749973,false,false,994,image-keyboard-response,14
true,9,2,2,2,true,d,false,true,0.0-2.0-0.32-0.289-3.289,0,0,0,68,false,stim,false,0,580.1249998621643,0,0,2,17172,WMM1,752083,false,false,997,image-keyboard-response,15
true,9,0,2,0,true,q,false,true,0.0-2.0-0.32-0.290-3.290,0,0,0,81,false,stim,false,2,359.29000005126,0,0,0,17172,WMM1,753967,false,false,1000,image-keyboard-response,16
true,9,2,2,2,true,d,false,true,0.0-2.0-0.32-0.291-3.291,0,0,0,68,false,stim,false,0,624.5750000234693,0,0,2,17172,WMM1,756121,false,false,1003,image-keyboard-response,17
true,9,0,2,1,false,z,true,false,0.0-2.0-0.32-0.292-3.292,0,0,0,81,false,stim,false,2,1009.9400000181049,0,0,1,17172,WMM1,758660,false,false,1006,image-keyboard-response,18
true,9,2,2,1,false,z,false,false,0.0-2.0-0.32-0.293-3.293,0,0,0,68,false,stim,true,2,587.8200000151992,0,0,1,17172,WMM1,760778,false,false,1009,image-keyboard-response,19
true,9,0,2,0,true,q,false,true,0.0-2.0-0.32-0.294-3.294,0,0,0,81,false,stim,false,2,608.0549999605864,0,0,0,17172,WMM1,762913,false,false,1012,image-keyboard-response,20
true,9,2,2,1,false,z,false,false,0.0-2.0-0.32-0.295-3.295,0,0,0,68,false,stim,true,2,1071.3250001426786,0,0,1,17172,WMM1,765511,false,false,1015,image-keyboard-response,21
true,9,0,2,0,true,q,false,true,0.0-2.0-0.32-0.296-3.296,0,0,0,81,false,stim,false,2,605.83999985829,0,0,0,17172,WMM1,767628,false,false,1018,image-keyboard-response,22
true,9,2,2,2,true,d,false,true,0.0-2.0-0.33-0.297-3.297,0,0,0,68,false,stim,false,0,477.5499999523163,0,0,2,17172,WMM1,769628,false,false,1021,image-keyboard-response,23
true,9,0,2,1,false,z,true,false,0.0-2.0-0.33-0.298-3.298,0,0,0,81,false,stim,false,2,407.2100000921637,0,0,1,17172,WMM1,771567,false,false,1024,image-keyboard-response,24
true,9,0,2,0,true,q,false,true,0.0-2.0-0.33-0.299-3.299,0,0,0,81,false,stim,false,2,512.2899999842048,0,0,0,17172,WMM1,773604,false,false,1027,image-keyboard-response,25
true,9,2,2,2,true,d,false,true,0.0-2.0-0.33-0.300-3.300,0,0,0,68,false,stim,false,0,421.8150000087917,0,0,2,17172,WMM1,775535,false,false,1030,image-keyboard-response,26
true,9,0,2,0,true,q,false,true,0.0-2.0-0.33-0.301-3.301,0,0,0,81,false,stim,false,2,617.094999877736,0,0,0,17172,WMM1,777676,false,false,1033,image-keyboard-response,27
false,9,-1,2,1,false,z,true,false,0.0-2.0-0.33-0.302-3.302,0,0,0,,false,stim,false,2,,0,0,1,17172,WMM1,782200,false,false,1036,image-keyboard-response,28
true,9,2,2,2,true,d,false,true,0.0-2.0-0.33-0.303-3.303,0,0,0,68,false,stim,false,0,494.8499999009073,0,0,2,17172,WMM1,784221,false,false,1039,image-keyboard-response,29
true,9,2,2,1,false,z,false,false,0.0-2.0-0.33-0.304-3.304,0,0,0,68,false,stim,true,2,680.8200001250952,0,0,1,17172,WMM1,786433,false,false,1042,image-keyboard-response,30
true,9,0,2,0,true,q,false,true,0.0-2.0-0.33-0.305-3.305,0,0,0,81,false,stim,false,2,358.63499995321035,0,0,0,17172,WMM1,788314,false,false,1045,image-keyboard-response,31
true,9,0,2,1,false,z,true,false,0.0-2.0-0.34-0.306-3.306,0,0,0,81,false,stim,false,2,759.5550001133233,0,0,1,17172,WMM1,790600,false,false,1048,image-keyboard-response,32
true,9,0,2,0,true,q,false,true,0.0-2.0-0.34-0.307-3.307,0,0,0,81,false,stim,false,2,529.2800001334399,0,0,0,17172,WMM1,792649,false,false,1051,image-keyboard-response,33
true,9,2,2,2,true,d,false,true,0.0-2.0-0.34-0.308-3.308,0,0,0,68,false,stim,false,0,614.3549999687821,0,0,2,17172,WMM1,794772,false,false,1054,image-keyboard-response,34
true,9,2,2,2,true,d,false,true,0.0-2.0-0.34-0.309-3.309,0,0,0,68,false,stim,false,0,426.74500006251037,0,0,2,17172,WMM1,796722,false,false,1057,image-keyboard-response,35
true,9,2,2,1,false,z,false,true,0.0-2.0-0.34-0.310-3.310,0,0,0,68,false,stim,true,2,377.97999987378716,0,0,1,17172,WMM1,798629,false,true,1060,image-keyboard-response,36
true,9,0,2,0,true,q,false,true,0.0-2.0-0.34-0.311-3.311,0,0,0,81,false,stim,false,2,438.9899999368936,0,0,0,17172,WMM1,800578,false,false,1063,image-keyboard-response,37
true,9,2,2,1,false,z,false,false,0.0-2.0-0.34-0.312-3.312,0,0,0,68,false,stim,true,2,254.5300000347197,0,0,1,17172,WMM1,802356,false,false,1066,image-keyboard-response,38
true,9,2,2,2,true,d,false,true,0.0-2.0-0.34-0.313-3.313,0,0,0,68,false,stim,false,0,231.62500001490116,0,0,2,17172,WMM1,804115,false,false,1069,image-keyboard-response,39
true,9,0,2,0,true,q,false,true,0.0-2.0-0.34-0.314-3.314,0,0,0,81,false,stim,false,2,440.8550001680851,0,0,0,17172,WMM1,806088,false,false,1072,image-keyboard-response,40
true,9,2,2,0,false,q,false,false,0.0-2.0-0.35-0.315-3.315,0,0,0,68,false,stim,true,2,251.80500000715256,0,0,0,17172,WMM1,807865,false,false,1075,image-keyboard-response,41
true,9,2,2,2,true,d,false,true,0.0-2.0-0.35-0.316-3.316,0,0,0,68,false,stim,false,0,532.0449999999255,0,0,2,17172,WMM1,809924,false,false,1078,image-keyboard-response,42
true,9,2,2,1,false,z,false,false,0.0-2.0-0.35-0.317-3.317,0,0,0,68,false,stim,true,2,304.75999996997416,0,0,1,17172,WMM1,811744,false,false,1081,image-keyboard-response,43
true,9,0,2,0,true,q,false,false,0.0-2.0-0.35-0.318-3.318,0,0,0,81,false,stim,false,2,466.5800000075251,0,0,0,17172,WMM1,813724,false,true,1084,image-keyboard-response,44
true,9,0,2,1,false,z,true,false,0.0-2.0-0.35-0.319-3.319,0,0,0,81,false,stim,false,2,357.36000002361834,0,0,1,17172,WMM1,815600,false,false,1087,image-keyboard-response,45
true,9,0,2,0,true,q,false,true,0.0-2.0-0.35-0.320-3.320,0,0,0,81,false,stim,false,2,1369.8650000151247,0,0,0,17172,WMM1,818500,false,false,1090,image-keyboard-response,46
true,9,2,2,2,true,d,false,true,0.0-2.0-0.35-0.321-3.321,0,0,0,68,false,stim,false,0,497.52500001341105,0,0,2,17172,WMM1,820525,false,false,1093,image-keyboard-response,47
true,9,2,2,2,true,d,false,true,0.0-2.0-0.35-0.322-3.322,0,0,0,68,false,stim,false,0,549.5050000026822,0,0,2,17172,WMM1,822594,false,false,1096,image-keyboard-response,48
true,9,1,2,1,true,z,false,true,0.0-2.0-0.35-0.323-3.323,0,0,0,90,false,stim,false,2,391.3199999369681,0,0,1,17172,WMM1,824505,false,false,1099,image-keyboard-response,49
true,9,1,2,1,true,z,false,true,0.0-2.0-0.36-0.324-3.324,0,0,0,90,false,stim,false,2,358.4549999795854,0,0,1,17172,WMM1,826392,false,false,1102,image-keyboard-response,50
true,9,2,2,2,true,d,false,true,0.0-2.0-0.36-0.325-3.325,0,0,0,68,false,stim,false,0,511.0149998217821,0,1,2,17172,WMM1,828420,false,false,1105,image-keyboard-response,51
true,9,0,2,0,true,q,false,true,0.0-2.0-0.36-0.326-3.326,0,0,0,81,false,stim,false,2,521.4350000023842,0,0,0,17172,WMM1,830448,false,false,1108,image-keyboard-response,52
true,9,0,2,0,true,q,false,true,0.0-2.0-0.36-0.327-3.327,0,0,0,81,false,stim,false,2,437.82000010833144,0,0,0,17172,WMM1,832406,false,false,1111,image-keyboard-response,53
true,9,2,2,2,true,d,false,false,0.0-2.0-0.36-0.328-3.328,0,0,0,68,false,stim,false,0,411.579999839887,0,1,2,17172,WMM1,834335,false,true,1114,image-keyboard-response,54
true,9,1,2,1,true,z,false,true,0.0-2.0-0.36-0.329-3.329,0,0,0,90,false,stim,false,2,425.27999985031784,0,0,1,17172,WMM1,836281,false,false,1117,image-keyboard-response,55
true,9,2,2,2,true,d,false,true,0.0-2.0-0.36-0.330-3.330,0,0,0,68,false,stim,false,0,404.35500000603497,0,1,2,17172,WMM1,838209,false,false,1120,image-keyboard-response,56
true,9,0,2,0,true,q,false,true,0.0-2.0-0.36-0.331-3.331,0,0,0,81,false,stim,false,2,333.11499981209636,0,0,0,17172,WMM1,840066,false,false,1123,image-keyboard-response,57
true,9,1,2,1,true,z,false,true,0.0-2.0-0.36-0.332-3.332,0,0,0,90,false,stim,false,2,433.45999997109175,0,0,1,17172,WMM1,842024,false,false,1126,image-keyboard-response,58
true,9,0,2,0,true,q,false,true,0.0-2.0-0.37-0.333-3.333,0,0,0,81,false,stim,false,2,600.0649998895824,0,0,0,17172,WMM1,844146,false,false,1129,image-keyboard-response,59
true,9,1,2,1,true,z,false,true,0.0-2.0-0.37-0.334-3.334,0,0,0,90,false,stim,false,2,947.7999999653548,0,0,1,17172,WMM1,846625,false,false,1132,image-keyboard-response,60
true,10,2,3,2,true,d,false,true,0.0-2.0-0.37-0.335-3.335,0,0,1,68,true,stim,false,2,372.8549999650568,0,1,2,17172,WMM1,848513,false,false,1135,image-keyboard-response,1
true,10,1,3,2,false,d,false,false,0.0-2.0-0.37-0.336-3.336,0,0,1,90,false,stim,true,1,371.2649999652058,0,0,1,17172,WMM1,850414,false,false,1138,image-keyboard-response,2
true,10,2,3,2,true,d,false,true,0.0-2.0-0.37-0.337-3.337,0,0,1,68,false,stim,false,2,415.29500018805265,0,1,2,17172,WMM1,852345,false,false,1141,image-keyboard-response,3
true,10,0,3,1,false,z,false,false,0.0-2.0-0.37-0.338-3.338,0,0,1,81,false,stim,true,0,622.7150000631809,0,0,0,17172,WMM1,854495,false,false,1144,image-keyboard-response,4
true,10,1,3,2,false,d,false,false,0.0-2.0-0.37-0.339-3.339,0,0,1,90,false,stim,true,1,608.2150000147521,0,0,1,17172,WMM1,856626,false,false,1147,image-keyboard-response,5
true,10,1,3,1,true,z,false,true,0.0-2.0-0.37-0.340-3.340,0,0,1,90,false,stim,false,0,553.8250000681728,0,0,0,17172,WMM1,858707,false,false,1150,image-keyboard-response,6
true,10,2,3,2,true,d,false,true,0.0-2.0-0.37-0.341-3.341,0,0,1,68,false,stim,false,2,471.15500015206635,0,1,2,17172,WMM1,860711,false,false,1153,image-keyboard-response,7
true,10,0,3,2,false,d,true,false,0.0-2.0-0.38-0.342-3.342,0,0,1,81,false,stim,false,1,382.94000015594065,0,0,1,17172,WMM1,862615,false,false,1156,image-keyboard-response,8
true,10,2,3,2,true,d,false,true,0.0-2.0-0.38-0.343-3.343,0,0,1,68,false,stim,false,2,556.7600000649691,0,1,2,17172,WMM1,864697,false,false,1159,image-keyboard-response,9
true,10,2,3,2,true,d,false,true,0.0-2.0-0.38-0.344-3.344,0,0,1,68,false,stim,false,2,546.485000057146,0,1,2,17172,WMM1,866762,false,false,1162,image-keyboard-response,10
true,10,2,3,2,true,d,false,true,0.0-2.0-0.38-0.345-3.345,0,0,1,68,false,stim,false,1,532.9599999822676,0,0,1,17172,WMM1,868827,false,false,1165,image-keyboard-response,11
true,10,2,3,2,true,d,false,true,0.0-2.0-0.38-0.346-3.346,0,0,1,68,false,stim,false,2,577.1649999078363,0,1,2,17172,WMM1,870930,false,false,1168,image-keyboard-response,12
true,10,2,3,2,true,d,false,true,0.0-2.0-0.38-0.347-3.347,0,0,1,68,false,stim,false,1,662.2999999672174,0,0,1,17172,WMM1,873119,false,false,1171,image-keyboard-response,13
true,10,1,3,1,true,z,false,false,0.0-2.0-0.38-0.348-3.348,0,0,1,90,false,stim,false,0,439.2799998167902,0,0,0,17172,WMM1,875080,false,true,1174,image-keyboard-response,14
true,10,1,3,1,true,z,false,true,0.0-2.0-0.38-0.349-3.349,0,0,1,90,false,stim,false,0,707.3799998033792,0,0,0,17172,WMM1,877316,false,false,1177,image-keyboard-response,15
true,10,2,3,1,false,z,true,false,0.0-2.0-0.38-0.350-3.350,0,0,1,68,false,stim,false,0,769.0500000026077,0,0,0,17172,WMM1,879603,false,false,1180,image-keyboard-response,16
true,10,1,3,1,true,z,false,true,0.0-2.0-0.39-0.351-3.351,0,0,1,90,false,stim,false,0,355.974999954924,0,0,0,17172,WMM1,881473,false,false,1183,image-keyboard-response,17
true,10,1,3,1,true,z,false,true,0.0-2.0-0.39-0.352-3.352,0,0,1,90,false,stim,false,0,461.2450001295656,0,0,0,17172,WMM1,883463,false,false,1186,image-keyboard-response,18
true,10,1,3,1,true,z,false,true,0.0-2.0-0.39-0.353-3.353,0,0,1,90,false,stim,false,0,349.4850001297891,0,0,0,17172,WMM1,885334,false,false,1189,image-keyboard-response,19
true,10,2,3,2,true,d,false,true,0.0-2.0-0.39-0.354-3.354,0,0,1,68,false,stim,false,1,595.424999948591,0,0,1,17172,WMM1,887451,false,false,1192,image-keyboard-response,20
true,10,2,3,2,true,d,false,true,0.0-2.0-0.39-0.355-3.355,0,0,1,68,false,stim,false,1,403.83500000461936,0,1,1,17172,WMM1,889385,false,false,1195,image-keyboard-response,21
true,10,2,3,2,true,d,false,true,0.0-2.0-0.39-0.356-3.356,0,0,1,68,false,stim,false,1,383.12500016763806,0,1,1,17172,WMM1,891302,false,false,1198,image-keyboard-response,22
true,10,2,3,2,true,d,false,true,0.0-2.0-0.39-0.357-3.357,0,0,1,68,false,stim,false,2,366.6250000242144,0,0,2,17172,WMM1,893202,false,false,1201,image-keyboard-response,23
true,10,2,3,2,true,d,false,true,0.0-2.0-0.39-0.358-3.358,0,0,1,68,false,stim,false,2,505.44999982230365,0,0,2,17172,WMM1,895223,false,false,1204,image-keyboard-response,24
true,10,2,3,2,true,d,false,false,0.0-2.0-0.39-0.359-3.359,0,0,1,68,false,stim,false,2,490.7350002322346,0,0,2,17172,WMM1,897235,false,true,1207,image-keyboard-response,25
true,10,2,3,2,true,d,false,true,0.0-2.0-0.40-0.360-3.360,0,0,1,68,false,stim,false,1,449.93999996222556,0,1,1,17172,WMM1,899205,false,false,1210,image-keyboard-response,26
true,10,2,3,2,true,d,false,true,0.0-2.0-0.40-0.361-3.361,0,0,1,68,false,stim,false,1,371.369999833405,0,1,1,17172,WMM1,901093,false,false,1213,image-keyboard-response,27
true,10,1,3,1,true,z,false,true,0.0-2.0-0.40-0.362-3.362,0,0,1,90,false,stim,false,0,390.54000005126,0,0,0,17172,WMM1,903011,false,false,1216,image-keyboard-response,28
true,10,1,3,1,true,z,false,true,0.0-2.0-0.40-0.363-3.363,0,0,1,90,false,stim,false,0,622.4050000309944,0,0,0,17172,WMM1,905162,false,false,1219,image-keyboard-response,29
true,10,2,3,2,true,d,false,true,0.0-2.0-0.40-0.364-3.364,0,0,1,68,false,stim,false,2,479.72000017762184,0,0,2,17172,WMM1,907159,false,false,1222,image-keyboard-response,30
true,11,1,3,2,false,d,true,false,0.0-2.0-0.40-0.365-3.365,0,1,0,90,true,stim,false,2,771.8499999027699,0,1,1,17172,WMM1,909453,false,false,1225,image-keyboard-response,1
true,11,2,3,0,false,q,true,false,0.0-2.0-0.40-0.366-3.366,0,1,0,68,false,stim,false,1,1260.7100000604987,0,0,0,17172,WMM1,912239,false,false,1228,image-keyboard-response,2
true,11,2,3,0,false,q,false,false,0.0-2.0-0.40-0.367-3.367,0,1,0,68,false,stim,true,2,364.0300000552088,0,0,2,17172,WMM1,914128,false,false,1231,image-keyboard-response,3
true,11,2,3,0,false,q,false,false,0.0-2.0-0.40-0.368-3.368,0,1,0,68,false,stim,true,2,461.06500015594065,0,0,2,17172,WMM1,916109,false,false,1234,image-keyboard-response,4
true,11,0,3,0,true,q,false,true,0.0-2.0-0.41-0.369-3.369,0,1,0,81,false,stim,false,2,340.2350000105798,0,0,2,17172,WMM1,917967,false,false,1237,image-keyboard-response,5
true,11,1,3,0,false,q,false,false,0.0-2.0-0.41-0.370-3.370,0,1,0,90,false,stim,true,1,493.4649998322129,0,0,0,17172,WMM1,919990,false,false,1240,image-keyboard-response,6
true,11,2,3,0,false,q,true,false,0.0-2.0-0.41-0.371-3.371,0,1,0,68,false,stim,false,1,600.2899999730289,0,0,0,17172,WMM1,922122,false,false,1243,image-keyboard-response,7
true,11,0,3,0,true,q,false,false,0.0-2.0-0.41-0.372-3.372,0,1,0,81,false,stim,false,2,403.47500005736947,0,0,2,17172,WMM1,924041,false,true,1246,image-keyboard-response,8
true,11,2,3,2,true,d,false,true,0.0-2.0-0.41-0.373-3.373,0,1,0,68,false,stim,false,2,874.610000057146,0,1,1,17172,WMM1,926447,false,false,1249,image-keyboard-response,9
true,11,0,3,0,true,q,false,true,0.0-2.0-0.41-0.374-3.374,0,1,0,81,false,stim,false,1,661.9349999818951,0,0,0,17172,WMM1,928632,false,false,1252,image-keyboard-response,10
true,11,0,3,0,true,q,false,true,0.0-2.0-0.41-0.375-3.375,0,1,0,81,false,stim,false,2,395.2200000640005,0,0,2,17172,WMM1,930554,false,false,1255,image-keyboard-response,11
true,11,2,3,2,true,d,false,false,0.0-2.0-0.41-0.376-3.376,0,1,0,68,false,stim,false,2,640.9449998755008,0,1,1,17172,WMM1,932713,false,true,1258,image-keyboard-response,12
true,11,2,3,2,true,d,false,true,0.0-2.0-0.41-0.377-3.377,0,1,0,68,false,stim,false,2,701.2000000104308,0,1,1,17172,WMM1,934939,false,false,1261,image-keyboard-response,13
true,11,0,3,0,true,q,false,true,0.0-2.0-0.42-0.378-3.378,0,1,0,81,false,stim,false,1,303.4599998500198,0,0,0,17172,WMM1,936767,false,false,1264,image-keyboard-response,14
true,11,0,3,0,true,q,false,true,0.0-2.0-0.42-0.379-3.379,0,1,0,81,false,stim,false,1,503.66499996744096,0,0,0,17172,WMM1,938797,false,false,1267,image-keyboard-response,15
true,11,2,3,2,true,d,false,true,0.0-2.0-0.42-0.380-3.380,0,1,0,68,false,stim,false,2,633.9249999728054,0,1,1,17172,WMM1,940947,false,false,1270,image-keyboard-response,16
true,11,0,3,0,true,q,false,true,0.0-2.0-0.42-0.381-3.381,0,1,0,81,false,stim,false,2,565.4050000011921,0,0,2,17172,WMM1,943026,false,false,1273,image-keyboard-response,17
true,11,0,3,0,true,q,false,true,0.0-2.0-0.42-0.382-3.382,0,1,0,81,false,stim,false,1,811.5000000689179,0,0,0,17172,WMM1,945366,false,false,1276,image-keyboard-response,18
true,11,0,3,0,true,q,false,true,0.0-2.0-0.42-0.383-3.383,0,1,0,81,false,stim,false,2,502.89000011980534,0,0,2,17172,WMM1,947395,false,false,1279,image-keyboard-response,19
true,11,0,3,0,true,q,false,true,0.0-2.0-0.42-0.384-3.384,0,1,0,81,false,stim,false,2,509.0349998790771,0,0,2,17172,WMM1,949422,false,false,1282,image-keyboard-response,20
true,11,0,3,2,false,d,true,false,0.0-2.0-0.42-0.385-3.385,0,1,0,81,false,stim,false,2,1456.209999974817,0,0,1,17172,WMM1,952400,false,false,1285,image-keyboard-response,21
true,11,2,3,2,true,d,false,true,0.0-2.0-0.42-0.386-3.386,0,1,0,68,false,stim,false,2,390.72000002488494,0,0,1,17172,WMM1,954315,false,false,1288,image-keyboard-response,22
true,11,2,3,2,true,d,false,true,0.0-2.0-0.43-0.387-3.387,0,1,0,68,false,stim,false,2,676.3449998106807,0,0,1,17172,WMM1,956519,false,false,1291,image-keyboard-response,23
true,11,0,3,0,true,q,false,true,0.0-2.0-0.43-0.388-3.388,0,1,0,81,false,stim,false,1,1073.9849999081343,0,0,0,17172,WMM1,959113,false,false,1294,image-keyboard-response,24
true,11,2,3,2,true,d,false,true,0.0-2.0-0.43-0.389-3.389,0,1,0,68,false,stim,false,2,811.7599999532104,0,0,1,17172,WMM1,961443,false,false,1297,image-keyboard-response,25
true,11,2,3,2,true,d,false,true,0.0-2.0-0.43-0.390-3.390,0,1,0,68,false,stim,false,2,440.53500005975366,0,0,1,17172,WMM1,963389,false,false,1300,image-keyboard-response,26
true,11,0,3,0,true,q,false,true,0.0-2.0-0.43-0.391-3.391,0,1,0,81,false,stim,false,1,550.9999999776483,0,0,0,17172,WMM1,965462,false,false,1303,image-keyboard-response,27
true,11,0,3,0,true,q,false,true,0.0-2.0-0.43-0.392-3.392,0,1,0,81,false,stim,false,2,727.3899998981506,0,0,2,17172,WMM1,967718,false,false,1306,image-keyboard-response,28
true,11,0,3,0,true,q,false,true,0.0-2.0-0.43-0.393-3.393,0,1,0,81,false,stim,false,2,495.9800001233816,0,0,2,17172,WMM1,969738,false,false,1309,image-keyboard-response,29
true,11,0,3,0,true,q,false,true,0.0-2.0-0.43-0.394-3.394,0,1,0,81,false,stim,false,2,590.6950000207871,0,0,2,17172,WMM1,971843,false,false,1312,image-keyboard-response,30
true,12,2,1,1,false,z,true,false,0.0-2.0-0.43-0.395-3.395,0,0,0,68,true,stim,false,0,603.8750000298023,0,0,0,17172,WMM1,973968,false,false,1315,image-keyboard-response,1
true,12,0,1,1,false,z,false,false,0.0-2.0-0.44-0.396-3.396,0,0,0,81,false,stim,true,0,500.0249999575317,0,0,0,17172,WMM1,975994,false,false,1318,image-keyboard-response,2
true,12,0,1,2,false,d,false,false,0.0-2.0-0.44-0.397-3.397,0,0,0,81,false,stim,true,0,450.35500009544194,0,0,2,17172,WMM1,977964,false,false,1321,image-keyboard-response,3
true,12,2,1,1,false,z,false,false,0.0-2.0-0.44-0.398-3.398,0,0,0,68,false,stim,true,2,424.3199999909848,0,0,1,17172,WMM1,979908,false,false,1324,image-keyboard-response,4
true,12,0,1,2,false,d,false,false,0.0-2.0-0.44-0.399-3.399,0,0,0,81,false,stim,true,0,464.9149999022484,0,0,2,17172,WMM1,981895,false,false,1327,image-keyboard-response,5
true,12,1,1,2,false,d,true,false,0.0-2.0-0.44-0.400-3.400,0,0,0,90,false,stim,false,0,402.13499986566603,0,0,2,17172,WMM1,983829,false,false,1330,image-keyboard-response,6
true,12,0,1,1,false,z,false,false,0.0-2.0-0.44-0.401-3.401,0,0,0,81,false,stim,true,0,776.029999833554,0,0,0,17172,WMM1,986121,false,false,1333,image-keyboard-response,7
true,12,2,1,1,false,z,true,false,0.0-2.0-0.44-0.402-3.402,0,0,0,68,false,stim,false,0,540.9699999727309,0,0,0,17172,WMM1,988176,false,false,1336,image-keyboard-response,8
true,12,2,1,1,false,z,false,true,0.0-2.0-0.44-0.403-3.403,0,0,0,68,false,stim,true,2,555.0899999216199,0,0,1,17172,WMM1,990251,false,true,1339,image-keyboard-response,9
true,12,2,1,1,false,z,false,false,0.0-2.0-0.44-0.404-3.404,0,0,0,68,false,stim,true,2,628.4099998883903,0,0,1,17172,WMM1,992401,false,false,1342,image-keyboard-response,10
true,12,1,1,2,false,d,true,false,0.0-2.0-0.45-0.405-3.405,0,0,0,90,false,stim,false,0,903.0550001189113,0,0,2,17172,WMM1,994826,false,false,1345,image-keyboard-response,11
true,12,2,1,1,false,z,false,false,0.0-2.0-0.45-0.406-3.406,0,0,0,68,false,stim,true,2,677.1949999965727,0,0,1,17172,WMM1,997032,false,false,1348,image-keyboard-response,12
true,12,0,1,1,false,z,true,false,0.0-2.0-0.45-0.407-3.407,0,0,0,81,false,stim,false,2,391.53499994426966,0,0,1,17172,WMM1,998930,false,false,1351,image-keyboard-response,13
true,12,2,1,2,true,d,false,false,0.0-2.0-0.45-0.408-3.408,0,0,0,68,false,stim,false,0,569.0250000916421,0,0,2,17172,WMM1,1001016,false,true,1354,image-keyboard-response,14
true,12,0,1,2,false,d,false,false,0.0-2.0-0.45-0.409-3.409,0,0,0,81,false,stim,true,0,496.99999997392297,0,0,2,17172,WMM1,1003041,false,false,1357,image-keyboard-response,15
true,12,2,1,1,false,z,true,false,0.0-2.0-0.45-0.410-3.410,0,0,0,68,false,stim,false,0,1016.5050001814961,0,0,0,17172,WMM1,1005576,false,false,1360,image-keyboard-response,16
true,12,0,1,1,false,z,false,false,0.0-2.0-0.45-0.411-3.411,0,0,0,81,false,stim,true,0,495.76999992132187,0,0,0,17172,WMM1,1007592,false,false,1363,image-keyboard-response,17
true,12,0,1,1,false,z,true,false,0.0-2.0-0.45-0.412-3.412,0,0,0,81,false,stim,false,2,707.1999998297542,0,0,1,17172,WMM1,1009825,false,false,1366,image-keyboard-response,18
true,12,1,1,1,true,z,false,true,0.0-2.0-0.45-0.413-3.413,0,0,0,90,false,stim,false,0,547.5500000175089,0,0,0,17172,WMM1,1011893,false,false,1369,image-keyboard-response,19
true,12,1,1,1,true,z,false,true,0.0-2.0-0.46-0.414-3.414,0,0,0,90,false,stim,false,2,789.9949999991804,0,0,1,17172,WMM1,1014206,false,false,1372,image-keyboard-response,20
true,12,1,1,1,true,z,false,false,0.0-2.0-0.46-0.415-3.415,0,0,0,90,false,stim,false,0,440.16500003635883,0,0,0,17172,WMM1,1016178,false,true,1375,image-keyboard-response,21
true,12,2,1,2,true,d,false,true,0.0-2.0-0.46-0.416-3.416,0,0,0,68,false,stim,false,0,666.8300000019372,0,0,2,17172,WMM1,1018357,false,false,1378,image-keyboard-response,22
true,12,1,1,1,true,z,false,true,0.0-2.0-0.46-0.417-3.417,0,0,0,90,false,stim,false,2,805.919999955222,0,0,1,17172,WMM1,1020687,false,false,1381,image-keyboard-response,23
true,12,1,1,1,true,z,false,true,0.0-2.0-0.46-0.418-3.418,0,0,0,90,false,stim,false,2,495.58499990962446,0,0,1,17172,WMM1,1022700,false,false,1384,image-keyboard-response,24
true,12,1,1,1,true,z,false,true,0.0-2.0-0.46-0.419-3.419,0,0,0,90,false,stim,false,0,345.0600001960993,0,0,0,17172,WMM1,1024568,false,false,1387,image-keyboard-response,25
true,12,2,1,2,true,d,false,true,0.0-2.0-0.46-0.420-3.420,0,0,0,68,false,stim,false,0,402.13499986566603,0,0,2,17172,WMM1,1026483,false,false,1390,image-keyboard-response,26
true,12,1,1,1,true,z,false,true,0.0-2.0-0.46-0.421-3.421,0,0,0,90,false,stim,false,0,483.68499986827374,0,0,0,17172,WMM1,1028494,false,false,1393,image-keyboard-response,27
true,12,1,1,2,false,d,true,false,0.0-2.0-0.46-0.422-3.422,0,0,0,90,false,stim,false,0,807.5000001117587,0,0,2,17172,WMM1,1030830,false,false,1396,image-keyboard-response,28
true,12,1,1,1,true,z,false,true,0.0-2.0-0.47-0.423-3.423,0,0,0,90,false,stim,false,0,379.285000031814,0,0,0,17172,WMM1,1032723,false,false,1399,image-keyboard-response,29
true,12,1,1,1,true,z,false,true,0.0-2.0-0.47-0.424-3.424,0,0,0,90,false,stim,false,0,451.8299999181181,0,0,0,17172,WMM1,1034698,false,false,1402,image-keyboard-response,30
true,12,1,1,2,false,d,true,false,0.0-2.0-0.47-0.425-3.425,0,0,0,90,false,stim,false,0,1148.3399998396635,0,0,2,17172,WMM1,1037373,false,false,1405,image-keyboard-response,31
true,12,1,1,1,true,z,false,true,0.0-2.0-0.47-0.426-3.426,0,0,0,90,false,stim,false,2,680.9499999508262,0,0,1,17172,WMM1,1039573,false,false,1408,image-keyboard-response,32
true,12,2,1,2,true,d,false,true,0.0-2.0-0.47-0.427-3.427,0,0,0,68,false,stim,false,0,423.7999999895692,0,0,2,17172,WMM1,1041513,false,false,1411,image-keyboard-response,33
true,12,2,1,2,true,d,false,true,0.0-2.0-0.47-0.428-3.428,0,0,0,68,false,stim,false,0,387.4500000383705,0,0,2,17172,WMM1,1043426,false,false,1414,image-keyboard-response,34
true,12,1,1,1,true,z,false,true,0.0-2.0-0.47-0.429-3.429,0,0,0,90,false,stim,false,2,549.0649999119341,0,0,1,17172,WMM1,1045501,false,false,1417,image-keyboard-response,35
true,12,1,1,1,true,z,false,true,0.0-2.0-0.47-0.430-3.430,0,0,0,90,false,stim,false,0,527.8449999168515,0,0,0,17172,WMM1,1047555,false,false,1420,image-keyboard-response,36
true,13,1,4,0,false,q,false,false,0.0-2.0-0.47-0.431-3.431,0,0,0,90,true,stim,true,1,934.6449999138713,0,0,1,17172,WMM1,1050006,false,false,1423,image-keyboard-response,1
true,13,1,4,2,false,d,false,false,0.0-2.0-0.48-0.432-3.432,0,0,0,90,false,stim,true,1,420.7500000484288,0,0,0,17172,WMM1,1051954,false,false,1426,image-keyboard-response,2
true,13,1,4,0,false,q,false,false,0.0-2.0-0.48-0.433-3.433,0,0,0,90,false,stim,true,1,680.5350000504404,0,0,1,17172,WMM1,1054164,false,false,1429,image-keyboard-response,3
true,13,0,4,0,true,q,false,true,0.0-2.0-0.48-0.434-3.434,0,0,0,81,false,stim,false,1,515.3649998828769,0,0,1,17172,WMM1,1056200,false,false,1432,image-keyboard-response,4
true,13,2,4,1,false,z,false,false,0.0-2.0-0.48-0.435-3.435,0,0,0,68,false,stim,true,2,477.57000010460615,0,0,2,17172,WMM1,1058206,false,false,1435,image-keyboard-response,5
true,13,0,4,0,true,q,false,true,0.0-2.0-0.48-0.436-3.436,0,0,0,81,false,stim,false,1,429.05499995686114,0,0,1,17172,WMM1,1060154,false,false,1438,image-keyboard-response,6
true,13,1,4,2,false,d,false,true,0.0-2.0-0.48-0.437-3.437,0,0,0,90,false,stim,true,1,455.3849999792874,0,0,0,17172,WMM1,1062138,false,true,1441,image-keyboard-response,7
true,13,1,4,2,false,d,false,false,0.0-2.0-0.48-0.438-3.438,0,0,0,90,false,stim,true,1,512.9100000485778,0,0,0,17172,WMM1,1064174,false,false,1444,image-keyboard-response,8
true,13,2,4,1,false,z,false,false,0.0-2.0-0.48-0.439-3.439,0,0,0,68,false,stim,true,2,472.0250000245869,0,0,2,17172,WMM1,1066179,false,false,1447,image-keyboard-response,9
true,13,1,4,1,true,z,false,true,0.0-2.0-0.48-0.440-3.440,0,0,0,90,false,stim,false,2,396.99499984271824,0,0,2,17172,WMM1,1068097,false,false,1450,image-keyboard-response,10
true,13,1,4,1,true,z,false,false,0.0-2.0-0.49-0.441-3.441,0,0,0,90,false,stim,false,2,426.65000003762543,0,0,2,17172,WMM1,1070034,false,true,1453,image-keyboard-response,11
true,13,1,4,1,true,z,false,true,0.0-2.0-0.49-0.442-3.442,0,0,0,90,false,stim,false,2,466.61000000312924,0,0,2,17172,WMM1,1072024,false,false,1456,image-keyboard-response,12
true,13,0,4,0,true,q,false,true,0.0-2.0-0.49-0.443-3.443,0,0,0,81,false,stim,false,1,744.8350000195205,0,0,1,17172,WMM1,1074294,false,false,1459,image-keyboard-response,13
true,13,1,4,1,true,z,false,true,0.0-2.0-0.49-0.444-3.444,0,0,0,90,false,stim,false,2,606.8249999079853,0,0,2,17172,WMM1,1076433,false,false,1462,image-keyboard-response,14
true,13,2,4,2,true,d,false,true,0.0-2.0-0.49-0.445-3.445,0,0,0,68,false,stim,false,1,518.6799999792129,0,0,0,17172,WMM1,1078481,false,false,1465,image-keyboard-response,15
true,13,0,4,0,true,q,false,true,0.0-2.0-0.49-0.446-3.446,0,0,0,81,false,stim,false,1,667.1649999916553,0,0,1,17172,WMM1,1080674,false,false,1468,image-keyboard-response,16
true,13,0,4,0,true,q,false,true,0.0-2.0-0.49-0.447-3.447,0,0,0,81,false,stim,false,1,558.8850001804531,0,0,1,17172,WMM1,1082776,false,false,1471,image-keyboard-response,17
true,13,2,4,2,true,d,false,false,0.0-2.0-0.49-0.448-3.448,0,0,0,68,false,stim,false,1,465.22000012919307,0,0,0,17172,WMM1,1084762,false,true,1474,image-keyboard-response,18
true,13,0,4,2,false,d,true,false,0.0-2.0-0.49-0.449-3.449,0,0,0,81,false,stim,false,1,506.9050001911819,0,0,0,17172,WMM1,1086800,false,false,1477,image-keyboard-response,19
true,13,2,4,1,false,z,false,false,0.0-2.0-0.50-0.450-3.450,0,0,0,68,false,stim,true,2,754.624999826774,0,0,2,17172,WMM1,1089077,false,false,1480,image-keyboard-response,20
true,13,1,4,1,true,z,false,true,0.0-2.0-0.50-0.451-3.451,0,0,0,90,false,stim,false,2,1183.3599999081343,0,0,2,17172,WMM1,1091780,false,false,1483,image-keyboard-response,21
true,13,2,4,2,true,d,false,true,0.0-2.0-0.50-0.452-3.452,0,0,0,68,false,stim,false,1,693.8000000081956,0,0,0,17172,WMM1,1093994,false,false,1486,image-keyboard-response,22
true,13,1,4,1,true,z,false,true,0.0-2.0-0.50-0.453-3.453,0,0,0,90,false,stim,false,2,463.62000005319715,0,0,2,17172,WMM1,1095982,false,false,1489,image-keyboard-response,23
true,13,0,4,0,true,q,false,true,0.0-2.0-0.50-0.454-3.454,0,0,0,81,false,stim,false,1,404.94000003673136,0,0,1,17172,WMM1,1097918,false,false,1492,image-keyboard-response,24
true,13,2,4,2,true,d,false,false,0.0-2.0-0.50-0.455-3.455,0,0,0,68,false,stim,false,1,551.6949999146163,0,0,0,17172,WMM1,1099993,false,true,1495,image-keyboard-response,25
true,13,0,4,0,true,q,false,true,0.0-2.0-0.50-0.456-3.456,0,0,0,81,false,stim,false,1,928.6400000564754,0,1,1,17172,WMM1,1102441,false,false,1498,image-keyboard-response,26
true,13,0,4,0,true,q,false,true,0.0-2.0-0.50-0.457-3.457,0,0,0,81,false,stim,false,1,584.3650000169873,0,1,1,17172,WMM1,1104535,false,false,1501,image-keyboard-response,27
true,13,2,4,2,true,d,false,true,0.0-2.0-0.50-0.458-3.458,0,0,0,68,false,stim,false,1,881.0799999628216,0,1,0,17172,WMM1,1106935,false,false,1504,image-keyboard-response,28
true,13,1,4,1,true,z,false,true,0.0-2.0-0.51-0.459-3.459,0,0,0,90,false,stim,false,2,409.165000077337,0,1,2,17172,WMM1,1108853,false,false,1507,image-keyboard-response,29
true,13,1,4,1,true,z,false,true,0.0-2.0-0.51-0.460-3.460,0,0,0,90,false,stim,false,2,579.0349999442697,0,1,2,17172,WMM1,1110958,false,false,1510,image-keyboard-response,30
true,13,2,4,2,true,d,false,true,0.0-2.0-0.51-0.461-3.461,0,0,0,68,false,stim,false,1,563.7399998959154,0,1,0,17172,WMM1,1113052,false,false,1513,image-keyboard-response,31
true,13,1,4,0,false,q,false,false,0.0-2.0-0.51-0.462-3.462,0,0,0,90,false,stim,true,1,473.16999989561737,0,1,1,17172,WMM1,1115053,false,false,1516,image-keyboard-response,32
true,13,1,4,0,false,q,false,false,0.0-2.0-0.51-0.463-3.463,0,0,0,90,false,stim,true,1,762.2700000647455,0,1,1,17172,WMM1,1117334,false,false,1519,image-keyboard-response,33
true,13,2,4,1,false,z,false,false,0.0-2.0-0.51-0.464-3.464,0,0,0,68,false,stim,true,2,523.3899999875575,0,1,2,17172,WMM1,1119374,false,false,1522,image-keyboard-response,34
true,13,2,4,2,true,d,false,true,0.0-2.0-0.51-0.465-3.465,0,0,0,68,false,stim,false,1,515.6150001566857,0,1,0,17172,WMM1,1121410,false,false,1525,image-keyboard-response,35
true,14,0,0,0,true,q,false,true,0.0-2.0-0.51-0.466-3.466,1,1,1,81,true,stim,false,0,777.8000000398606,0,1,1,17172,WMM1,1244960,false,false,1648,image-keyboard-response,1
true,14,1,0,2,false,d,true,false,0.0-2.0-0.51-0.467-3.467,1,1,1,90,false,stim,false,2,637.0600000955164,0,1,0,17172,WMM1,1247103,false,false,1651,image-keyboard-response,2
true,14,2,0,2,true,d,false,true,0.0-2.0-0.52-0.468-3.468,1,1,1,68,false,stim,false,2,444.1849999129772,0,1,0,17172,WMM1,1249079,false,false,1654,image-keyboard-response,3
true,14,1,0,1,true,z,false,true,0.0-2.0-0.52-0.469-3.469,1,1,1,90,false,stim,false,1,337.86999993026257,0,1,2,17172,WMM1,1250934,false,false,1657,image-keyboard-response,4
true,14,2,0,2,true,d,false,false,0.0-2.0-0.52-0.470-3.470,1,1,1,68,false,stim,false,2,495.66500005312264,0,1,0,17172,WMM1,1252958,false,true,1660,image-keyboard-response,5
true,14,0,0,0,true,q,false,true,0.0-2.0-0.52-0.471-3.471,1,1,1,81,false,stim,false,0,464.20999988913536,0,1,1,17172,WMM1,1254938,false,false,1663,image-keyboard-response,6
true,14,1,0,2,false,d,true,false,0.0-2.0-0.52-0.472-3.472,1,1,1,90,false,stim,false,2,816.3999998942018,0,1,0,17172,WMM1,1257278,false,false,1666,image-keyboard-response,7
true,14,2,0,1,false,z,true,false,0.0-2.0-0.52-0.473-3.473,1,1,1,68,false,stim,false,1,421.34000011719763,0,1,2,17172,WMM1,1259207,false,false,1669,image-keyboard-response,8
true,14,0,0,0,true,q,false,true,0.0-2.0-0.52-0.474-3.474,1,1,1,81,false,stim,false,0,597.6950000040233,0,1,1,17172,WMM1,1261329,false,false,1672,image-keyboard-response,9
true,14,0,0,0,true,q,false,true,0.0-2.0-0.52-0.475-3.475,1,1,1,81,false,stim,false,0,578.8950000423938,0,1,1,17172,WMM1,1263431,false,false,1675,image-keyboard-response,10
true,14,1,0,1,true,z,false,true,0.0-2.0-0.52-0.476-3.476,1,1,1,90,false,stim,false,1,466.06999984942377,0,1,2,17172,WMM1,1265424,false,false,1678,image-keyboard-response,11
true,14,2,0,2,true,d,false,true,0.0-2.0-0.53-0.477-3.477,1,1,1,68,false,stim,false,2,417.7899998612702,0,1,0,17172,WMM1,1267366,false,false,1681,image-keyboard-response,12
true,14,0,0,0,true,q,false,true,0.0-2.0-0.53-0.478-3.478,1,1,1,81,false,stim,false,0,494.6399999316782,0,1,1,17172,WMM1,1269394,false,false,1684,image-keyboard-response,13
true,14,2,0,2,true,d,false,true,0.0-2.0-0.53-0.479-3.479,1,1,1,68,false,stim,false,2,847.7849999908358,0,1,0,17172,WMM1,1271756,false,false,1687,image-keyboard-response,14
true,14,1,0,1,true,z,false,true,0.0-2.0-0.53-0.480-3.480,1,1,1,90,false,stim,false,1,423.5699998680502,0,1,2,17172,WMM1,1273698,false,false,1690,image-keyboard-response,15
true,14,0,0,0,true,q,false,true,0.0-2.0-0.53-0.481-3.481,1,1,1,81,false,stim,false,0,674.9249999411404,0,1,1,17172,WMM1,1275903,false,false,1693,image-keyboard-response,16
true,14,2,0,1,false,z,true,false,0.0-2.0-0.53-0.482-3.482,1,1,1,68,false,stim,false,1,575.124999973923,0,1,2,17172,WMM1,1277997,false,false,1696,image-keyboard-response,17
true,14,2,0,2,true,d,false,true,0.0-2.0-0.53-0.483-3.483,1,1,1,68,false,stim,false,2,686.9600000791252,0,1,0,17172,WMM1,1280212,false,false,1699,image-keyboard-response,18
true,14,0,0,0,true,q,false,true,0.0-2.0-0.53-0.484-3.484,1,1,1,81,false,stim,false,0,487.3399999924004,0,1,1,17172,WMM1,1282226,false,false,1702,image-keyboard-response,19
true,14,1,0,1,true,z,false,false,0.0-2.0-0.53-0.485-3.485,1,1,1,90,false,stim,false,1,609.1150001157075,0,1,2,17172,WMM1,1284357,false,true,1705,image-keyboard-response,20
true,14,1,0,1,true,z,false,true,0.0-2.0-0.54-0.486-3.486,1,1,1,90,false,stim,false,1,353.364999871701,0,1,2,17172,WMM1,1286239,false,false,1708,image-keyboard-response,21
true,14,0,0,0,true,q,false,true,0.0-2.0-0.54-0.487-3.487,1,1,1,81,false,stim,false,0,334.83500010333955,0,0,1,17172,WMM1,1288106,false,false,1711,image-keyboard-response,22
true,14,2,0,2,true,d,false,true,0.0-2.0-0.54-0.488-3.488,1,1,1,68,false,stim,false,2,635.685000102967,0,0,0,17172,WMM1,1290249,false,false,1714,image-keyboard-response,23
true,14,2,0,1,false,z,true,true,0.0-2.0-0.54-0.489-3.489,1,1,1,68,false,stim,false,1,1370.2700000721961,0,0,2,17172,WMM1,1293147,false,true,1717,image-keyboard-response,24
true,14,1,0,2,false,d,true,false,0.0-2.0-0.54-0.490-3.490,1,1,1,90,false,stim,false,2,443.27499996870756,0,0,0,17172,WMM1,1295105,false,false,1720,image-keyboard-response,25
true,14,0,0,0,true,q,false,true,0.0-2.0-0.54-0.491-3.491,1,1,1,81,false,stim,false,0,570.7249999977648,0,0,1,17172,WMM1,1297195,false,false,1723,image-keyboard-response,26
true,14,0,0,0,true,q,false,true,0.0-2.0-0.54-0.492-3.492,1,1,1,81,false,stim,false,0,598.5349998809397,0,0,1,17172,WMM1,1299305,false,false,1726,image-keyboard-response,27
true,14,2,0,1,false,z,true,false,0.0-2.0-0.54-0.493-3.493,1,1,1,68,false,stim,false,1,643.7699999660254,0,0,2,17172,WMM1,1301463,false,false,1729,image-keyboard-response,28
true,14,2,0,2,true,d,false,true,0.0-2.0-0.54-0.494-3.494,1,1,1,68,false,stim,false,2,343.75500003807247,0,0,0,17172,WMM1,1303326,false,false,1732,image-keyboard-response,29
true,14,1,0,1,true,z,false,false,0.0-2.0-0.55-0.495-3.495,1,1,1,90,false,stim,false,1,485.0099999457598,0,0,2,17172,WMM1,1305342,false,true,1735,image-keyboard-response,30
true,14,2,0,1,false,z,true,false,0.0-2.0-0.55-0.496-3.496,1,1,1,68,false,stim,false,1,873.545000096783,0,0,2,17172,WMM1,1307743,false,false,1738,image-keyboard-response,31
true,15,2,2,2,true,d,false,true,0.0-2.0-0.55-0.497-3.497,0,0,0,68,true,stim,false,1,573.9449998363853,0,0,2,17172,WMM1,1309835,false,false,1741,image-keyboard-response,1
true,15,2,2,0,false,q,false,false,0.0-2.0-0.55-0.498-3.498,0,0,0,68,false,stim,true,2,371.79000000469387,0,0,0,17172,WMM1,1311726,false,false,1744,image-keyboard-response,2
true,15,0,2,1,false,z,false,true,0.0-2.0-0.55-0.499-3.499,0,0,0,81,false,stim,true,0,443.44999990426004,0,0,1,17172,WMM1,1313678,false,true,1747,image-keyboard-response,3
true,15,2,2,0,false,q,false,false,0.0-2.0-0.55-0.500-3.500,0,0,0,68,false,stim,true,2,497.1799999475479,0,0,0,17172,WMM1,1315684,false,false,1750,image-keyboard-response,4
true,15,0,2,1,false,z,false,true,0.0-2.0-0.55-0.501-3.501,0,0,0,81,false,stim,true,0,655.3550001699477,0,0,1,17172,WMM1,1317858,false,true,1753,image-keyboard-response,5
true,15,0,2,0,true,q,false,true,0.0-2.0-0.55-0.502-3.502,0,0,0,81,false,stim,false,2,436.38999992981553,0,0,0,17172,WMM1,1319803,false,false,1756,image-keyboard-response,6
true,15,0,2,1,false,z,false,false,0.0-2.0-0.55-0.503-3.503,0,0,0,81,false,stim,true,0,387.21499987877905,0,0,1,17172,WMM1,1321720,false,false,1759,image-keyboard-response,7
true,15,0,2,1,false,z,false,true,0.0-2.0-0.56-0.504-3.504,0,0,0,81,false,stim,true,0,401.54999983496964,0,0,1,17172,WMM1,1323655,false,true,1762,image-keyboard-response,8
true,15,0,2,0,true,q,false,false,0.0-2.0-0.56-0.505-3.505,0,0,0,81,false,stim,false,2,410.050000064075,0,0,0,17172,WMM1,1325597,false,true,1765,image-keyboard-response,9
true,15,0,2,1,false,z,false,false,0.0-2.0-0.56-0.506-3.506,0,0,0,81,false,stim,true,0,445.88999985717237,0,0,1,17172,WMM1,1327566,false,false,1768,image-keyboard-response,10
true,15,2,2,2,true,d,false,true,0.0-2.0-0.56-0.507-3.507,0,0,0,68,false,stim,false,1,604.4149999506772,0,0,2,17172,WMM1,1329689,false,false,1771,image-keyboard-response,11
true,15,2,2,2,true,d,false,true,0.0-2.0-0.56-0.508-3.508,0,0,0,68,false,stim,false,1,489.31999993510544,0,0,2,17172,WMM1,1331705,false,false,1774,image-keyboard-response,12
true,15,2,2,2,true,d,false,true,0.0-2.0-0.56-0.509-3.509,0,0,0,68,false,stim,false,1,440.8699998166412,0,0,2,17172,WMM1,1333673,false,false,1777,image-keyboard-response,13
true,15,1,2,0,false,q,true,false,0.0-2.0-0.56-0.510-3.510,0,0,0,90,false,stim,false,2,527.0199999213219,0,0,0,17172,WMM1,1335721,false,false,1780,image-keyboard-response,14
true,15,0,2,0,true,q,false,false,0.0-2.0-0.56-0.511-3.511,0,0,0,81,false,stim,false,2,684.8300001583993,0,0,0,17172,WMM1,1337929,false,true,1783,image-keyboard-response,15
true,15,0,2,1,false,z,false,false,0.0-2.0-0.56-0.512-3.512,0,0,0,81,false,stim,true,0,721.9650000333786,0,0,1,17172,WMM1,1340180,false,false,1786,image-keyboard-response,16
true,15,2,2,2,true,d,false,true,0.0-2.0-0.57-0.513-3.513,0,0,0,68,false,stim,false,1,589.9450001306832,0,0,2,17172,WMM1,1342299,false,false,1789,image-keyboard-response,17
true,15,2,2,1,false,z,true,true,0.0-2.0-0.57-0.514-3.514,0,0,0,68,false,stim,false,0,357.3300000280142,0,0,1,17172,WMM1,1344174,false,true,1792,image-keyboard-response,18
true,15,1,2,0,false,q,true,false,0.0-2.0-0.57-0.515-3.515,0,0,0,90,false,stim,false,2,304.40000002272427,0,0,0,17172,WMM1,1346002,false,false,1795,image-keyboard-response,19
true,15,2,2,2,true,d,false,true,0.0-2.0-0.57-0.516-3.516,0,0,0,68,false,stim,false,1,403.2600000500679,0,0,2,17172,WMM1,1347922,false,false,1798,image-keyboard-response,20
true,15,2,2,0,false,q,false,false,0.0-2.0-0.57-0.517-3.517,0,0,0,68,false,stim,true,2,358.03000000305474,0,0,0,17172,WMM1,1349814,false,false,1801,image-keyboard-response,21
true,15,2,2,0,false,q,false,false,0.0-2.0-0.57-0.518-3.518,0,0,0,68,false,stim,true,2,398.19000009447336,0,0,0,17172,WMM1,1351740,false,false,1804,image-keyboard-response,22
true,15,2,2,1,false,z,true,false,0.0-2.0-0.57-0.519-3.519,0,0,0,68,false,stim,false,0,636.8500001262873,0,0,1,17172,WMM1,1353899,false,false,1807,image-keyboard-response,23
true,15,2,2,2,true,d,false,true,0.0-2.0-0.57-0.520-3.520,0,0,0,68,false,stim,false,1,500.47000008635223,0,0,2,17172,WMM1,1355912,false,false,1810,image-keyboard-response,24
true,15,1,2,1,true,z,false,false,0.0-2.0-0.57-0.521-3.521,0,0,0,90,false,stim,false,0,341.43500006757677,0,0,1,17172,WMM1,1357782,false,true,1813,image-keyboard-response,25
true,15,1,2,0,false,q,true,false,0.0-2.0-0.58-0.522-3.522,0,0,0,90,false,stim,false,2,849.4599999394268,0,0,0,17172,WMM1,1360162,false,false,1816,image-keyboard-response,26
true,15,0,2,1,false,z,false,false,0.0-2.0-0.58-0.523-3.523,0,0,0,81,false,stim,true,0,807.5649999082088,0,0,1,17172,WMM1,1362493,false,false,1819,image-keyboard-response,27
true,15,2,2,2,true,d,false,true,0.0-2.0-0.58-0.524-3.524,0,0,0,68,false,stim,false,1,324.79500002227724,0,0,2,17172,WMM1,1364341,false,false,1822,image-keyboard-response,28
true,15,0,2,0,true,q,false,true,0.0-2.0-0.58-0.525-3.525,0,0,0,81,false,stim,false,2,478.12499990686774,0,0,0,17172,WMM1,1366354,false,false,1825,image-keyboard-response,29
true,15,2,2,1,false,z,true,false,0.0-2.0-0.58-0.526-3.526,0,0,0,68,false,stim,false,0,485.84500001743436,0,0,1,17172,WMM1,1368370,false,false,1828,image-keyboard-response,30
true,15,2,2,2,true,d,false,true,0.0-2.0-0.58-0.527-3.527,0,0,0,68,false,stim,false,1,484.8150000907481,0,0,2,17172,WMM1,1370382,false,false,1831,image-keyboard-response,31
true,15,2,2,1,false,z,true,false,0.0-2.0-0.58-0.528-3.528,0,0,0,68,false,stim,false,0,1571.90000009723,0,0,1,17172,WMM1,1373460,false,false,1834,image-keyboard-response,32
true,15,0,2,0,true,q,false,true,0.0-2.0-0.58-0.529-3.529,0,0,0,81,false,stim,false,2,531.2699999194592,0,0,0,17172,WMM1,1375498,false,false,1837,image-keyboard-response,33
true,15,2,2,2,true,d,false,true,0.0-2.0-0.58-0.530-3.530,0,0,0,68,false,stim,false,1,499.9950001947582,0,0,2,17172,WMM1,1377517,false,false,1840,image-keyboard-response,34
true,15,0,2,1,false,z,false,false,0.0-2.0-0.59-0.531-3.531,0,0,0,81,false,stim,true,0,509.34000010602176,0,0,1,17172,WMM1,1379559,false,false,1843,image-keyboard-response,35
true,15,2,2,1,false,z,true,false,0.0-2.0-0.59-0.532-3.532,0,0,0,68,false,stim,false,0,409.9600000772625,0,0,1,17172,WMM1,1381491,false,false,1846,image-keyboard-response,36
true,15,0,2,1,false,z,false,false,0.0-2.0-0.59-0.533-3.533,0,0,0,81,false,stim,true,0,953.1749999150634,0,0,1,17172,WMM1,1383973,false,false,1849,image-keyboard-response,37
true,15,2,2,2,true,d,false,true,0.0-2.0-0.59-0.534-3.534,0,0,0,68,false,stim,false,1,673.3300001360476,0,0,2,17172,WMM1,1386167,false,false,1852,image-keyboard-response,38
true,15,0,2,0,true,q,false,false,0.0-2.0-0.59-0.535-3.535,0,0,0,81,false,stim,false,2,692.6049999892712,0,0,0,17172,WMM1,1388376,false,true,1855,image-keyboard-response,39
true,15,0,2,0,true,q,false,true,0.0-2.0-0.59-0.536-3.536,0,0,0,81,false,stim,false,2,305.0200000870973,0,0,0,17172,WMM1,1390209,false,false,1858,image-keyboard-response,40
true,15,0,2,0,true,q,false,true,0.0-2.0-0.59-0.537-3.537,0,0,0,81,false,stim,false,2,393.3249998372048,0,0,0,17172,WMM1,1392128,false,false,1861,image-keyboard-response,41
true,15,2,2,2,true,d,false,true,0.0-2.0-0.59-0.538-3.538,0,0,0,68,false,stim,false,1,394.1199998371303,0,0,2,17172,WMM1,1394042,false,false,1864,image-keyboard-response,42
true,15,2,2,2,true,d,false,true,0.0-2.0-0.59-0.539-3.539,0,0,0,68,false,stim,false,1,571.3450000621378,0,0,2,17172,WMM1,1396137,false,false,1867,image-keyboard-response,43
true,15,0,2,0,true,q,false,true,0.0-2.0-0.60-0.540-3.540,0,0,0,81,false,stim,false,2,631.5900001209229,0,0,0,17172,WMM1,1398291,false,false,1870,image-keyboard-response,44
true,15,2,2,2,true,d,false,true,0.0-2.0-0.60-0.541-3.541,0,0,0,68,false,stim,false,1,402.8599997982383,0,0,2,17172,WMM1,1400219,false,false,1873,image-keyboard-response,45
true,15,0,2,1,false,z,false,false,0.0-2.0-0.60-0.542-3.542,0,0,0,81,false,stim,true,0,776.6800001263618,0,0,1,17172,WMM1,1402527,false,false,1876,image-keyboard-response,46
true,15,1,2,1,true,z,false,true,0.0-2.0-0.60-0.543-3.543,0,0,0,90,false,stim,false,0,686.5850000176579,0,0,1,17172,WMM1,1404740,false,false,1879,image-keyboard-response,47
true,15,1,2,1,true,z,false,true,0.0-2.0-0.60-0.544-3.544,0,0,0,90,false,stim,false,0,337.2199998702854,0,0,1,17172,WMM1,1406599,false,false,1882,image-keyboard-response,48
true,15,2,2,2,true,d,false,true,0.0-2.0-0.60-0.545-3.545,0,0,0,68,false,stim,false,1,533.6549999192357,0,0,2,17172,WMM1,1408666,false,false,1885,image-keyboard-response,49
true,15,2,2,2,true,d,false,true,0.0-2.0-0.60-0.546-3.546,0,0,0,68,false,stim,false,1,514.3850001040846,0,0,2,17172,WMM1,1410696,false,false,1888,image-keyboard-response,50
true,15,0,2,0,true,q,false,true,0.0-2.0-0.60-0.547-3.547,0,0,0,81,false,stim,false,2,527.9799997806549,0,0,0,17172,WMM1,1412750,false,false,1891,image-keyboard-response,51
true,15,0,2,0,true,q,false,false,0.0-2.0-0.60-0.548-3.548,0,0,0,81,false,stim,false,2,667.7999999374151,0,0,0,17172,WMM1,1414933,false,true,1894,image-keyboard-response,52
true,15,1,2,1,true,z,false,false,0.0-2.0-0.61-0.549-3.549,0,0,0,90,false,stim,false,0,1618.1499999947846,0,1,1,17172,WMM1,1418082,false,true,1897,image-keyboard-response,53
true,15,1,2,1,true,z,false,true,0.0-2.0-0.61-0.550-3.550,0,0,0,90,false,stim,false,0,791.9199999887496,0,1,1,17172,WMM1,1420398,false,false,1900,image-keyboard-response,54
true,15,0,2,0,true,q,false,true,0.0-2.0-0.61-0.551-3.551,0,0,0,81,false,stim,false,2,489.680000115186,0,0,0,17172,WMM1,1422408,false,false,1903,image-keyboard-response,55
true,15,0,2,0,true,q,false,true,0.0-2.0-0.61-0.552-3.552,0,0,0,81,false,stim,false,2,749.8999999370426,0,0,0,17172,WMM1,1424670,false,false,1906,image-keyboard-response,56
true,15,0,2,0,true,q,false,true,0.0-2.0-0.61-0.553-3.553,0,0,0,81,false,stim,false,2,649.9499999918044,0,0,0,17172,WMM1,1426835,false,false,1909,image-keyboard-response,57
true,15,2,2,2,true,d,false,true,0.0-2.0-0.61-0.554-3.554,0,0,0,68,false,stim,false,1,571.4100000914186,0,0,2,17172,WMM1,1428924,false,false,1912,image-keyboard-response,58
true,16,2,3,1,false,z,false,false,0.0-2.0-0.61-0.555-3.555,0,1,0,68,true,stim,true,2,837.715000147,0,0,2,17172,WMM1,1431280,false,false,1915,image-keyboard-response,1
true,16,2,3,1,false,z,false,false,0.0-2.0-0.61-0.556-3.556,0,1,0,68,false,stim,true,2,480.0199999008328,0,0,2,17172,WMM1,1433275,false,false,1918,image-keyboard-response,2
true,16,1,3,1,true,z,false,false,0.0-2.0-0.61-0.557-3.557,0,1,0,90,false,stim,false,1,1246.2150000501424,0,1,1,17172,WMM1,1436051,false,true,1921,image-keyboard-response,3
true,16,0,3,1,false,z,true,true,0.0-2.0-0.62-0.558-3.558,0,1,0,81,false,stim,false,1,699.1500000003725,0,1,1,17172,WMM1,1438277,false,true,1924,image-keyboard-response,4
true,16,0,3,1,false,z,true,false,0.0-2.0-0.62-0.559-3.559,0,1,0,81,false,stim,false,1,576.4300001319498,0,1,1,17172,WMM1,1440366,false,false,1927,image-keyboard-response,5
true,16,0,3,2,false,d,false,false,0.0-2.0-0.62-0.560-3.560,0,1,0,81,false,stim,true,0,965.7449999358505,0,0,0,17172,WMM1,1442846,false,false,1930,image-keyboard-response,6
true,16,1,3,2,false,d,true,false,0.0-2.0-0.62-0.561-3.561,0,1,0,90,false,stim,false,0,843.1200000923127,0,0,0,17172,WMM1,1445210,false,false,1933,image-keyboard-response,7
true,16,2,3,2,true,d,false,true,0.0-2.0-0.62-0.562-3.562,0,1,0,68,false,stim,false,0,612.6700001768768,0,0,0,17172,WMM1,1447339,false,false,1936,image-keyboard-response,8
true,16,0,3,1,false,z,true,false,0.0-2.0-0.62-0.563-3.563,0,1,0,81,false,stim,false,2,632.1999998763204,0,0,2,17172,WMM1,1449502,false,false,1939,image-keyboard-response,9
true,16,2,3,1,false,z,false,true,0.0-2.0-0.62-0.564-3.564,0,1,0,68,false,stim,true,2,615.7250001560897,0,0,2,17172,WMM1,1451636,false,true,1942,image-keyboard-response,10
true,16,2,3,1,false,z,false,false,0.0-2.0-0.62-0.565-3.565,0,1,0,68,false,stim,true,2,387.04499998129904,0,0,2,17172,WMM1,1453558,false,false,1945,image-keyboard-response,11
true,16,2,3,1,false,z,true,true,0.0-2.0-0.62-0.566-3.566,0,1,0,68,false,stim,false,1,380.0800000317395,0,1,1,17172,WMM1,1455447,false,true,1948,image-keyboard-response,12
true,16,2,3,2,true,d,false,true,0.0-2.0-0.63-0.567-3.567,0,1,0,68,false,stim,false,0,514.8100000806153,0,0,0,17172,WMM1,1457482,false,false,1951,image-keyboard-response,13
true,16,1,3,1,true,z,false,true,0.0-2.0-0.63-0.568-3.568,0,1,0,90,false,stim,false,1,507.5649998616427,0,1,1,17172,WMM1,1459516,false,false,1954,image-keyboard-response,14
true,16,1,3,1,true,z,false,true,0.0-2.0-0.63-0.569-3.569,0,1,0,90,false,stim,false,1,343.66500005126,0,1,1,17172,WMM1,1461369,false,false,1957,image-keyboard-response,15
true,16,2,3,2,true,d,false,true,0.0-2.0-0.63-0.570-3.570,0,1,0,68,false,stim,false,0,514.8300000000745,0,0,0,17172,WMM1,1463397,false,false,1960,image-keyboard-response,16
true,16,1,3,1,true,z,false,true,0.0-2.0-0.63-0.571-3.571,0,1,0,90,false,stim,false,1,779.4899998698384,0,1,1,17172,WMM1,1465702,false,false,1963,image-keyboard-response,17
true,16,2,3,1,false,z,false,false,0.0-2.0-0.63-0.572-3.572,0,1,0,68,false,stim,true,2,616.7299998924136,0,0,2,17172,WMM1,1467840,false,false,1966,image-keyboard-response,18
true,16,2,3,2,true,d,false,true,0.0-2.0-0.63-0.573-3.573,0,1,0,68,false,stim,false,0,1559.1349999886006,0,0,0,17172,WMM1,1470908,false,false,1969,image-keyboard-response,19
true,16,2,3,1,false,z,false,false,0.0-2.0-0.63-0.574-3.574,0,1,0,68,false,stim,true,2,533.3350000437349,0,0,2,17172,WMM1,1472968,false,false,1972,image-keyboard-response,20
true,16,2,3,1,false,z,false,false,0.0-2.0-0.63-0.575-3.575,0,1,0,68,false,stim,true,2,493.05499996989965,0,0,2,17172,WMM1,1474986,false,false,1975,image-keyboard-response,21
true,16,2,3,1,false,z,false,true,0.0-2.0-0.64-0.576-3.576,0,1,0,68,false,stim,true,2,627.9850001446903,0,0,2,17172,WMM1,1477131,false,true,1978,image-keyboard-response,22
true,16,2,3,2,true,d,false,true,0.0-2.0-0.64-0.577-3.577,0,1,0,68,false,stim,false,0,1043.3099998626858,0,0,0,17172,WMM1,1479686,false,false,1981,image-keyboard-response,23
true,16,1,3,1,true,z,false,true,0.0-2.0-0.64-0.578-3.578,0,1,0,90,false,stim,false,1,1405.6200000923127,0,1,1,17172,WMM1,1482608,false,false,1984,image-keyboard-response,24
true,16,2,3,2,true,d,false,false,0.0-2.0-0.64-0.579-3.579,0,1,0,68,false,stim,false,0,457.4549999088049,0,0,0,17172,WMM1,1484592,false,true,1987,image-keyboard-response,25
true,16,2,3,2,true,d,false,true,0.0-2.0-0.64-0.580-3.580,0,1,0,68,false,stim,false,0,676.2600000947714,0,0,0,17172,WMM1,1486797,false,false,1990,image-keyboard-response,26
true,16,2,3,1,false,z,false,false,0.0-2.0-0.64-0.581-3.581,0,1,0,68,false,stim,true,2,469.9800000526011,0,0,2,17172,WMM1,1488786,false,false,1993,image-keyboard-response,27
true,16,2,3,1,false,z,false,false,0.0-2.0-0.64-0.582-3.582,0,1,0,68,false,stim,true,2,520.164999878034,0,0,2,17172,WMM1,1490835,false,false,1996,image-keyboard-response,28
true,16,1,3,1,true,z,false,true,0.0-2.0-0.64-0.583-3.583,0,1,0,90,false,stim,false,1,648.8499999977648,0,1,1,17172,WMM1,1493006,false,false,1999,image-keyboard-response,29
true,16,1,3,1,true,z,false,true,0.0-2.0-0.64-0.584-3.584,0,1,0,90,false,stim,false,1,1098.5650001093745,0,1,1,17172,WMM1,1495634,false,false,2002,image-keyboard-response,30
true,16,2,3,2,true,d,false,true,0.0-2.0-0.65-0.585-3.585,0,1,0,68,false,stim,false,0,676.2699999380857,0,0,0,17172,WMM1,1497832,false,false,2005,image-keyboard-response,31
