answered,blockNum,choice,condition,corResp,correct,correct_response,explo,fb,internal_node_id,isStable_1,isStable_2,isStable_3,key_press,newBlock,part,persev,persevResp,rt,sessNum,stableAS,stimulus,subject,task,time_elapsed,training,trap,trial_index,trial_type,trialsInBlock
true,1,2,0,0,false,q,true,false,0.0-2.0-0.0-0.0-3.0,0,0,0,68,true,stim,false,-1,1383.67000001017,0,0,2,17172,WMM1,153941,false,false,124,image-keyboard-response,1
true,1,2,0,1,false,z,true,false,0.0-2.0-0.0-0.1-3.1,0,0,0,68,false,stim,false,-1,2042.5599999725819,0,0,1,17172,WMM1,157504,false,false,127,image-keyboard-response,2
true,1,1,0,1,true,z,false,true,0.0-2.0-0.0-0.2-3.2,0,0,0,90,false,stim,false,-1,765.5099999392405,0,0,1,17172,WMM1,159782,false,false,130,image-keyboard-response,3
true,1,1,0,0,false,q,true,false,0.0-2.0-0.0-0.3-3.3,0,0,0,90,false,stim,false,-1,1021.1800000397488,0,0,2,17172,WMM1,162316,false,false,133,image-keyboard-response,4
true,1,2,0,2,true,d,false,true,0.0-2.0-0.0-0.4-3.4,0,0,0,68,false,stim,false,-1,2289.1900000395253,0,0,0,17172,WMM1,166134,false,false,136,image-keyboard-response,5
true,1,0,0,0,true,q,false,true,0.0-2.0-0.0-0.5-3.5,0,0,0,81,false,stim,false,-1,704.6750000445172,0,0,2,17172,WMM1,168352,false,false,139,image-keyboard-response,6
true,1,2,0,2,true,d,false,true,0.0-2.0-0.0-0.6-3.6,0,0,0,68,false,stim,false,-1,904.1699999943376,0,0,0,17172,WMM1,170761,false,false,142,image-keyboard-response,7
true,1,2,0,2,true,d,false,true,0.0-2.0-0.0-0.7-3.7,0,0,0,68,false,stim,false,-1,715.3950000647455,0,0,0,17172,WMM1,172996,false,false,145,image-keyboard-response,8
true,1,1,0,1,true,z,false,true,0.0-2.0-0.0-0.8-3.8,0,0,0,90,false,stim,false,-1,753.9999999571592,0,0,1,17172,WMM1,175280,false,false,148,image-keyboard-response,9
true,1,2,0,2,true,d,false,true,0.0-2.0-0.1-0.9-3.9,0,0,0,68,false,stim,false,-1,824.6649999637157,0,0,0,17172,WMM1,177620,false,false,151,image-keyboard-response,10
true,1,0,0,0,true,q,false,true,0.0-2.0-0.1-0.10-3.10,0,0,0,81,false,stim,false,-1,600.7299999473616,0,0,2,17172,WMM1,179741,false,false,154,image-keyboard-response,11
true,1,2,0,1,false,z,true,false,0.0-2.0-0.1-0.11-3.11,0,0,0,68,false,stim,false,-1,724.0799999563023,0,0,1,17172,WMM1,181979,false,false,157,image-keyboard-response,12
true,1,2,0,2,true,d,false,true,0.0-2.0-0.1-0.12-3.12,0,0,0,68,false,stim,false,-1,592.9800000740215,0,0,0,17172,WMM1,184084,false,false,160,image-keyboard-response,13
true,1,2,0,1,false,z,true,false,0.0-2.0-0.1-0.13-3.13,0,0,0,68,false,stim,false,-1,807.4550000019372,0,0,1,17172,WMM1,186414,false,false,163,image-keyboard-response,14
false,1,-1,0,1,false,z,false,false,0.0-2.0-0.1-0.14-3.14,0,0,0,,false,stim,true,-1,,0,0,1,17172,WMM1,190942,false,false,166,image-keyboard-response,15
true,1,0,0,0,true,q,false,true,0.0-2.0-0.1-0.15-3.15,0,0,0,81,false,stim,false,-1,760.5150000890717,0,0,2,17172,WMM1,193221,false,false,169,image-keyboard-response,16
true,1,1,0,2,false,d,true,false,0.0-2.0-0.1-0.16-3.16,0,0,0,90,false,stim,false,-1,614.6249999292195,0,0,0,17172,WMM1,195352,false,false,172,image-keyboard-response,17
true,1,0,0,0,true,q,false,false,0.0-2.0-0.1-0.17-3.17,0,0,0,81,false,stim,false,-1,939.5400000503287,0,0,2,17172,WMM1,197822,false,true,175,image-keyboard-response,18
true,1,2,0,2,true,d,false,true,0.0-2.0-0.2-0.18-3.18,0,0,0,68,false,stim,false,-1,913.9399999985471,0,0,0,17172,WMM1,200259,false,false,178,image-keyboard-response,19
true,1,1,0,0,false,q,true,false,0.0-2.0-0.2-0.19-3.19,0,0,0,90,false,stim,false,-1,826.5749999554828,0,0,2,17172,WMM1,202615,false,false,181,image-keyboard-response,20
true,1,2,0,0,false,q,true,false,0.0-2.0-0.2-0.20-3.20,0,0,0,68,false,stim,false,-1,740.4850000748411,0,0,2,17172,WMM1,204870,false,false,184,image-keyboard-response,21
true,1,0,0,0,true,q,false,true,0.0-2.0-0.2-0.21-3.21,0,0,0,81,false,stim,false,-1,675.0350000802428,0,0,2,17172,WMM1,207071,false,false,187,image-keyboard-response,22
true,1,1,0,1,true,z,false,true,0.0-2.0-0.2-0.22-3.22,0,0,0,90,false,stim,false,-1,723.1600000523031,0,0,1,17172,WMM1,209318,false,false,190,image-keyboard-response,23
true,1,1,0,1,true,z,false,true,0.0-2.0-0.2-0.23-3.23,0,0,0,90,false,stim,false,-1,956.0800000326708,0,0,1,17172,WMM1,211801,false,false,193,image-keyboard-response,24
true,1,1,0,1,true,z,false,true,0.0-2.0-0.2-0.24-3.24,0,0,0,90,false,stim,false,-1,601.410000002943,0,0,1,17172,WMM1,213926,false,false,196,image-keyboard-response,25
true,1,2,0,2,true,d,false,false,0.0-2.0-0.2-0.25-3.25,0,0,0,68,false,stim,false,-1,787.8250000067055,0,0,0,17172,WMM1,216230,false,true,199,image-keyboard-response,26
true,1,0,0,2,false,d,true,true,0.0-2.0-0.2-0.26-3.26,0,0,0,81,false,stim,false,-1,766.1849999567494,0,0,0,17172,WMM1,218518,false,true,202,image-keyboard-response,27
true,1,0,0,2,false,d,true,false,0.0-2.0-0.3-0.27-3.27,0,0,0,81,false,stim,false,-1,602.2649999940768,0,0,0,17172,WMM1,220644,false,false,205,image-keyboard-response,28
true,1,1,0,1,true,z,false,false,0.0-2.0-0.3-0.28-3.28,0,0,0,90,false,stim,false,-1,839.9849999696016,0,0,1,17172,WMM1,223010,false,true,208,image-keyboard-response,29
true,1,2,0,0,false,q,true,false,0.0-2.0-0.3-0.29-3.29,0,0,0,68,false,stim,false,-1,1879.839999950491,0,0,2,17172,WMM1,226417,false,false,211,image-keyboard-response,30
true,1,0,0,2,false,d,true,false,0.0-2.0-0.3-0.30-3.30,0,0,0,81,false,stim,false,-1,774.7199999867007,0,0,0,17172,WMM1,228718,false,false,214,image-keyboard-response,31
true,1,1,0,1,true,z,false,true,0.0-2.0-0.3-0.31-3.31,0,0,0,90,false,stim,false,-1,756.4150000689551,0,0,1,17172,WMM1,230998,false,false,217,image-keyboard-response,32
true,1,2,0,0,false,q,true,true,0.0-2.0-0.3-0.32-3.32,0,0,0,68,false,stim,false,-1,1197.9050000663847,0,0,2,17172,WMM1,233721,false,true,220,image-keyboard-response,33
true,1,1,0,2,false,d,true,false,0.0-2.0-0.3-0.33-3.33,0,0,0,90,false,stim,false,-1,1132.5850000139326,0,0,0,17172,WMM1,236380,false,false,223,image-keyboard-response,34
true,1,1,0,1,true,z,false,false,0.0-2.0-0.3-0.34-3.34,0,0,0,90,false,stim,false,-1,832.3099999688566,0,0,1,17172,WMM1,238740,false,true,226,image-keyboard-response,35
true,1,2,0,0,false,q,true,false,0.0-2.0-0.3-0.35-3.35,0,0,0,68,false,stim,false,-1,688.9199999859557,0,0,2,17172,WMM1,240959,false,false,229,image-keyboard-response,36
true,1,2,0,0,false,q,true,false,0.0-2.0-0.4-0.36-3.36,0,0,0,68,false,stim,false,-1,704.5899999793619,0,0,2,17172,WMM1,243181,false,false,232,image-keyboard-response,37
true,1,0,0,0,true,q,false,true,0.0-2.0-0.4-0.37-3.37,0,0,0,81,false,stim,false,-1,1249.309999984689,0,0,2,17172,WMM1,245947,false,false,235,image-keyboard-response,38
true,1,0,0,2,false,d,true,false,0.0-2.0-0.4-0.38-3.38,0,0,0,81,false,stim,false,-1,923.94999996759,0,0,0,17172,WMM1,248393,false,false,238,image-keyboard-response,39
true,1,1,0,2,false,d,true,false,0.0-2.0-0.4-0.39-3.39,0,0,0,90,false,stim,false,-1,982.1249999804422,0,0,0,17172,WMM1,250893,false,false,241,image-keyboard-response,40
true,1,1,0,1,true,z,false,true,0.0-2.0-0.4-0.40-3.40,0,0,0,90,false,stim,false,-1,720.7499999785796,0,0,1,17172,WMM1,253134,false,false,244,image-keyboard-response,41
true,1,2,0,2,true,d,false,true,0.0-2.0-0.4-0.41-3.41,0,0,0,68,false,stim,false,-1,545.1549999415874,0,0,0,17172,WMM1,255203,false,false,247,image-keyboard-response,42
true,1,1,0,1,true,z,false,false,0.0-2.0-0.4-0.42-3.42,0,0,0,90,false,stim,false,-1,687.0449999114498,0,0,1,17172,WMM1,257410,false,true,250,image-keyboard-response,43
true,1,1,0,1,true,z,false,true,0.0-2.0-0.4-0.43-3.43,0,0,0,90,false,stim,false,-1,624.9850000021979,0,0,1,17172,WMM1,259562,false,false,253,image-keyboard-response,44
true,1,0,0,0,true,q,false,true,0.0-2.0-0.4-0.44-3.44,0,0,0,81,false,stim,false,-1,788.4649999905378,0,0,2,17172,WMM1,261872,false,false,256,image-keyboard-response,45
true,1,1,0,1,true,z,false,true,0.0-2.0-0.5-0.45-3.45,0,0,0,90,false,stim,false,-1,631.1500000301749,0,0,1,17172,WMM1,264030,false,false,259,image-keyboard-response,46
true,1,0,0,0,true,q,false,true,0.0-2.0-0.5-0.46-3.46,0,0,0,81,false,stim,false,-1,538.7900000205263,0,0,2,17172,WMM1,266091,false,false,262,image-keyboard-response,47
true,1,2,0,2,true,d,false,true,0.0-2.0-0.5-0.47-3.47,0,0,0,68,false,stim,false,-1,479.07999996095896,0,0,0,17172,WMM1,268091,false,false,265,image-keyboard-response,48
true,1,0,0,0,true,q,false,true,0.0-2.0-0.5-0.48-3.48,0,0,0,81,false,stim,false,-1,621.7499999329448,0,0,2,17172,WMM1,270237,false,false,268,image-keyboard-response,49
true,1,1,0,1,true,z,false,true,0.0-2.0-0.5-0.49-3.49,0,0,0,90,false,stim,false,-1,549.5200000004843,0,1,1,17172,WMM1,272309,false,false,271,image-keyboard-response,50
true,1,2,0,2,true,d,false,true,0.0-2.0-0.5-0.50-3.50,0,0,0,68,false,stim,false,-1,822.7499999338761,0,0,0,17172,WMM1,274648,false,false,274,image-keyboard-response,51
true,1,0,0,0,true,q,false,true,0.0-2.0-0.5-0.51-3.51,0,0,0,81,false,stim,false,-1,563.3650000672787,0,0,2,17172,WMM1,276732,false,false,277,image-keyboard-response,52
true,1,1,0,1,true,z,false,true,0.0-2.0-0.5-0.52-3.52,0,0,0,90,false,stim,false,-1,481.38000001199543,0,1,1,17172,WMM1,278723,false,false,280,image-keyboard-response,53
true,1,0,0,2,false,d,true,false,0.0-2.0-0.5-0.53-3.53,0,0,0,81,false,stim,false,-1,556.6100000869483,0,0,0,17172,WMM1,280810,false,false,283,image-keyboard-response,54
true,1,1,0,1,true,z,false,false,0.0-2.0-0.6-0.54-3.54,0,0,0,90,false,stim,false,-1,602.0649999845773,0,1,1,17172,WMM1,282939,false,true,286,image-keyboard-response,55
true,1,0,0,0,true,q,false,true,0.0-2.0-0.6-0.55-3.55,0,0,0,81,false,stim,false,-1,569.4799999473616,0,0,2,17172,WMM1,285028,false,false,289,image-keyboard-response,56
true,1,1,0,1,true,z,false,true,0.0-2.0-0.6-0.56-3.56,0,0,0,90,false,stim,false,-1,575.0300000654534,0,1,1,17172,WMM1,287132,false,false,292,image-keyboard-response,57
true,1,0,0,0,true,q,false,true,0.0-2.0-0.6-0.57-3.57,0,0,0,81,false,stim,false,-1,718.7050000065938,0,0,2,17172,WMM1,289367,false,false,295,image-keyboard-response,58
true,2,2,3,0,false,q,false,false,0.0-2.0-0.6-0.58-3.58,0,1,0,68,true,stim,true,2,532.4199999449775,0,0,0,17172,WMM1,291420,false,false,298,image-keyboard-response,1
true,2,0,3,2,false,d,false,false,0.0-2.0-0.6-0.59-3.59,0,1,0,81,false,stim,true,0,510.34499995876104,0,0,2,17172,WMM1,293451,false,false,301,image-keyboard-response,2
true,2,1,3,1,true,z,false,true,0.0-2.0-0.6-0.60-3.60,0,1,0,90,false,stim,false,1,440.5999999726191,0,1,1,17172,WMM1,295417,false,false,304,image-keyboard-response,3
true,2,0,3,0,true,q,false,true,0.0-2.0-0.6-0.61-3.61,0,1,0,81,false,stim,false,2,677.144999965094,0,0,0,17172,WMM1,297621,false,false,307,image-keyboard-response,4
true,2,0,3,0,true,q,false,true,0.0-2.0-0.6-0.62-3.62,0,1,0,81,false,stim,false,2,518.5099999653175,0,0,0,17172,WMM1,299665,false,false,310,image-keyboard-response,5
true,2,2,3,2,true,d,false,true,0.0-2.0-0.7-0.63-3.63,0,1,0,68,false,stim,false,0,981.0999999754131,0,0,2,17172,WMM1,302165,false,false,313,image-keyboard-response,6
true,2,0,3,0,true,q,false,true,0.0-2.0-0.7-0.64-3.64,0,1,0,81,false,stim,false,2,615.2699999511242,0,0,0,17172,WMM1,304301,false,false,316,image-keyboard-response,7
true,2,0,3,0,true,q,false,true,0.0-2.0-0.7-0.65-3.65,0,1,0,81,false,stim,false,2,689.2999999690801,0,0,0,17172,WMM1,306516,false,false,319,image-keyboard-response,8
true,2,2,3,2,true,d,false,true,0.0-2.0-0.7-0.66-3.66,0,1,0,68,false,stim,false,0,529.465000028722,0,0,2,17172,WMM1,308560,false,false,322,image-keyboard-response,9
true,2,0,3,0,true,q,false,true,0.0-2.0-0.7-0.67-3.67,0,1,0,81,false,stim,false,2,572.855000034906,0,0,0,17172,WMM1,310651,false,false,325,image-keyboard-response,10
true,2,1,3,1,true,z,false,true,0.0-2.0-0.7-0.68-3.68,0,1,0,90,false,stim,false,1,765.030000009574,0,1,1,17172,WMM1,312930,false,false,328,image-keyboard-response,11
true,2,1,3,1,true,z,false,true,0.0-2.0-0.7-0.69-3.69,0,1,0,90,false,stim,false,1,884.529999922961,0,1,1,17172,WMM1,315335,false,false,331,image-keyboard-response,12
true,2,1,3,1,true,z,false,true,0.0-2.0-0.7-0.70-3.70,0,1,0,90,false,stim,false,1,559.514999971725,0,1,1,17172,WMM1,317421,false,false,334,image-keyboard-response,13
true,2,2,3,2,true,d,false,true,0.0-2.0-0.7-0.71-3.71,0,1,0,68,false,stim,false,0,742.7549998974428,0,0,2,17172,WMM1,319685,false,false,337,image-keyboard-response,14
true,2,2,3,2,true,d,false,true,0.0-2.0-0.8-0.72-3.72,0,1,0,68,false,stim,false,0,658.6150000803173,0,0,2,17172,WMM1,321856,false,false,340,image-keyboard-response,15
true,2,1,3,0,false,q,true,false,0.0-2.0-0.8-0.73-3.73,0,1,0,90,false,stim,false,2,1015.9849999472499,0,0,0,17172,WMM1,324392,false,false,343,image-keyboard-response,16
true,2,1,3,1,true,z,false,false,0.0-2.0-0.8-0.74-3.74,0,1,0,90,false,stim,false,1,617.5550000043586,0,1,1,17172,WMM1,326527,false,true,346,image-keyboard-response,17
true,2,2,3,2,true,d,false,true,0.0-2.0-0.8-0.75-3.75,0,1,0,68,false,stim,false,0,1193.5949999606237,0,0,2,17172,WMM1,329248,false,false,349,image-keyboard-response,18
true,2,2,3,2,true,d,false,true,0.0-2.0-0.8-0.76-3.76,0,1,0,68,false,stim,false,0,487.58499999530613,0,0,2,17172,WMM1,331255,false,false,352,image-keyboard-response,19
true,2,1,3,1,true,z,false,true,0.0-2.0-0.8-0.77-3.77,0,1,0,90,false,stim,false,1,644.8800000362098,0,1,1,17172,WMM1,333417,false,false,355,image-keyboard-response,20
true,2,1,3,1,true,z,false,true,0.0-2.0-0.8-0.78-3.78,0,1,0,90,false,stim,false,1,1075.9949999628589,0,1,1,17172,WMM1,336006,false,false,358,image-keyboard-response,21
true,2,1,3,0,false,q,true,false,0.0-2.0-0.8-0.79-3.79,0,1,0,90,false,stim,false,2,2290.184999932535,0,0,0,17172,WMM1,339813,false,false,361,image-keyboard-response,22
true,2,2,3,0,false,q,false,false,0.0-2.0-0.8-0.80-3.80,0,1,0,68,false,stim,true,2,1393.2050000876188,0,0,0,17172,WMM1,342723,false,false,364,image-keyboard-response,23
true,2,0,3,1,false,z,true,false,0.0-2.0-0.9-0.81-3.81,0,1,0,81,false,stim,false,1,316.86500005889684,0,1,1,17172,WMM1,344568,false,false,367,image-keyboard-response,24
true,2,1,3,1,true,z,false,true,0.0-2.0-0.9-0.82-3.82,0,1,0,90,false,stim,false,1,370.94499997328967,0,1,1,17172,WMM1,346457,false,false,370,image-keyboard-response,25
true,2,1,3,2,false,d,true,false,0.0-2.0-0.9-0.83-3.83,0,1,0,90,false,stim,false,0,565.7099999953061,0,0,2,17172,WMM1,348553,false,false,373,image-keyboard-response,26
true,2,0,3,1,false,z,true,false,0.0-2.0-0.9-0.84-3.84,0,1,0,81,false,stim,false,1,595.0250000460073,0,1,1,17172,WMM1,350671,false,false,376,image-keyboard-response,27
true,2,2,3,2,true,d,false,true,0.0-2.0-0.9-0.85-3.85,0,1,0,68,false,stim,false,0,709.1099999379367,0,0,2,17172,WMM1,352896,false,false,379,image-keyboard-response,28
true,2,1,3,2,false,d,true,false,0.0-2.0-0.9-0.86-3.86,0,1,0,90,false,stim,false,0,2494.700000039302,0,0,2,17172,WMM1,356908,false,false,382,image-keyboard-response,29
true,2,0,3,0,true,q,false,true,0.0-2.0-0.9-0.87-3.87,0,1,0,81,false,stim,false,2,649.585000006482,0,0,0,17172,WMM1,359085,false,false,385,image-keyboard-response,30
true,2,0,3,0,true,q,false,true,0.0-2.0-0.9-0.88-3.88,0,1,0,81,false,stim,false,2,630.890000029467,0,0,0,17172,WMM1,361247,false,false,388,image-keyboard-response,31
true,2,0,3,0,true,q,false,true,0.0-2.0-0.9-0.89-3.89,0,1,0,81,false,stim,false,2,1065.2449999470264,0,0,0,17172,WMM1,363841,false,false,391,image-keyboard-response,32
true,2,1,3,1,true,z,false,true,0.0-2.0-0.10-0.90-3.90,0,1,0,90,false,stim,false,1,442.2300000442192,0,1,1,17172,WMM1,365797,false,false,394,image-keyboard-response,33
true,2,0,3,0,true,q,false,true,0.0-2.0-0.10-0.91-3.91,0,1,0,81,false,stim,false,2,523.4800000907853,0,0,0,17172,WMM1,367841,false,false,397,image-keyboard-response,34
true,2,0,3,0,true,q,false,true,0.0-2.0-0.10-0.92-3.92,0,1,0,81,false,stim,false,2,531.0549999121577,0,0,0,17172,WMM1,369889,false,false,400,image-keyboard-response,35
true,2,0,3,2,false,d,false,false,0.0-2.0-0.10-0.93-3.93,0,1,0,81,false,stim,true,0,986.2499999580905,0,0,2,17172,WMM1,372403,false,false,403,image-keyboard-response,36
true,2,1,3,1,true,z,false,true,0.0-2.0-0.10-0.94-3.94,0,1,0,90,false,stim,false,1,614.754999987781,0,1,1,17172,WMM1,374532,false,false,406,image-keyboard-response,37
true,2,1,3,1,true,z,false,true,0.0-2.0-0.10-0.95-3.95,0,1,0,90,false,stim,false,1,968.0800000205636,0,1,1,17172,WMM1,377021,false,false,409,image-keyboard-response,38
true,2,2,3,2,true,d,false,true,0.0-2.0-0.10-0.96-3.96,0,1,0,68,false,stim,false,0,550.3150000004098,0,0,2,17172,WMM1,379099,false,false,412,image-keyboard-response,39
true,2,1,3,0,false,q,true,false,0.0-2.0-0.10-0.97-3.97,0,1,0,90,false,stim,false,2,971.2850000942126,0,0,0,17172,WMM1,381593,false,false,415,image-keyboard-response,40
true,2,2,3,2,true,d,false,true,0.0-2.0-0.10-0.98-3.98,0,1,0,68,false,stim,false,0,677.640000008978,0,0,2,17172,WMM1,383782,false,false,418,image-keyboard-response,41
true,2,2,3,2,true,d,false,false,0.0-2.0-0.11-0.99-3.99,0,1,0,68,false,stim,false,0,827.5849999627098,0,0,2,17172,WMM1,386129,false,true,421,image-keyboard-response,42
true,2,1,3,1,true,z,false,true,0.0-2.0-0.11-0.100-3.100,0,1,0,90,false,stim,false,1,417.4949999433011,0,1,1,17172,WMM1,388062,false,false,424,image-keyboard-response,43
true,2,2,3,2,true,d,false,true,0.0-2.0-0.11-0.101-3.101,0,1,0,68,false,stim,false,0,936.9550000410527,0,0,2,17172,WMM1,390526,false,false,427,image-keyboard-response,44
true,2,1,3,1,true,z,false,true,0.0-2.0-0.11-0.102-3.102,0,1,0,90,false,stim,false,1,1470.9749999456108,0,1,1,17172,WMM1,393515,false,false,430,image-keyboard-response,45
true,2,2,3,2,true,d,false,true,0.0-2.0-0.11-0.103-3.103,0,1,0,68,false,stim,false,0,1045.8700000308454,0,0,2,17172,WMM1,396082,false,false,433,image-keyboard-response,46
true,2,1,3,1,true,z,false,true,0.0-2.0-0.11-0.104-3.104,0,1,0,90,false,stim,false,1,996.6349999886006,0,1,1,17172,WMM1,398605,false,false,436,image-keyboard-response,47
true,2,0,3,0,true,q,false,true,0.0-2.0-0.11-0.105-3.105,0,1,0,81,false,stim,false,2,803.6050000227988,0,0,0,17172,WMM1,400938,false,false,439,image-keyboard-response,48
true,2,0,3,0,true,q,false,true,0.0-2.0-0.11-0.106-3.106,0,1,0,81,false,stim,false,2,1075.4949999973178,0,0,0,17172,WMM1,403533,false,false,442,image-keyboard-response,49
true,2,0,3,0,true,q,false,false,0.0-2.0-0.11-0.107-3.107,0,1,0,81,false,stim,false,2,716.8150000507012,0,0,0,17172,WMM1,405762,false,true,445,image-keyboard-response,50
true,2,1,3,1,true,z,false,true,0.0-2.0-0.12-0.108-3.108,0,1,0,90,false,stim,false,1,1635.1850000210106,0,0,1,17172,WMM1,408919,false,false,448,image-keyboard-response,51
true,2,0,3,0,true,q,false,false,0.0-2.0-0.12-0.109-3.109,0,1,0,81,false,stim,false,2,515.0950000388548,0,0,0,17172,WMM1,410958,false,true,451,image-keyboard-response,52
true,2,2,3,0,false,q,false,false,0.0-2.0-0.12-0.110-3.110,0,1,0,68,false,stim,true,2,629.2200000025332,0,0,0,17172,WMM1,413109,false,false,454,image-keyboard-response,53
true,2,1,3,1,true,z,false,true,0.0-2.0-0.12-0.111-3.111,0,1,0,90,false,stim,false,1,440.04999997559935,0,0,1,17172,WMM1,415077,false,false,457,image-keyboard-response,54
true,2,2,3,2,true,d,false,true,0.0-2.0-0.12-0.112-3.112,0,1,0,68,false,stim,false,0,600.0600000843406,0,0,2,17172,WMM1,417196,false,false,460,image-keyboard-response,55
true,2,2,3,2,true,d,false,true,0.0-2.0-0.12-0.113-3.113,0,1,0,68,false,stim,false,0,506.5150000154972,0,0,2,17172,WMM1,419232,false,false,463,image-keyboard-response,56
true,2,1,3,1,true,z,false,true,0.0-2.0-0.12-0.114-3.114,0,1,0,90,false,stim,false,1,775.774999987334,0,0,1,17172,WMM1,421532,false,false,466,image-keyboard-response,57
true,2,2,3,2,true,d,false,true,0.0-2.0-0.12-0.115-3.115,0,1,0,68,false,stim,false,0,618.2649999391288,0,0,2,17172,WMM1,423675,false,false,469,image-keyboard-response,58
true,2,1,3,0,false,q,true,false,0.0-2.0-0.12-0.116-3.116,0,1,0,90,false,stim,false,2,1323.340000002645,0,0,0,17172,WMM1,426525,false,false,472,image-keyboard-response,59
true,3,1,1,0,false,q,false,false,0.0-2.0-0.13-0.117-3.117,0,0,0,90,true,stim,true,1,1379.4500000076368,0,0,1,17172,WMM1,429430,false,false,475,image-keyboard-response,1
true,3,0,1,2,false,d,false,false,0.0-2.0-0.13-0.118-3.118,0,0,0,81,false,stim,true,0,925.7400000933558,0,0,0,17172,WMM1,431879,false,false,478,image-keyboard-response,2
true,3,2,1,0,false,q,false,false,0.0-2.0-0.13-0.119-3.119,0,0,0,68,false,stim,true,2,546.7349999817088,0,0,2,17172,WMM1,433952,false,false,481,image-keyboard-response,3
true,3,1,1,2,false,d,true,false,0.0-2.0-0.13-0.120-3.120,0,0,0,90,false,stim,false,0,1151.2499999953434,0,0,0,17172,WMM1,436609,false,false,484,image-keyboard-response,4
true,3,2,1,0,false,q,false,false,0.0-2.0-0.13-0.121-3.121,0,0,0,68,false,stim,true,2,820.3349999384955,0,0,2,17172,WMM1,438945,false,false,487,image-keyboard-response,5
true,3,2,1,0,false,q,true,false,0.0-2.0-0.13-0.122-3.122,0,0,0,68,false,stim,false,1,1020.9599999943748,0,0,1,17172,WMM1,441492,false,false,490,image-keyboard-response,6
true,3,2,1,2,true,d,false,true,0.0-2.0-0.13-0.123-3.123,0,0,0,68,false,stim,false,0,1414.8849999764934,0,0,0,17172,WMM1,444433,false,false,493,image-keyboard-response,7
true,3,0,1,0,true,q,false,true,0.0-2.0-0.13-0.124-3.124,0,0,0,81,false,stim,false,2,989.5650000544265,0,0,2,17172,WMM1,446947,false,false,496,image-keyboard-response,8
true,3,1,1,0,false,q,false,false,0.0-2.0-0.13-0.125-3.125,0,0,0,90,false,stim,true,1,950.5849999841303,0,0,1,17172,WMM1,449418,false,false,499,image-keyboard-response,9
true,3,2,1,0,false,q,false,false,0.0-2.0-0.14-0.126-3.126,0,0,0,68,false,stim,true,2,623.6400000052527,0,0,2,17172,WMM1,451559,false,false,502,image-keyboard-response,10
true,3,2,1,2,true,d,false,true,0.0-2.0-0.14-0.127-3.127,0,0,0,68,false,stim,false,0,716.5899999672547,0,0,0,17172,WMM1,453798,false,false,505,image-keyboard-response,11
true,3,0,1,0,true,q,false,true,0.0-2.0-0.14-0.128-3.128,0,0,0,81,false,stim,false,1,1893.7700000824407,0,0,1,17172,WMM1,457215,false,false,508,image-keyboard-response,12
true,3,1,1,0,false,q,true,false,0.0-2.0-0.14-0.129-3.129,0,0,0,90,false,stim,false,2,1680.7200000621378,0,0,2,17172,WMM1,460421,false,false,511,image-keyboard-response,13
true,3,2,1,0,false,q,true,true,0.0-2.0-0.14-0.130-3.130,0,0,0,68,false,stim,false,1,1392.1449999324977,0,0,1,17172,WMM1,463341,false,true,514,image-keyboard-response,14
false,3,-1,1,0,false,q,true,false,0.0-2.0-0.14-0.131-3.131,0,0,0,,false,stim,false,2,,0,0,2,17172,WMM1,467868,false,false,517,image-keyboard-response,15
true,3,2,1,2,true,d,false,true,0.0-2.0-0.14-0.132-3.132,0,0,0,68,false,stim,false,0,1774.7199999867007,0,0,0,17172,WMM1,471156,false,false,520,image-keyboard-response,16
true,3,0,1,2,false,d,false,false,0.0-2.0-0.14-0.133-3.133,0,0,0,81,false,stim,true,0,703.7350001046434,0,0,0,17172,WMM1,473375,false,false,523,image-keyboard-response,17
true,3,1,1,0,false,q,false,true,0.0-2.0-0.14-0.134-3.134,0,0,0,90,false,stim,true,1,1308.7999999988824,0,0,1,17172,WMM1,476202,false,true,526,image-keyboard-response,18
true,3,2,1,0,false,q,false,true,0.0-2.0-0.15-0.135-3.135,0,0,0,68,false,stim,true,2,536.6650000214577,0,0,2,17172,WMM1,478246,false,true,529,image-keyboard-response,19
true,3,2,1,0,false,q,true,false,0.0-2.0-0.15-0.136-3.136,0,0,0,68,false,stim,false,1,2885.855000000447,0,0,1,17172,WMM1,482651,false,false,532,image-keyboard-response,20
true,3,0,1,0,true,q,false,true,0.0-2.0-0.15-0.137-3.137,0,0,0,81,false,stim,false,1,452.8249999275431,0,0,1,17172,WMM1,484609,false,false,535,image-keyboard-response,21
true,3,1,1,2,false,d,true,false,0.0-2.0-0.15-0.138-3.138,0,0,0,90,false,stim,false,0,754.7299999278039,0,0,0,17172,WMM1,486880,false,false,538,image-keyboard-response,22
true,3,2,1,0,false,q,false,true,0.0-2.0-0.15-0.139-3.139,0,0,0,68,false,stim,true,2,1703.1749999150634,0,0,2,17172,WMM1,490097,false,true,541,image-keyboard-response,23
true,3,0,1,0,true,q,false,true,0.0-2.0-0.15-0.140-3.140,0,0,0,81,false,stim,false,1,872.4049999145791,0,0,1,17172,WMM1,492488,false,false,544,image-keyboard-response,24
true,3,1,1,2,false,d,true,false,0.0-2.0-0.15-0.141-3.141,0,0,0,90,false,stim,false,0,480.51000002305955,0,0,0,17172,WMM1,494488,false,false,547,image-keyboard-response,25
true,3,0,1,2,false,d,false,false,0.0-2.0-0.15-0.142-3.142,0,0,0,81,false,stim,true,0,667.9149999981746,0,0,0,17172,WMM1,496679,false,false,550,image-keyboard-response,26
true,3,2,1,0,false,q,false,false,0.0-2.0-0.15-0.143-3.143,0,0,0,68,false,stim,true,2,311.01499998476356,0,0,2,17172,WMM1,498508,false,false,553,image-keyboard-response,27
true,3,1,1,0,false,q,false,false,0.0-2.0-0.16-0.144-3.144,0,0,0,90,false,stim,true,1,281.2149999663234,0,0,1,17172,WMM1,500312,false,false,556,image-keyboard-response,28
true,3,2,1,0,false,q,true,false,0.0-2.0-0.16-0.145-3.145,0,0,0,68,false,stim,false,1,845.7900000503287,0,0,1,17172,WMM1,502680,false,false,559,image-keyboard-response,29
true,3,2,1,2,true,d,false,true,0.0-2.0-0.16-0.146-3.146,0,0,0,68,false,stim,false,0,940.3600000077859,0,0,0,17172,WMM1,505136,false,false,562,image-keyboard-response,30
true,3,0,1,0,true,q,false,true,0.0-2.0-0.16-0.147-3.147,0,0,0,81,false,stim,false,2,381.25000009313226,0,0,2,17172,WMM1,507046,false,false,565,image-keyboard-response,31
true,3,0,1,0,true,q,false,false,0.0-2.0-0.16-0.148-3.148,0,0,0,81,false,stim,false,2,498.3749999664724,0,0,2,17172,WMM1,509070,false,true,568,image-keyboard-response,32
true,3,2,1,2,true,d,false,true,0.0-2.0-0.16-0.149-3.149,0,0,0,68,false,stim,false,0,908.6850000312552,0,0,0,17172,WMM1,511498,false,false,571,image-keyboard-response,33
true,3,2,1,0,false,q,false,true,0.0-2.0-0.16-0.150-3.150,0,0,0,68,false,stim,true,2,723.3949999790639,0,0,2,17172,WMM1,513747,false,true,574,image-keyboard-response,34
true,3,0,1,0,true,q,false,true,0.0-2.0-0.16-0.151-3.151,0,0,0,81,false,stim,false,1,1217.854999937117,0,0,1,17172,WMM1,516494,false,false,577,image-keyboard-response,35
true,3,0,1,2,false,d,false,false,0.0-2.0-0.16-0.152-3.152,0,0,0,81,false,stim,true,0,768.3950000209734,0,0,0,17172,WMM1,518777,false,false,580,image-keyboard-response,36
true,3,0,1,0,true,q,false,true,0.0-2.0-0.17-0.153-3.153,0,0,0,81,false,stim,false,1,587.1200000401586,0,0,1,17172,WMM1,520888,false,false,583,image-keyboard-response,37
true,3,2,1,2,true,d,false,true,0.0-2.0-0.17-0.154-3.154,0,0,0,68,false,stim,false,0,717.6500000059605,0,0,0,17172,WMM1,523129,false,false,586,image-keyboard-response,38
true,3,2,1,2,true,d,false,true,0.0-2.0-0.17-0.155-3.155,0,0,0,68,false,stim,false,0,554.1499999817461,0,0,0,17172,WMM1,525198,false,false,589,image-keyboard-response,39
true,3,0,1,0,true,q,false,true,0.0-2.0-0.17-0.156-3.156,0,0,0,81,false,stim,false,2,1199.3200000142679,0,0,2,17172,WMM1,527923,false,false,592,image-keyboard-response,40
true,3,0,1,0,true,q,false,true,0.0-2.0-0.17-0.157-3.157,0,0,0,81,false,stim,false,2,842.3300000140443,0,0,2,17172,WMM1,530289,false,false,595,image-keyboard-response,41
true,3,0,1,0,true,q,false,true,0.0-2.0-0.17-0.158-3.158,0,0,0,81,false,stim,false,2,535.4550000047311,0,0,2,17172,WMM1,532338,false,false,598,image-keyboard-response,42
true,3,0,1,0,true,q,false,true,0.0-2.0-0.17-0.159-3.159,0,0,0,81,false,stim,false,1,725.3750000381842,0,0,1,17172,WMM1,534583,false,false,601,image-keyboard-response,43
true,3,0,1,0,true,q,false,true,0.0-2.0-0.17-0.160-3.160,0,0,0,81,false,stim,false,1,556.3750000437722,0,0,1,17172,WMM1,536663,false,false,604,image-keyboard-response,44
true,3,2,1,2,true,d,false,true,0.0-2.0-0.17-0.161-3.161,0,0,0,68,false,stim,false,0,465.3099999995902,0,0,0,17172,WMM1,538649,false,false,607,image-keyboard-response,45
true,3,2,1,2,true,d,false,true,0.0-2.0-0.18-0.162-3.162,0,0,0,68,false,stim,false,0,542.9149999981746,0,0,0,17172,WMM1,540705,false,false,610,image-keyboard-response,46
true,3,0,1,0,true,q,false,true,0.0-2.0-0.18-0.163-3.163,0,0,0,81,false,stim,false,1,583.2350000273436,0,0,1,17172,WMM1,542799,false,false,613,image-keyboard-response,47
true,3,0,1,0,true,q,false,true,0.0-2.0-0.18-0.164-3.164,0,0,0,81,false,stim,false,1,501.105000032112,0,0,1,17172,WMM1,544817,false,false,616,image-keyboard-response,48
true,3,0,1,0,true,q,false,true,0.0-2.0-0.18-0.165-3.165,0,0,0,81,false,stim,false,2,1051.8950000405312,0,0,2,17172,WMM1,547385,false,false,619,image-keyboard-response,49
true,3,0,1,0,true,q,false,true,0.0-2.0-0.18-0.166-3.166,0,0,0,81,false,stim,false,2,529.6000000089407,0,0,2,17172,WMM1,549441,false,false,622,image-keyboard-response,50
true,3,0,1,0,true,q,false,true,0.0-2.0-0.18-0.167-3.167,0,0,0,81,false,stim,false,1,585.0499999942258,0,0,1,17172,WMM1,551545,false,false,625,image-keyboard-response,51
true,4,0,4,1,false,z,true,false,0.0-2.0-0.18-0.168-3.168,0,0,0,81,true,stim,false,2,471.9899999909103,0,0,0,17172,WMM1,553528,false,false,628,image-keyboard-response,1
true,4,2,4,1,false,z,false,false,0.0-2.0-0.18-0.169-3.169,0,0,0,68,false,stim,true,2,550.675000064075,0,0,0,17172,WMM1,555593,false,false,631,image-keyboard-response,2
true,4,0,4,1,false,z,false,true,0.0-2.0-0.18-0.170-3.170,0,0,0,81,false,stim,true,0,488.2599998963997,0,0,2,17172,WMM1,557596,false,true,634,image-keyboard-response,3
true,4,2,4,1,false,z,true,false,0.0-2.0-0.19-0.171-3.171,0,0,0,68,false,stim,false,0,1747.9300000704825,0,0,2,17172,WMM1,560866,false,false,637,image-keyboard-response,4
true,4,0,4,2,false,d,false,true,0.0-2.0-0.19-0.172-3.172,0,0,0,81,false,stim,true,0,596.6199999675155,0,0,1,17172,WMM1,562980,false,true,640,image-keyboard-response,5
true,4,1,4,1,true,z,false,true,0.0-2.0-0.19-0.173-3.173,0,0,0,90,false,stim,false,2,1005.5299999658018,0,0,0,17172,WMM1,565507,false,false,643,image-keyboard-response,6
true,4,1,4,1,true,z,false,true,0.0-2.0-0.19-0.174-3.174,0,0,0,90,false,stim,false,2,485.65000004600734,0,0,0,17172,WMM1,567515,false,false,646,image-keyboard-response,7
true,4,0,4,2,false,d,false,false,0.0-2.0-0.19-0.175-3.175,0,0,0,81,false,stim,true,0,708.3600000478327,0,0,1,17172,WMM1,569729,false,false,649,image-keyboard-response,8
true,4,2,4,2,true,d,false,true,0.0-2.0-0.19-0.176-3.176,0,0,0,68,false,stim,false,0,622.2299999790266,0,0,1,17172,WMM1,571871,false,false,652,image-keyboard-response,9
true,4,0,4,1,false,z,false,false,0.0-2.0-0.19-0.177-3.177,0,0,0,81,false,stim,true,0,589.7150000091642,0,0,2,17172,WMM1,573984,false,false,655,image-keyboard-response,10
true,4,2,4,1,false,z,true,false,0.0-2.0-0.19-0.178-3.178,0,0,0,68,false,stim,false,0,583.4400000749156,0,0,2,17172,WMM1,576079,false,false,658,image-keyboard-response,11
true,4,1,4,1,true,z,false,true,0.0-2.0-0.19-0.179-3.179,0,0,0,90,false,stim,false,2,466.19000006467104,0,0,0,17172,WMM1,578060,false,false,661,image-keyboard-response,12
true,4,1,4,1,true,z,false,true,0.0-2.0-0.20-0.180-3.180,0,0,0,90,false,stim,false,0,397.800000035204,0,0,2,17172,WMM1,579976,false,false,664,image-keyboard-response,13
true,4,2,4,2,true,d,false,true,0.0-2.0-0.20-0.181-3.181,0,0,0,68,false,stim,false,0,920.0049999635667,0,0,1,17172,WMM1,582420,false,false,667,image-keyboard-response,14
true,4,1,4,1,true,z,false,true,0.0-2.0-0.20-0.182-3.182,0,0,0,90,false,stim,false,2,803.4050000132993,0,0,0,17172,WMM1,584738,false,false,670,image-keyboard-response,15
true,4,1,4,1,true,z,false,true,0.0-2.0-0.20-0.183-3.183,0,0,0,90,false,stim,false,0,1348.2649999205023,0,0,2,17172,WMM1,587610,false,false,673,image-keyboard-response,16
true,4,2,4,2,true,d,false,true,0.0-2.0-0.20-0.184-3.184,0,0,0,68,false,stim,false,0,670.9150000242516,0,0,1,17172,WMM1,589809,false,false,676,image-keyboard-response,17
true,4,1,4,1,true,z,false,true,0.0-2.0-0.20-0.185-3.185,0,0,0,90,false,stim,false,2,716.454999987036,0,0,0,17172,WMM1,592045,false,false,679,image-keyboard-response,18
true,4,2,4,2,true,d,false,false,0.0-2.0-0.20-0.186-3.186,0,0,0,68,false,stim,false,0,677.4699999950826,0,0,1,17172,WMM1,594242,false,true,682,image-keyboard-response,19
true,4,1,4,1,true,z,false,true,0.0-2.0-0.20-0.187-3.187,0,0,0,90,false,stim,false,0,1390.1199999963865,0,0,2,17172,WMM1,597148,false,false,685,image-keyboard-response,20
true,4,1,4,1,true,z,false,true,0.0-2.0-0.20-0.188-3.188,0,0,0,90,false,stim,false,2,625.4650000482798,0,0,0,17172,WMM1,599288,false,false,688,image-keyboard-response,21
true,4,2,4,2,true,d,false,true,0.0-2.0-0.21-0.189-3.189,0,0,0,68,false,stim,false,0,1189.9950000224635,0,0,1,17172,WMM1,601985,false,false,691,image-keyboard-response,22
true,4,2,4,1,false,z,false,false,0.0-2.0-0.21-0.190-3.190,0,0,0,68,false,stim,true,2,856.2849999871105,0,0,0,17172,WMM1,604357,false,false,694,image-keyboard-response,23
true,4,1,4,1,true,z,false,true,0.0-2.0-0.21-0.191-3.191,0,0,0,90,false,stim,false,0,346.68499999679625,0,0,2,17172,WMM1,606215,false,false,697,image-keyboard-response,24
true,4,2,4,1,false,z,true,false,0.0-2.0-0.21-0.192-3.192,0,0,0,68,false,stim,false,0,772.1449999371544,0,0,2,17172,WMM1,608517,false,false,700,image-keyboard-response,25
true,4,2,4,2,true,d,false,false,0.0-2.0-0.21-0.193-3.193,0,0,0,68,false,stim,false,0,839.7750000003725,0,0,1,17172,WMM1,610882,false,true,703,image-keyboard-response,26
true,4,1,4,1,true,z,false,true,0.0-2.0-0.21-0.194-3.194,0,0,0,90,false,stim,false,2,420.9099999861792,0,0,0,17172,WMM1,612820,false,false,706,image-keyboard-response,27
true,4,1,4,1,true,z,false,true,0.0-2.0-0.21-0.195-3.195,0,0,0,90,false,stim,false,2,607.4749999679625,0,0,0,17172,WMM1,614945,false,false,709,image-keyboard-response,28
true,4,0,4,2,false,d,false,false,0.0-2.0-0.21-0.196-3.196,0,0,0,81,false,stim,true,0,584.1449999716133,0,0,1,17172,WMM1,617049,false,false,712,image-keyboard-response,29
true,4,1,4,1,true,z,false,true,0.0-2.0-0.21-0.197-3.197,0,0,0,90,false,stim,false,0,372.19499994535,0,0,2,17172,WMM1,618941,false,false,715,image-keyboard-response,30
true,5,1,2,0,false,q,false,false,0.0-2.0-0.22-0.198-3.198,0,0,0,90,true,stim,true,1,417.7450001006946,0,0,0,17172,WMM1,620886,false,false,718,image-keyboard-response,1
true,5,1,2,2,false,d,false,true,0.0-2.0-0.22-0.199-3.199,0,0,0,90,false,stim,true,1,478.39000006206334,0,0,2,17172,WMM1,622883,false,true,721,image-keyboard-response,2
true,5,1,2,2,false,d,false,false,0.0-2.0-0.22-0.200-3.200,0,0,0,90,false,stim,true,1,523.8849999150261,0,0,2,17172,WMM1,624928,false,false,724,image-keyboard-response,3
true,5,2,2,0,false,q,true,false,0.0-2.0-0.22-0.201-3.201,0,0,0,68,false,stim,false,1,1017.2350000357255,0,0,0,17172,WMM1,627463,false,false,727,image-keyboard-response,4
true,5,1,2,2,false,d,false,false,0.0-2.0-0.22-0.202-3.202,0,0,0,90,false,stim,true,1,538.0199999781325,0,0,2,17172,WMM1,629516,false,false,730,image-keyboard-response,5
true,5,1,2,1,true,z,false,true,0.0-2.0-0.22-0.203-3.203,0,0,0,90,false,stim,false,2,1233.6500000674278,0,0,1,17172,WMM1,632277,false,false,733,image-keyboard-response,6
true,5,0,2,0,true,q,false,true,0.0-2.0-0.22-0.204-3.204,0,0,0,81,false,stim,false,1,1013.2300000404939,0,0,0,17172,WMM1,634811,false,false,736,image-keyboard-response,7
true,5,1,2,1,true,z,false,true,0.0-2.0-0.22-0.205-3.205,0,0,0,90,false,stim,false,2,643.7900000018999,0,0,1,17172,WMM1,636966,false,false,739,image-keyboard-response,8
true,5,1,2,1,true,z,false,true,0.0-2.0-0.22-0.206-3.206,0,0,0,90,false,stim,false,2,516.1899999948218,0,0,1,17172,WMM1,639003,false,false,742,image-keyboard-response,9
true,5,1,2,1,true,z,false,true,0.0-2.0-0.23-0.207-3.207,0,0,0,90,false,stim,false,2,475.9449999546632,0,0,1,17172,WMM1,640996,false,false,745,image-keyboard-response,10
true,5,2,2,2,true,d,false,true,0.0-2.0-0.23-0.208-3.208,0,0,0,68,false,stim,false,1,666.0050000064075,0,0,2,17172,WMM1,643185,false,false,748,image-keyboard-response,11
true,5,0,2,1,false,z,true,false,0.0-2.0-0.23-0.209-3.209,0,0,0,81,false,stim,false,2,638.8749999459833,0,0,1,17172,WMM1,645349,false,false,751,image-keyboard-response,12
true,5,1,2,1,true,z,false,false,0.0-2.0-0.23-0.210-3.210,0,0,0,90,false,stim,false,2,576.8999999854714,0,0,1,17172,WMM1,647442,false,true,754,image-keyboard-response,13
true,5,0,2,0,true,q,false,false,0.0-2.0-0.23-0.211-3.211,0,0,0,81,false,stim,false,1,1426.1299999197945,0,0,0,17172,WMM1,650384,false,true,757,image-keyboard-response,14
true,5,2,2,0,false,q,true,false,0.0-2.0-0.23-0.212-3.212,0,0,0,68,false,stim,false,1,1195.4299999633804,0,0,0,17172,WMM1,653102,false,false,760,image-keyboard-response,15
true,5,2,2,2,true,d,false,false,0.0-2.0-0.23-0.213-3.213,0,0,0,68,false,stim,false,1,671.1199999554083,0,0,2,17172,WMM1,655296,false,true,763,image-keyboard-response,16
true,5,1,2,0,false,q,false,false,0.0-2.0-0.23-0.214-3.214,0,0,0,90,false,stim,true,1,976.6350000863895,0,0,0,17172,WMM1,657790,false,false,766,image-keyboard-response,17
true,5,1,2,2,false,d,false,false,0.0-2.0-0.23-0.215-3.215,0,0,0,90,false,stim,true,1,1285.4150000493973,0,0,2,17172,WMM1,660599,false,false,769,image-keyboard-response,18
true,5,0,2,2,false,d,true,false,0.0-2.0-0.24-0.216-3.216,0,0,0,81,false,stim,false,1,793.0199999827892,0,0,2,17172,WMM1,662921,false,false,772,image-keyboard-response,19
true,5,2,2,2,true,d,false,true,0.0-2.0-0.24-0.217-3.217,0,0,0,68,false,stim,false,1,470.19500005990267,0,0,2,17172,WMM1,664907,false,false,775,image-keyboard-response,20
true,5,2,2,2,true,d,false,false,0.0-2.0-0.24-0.218-3.218,0,0,0,68,false,stim,false,1,390.9749999875203,0,0,2,17172,WMM1,666812,false,true,778,image-keyboard-response,21
true,5,0,2,0,true,q,false,true,0.0-2.0-0.24-0.219-3.219,0,0,0,81,false,stim,false,1,1237.859999993816,0,0,0,17172,WMM1,669571,false,false,781,image-keyboard-response,22
true,5,1,2,1,true,z,false,true,0.0-2.0-0.24-0.220-3.220,0,0,0,90,false,stim,false,2,717.560000019148,0,0,1,17172,WMM1,671811,false,false,784,image-keyboard-response,23
true,5,1,2,1,true,z,false,true,0.0-2.0-0.24-0.221-3.221,0,0,0,90,false,stim,false,2,503.9549999637529,0,0,1,17172,WMM1,673836,false,false,787,image-keyboard-response,24
true,5,1,2,1,true,z,false,true,0.0-2.0-0.24-0.222-3.222,0,0,0,90,false,stim,false,2,467.91000000666827,0,0,1,17172,WMM1,675822,false,false,790,image-keyboard-response,25
true,5,0,2,0,true,q,false,true,0.0-2.0-0.24-0.223-3.223,0,0,0,81,false,stim,false,1,504.92999993730336,0,0,0,17172,WMM1,677847,false,false,793,image-keyboard-response,26
true,5,0,2,0,true,q,false,false,0.0-2.0-0.24-0.224-3.224,0,0,0,81,false,stim,false,1,392.6450000144541,0,0,0,17172,WMM1,679765,false,true,796,image-keyboard-response,27
true,5,1,2,0,false,q,false,false,0.0-2.0-0.25-0.225-3.225,0,0,0,90,false,stim,true,1,1568.0299999658018,0,0,0,17172,WMM1,682857,false,false,799,image-keyboard-response,28
true,5,1,2,1,true,z,false,true,0.0-2.0-0.25-0.226-3.226,0,0,0,90,false,stim,false,2,692.174999974668,0,0,1,17172,WMM1,685064,false,false,802,image-keyboard-response,29
true,5,2,2,0,false,q,true,false,0.0-2.0-0.25-0.227-3.227,0,0,0,68,false,stim,false,1,712.2299999464303,0,0,0,17172,WMM1,687295,false,false,805,image-keyboard-response,30
true,5,1,2,1,true,z,false,true,0.0-2.0-0.25-0.228-3.228,0,0,0,90,false,stim,false,2,573.1549999909475,0,0,1,17172,WMM1,689382,false,false,808,image-keyboard-response,31
true,5,1,2,1,true,z,false,true,0.0-2.0-0.25-0.229-3.229,0,0,0,90,false,stim,false,2,441.2000000011176,0,0,1,17172,WMM1,691338,false,false,811,image-keyboard-response,32
true,5,2,2,2,true,d,false,true,0.0-2.0-0.25-0.230-3.230,0,0,0,68,false,stim,false,1,667.7350000245497,0,0,2,17172,WMM1,693535,false,false,814,image-keyboard-response,33
true,5,2,2,2,true,d,false,true,0.0-2.0-0.25-0.231-3.231,0,0,0,68,false,stim,false,1,608.5600000806153,0,0,2,17172,WMM1,695669,false,false,817,image-keyboard-response,34
true,5,1,2,0,false,q,false,false,0.0-2.0-0.25-0.232-3.232,0,0,0,90,false,stim,true,1,678.4549999283627,0,0,0,17172,WMM1,697867,false,false,820,image-keyboard-response,35
true,5,1,2,2,false,d,false,false,0.0-2.0-0.25-0.233-3.233,0,0,0,90,false,stim,true,1,1149.2349999025464,0,0,2,17172,WMM1,700539,false,false,823,image-keyboard-response,36
true,6,2,1,0,false,q,false,false,0.0-2.0-0.26-0.234-3.234,0,0,0,68,true,stim,true,2,806.3100000144914,0,0,2,17172,WMM1,702868,false,false,826,image-keyboard-response,1
true,6,1,1,1,true,z,false,true,0.0-2.0-0.26-0.235-3.235,0,0,0,90,false,stim,false,0,1783.3200000459328,0,0,0,17172,WMM1,706173,false,false,829,image-keyboard-response,2
true,6,0,1,0,true,q,false,true,0.0-2.0-0.26-0.236-3.236,0,0,0,81,false,stim,false,1,1008.6300000548363,0,0,1,17172,WMM1,708698,false,false,832,image-keyboard-response,3
false,6,-1,1,0,false,q,true,false,0.0-2.0-0.26-0.237-3.237,0,0,0,,false,stim,false,1,,0,0,1,17172,WMM1,713235,false,false,835,image-keyboard-response,4
true,6,2,1,1,false,z,true,false,0.0-2.0-0.26-0.238-3.238,0,0,0,68,false,stim,false,0,1083.8850000873208,0,0,0,17172,WMM1,715836,false,false,838,image-keyboard-response,5
true,6,0,1,0,true,q,false,true,0.0-2.0-0.26-0.239-3.239,0,0,0,81,false,stim,false,1,557.6149999396876,0,0,1,17172,WMM1,717914,false,false,841,image-keyboard-response,6
true,6,1,1,0,false,q,true,true,0.0-2.0-0.26-0.240-3.240,0,0,0,90,false,stim,false,2,948.8150000106543,0,0,2,17172,WMM1,720386,false,true,844,image-keyboard-response,7
true,6,2,1,0,false,q,false,false,0.0-2.0-0.26-0.241-3.241,0,0,0,68,false,stim,true,2,1142.0549999456853,0,0,2,17172,WMM1,723058,false,false,847,image-keyboard-response,8
true,6,0,1,1,false,z,false,false,0.0-2.0-0.26-0.242-3.242,0,0,0,81,false,stim,true,0,1087.2400000225753,0,0,0,17172,WMM1,725667,false,false,850,image-keyboard-response,9
false,6,-1,1,1,false,z,true,false,0.0-2.0-0.27-0.243-3.243,0,0,0,,false,stim,false,0,,0,0,0,17172,WMM1,730198,false,false,853,image-keyboard-response,10
false,6,-1,1,0,false,q,true,false,0.0-2.0-0.27-0.244-3.244,0,0,0,,false,stim,false,2,,0,0,2,17172,WMM1,734716,false,false,856,image-keyboard-response,11
true,6,2,1,0,false,q,true,false,0.0-2.0-0.27-0.245-3.245,0,0,0,68,false,stim,false,1,320.4799999948591,0,0,1,17172,WMM1,736555,false,false,859,image-keyboard-response,12
true,6,0,1,1,false,z,false,false,0.0-2.0-0.27-0.246-3.246,0,0,0,81,false,stim,true,0,753.194999997504,0,0,0,17172,WMM1,738819,false,false,862,image-keyboard-response,13
true,6,1,1,0,false,q,false,false,0.0-2.0-0.27-0.247-3.247,0,0,0,90,false,stim,true,1,1305.419999989681,0,0,1,17172,WMM1,741628,false,false,865,image-keyboard-response,14
false,6,-1,1,0,false,q,true,false,0.0-2.0-0.27-0.248-3.248,0,0,0,,false,stim,false,2,,0,0,2,17172,WMM1,746138,false,false,868,image-keyboard-response,15
true,6,0,1,0,true,q,false,true,0.0-2.0-0.27-0.249-3.249,0,0,0,81,false,stim,false,1,2266.1800000350922,0,0,1,17172,WMM1,749919,false,false,871,image-keyboard-response,16
true,6,1,1,1,true,z,false,true,0.0-2.0-0.27-0.250-3.250,0,0,0,90,false,stim,false,0,1157.5449999654666,0,0,0,17172,WMM1,752593,false,false,874,image-keyboard-response,17
false,6,-1,1,0,false,q,true,false,0.0-2.0-0.27-0.251-3.251,0,0,0,,false,stim,false,2,,0,0,2,17172,WMM1,757098,false,false,877,image-keyboard-response,18
true,6,2,1,1,false,z,true,false,0.0-2.0-0.28-0.252-3.252,0,0,0,68,false,stim,false,0,536.0599999548867,0,0,0,17172,WMM1,759151,false,false,880,image-keyboard-response,19
true,6,1,1,0,false,q,true,false,0.0-2.0-0.28-0.253-3.253,0,0,0,90,false,stim,false,2,600.0000000931323,0,0,2,17172,WMM1,761268,false,false,883,image-keyboard-response,20
true,6,1,1,0,false,q,false,false,0.0-2.0-0.28-0.254-3.254,0,0,0,90,false,stim,true,1,691.5400000289083,0,0,1,17172,WMM1,763492,false,false,886,image-keyboard-response,21
true,6,0,1,0,true,q,false,true,0.0-2.0-0.28-0.255-3.255,0,0,0,81,false,stim,false,1,716.0950000397861,0,0,1,17172,WMM1,765722,false,false,889,image-keyboard-response,22
true,6,0,1,0,true,q,false,true,0.0-2.0-0.28-0.256-3.256,0,0,0,81,false,stim,false,1,417.4049999564886,0,0,1,17172,WMM1,767650,false,false,892,image-keyboard-response,23
true,6,1,1,1,true,z,false,true,0.0-2.0-0.28-0.257-3.257,0,0,0,90,false,stim,false,0,580.4700000444427,0,0,0,17172,WMM1,769753,false,false,895,image-keyboard-response,24
true,6,2,1,0,false,q,false,false,0.0-2.0-0.28-0.258-3.258,0,0,0,68,false,stim,true,2,730.9300000779331,0,0,2,17172,WMM1,772002,false,false,898,image-keyboard-response,25
true,6,0,1,0,true,q,false,true,0.0-2.0-0.28-0.259-3.259,0,0,0,81,false,stim,false,2,1531.2949999934062,0,0,2,17172,WMM1,775041,false,false,901,image-keyboard-response,26
true,6,1,1,1,true,z,false,true,0.0-2.0-0.28-0.260-3.260,0,0,0,90,false,stim,false,0,774.4449999881908,0,0,0,17172,WMM1,777336,false,false,904,image-keyboard-response,27
true,6,0,1,0,true,q,false,true,0.0-2.0-0.29-0.261-3.261,0,0,0,81,false,stim,false,1,503.29500006046146,0,0,1,17172,WMM1,779349,false,false,907,image-keyboard-response,28
true,6,0,1,0,true,q,false,true,0.0-2.0-0.29-0.262-3.262,0,0,0,81,false,stim,false,1,802.144999965094,0,0,1,17172,WMM1,781677,false,false,910,image-keyboard-response,29
true,6,1,1,0,false,q,true,false,0.0-2.0-0.29-0.263-3.263,0,0,0,90,false,stim,false,2,622.3350000800565,0,0,2,17172,WMM1,783820,false,false,913,image-keyboard-response,30
true,6,0,1,1,false,z,false,false,0.0-2.0-0.29-0.264-3.264,0,0,0,81,false,stim,true,0,528.9300000295043,0,0,0,17172,WMM1,785868,false,false,916,image-keyboard-response,31
true,6,2,1,0,false,q,true,false,0.0-2.0-0.29-0.265-3.265,0,0,0,68,false,stim,false,1,1585.300000035204,0,0,1,17172,WMM1,788969,false,false,919,image-keyboard-response,32
true,6,0,1,1,false,z,false,false,0.0-2.0-0.29-0.266-3.266,0,0,0,81,false,stim,true,0,1176.8950000405312,0,0,0,17172,WMM1,791650,false,false,922,image-keyboard-response,33
true,6,2,1,0,false,q,false,false,0.0-2.0-0.29-0.267-3.267,0,0,0,68,false,stim,true,2,1701.1899999342859,0,0,2,17172,WMM1,794868,false,false,925,image-keyboard-response,34
true,6,0,1,1,false,z,false,false,0.0-2.0-0.29-0.268-3.268,0,0,0,81,false,stim,true,0,1814.7099999478087,0,0,0,17172,WMM1,798200,false,false,928,image-keyboard-response,35
true,6,2,1,0,false,q,false,false,0.0-2.0-0.29-0.269-3.269,0,0,0,68,false,stim,true,2,1803.3350000623614,0,0,2,17172,WMM1,801516,false,false,931,image-keyboard-response,36
true,6,1,1,0,false,q,true,false,0.0-2.0-0.30-0.270-3.270,0,0,0,90,false,stim,false,2,1619.6849999250844,0,0,2,17172,WMM1,804650,false,false,934,image-keyboard-response,37
true,6,0,1,0,true,q,false,true,0.0-2.0-0.30-0.271-3.271,0,0,0,81,false,stim,false,2,1671.8500000424683,0,0,2,17172,WMM1,807827,false,false,937,image-keyboard-response,38
true,6,0,1,0,true,q,false,true,0.0-2.0-0.30-0.272-3.272,0,0,0,81,false,stim,false,1,1888.355000060983,0,0,1,17172,WMM1,811231,false,false,940,image-keyboard-response,39
false,6,-1,1,0,false,q,true,false,0.0-2.0-0.30-0.273-3.273,0,0,0,,false,stim,false,2,,0,0,2,17172,WMM1,815757,false,false,943,image-keyboard-response,40
true,6,0,1,1,false,z,false,false,0.0-2.0-0.30-0.274-3.274,0,0,0,81,false,stim,true,0,2786.534999962896,0,0,0,17172,WMM1,820066,false,false,946,image-keyboard-response,41
true,6,1,1,1,true,z,false,true,0.0-2.0-0.30-0.275-3.275,0,0,0,90,false,stim,false,0,403.9050000719726,0,0,0,17172,WMM1,821983,false,false,949,image-keyboard-response,42
true,6,2,1,0,false,q,true,false,0.0-2.0-0.30-0.276-3.276,0,0,0,68,false,stim,false,1,854.5049999374896,0,0,1,17172,WMM1,824362,false,false,952,image-keyboard-response,43
true,6,1,1,1,true,z,false,true,0.0-2.0-0.30-0.277-3.277,0,0,0,90,false,stim,false,0,872.7500000968575,0,0,0,17172,WMM1,826750,false,false,955,image-keyboard-response,44
true,6,1,1,0,false,q,false,false,0.0-2.0-0.30-0.278-3.278,0,0,0,90,false,stim,true,1,870.0850000604987,0,0,1,17172,WMM1,829130,false,false,958,image-keyboard-response,45
true,6,0,1,0,true,q,false,false,0.0-2.0-0.31-0.279-3.279,0,0,0,81,false,stim,false,2,369.48500003200024,0,0,2,17172,WMM1,831025,false,true,961,image-keyboard-response,46
true,6,1,1,0,false,q,false,false,0.0-2.0-0.31-0.280-3.280,0,0,0,90,false,stim,true,1,1126.5999999595806,0,0,1,17172,WMM1,833675,false,false,964,image-keyboard-response,47
true,6,2,1,0,false,q,true,false,0.0-2.0-0.31-0.281-3.281,0,0,0,68,false,stim,false,1,551.3199999695644,0,0,1,17172,WMM1,835759,false,false,967,image-keyboard-response,48
true,6,0,1,0,true,q,false,false,0.0-2.0-0.31-0.282-3.282,0,0,0,81,false,stim,false,2,682.9300000099465,0,0,2,17172,WMM1,837961,false,true,970,image-keyboard-response,49
true,6,1,1,1,true,z,false,true,0.0-2.0-0.31-0.283-3.283,0,0,0,90,false,stim,false,0,1014.145000022836,0,0,0,17172,WMM1,840491,false,false,973,image-keyboard-response,50
true,6,1,1,1,true,z,false,true,0.0-2.0-0.31-0.284-3.284,0,0,0,90,false,stim,false,0,465.76500008814037,0,0,0,17172,WMM1,842486,false,false,976,image-keyboard-response,51
true,6,1,1,1,true,z,false,true,0.0-2.0-0.31-0.285-3.285,0,0,0,90,false,stim,false,0,525.1350000035018,0,0,0,17172,WMM1,844532,false,false,979,image-keyboard-response,52
true,6,0,1,0,true,q,false,true,0.0-2.0-0.31-0.286-3.286,0,0,0,81,false,stim,false,2,1462.8099999390543,0,0,2,17172,WMM1,847510,false,false,982,image-keyboard-response,53
true,6,2,1,0,false,q,true,false,0.0-2.0-0.31-0.287-3.287,0,0,0,68,false,stim,false,1,1138.1899999687448,0,0,1,17172,WMM1,850160,false,false,985,image-keyboard-response,54
true,6,1,1,1,true,z,false,true,0.0-2.0-0.32-0.288-3.288,0,0,0,90,false,stim,false,0,691.8499999446794,0,0,0,17172,WMM1,852374,false,false,988,image-keyboard-response,55
true,6,1,1,0,false,q,false,false,0.0-2.0-0.32-0.289-3.289,0,0,0,90,false,stim,true,1,704.8949999734759,0,0,1,17172,WMM1,854608,false,false,991,image-keyboard-response,56
true,6,0,1,0,true,q,false,true,0.0-2.0-0.32-0.290-3.290,0,0,0,81,false,stim,false,2,579.7100000781938,0,0,2,17172,WMM1,856703,false,false,994,image-keyboard-response,57
true,6,0,1,0,true,q,false,true,0.0-2.0-0.32-0.291-3.291,0,0,0,81,false,stim,false,2,607.0499999914318,0,0,2,17172,WMM1,858833,false,false,997,image-keyboard-response,58
true,6,1,1,1,true,z,false,true,0.0-2.0-0.32-0.292-3.292,0,0,0,90,false,stim,false,0,1450.3399999812245,0,0,0,17172,WMM1,861800,false,false,1000,image-keyboard-response,59
true,6,1,1,1,true,z,false,true,0.0-2.0-0.32-0.293-3.293,0,0,0,90,false,stim,false,0,573.4100000699982,0,0,0,17172,WMM1,863900,false,false,1003,image-keyboard-response,60
true,7,0,2,2,false,d,false,false,0.0-2.0-0.32-0.294-3.294,0,0,0,81,true,stim,true,0,744.3449998972937,0,0,2,17172,WMM1,866164,false,false,1006,image-keyboard-response,1
true,7,0,2,1,false,z,false,false,0.0-2.0-0.32-0.295-3.295,0,0,0,81,false,stim,true,0,632.1650000754744,0,0,1,17172,WMM1,868321,false,false,1009,image-keyboard-response,2
true,7,2,2,1,false,z,true,false,0.0-2.0-0.32-0.296-3.296,0,0,0,68,false,stim,false,0,529.0600000880659,0,0,1,17172,WMM1,870374,false,false,1012,image-keyboard-response,3
true,7,1,2,1,true,z,false,true,0.0-2.0-0.33-0.297-3.297,0,0,0,90,false,stim,false,0,534.624999971129,0,0,1,17172,WMM1,872434,false,false,1015,image-keyboard-response,4
true,7,1,2,0,false,q,false,false,0.0-2.0-0.33-0.298-3.298,0,0,0,90,false,stim,true,1,387.8699999768287,0,0,0,17172,WMM1,874337,false,false,1018,image-keyboard-response,5
true,7,2,2,2,true,d,false,true,0.0-2.0-0.33-0.299-3.299,0,0,0,68,false,stim,false,0,835.7099998975173,0,0,2,17172,WMM1,876693,false,false,1021,image-keyboard-response,6
true,7,1,2,0,false,q,false,false,0.0-2.0-0.33-0.300-3.300,0,0,0,90,false,stim,true,1,769.6349999168888,0,0,0,17172,WMM1,878979,false,false,1024,image-keyboard-response,7
true,7,1,2,1,true,z,false,true,0.0-2.0-0.33-0.301-3.301,0,0,0,90,false,stim,false,0,858.8849999941885,0,0,1,17172,WMM1,881349,false,false,1027,image-keyboard-response,8
true,7,1,2,1,true,z,false,true,0.0-2.0-0.33-0.302-3.302,0,0,0,90,false,stim,false,0,566.7149999644607,0,0,1,17172,WMM1,883424,false,false,1030,image-keyboard-response,9
true,7,0,2,0,true,q,false,true,0.0-2.0-0.33-0.303-3.303,0,0,0,81,false,stim,false,1,596.9150000018999,0,0,0,17172,WMM1,885541,false,false,1033,image-keyboard-response,10
true,7,2,2,2,true,d,false,true,0.0-2.0-0.33-0.304-3.304,0,0,0,68,false,stim,false,0,502.8200000524521,0,0,2,17172,WMM1,887567,false,false,1036,image-keyboard-response,11
true,7,2,2,2,true,d,false,true,0.0-2.0-0.33-0.305-3.305,0,0,0,68,false,stim,false,0,529.5700000133365,0,0,2,17172,WMM1,889622,false,false,1039,image-keyboard-response,12
true,7,0,2,0,true,q,false,true,0.0-2.0-0.34-0.306-3.306,0,0,0,81,false,stim,false,1,500.6700000958517,0,0,0,17172,WMM1,891645,false,false,1042,image-keyboard-response,13
true,7,2,2,2,true,d,false,true,0.0-2.0-0.34-0.307-3.307,0,0,0,68,false,stim,false,0,514.6850000601262,0,0,2,17172,WMM1,893683,false,false,1045,image-keyboard-response,14
true,7,0,2,0,true,q,false,true,0.0-2.0-0.34-0.308-3.308,0,0,0,81,false,stim,false,1,601.2099999934435,0,0,0,17172,WMM1,895799,false,false,1048,image-keyboard-response,15
true,7,1,2,1,true,z,false,true,0.0-2.0-0.34-0.309-3.309,0,0,0,90,false,stim,false,0,885.234999936074,0,0,1,17172,WMM1,898206,false,false,1051,image-keyboard-response,16
true,7,2,2,2,true,d,false,true,0.0-2.0-0.34-0.310-3.310,0,0,0,68,false,stim,false,0,641.2700000219047,0,0,2,17172,WMM1,900377,false,false,1054,image-keyboard-response,17
true,7,1,2,1,true,z,false,true,0.0-2.0-0.34-0.311-3.311,0,0,0,90,false,stim,false,0,565.4099999228492,0,0,1,17172,WMM1,902463,false,false,1057,image-keyboard-response,18
true,7,0,2,0,true,q,false,true,0.0-2.0-0.34-0.312-3.312,0,0,0,81,false,stim,false,1,355.064999894239,0,0,0,17172,WMM1,904348,false,false,1060,image-keyboard-response,19
true,7,1,2,1,true,z,false,true,0.0-2.0-0.34-0.313-3.313,0,0,0,90,false,stim,false,0,608.0399999627843,0,0,1,17172,WMM1,906481,false,false,1063,image-keyboard-response,20
true,7,2,2,2,true,d,false,true,0.0-2.0-0.34-0.314-3.314,0,0,0,68,false,stim,false,0,486.97500000707805,0,0,2,17172,WMM1,908486,false,false,1066,image-keyboard-response,21
true,7,1,2,1,true,z,false,true,0.0-2.0-0.35-0.315-3.315,0,0,0,90,false,stim,false,0,639.8449999978766,0,0,1,17172,WMM1,910646,false,false,1069,image-keyboard-response,22
true,7,0,2,0,true,q,false,true,0.0-2.0-0.35-0.316-3.316,0,0,0,81,false,stim,false,1,528.6250000353903,0,0,0,17172,WMM1,912684,false,false,1072,image-keyboard-response,23
true,7,2,2,2,true,d,false,true,0.0-2.0-0.35-0.317-3.317,0,0,0,68,false,stim,false,0,645.0900000054389,0,0,2,17172,WMM1,914860,false,false,1075,image-keyboard-response,24
true,7,2,2,2,true,d,false,true,0.0-2.0-0.35-0.318-3.318,0,0,0,68,false,stim,false,0,611.6249999031425,0,0,2,17172,WMM1,916994,false,false,1078,image-keyboard-response,25
true,7,2,2,2,true,d,false,true,0.0-2.0-0.35-0.319-3.319,0,0,0,68,false,stim,false,0,509.6200000261888,0,0,2,17172,WMM1,919025,false,false,1081,image-keyboard-response,26
true,7,0,2,0,true,q,false,false,0.0-2.0-0.35-0.320-3.320,0,0,0,81,false,stim,false,1,487.3299999162555,0,0,0,17172,WMM1,921045,false,true,1084,image-keyboard-response,27
true,7,1,2,0,false,q,false,false,0.0-2.0-0.35-0.321-3.321,0,0,0,90,false,stim,true,1,546.9299999531358,0,0,0,17172,WMM1,923118,false,false,1087,image-keyboard-response,28
true,7,1,2,1,true,z,false,true,0.0-2.0-0.35-0.322-3.322,0,0,0,90,false,stim,false,0,750.8300000336021,0,0,1,17172,WMM1,925394,false,false,1090,image-keyboard-response,29
true,7,1,2,1,true,z,false,true,0.0-2.0-0.35-0.323-3.323,0,0,0,90,false,stim,false,0,462.44999999180436,0,0,1,17172,WMM1,927367,false,false,1093,image-keyboard-response,30
true,8,2,1,2,true,d,false,false,0.0-2.0-0.36-0.324-3.324,0,0,0,68,true,stim,false,0,512.1100000105798,0,0,0,17172,WMM1,929396,false,true,1096,image-keyboard-response,1
true,8,2,1,0,false,q,false,true,0.0-2.0-0.36-0.325-3.325,0,0,0,68,false,stim,true,2,392.18500000424683,0,0,2,17172,WMM1,931315,false,true,1099,image-keyboard-response,2
true,8,0,1,2,false,d,false,false,0.0-2.0-0.36-0.326-3.326,0,0,0,81,false,stim,true,0,545.5350000411272,0,0,0,17172,WMM1,933384,false,false,1102,image-keyboard-response,3
true,8,2,1,0,false,q,false,false,0.0-2.0-0.36-0.327-3.327,0,0,0,68,false,stim,true,2,570.1899999985471,0,0,2,17172,WMM1,935480,false,false,1105,image-keyboard-response,4
true,8,1,1,0,false,q,true,false,0.0-2.0-0.36-0.328-3.328,0,0,0,90,false,stim,false,2,549.4650000473484,0,0,2,17172,WMM1,937549,false,false,1108,image-keyboard-response,5
true,8,1,1,2,false,d,true,false,0.0-2.0-0.36-0.329-3.329,0,0,0,90,false,stim,false,0,785.1649998920038,0,0,0,17172,WMM1,939851,false,false,1111,image-keyboard-response,6
true,8,1,1,2,false,d,false,false,0.0-2.0-0.36-0.330-3.330,0,0,0,90,false,stim,true,1,473.7249999307096,0,0,1,17172,WMM1,941854,false,false,1114,image-keyboard-response,7
true,8,2,1,2,true,d,false,false,0.0-2.0-0.36-0.331-3.331,0,0,0,68,false,stim,false,1,650.969999958761,0,0,1,17172,WMM1,944022,false,true,1117,image-keyboard-response,8
true,8,0,1,2,false,d,true,false,0.0-2.0-0.36-0.332-3.332,0,0,0,81,false,stim,false,1,502.01499997638166,0,0,1,17172,WMM1,946048,false,false,1120,image-keyboard-response,9
true,8,2,1,0,false,q,false,true,0.0-2.0-0.37-0.333-3.333,0,0,0,68,false,stim,true,2,593.3899999363348,0,0,2,17172,WMM1,948164,false,true,1123,image-keyboard-response,10
true,8,2,1,0,false,q,false,false,0.0-2.0-0.37-0.334-3.334,0,0,0,68,false,stim,true,2,496.27000000327826,0,0,2,17172,WMM1,950174,false,false,1126,image-keyboard-response,11
true,8,1,1,2,false,d,false,false,0.0-2.0-0.37-0.335-3.335,0,0,0,90,false,stim,true,1,447.67000002320856,0,0,1,17172,WMM1,952149,false,false,1129,image-keyboard-response,12
true,8,0,1,2,false,d,false,false,0.0-2.0-0.37-0.336-3.336,0,0,0,81,false,stim,true,0,619.2549999104813,0,0,0,17172,WMM1,954293,false,false,1132,image-keyboard-response,13
true,8,1,1,2,false,d,true,false,0.0-2.0-0.37-0.337-3.337,0,0,0,90,false,stim,false,0,621.8349999981001,0,0,0,17172,WMM1,956431,false,false,1135,image-keyboard-response,14
true,8,1,1,2,false,d,false,false,0.0-2.0-0.37-0.338-3.338,0,0,0,90,false,stim,true,1,1274.3599999230355,0,0,1,17172,WMM1,959222,false,false,1138,image-keyboard-response,15
true,8,2,1,2,true,d,false,true,0.0-2.0-0.37-0.339-3.339,0,0,0,68,false,stim,false,0,548.0800000950694,0,0,0,17172,WMM1,961300,false,false,1141,image-keyboard-response,16
true,8,2,1,0,false,q,false,false,0.0-2.0-0.37-0.340-3.340,0,0,0,68,false,stim,true,2,394.92500002961606,0,0,2,17172,WMM1,963215,false,false,1144,image-keyboard-response,17
true,8,2,1,2,true,d,false,true,0.0-2.0-0.37-0.341-3.341,0,0,0,68,false,stim,false,1,553.9850000059232,0,0,1,17172,WMM1,965283,false,false,1147,image-keyboard-response,18
true,8,2,1,2,true,d,false,true,0.0-2.0-0.38-0.342-3.342,0,0,0,68,false,stim,false,1,409.3649999704212,0,0,1,17172,WMM1,967211,false,false,1150,image-keyboard-response,19
true,8,2,1,2,true,d,false,true,0.0-2.0-0.38-0.343-3.343,0,0,0,68,false,stim,false,0,546.7199999839067,0,0,0,17172,WMM1,969275,false,false,1153,image-keyboard-response,20
true,8,1,1,0,false,q,true,false,0.0-2.0-0.38-0.344-3.344,0,0,0,90,false,stim,false,2,578.150000073947,0,0,2,17172,WMM1,971374,false,false,1156,image-keyboard-response,21
true,8,2,1,2,true,d,false,true,0.0-2.0-0.38-0.345-3.345,0,0,0,68,false,stim,false,1,410.3350000223145,0,0,1,17172,WMM1,973317,false,false,1159,image-keyboard-response,22
true,8,2,1,2,true,d,false,true,0.0-2.0-0.38-0.346-3.346,0,0,0,68,false,stim,false,1,426.4200000325218,0,0,1,17172,WMM1,975272,false,false,1162,image-keyboard-response,23
true,8,0,1,0,true,q,false,true,0.0-2.0-0.38-0.347-3.347,0,0,0,81,false,stim,false,2,566.7549999197945,0,0,2,17172,WMM1,977360,false,false,1165,image-keyboard-response,24
true,8,2,1,0,false,q,false,false,0.0-2.0-0.38-0.348-3.348,0,0,0,68,false,stim,true,2,651.7799999564886,0,0,2,17172,WMM1,979534,false,false,1168,image-keyboard-response,25
true,8,2,1,2,true,d,false,true,0.0-2.0-0.38-0.349-3.349,0,0,0,68,false,stim,false,0,893.735000048764,0,0,0,17172,WMM1,981952,false,false,1171,image-keyboard-response,26
true,8,0,1,2,false,d,false,true,0.0-2.0-0.38-0.350-3.350,0,0,0,81,false,stim,true,0,588.469999958761,0,0,0,17172,WMM1,984072,false,true,1174,image-keyboard-response,27
false,8,-1,1,2,false,d,true,false,0.0-2.0-0.39-0.351-3.351,0,0,0,,false,stim,false,0,,0,0,0,17172,WMM1,988616,false,false,1177,image-keyboard-response,28
true,8,2,1,0,false,q,false,false,0.0-2.0-0.39-0.352-3.352,0,0,0,68,false,stim,true,2,576.4449998969212,0,0,2,17172,WMM1,990713,false,false,1180,image-keyboard-response,29
true,8,0,1,2,false,d,true,true,0.0-2.0-0.39-0.353-3.353,0,0,0,81,false,stim,false,1,599.6499999891967,0,0,1,17172,WMM1,992830,false,true,1183,image-keyboard-response,30
true,8,2,1,0,false,q,false,false,0.0-2.0-0.39-0.354-3.354,0,0,0,68,false,stim,true,2,1085.1000000257045,0,0,2,17172,WMM1,995421,false,false,1186,image-keyboard-response,31
true,8,2,1,2,true,d,false,true,0.0-2.0-0.39-0.355-3.355,0,0,0,68,false,stim,false,1,1254.300000029616,0,0,1,17172,WMM1,998196,false,false,1189,image-keyboard-response,32
true,8,2,1,2,true,d,false,true,0.0-2.0-0.39-0.356-3.356,0,0,0,68,false,stim,false,1,587.9649999551475,0,0,1,17172,WMM1,1000289,false,false,1192,image-keyboard-response,33
true,8,2,1,2,true,d,false,true,0.0-2.0-0.39-0.357-3.357,0,0,0,68,false,stim,false,0,675.1200000289828,0,0,0,17172,WMM1,1002492,false,false,1195,image-keyboard-response,34
true,8,2,1,2,true,d,false,true,0.0-2.0-0.39-0.358-3.358,0,0,0,68,false,stim,false,0,682.7699999557808,0,0,0,17172,WMM1,1004697,false,false,1198,image-keyboard-response,35
true,8,2,1,0,false,q,false,false,0.0-2.0-0.39-0.359-3.359,0,0,0,68,false,stim,true,2,536.589999916032,0,0,2,17172,WMM1,1006756,false,false,1201,image-keyboard-response,36
true,8,1,1,2,false,d,true,false,0.0-2.0-0.40-0.360-3.360,0,0,0,90,false,stim,false,0,929.1550000198185,0,0,0,17172,WMM1,1009192,false,false,1204,image-keyboard-response,37
true,8,2,1,2,true,d,false,true,0.0-2.0-0.40-0.361-3.361,0,0,0,68,false,stim,false,0,2803.4350000089034,0,0,0,17172,WMM1,1013518,false,false,1207,image-keyboard-response,38
true,8,2,1,2,true,d,false,true,0.0-2.0-0.40-0.362-3.362,0,0,0,68,false,stim,false,1,632.9899999545887,0,0,1,17172,WMM1,1015659,false,false,1210,image-keyboard-response,39
true,8,0,1,2,false,d,false,false,0.0-2.0-0.40-0.363-3.363,0,0,0,81,false,stim,true,0,1027.0650000311434,0,0,0,17172,WMM1,1018209,false,false,1213,image-keyboard-response,40
true,8,2,1,0,false,q,false,false,0.0-2.0-0.40-0.364-3.364,0,0,0,68,false,stim,true,2,1989.5399999804795,0,0,2,17172,WMM1,1021710,false,false,1216,image-keyboard-response,41
true,8,1,1,0,false,q,true,false,0.0-2.0-0.40-0.365-3.365,0,0,0,90,false,stim,false,2,505.7449999731034,0,0,2,17172,WMM1,1023724,false,false,1219,image-keyboard-response,42
true,8,2,1,0,false,q,false,false,0.0-2.0-0.40-0.366-3.366,0,0,0,68,false,stim,true,2,463.1150000495836,0,0,2,17172,WMM1,1025706,false,false,1222,image-keyboard-response,43
true,8,2,1,2,true,d,false,true,0.0-2.0-0.40-0.367-3.367,0,0,0,68,false,stim,false,1,909.5399999059737,0,0,1,17172,WMM1,1028146,false,false,1225,image-keyboard-response,44
true,8,2,1,2,true,d,false,true,0.0-2.0-0.40-0.368-3.368,0,0,0,68,false,stim,false,1,1056.7499999888241,0,0,1,17172,WMM1,1030722,false,false,1228,image-keyboard-response,45
true,8,2,1,0,false,q,false,false,0.0-2.0-0.41-0.369-3.369,0,0,0,68,false,stim,true,2,621.3899999856949,0,0,2,17172,WMM1,1032867,false,false,1231,image-keyboard-response,46
true,8,2,1,2,true,d,false,true,0.0-2.0-0.41-0.370-3.370,0,0,0,68,false,stim,false,1,466.3149999687448,0,0,1,17172,WMM1,1034851,false,false,1234,image-keyboard-response,47
true,8,1,1,2,false,d,true,false,0.0-2.0-0.41-0.371-3.371,0,0,0,90,false,stim,false,0,652.2300000069663,0,0,0,17172,WMM1,1037031,false,false,1237,image-keyboard-response,48
true,8,2,1,0,false,q,false,true,0.0-2.0-0.41-0.372-3.372,0,0,0,68,false,stim,true,2,663.5150000220165,0,0,2,17172,WMM1,1039223,false,true,1240,image-keyboard-response,49
true,8,2,1,2,true,d,false,true,0.0-2.0-0.41-0.373-3.373,0,0,0,68,false,stim,false,0,1309.125000028871,0,0,0,17172,WMM1,1042050,false,false,1243,image-keyboard-response,50
true,8,2,1,2,true,d,false,true,0.0-2.0-0.41-0.374-3.374,0,0,0,68,false,stim,false,0,576.7549999291077,0,0,0,17172,WMM1,1044131,false,false,1246,image-keyboard-response,51
true,8,2,1,2,true,d,false,true,0.0-2.0-0.41-0.375-3.375,0,0,0,68,false,stim,false,1,1170.9549999795854,0,0,1,17172,WMM1,1046815,false,false,1249,image-keyboard-response,52
true,8,2,1,0,false,q,false,false,0.0-2.0-0.41-0.376-3.376,0,0,0,68,false,stim,true,2,450.32499998342246,0,0,2,17172,WMM1,1048773,false,false,1252,image-keyboard-response,53
true,8,0,1,2,false,d,true,false,0.0-2.0-0.41-0.377-3.377,0,0,0,81,false,stim,false,1,1459.6000000601634,0,0,1,17172,WMM1,1051758,false,false,1255,image-keyboard-response,54
true,8,2,1,0,false,q,false,false,0.0-2.0-0.42-0.378-3.378,0,0,0,68,false,stim,true,2,388.6649999767542,0,0,2,17172,WMM1,1053670,false,false,1258,image-keyboard-response,55
true,8,2,1,2,true,d,false,true,0.0-2.0-0.42-0.379-3.379,0,0,0,68,false,stim,false,1,1694.1850000293925,0,0,1,17172,WMM1,1056884,false,false,1261,image-keyboard-response,56
true,8,1,1,0,false,q,true,false,0.0-2.0-0.42-0.380-3.380,0,0,0,90,false,stim,false,2,1469.3650000263005,0,0,2,17172,WMM1,1059867,false,false,1264,image-keyboard-response,57
true,8,2,1,0,false,q,false,true,0.0-2.0-0.42-0.381-3.381,0,0,0,68,false,stim,true,2,435.16999995335937,0,0,2,17172,WMM1,1061823,false,true,1267,image-keyboard-response,58
true,8,2,1,2,true,d,false,true,0.0-2.0-0.42-0.382-3.382,0,0,0,68,false,stim,false,1,641.7650000657886,0,0,1,17172,WMM1,1063983,false,false,1270,image-keyboard-response,59
true,8,2,1,2,true,d,false,true,0.0-2.0-0.42-0.383-3.383,0,0,0,68,false,stim,false,0,921.8449998879805,0,0,0,17172,WMM1,1066422,false,false,1273,image-keyboard-response,60
true,9,2,2,1,false,z,false,false,0.0-2.0-0.42-0.384-3.384,0,0,0,68,true,stim,true,2,465.4749999754131,0,0,1,17172,WMM1,1068394,false,false,1276,image-keyboard-response,1
true,9,1,2,0,false,q,true,false,0.0-2.0-0.42-0.385-3.385,0,0,0,90,false,stim,false,2,589.1299999784678,0,0,0,17172,WMM1,1070490,false,false,1279,image-keyboard-response,2
true,9,0,2,0,true,q,false,true,0.0-2.0-0.42-0.386-3.386,0,0,0,81,false,stim,false,2,338.8500000583008,0,0,0,17172,WMM1,1072334,false,false,1282,image-keyboard-response,3
true,9,2,2,0,false,q,false,false,0.0-2.0-0.43-0.387-3.387,0,0,0,68,false,stim,true,2,535.3050000267103,0,0,0,17172,WMM1,1074394,false,false,1285,image-keyboard-response,4
true,9,1,2,1,true,z,false,true,0.0-2.0-0.43-0.388-3.388,0,0,0,90,false,stim,false,2,627.0400000503287,0,0,1,17172,WMM1,1076545,false,false,1288,image-keyboard-response,5
true,9,2,2,2,true,d,false,true,0.0-2.0-0.43-0.389-3.389,0,0,0,68,false,stim,false,0,841.3550000404939,0,0,2,17172,WMM1,1078899,false,false,1291,image-keyboard-response,6
true,9,0,2,2,false,d,false,false,0.0-2.0-0.43-0.390-3.390,0,0,0,81,false,stim,true,0,992.5749999238178,0,0,2,17172,WMM1,1081419,false,false,1294,image-keyboard-response,7
true,9,1,2,1,true,z,false,true,0.0-2.0-0.43-0.391-3.391,0,0,0,90,false,stim,false,2,380.585000035353,0,0,1,17172,WMM1,1083319,false,false,1297,image-keyboard-response,8
true,9,1,2,1,true,z,false,true,0.0-2.0-0.43-0.392-3.392,0,0,0,90,false,stim,false,2,648.1100000673905,0,0,1,17172,WMM1,1085485,false,false,1300,image-keyboard-response,9
true,9,2,2,0,false,q,false,false,0.0-2.0-0.43-0.393-3.393,0,0,0,68,false,stim,true,2,684.4450000207871,0,0,0,17172,WMM1,1087688,false,false,1303,image-keyboard-response,10
true,9,2,2,0,false,q,false,false,0.0-2.0-0.43-0.394-3.394,0,0,0,68,false,stim,true,2,486.19500000495464,0,0,0,17172,WMM1,1089700,false,false,1306,image-keyboard-response,11
true,9,1,2,2,false,d,true,false,0.0-2.0-0.43-0.395-3.395,0,0,0,90,false,stim,false,0,662.4750000191852,0,0,2,17172,WMM1,1091886,false,false,1309,image-keyboard-response,12
true,9,0,2,2,false,d,false,false,0.0-2.0-0.44-0.396-3.396,0,0,0,81,false,stim,true,0,685.9750000294298,0,0,2,17172,WMM1,1094103,false,false,1312,image-keyboard-response,13
true,9,1,2,0,false,q,true,false,0.0-2.0-0.44-0.397-3.397,0,0,0,90,false,stim,false,2,1429.7650000080466,0,0,0,17172,WMM1,1097051,false,false,1315,image-keyboard-response,14
true,9,1,2,1,true,z,false,true,0.0-2.0-0.44-0.398-3.398,0,0,0,90,false,stim,false,2,717.6599999656901,0,0,1,17172,WMM1,1099290,false,false,1318,image-keyboard-response,15
true,9,2,2,0,false,q,false,false,0.0-2.0-0.44-0.399-3.399,0,0,0,68,false,stim,true,2,503.0649999389425,0,0,0,17172,WMM1,1101317,false,false,1321,image-keyboard-response,16
true,9,1,2,1,true,z,false,true,0.0-2.0-0.44-0.400-3.400,0,0,0,90,false,stim,false,2,535.6849998934194,0,0,1,17172,WMM1,1103381,false,false,1324,image-keyboard-response,17
true,9,0,2,0,true,q,false,true,0.0-2.0-0.44-0.401-3.401,0,0,0,81,false,stim,false,2,840.4449999798089,0,0,0,17172,WMM1,1105745,false,false,1327,image-keyboard-response,18
true,9,2,2,2,true,d,false,true,0.0-2.0-0.44-0.402-3.402,0,0,0,68,false,stim,false,0,1007.6049999333918,0,0,2,17172,WMM1,1108266,false,false,1330,image-keyboard-response,19
true,9,2,2,2,true,d,false,true,0.0-2.0-0.44-0.403-3.403,0,0,0,68,false,stim,false,0,527.1099999081343,0,0,2,17172,WMM1,1110314,false,false,1333,image-keyboard-response,20
true,9,0,2,1,false,z,true,false,0.0-2.0-0.44-0.404-3.404,0,0,0,81,false,stim,false,2,694.190000067465,0,0,1,17172,WMM1,1112528,false,false,1336,image-keyboard-response,21
true,9,1,2,0,false,q,true,false,0.0-2.0-0.45-0.405-3.405,0,0,0,90,false,stim,false,2,544.2750001093373,0,0,0,17172,WMM1,1114603,false,false,1339,image-keyboard-response,22
true,9,2,2,0,false,q,false,false,0.0-2.0-0.45-0.406-3.406,0,0,0,68,false,stim,true,2,2273.920000065118,0,0,0,17172,WMM1,1118407,false,false,1342,image-keyboard-response,23
true,9,2,2,2,true,d,false,true,0.0-2.0-0.45-0.407-3.407,0,0,0,68,false,stim,false,0,611.0300000291318,0,0,2,17172,WMM1,1120527,false,false,1345,image-keyboard-response,24
true,9,1,2,0,false,q,true,false,0.0-2.0-0.45-0.408-3.408,0,0,0,90,false,stim,false,2,427.36500001046807,0,0,0,17172,WMM1,1122466,false,false,1348,image-keyboard-response,25
true,9,2,2,2,true,d,false,true,0.0-2.0-0.45-0.409-3.409,0,0,0,68,false,stim,false,0,602.7150000445545,0,0,2,17172,WMM1,1124592,false,false,1351,image-keyboard-response,26
true,9,2,2,2,true,d,false,true,0.0-2.0-0.45-0.410-3.410,0,0,0,68,false,stim,false,0,530.1599999656901,0,0,2,17172,WMM1,1126644,false,false,1354,image-keyboard-response,27
true,9,1,2,1,true,z,false,true,0.0-2.0-0.45-0.411-3.411,0,0,0,90,false,stim,false,2,587.1399999596179,0,0,1,17172,WMM1,1128762,false,false,1357,image-keyboard-response,28
true,9,1,2,1,true,z,false,true,0.0-2.0-0.45-0.412-3.412,0,0,0,90,false,stim,false,2,465.9550000214949,0,0,1,17172,WMM1,1130735,false,false,1360,image-keyboard-response,29
true,9,1,2,1,true,z,false,true,0.0-2.0-0.45-0.413-3.413,0,0,0,90,false,stim,false,2,436.8699999758974,0,0,1,17172,WMM1,1132703,false,false,1363,image-keyboard-response,30
true,9,2,2,2,true,d,false,true,0.0-2.0-0.46-0.414-3.414,0,0,0,68,false,stim,false,0,572.954999981448,0,0,2,17172,WMM1,1134805,false,false,1366,image-keyboard-response,31
true,9,1,2,1,true,z,false,true,0.0-2.0-0.46-0.415-3.415,0,0,0,90,false,stim,false,2,730.1949999528006,0,0,1,17172,WMM1,1137068,false,false,1369,image-keyboard-response,32
true,9,1,2,1,true,z,false,true,0.0-2.0-0.46-0.416-3.416,0,0,0,90,false,stim,false,2,424.66000001877546,0,0,1,17172,WMM1,1139008,false,false,1372,image-keyboard-response,33
true,9,0,2,0,true,q,false,true,0.0-2.0-0.46-0.417-3.417,0,0,0,81,false,stim,false,2,595.6950000254437,0,0,0,17172,WMM1,1141127,false,false,1375,image-keyboard-response,34
true,9,1,2,2,false,d,true,false,0.0-2.0-0.46-0.418-3.418,0,0,0,90,false,stim,false,0,609.0349999722093,0,0,2,17172,WMM1,1143268,false,false,1378,image-keyboard-response,35
true,9,0,2,0,true,q,false,true,0.0-2.0-0.46-0.419-3.419,0,0,0,81,false,stim,false,2,621.7999999644235,0,0,0,17172,WMM1,1145415,false,false,1381,image-keyboard-response,36
true,9,1,2,1,true,z,false,true,0.0-2.0-0.46-0.420-3.420,0,0,0,90,false,stim,false,2,691.1850000033155,0,0,1,17172,WMM1,1147637,false,false,1384,image-keyboard-response,37
true,9,2,2,2,true,d,false,true,0.0-2.0-0.46-0.421-3.421,0,0,0,68,false,stim,false,0,785.4900000384077,0,0,2,17172,WMM1,1149934,false,false,1387,image-keyboard-response,38
true,9,0,2,0,true,q,false,true,0.0-2.0-0.46-0.422-3.422,0,0,0,81,false,stim,false,2,683.3450000267476,0,0,0,17172,WMM1,1152150,false,false,1390,image-keyboard-response,39
true,9,1,2,1,true,z,false,true,0.0-2.0-0.47-0.423-3.423,0,0,0,90,false,stim,false,2,655.8049999875948,0,0,1,17172,WMM1,1154327,false,false,1393,image-keyboard-response,40
true,9,2,2,2,true,d,false,true,0.0-2.0-0.47-0.424-3.424,0,0,0,68,false,stim,false,0,609.7099999897182,0,0,2,17172,WMM1,1156460,false,false,1396,image-keyboard-response,41
true,9,0,2,0,true,q,false,true,0.0-2.0-0.47-0.425-3.425,0,0,0,81,false,stim,false,2,760.5800000019372,0,0,0,17172,WMM1,1158748,false,false,1399,image-keyboard-response,42
true,9,1,2,1,true,z,false,true,0.0-2.0-0.47-0.426-3.426,0,0,0,90,false,stim,false,2,766.3150000153109,0,0,1,17172,WMM1,1161034,false,false,1402,image-keyboard-response,43
true,9,0,2,0,true,q,false,true,0.0-2.0-0.47-0.427-3.427,0,0,0,81,false,stim,false,2,654.1650000726804,0,0,0,17172,WMM1,1163213,false,false,1405,image-keyboard-response,44
true,9,0,2,0,true,q,false,true,0.0-2.0-0.47-0.428-3.428,0,0,0,81,false,stim,false,2,712.3999999603257,0,0,0,17172,WMM1,1165446,false,false,1408,image-keyboard-response,45
true,9,2,2,2,true,d,false,true,0.0-2.0-0.47-0.429-3.429,0,0,0,68,false,stim,false,0,623.0549999745563,0,1,2,17172,WMM1,1167590,false,false,1411,image-keyboard-response,46
true,9,2,2,2,true,d,false,true,0.0-2.0-0.47-0.430-3.430,0,0,0,68,false,stim,false,0,701.1100000236183,0,1,2,17172,WMM1,1169817,false,false,1414,image-keyboard-response,47
true,9,1,2,1,true,z,false,true,0.0-2.0-0.47-0.431-3.431,0,0,0,90,false,stim,false,2,995.6249999813735,0,0,1,17172,WMM1,1172344,false,false,1417,image-keyboard-response,48
true,9,1,2,1,true,z,false,true,0.0-2.0-0.48-0.432-3.432,0,0,0,90,false,stim,false,2,715.2099999366328,0,0,1,17172,WMM1,1174580,false,false,1420,image-keyboard-response,49
true,9,0,2,0,true,q,false,true,0.0-2.0-0.48-0.433-3.433,0,0,0,81,false,stim,false,2,833.3550000097603,0,0,0,17172,WMM1,1176942,false,false,1423,image-keyboard-response,50
true,9,2,2,2,true,d,false,true,0.0-2.0-0.48-0.434-3.434,0,0,0,68,false,stim,false,0,758.2900000270456,0,1,2,17172,WMM1,1179216,false,false,1426,image-keyboard-response,51
true,10,1,3,2,false,d,false,false,0.0-2.0-0.48-0.435-3.435,0,0,1,90,true,stim,true,1,991.1950000096112,0,0,1,17172,WMM1,1181724,false,false,1429,image-keyboard-response,1
true,10,0,3,1,false,z,false,false,0.0-2.0-0.48-0.436-3.436,0,0,1,81,false,stim,true,0,542.4650000641122,0,0,0,17172,WMM1,1183786,false,false,1432,image-keyboard-response,2
true,10,0,3,2,false,d,true,false,0.0-2.0-0.48-0.437-3.437,0,0,1,81,false,stim,false,1,466.77000005729496,0,0,1,17172,WMM1,1185786,false,false,1435,image-keyboard-response,3
true,10,1,3,1,true,z,false,false,0.0-2.0-0.48-0.438-3.438,0,0,1,90,false,stim,false,0,401.68499993160367,0,0,0,17172,WMM1,1187718,false,true,1438,image-keyboard-response,4
true,10,2,3,2,true,d,false,false,0.0-2.0-0.48-0.439-3.439,0,0,1,68,false,stim,false,2,561.9850000366569,0,1,2,17172,WMM1,1189796,false,true,1441,image-keyboard-response,5
true,10,1,3,2,false,d,true,false,0.0-2.0-0.48-0.440-3.440,0,0,1,90,false,stim,false,2,670.0999999884516,0,1,2,17172,WMM1,1191980,false,false,1444,image-keyboard-response,6
true,10,2,3,2,true,d,false,true,0.0-2.0-0.49-0.441-3.441,0,0,1,68,false,stim,false,1,570.7099999999627,0,0,1,17172,WMM1,1194071,false,false,1447,image-keyboard-response,7
true,10,2,3,2,true,d,false,true,0.0-2.0-0.49-0.442-3.442,0,0,1,68,false,stim,false,1,519.6400000713766,0,0,1,17172,WMM1,1196113,false,false,1450,image-keyboard-response,8
true,10,2,3,2,true,d,false,true,0.0-2.0-0.49-0.443-3.443,0,0,1,68,false,stim,false,2,351.57499997876585,0,1,2,17172,WMM1,1197990,false,false,1453,image-keyboard-response,9
true,10,2,3,1,false,z,true,false,0.0-2.0-0.49-0.444-3.444,0,0,1,68,false,stim,false,0,437.9299998981878,0,0,0,17172,WMM1,1199960,false,false,1456,image-keyboard-response,10
true,10,1,3,1,true,z,false,true,0.0-2.0-0.49-0.445-3.445,0,0,1,90,false,stim,false,0,701.2600000016391,0,0,0,17172,WMM1,1202184,false,false,1459,image-keyboard-response,11
true,10,1,3,1,true,z,false,true,0.0-2.0-0.49-0.446-3.446,0,0,1,90,false,stim,false,0,439.5000000949949,0,0,0,17172,WMM1,1204141,false,false,1462,image-keyboard-response,12
true,10,2,3,2,true,d,false,true,0.0-2.0-0.49-0.447-3.447,0,0,1,68,false,stim,false,1,585.89500002563,0,0,1,17172,WMM1,1206251,false,false,1465,image-keyboard-response,13
true,10,2,3,2,true,d,false,true,0.0-2.0-0.49-0.448-3.448,0,0,1,68,false,stim,false,2,898.2049999758601,0,1,2,17172,WMM1,1208668,false,false,1468,image-keyboard-response,14
true,10,2,3,2,true,d,false,true,0.0-2.0-0.49-0.449-3.449,0,0,1,68,false,stim,false,2,657.6999999815598,0,1,2,17172,WMM1,1210839,false,false,1471,image-keyboard-response,15
true,10,2,3,2,true,d,false,true,0.0-2.0-0.50-0.450-3.450,0,0,1,68,false,stim,false,1,555.3099999669939,0,0,1,17172,WMM1,1212927,false,false,1474,image-keyboard-response,16
true,10,1,3,1,true,z,false,true,0.0-2.0-0.50-0.451-3.451,0,0,1,90,false,stim,false,0,660.135000012815,0,0,0,17172,WMM1,1215094,false,false,1477,image-keyboard-response,17
true,10,1,3,1,true,z,false,true,0.0-2.0-0.50-0.452-3.452,0,0,1,90,false,stim,false,0,1055.7199999457225,0,0,0,17172,WMM1,1217674,false,false,1480,image-keyboard-response,18
true,10,1,3,2,false,d,false,false,0.0-2.0-0.50-0.453-3.453,0,0,1,90,false,stim,true,1,579.4699999969453,0,0,1,17172,WMM1,1219765,false,false,1483,image-keyboard-response,19
true,10,2,3,2,true,d,false,true,0.0-2.0-0.50-0.454-3.454,0,0,1,68,false,stim,false,1,1119.014999945648,0,0,1,17172,WMM1,1222408,false,false,1486,image-keyboard-response,20
true,10,1,3,1,true,z,false,true,0.0-2.0-0.50-0.455-3.455,0,0,1,90,false,stim,false,0,1235.039999941364,0,0,0,17172,WMM1,1225171,false,false,1489,image-keyboard-response,21
true,10,2,3,2,true,d,false,true,0.0-2.0-0.50-0.456-3.456,0,0,1,68,false,stim,false,2,471.69499995652586,0,1,2,17172,WMM1,1227165,false,false,1492,image-keyboard-response,22
true,10,2,3,2,true,d,false,true,0.0-2.0-0.50-0.457-3.457,0,0,1,68,false,stim,false,2,525.7350000320002,0,1,2,17172,WMM1,1229209,false,false,1495,image-keyboard-response,23
true,10,2,3,2,true,d,false,true,0.0-2.0-0.50-0.458-3.458,0,0,1,68,false,stim,false,2,357.7349999686703,0,1,2,17172,WMM1,1231092,false,false,1498,image-keyboard-response,24
true,10,1,3,1,true,z,false,true,0.0-2.0-0.51-0.459-3.459,0,0,1,90,false,stim,false,0,636.5800000494346,0,0,0,17172,WMM1,1233261,false,false,1501,image-keyboard-response,25
true,10,2,3,2,true,d,false,true,0.0-2.0-0.51-0.460-3.460,0,0,1,68,false,stim,false,1,765.6849999912083,0,0,1,17172,WMM1,1235553,false,false,1504,image-keyboard-response,26
true,10,1,3,1,true,z,false,true,0.0-2.0-0.51-0.461-3.461,0,0,1,90,false,stim,false,0,1105.9099999256432,0,0,0,17172,WMM1,1238182,false,false,1507,image-keyboard-response,27
true,10,2,3,2,true,d,false,true,0.0-2.0-0.51-0.462-3.462,0,0,1,68,false,stim,false,1,598.9950000075623,0,1,1,17172,WMM1,1240295,false,false,1510,image-keyboard-response,28
true,10,2,3,2,true,d,false,false,0.0-2.0-0.51-0.463-3.463,0,0,1,68,false,stim,false,1,2552.280000061728,0,1,1,17172,WMM1,1244380,false,true,1513,image-keyboard-response,29
true,10,1,3,1,true,z,false,true,0.0-2.0-0.51-0.464-3.464,0,0,1,90,false,stim,false,0,689.2300000181422,0,0,0,17172,WMM1,1246597,false,false,1516,image-keyboard-response,30
true,10,2,3,2,true,d,false,true,0.0-2.0-0.51-0.465-3.465,0,0,1,68,false,stim,false,2,627.9100000392646,0,0,2,17172,WMM1,1248749,false,false,1519,image-keyboard-response,31
true,10,2,3,2,true,d,false,true,0.0-2.0-0.51-0.466-3.466,0,0,1,68,false,stim,false,2,603.5799999954179,0,0,2,17172,WMM1,1250858,false,false,1522,image-keyboard-response,32
true,10,2,3,2,true,d,false,true,0.0-2.0-0.51-0.467-3.467,0,0,1,68,false,stim,false,2,528.2349999761209,0,0,2,17172,WMM1,1252914,false,false,1525,image-keyboard-response,33
true,10,2,3,2,true,d,false,true,0.0-2.0-0.52-0.468-3.468,0,0,1,68,false,stim,false,2,506.5249999752268,0,0,2,17172,WMM1,1254936,false,false,1528,image-keyboard-response,34
true,10,1,3,1,true,z,false,true,0.0-2.0-0.52-0.469-3.469,0,0,1,90,false,stim,false,0,524.7150000650436,0,0,0,17172,WMM1,1256982,false,false,1531,image-keyboard-response,35
true,10,2,3,2,true,d,false,true,0.0-2.0-0.52-0.470-3.470,0,0,1,68,false,stim,false,1,453.77499994356185,0,1,1,17172,WMM1,1258956,false,false,1534,image-keyboard-response,36
true,11,1,3,0,false,q,true,false,0.0-2.0-0.52-0.471-3.471,0,1,0,90,true,stim,false,2,846.324999933131,0,0,2,17172,WMM1,1261327,false,false,1537,image-keyboard-response,1
true,11,2,3,0,false,q,true,false,0.0-2.0-0.52-0.472-3.472,0,1,0,68,false,stim,false,1,694.444999913685,0,0,0,17172,WMM1,1263546,false,false,1540,image-keyboard-response,2
true,11,2,3,0,false,q,false,false,0.0-2.0-0.52-0.473-3.473,0,1,0,68,false,stim,true,2,337.9900000290945,0,0,2,17172,WMM1,1265413,false,false,1543,image-keyboard-response,3
true,11,0,3,0,true,q,false,true,0.0-2.0-0.52-0.474-3.474,0,1,0,81,false,stim,false,1,993.555000051856,0,0,0,17172,WMM1,1267924,false,false,1546,image-keyboard-response,4
true,11,2,3,2,true,d,false,true,0.0-2.0-0.52-0.475-3.475,0,1,0,68,false,stim,false,2,1148.0299999238923,0,1,1,17172,WMM1,1270598,false,false,1549,image-keyboard-response,5
true,11,2,3,2,true,d,false,true,0.0-2.0-0.52-0.476-3.476,0,1,0,68,false,stim,false,2,490.0600000983104,0,1,1,17172,WMM1,1272611,false,false,1552,image-keyboard-response,6
true,11,2,3,2,true,d,false,true,0.0-2.0-0.53-0.477-3.477,0,1,0,68,false,stim,false,2,1157.6399999903515,0,1,1,17172,WMM1,1275291,false,false,1555,image-keyboard-response,7
true,11,2,3,2,true,d,false,true,0.0-2.0-0.53-0.478-3.478,0,1,0,68,false,stim,false,2,490.25000003166497,0,1,1,17172,WMM1,1277306,false,false,1558,image-keyboard-response,8
true,11,1,3,0,false,q,true,false,0.0-2.0-0.53-0.479-3.479,0,1,0,90,false,stim,false,2,1119.7850001044571,0,0,2,17172,WMM1,1279944,false,false,1561,image-keyboard-response,9
true,11,0,3,0,true,q,false,true,0.0-2.0-0.53-0.480-3.480,0,1,0,81,false,stim,false,1,437.8349999897182,0,0,0,17172,WMM1,1281911,false,false,1564,image-keyboard-response,10
true,11,0,3,0,true,q,false,true,0.0-2.0-0.53-0.481-3.481,0,1,0,81,false,stim,false,1,520.6699999980628,0,0,0,17172,WMM1,1283951,false,false,1567,image-keyboard-response,11
true,11,2,3,0,false,q,false,false,0.0-2.0-0.53-0.482-3.482,0,1,0,68,false,stim,true,2,1195.380000048317,0,0,2,17172,WMM1,1286670,false,false,1570,image-keyboard-response,12
true,11,0,3,0,true,q,false,false,0.0-2.0-0.53-0.483-3.483,0,1,0,81,false,stim,false,1,600.2549999393523,0,0,0,17172,WMM1,1288802,false,true,1573,image-keyboard-response,13
true,11,1,3,2,false,d,true,false,0.0-2.0-0.53-0.484-3.484,0,1,0,90,false,stim,false,2,1072.3749999888241,0,1,1,17172,WMM1,1291395,false,false,1576,image-keyboard-response,14
true,11,1,3,0,false,q,true,false,0.0-2.0-0.53-0.485-3.485,0,1,0,90,false,stim,false,2,1128.5599999828264,0,0,2,17172,WMM1,1294053,false,false,1579,image-keyboard-response,15
true,11,2,3,0,false,q,false,false,0.0-2.0-0.54-0.486-3.486,0,1,0,68,false,stim,true,2,893.7750000040978,0,0,2,17172,WMM1,1296469,false,false,1582,image-keyboard-response,16
true,11,0,3,0,true,q,false,true,0.0-2.0-0.54-0.487-3.487,0,1,0,81,false,stim,false,1,647.5449999561533,0,0,0,17172,WMM1,1298639,false,false,1585,image-keyboard-response,17
true,11,0,3,2,false,d,true,false,0.0-2.0-0.54-0.488-3.488,0,1,0,81,false,stim,false,2,796.4149999897927,0,1,1,17172,WMM1,1300964,false,false,1588,image-keyboard-response,18
true,11,0,3,0,true,q,false,true,0.0-2.0-0.54-0.489-3.489,0,1,0,81,false,stim,false,1,619.30499994196,0,0,0,17172,WMM1,1303090,false,false,1591,image-keyboard-response,19
true,11,1,3,2,false,d,true,false,0.0-2.0-0.54-0.490-3.490,0,1,0,90,false,stim,false,2,1701.9999999320135,0,1,1,17172,WMM1,1306307,false,false,1594,image-keyboard-response,20
true,11,0,3,0,true,q,false,true,0.0-2.0-0.54-0.491-3.491,0,1,0,81,false,stim,false,2,812.9750000080094,0,0,2,17172,WMM1,1308643,false,false,1597,image-keyboard-response,21
true,11,0,3,0,true,q,false,true,0.0-2.0-0.54-0.492-3.492,0,1,0,81,false,stim,false,1,325.9050000924617,0,0,0,17172,WMM1,1310485,false,false,1600,image-keyboard-response,22
true,11,0,3,0,true,q,false,true,0.0-2.0-0.54-0.493-3.493,0,1,0,81,false,stim,false,2,388.47500004339963,0,0,2,17172,WMM1,1312407,false,false,1603,image-keyboard-response,23
true,11,2,3,2,true,d,false,true,0.0-2.0-0.54-0.494-3.494,0,1,0,68,false,stim,false,2,423.0400000233203,0,1,1,17172,WMM1,1314363,false,false,1606,image-keyboard-response,24
true,11,0,3,0,true,q,false,true,0.0-2.0-0.55-0.495-3.495,0,1,0,81,false,stim,false,1,348.78000000026077,0,0,0,17172,WMM1,1316230,false,false,1609,image-keyboard-response,25
true,11,0,3,0,true,q,false,false,0.0-2.0-0.55-0.496-3.496,0,1,0,81,false,stim,false,2,666.0399999236688,0,0,2,17172,WMM1,1318419,false,true,1612,image-keyboard-response,26
true,11,2,3,2,true,d,false,true,0.0-2.0-0.55-0.497-3.497,0,1,0,68,false,stim,false,2,666.2800000049174,0,1,1,17172,WMM1,1320591,false,false,1615,image-keyboard-response,27
true,11,2,3,2,true,d,false,true,0.0-2.0-0.55-0.498-3.498,0,1,0,68,false,stim,false,2,602.2950001060963,0,0,1,17172,WMM1,1322723,false,false,1618,image-keyboard-response,28
true,11,2,3,2,true,d,false,true,0.0-2.0-0.55-0.499-3.499,0,1,0,68,false,stim,false,2,678.2400000374764,0,0,1,17172,WMM1,1324917,false,false,1621,image-keyboard-response,29
true,11,0,3,0,true,q,false,true,0.0-2.0-0.55-0.500-3.500,0,1,0,81,false,stim,false,1,715.2600000845268,0,0,0,17172,WMM1,1327138,false,false,1624,image-keyboard-response,30
true,11,2,3,0,false,q,false,false,0.0-2.0-0.55-0.501-3.501,0,1,0,68,false,stim,true,2,682.4349999660626,0,0,2,17172,WMM1,1329341,false,false,1627,image-keyboard-response,31
true,11,0,3,0,true,q,false,true,0.0-2.0-0.55-0.502-3.502,0,1,0,81,false,stim,false,1,506.96999998763204,0,0,0,17172,WMM1,1331370,false,false,1630,image-keyboard-response,32
true,11,1,3,0,false,q,true,false,0.0-2.0-0.55-0.503-3.503,0,1,0,90,false,stim,false,2,721.0849999682978,0,0,2,17172,WMM1,1333612,false,false,1633,image-keyboard-response,33
true,11,0,3,0,true,q,false,true,0.0-2.0-0.56-0.504-3.504,0,1,0,81,false,stim,false,1,599.129999987781,0,0,0,17172,WMM1,1335727,false,false,1636,image-keyboard-response,34
true,11,2,3,2,true,d,false,true,0.0-2.0-0.56-0.505-3.505,0,1,0,68,false,stim,false,2,520.105000003241,0,0,1,17172,WMM1,1337754,false,false,1639,image-keyboard-response,35
true,11,1,3,0,false,q,true,false,0.0-2.0-0.56-0.506-3.506,0,1,0,90,false,stim,false,2,942.5200000405312,0,0,2,17172,WMM1,1340221,false,false,1642,image-keyboard-response,36
true,11,0,3,0,true,q,false,true,0.0-2.0-0.56-0.507-3.507,0,1,0,81,false,stim,false,1,728.4350000554696,0,0,0,17172,WMM1,1342470,false,false,1645,image-keyboard-response,37
true,12,0,1,2,false,d,false,false,0.0-2.0-0.56-0.508-3.508,0,0,0,81,true,stim,true,0,1043.9200000837445,0,0,2,17172,WMM1,1345036,false,false,1648,image-keyboard-response,1
true,12,2,1,1,false,z,false,false,0.0-2.0-0.56-0.509-3.509,0,0,0,68,false,stim,true,2,317.35999998636544,0,0,1,17172,WMM1,1346870,false,false,1651,image-keyboard-response,2
true,12,2,1,2,true,d,false,true,0.0-2.0-0.56-0.510-3.510,0,0,0,68,false,stim,false,0,902.7149999747053,0,0,2,17172,WMM1,1349293,false,false,1654,image-keyboard-response,3
true,12,1,1,1,true,z,false,true,0.0-2.0-0.56-0.511-3.511,0,0,0,90,false,stim,false,2,538.5300000198185,0,0,1,17172,WMM1,1351360,false,false,1657,image-keyboard-response,4
true,12,0,1,1,false,z,false,false,0.0-2.0-0.56-0.512-3.512,0,0,0,81,false,stim,true,0,306.76999990828335,0,0,0,17172,WMM1,1353185,false,false,1660,image-keyboard-response,5
true,12,1,1,1,true,z,false,true,0.0-2.0-0.57-0.513-3.513,0,0,0,90,false,stim,false,2,420.46499997377396,0,0,1,17172,WMM1,1355136,false,false,1663,image-keyboard-response,6
true,12,1,1,1,true,z,false,true,0.0-2.0-0.57-0.514-3.514,0,0,0,90,false,stim,false,2,741.1950000096112,0,0,1,17172,WMM1,1357394,false,false,1666,image-keyboard-response,7
true,12,2,1,1,false,z,true,false,0.0-2.0-0.57-0.515-3.515,0,0,0,68,false,stim,false,0,964.4250000128523,0,0,0,17172,WMM1,1359879,false,false,1669,image-keyboard-response,8
true,12,2,1,2,true,d,false,true,0.0-2.0-0.57-0.516-3.516,0,0,0,68,false,stim,false,0,348.69500005152076,0,0,2,17172,WMM1,1361743,false,false,1672,image-keyboard-response,9
true,12,2,1,1,false,z,true,false,0.0-2.0-0.57-0.517-3.517,0,0,0,68,false,stim,false,0,715.4950000112876,0,0,0,17172,WMM1,1363980,false,false,1675,image-keyboard-response,10
true,12,2,1,2,true,d,false,true,0.0-2.0-0.57-0.518-3.518,0,0,0,68,false,stim,false,0,1397.9899999685585,0,0,2,17172,WMM1,1366894,false,false,1678,image-keyboard-response,11
true,12,1,1,1,true,z,false,true,0.0-2.0-0.57-0.519-3.519,0,0,0,90,false,stim,false,2,417.2500000568107,0,0,1,17172,WMM1,1368835,false,false,1681,image-keyboard-response,12
true,12,2,1,2,true,d,false,false,0.0-2.0-0.57-0.520-3.520,0,0,0,68,false,stim,false,0,1157.3250000365078,0,0,2,17172,WMM1,1371510,false,true,1684,image-keyboard-response,13
true,12,0,1,1,false,z,false,false,0.0-2.0-0.57-0.521-3.521,0,0,0,81,false,stim,true,0,1076.3699999079108,0,0,0,17172,WMM1,1374112,false,false,1687,image-keyboard-response,14
true,12,1,1,1,true,z,false,true,0.0-2.0-0.58-0.522-3.522,0,0,0,90,false,stim,false,0,999.7250000014901,0,0,0,17172,WMM1,1376637,false,false,1690,image-keyboard-response,15
true,12,0,1,1,false,z,true,true,0.0-2.0-0.58-0.523-3.523,0,0,0,81,false,stim,false,2,727.4650000035763,0,0,1,17172,WMM1,1378882,false,true,1693,image-keyboard-response,16
true,12,2,1,2,true,d,false,true,0.0-2.0-0.58-0.524-3.524,0,0,0,68,false,stim,false,0,683.9550000149757,0,0,2,17172,WMM1,1381077,false,false,1696,image-keyboard-response,17
true,12,2,1,2,true,d,false,true,0.0-2.0-0.58-0.525-3.525,0,0,0,68,false,stim,false,0,463.7900000670925,0,0,2,17172,WMM1,1383046,false,false,1699,image-keyboard-response,18
true,12,0,1,1,false,z,true,false,0.0-2.0-0.58-0.526-3.526,0,0,0,81,false,stim,false,2,366.3850000593811,0,0,1,17172,WMM1,1384932,false,false,1702,image-keyboard-response,19
true,12,0,1,1,false,z,true,false,0.0-2.0-0.58-0.527-3.527,0,0,0,81,false,stim,false,2,945.9250000072643,0,0,1,17172,WMM1,1387410,false,false,1705,image-keyboard-response,20
true,12,1,1,1,true,z,false,true,0.0-2.0-0.58-0.528-3.528,0,0,0,90,false,stim,false,0,1282.6200000708923,0,0,0,17172,WMM1,1390221,false,false,1708,image-keyboard-response,21
true,12,1,1,1,true,z,false,true,0.0-2.0-0.58-0.529-3.529,0,0,0,90,false,stim,false,0,965.0749999564141,0,0,0,17172,WMM1,1392711,false,false,1711,image-keyboard-response,22
true,12,2,1,2,true,d,false,true,0.0-2.0-0.58-0.530-3.530,0,0,0,68,false,stim,false,0,699.5099999476224,0,0,2,17172,WMM1,1394928,false,false,1714,image-keyboard-response,23
true,12,1,1,1,true,z,false,false,0.0-2.0-0.59-0.531-3.531,0,0,0,90,false,stim,false,2,1303.1350000528619,0,0,1,17172,WMM1,1397743,false,true,1717,image-keyboard-response,24
true,12,2,1,2,true,d,false,true,0.0-2.0-0.59-0.532-3.532,0,0,0,68,false,stim,false,0,514.5550000015646,0,0,2,17172,WMM1,1399783,false,false,1720,image-keyboard-response,25
true,12,2,1,2,true,d,false,false,0.0-2.0-0.59-0.533-3.533,0,0,0,68,false,stim,false,0,589.8199999937788,0,0,2,17172,WMM1,1401906,false,true,1723,image-keyboard-response,26
true,12,2,1,2,true,d,false,true,0.0-2.0-0.59-0.534-3.534,0,0,0,68,false,stim,false,0,747.5700000068173,0,0,2,17172,WMM1,1404171,false,false,1726,image-keyboard-response,27
true,12,1,1,1,true,z,false,true,0.0-2.0-0.59-0.535-3.535,0,0,0,90,false,stim,false,2,613.054999965243,0,0,1,17172,WMM1,1406293,false,false,1729,image-keyboard-response,28
true,12,0,1,1,false,z,false,false,0.0-2.0-0.59-0.536-3.536,0,0,0,81,false,stim,true,0,552.945000003092,0,0,0,17172,WMM1,1408368,false,false,1732,image-keyboard-response,29
true,12,1,1,1,true,z,false,true,0.0-2.0-0.59-0.537-3.537,0,0,0,90,false,stim,false,0,933.0149999586865,0,0,0,17172,WMM1,1410823,false,false,1735,image-keyboard-response,30
true,12,1,1,1,true,z,false,true,0.0-2.0-0.59-0.538-3.538,0,0,0,90,false,stim,false,2,665.4799999669194,0,0,1,17172,WMM1,1413020,false,false,1738,image-keyboard-response,31
true,12,1,1,1,true,z,false,true,0.0-2.0-0.59-0.539-3.539,0,0,0,90,false,stim,false,0,411.60500003024936,0,0,0,17172,WMM1,1414953,false,false,1741,image-keyboard-response,32
true,12,1,1,1,true,z,false,false,0.0-2.0-0.60-0.540-3.540,0,0,0,90,false,stim,false,0,476.5350000234321,0,0,0,17172,WMM1,1416945,false,true,1744,image-keyboard-response,33
true,12,1,1,1,true,z,false,true,0.0-2.0-0.60-0.541-3.541,0,0,0,90,false,stim,false,2,478.0649999156594,0,0,1,17172,WMM1,1418942,false,false,1747,image-keyboard-response,34
true,12,2,1,2,true,d,false,true,0.0-2.0-0.60-0.542-3.542,0,0,0,68,false,stim,false,0,753.3699999330565,0,0,2,17172,WMM1,1421221,false,false,1750,image-keyboard-response,35
true,12,1,1,1,true,z,false,false,0.0-2.0-0.60-0.543-3.543,0,0,0,90,false,stim,false,2,536.9499999796972,0,0,1,17172,WMM1,1423273,false,true,1753,image-keyboard-response,36
true,12,1,1,1,true,z,false,true,0.0-2.0-0.60-0.544-3.544,0,0,0,90,false,stim,false,2,1435.3750000009313,0,0,1,17172,WMM1,1426229,false,false,1756,image-keyboard-response,37
true,12,2,1,2,true,d,false,true,0.0-2.0-0.60-0.545-3.545,0,0,0,68,false,stim,false,0,552.1450000815094,0,0,2,17172,WMM1,1428298,false,false,1759,image-keyboard-response,38
true,13,1,4,2,false,d,false,false,0.0-2.0-0.60-0.546-3.546,0,0,0,90,true,stim,true,1,1057.1900000795722,0,0,0,17172,WMM1,1430881,false,false,1762,image-keyboard-response,1
true,13,2,4,1,false,z,false,false,0.0-2.0-0.60-0.547-3.547,0,0,0,68,false,stim,true,2,493.4249999932945,0,0,2,17172,WMM1,1432894,false,false,1765,image-keyboard-response,2
true,13,0,4,2,false,d,true,false,0.0-2.0-0.60-0.548-3.548,0,0,0,81,false,stim,false,1,389.60999995470047,0,0,0,17172,WMM1,1434803,false,false,1768,image-keyboard-response,3
true,13,2,4,1,false,z,false,false,0.0-2.0-0.61-0.549-3.549,0,0,0,68,false,stim,true,2,677.4199999636039,0,0,2,17172,WMM1,1437004,false,false,1771,image-keyboard-response,4
true,13,1,4,0,false,q,false,false,0.0-2.0-0.61-0.550-3.550,0,0,0,90,false,stim,true,1,564.5650000078604,0,0,1,17172,WMM1,1439090,false,false,1774,image-keyboard-response,5
true,13,2,4,0,false,q,true,false,0.0-2.0-0.61-0.551-3.551,0,0,0,68,false,stim,false,1,579.9050000496209,0,0,1,17172,WMM1,1441196,false,false,1777,image-keyboard-response,6
true,13,2,4,2,true,d,false,true,0.0-2.0-0.61-0.552-3.552,0,0,0,68,false,stim,false,1,756.2850000103936,0,0,0,17172,WMM1,1443483,false,false,1780,image-keyboard-response,7
true,13,0,4,0,true,q,false,true,0.0-2.0-0.61-0.553-3.553,0,0,0,81,false,stim,false,1,859.375,0,0,1,17172,WMM1,1445870,false,false,1783,image-keyboard-response,8
true,13,1,4,1,true,z,false,true,0.0-2.0-0.61-0.554-3.554,0,0,0,90,false,stim,false,2,680.9000000357628,0,0,2,17172,WMM1,1448078,false,false,1786,image-keyboard-response,9
true,13,2,4,2,true,d,false,true,0.0-2.0-0.61-0.555-3.555,0,0,0,68,false,stim,false,1,495.44999992940575,0,0,0,17172,WMM1,1450095,false,false,1789,image-keyboard-response,10
true,13,1,4,1,true,z,false,true,0.0-2.0-0.61-0.556-3.556,0,0,0,90,false,stim,false,2,536.4449999760836,0,0,2,17172,WMM1,1452142,false,false,1792,image-keyboard-response,11
true,13,2,4,2,true,d,false,true,0.0-2.0-0.61-0.557-3.557,0,0,0,68,false,stim,false,1,586.9399999501184,0,0,0,17172,WMM1,1454249,false,false,1795,image-keyboard-response,12
true,13,2,4,2,true,d,false,true,0.0-2.0-0.62-0.558-3.558,0,0,0,68,false,stim,false,1,507.31500005349517,0,0,0,17172,WMM1,1456280,false,false,1798,image-keyboard-response,13
true,13,2,4,2,true,d,false,true,0.0-2.0-0.62-0.559-3.559,0,0,0,68,false,stim,false,1,417.94499999377877,0,0,0,17172,WMM1,1458229,false,false,1801,image-keyboard-response,14
true,13,1,4,1,true,z,false,true,0.0-2.0-0.62-0.560-3.560,0,0,0,90,false,stim,false,2,867.5849999999627,0,0,2,17172,WMM1,1460617,false,false,1804,image-keyboard-response,15
true,13,0,4,0,true,q,false,true,0.0-2.0-0.62-0.561-3.561,0,0,0,81,false,stim,false,1,323.19000002462417,0,0,1,17172,WMM1,1462462,false,false,1807,image-keyboard-response,16
true,13,0,4,0,true,q,false,true,0.0-2.0-0.62-0.562-3.562,0,0,0,81,false,stim,false,1,470.47000005841255,0,0,1,17172,WMM1,1464463,false,false,1810,image-keyboard-response,17
true,13,0,4,0,true,q,false,true,0.0-2.0-0.62-0.563-3.563,0,0,0,81,false,stim,false,1,385.06000000052154,0,0,1,17172,WMM1,1466371,false,false,1813,image-keyboard-response,18
true,13,2,4,1,false,z,false,false,0.0-2.0-0.62-0.564-3.564,0,0,0,68,false,stim,true,2,545.1049999101087,0,0,2,17172,WMM1,1468445,false,false,1816,image-keyboard-response,19
true,13,0,4,2,false,d,true,false,0.0-2.0-0.62-0.565-3.565,0,0,0,81,false,stim,false,1,657.1749999420717,0,0,0,17172,WMM1,1470628,false,false,1819,image-keyboard-response,20
true,13,1,4,1,true,z,false,true,0.0-2.0-0.62-0.566-3.566,0,0,0,90,false,stim,false,2,834.4800000777468,0,0,2,17172,WMM1,1472993,false,false,1822,image-keyboard-response,21
true,13,1,4,1,true,z,false,false,0.0-2.0-0.63-0.567-3.567,0,0,0,90,false,stim,false,2,572.4049999844283,0,0,2,17172,WMM1,1475086,false,true,1825,image-keyboard-response,22
true,13,2,4,2,true,d,false,false,0.0-2.0-0.63-0.568-3.568,0,0,0,68,false,stim,false,1,558.2249999279156,0,0,0,17172,WMM1,1477164,false,true,1828,image-keyboard-response,23
true,13,0,4,0,true,q,false,true,0.0-2.0-0.63-0.569-3.569,0,0,0,81,false,stim,false,1,627.07499996759,0,0,1,17172,WMM1,1479312,false,false,1831,image-keyboard-response,24
true,13,1,4,2,false,d,false,false,0.0-2.0-0.63-0.570-3.570,0,0,0,90,false,stim,true,1,432.00999998953193,0,0,0,17172,WMM1,1481266,false,false,1834,image-keyboard-response,25
true,13,1,4,1,true,z,false,true,0.0-2.0-0.63-0.571-3.571,0,0,0,90,false,stim,false,2,323.2250000583008,0,0,2,17172,WMM1,1483118,false,false,1837,image-keyboard-response,26
true,13,0,4,1,false,z,true,false,0.0-2.0-0.63-0.572-3.572,0,0,0,81,false,stim,false,2,962.5450000166893,0,0,2,17172,WMM1,1485598,false,false,1840,image-keyboard-response,27
true,13,0,4,2,false,d,true,false,0.0-2.0-0.63-0.573-3.573,0,0,0,81,false,stim,false,1,673.090000054799,0,0,0,17172,WMM1,1487800,false,false,1843,image-keyboard-response,28
true,13,0,4,0,true,q,false,true,0.0-2.0-0.63-0.574-3.574,0,0,0,81,false,stim,false,1,850.0500000081956,0,0,1,17172,WMM1,1490177,false,false,1846,image-keyboard-response,29
true,13,0,4,0,true,q,false,true,0.0-2.0-0.63-0.575-3.575,0,0,0,81,false,stim,false,1,545.7600000081584,0,0,1,17172,WMM1,1492241,false,false,1849,image-keyboard-response,30
true,13,0,4,2,false,d,true,false,0.0-2.0-0.64-0.576-3.576,0,0,0,81,false,stim,false,1,1296.8399999663234,0,0,0,17172,WMM1,1495064,false,false,1852,image-keyboard-response,31
true,13,1,4,1,true,z,false,true,0.0-2.0-0.64-0.577-3.577,0,0,0,90,false,stim,false,2,967.8749999729916,0,0,2,17172,WMM1,1497564,false,false,1855,image-keyboard-response,32
true,13,1,4,1,true,z,false,true,0.0-2.0-0.64-0.578-3.578,0,0,0,90,false,stim,false,2,612.0799999916926,0,0,2,17172,WMM1,1499702,false,false,1858,image-keyboard-response,33
true,13,2,4,0,false,q,true,false,0.0-2.0-0.64-0.579-3.579,0,0,0,68,false,stim,false,1,508.54499998968095,0,0,1,17172,WMM1,1501724,false,false,1861,image-keyboard-response,34
true,13,2,4,2,true,d,false,true,0.0-2.0-0.64-0.580-3.580,0,0,0,68,false,stim,false,1,443.2449999731034,0,0,0,17172,WMM1,1503701,false,false,1864,image-keyboard-response,35
true,13,0,4,0,true,q,false,true,0.0-2.0-0.64-0.581-3.581,0,0,0,81,false,stim,false,1,544.980000006035,0,0,1,17172,WMM1,1505765,false,false,1867,image-keyboard-response,36
true,13,2,4,2,true,d,false,true,0.0-2.0-0.64-0.582-3.582,0,0,0,68,false,stim,false,1,605.4599999915808,0,0,0,17172,WMM1,1507899,false,false,1870,image-keyboard-response,37
true,13,0,4,0,true,q,false,true,0.0-2.0-0.64-0.583-3.583,0,0,0,81,false,stim,false,1,576.7650000052527,0,0,1,17172,WMM1,1509993,false,false,1873,image-keyboard-response,38
true,13,1,4,1,true,z,false,true,0.0-2.0-0.64-0.584-3.584,0,0,0,90,false,stim,false,2,858.2900000037625,0,1,2,17172,WMM1,1512370,false,false,1876,image-keyboard-response,39
true,13,0,4,0,true,q,false,true,0.0-2.0-0.65-0.585-3.585,0,0,0,81,false,stim,false,1,729.7349999425933,0,1,1,17172,WMM1,1514619,false,false,1879,image-keyboard-response,40
true,13,2,4,2,true,d,false,true,0.0-2.0-0.65-0.586-3.586,0,0,0,68,false,stim,false,1,1803.2899999525398,0,1,0,17172,WMM1,1517953,false,false,1882,image-keyboard-response,41
