answered,blockNum,choice,condition,corResp,correct,correct_response,explo,fb,internal_node_id,isStable_1,isStable_2,isStable_3,key_press,newBlock,part,persev,persevResp,rt,sessNum,stableAS,stimulus,subject,task,time_elapsed,training,trap,trial_index,trial_type,trialsInBlock
true,1,2,0,0,false,q,true,false,0.0-2.0-0.0-0.0-3.0,0,0,0,68,true,stim,false,-1,2249.91500005126,2,0,0,17172,WMM2,119501,false,false,101,image-keyboard-response,1
true,1,1,0,2,false,d,true,true,0.0-2.0-0.0-0.1-3.1,0,0,0,90,false,stim,false,-1,583.4449999965727,2,0,2,17172,WMM2,121587,false,true,104,image-keyboard-response,2
true,1,0,0,1,false,z,true,false,0.0-2.0-0.0-0.2-3.2,0,0,0,81,false,stim,false,-1,661.0050001181662,2,0,1,17172,WMM2,123751,false,false,107,image-keyboard-response,3
true,1,1,0,1,true,z,false,true,0.0-2.0-0.0-0.3-3.3,0,0,0,90,false,stim,false,-1,457.20500010065734,2,0,1,17172,WMM2,125711,false,false,110,image-keyboard-response,4
true,1,2,0,0,false,q,true,false,0.0-2.0-0.0-0.4-3.4,0,0,0,68,false,stim,false,-1,681.9450000766665,2,0,0,17172,WMM2,127897,false,false,113,image-keyboard-response,5
true,1,1,0,2,false,d,true,false,0.0-2.0-0.0-0.5-3.5,0,0,0,90,false,stim,false,-1,538.7800000607967,2,0,2,17172,WMM2,129939,false,false,116,image-keyboard-response,6
true,1,1,0,0,false,q,true,false,0.0-2.0-0.0-0.6-3.6,0,0,0,90,false,stim,false,-1,1077.8449999634176,2,0,0,17172,WMM2,132527,false,false,119,image-keyboard-response,7
true,1,0,0,2,false,d,true,false,0.0-2.0-0.0-0.7-3.7,0,0,0,81,false,stim,false,-1,678.3849999774247,2,0,2,17172,WMM2,134709,false,false,122,image-keyboard-response,8
true,1,0,0,1,false,z,true,false,0.0-2.0-0.0-0.8-3.8,0,0,0,81,false,stim,false,-1,733.8000000454485,2,0,1,17172,WMM2,136946,false,false,125,image-keyboard-response,9
true,1,2,0,1,false,z,true,false,0.0-2.0-0.1-0.9-3.9,0,0,0,68,false,stim,false,-1,381.1200000345707,2,0,1,17172,WMM2,138830,false,false,128,image-keyboard-response,10
true,1,1,0,1,true,z,false,true,0.0-2.0-0.1-0.10-3.10,0,0,0,90,false,stim,false,-1,849.9999998603016,2,0,1,17172,WMM2,141184,false,false,131,image-keyboard-response,11
true,1,0,0,0,true,q,false,true,0.0-2.0-0.1-0.11-3.11,0,0,0,81,false,stim,false,-1,859.9249999970198,2,0,0,17172,WMM2,143546,false,false,134,image-keyboard-response,12
true,1,2,0,2,true,d,false,true,0.0-2.0-0.1-0.12-3.12,0,0,0,68,false,stim,false,-1,885.0950000341982,2,0,2,17172,WMM2,145938,false,false,137,image-keyboard-response,13
true,1,0,0,0,true,q,false,true,0.0-2.0-0.1-0.13-3.13,0,0,0,81,false,stim,false,-1,581.2999999616295,2,0,0,17172,WMM2,148024,false,false,140,image-keyboard-response,14
true,1,0,0,0,true,q,false,true,0.0-2.0-0.1-0.14-3.14,0,0,0,81,false,stim,false,-1,538.2600000593811,2,0,0,17172,WMM2,150064,false,false,143,image-keyboard-response,15
true,1,1,0,1,true,z,false,true,0.0-2.0-0.1-0.15-3.15,0,0,0,90,false,stim,false,-1,573.7950000911951,2,0,1,17172,WMM2,152140,false,false,146,image-keyboard-response,16
true,1,2,0,2,true,d,false,true,0.0-2.0-0.1-0.16-3.16,0,0,0,68,false,stim,false,-1,555.0649999640882,2,0,2,17172,WMM2,154211,false,false,149,image-keyboard-response,17
true,1,2,0,2,true,d,false,true,0.0-2.0-0.1-0.17-3.17,0,0,0,68,false,stim,false,-1,713.0799998994917,2,0,2,17172,WMM2,156436,false,false,152,image-keyboard-response,18
true,1,0,0,0,true,q,false,true,0.0-2.0-0.2-0.18-3.18,0,0,0,81,false,stim,false,-1,2048.4599999617785,2,0,0,17172,WMM2,159989,false,false,155,image-keyboard-response,19
true,1,2,0,2,true,d,false,true,0.0-2.0-0.2-0.19-3.19,0,0,0,68,false,stim,false,-1,594.3100000731647,2,0,2,17172,WMM2,162086,false,false,158,image-keyboard-response,20
true,1,0,0,0,true,q,false,true,0.0-2.0-0.2-0.20-3.20,0,0,0,81,false,stim,false,-1,800.8300000801682,2,1,0,17172,WMM2,164391,false,false,161,image-keyboard-response,21
true,1,2,0,2,true,d,false,false,0.0-2.0-0.2-0.21-3.21,0,0,0,68,false,stim,false,-1,1940.900000045076,2,1,2,17172,WMM2,167836,false,true,164,image-keyboard-response,22
true,1,1,0,1,true,z,false,true,0.0-2.0-0.2-0.22-3.22,0,0,0,90,false,stim,false,-1,1575.4350000061095,2,0,1,17172,WMM2,170914,false,false,167,image-keyboard-response,23
true,1,1,0,1,true,z,false,true,0.0-2.0-0.2-0.23-3.23,0,0,0,90,false,stim,false,-1,675.8350001182407,2,0,1,17172,WMM2,173093,false,false,170,image-keyboard-response,24
true,1,1,0,1,true,z,false,true,0.0-2.0-0.2-0.24-3.24,0,0,0,90,false,stim,false,-1,717.414999846369,2,0,1,17172,WMM2,175313,false,false,173,image-keyboard-response,25
true,1,0,0,0,true,q,false,true,0.0-2.0-0.2-0.25-3.25,0,0,0,81,false,stim,false,-1,566.8999999761581,2,1,0,17172,WMM2,177383,false,false,176,image-keyboard-response,26
true,1,2,0,2,true,d,false,true,0.0-2.0-0.2-0.26-3.26,0,0,0,68,false,stim,false,-1,956.0849999543279,2,1,2,17172,WMM2,179842,false,false,179,image-keyboard-response,27
true,1,2,0,2,true,d,false,true,0.0-2.0-0.3-0.27-3.27,0,0,0,68,false,stim,false,-1,811.3149998243898,2,1,2,17172,WMM2,182156,false,false,182,image-keyboard-response,28
true,1,1,0,1,true,z,false,true,0.0-2.0-0.3-0.28-3.28,0,0,0,90,false,stim,false,-1,2553.3450001385063,2,0,1,17172,WMM2,186215,false,false,185,image-keyboard-response,29
true,1,1,0,1,true,z,false,true,0.0-2.0-0.3-0.29-3.29,0,0,0,90,false,stim,false,-1,662.3849999159575,2,0,1,17172,WMM2,188380,false,false,188,image-keyboard-response,30
true,2,2,3,2,true,d,false,true,0.0-2.0-0.3-0.30-3.30,1,0,1,68,true,stim,false,2,626.5200001653284,2,1,2,17172,WMM2,190509,false,false,191,image-keyboard-response,1
true,2,1,3,2,false,d,false,false,0.0-2.0-0.3-0.31-3.31,1,0,1,90,false,stim,true,1,551.8500001635402,2,0,1,17172,WMM2,192572,false,false,194,image-keyboard-response,2
true,2,0,3,0,true,q,false,true,0.0-2.0-0.3-0.32-3.32,1,0,1,81,false,stim,false,0,1052.57000005804,2,1,0,17172,WMM2,195138,false,false,197,image-keyboard-response,3
true,2,0,3,0,true,q,false,true,0.0-2.0-0.3-0.33-3.33,1,0,1,81,false,stim,false,0,1039.5800000987947,2,1,0,17172,WMM2,197686,false,false,200,image-keyboard-response,4
true,2,1,3,0,false,q,true,false,0.0-2.0-0.3-0.34-3.34,1,0,1,90,false,stim,false,0,1355.8149999007583,2,1,0,17172,WMM2,200546,false,false,203,image-keyboard-response,5
true,2,2,3,2,true,d,false,false,0.0-2.0-0.3-0.35-3.35,1,0,1,68,false,stim,false,2,502.6200001593679,2,1,2,17172,WMM2,202552,false,true,206,image-keyboard-response,6
true,2,1,3,2,false,d,true,false,0.0-2.0-0.4-0.36-3.36,1,0,1,90,false,stim,false,2,464.32500006631017,2,1,2,17172,WMM2,204519,false,false,209,image-keyboard-response,7
true,2,0,3,2,false,d,true,false,0.0-2.0-0.4-0.37-3.37,1,0,1,81,false,stim,false,1,2749.504999956116,2,0,1,17172,WMM2,208776,false,false,212,image-keyboard-response,8
true,2,1,3,0,false,q,true,false,0.0-2.0-0.4-0.38-3.38,1,0,1,90,false,stim,false,0,1842.4599999561906,2,1,0,17172,WMM2,212122,false,false,215,image-keyboard-response,9
true,2,0,3,0,true,q,false,false,0.0-2.0-0.4-0.39-3.39,1,0,1,81,false,stim,false,0,1173.59000002034,2,1,0,17172,WMM2,214799,false,true,218,image-keyboard-response,10
true,2,0,3,2,false,d,true,false,0.0-2.0-0.4-0.40-3.40,1,0,1,81,false,stim,false,1,2231.679999968037,2,0,1,17172,WMM2,218534,false,false,221,image-keyboard-response,11
true,2,1,3,2,false,d,false,false,0.0-2.0-0.4-0.41-3.41,1,0,1,90,false,stim,true,1,293.0149999447167,2,0,1,17172,WMM2,220331,false,false,224,image-keyboard-response,12
true,2,2,3,2,true,d,false,true,0.0-2.0-0.4-0.42-3.42,1,0,1,68,false,stim,false,2,851.0399998631328,2,1,2,17172,WMM2,222685,false,false,227,image-keyboard-response,13
true,2,1,3,0,false,q,true,false,0.0-2.0-0.4-0.43-3.43,1,0,1,90,false,stim,false,0,575.5000000353903,2,1,0,17172,WMM2,224763,false,false,230,image-keyboard-response,14
true,2,0,3,2,false,d,true,false,0.0-2.0-0.4-0.44-3.44,1,0,1,81,false,stim,false,2,823.1149998027831,2,1,2,17172,WMM2,227089,false,false,233,image-keyboard-response,15
true,2,2,3,2,true,d,false,true,0.0-2.0-0.5-0.45-3.45,1,0,1,68,false,stim,false,1,649.934999877587,2,0,1,17172,WMM2,229242,false,false,236,image-keyboard-response,16
false,2,-1,3,0,false,q,true,false,0.0-2.0-0.5-0.46-3.46,1,0,1,,false,stim,false,0,,2,1,0,17172,WMM2,233745,false,false,239,image-keyboard-response,17
true,2,0,3,2,false,d,true,false,0.0-2.0-0.5-0.47-3.47,1,0,1,81,false,stim,false,1,685.4999999050051,2,0,1,17172,WMM2,235934,false,false,242,image-keyboard-response,18
true,2,1,3,2,false,d,true,false,0.0-2.0-0.5-0.48-3.48,1,0,1,90,false,stim,false,2,295.7600001245737,2,1,2,17172,WMM2,237733,false,false,245,image-keyboard-response,19
true,2,0,3,0,true,q,false,true,0.0-2.0-0.5-0.49-3.49,1,0,1,81,false,stim,false,0,481.87500005587935,2,1,0,17172,WMM2,239724,false,false,248,image-keyboard-response,20
true,2,2,3,2,true,d,false,true,0.0-2.0-0.5-0.50-3.50,1,0,1,68,false,stim,false,2,885.5100001674145,2,1,2,17172,WMM2,242114,false,false,251,image-keyboard-response,21
true,2,1,3,0,false,q,true,false,0.0-2.0-0.5-0.51-3.51,1,0,1,90,false,stim,false,0,570.1049999333918,2,1,0,17172,WMM2,244187,false,false,254,image-keyboard-response,22
true,2,2,3,2,true,d,false,true,0.0-2.0-0.5-0.52-3.52,1,0,1,68,false,stim,false,2,540.8699999097735,2,1,2,17172,WMM2,246246,false,false,257,image-keyboard-response,23
true,2,0,3,2,false,d,true,false,0.0-2.0-0.5-0.53-3.53,1,0,1,81,false,stim,false,1,579.6699998900294,2,0,1,17172,WMM2,248327,false,false,260,image-keyboard-response,24
true,2,1,3,2,false,d,false,false,0.0-2.0-0.6-0.54-3.54,1,0,1,90,false,stim,true,1,977.4650000035763,2,0,1,17172,WMM2,250809,false,false,263,image-keyboard-response,25
true,2,2,3,2,true,d,false,true,0.0-2.0-0.6-0.55-3.55,1,0,1,68,false,stim,false,1,1157.5599999632686,2,0,1,17172,WMM2,253469,false,false,266,image-keyboard-response,26
true,2,0,3,2,false,d,true,true,0.0-2.0-0.6-0.56-3.56,1,0,1,81,false,stim,false,2,655.7800001464784,2,1,2,17172,WMM2,255628,false,true,269,image-keyboard-response,27
true,2,0,3,2,false,d,true,false,0.0-2.0-0.6-0.57-3.57,1,0,1,81,false,stim,false,2,588.9699999243021,2,1,2,17172,WMM2,257720,false,false,272,image-keyboard-response,28
true,2,1,3,0,false,q,true,false,0.0-2.0-0.6-0.58-3.58,1,0,1,90,false,stim,false,0,687.6250000204891,2,1,0,17172,WMM2,259910,false,false,275,image-keyboard-response,29
true,2,2,3,2,true,d,false,true,0.0-2.0-0.6-0.59-3.59,1,0,1,68,false,stim,false,2,1331.5300000831485,2,1,2,17172,WMM2,262746,false,false,278,image-keyboard-response,30
true,2,0,3,0,true,q,false,true,0.0-2.0-0.6-0.60-3.60,1,0,1,81,false,stim,false,0,2702.3599999956787,2,1,0,17172,WMM2,266952,false,false,281,image-keyboard-response,31
true,2,0,3,0,true,q,false,true,0.0-2.0-0.6-0.61-3.61,1,0,1,81,false,stim,false,0,1559.8250001203269,2,1,0,17172,WMM2,270015,false,false,284,image-keyboard-response,32
true,2,2,3,2,true,d,false,true,0.0-2.0-0.6-0.62-3.62,1,0,1,68,false,stim,false,1,1250.3800000995398,2,0,1,17172,WMM2,272770,false,false,287,image-keyboard-response,33
true,2,0,3,2,false,d,true,false,0.0-2.0-0.7-0.63-3.63,1,0,1,81,false,stim,false,2,1540.1949998922646,2,1,2,17172,WMM2,275813,false,false,290,image-keyboard-response,34
true,2,0,3,2,false,d,true,false,0.0-2.0-0.7-0.64-3.64,1,0,1,81,false,stim,false,1,305.21000013686717,2,0,1,17172,WMM2,277622,false,false,293,image-keyboard-response,35
true,2,0,3,0,true,q,false,true,0.0-2.0-0.7-0.65-3.65,1,0,1,81,false,stim,false,0,573.4200000297278,2,1,0,17172,WMM2,279698,false,false,296,image-keyboard-response,36
true,2,0,3,0,true,q,false,true,0.0-2.0-0.7-0.66-3.66,1,0,1,81,false,stim,false,0,517.9149999748915,2,1,0,17172,WMM2,281719,false,false,299,image-keyboard-response,37
true,2,0,3,2,false,d,true,false,0.0-2.0-0.7-0.67-3.67,1,0,1,81,false,stim,false,1,526.659999974072,2,0,1,17172,WMM2,283751,false,false,302,image-keyboard-response,38
true,2,0,3,0,true,q,false,true,0.0-2.0-0.7-0.68-3.68,1,0,1,81,false,stim,false,0,616.9400000944734,2,1,0,17172,WMM2,285872,false,false,305,image-keyboard-response,39
true,2,2,3,2,true,d,false,true,0.0-2.0-0.7-0.69-3.69,1,0,1,68,false,stim,false,2,346.75499983131886,2,1,2,17172,WMM2,287722,false,false,308,image-keyboard-response,40
true,2,2,3,2,true,d,false,true,0.0-2.0-0.7-0.70-3.70,1,0,1,68,false,stim,false,2,433.8849999476224,2,1,2,17172,WMM2,289660,false,false,311,image-keyboard-response,41
true,2,1,3,2,false,d,false,false,0.0-2.0-0.7-0.71-3.71,1,0,1,90,false,stim,true,1,679.89999987185,2,0,1,17172,WMM2,291843,false,false,314,image-keyboard-response,42
true,2,2,3,2,true,d,false,true,0.0-2.0-0.8-0.72-3.72,1,0,1,68,false,stim,false,2,526.649999897927,2,1,2,17172,WMM2,293872,false,false,317,image-keyboard-response,43
true,2,0,3,0,true,q,false,true,0.0-2.0-0.8-0.73-3.73,1,0,1,81,false,stim,false,0,1155.524999834597,2,1,0,17172,WMM2,296531,false,false,320,image-keyboard-response,44
true,2,0,3,2,false,d,true,false,0.0-2.0-0.8-0.74-3.74,1,0,1,81,false,stim,false,1,1433.87999990955,2,0,1,17172,WMM2,299468,false,false,323,image-keyboard-response,45
false,2,-1,3,2,false,d,true,false,0.0-2.0-0.8-0.75-3.75,1,0,1,,false,stim,false,1,,2,0,1,17172,WMM2,303972,false,false,326,image-keyboard-response,46
true,2,2,3,2,true,d,false,true,0.0-2.0-0.8-0.76-3.76,1,0,1,68,false,stim,false,2,378.2500000670552,2,1,2,17172,WMM2,305854,false,false,329,image-keyboard-response,47
true,2,0,3,0,true,q,false,true,0.0-2.0-0.8-0.77-3.77,1,0,1,81,false,stim,false,0,1560.295000206679,2,1,0,17172,WMM2,308926,false,false,332,image-keyboard-response,48
true,2,1,3,2,false,d,true,false,0.0-2.0-0.8-0.78-3.78,1,0,1,90,false,stim,false,2,787.3700000345707,2,1,2,17172,WMM2,311217,false,false,335,image-keyboard-response,49
true,2,0,3,0,true,q,false,true,0.0-2.0-0.8-0.79-3.79,1,0,1,81,false,stim,false,0,907.7399999368936,2,1,0,17172,WMM2,313628,false,false,338,image-keyboard-response,50
true,2,0,3,2,false,d,true,false,0.0-2.0-0.8-0.80-3.80,1,0,1,81,false,stim,false,1,680.9799999464303,2,1,1,17172,WMM2,315813,false,false,341,image-keyboard-response,51
true,2,1,3,0,false,q,true,false,0.0-2.0-0.9-0.81-3.81,1,0,1,90,false,stim,false,0,753.5900000948459,2,0,0,17172,WMM2,318069,false,false,344,image-keyboard-response,52
true,2,0,3,0,true,q,false,true,0.0-2.0-0.9-0.82-3.82,1,0,1,81,false,stim,false,0,1912.4499999452382,2,0,0,17172,WMM2,321483,false,false,347,image-keyboard-response,53
true,2,2,3,2,true,d,false,true,0.0-2.0-0.9-0.83-3.83,1,0,1,68,false,stim,false,2,992.8250000812113,2,1,2,17172,WMM2,323979,false,false,350,image-keyboard-response,54
true,2,2,3,2,true,d,false,true,0.0-2.0-0.9-0.84-3.84,1,0,1,68,false,stim,false,2,886.7350001819432,2,1,2,17172,WMM2,326369,false,false,353,image-keyboard-response,55
true,2,0,3,2,false,d,true,false,0.0-2.0-0.9-0.85-3.85,1,0,1,81,false,stim,false,1,858.7750000879169,2,1,1,17172,WMM2,328731,false,false,356,image-keyboard-response,56
true,2,1,3,0,false,q,true,false,0.0-2.0-0.9-0.86-3.86,1,0,1,90,false,stim,false,0,1039.6650000475347,2,0,0,17172,WMM2,331274,false,false,359,image-keyboard-response,57
true,2,0,3,2,false,d,true,false,0.0-2.0-0.9-0.87-3.87,1,0,1,81,false,stim,false,1,1847.1349999308586,2,1,1,17172,WMM2,334624,false,false,362,image-keyboard-response,58
true,2,2,3,2,true,d,false,true,0.0-2.0-0.9-0.88-3.88,1,0,1,68,false,stim,false,2,540.92500009574,2,1,2,17172,WMM2,336668,false,false,365,image-keyboard-response,59
true,2,2,3,2,true,d,false,true,0.0-2.0-0.9-0.89-3.89,1,0,1,68,false,stim,false,1,1748.1449998449534,2,1,1,17172,WMM2,339920,false,false,368,image-keyboard-response,60
true,3,2,4,2,true,d,false,true,0.0-2.0-0.10-0.90-3.90,0,1,1,68,true,stim,false,2,1551.8199999351054,2,1,1,17172,WMM2,342985,false,false,371,image-keyboard-response,1
true,3,0,4,0,true,q,false,true,0.0-2.0-0.10-0.91-3.91,0,1,1,81,false,stim,false,0,1050.0399998854846,2,0,0,17172,WMM2,345538,false,false,374,image-keyboard-response,2
true,3,1,4,0,false,q,true,false,0.0-2.0-0.10-0.92-3.92,0,1,1,90,false,stim,false,0,1452.454999787733,2,0,0,17172,WMM2,348495,false,false,377,image-keyboard-response,3
true,3,2,4,0,false,q,true,false,0.0-2.0-0.10-0.93-3.93,0,1,1,68,false,stim,false,0,1740.080000134185,2,0,0,17172,WMM2,351737,false,false,380,image-keyboard-response,4
true,3,0,4,2,false,d,true,true,0.0-2.0-0.10-0.94-3.94,0,1,1,81,false,stim,false,2,533.7300000246614,2,1,2,17172,WMM2,353774,false,true,383,image-keyboard-response,5
true,3,0,4,2,false,d,true,true,0.0-2.0-0.10-0.95-3.95,0,1,1,81,false,stim,false,2,1624.9600001610816,2,1,1,17172,WMM2,356902,false,true,386,image-keyboard-response,6
true,3,0,4,2,false,d,true,false,0.0-2.0-0.10-0.96-3.96,0,1,1,81,false,stim,false,2,2315.0400000158697,2,1,2,17172,WMM2,360721,false,false,389,image-keyboard-response,7
true,3,2,4,2,true,d,false,true,0.0-2.0-0.10-0.97-3.97,0,1,1,68,false,stim,false,2,1965.12999990955,2,1,2,17172,WMM2,364190,false,false,392,image-keyboard-response,8
true,3,0,4,2,false,d,true,true,0.0-2.0-0.10-0.98-3.98,0,1,1,81,false,stim,false,2,1924.6499999426305,2,1,1,17172,WMM2,367619,false,true,395,image-keyboard-response,9
true,3,0,4,2,false,d,true,false,0.0-2.0-0.11-0.99-3.99,0,1,1,81,false,stim,false,2,1187.0699999853969,2,1,1,17172,WMM2,370309,false,false,398,image-keyboard-response,10
true,3,1,4,0,false,q,true,false,0.0-2.0-0.11-0.100-3.100,0,1,1,90,false,stim,false,0,1111.805000109598,2,0,0,17172,WMM2,372926,false,false,401,image-keyboard-response,11
true,3,0,4,0,true,q,false,true,0.0-2.0-0.11-0.101-3.101,0,1,1,81,false,stim,false,0,579.5849999412894,2,0,0,17172,WMM2,375008,false,false,404,image-keyboard-response,12
true,3,2,4,2,true,d,false,true,0.0-2.0-0.11-0.102-3.102,0,1,1,68,false,stim,false,2,783.1800000276417,2,1,1,17172,WMM2,377296,false,false,407,image-keyboard-response,13
true,3,2,4,2,true,d,false,true,0.0-2.0-0.11-0.103-3.103,0,1,1,68,false,stim,false,2,611.5050001535565,2,1,2,17172,WMM2,379410,false,false,410,image-keyboard-response,14
true,3,0,4,0,true,q,false,true,0.0-2.0-0.11-0.104-3.104,0,1,1,81,false,stim,false,0,558.2400001585484,2,0,0,17172,WMM2,381471,false,false,413,image-keyboard-response,15
true,3,2,4,2,true,d,false,true,0.0-2.0-0.11-0.105-3.105,0,1,1,68,false,stim,false,2,778.4800000954419,2,1,2,17172,WMM2,383752,false,false,416,image-keyboard-response,16
true,3,2,4,2,true,d,false,true,0.0-2.0-0.11-0.106-3.106,0,1,1,68,false,stim,false,2,561.2899998668581,2,1,2,17172,WMM2,385816,false,false,419,image-keyboard-response,17
true,3,2,4,2,true,d,false,false,0.0-2.0-0.11-0.107-3.107,0,1,1,68,false,stim,false,2,983.744999859482,2,1,1,17172,WMM2,388303,false,true,422,image-keyboard-response,18
true,3,2,4,2,true,d,false,false,0.0-2.0-0.12-0.108-3.108,0,1,1,68,false,stim,false,2,663.5349998250604,2,1,2,17172,WMM2,390471,false,true,425,image-keyboard-response,19
true,3,2,4,0,false,q,true,false,0.0-2.0-0.12-0.109-3.109,0,1,1,68,false,stim,false,0,485.5400000233203,2,0,0,17172,WMM2,392460,false,false,428,image-keyboard-response,20
true,3,2,4,2,true,d,false,true,0.0-2.0-0.12-0.110-3.110,0,1,1,68,false,stim,false,2,1132.3050002101809,2,1,1,17172,WMM2,395097,false,false,431,image-keyboard-response,21
true,3,2,4,2,true,d,false,true,0.0-2.0-0.12-0.111-3.111,0,1,1,68,false,stim,false,2,986.7799999192357,2,1,1,17172,WMM2,397587,false,false,434,image-keyboard-response,22
true,3,2,4,2,true,d,false,true,0.0-2.0-0.12-0.112-3.112,0,1,1,68,false,stim,false,2,891.6549999266863,2,1,2,17172,WMM2,399982,false,false,437,image-keyboard-response,23
true,3,2,4,2,true,d,false,true,0.0-2.0-0.12-0.113-3.113,0,1,1,68,false,stim,false,2,542.420000070706,2,1,1,17172,WMM2,402029,false,false,440,image-keyboard-response,24
true,3,2,4,2,true,d,false,true,0.0-2.0-0.12-0.114-3.114,0,1,1,68,false,stim,false,2,1047.0149999018759,2,1,2,17172,WMM2,404579,false,false,443,image-keyboard-response,25
true,3,0,4,0,true,q,false,true,0.0-2.0-0.12-0.115-3.115,0,1,1,81,false,stim,false,0,615.2749999891967,2,0,0,17172,WMM2,406697,false,false,446,image-keyboard-response,26
true,3,0,4,0,true,q,false,false,0.0-2.0-0.12-0.116-3.116,0,1,1,81,false,stim,false,0,1441.5399997960776,2,0,0,17172,WMM2,409642,false,true,449,image-keyboard-response,27
true,3,2,4,2,true,d,false,true,0.0-2.0-0.13-0.117-3.117,0,1,1,68,false,stim,false,2,655.2649999503046,2,0,2,17172,WMM2,411802,false,false,452,image-keyboard-response,28
true,3,0,4,0,true,q,false,true,0.0-2.0-0.13-0.118-3.118,0,1,1,81,false,stim,false,0,913.969999877736,2,0,0,17172,WMM2,414218,false,false,455,image-keyboard-response,29
true,3,0,4,0,true,q,false,false,0.0-2.0-0.13-0.119-3.119,0,1,1,81,false,stim,false,0,1510.7699998188764,2,0,0,17172,WMM2,417231,false,true,458,image-keyboard-response,30
true,3,2,4,2,true,d,false,true,0.0-2.0-0.13-0.120-3.120,0,1,1,68,false,stim,false,2,720.4299999866635,2,0,2,17172,WMM2,419454,false,false,461,image-keyboard-response,31
true,3,2,4,2,true,d,false,true,0.0-2.0-0.13-0.121-3.121,0,1,1,68,false,stim,false,2,1279.710000148043,2,1,1,17172,WMM2,422239,false,false,464,image-keyboard-response,32
true,3,2,4,2,true,d,false,true,0.0-2.0-0.13-0.122-3.122,0,1,1,68,false,stim,false,2,664.6900000050664,2,1,1,17172,WMM2,424406,false,false,467,image-keyboard-response,33
true,3,2,4,2,true,d,false,true,0.0-2.0-0.13-0.123-3.123,0,1,1,68,false,stim,false,2,484.79999997653067,2,1,1,17172,WMM2,426394,false,false,470,image-keyboard-response,34
true,3,2,4,2,true,d,false,true,0.0-2.0-0.13-0.124-3.124,0,1,1,68,false,stim,false,2,1520.7650000229478,2,0,2,17172,WMM2,429421,false,false,473,image-keyboard-response,35
true,3,0,4,0,true,q,false,false,0.0-2.0-0.13-0.125-3.125,0,1,1,81,false,stim,false,0,2607.0950001012534,2,0,0,17172,WMM2,433530,false,true,476,image-keyboard-response,36
true,3,0,4,0,true,q,false,true,0.0-2.0-0.14-0.126-3.126,0,1,1,81,false,stim,false,0,790.159999858588,2,0,0,17172,WMM2,435824,false,false,479,image-keyboard-response,37
true,4,2,1,0,false,q,false,false,0.0-2.0-0.14-0.127-3.127,0,1,0,68,true,stim,true,2,1075.7999999914318,2,0,2,17172,WMM2,438402,false,false,482,image-keyboard-response,1
true,4,2,1,0,false,q,false,false,0.0-2.0-0.14-0.128-3.128,0,1,0,68,false,stim,true,2,960.0550001487136,2,0,2,17172,WMM2,440864,false,false,485,image-keyboard-response,2
true,4,0,1,0,true,q,false,true,0.0-2.0-0.14-0.129-3.129,0,1,0,81,false,stim,false,2,379.0450000669807,2,0,2,17172,WMM2,442747,false,false,488,image-keyboard-response,3
true,4,0,1,2,false,d,true,false,0.0-2.0-0.14-0.130-3.130,0,1,0,81,false,stim,false,2,717.2649998683482,2,1,1,17172,WMM2,444968,false,false,491,image-keyboard-response,4
true,4,0,1,1,false,z,false,false,0.0-2.0-0.14-0.131-3.131,0,1,0,81,false,stim,true,0,2972.26499998942,2,0,0,17172,WMM2,449443,false,false,494,image-keyboard-response,5
true,4,1,1,2,false,d,true,false,0.0-2.0-0.14-0.132-3.132,0,1,0,90,false,stim,false,2,2001.6250000335276,2,1,1,17172,WMM2,452949,false,false,497,image-keyboard-response,6
true,4,0,1,1,false,z,false,false,0.0-2.0-0.14-0.133-3.133,0,1,0,81,false,stim,true,0,475.0849998090416,2,0,0,17172,WMM2,454927,false,false,500,image-keyboard-response,7
true,4,0,1,2,false,d,true,false,0.0-2.0-0.14-0.134-3.134,0,1,0,81,false,stim,false,2,771.6999999247491,2,1,1,17172,WMM2,457204,false,false,503,image-keyboard-response,8
true,4,2,1,1,false,z,true,false,0.0-2.0-0.15-0.135-3.135,0,1,0,68,false,stim,false,0,440.3899998869747,2,0,0,17172,WMM2,459149,false,false,506,image-keyboard-response,9
true,4,1,1,1,true,z,false,true,0.0-2.0-0.15-0.136-3.136,0,1,0,90,false,stim,false,0,401.68499993160367,2,0,0,17172,WMM2,461054,false,false,509,image-keyboard-response,10
true,4,2,1,0,false,q,false,false,0.0-2.0-0.15-0.137-3.137,0,1,0,68,false,stim,true,2,646.7500000726432,2,0,2,17172,WMM2,463203,false,false,512,image-keyboard-response,11
true,4,1,1,2,false,d,true,false,0.0-2.0-0.15-0.138-3.138,0,1,0,90,false,stim,false,2,1260.2299998980016,2,1,1,17172,WMM2,465966,false,false,515,image-keyboard-response,12
true,4,0,1,0,true,q,false,false,0.0-2.0-0.15-0.139-3.139,0,1,0,81,false,stim,false,2,1157.8699999954551,2,0,2,17172,WMM2,468627,false,true,518,image-keyboard-response,13
true,4,2,1,1,false,z,true,false,0.0-2.0-0.15-0.140-3.140,0,1,0,68,false,stim,false,0,1878.8299998268485,2,0,0,17172,WMM2,472010,false,false,521,image-keyboard-response,14
true,4,1,1,0,false,q,true,false,0.0-2.0-0.15-0.141-3.141,0,1,0,90,false,stim,false,2,548.7999999895692,2,0,2,17172,WMM2,474061,false,false,524,image-keyboard-response,15
true,4,1,1,2,false,d,true,false,0.0-2.0-0.15-0.142-3.142,0,1,0,90,false,stim,false,2,451.5849999152124,2,1,1,17172,WMM2,476016,false,false,527,image-keyboard-response,16
true,4,0,1,2,false,d,true,false,0.0-2.0-0.15-0.143-3.143,0,1,0,81,false,stim,false,2,499.63500001467764,2,1,1,17172,WMM2,478019,false,false,530,image-keyboard-response,17
true,4,2,1,1,false,z,true,false,0.0-2.0-0.16-0.144-3.144,0,1,0,68,false,stim,false,0,419.79000018909574,2,0,0,17172,WMM2,479942,false,false,533,image-keyboard-response,18
true,4,2,1,1,false,z,true,false,0.0-2.0-0.16-0.145-3.145,0,1,0,68,false,stim,false,0,544.4399998523295,2,0,0,17172,WMM2,481989,false,false,536,image-keyboard-response,19
true,4,0,1,0,true,q,false,true,0.0-2.0-0.16-0.146-3.146,0,1,0,81,false,stim,false,2,1607.0750001817942,2,0,2,17172,WMM2,485100,false,false,539,image-keyboard-response,20
true,4,1,1,2,false,d,true,false,0.0-2.0-0.16-0.147-3.147,0,1,0,90,false,stim,false,2,1898.6549999099225,2,1,1,17172,WMM2,488501,false,false,542,image-keyboard-response,21
true,4,2,1,0,false,q,false,false,0.0-2.0-0.16-0.148-3.148,0,1,0,68,false,stim,true,2,607.7600000426173,2,0,2,17172,WMM2,490612,false,false,545,image-keyboard-response,22
true,4,0,1,2,false,d,true,false,0.0-2.0-0.16-0.149-3.149,0,1,0,81,false,stim,false,2,570.0199999846518,2,1,1,17172,WMM2,492684,false,false,548,image-keyboard-response,23
true,4,1,1,1,true,z,false,true,0.0-2.0-0.16-0.150-3.150,0,1,0,90,false,stim,false,0,704.7549998387694,2,0,0,17172,WMM2,494894,false,false,551,image-keyboard-response,24
true,4,1,1,2,false,d,true,false,0.0-2.0-0.16-0.151-3.151,0,1,0,90,false,stim,false,2,2080.4299998562783,2,1,1,17172,WMM2,498477,false,false,554,image-keyboard-response,25
true,4,2,1,0,false,q,false,false,0.0-2.0-0.16-0.152-3.152,0,1,0,68,false,stim,true,2,1145.8050000946969,2,0,2,17172,WMM2,501126,false,false,557,image-keyboard-response,26
true,4,0,1,2,false,d,true,false,0.0-2.0-0.17-0.153-3.153,0,1,0,81,false,stim,false,2,772.7350001223385,2,1,1,17172,WMM2,503402,false,false,560,image-keyboard-response,27
true,4,1,1,0,false,q,true,true,0.0-2.0-0.17-0.154-3.154,0,1,0,90,false,stim,false,2,355.7349999900907,2,0,2,17172,WMM2,505263,false,true,563,image-keyboard-response,28
true,4,0,1,1,false,z,false,false,0.0-2.0-0.17-0.155-3.155,0,1,0,81,false,stim,true,0,984.9799999501556,2,0,0,17172,WMM2,507752,false,false,566,image-keyboard-response,29
true,4,0,1,0,true,q,false,true,0.0-2.0-0.17-0.156-3.156,0,1,0,81,false,stim,false,2,1021.1600000038743,2,0,2,17172,WMM2,510277,false,false,569,image-keyboard-response,30
true,4,0,1,0,true,q,false,true,0.0-2.0-0.17-0.157-3.157,0,1,0,81,false,stim,false,2,348.41000009328127,2,0,2,17172,WMM2,512129,false,false,572,image-keyboard-response,31
true,4,1,1,1,true,z,false,true,0.0-2.0-0.17-0.158-3.158,0,1,0,90,false,stim,false,0,498.67000011727214,2,0,0,17172,WMM2,514132,false,false,575,image-keyboard-response,32
true,4,1,1,2,false,d,true,false,0.0-2.0-0.17-0.159-3.159,0,1,0,90,false,stim,false,2,1155.4050000850111,2,1,1,17172,WMM2,516800,false,false,578,image-keyboard-response,33
true,4,0,1,1,false,z,false,false,0.0-2.0-0.17-0.160-3.160,0,1,0,81,false,stim,true,0,2767.930000089109,2,0,0,17172,WMM2,521084,false,false,581,image-keyboard-response,34
true,4,1,1,2,false,d,true,false,0.0-2.0-0.17-0.161-3.161,0,1,0,90,false,stim,false,2,1354.6249999199063,2,1,1,17172,WMM2,523941,false,false,584,image-keyboard-response,35
true,4,0,1,2,false,d,true,false,0.0-2.0-0.18-0.162-3.162,0,1,0,81,false,stim,false,2,594.5699999574572,2,1,1,17172,WMM2,526040,false,false,587,image-keyboard-response,36
true,4,1,1,2,false,d,true,false,0.0-2.0-0.18-0.163-3.163,0,1,0,90,false,stim,false,2,611.3449998665601,2,1,1,17172,WMM2,528154,false,false,590,image-keyboard-response,37
true,4,0,1,1,false,z,false,false,0.0-2.0-0.18-0.164-3.164,0,1,0,81,false,stim,true,0,1926.10999988392,2,0,0,17172,WMM2,531584,false,false,593,image-keyboard-response,38
true,4,2,1,1,false,z,true,false,0.0-2.0-0.18-0.165-3.165,0,1,0,68,false,stim,false,0,674.4399999734014,2,0,0,17172,WMM2,533762,false,false,596,image-keyboard-response,39
true,4,1,1,0,false,q,true,false,0.0-2.0-0.18-0.166-3.166,0,1,0,90,false,stim,false,2,924.9249999411404,2,0,2,17172,WMM2,536190,false,false,599,image-keyboard-response,40
true,4,2,1,1,false,z,true,false,0.0-2.0-0.18-0.167-3.167,0,1,0,68,false,stim,false,0,926.3349999673665,2,0,0,17172,WMM2,538626,false,false,602,image-keyboard-response,41
true,4,2,1,0,false,q,false,false,0.0-2.0-0.18-0.168-3.168,0,1,0,68,false,stim,true,2,782.5749998446554,2,0,2,17172,WMM2,540912,false,false,605,image-keyboard-response,42
true,4,0,1,0,true,q,false,true,0.0-2.0-0.18-0.169-3.169,0,1,0,81,false,stim,false,2,548.1650000438094,2,0,2,17172,WMM2,542964,false,false,608,image-keyboard-response,43
true,4,1,1,2,false,d,true,false,0.0-2.0-0.18-0.170-3.170,0,1,0,90,false,stim,false,2,2157.4250000994653,2,1,1,17172,WMM2,546625,false,false,611,image-keyboard-response,44
true,4,2,1,1,false,z,true,true,0.0-2.0-0.19-0.171-3.171,0,1,0,68,false,stim,false,0,1010.5950001161546,2,0,0,17172,WMM2,549140,false,true,614,image-keyboard-response,45
true,4,0,1,2,false,d,true,false,0.0-2.0-0.19-0.172-3.172,0,1,0,81,false,stim,false,2,668.4499999973923,2,1,1,17172,WMM2,551313,false,false,617,image-keyboard-response,46
true,4,0,1,2,false,d,true,false,0.0-2.0-0.19-0.173-3.173,0,1,0,81,false,stim,false,2,1820.5450000241399,2,1,1,17172,WMM2,554636,false,false,620,image-keyboard-response,47
true,4,2,1,0,false,q,false,false,0.0-2.0-0.19-0.174-3.174,0,1,0,68,false,stim,true,2,566.5150000713766,2,0,2,17172,WMM2,556707,false,false,623,image-keyboard-response,48
true,4,2,1,2,true,d,false,true,0.0-2.0-0.19-0.175-3.175,0,1,0,68,false,stim,false,2,545.3550000675023,2,1,1,17172,WMM2,558755,false,false,626,image-keyboard-response,49
true,4,2,1,0,false,q,false,false,0.0-2.0-0.19-0.176-3.176,0,1,0,68,false,stim,true,2,1128.3950000070035,2,0,2,17172,WMM2,561387,false,false,629,image-keyboard-response,50
true,4,0,1,1,false,z,false,false,0.0-2.0-0.19-0.177-3.177,0,1,0,81,false,stim,true,0,537.8050000872463,2,1,0,17172,WMM2,563428,false,false,632,image-keyboard-response,51
true,4,1,1,1,true,z,false,true,0.0-2.0-0.19-0.178-3.178,0,1,0,90,false,stim,false,0,331.35000010952353,2,1,0,17172,WMM2,565262,false,false,635,image-keyboard-response,52
true,4,0,1,0,true,q,false,true,0.0-2.0-0.19-0.179-3.179,0,1,0,81,false,stim,false,2,1183.8899999856949,2,0,2,17172,WMM2,567949,false,false,638,image-keyboard-response,53
true,4,0,1,0,true,q,false,true,0.0-2.0-0.20-0.180-3.180,0,1,0,81,false,stim,false,2,317.13499990291893,2,0,2,17172,WMM2,569770,false,false,641,image-keyboard-response,54
true,4,1,1,1,true,z,false,false,0.0-2.0-0.20-0.181-3.181,0,1,0,90,false,stim,false,0,408.80999993532896,2,1,0,17172,WMM2,571681,false,true,644,image-keyboard-response,55
true,4,2,1,2,true,d,false,true,0.0-2.0-0.20-0.182-3.182,0,1,0,68,false,stim,false,2,397.9500001296401,2,1,1,17172,WMM2,573582,false,false,647,image-keyboard-response,56
true,4,2,1,2,true,d,false,true,0.0-2.0-0.20-0.183-3.183,0,1,0,68,false,stim,false,2,440.85499993525445,2,1,1,17172,WMM2,575526,false,false,650,image-keyboard-response,57
true,4,2,1,2,true,d,false,true,0.0-2.0-0.20-0.184-3.184,0,1,0,68,false,stim,false,2,441.5149998385459,2,1,1,17172,WMM2,577472,false,false,653,image-keyboard-response,58
true,4,0,1,1,false,z,false,false,0.0-2.0-0.20-0.185-3.185,0,1,0,81,false,stim,true,0,601.3850001618266,2,1,0,17172,WMM2,579576,false,false,656,image-keyboard-response,59
true,4,1,1,1,true,z,false,true,0.0-2.0-0.20-0.186-3.186,0,1,0,90,false,stim,false,0,645.4099998809397,2,1,0,17172,WMM2,581726,false,false,659,image-keyboard-response,60
true,5,0,2,1,false,z,false,false,0.0-2.0-0.20-0.187-3.187,1,1,0,81,true,stim,true,0,597.0250000245869,2,0,2,17172,WMM2,583826,false,false,662,image-keyboard-response,1
true,5,0,2,1,false,z,false,false,0.0-2.0-0.20-0.188-3.188,1,1,0,81,false,stim,true,0,372.0350000075996,2,0,2,17172,WMM2,585704,false,false,665,image-keyboard-response,2
true,5,1,2,1,true,z,false,true,0.0-2.0-0.21-0.189-3.189,1,1,0,90,false,stim,false,1,458.84999982081354,2,1,0,17172,WMM2,587667,false,false,668,image-keyboard-response,3
true,5,1,2,1,true,z,false,true,0.0-2.0-0.21-0.190-3.190,1,1,0,90,false,stim,false,1,570.9300001617521,2,1,0,17172,WMM2,589742,false,false,671,image-keyboard-response,4
true,5,1,2,2,false,d,true,false,0.0-2.0-0.21-0.191-3.191,1,1,0,90,false,stim,false,2,662.0849999599159,2,1,1,17172,WMM2,591907,false,false,674,image-keyboard-response,5
true,5,1,2,2,false,d,true,false,0.0-2.0-0.21-0.192-3.192,1,1,0,90,false,stim,false,2,725.2750000916421,2,1,1,17172,WMM2,594136,false,false,677,image-keyboard-response,6
true,5,0,2,2,false,d,true,false,0.0-2.0-0.21-0.193-3.193,1,1,0,81,false,stim,false,2,1174.074999988079,2,1,1,17172,WMM2,596814,false,false,680,image-keyboard-response,7
true,5,2,2,1,false,z,true,true,0.0-2.0-0.21-0.194-3.194,1,1,0,68,false,stim,false,0,823.609999846667,2,0,2,17172,WMM2,599141,false,true,683,image-keyboard-response,8
true,5,2,2,1,false,z,true,false,0.0-2.0-0.21-0.195-3.195,1,1,0,68,false,stim,false,0,393.20000004954636,2,0,2,17172,WMM2,601039,false,false,686,image-keyboard-response,9
true,5,1,2,1,true,z,false,true,0.0-2.0-0.21-0.196-3.196,1,1,0,90,false,stim,false,1,1949.33500001207,2,1,0,17172,WMM2,604501,false,false,689,image-keyboard-response,10
true,5,2,2,1,false,z,true,false,0.0-2.0-0.21-0.197-3.197,1,1,0,68,false,stim,false,0,1147.0850000623614,2,0,2,17172,WMM2,607151,false,false,692,image-keyboard-response,11
true,5,1,2,1,true,z,false,true,0.0-2.0-0.22-0.198-3.198,1,1,0,90,false,stim,false,1,695.3249999787658,2,1,0,17172,WMM2,609350,false,false,695,image-keyboard-response,12
true,5,0,2,1,false,z,false,true,0.0-2.0-0.22-0.199-3.199,1,1,0,81,false,stim,true,0,2019.9450000654906,2,0,2,17172,WMM2,612876,false,true,698,image-keyboard-response,13
true,5,1,2,1,true,z,false,true,0.0-2.0-0.22-0.200-3.200,1,1,0,90,false,stim,false,1,597.9350002016872,2,1,0,17172,WMM2,614980,false,false,701,image-keyboard-response,14
true,5,0,2,1,false,z,false,false,0.0-2.0-0.22-0.201-3.201,1,1,0,81,false,stim,true,0,610.090000089258,2,0,2,17172,WMM2,617094,false,false,704,image-keyboard-response,15
true,5,0,2,2,false,d,true,false,0.0-2.0-0.22-0.202-3.202,1,1,0,81,false,stim,false,2,890.9199999179691,2,1,1,17172,WMM2,619488,false,false,707,image-keyboard-response,16
true,5,0,2,1,false,z,false,true,0.0-2.0-0.22-0.203-3.203,1,1,0,81,false,stim,true,0,1785.2350000757724,2,0,2,17172,WMM2,622777,false,true,710,image-keyboard-response,17
true,5,2,2,2,true,d,false,false,0.0-2.0-0.22-0.204-3.204,1,1,0,68,false,stim,false,2,1843.1649999693036,2,1,1,17172,WMM2,626123,false,true,713,image-keyboard-response,18
true,5,1,2,1,true,z,false,true,0.0-2.0-0.22-0.205-3.205,1,1,0,90,false,stim,false,1,1137.1899999212474,2,1,0,17172,WMM2,628765,false,false,716,image-keyboard-response,19
true,5,1,2,2,false,d,true,false,0.0-2.0-0.22-0.206-3.206,1,1,0,90,false,stim,false,2,1918.3449998963624,2,1,1,17172,WMM2,632186,false,false,719,image-keyboard-response,20
true,5,0,2,1,false,z,false,false,0.0-2.0-0.23-0.207-3.207,1,1,0,81,false,stim,true,0,1237.904999870807,2,0,2,17172,WMM2,634928,false,false,722,image-keyboard-response,21
true,5,1,2,1,true,z,false,true,0.0-2.0-0.23-0.208-3.208,1,1,0,90,false,stim,false,1,1528.2300000544637,2,1,0,17172,WMM2,637960,false,false,725,image-keyboard-response,22
true,5,1,2,1,true,z,false,true,0.0-2.0-0.23-0.209-3.209,1,1,0,90,false,stim,false,1,818.5350000858307,2,1,0,17172,WMM2,640284,false,false,728,image-keyboard-response,23
true,5,1,2,2,false,d,true,false,0.0-2.0-0.23-0.210-3.210,1,1,0,90,false,stim,false,2,1680.800000205636,2,1,1,17172,WMM2,643469,false,false,731,image-keyboard-response,24
true,5,2,2,1,false,z,true,false,0.0-2.0-0.23-0.211-3.211,1,1,0,68,false,stim,false,1,1048.8350000232458,2,1,0,17172,WMM2,646022,false,false,734,image-keyboard-response,25
true,5,2,2,2,true,d,false,true,0.0-2.0-0.23-0.212-3.212,1,1,0,68,false,stim,false,2,937.804999994114,2,1,1,17172,WMM2,648464,false,false,737,image-keyboard-response,26
true,5,0,2,1,false,z,false,false,0.0-2.0-0.23-0.213-3.213,1,1,0,81,false,stim,true,0,526.4699999243021,2,0,2,17172,WMM2,650495,false,false,740,image-keyboard-response,27
true,5,1,2,1,true,z,false,true,0.0-2.0-0.23-0.214-3.214,1,1,0,90,false,stim,false,0,945.1899998821318,2,0,2,17172,WMM2,652943,false,false,743,image-keyboard-response,28
true,5,2,2,2,true,d,false,true,0.0-2.0-0.23-0.215-3.215,1,1,0,68,false,stim,false,2,458.22999998927116,2,1,1,17172,WMM2,654905,false,false,746,image-keyboard-response,29
true,5,1,2,1,true,z,false,true,0.0-2.0-0.24-0.216-3.216,1,1,0,90,false,stim,false,1,316.1599999293685,2,1,0,17172,WMM2,656725,false,false,749,image-keyboard-response,30
true,5,1,2,1,true,z,false,false,0.0-2.0-0.24-0.217-3.217,1,1,0,90,false,stim,false,0,418.31999993883073,2,0,2,17172,WMM2,658647,false,true,752,image-keyboard-response,31
true,5,2,2,1,false,z,true,false,0.0-2.0-0.24-0.218-3.218,1,1,0,68,false,stim,false,0,536.290000192821,2,0,2,17172,WMM2,660687,false,false,755,image-keyboard-response,32
true,5,2,2,1,false,z,true,true,0.0-2.0-0.24-0.219-3.219,1,1,0,68,false,stim,false,0,715.0049998890609,2,0,2,17172,WMM2,662906,false,true,758,image-keyboard-response,33
true,5,1,2,1,true,z,false,false,0.0-2.0-0.24-0.220-3.220,1,1,0,90,false,stim,false,1,515.9699998330325,2,1,0,17172,WMM2,664926,false,true,761,image-keyboard-response,34
true,5,1,2,2,false,d,true,false,0.0-2.0-0.24-0.221-3.221,1,1,0,90,false,stim,false,2,392.28999987244606,2,1,1,17172,WMM2,666821,false,false,764,image-keyboard-response,35
true,5,0,2,1,false,z,true,true,0.0-2.0-0.24-0.222-3.222,1,1,0,81,false,stim,false,1,418.73999987728894,2,1,0,17172,WMM2,668744,false,true,767,image-keyboard-response,36
true,5,0,2,2,false,d,true,false,0.0-2.0-0.24-0.223-3.223,1,1,0,81,false,stim,false,2,831.8250000011176,2,1,1,17172,WMM2,671081,false,false,770,image-keyboard-response,37
true,5,2,2,2,true,d,false,true,0.0-2.0-0.24-0.224-3.224,1,1,0,68,false,stim,false,2,778.9000000339001,2,1,1,17172,WMM2,673363,false,false,773,image-keyboard-response,38
true,5,0,2,1,false,z,true,false,0.0-2.0-0.25-0.225-3.225,1,1,0,81,false,stim,false,1,730.7499998714775,2,1,0,17172,WMM2,675598,false,false,776,image-keyboard-response,39
true,5,2,2,2,true,d,false,true,0.0-2.0-0.25-0.226-3.226,1,1,0,68,false,stim,false,2,1316.1100000143051,2,1,1,17172,WMM2,678419,false,false,779,image-keyboard-response,40
true,5,1,2,1,true,z,false,true,0.0-2.0-0.25-0.227-3.227,1,1,0,90,false,stim,false,0,752.8200000524521,2,0,2,17172,WMM2,680675,false,false,782,image-keyboard-response,41
true,5,2,2,1,false,z,true,false,0.0-2.0-0.25-0.228-3.228,1,1,0,68,false,stim,false,0,727.6849998161197,2,0,2,17172,WMM2,682907,false,false,785,image-keyboard-response,42
true,5,1,2,1,true,z,false,true,0.0-2.0-0.25-0.229-3.229,1,1,0,90,false,stim,false,1,1130.3949998691678,2,1,0,17172,WMM2,685541,false,false,788,image-keyboard-response,43
true,5,1,2,1,true,z,false,true,0.0-2.0-0.25-0.230-3.230,1,1,0,90,false,stim,false,1,1022.374999942258,2,1,0,17172,WMM2,688068,false,false,791,image-keyboard-response,44
true,5,2,2,1,false,z,true,false,0.0-2.0-0.25-0.231-3.231,1,1,0,68,false,stim,false,0,1011.2299998290837,2,0,2,17172,WMM2,690583,false,false,794,image-keyboard-response,45
true,5,1,2,2,false,d,true,false,0.0-2.0-0.25-0.232-3.232,1,1,0,90,false,stim,false,2,1766.3149998988956,2,1,1,17172,WMM2,693854,false,false,797,image-keyboard-response,46
true,5,1,2,2,false,d,true,false,0.0-2.0-0.25-0.233-3.233,1,1,0,90,false,stim,false,2,2723.490000003949,2,1,1,17172,WMM2,698081,false,false,800,image-keyboard-response,47
true,5,2,2,1,false,z,true,false,0.0-2.0-0.26-0.234-3.234,1,1,0,68,false,stim,false,1,1777.01500011608,2,1,0,17172,WMM2,701372,false,false,803,image-keyboard-response,48
true,5,0,2,1,false,z,false,false,0.0-2.0-0.26-0.235-3.235,1,1,0,81,false,stim,true,0,1458.6800001561642,2,0,2,17172,WMM2,704334,false,false,806,image-keyboard-response,49
true,5,1,2,1,true,z,false,true,0.0-2.0-0.26-0.236-3.236,1,1,0,90,false,stim,false,1,890.5250001698732,2,1,0,17172,WMM2,706729,false,false,809,image-keyboard-response,50
true,5,1,2,2,false,d,true,false,0.0-2.0-0.26-0.237-3.237,1,1,0,90,false,stim,false,2,1871.3749998714775,2,1,1,17172,WMM2,710104,false,false,812,image-keyboard-response,51
true,5,2,2,1,false,z,true,true,0.0-2.0-0.26-0.238-3.238,1,1,0,68,false,stim,false,0,828.1100001186132,2,1,2,17172,WMM2,712437,false,true,815,image-keyboard-response,52
false,5,-1,2,2,false,d,true,false,0.0-2.0-0.26-0.239-3.239,1,1,0,,false,stim,false,2,,2,1,1,17172,WMM2,716940,false,false,818,image-keyboard-response,53
true,5,0,2,1,false,z,true,false,0.0-2.0-0.26-0.240-3.240,1,1,0,81,false,stim,false,1,665.0249999947846,2,0,0,17172,WMM2,719108,false,false,821,image-keyboard-response,54
true,5,2,2,2,true,d,false,true,0.0-2.0-0.26-0.241-3.241,1,1,0,68,false,stim,false,2,2108.5250000469387,2,1,1,17172,WMM2,722721,false,false,824,image-keyboard-response,55
true,5,1,2,1,true,z,false,true,0.0-2.0-0.26-0.242-3.242,1,1,0,90,false,stim,false,0,587.9000001586974,2,1,2,17172,WMM2,724813,false,false,827,image-keyboard-response,56
true,5,2,2,1,false,z,true,false,0.0-2.0-0.27-0.243-3.243,1,1,0,68,false,stim,false,0,1073.789999820292,2,1,2,17172,WMM2,727390,false,false,830,image-keyboard-response,57
true,5,0,2,1,false,z,true,false,0.0-2.0-0.27-0.244-3.244,1,1,0,81,false,stim,false,1,1314.3050000071526,2,0,0,17172,WMM2,730208,false,false,833,image-keyboard-response,58
true,5,1,2,1,true,z,false,true,0.0-2.0-0.27-0.245-3.245,1,1,0,90,false,stim,false,0,998.0649999342859,2,1,2,17172,WMM2,732721,false,false,836,image-keyboard-response,59
true,5,1,2,2,false,d,true,false,0.0-2.0-0.27-0.246-3.246,1,1,0,90,false,stim,false,2,1881.0050000902265,2,1,1,17172,WMM2,736105,false,false,839,image-keyboard-response,60
true,6,2,2,2,true,d,false,true,0.0-2.0-0.27-0.247-3.247,0,1,1,68,true,stim,false,1,1246.2299999315292,2,0,0,17172,WMM2,738854,false,false,842,image-keyboard-response,1
true,6,0,2,1,false,z,true,false,0.0-2.0-0.27-0.248-3.248,0,1,1,81,false,stim,false,1,635.6350001879036,2,1,2,17172,WMM2,741013,false,false,845,image-keyboard-response,2
true,6,1,2,2,false,d,true,true,0.0-2.0-0.27-0.249-3.249,0,1,1,90,false,stim,false,2,534.2099999543279,2,1,1,17172,WMM2,743050,false,true,848,image-keyboard-response,3
true,6,0,2,2,false,d,true,false,0.0-2.0-0.27-0.250-3.250,0,1,1,81,false,stim,false,1,651.5550001058728,2,0,0,17172,WMM2,745205,false,false,851,image-keyboard-response,4
true,6,1,2,2,false,d,true,false,0.0-2.0-0.27-0.251-3.251,0,1,1,90,false,stim,false,2,846.1100000422448,2,1,1,17172,WMM2,747554,false,false,854,image-keyboard-response,5
true,6,2,2,1,false,z,true,false,0.0-2.0-0.28-0.252-3.252,0,1,1,68,false,stim,false,1,1041.0350000020117,2,1,2,17172,WMM2,750098,false,false,857,image-keyboard-response,6
true,6,1,2,2,false,d,true,false,0.0-2.0-0.28-0.253-3.253,0,1,1,90,false,stim,false,2,655.8199999853969,2,1,1,17172,WMM2,752257,false,false,860,image-keyboard-response,7
true,6,0,2,2,false,d,true,true,0.0-2.0-0.28-0.254-3.254,0,1,1,81,false,stim,false,1,498.4699999913573,2,0,0,17172,WMM2,754259,false,true,863,image-keyboard-response,8
true,6,0,2,2,false,d,true,false,0.0-2.0-0.28-0.255-3.255,0,1,1,81,false,stim,false,2,2067.049999954179,2,1,1,17172,WMM2,757831,false,false,866,image-keyboard-response,9
true,6,1,2,1,true,z,false,true,0.0-2.0-0.28-0.256-3.256,0,1,1,90,false,stim,false,1,1521.9550000037998,2,1,2,17172,WMM2,760856,false,false,869,image-keyboard-response,10
true,6,1,2,1,true,z,false,true,0.0-2.0-0.28-0.257-3.257,0,1,1,90,false,stim,false,1,2881.999999983236,2,1,2,17172,WMM2,765252,false,false,872,image-keyboard-response,11
true,6,1,2,2,false,d,false,false,0.0-2.0-0.28-0.258-3.258,0,1,1,90,false,stim,true,1,1157.3849997948855,2,0,0,17172,WMM2,767913,false,false,875,image-keyboard-response,12
false,6,-1,2,2,false,d,true,true,0.0-2.0-0.28-0.259-3.259,0,1,1,,false,stim,false,2,,2,1,1,17172,WMM2,772417,false,true,878,image-keyboard-response,13
true,6,1,2,2,false,d,false,false,0.0-2.0-0.28-0.260-3.260,0,1,1,90,false,stim,true,1,486.10499990172684,2,0,0,17172,WMM2,774407,false,false,881,image-keyboard-response,14
true,6,1,2,1,true,z,false,true,0.0-2.0-0.29-0.261-3.261,0,1,1,90,false,stim,false,1,650.6799999624491,2,1,2,17172,WMM2,776561,false,false,884,image-keyboard-response,15
true,6,0,2,2,false,d,true,true,0.0-2.0-0.29-0.262-3.262,0,1,1,81,false,stim,false,1,756.6299999598414,2,0,0,17172,WMM2,778821,false,true,887,image-keyboard-response,16
true,6,2,2,1,false,z,true,false,0.0-2.0-0.29-0.263-3.263,0,1,1,68,false,stim,false,1,1540.2850001119077,2,1,2,17172,WMM2,781864,false,false,890,image-keyboard-response,17
true,6,1,2,2,false,d,false,false,0.0-2.0-0.29-0.264-3.264,0,1,1,90,false,stim,true,1,1860.6400000862777,2,0,0,17172,WMM2,785228,false,false,893,image-keyboard-response,18
true,6,1,2,1,true,z,false,true,0.0-2.0-0.29-0.265-3.265,0,1,1,90,false,stim,false,1,840.1649999432266,2,1,2,17172,WMM2,787571,false,false,896,image-keyboard-response,19
true,6,0,2,2,false,d,true,false,0.0-2.0-0.29-0.266-3.266,0,1,1,81,false,stim,false,2,689.6100000012666,2,1,1,17172,WMM2,789763,false,false,899,image-keyboard-response,20
true,6,0,2,2,false,d,true,false,0.0-2.0-0.29-0.267-3.267,0,1,1,81,false,stim,false,1,711.2700000870973,2,0,0,17172,WMM2,791981,false,false,902,image-keyboard-response,21
true,6,1,2,2,false,d,true,true,0.0-2.0-0.29-0.268-3.268,0,1,1,90,false,stim,false,2,302.61499993503094,2,1,1,17172,WMM2,793787,false,true,905,image-keyboard-response,22
true,6,2,2,2,true,d,false,true,0.0-2.0-0.29-0.269-3.269,0,1,1,68,false,stim,false,2,599.2900000419468,2,1,1,17172,WMM2,795892,false,false,908,image-keyboard-response,23
true,6,1,2,2,false,d,false,false,0.0-2.0-0.30-0.270-3.270,0,1,1,90,false,stim,true,1,676.3550001196563,2,0,0,17172,WMM2,798073,false,false,911,image-keyboard-response,24
true,6,0,2,2,false,d,true,false,0.0-2.0-0.30-0.271-3.271,0,1,1,81,false,stim,false,2,1101.445000153035,2,1,1,17172,WMM2,800678,false,false,914,image-keyboard-response,25
true,6,2,2,1,false,z,true,false,0.0-2.0-0.30-0.272-3.272,0,1,1,68,false,stim,false,1,1565.1499999221414,2,1,2,17172,WMM2,803748,false,false,917,image-keyboard-response,26
true,6,1,2,2,false,d,false,false,0.0-2.0-0.30-0.273-3.273,0,1,1,90,false,stim,true,1,294.664999935776,2,0,0,17172,WMM2,805547,false,false,920,image-keyboard-response,27
true,6,0,2,2,false,d,true,false,0.0-2.0-0.30-0.274-3.274,0,1,1,81,false,stim,false,1,2366.619999986142,2,0,0,17172,WMM2,809416,false,false,923,image-keyboard-response,28
true,6,1,2,1,true,z,false,false,0.0-2.0-0.30-0.275-3.275,0,1,1,90,false,stim,false,1,1413.7200000695884,2,1,2,17172,WMM2,812334,false,true,926,image-keyboard-response,29
true,6,0,2,2,false,d,true,false,0.0-2.0-0.30-0.276-3.276,0,1,1,81,false,stim,false,2,522.8800000622869,2,1,1,17172,WMM2,814363,false,false,929,image-keyboard-response,30
true,6,2,2,2,true,d,false,true,0.0-2.0-0.30-0.277-3.277,0,1,1,68,false,stim,false,2,394.50499997474253,2,1,1,17172,WMM2,816260,false,false,932,image-keyboard-response,31
true,6,1,2,1,true,z,false,true,0.0-2.0-0.30-0.278-3.278,0,1,1,90,false,stim,false,1,815.9549999982119,2,1,2,17172,WMM2,818580,false,false,935,image-keyboard-response,32
true,6,1,2,1,true,z,false,true,0.0-2.0-0.31-0.279-3.279,0,1,1,90,false,stim,false,1,478.63500006496906,2,1,2,17172,WMM2,820562,false,false,938,image-keyboard-response,33
true,6,0,2,2,false,d,true,false,0.0-2.0-0.31-0.280-3.280,0,1,1,81,false,stim,false,1,764.9350001011044,2,0,0,17172,WMM2,822830,false,false,941,image-keyboard-response,34
true,6,2,2,1,false,z,true,false,0.0-2.0-0.31-0.281-3.281,0,1,1,68,false,stim,false,1,604.2200000956655,2,1,2,17172,WMM2,824938,false,false,944,image-keyboard-response,35
true,6,2,2,2,true,d,false,true,0.0-2.0-0.31-0.282-3.282,0,1,1,68,false,stim,false,2,1571.1350000929087,2,1,1,17172,WMM2,828013,false,false,947,image-keyboard-response,36
true,6,2,2,2,true,d,false,true,0.0-2.0-0.31-0.283-3.283,0,1,1,68,false,stim,false,2,668.3950000442564,2,1,1,17172,WMM2,830185,false,false,950,image-keyboard-response,37
true,6,0,2,2,false,d,true,false,0.0-2.0-0.31-0.284-3.284,0,1,1,81,false,stim,false,1,1727.614999981597,2,0,0,17172,WMM2,833418,false,false,953,image-keyboard-response,38
true,6,2,2,1,false,z,true,false,0.0-2.0-0.31-0.285-3.285,0,1,1,68,false,stim,false,1,1872.8350000455976,2,1,2,17172,WMM2,836796,false,false,956,image-keyboard-response,39
true,6,1,2,2,false,d,false,false,0.0-2.0-0.31-0.286-3.286,0,1,1,90,false,stim,true,1,1617.9049999918789,2,0,0,17172,WMM2,839917,false,false,959,image-keyboard-response,40
true,6,2,2,2,true,d,false,true,0.0-2.0-0.31-0.287-3.287,0,1,1,68,false,stim,false,2,1213.990000076592,2,1,1,17172,WMM2,842636,false,false,962,image-keyboard-response,41
true,6,0,2,1,false,z,true,true,0.0-2.0-0.32-0.288-3.288,0,1,1,81,false,stim,false,1,642.4750001169741,2,1,2,17172,WMM2,844781,false,true,965,image-keyboard-response,42
true,6,2,2,2,true,d,false,true,0.0-2.0-0.32-0.289-3.289,0,1,1,68,false,stim,false,2,512.9300002008677,2,1,1,17172,WMM2,846799,false,false,968,image-keyboard-response,43
true,6,0,2,1,false,z,true,false,0.0-2.0-0.32-0.290-3.290,0,1,1,81,false,stim,false,1,553.5849998705089,2,1,2,17172,WMM2,848856,false,false,971,image-keyboard-response,44
true,6,0,2,2,false,d,true,false,0.0-2.0-0.32-0.291-3.291,0,1,1,81,false,stim,false,1,1348.5749999526888,2,0,0,17172,WMM2,851709,false,false,974,image-keyboard-response,45
true,6,2,2,2,true,d,false,true,0.0-2.0-0.32-0.292-3.292,0,1,1,68,false,stim,false,2,590.8500000368804,2,1,1,17172,WMM2,853804,false,false,977,image-keyboard-response,46
true,6,0,2,2,false,d,true,false,0.0-2.0-0.32-0.293-3.293,0,1,1,81,false,stim,false,1,537.999999942258,2,0,0,17172,WMM2,855845,false,false,980,image-keyboard-response,47
true,6,2,2,2,true,d,false,true,0.0-2.0-0.32-0.294-3.294,0,1,1,68,false,stim,false,2,622.135000070557,2,1,1,17172,WMM2,857972,false,false,983,image-keyboard-response,48
true,6,0,2,2,false,d,true,false,0.0-2.0-0.32-0.295-3.295,0,1,1,81,false,stim,false,1,532.9050000291318,2,0,0,17172,WMM2,860009,false,false,986,image-keyboard-response,49
true,6,0,2,1,false,z,true,false,0.0-2.0-0.32-0.296-3.296,0,1,1,81,false,stim,false,1,1017.3400000203401,2,1,2,17172,WMM2,862530,false,false,989,image-keyboard-response,50
true,6,1,2,2,false,d,false,true,0.0-2.0-0.33-0.297-3.297,0,1,1,90,false,stim,true,1,528.3299998845905,2,0,0,17172,WMM2,864564,false,true,992,image-keyboard-response,51
true,6,2,2,2,true,d,false,true,0.0-2.0-0.33-0.298-3.298,0,1,1,68,false,stim,false,2,510.950000025332,2,0,1,17172,WMM2,866591,false,false,995,image-keyboard-response,52
true,6,2,2,2,true,d,false,true,0.0-2.0-0.33-0.299-3.299,0,1,1,68,false,stim,false,2,586.6549999918789,2,0,1,17172,WMM2,868681,false,false,998,image-keyboard-response,53
true,6,1,2,2,false,d,false,false,0.0-2.0-0.33-0.300-3.300,0,1,1,90,false,stim,true,1,458.2400000654161,2,0,0,17172,WMM2,870644,false,false,1001,image-keyboard-response,54
true,6,2,2,2,true,d,false,true,0.0-2.0-0.33-0.301-3.301,0,1,1,68,false,stim,false,2,1243.2550000958145,2,0,1,17172,WMM2,873392,false,false,1004,image-keyboard-response,55
true,6,1,2,1,true,z,false,true,0.0-2.0-0.33-0.302-3.302,0,1,1,90,false,stim,false,1,1101.645000046119,2,1,2,17172,WMM2,875998,false,false,1007,image-keyboard-response,56
true,6,2,2,2,true,d,false,true,0.0-2.0-0.33-0.303-3.303,0,1,1,68,false,stim,false,1,1090.895000146702,2,0,0,17172,WMM2,878591,false,false,1010,image-keyboard-response,57
true,6,2,2,1,false,z,true,false,0.0-2.0-0.33-0.304-3.304,0,1,1,68,false,stim,false,1,914.3950000870973,2,1,2,17172,WMM2,881009,false,false,1013,image-keyboard-response,58
true,6,1,2,1,true,z,false,true,0.0-2.0-0.33-0.305-3.305,0,1,1,90,false,stim,false,1,630.6750001385808,2,1,2,17172,WMM2,883144,false,false,1016,image-keyboard-response,59
true,6,1,2,2,false,d,false,false,0.0-2.0-0.34-0.306-3.306,0,1,1,90,false,stim,true,1,801.9000000786036,2,0,0,17172,WMM2,885449,false,false,1019,image-keyboard-response,60
true,7,2,1,0,false,q,false,false,0.0-2.0-0.34-0.307-3.307,0,0,1,68,true,stim,true,2,315.0700000114739,2,0,1,17172,WMM2,887267,false,false,1022,image-keyboard-response,1
true,7,0,1,1,false,z,true,true,0.0-2.0-0.34-0.308-3.308,0,0,1,81,false,stim,false,1,430.5600000079721,2,1,2,17172,WMM2,889202,false,true,1025,image-keyboard-response,2
true,7,1,1,0,false,q,true,false,0.0-2.0-0.34-0.309-3.309,0,0,1,90,false,stim,false,2,804.0549999568611,2,0,1,17172,WMM2,891510,false,false,1028,image-keyboard-response,3
true,7,0,1,0,true,q,false,true,0.0-2.0-0.34-0.310-3.310,0,0,1,81,false,stim,false,2,671.2350000161678,2,0,1,17172,WMM2,893685,false,false,1031,image-keyboard-response,4
true,7,2,1,0,false,q,false,false,0.0-2.0-0.34-0.311-3.311,0,0,1,68,false,stim,true,2,811.1800001934171,2,0,0,17172,WMM2,895999,false,false,1034,image-keyboard-response,5
true,7,1,1,1,true,z,false,true,0.0-2.0-0.34-0.312-3.312,0,0,1,90,false,stim,false,1,531.4149998594075,2,1,2,17172,WMM2,898034,false,false,1037,image-keyboard-response,6
true,7,1,1,1,true,z,false,true,0.0-2.0-0.34-0.313-3.313,0,0,1,90,false,stim,false,1,677.6900000404567,2,1,2,17172,WMM2,900215,false,false,1040,image-keyboard-response,7
true,7,0,1,0,true,q,false,true,0.0-2.0-0.34-0.314-3.314,0,0,1,81,false,stim,false,2,814.5099999383092,2,0,0,17172,WMM2,902533,false,false,1043,image-keyboard-response,8
true,7,1,1,1,true,z,false,false,0.0-2.0-0.35-0.315-3.315,0,0,1,90,false,stim,false,1,1710.630000103265,2,1,2,17172,WMM2,905747,false,true,1046,image-keyboard-response,9
true,7,1,1,0,false,q,true,false,0.0-2.0-0.35-0.316-3.316,0,0,1,90,false,stim,false,2,391.8399999383837,2,0,0,17172,WMM2,907643,false,false,1049,image-keyboard-response,10
true,7,0,1,0,true,q,false,true,0.0-2.0-0.35-0.317-3.317,0,0,1,81,false,stim,false,2,379.0049999952316,2,0,0,17172,WMM2,909525,false,false,1052,image-keyboard-response,11
true,7,1,1,0,false,q,true,false,0.0-2.0-0.35-0.318-3.318,0,0,1,90,false,stim,false,2,406.12500021234155,2,0,1,17172,WMM2,911435,false,false,1055,image-keyboard-response,12
true,7,2,1,1,false,z,true,false,0.0-2.0-0.35-0.319-3.319,0,0,1,68,false,stim,false,1,893.3500000275671,2,1,2,17172,WMM2,913832,false,false,1058,image-keyboard-response,13
true,7,0,1,0,true,q,false,true,0.0-2.0-0.35-0.320-3.320,0,0,1,81,false,stim,false,2,713.1999998819083,2,0,1,17172,WMM2,916048,false,false,1061,image-keyboard-response,14
true,7,1,1,1,true,z,false,true,0.0-2.0-0.35-0.321-3.321,0,0,1,90,false,stim,false,1,619.1499999258667,2,1,2,17172,WMM2,918171,false,false,1064,image-keyboard-response,15
true,7,0,1,0,true,q,false,false,0.0-2.0-0.35-0.322-3.322,0,0,1,81,false,stim,false,2,619.1700000781566,2,0,1,17172,WMM2,920294,false,true,1067,image-keyboard-response,16
true,7,1,1,0,false,q,true,false,0.0-2.0-0.35-0.323-3.323,0,0,1,90,false,stim,false,2,935.9150000382215,2,0,0,17172,WMM2,922733,false,false,1070,image-keyboard-response,17
true,7,0,1,1,false,z,true,false,0.0-2.0-0.36-0.324-3.324,0,0,1,81,false,stim,false,1,528.3750002272427,2,1,2,17172,WMM2,924765,false,false,1073,image-keyboard-response,18
true,7,2,1,0,false,q,false,false,0.0-2.0-0.36-0.325-3.325,0,0,1,68,false,stim,true,2,494.4649999961257,2,0,1,17172,WMM2,926763,false,false,1076,image-keyboard-response,19
true,7,2,1,1,false,z,true,false,0.0-2.0-0.36-0.326-3.326,0,0,1,68,false,stim,false,1,490.5999999027699,2,1,2,17172,WMM2,928757,false,false,1079,image-keyboard-response,20
true,7,0,1,0,true,q,false,true,0.0-2.0-0.36-0.327-3.327,0,0,1,81,false,stim,false,2,717.7399999927729,2,0,1,17172,WMM2,930978,false,false,1082,image-keyboard-response,21
true,7,1,1,1,true,z,false,true,0.0-2.0-0.36-0.328-3.328,0,0,1,90,false,stim,false,1,834.07499990426,2,1,2,17172,WMM2,933317,false,false,1085,image-keyboard-response,22
true,7,2,1,0,false,q,false,false,0.0-2.0-0.36-0.329-3.329,0,0,1,68,false,stim,true,2,2269.22499993816,2,0,1,17172,WMM2,937090,false,false,1088,image-keyboard-response,23
true,7,1,1,0,false,q,true,false,0.0-2.0-0.36-0.330-3.330,0,0,1,90,false,stim,false,2,922.5500000175089,2,0,0,17172,WMM2,939516,false,false,1091,image-keyboard-response,24
true,7,0,1,0,true,q,false,true,0.0-2.0-0.36-0.331-3.331,0,0,1,81,false,stim,false,2,318.57499992474914,2,0,0,17172,WMM2,941341,false,false,1094,image-keyboard-response,25
true,7,0,1,0,true,q,false,true,0.0-2.0-0.36-0.332-3.332,0,0,1,81,false,stim,false,2,517.5799999851733,2,0,0,17172,WMM2,943368,false,false,1097,image-keyboard-response,26
true,7,1,1,1,true,z,false,true,0.0-2.0-0.37-0.333-3.333,0,0,1,90,false,stim,false,1,749.7100001201034,2,1,2,17172,WMM2,945622,false,false,1100,image-keyboard-response,27
true,7,0,1,0,true,q,false,true,0.0-2.0-0.37-0.334-3.334,0,0,1,81,false,stim,false,2,622.609999962151,2,0,0,17172,WMM2,947752,false,false,1103,image-keyboard-response,28
true,7,0,1,0,true,q,false,true,0.0-2.0-0.37-0.335-3.335,0,0,1,81,false,stim,false,2,1666.09499999322,2,0,0,17172,WMM2,950923,false,false,1106,image-keyboard-response,29
true,7,1,1,1,true,z,false,false,0.0-2.0-0.37-0.336-3.336,0,0,1,90,false,stim,false,1,1485.1499998476356,2,1,2,17172,WMM2,953913,false,true,1109,image-keyboard-response,30
true,7,0,1,0,true,q,false,true,0.0-2.0-0.37-0.337-3.337,0,0,1,81,false,stim,false,2,906.1799999326468,2,0,1,17172,WMM2,956322,false,false,1112,image-keyboard-response,31
true,7,1,1,0,false,q,true,false,0.0-2.0-0.37-0.338-3.338,0,0,1,90,false,stim,false,2,732.6400000602007,2,0,1,17172,WMM2,958558,false,false,1115,image-keyboard-response,32
true,7,0,1,0,true,q,false,true,0.0-2.0-0.37-0.339-3.339,0,0,1,81,false,stim,false,2,636.3249998539686,2,0,0,17172,WMM2,960698,false,false,1118,image-keyboard-response,33
true,7,0,1,1,false,z,true,false,0.0-2.0-0.37-0.340-3.340,0,0,1,81,false,stim,false,1,929.0849999524653,2,1,2,17172,WMM2,963132,false,false,1121,image-keyboard-response,34
true,7,1,1,0,false,q,true,false,0.0-2.0-0.37-0.341-3.341,0,0,1,90,false,stim,false,2,1714.739999966696,2,0,1,17172,WMM2,966351,false,false,1124,image-keyboard-response,35
true,7,0,1,0,true,q,false,true,0.0-2.0-0.38-0.342-3.342,0,0,1,81,false,stim,false,2,1035.935000050813,2,0,0,17172,WMM2,968891,false,false,1127,image-keyboard-response,36
true,7,0,1,0,true,q,false,false,0.0-2.0-0.38-0.343-3.343,0,0,1,81,false,stim,false,2,415.7199999317527,2,0,0,17172,WMM2,970812,false,true,1130,image-keyboard-response,37
true,7,0,1,0,true,q,false,true,0.0-2.0-0.38-0.344-3.344,0,0,1,81,false,stim,false,2,1872.1199999563396,2,0,1,17172,WMM2,974202,false,false,1133,image-keyboard-response,38
true,7,2,1,0,false,q,false,true,0.0-2.0-0.38-0.345-3.345,0,0,1,68,false,stim,true,2,648.7549999728799,2,0,0,17172,WMM2,976356,false,true,1136,image-keyboard-response,39
true,7,0,1,0,true,q,false,true,0.0-2.0-0.38-0.346-3.346,0,0,1,81,false,stim,false,2,609.4400000292808,2,0,1,17172,WMM2,978471,false,false,1139,image-keyboard-response,40
true,7,0,1,0,true,q,false,true,0.0-2.0-0.38-0.347-3.347,0,0,1,81,false,stim,false,2,839.0999999828637,2,0,1,17172,WMM2,980815,false,false,1142,image-keyboard-response,41
true,7,2,1,1,false,z,true,false,0.0-2.0-0.38-0.348-3.348,0,0,1,68,false,stim,false,1,1250.7999998051673,2,1,2,17172,WMM2,983570,false,false,1145,image-keyboard-response,42
true,7,2,1,1,false,z,true,false,0.0-2.0-0.38-0.349-3.349,0,0,1,68,false,stim,false,1,1072.2799999639392,2,1,2,17172,WMM2,986146,false,false,1148,image-keyboard-response,43
true,7,1,1,1,true,z,false,true,0.0-2.0-0.38-0.350-3.350,0,0,1,90,false,stim,false,1,1003.3549999352545,2,1,2,17172,WMM2,988654,false,false,1151,image-keyboard-response,44
true,7,0,1,1,false,z,true,false,0.0-2.0-0.39-0.351-3.351,0,0,1,81,false,stim,false,1,1359.2699998989701,2,1,2,17172,WMM2,991520,false,false,1154,image-keyboard-response,45
true,7,0,1,0,true,q,false,true,0.0-2.0-0.39-0.352-3.352,0,0,1,81,false,stim,false,2,1093.0800000205636,2,0,0,17172,WMM2,994117,false,false,1157,image-keyboard-response,46
true,7,1,1,0,false,q,true,true,0.0-2.0-0.39-0.353-3.353,0,0,1,90,false,stim,false,2,804.3599999509752,2,0,1,17172,WMM2,996431,false,true,1160,image-keyboard-response,47
true,7,0,1,1,false,z,true,false,0.0-2.0-0.39-0.354-3.354,0,0,1,81,false,stim,false,1,2696.2200000416487,2,1,2,17172,WMM2,1000633,false,false,1163,image-keyboard-response,48
true,7,1,1,0,false,q,true,false,0.0-2.0-0.39-0.355-3.355,0,0,1,90,false,stim,false,2,634.4899998512119,2,0,0,17172,WMM2,1002772,false,false,1166,image-keyboard-response,49
true,7,1,1,0,false,q,true,false,0.0-2.0-0.39-0.356-3.356,0,0,1,90,false,stim,false,2,1401.1499998159707,2,0,1,17172,WMM2,1005698,false,false,1169,image-keyboard-response,50
true,7,0,1,0,true,q,false,true,0.0-2.0-0.39-0.357-3.357,0,0,1,81,false,stim,false,2,1316.9699998106807,2,1,1,17172,WMM2,1008519,false,false,1172,image-keyboard-response,51
true,7,2,1,0,false,q,false,false,0.0-2.0-0.39-0.358-3.358,0,0,1,68,false,stim,true,2,843.9849999267608,2,1,0,17172,WMM2,1010866,false,false,1175,image-keyboard-response,52
true,7,0,1,1,false,z,true,false,0.0-2.0-0.39-0.359-3.359,0,0,1,81,false,stim,false,1,439.93999995291233,2,0,2,17172,WMM2,1012810,false,false,1178,image-keyboard-response,53
false,7,-1,1,0,false,q,true,true,0.0-2.0-0.40-0.360-3.360,0,0,1,,false,stim,false,2,,2,1,0,17172,WMM2,1017315,false,true,1181,image-keyboard-response,54
true,7,1,1,1,true,z,false,true,0.0-2.0-0.40-0.361-3.361,0,0,1,90,false,stim,false,1,673.515000147745,2,0,2,17172,WMM2,1019493,false,false,1184,image-keyboard-response,55
true,7,0,1,0,true,q,false,false,0.0-2.0-0.40-0.362-3.362,0,0,1,81,false,stim,false,2,999.1900001186877,2,1,0,17172,WMM2,1021995,false,true,1187,image-keyboard-response,56
true,7,1,1,1,true,z,false,true,0.0-2.0-0.40-0.363-3.363,0,0,1,90,false,stim,false,1,499.1800000425428,2,0,2,17172,WMM2,1023999,false,false,1190,image-keyboard-response,57
true,7,2,1,0,false,q,false,false,0.0-2.0-0.40-0.364-3.364,0,0,1,68,false,stim,true,2,1174.3699999060482,2,1,1,17172,WMM2,1026677,false,false,1193,image-keyboard-response,58
true,7,0,1,0,true,q,false,true,0.0-2.0-0.40-0.365-3.365,0,0,1,81,false,stim,false,2,720.329999923706,2,1,1,17172,WMM2,1028901,false,false,1196,image-keyboard-response,59
true,7,1,1,1,true,z,false,false,0.0-2.0-0.40-0.366-3.366,0,0,1,90,false,stim,false,1,879.7949999570847,2,0,2,17172,WMM2,1031294,false,true,1199,image-keyboard-response,60
true,8,1,4,0,false,q,true,false,0.0-2.0-0.40-0.367-3.367,1,1,0,90,true,stim,false,0,584.0549999848008,2,1,0,17172,WMM2,1033387,false,false,1202,image-keyboard-response,1
true,8,1,4,0,false,q,true,false,0.0-2.0-0.40-0.368-3.368,1,1,0,90,false,stim,false,0,513.9750000089407,2,1,1,17172,WMM2,1035405,false,false,1205,image-keyboard-response,2
true,8,0,4,0,true,q,false,true,0.0-2.0-0.41-0.369-3.369,1,1,0,81,false,stim,false,0,418.89000008814037,2,1,0,17172,WMM2,1037328,false,false,1208,image-keyboard-response,3
true,8,2,4,0,false,q,true,true,0.0-2.0-0.41-0.370-3.370,1,1,0,68,false,stim,false,0,612.470000050962,2,1,1,17172,WMM2,1039445,false,true,1211,image-keyboard-response,4
true,8,0,4,1,false,z,true,true,0.0-2.0-0.41-0.371-3.371,1,1,0,81,false,stim,false,1,1008.0699999816716,2,0,2,17172,WMM2,1041957,false,true,1214,image-keyboard-response,5
true,8,0,4,0,true,q,false,true,0.0-2.0-0.41-0.372-3.372,1,1,0,81,false,stim,false,0,701.2149998918176,2,1,1,17172,WMM2,1044161,false,false,1217,image-keyboard-response,6
true,8,2,4,1,false,z,true,true,0.0-2.0-0.41-0.373-3.373,1,1,0,68,false,stim,false,1,835.0649999920279,2,0,2,17172,WMM2,1046501,false,true,1220,image-keyboard-response,7
true,8,0,4,0,true,q,false,true,0.0-2.0-0.41-0.374-3.374,1,1,0,81,false,stim,false,0,774.2449999786913,2,1,0,17172,WMM2,1048778,false,false,1223,image-keyboard-response,8
true,8,0,4,0,true,q,false,true,0.0-2.0-0.41-0.375-3.375,1,1,0,81,false,stim,false,0,540.6849998980761,2,1,0,17172,WMM2,1050822,false,false,1226,image-keyboard-response,9
true,8,2,4,0,false,q,true,false,0.0-2.0-0.41-0.376-3.376,1,1,0,68,false,stim,false,0,431.0850000474602,2,1,1,17172,WMM2,1052758,false,false,1229,image-keyboard-response,10
true,8,0,4,1,false,z,true,false,0.0-2.0-0.41-0.377-3.377,1,1,0,81,false,stim,false,1,661.8000001180917,2,0,2,17172,WMM2,1054924,false,false,1232,image-keyboard-response,11
true,8,2,4,1,false,z,true,false,0.0-2.0-0.42-0.378-3.378,1,1,0,68,false,stim,false,1,603.0699999537319,2,0,2,17172,WMM2,1057031,false,false,1235,image-keyboard-response,12
true,8,2,4,0,false,q,true,false,0.0-2.0-0.42-0.379-3.379,1,1,0,68,false,stim,false,0,1262.5899999402463,2,1,1,17172,WMM2,1059796,false,false,1238,image-keyboard-response,13
true,8,0,4,1,false,z,true,false,0.0-2.0-0.42-0.380-3.380,1,1,0,81,false,stim,false,1,782.670000102371,2,0,2,17172,WMM2,1062083,false,false,1241,image-keyboard-response,14
true,8,1,4,1,true,z,false,true,0.0-2.0-0.42-0.381-3.381,1,1,0,90,false,stim,false,1,601.6950001940131,2,0,2,17172,WMM2,1064188,false,false,1244,image-keyboard-response,15
true,8,0,4,0,true,q,false,true,0.0-2.0-0.42-0.382-3.382,1,1,0,81,false,stim,false,0,607.3199999518692,2,1,0,17172,WMM2,1066300,false,false,1247,image-keyboard-response,16
true,8,0,4,0,true,q,false,true,0.0-2.0-0.42-0.383-3.383,1,1,0,81,false,stim,false,0,1200.175000121817,2,1,0,17172,WMM2,1069004,false,false,1250,image-keyboard-response,17
true,8,0,4,0,true,q,false,true,0.0-2.0-0.42-0.384-3.384,1,1,0,81,false,stim,false,0,640.2500001713634,2,1,0,17172,WMM2,1071148,false,false,1253,image-keyboard-response,18
true,8,1,4,0,false,q,true,false,0.0-2.0-0.42-0.385-3.385,1,1,0,90,false,stim,false,0,1286.2100000493228,2,1,1,17172,WMM2,1073937,false,false,1256,image-keyboard-response,19
true,8,0,4,0,true,q,false,false,0.0-2.0-0.42-0.386-3.386,1,1,0,81,false,stim,false,0,662.2149997856468,2,1,1,17172,WMM2,1076104,false,true,1259,image-keyboard-response,20
true,8,0,4,0,true,q,false,false,0.0-2.0-0.43-0.387-3.387,1,1,0,81,false,stim,false,0,897.4100002087653,2,1,1,17172,WMM2,1078506,false,true,1262,image-keyboard-response,21
true,8,1,4,0,false,q,true,false,0.0-2.0-0.43-0.388-3.388,1,1,0,90,false,stim,false,0,382.10500008426607,2,1,1,17172,WMM2,1080393,false,false,1265,image-keyboard-response,22
false,8,-1,4,1,false,z,true,false,0.0-2.0-0.43-0.389-3.389,1,1,0,,false,stim,false,1,,2,0,2,17172,WMM2,1084899,false,false,1268,image-keyboard-response,23
true,8,0,4,0,true,q,false,true,0.0-2.0-0.43-0.390-3.390,1,1,0,81,false,stim,false,0,2095.180000178516,2,1,1,17172,WMM2,1088498,false,false,1271,image-keyboard-response,24
true,8,0,4,1,false,z,true,false,0.0-2.0-0.43-0.391-3.391,1,1,0,81,false,stim,false,1,735.6799999251962,2,0,2,17172,WMM2,1090739,false,false,1274,image-keyboard-response,25
true,8,1,4,1,true,z,false,true,0.0-2.0-0.43-0.392-3.392,1,1,0,90,false,stim,false,1,658.4799999836832,2,0,2,17172,WMM2,1092901,false,false,1277,image-keyboard-response,26
true,8,0,4,0,true,q,false,false,0.0-2.0-0.43-0.393-3.393,1,1,0,81,false,stim,false,0,618.6349999625236,2,1,0,17172,WMM2,1095025,false,true,1280,image-keyboard-response,27
true,8,1,4,0,false,q,true,false,0.0-2.0-0.43-0.394-3.394,1,1,0,90,false,stim,false,0,464.76500015705824,2,1,0,17172,WMM2,1096994,false,false,1283,image-keyboard-response,28
true,8,2,4,0,false,q,true,false,0.0-2.0-0.43-0.395-3.395,1,1,0,68,false,stim,false,0,358.49000001326203,2,1,0,17172,WMM2,1098857,false,false,1286,image-keyboard-response,29
true,8,1,4,0,false,q,true,false,0.0-2.0-0.44-0.396-3.396,1,1,0,90,false,stim,false,0,664.6449998952448,2,1,1,17172,WMM2,1101025,false,false,1289,image-keyboard-response,30
true,8,0,4,0,true,q,false,true,0.0-2.0-0.44-0.397-3.397,1,1,0,81,false,stim,false,0,802.4850001093,2,1,0,17172,WMM2,1103332,false,false,1292,image-keyboard-response,31
true,8,2,4,0,false,q,true,false,0.0-2.0-0.44-0.398-3.398,1,1,0,68,false,stim,false,0,2232.5050001963973,2,1,0,17172,WMM2,1107069,false,false,1295,image-keyboard-response,32
true,8,0,4,1,false,z,true,false,0.0-2.0-0.44-0.399-3.399,1,1,0,81,false,stim,false,1,1069.1299999598414,2,0,2,17172,WMM2,1109642,false,false,1298,image-keyboard-response,33
true,8,1,4,0,false,q,true,false,0.0-2.0-0.44-0.400-3.400,1,1,0,90,false,stim,false,0,398.13999994657934,2,1,0,17172,WMM2,1111550,false,false,1301,image-keyboard-response,34
true,8,2,4,1,false,z,true,false,0.0-2.0-0.44-0.401-3.401,1,1,0,68,false,stim,false,1,1892.4000000115484,2,0,2,17172,WMM2,1114947,false,false,1304,image-keyboard-response,35
true,8,0,4,0,true,q,false,true,0.0-2.0-0.44-0.402-3.402,1,1,0,81,false,stim,false,0,707.0999999996275,2,1,1,17172,WMM2,1117176,false,false,1307,image-keyboard-response,36
true,8,0,4,0,true,q,false,true,0.0-2.0-0.44-0.403-3.403,1,1,0,81,false,stim,false,0,350.0649998895824,2,1,1,17172,WMM2,1119030,false,false,1310,image-keyboard-response,37
true,8,1,4,1,true,z,false,true,0.0-2.0-0.44-0.404-3.404,1,1,0,90,false,stim,false,1,760.4050000663847,2,0,2,17172,WMM2,1121295,false,false,1313,image-keyboard-response,38
true,8,2,4,0,false,q,true,false,0.0-2.0-0.45-0.405-3.405,1,1,0,68,false,stim,false,0,1792.1700000297278,2,1,0,17172,WMM2,1124592,false,false,1316,image-keyboard-response,39
true,8,0,4,0,true,q,false,true,0.0-2.0-0.45-0.406-3.406,1,1,0,81,false,stim,false,0,1425.4749999381602,2,1,0,17172,WMM2,1127521,false,false,1319,image-keyboard-response,40
true,8,0,4,0,true,q,false,true,0.0-2.0-0.45-0.407-3.407,1,1,0,81,false,stim,false,0,763.3150001056492,2,1,1,17172,WMM2,1129789,false,false,1322,image-keyboard-response,41
true,8,1,4,1,true,z,false,true,0.0-2.0-0.45-0.408-3.408,1,1,0,90,false,stim,false,1,791.4450000971556,2,0,2,17172,WMM2,1132093,false,false,1325,image-keyboard-response,42
true,8,1,4,1,true,z,false,true,0.0-2.0-0.45-0.409-3.409,1,1,0,90,false,stim,false,1,933.3000001497567,2,0,2,17172,WMM2,1134531,false,false,1328,image-keyboard-response,43
true,8,0,4,0,true,q,false,true,0.0-2.0-0.45-0.410-3.410,1,1,0,81,false,stim,false,0,2117.975000059232,2,1,1,17172,WMM2,1138152,false,false,1331,image-keyboard-response,44
true,8,1,4,0,false,q,true,false,0.0-2.0-0.45-0.411-3.411,1,1,0,90,false,stim,false,0,723.4149998985231,2,1,1,17172,WMM2,1140381,false,false,1334,image-keyboard-response,45
true,8,2,4,1,false,z,true,false,0.0-2.0-0.45-0.412-3.412,1,1,0,68,false,stim,false,1,608.089999994263,2,0,2,17172,WMM2,1142493,false,false,1337,image-keyboard-response,46
true,8,0,4,0,true,q,false,true,0.0-2.0-0.45-0.413-3.413,1,1,0,81,false,stim,false,0,627.6099998503923,2,1,0,17172,WMM2,1144626,false,false,1340,image-keyboard-response,47
true,8,1,4,1,true,z,false,true,0.0-2.0-0.46-0.414-3.414,1,1,0,90,false,stim,false,1,595.4299999866635,2,0,2,17172,WMM2,1146725,false,false,1343,image-keyboard-response,48
true,8,1,4,1,true,z,false,true,0.0-2.0-0.46-0.415-3.415,1,1,0,90,false,stim,false,1,871.3750001043081,2,0,2,17172,WMM2,1149102,false,false,1346,image-keyboard-response,49
true,8,0,4,0,true,q,false,true,0.0-2.0-0.46-0.416-3.416,1,1,0,81,false,stim,false,0,557.1250000502914,2,1,1,17172,WMM2,1151163,false,false,1349,image-keyboard-response,50
true,8,0,4,0,true,q,false,true,0.0-2.0-0.46-0.417-3.417,1,1,0,81,false,stim,false,0,635.6549998745322,2,1,0,17172,WMM2,1153302,false,false,1352,image-keyboard-response,51
true,8,0,4,0,true,q,false,true,0.0-2.0-0.46-0.418-3.418,1,1,0,81,false,stim,false,0,1736.0199999529868,2,1,0,17172,WMM2,1156542,false,false,1355,image-keyboard-response,52
true,8,0,4,0,true,q,false,true,0.0-2.0-0.46-0.419-3.419,1,1,0,81,false,stim,false,0,511.8050000164658,2,1,0,17172,WMM2,1158558,false,false,1358,image-keyboard-response,53
true,8,0,4,1,false,z,true,false,0.0-2.0-0.46-0.420-3.420,1,1,0,81,false,stim,false,1,2092.024999903515,2,1,2,17172,WMM2,1162152,false,false,1361,image-keyboard-response,54
true,8,0,4,0,true,q,false,true,0.0-2.0-0.46-0.421-3.421,1,1,0,81,false,stim,false,0,822.9500001762062,2,0,1,17172,WMM2,1164479,false,false,1364,image-keyboard-response,55
true,8,0,4,0,true,q,false,true,0.0-2.0-0.46-0.422-3.422,1,1,0,81,false,stim,false,0,521.3450000155717,2,0,1,17172,WMM2,1166503,false,false,1367,image-keyboard-response,56
true,8,0,4,0,true,q,false,true,0.0-2.0-0.47-0.423-3.423,1,1,0,81,false,stim,false,0,428.0450001824647,2,1,0,17172,WMM2,1168436,false,false,1370,image-keyboard-response,57
true,8,1,4,0,false,q,true,false,0.0-2.0-0.47-0.424-3.424,1,1,0,90,false,stim,false,0,1749.7950000688434,2,1,0,17172,WMM2,1171689,false,false,1373,image-keyboard-response,58
true,8,0,4,0,true,q,false,true,0.0-2.0-0.47-0.425-3.425,1,1,0,81,false,stim,false,0,1375.304999994114,2,0,1,17172,WMM2,1174567,false,false,1376,image-keyboard-response,59
true,8,2,4,1,false,z,true,false,0.0-2.0-0.47-0.426-3.426,1,1,0,68,false,stim,false,1,2222.5499998312443,2,1,2,17172,WMM2,1178294,false,false,1379,image-keyboard-response,60
true,9,0,2,2,false,d,false,false,0.0-2.0-0.47-0.427-3.427,1,0,1,81,true,stim,true,0,841.0249999724329,2,0,1,17172,WMM2,1180640,false,false,1382,image-keyboard-response,1
true,9,1,2,1,true,z,false,true,0.0-2.0-0.47-0.428-3.428,1,0,1,90,false,stim,false,1,449.724999954924,2,1,2,17172,WMM2,1182594,false,false,1385,image-keyboard-response,2
true,9,0,2,0,true,q,false,true,0.0-2.0-0.47-0.429-3.429,1,0,1,81,false,stim,false,0,476.9399999640882,2,1,0,17172,WMM2,1184577,false,false,1388,image-keyboard-response,3
true,9,0,2,2,false,d,false,false,0.0-2.0-0.47-0.430-3.430,1,0,1,81,false,stim,true,0,760.950000025332,2,0,1,17172,WMM2,1186847,false,false,1391,image-keyboard-response,4
true,9,1,2,1,true,z,false,true,0.0-2.0-0.47-0.431-3.431,1,0,1,90,false,stim,false,1,396.98499999940395,2,1,2,17172,WMM2,1188748,false,false,1394,image-keyboard-response,5
true,9,0,2,2,false,d,false,false,0.0-2.0-0.48-0.432-3.432,1,0,1,81,false,stim,true,0,548.285000026226,2,0,1,17172,WMM2,1190800,false,false,1397,image-keyboard-response,6
true,9,1,2,0,false,q,true,false,0.0-2.0-0.48-0.433-3.433,1,0,1,90,false,stim,false,0,909.3599999323487,2,1,0,17172,WMM2,1193212,false,false,1400,image-keyboard-response,7
true,9,1,2,1,true,z,false,true,0.0-2.0-0.48-0.434-3.434,1,0,1,90,false,stim,false,1,684.7999999299645,2,1,2,17172,WMM2,1195406,false,false,1403,image-keyboard-response,8
true,9,2,2,2,true,d,false,true,0.0-2.0-0.48-0.435-3.435,1,0,1,68,false,stim,false,0,404.3499999679625,2,0,1,17172,WMM2,1197315,false,false,1406,image-keyboard-response,9
true,9,0,2,0,true,q,false,true,0.0-2.0-0.48-0.436-3.436,1,0,1,81,false,stim,false,0,602.9000000562519,2,1,0,17172,WMM2,1199422,false,false,1409,image-keyboard-response,10
true,9,2,2,1,false,z,true,true,0.0-2.0-0.48-0.437-3.437,1,0,1,68,false,stim,false,1,590.5799998436123,2,1,2,17172,WMM2,1201518,false,true,1412,image-keyboard-response,11
true,9,2,2,1,false,z,true,false,0.0-2.0-0.48-0.438-3.438,1,0,1,68,false,stim,false,1,961.3300000783056,2,1,2,17172,WMM2,1203983,false,false,1415,image-keyboard-response,12
true,9,0,2,2,false,d,false,false,0.0-2.0-0.48-0.439-3.439,1,0,1,81,false,stim,true,0,757.8799999319017,2,0,1,17172,WMM2,1206247,false,false,1418,image-keyboard-response,13
true,9,1,2,0,false,q,true,false,0.0-2.0-0.48-0.440-3.440,1,0,1,90,false,stim,false,0,537.5300000887364,2,1,0,17172,WMM2,1208288,false,false,1421,image-keyboard-response,14
true,9,2,2,1,false,z,true,false,0.0-2.0-0.49-0.441-3.441,1,0,1,68,false,stim,false,1,306.1250001192093,2,1,2,17172,WMM2,1210098,false,false,1424,image-keyboard-response,15
true,9,2,2,2,true,d,false,true,0.0-2.0-0.49-0.442-3.442,1,0,1,68,false,stim,false,0,721.3850000407547,2,0,1,17172,WMM2,1212324,false,false,1427,image-keyboard-response,16
true,9,1,2,1,true,z,false,false,0.0-2.0-0.49-0.443-3.443,1,0,1,90,false,stim,false,1,610.9750000759959,2,1,2,17172,WMM2,1214438,false,true,1430,image-keyboard-response,17
true,9,1,2,0,false,q,true,false,0.0-2.0-0.49-0.444-3.444,1,0,1,90,false,stim,false,0,869.8499999009073,2,1,0,17172,WMM2,1216812,false,false,1433,image-keyboard-response,18
true,9,2,2,2,true,d,false,true,0.0-2.0-0.49-0.445-3.445,1,0,1,68,false,stim,false,0,391.59999997355044,2,0,1,17172,WMM2,1218708,false,false,1436,image-keyboard-response,19
true,9,0,2,2,false,d,false,false,0.0-2.0-0.49-0.446-3.446,1,0,1,81,false,stim,true,0,1340.8999999519438,2,0,1,17172,WMM2,1221553,false,false,1439,image-keyboard-response,20
true,9,0,2,0,true,q,false,false,0.0-2.0-0.49-0.447-3.447,1,0,1,81,false,stim,false,0,817.5150000024587,2,1,0,17172,WMM2,1223875,false,true,1442,image-keyboard-response,21
true,9,2,2,1,false,z,true,false,0.0-2.0-0.49-0.448-3.448,1,0,1,68,false,stim,false,1,425.61499984003603,2,1,2,17172,WMM2,1225807,false,false,1445,image-keyboard-response,22
true,9,2,2,0,false,q,true,false,0.0-2.0-0.49-0.449-3.449,1,0,1,68,false,stim,false,0,321.4400000870228,2,1,0,17172,WMM2,1227633,false,false,1448,image-keyboard-response,23
true,9,0,2,0,true,q,false,true,0.0-2.0-0.50-0.450-3.450,1,0,1,81,false,stim,false,0,1072.7999999653548,2,1,0,17172,WMM2,1230211,false,false,1451,image-keyboard-response,24
true,9,1,2,1,true,z,false,true,0.0-2.0-0.50-0.451-3.451,1,0,1,90,false,stim,false,1,594.5099999662489,2,1,2,17172,WMM2,1232311,false,false,1454,image-keyboard-response,25
true,9,0,2,0,true,q,false,false,0.0-2.0-0.50-0.452-3.452,1,0,1,81,false,stim,false,0,627.1100000012666,2,1,0,17172,WMM2,1234441,false,true,1457,image-keyboard-response,26
true,9,0,2,0,true,q,false,true,0.0-2.0-0.50-0.453-3.453,1,0,1,81,false,stim,false,0,1283.1200000364333,2,1,0,17172,WMM2,1237228,false,false,1460,image-keyboard-response,27
true,9,1,2,2,false,d,true,false,0.0-2.0-0.50-0.454-3.454,1,0,1,90,false,stim,false,0,665.7150001265109,2,0,1,17172,WMM2,1239399,false,false,1463,image-keyboard-response,28
true,9,2,2,1,false,z,true,false,0.0-2.0-0.50-0.455-3.455,1,0,1,68,false,stim,false,1,916.5399998892099,2,1,2,17172,WMM2,1241839,false,false,1466,image-keyboard-response,29
true,9,2,2,2,true,d,false,true,0.0-2.0-0.50-0.456-3.456,1,0,1,68,false,stim,false,0,843.4200000483543,2,0,1,17172,WMM2,1244199,false,false,1469,image-keyboard-response,30
true,9,2,2,2,true,d,false,true,0.0-2.0-0.50-0.457-3.457,1,0,1,68,false,stim,false,0,1101.2850000988692,2,0,1,17172,WMM2,1246805,false,false,1472,image-keyboard-response,31
true,9,1,2,1,true,z,false,true,0.0-2.0-0.50-0.458-3.458,1,0,1,90,false,stim,false,1,758.8799998629838,2,1,2,17172,WMM2,1249069,false,false,1475,image-keyboard-response,32
true,9,0,2,2,false,d,false,false,0.0-2.0-0.51-0.459-3.459,1,0,1,81,false,stim,true,0,755.0999999511987,2,0,1,17172,WMM2,1251328,false,false,1478,image-keyboard-response,33
true,9,1,2,2,false,d,true,false,0.0-2.0-0.51-0.460-3.460,1,0,1,90,false,stim,false,0,323.3799999579787,2,0,1,17172,WMM2,1253157,false,false,1481,image-keyboard-response,34
true,9,2,2,1,false,z,true,false,0.0-2.0-0.51-0.461-3.461,1,0,1,68,false,stim,false,1,395.77999990433455,2,1,2,17172,WMM2,1255058,false,false,1484,image-keyboard-response,35
false,9,-1,2,1,false,z,true,false,0.0-2.0-0.51-0.462-3.462,1,0,1,,false,stim,false,1,,2,1,2,17172,WMM2,1259564,false,false,1487,image-keyboard-response,36
true,9,1,2,0,false,q,true,false,0.0-2.0-0.51-0.463-3.463,1,0,1,90,false,stim,false,0,583.0849998164922,2,1,0,17172,WMM2,1261654,false,false,1490,image-keyboard-response,37
true,9,0,2,2,false,d,false,false,0.0-2.0-0.51-0.464-3.464,1,0,1,81,false,stim,true,0,727.9950000811368,2,0,1,17172,WMM2,1263894,false,false,1493,image-keyboard-response,38
true,9,2,2,0,false,q,true,false,0.0-2.0-0.51-0.465-3.465,1,0,1,68,false,stim,false,0,902.1250000223517,2,1,0,17172,WMM2,1266305,false,false,1496,image-keyboard-response,39
true,9,1,2,1,true,z,false,true,0.0-2.0-0.51-0.466-3.466,1,0,1,90,false,stim,false,1,1588.0400000605732,2,1,2,17172,WMM2,1269399,false,false,1499,image-keyboard-response,40
true,9,0,2,0,true,q,false,true,0.0-2.0-0.51-0.467-3.467,1,0,1,81,false,stim,false,0,554.2750000022352,2,1,0,17172,WMM2,1271470,false,false,1502,image-keyboard-response,41
true,9,1,2,1,true,z,false,true,0.0-2.0-0.52-0.468-3.468,1,0,1,90,false,stim,false,1,500.86500006727874,2,1,2,17172,WMM2,1273476,false,false,1505,image-keyboard-response,42
true,9,1,2,1,true,z,false,true,0.0-2.0-0.52-0.469-3.469,1,0,1,90,false,stim,false,1,789.7099999245256,2,1,2,17172,WMM2,1275770,false,false,1508,image-keyboard-response,43
true,9,0,2,0,true,q,false,true,0.0-2.0-0.52-0.470-3.470,1,0,1,81,false,stim,false,0,553.9649999700487,2,1,0,17172,WMM2,1277829,false,false,1511,image-keyboard-response,44
true,9,1,2,1,true,z,false,true,0.0-2.0-0.52-0.471-3.471,1,0,1,90,false,stim,false,1,567.0449999161065,2,1,2,17172,WMM2,1279902,false,false,1514,image-keyboard-response,45
true,9,0,2,0,true,q,false,true,0.0-2.0-0.52-0.472-3.472,1,0,1,81,false,stim,false,0,339.20000004582107,2,1,0,17172,WMM2,1281747,false,false,1517,image-keyboard-response,46
true,9,2,2,2,true,d,false,true,0.0-2.0-0.52-0.473-3.473,1,0,1,68,false,stim,false,0,530.7849999517202,2,0,1,17172,WMM2,1283783,false,false,1520,image-keyboard-response,47
true,9,2,2,2,true,d,false,true,0.0-2.0-0.52-0.474-3.474,1,0,1,68,false,stim,false,0,371.5250000823289,2,0,1,17172,WMM2,1285660,false,false,1523,image-keyboard-response,48
true,9,1,2,0,false,q,true,false,0.0-2.0-0.52-0.475-3.475,1,0,1,90,false,stim,false,0,971.9650000333786,2,1,0,17172,WMM2,1288137,false,false,1526,image-keyboard-response,49
true,9,2,2,2,true,d,false,true,0.0-2.0-0.52-0.476-3.476,1,0,1,68,false,stim,false,0,685.3549999650568,2,0,1,17172,WMM2,1290327,false,false,1529,image-keyboard-response,50
true,9,1,2,1,true,z,false,false,0.0-2.0-0.53-0.477-3.477,1,0,1,90,false,stim,false,1,675.0950000714511,2,1,2,17172,WMM2,1292506,false,true,1532,image-keyboard-response,51
true,9,1,2,1,true,z,false,false,0.0-2.0-0.53-0.478-3.478,1,0,1,90,false,stim,false,1,647.639999864623,2,1,2,17172,WMM2,1294657,false,true,1535,image-keyboard-response,52
true,9,1,2,0,false,q,true,false,0.0-2.0-0.53-0.479-3.479,1,0,1,90,false,stim,false,0,575.4499998874962,2,1,0,17172,WMM2,1296737,false,false,1538,image-keyboard-response,53
true,9,0,2,1,false,z,true,false,0.0-2.0-0.53-0.480-3.480,1,0,1,81,false,stim,false,1,599.53000000678,2,1,2,17172,WMM2,1298840,false,false,1541,image-keyboard-response,54
true,9,2,2,0,false,q,true,false,0.0-2.0-0.53-0.481-3.481,1,0,1,68,false,stim,false,0,1964.204999851063,2,1,0,17172,WMM2,1302318,false,false,1544,image-keyboard-response,55
true,9,2,2,2,true,d,false,true,0.0-2.0-0.53-0.482-3.482,1,0,1,68,false,stim,false,0,386.75000006332994,2,0,1,17172,WMM2,1304209,false,false,1547,image-keyboard-response,56
true,9,0,2,0,true,q,false,true,0.0-2.0-0.53-0.483-3.483,1,0,1,81,false,stim,false,0,643.6999998986721,2,1,0,17172,WMM2,1306357,false,false,1550,image-keyboard-response,57
true,9,2,2,2,true,d,false,true,0.0-2.0-0.53-0.484-3.484,1,0,1,68,false,stim,false,0,505.9450000990182,2,0,1,17172,WMM2,1308367,false,false,1553,image-keyboard-response,58
true,10,2,3,1,false,z,false,false,0.0-2.0-0.53-0.485-3.485,1,0,1,68,true,stim,true,2,574.3799998890609,2,0,1,17172,WMM2,1310446,false,false,1556,image-keyboard-response,1
true,10,2,3,1,false,z,false,false,0.0-2.0-0.54-0.486-3.486,1,0,1,68,false,stim,true,2,518.940000096336,2,0,1,17172,WMM2,1312469,false,false,1559,image-keyboard-response,2
true,10,0,3,0,true,q,false,true,0.0-2.0-0.54-0.487-3.487,1,0,1,81,false,stim,false,0,351.4199999626726,2,1,0,17172,WMM2,1314326,false,false,1562,image-keyboard-response,3
true,10,2,3,1,false,z,true,false,0.0-2.0-0.54-0.488-3.488,1,0,1,68,false,stim,false,1,691.1800000816584,2,1,2,17172,WMM2,1316520,false,false,1565,image-keyboard-response,4
true,10,0,3,0,true,q,false,false,0.0-2.0-0.54-0.489-3.489,1,0,1,81,false,stim,false,0,580.7199999690056,2,1,0,17172,WMM2,1318604,false,true,1568,image-keyboard-response,5
true,10,1,3,1,true,z,false,true,0.0-2.0-0.54-0.490-3.490,1,0,1,90,false,stim,false,2,478.4049999434501,2,0,1,17172,WMM2,1320585,false,false,1571,image-keyboard-response,6
true,10,2,3,1,false,z,true,true,0.0-2.0-0.54-0.491-3.491,1,0,1,68,false,stim,false,1,1657.0499998051673,2,1,2,17172,WMM2,1323746,false,true,1574,image-keyboard-response,7
true,10,2,3,1,false,z,true,false,0.0-2.0-0.54-0.492-3.492,1,0,1,68,false,stim,false,1,394.7100001387298,2,1,2,17172,WMM2,1325646,false,false,1577,image-keyboard-response,8
true,10,1,3,1,true,z,false,true,0.0-2.0-0.54-0.493-3.493,1,0,1,90,false,stim,false,2,541.8950000312179,2,0,1,17172,WMM2,1327692,false,false,1580,image-keyboard-response,9
true,10,0,3,0,true,q,false,true,0.0-2.0-0.54-0.494-3.494,1,0,1,81,false,stim,false,0,378.5050001461059,2,1,0,17172,WMM2,1329575,false,false,1583,image-keyboard-response,10
true,10,0,3,0,true,q,false,true,0.0-2.0-0.55-0.495-3.495,1,0,1,81,false,stim,false,0,625.5349998828024,2,1,0,17172,WMM2,1331705,false,false,1586,image-keyboard-response,11
true,10,1,3,1,true,z,false,true,0.0-2.0-0.55-0.496-3.496,1,0,1,90,false,stim,false,2,2128.0150001402944,2,0,1,17172,WMM2,1335336,false,false,1589,image-keyboard-response,12
true,10,2,3,1,false,z,true,true,0.0-2.0-0.55-0.497-3.497,1,0,1,68,false,stim,false,1,1738.2049998268485,2,1,2,17172,WMM2,1338578,false,true,1592,image-keyboard-response,13
true,10,2,3,1,false,z,true,false,0.0-2.0-0.55-0.498-3.498,1,0,1,68,false,stim,false,1,943.849999923259,2,1,2,17172,WMM2,1341031,false,false,1595,image-keyboard-response,14
true,10,1,3,1,true,z,false,true,0.0-2.0-0.55-0.499-3.499,1,0,1,90,false,stim,false,1,582.9600000288337,2,1,2,17172,WMM2,1343118,false,false,1598,image-keyboard-response,15
true,10,1,3,1,true,z,false,true,0.0-2.0-0.55-0.500-3.500,1,0,1,90,false,stim,false,2,2396.889999974519,2,0,1,17172,WMM2,1347022,false,false,1601,image-keyboard-response,16
false,10,-1,3,0,false,q,true,true,0.0-2.0-0.55-0.501-3.501,1,0,1,,false,stim,false,0,,2,1,0,17172,WMM2,1351527,false,true,1604,image-keyboard-response,17
true,10,0,3,0,true,q,false,true,0.0-2.0-0.55-0.502-3.502,1,0,1,81,false,stim,false,0,486.20499996468425,2,1,0,17172,WMM2,1353518,false,false,1607,image-keyboard-response,18
true,10,2,3,1,false,z,false,false,0.0-2.0-0.55-0.503-3.503,1,0,1,68,false,stim,true,2,979.2450000531971,2,0,1,17172,WMM2,1356001,false,false,1610,image-keyboard-response,19
true,10,2,3,1,false,z,false,false,0.0-2.0-0.56-0.504-3.504,1,0,1,68,false,stim,true,2,1837.5999999698251,2,0,1,17172,WMM2,1359344,false,false,1613,image-keyboard-response,20
true,10,0,3,1,false,z,true,false,0.0-2.0-0.56-0.505-3.505,1,0,1,81,false,stim,false,1,662.5550000462681,2,1,2,17172,WMM2,1361511,false,false,1616,image-keyboard-response,21
true,10,0,3,0,true,q,false,true,0.0-2.0-0.56-0.506-3.506,1,0,1,81,false,stim,false,0,667.3050001263618,2,1,0,17172,WMM2,1363684,false,false,1619,image-keyboard-response,22
true,10,2,3,0,false,q,true,false,0.0-2.0-0.56-0.507-3.507,1,0,1,68,false,stim,false,0,943.0500001180917,2,1,0,17172,WMM2,1366133,false,false,1622,image-keyboard-response,23
true,10,1,3,1,true,z,false,true,0.0-2.0-0.56-0.508-3.508,1,0,1,90,false,stim,false,1,1378.590000094846,2,1,2,17172,WMM2,1369018,false,false,1625,image-keyboard-response,24
true,10,2,3,1,false,z,false,false,0.0-2.0-0.56-0.509-3.509,1,0,1,68,false,stim,true,2,1504.4350000098348,2,0,1,17172,WMM2,1372027,false,false,1628,image-keyboard-response,25
true,10,0,3,1,false,z,true,false,0.0-2.0-0.56-0.510-3.510,1,0,1,81,false,stim,false,1,1703.250000020489,2,1,2,17172,WMM2,1375236,false,false,1631,image-keyboard-response,26
true,10,1,3,1,true,z,false,true,0.0-2.0-0.56-0.511-3.511,1,0,1,90,false,stim,false,2,625.4999998491257,2,0,1,17172,WMM2,1377366,false,false,1634,image-keyboard-response,27
true,10,0,3,0,true,q,false,true,0.0-2.0-0.56-0.512-3.512,1,0,1,81,false,stim,false,0,453.8100000936538,2,1,0,17172,WMM2,1379326,false,false,1637,image-keyboard-response,28
true,10,0,3,0,true,q,false,true,0.0-2.0-0.57-0.513-3.513,1,0,1,81,false,stim,false,0,1120.0399999506772,2,1,0,17172,WMM2,1381952,false,false,1640,image-keyboard-response,29
true,10,1,3,1,true,z,false,true,0.0-2.0-0.57-0.514-3.514,1,0,1,90,false,stim,false,2,1063.6599999852479,2,0,1,17172,WMM2,1384521,false,false,1643,image-keyboard-response,30
true,10,0,3,0,true,q,false,true,0.0-2.0-0.57-0.515-3.515,1,0,1,81,false,stim,false,0,568.3600001502782,2,1,0,17172,WMM2,1386594,false,false,1646,image-keyboard-response,31
true,10,1,3,1,true,z,false,true,0.0-2.0-0.57-0.516-3.516,1,0,1,90,false,stim,false,2,2024.3999999947846,2,0,1,17172,WMM2,1390124,false,false,1649,image-keyboard-response,32
true,10,0,3,1,false,z,true,false,0.0-2.0-0.57-0.517-3.517,1,0,1,81,false,stim,false,2,2578.324999893084,2,0,1,17172,WMM2,1394207,false,false,1652,image-keyboard-response,33
true,10,1,3,1,true,z,false,true,0.0-2.0-0.57-0.518-3.518,1,0,1,90,false,stim,false,1,702.7199999429286,2,1,2,17172,WMM2,1396415,false,false,1655,image-keyboard-response,34
true,10,1,3,1,true,z,false,true,0.0-2.0-0.57-0.519-3.519,1,0,1,90,false,stim,false,1,395.7200001459569,2,1,2,17172,WMM2,1398316,false,false,1658,image-keyboard-response,35
true,10,1,3,1,true,z,false,true,0.0-2.0-0.57-0.520-3.520,1,0,1,90,false,stim,false,1,472.9600001592189,2,1,2,17172,WMM2,1400294,false,false,1661,image-keyboard-response,36
true,10,0,3,0,true,q,false,true,0.0-2.0-0.57-0.521-3.521,1,0,1,81,false,stim,false,0,697.5449998863041,2,1,0,17172,WMM2,1402497,false,false,1664,image-keyboard-response,37
true,10,1,3,1,true,z,false,true,0.0-2.0-0.58-0.522-3.522,1,0,1,90,false,stim,false,1,1146.9100001268089,2,1,2,17172,WMM2,1405150,false,false,1667,image-keyboard-response,38
true,10,0,3,0,true,q,false,true,0.0-2.0-0.58-0.523-3.523,1,0,1,81,false,stim,false,0,861.6149998269975,2,1,0,17172,WMM2,1407517,false,false,1670,image-keyboard-response,39
true,10,0,3,0,true,q,false,true,0.0-2.0-0.58-0.524-3.524,1,0,1,81,false,stim,false,0,650.0250000972301,2,1,0,17172,WMM2,1409671,false,false,1673,image-keyboard-response,40
true,10,0,3,1,false,z,true,false,0.0-2.0-0.58-0.525-3.525,1,0,1,81,false,stim,false,2,1867.6349997986108,2,0,1,17172,WMM2,1413045,false,false,1676,image-keyboard-response,41
true,10,0,3,0,true,q,false,true,0.0-2.0-0.58-0.526-3.526,1,0,1,81,false,stim,false,0,572.3249998409301,2,1,0,17172,WMM2,1415123,false,false,1679,image-keyboard-response,42
true,10,1,3,1,true,z,false,true,0.0-2.0-0.58-0.527-3.527,1,0,1,90,false,stim,false,2,1229.6349999960512,2,0,1,17172,WMM2,1417859,false,false,1682,image-keyboard-response,43
true,10,1,3,1,true,z,false,true,0.0-2.0-0.58-0.528-3.528,1,0,1,90,false,stim,false,1,1000.715000089258,2,1,2,17172,WMM2,1420371,false,false,1685,image-keyboard-response,44
true,10,1,3,1,true,z,false,true,0.0-2.0-0.58-0.529-3.529,1,0,1,90,false,stim,false,2,542.3300000838935,2,0,1,17172,WMM2,1422419,false,false,1688,image-keyboard-response,45
true,10,1,3,1,true,z,false,true,0.0-2.0-0.58-0.530-3.530,1,0,1,90,false,stim,false,1,814.5099999383092,2,0,2,17172,WMM2,1424740,false,false,1691,image-keyboard-response,46
true,10,0,3,0,true,q,false,true,0.0-2.0-0.59-0.531-3.531,1,0,1,81,false,stim,false,0,330.7399998884648,2,1,0,17172,WMM2,1426575,false,false,1694,image-keyboard-response,47
true,10,1,3,1,true,z,false,true,0.0-2.0-0.59-0.532-3.532,1,0,1,90,false,stim,false,1,718.8199998345226,2,0,2,17172,WMM2,1428798,false,false,1697,image-keyboard-response,48
true,10,0,3,0,true,q,false,true,0.0-2.0-0.59-0.533-3.533,1,0,1,81,false,stim,false,0,371.3750001043081,2,1,0,17172,WMM2,1430675,false,false,1700,image-keyboard-response,49
true,10,1,3,1,true,z,false,true,0.0-2.0-0.59-0.534-3.534,1,0,1,90,false,stim,false,2,682.4000000488013,2,0,1,17172,WMM2,1432868,false,false,1703,image-keyboard-response,50
true,10,0,3,1,false,z,true,false,0.0-2.0-0.59-0.535-3.535,1,0,1,81,false,stim,false,1,619.6800000034273,2,0,2,17172,WMM2,1434991,false,false,1706,image-keyboard-response,51
true,10,1,3,1,true,z,false,true,0.0-2.0-0.59-0.536-3.536,1,0,1,90,false,stim,false,2,1046.3350000791252,2,0,1,17172,WMM2,1437546,false,false,1709,image-keyboard-response,52
true,10,0,3,0,true,q,false,true,0.0-2.0-0.59-0.537-3.537,1,0,1,81,false,stim,false,0,1037.8950000740588,2,1,0,17172,WMM2,1440088,false,false,1712,image-keyboard-response,53
true,10,1,3,1,true,z,false,true,0.0-2.0-0.59-0.538-3.538,1,0,1,90,false,stim,false,2,862.3349999543279,2,0,1,17172,WMM2,1442455,false,false,1715,image-keyboard-response,54
true,10,1,3,1,true,z,false,true,0.0-2.0-0.59-0.539-3.539,1,0,1,90,false,stim,false,1,993.4650000650436,2,0,2,17172,WMM2,1444952,false,false,1718,image-keyboard-response,55
true,11,1,1,0,false,q,false,false,0.0-2.0-0.60-0.540-3.540,1,0,0,90,true,stim,true,1,565.6449999660254,2,0,1,17172,WMM2,1447022,false,false,1721,image-keyboard-response,1
true,11,1,1,2,false,d,false,false,0.0-2.0-0.60-0.541-3.541,1,0,0,90,false,stim,true,1,517.5250000320375,2,0,2,17172,WMM2,1449043,false,false,1724,image-keyboard-response,2
true,11,1,1,2,false,d,false,false,0.0-2.0-0.60-0.542-3.542,1,0,0,90,false,stim,true,1,1006.044999929145,2,0,2,17172,WMM2,1451565,false,false,1727,image-keyboard-response,3
true,11,0,1,0,true,q,false,true,0.0-2.0-0.60-0.543-3.543,1,0,0,81,false,stim,false,0,1129.1400000918657,2,1,0,17172,WMM2,1454200,false,false,1730,image-keyboard-response,4
true,11,2,1,0,false,q,true,false,0.0-2.0-0.60-0.544-3.544,1,0,0,68,false,stim,false,1,605.2850000560284,2,0,1,17172,WMM2,1456310,false,false,1733,image-keyboard-response,5
true,11,0,1,0,true,q,false,true,0.0-2.0-0.60-0.545-3.545,1,0,0,81,false,stim,false,0,758.559999987483,2,1,0,17172,WMM2,1458574,false,false,1736,image-keyboard-response,6
true,11,1,1,0,false,q,false,false,0.0-2.0-0.60-0.546-3.546,1,0,0,90,false,stim,true,1,1261.9249999988824,2,0,1,17172,WMM2,1461339,false,false,1739,image-keyboard-response,7
true,11,0,1,0,true,q,false,true,0.0-2.0-0.60-0.547-3.547,1,0,0,81,false,stim,false,0,727.1900000050664,2,1,0,17172,WMM2,1463570,false,false,1742,image-keyboard-response,8
true,11,0,1,2,false,d,true,false,0.0-2.0-0.60-0.548-3.548,1,0,0,81,false,stim,false,1,592.9950000718236,2,0,2,17172,WMM2,1465668,false,false,1745,image-keyboard-response,9
true,11,0,1,0,true,q,false,true,0.0-2.0-0.61-0.549-3.549,1,0,0,81,false,stim,false,0,623.4999999869615,2,1,0,17172,WMM2,1467797,false,false,1748,image-keyboard-response,10
true,11,0,1,0,true,q,false,true,0.0-2.0-0.61-0.550-3.550,1,0,0,81,false,stim,false,0,925.4750001709908,2,1,0,17172,WMM2,1470227,false,false,1751,image-keyboard-response,11
true,11,0,1,2,false,d,true,false,0.0-2.0-0.61-0.551-3.551,1,0,0,81,false,stim,false,1,765.3750001918525,2,0,2,17172,WMM2,1472497,false,false,1754,image-keyboard-response,12
true,11,0,1,0,true,q,false,false,0.0-2.0-0.61-0.552-3.552,1,0,0,81,false,stim,false,1,489.89999992772937,2,0,1,17172,WMM2,1474506,false,true,1757,image-keyboard-response,13
true,11,0,1,0,true,q,false,true,0.0-2.0-0.61-0.553-3.553,1,0,0,81,false,stim,false,0,281.63000009953976,2,1,0,17172,WMM2,1476292,false,false,1760,image-keyboard-response,14
true,11,1,1,0,false,q,false,false,0.0-2.0-0.61-0.554-3.554,1,0,0,90,false,stim,true,1,377.1600001491606,2,0,1,17172,WMM2,1478173,false,false,1763,image-keyboard-response,15
true,11,1,1,2,false,d,false,false,0.0-2.0-0.61-0.555-3.555,1,0,0,90,false,stim,true,1,964.4700000062585,2,0,2,17172,WMM2,1480641,false,false,1766,image-keyboard-response,16
true,11,2,1,0,false,q,true,false,0.0-2.0-0.61-0.556-3.556,1,0,0,68,false,stim,false,1,450.70000016130507,2,0,1,17172,WMM2,1482596,false,false,1769,image-keyboard-response,17
true,11,2,1,2,true,d,false,true,0.0-2.0-0.61-0.557-3.557,1,0,0,68,false,stim,false,1,684.3499999959022,2,0,2,17172,WMM2,1484785,false,false,1772,image-keyboard-response,18
true,11,0,1,0,true,q,false,true,0.0-2.0-0.62-0.558-3.558,1,0,0,81,false,stim,false,0,885.370000032708,2,1,0,17172,WMM2,1487174,false,false,1775,image-keyboard-response,19
true,11,1,1,0,false,q,false,false,0.0-2.0-0.62-0.559-3.559,1,0,0,90,false,stim,true,1,889.1999998595566,2,0,1,17172,WMM2,1489581,false,false,1778,image-keyboard-response,20
true,11,2,1,0,false,q,true,true,0.0-2.0-0.62-0.560-3.560,1,0,0,68,false,stim,false,1,1842.4849999137223,2,0,1,17172,WMM2,1492928,false,true,1781,image-keyboard-response,21
true,11,2,1,0,false,q,true,false,0.0-2.0-0.62-0.561-3.561,1,0,0,68,false,stim,false,0,2056.990000186488,2,1,0,17172,WMM2,1496491,false,false,1784,image-keyboard-response,22
true,11,1,1,2,false,d,false,false,0.0-2.0-0.62-0.562-3.562,1,0,0,90,false,stim,true,1,880.0649999175221,2,0,2,17172,WMM2,1498876,false,false,1787,image-keyboard-response,23
true,11,2,1,2,true,d,false,true,0.0-2.0-0.62-0.563-3.563,1,0,0,68,false,stim,false,1,872.5050000939518,2,0,2,17172,WMM2,1501253,false,false,1790,image-keyboard-response,24
true,11,0,1,0,true,q,false,false,0.0-2.0-0.62-0.564-3.564,1,0,0,81,false,stim,false,0,1372.094999998808,2,1,0,17172,WMM2,1504130,false,true,1793,image-keyboard-response,25
true,11,0,1,2,false,d,true,false,0.0-2.0-0.62-0.565-3.565,1,0,0,81,false,stim,false,1,1153.6350001115352,2,0,2,17172,WMM2,1506791,false,false,1796,image-keyboard-response,26
true,11,1,1,0,false,q,false,false,0.0-2.0-0.62-0.566-3.566,1,0,0,90,false,stim,true,1,484.0049999766052,2,0,1,17172,WMM2,1508781,false,false,1799,image-keyboard-response,27
true,11,0,1,0,true,q,false,true,0.0-2.0-0.63-0.567-3.567,1,0,0,81,false,stim,false,0,915.0600000284612,2,1,0,17172,WMM2,1511207,false,false,1802,image-keyboard-response,28
true,11,0,1,0,true,q,false,true,0.0-2.0-0.63-0.568-3.568,1,0,0,81,false,stim,false,0,485.6050000526011,2,1,0,17172,WMM2,1513199,false,false,1805,image-keyboard-response,29
true,11,2,1,0,false,q,true,false,0.0-2.0-0.63-0.569-3.569,1,0,0,68,false,stim,false,1,847.5049999542534,2,0,1,17172,WMM2,1515551,false,false,1808,image-keyboard-response,30
true,11,1,1,0,false,q,false,false,0.0-2.0-0.63-0.570-3.570,1,0,0,90,false,stim,true,1,666.2200000137091,2,0,1,17172,WMM2,1517723,false,false,1811,image-keyboard-response,31
true,11,2,1,2,true,d,false,true,0.0-2.0-0.63-0.571-3.571,1,0,0,68,false,stim,false,1,1151.8499997910112,2,0,2,17172,WMM2,1520381,false,false,1814,image-keyboard-response,32
true,11,2,1,2,true,d,false,true,0.0-2.0-0.63-0.572-3.572,1,0,0,68,false,stim,false,1,420.71500001475215,2,0,2,17172,WMM2,1522306,false,false,1817,image-keyboard-response,33
true,11,2,1,2,true,d,false,true,0.0-2.0-0.63-0.573-3.573,1,0,0,68,false,stim,false,1,503.74500011093915,2,0,2,17172,WMM2,1524317,false,false,1820,image-keyboard-response,34
true,11,0,1,0,true,q,false,true,0.0-2.0-0.63-0.574-3.574,1,0,0,81,false,stim,false,0,515.8950001932681,2,1,0,17172,WMM2,1526338,false,false,1823,image-keyboard-response,35
true,11,2,1,0,false,q,true,false,0.0-2.0-0.63-0.575-3.575,1,0,0,68,false,stim,false,1,1456.3600001856685,2,0,1,17172,WMM2,1529300,false,false,1826,image-keyboard-response,36
true,11,2,1,2,true,d,false,true,0.0-2.0-0.64-0.576-3.576,1,0,0,68,false,stim,false,1,707.9399998765439,2,0,2,17172,WMM2,1531514,false,false,1829,image-keyboard-response,37
true,11,2,1,0,false,q,true,false,0.0-2.0-0.64-0.577-3.577,1,0,0,68,false,stim,false,1,595.7599999383092,2,0,1,17172,WMM2,1533614,false,false,1832,image-keyboard-response,38
true,11,0,1,0,true,q,false,true,0.0-2.0-0.64-0.578-3.578,1,0,0,81,false,stim,false,1,802.9600000008941,2,0,1,17172,WMM2,1535924,false,false,1835,image-keyboard-response,39
true,11,2,1,0,false,q,true,false,0.0-2.0-0.64-0.579-3.579,1,0,0,68,false,stim,false,0,1152.6349999476224,2,1,0,17172,WMM2,1538582,false,false,1838,image-keyboard-response,40
true,11,2,1,2,true,d,false,true,0.0-2.0-0.64-0.580-3.580,1,0,0,68,false,stim,false,1,571.0299999918789,2,0,2,17172,WMM2,1540657,false,false,1841,image-keyboard-response,41
true,11,1,1,0,false,q,false,false,0.0-2.0-0.64-0.581-3.581,1,0,0,90,false,stim,true,1,1185.67999987863,2,0,1,17172,WMM2,1543349,false,false,1844,image-keyboard-response,42
true,11,0,1,0,true,q,false,true,0.0-2.0-0.64-0.582-3.582,1,0,0,81,false,stim,false,0,763.0950000602752,2,1,0,17172,WMM2,1545618,false,false,1847,image-keyboard-response,43
true,11,2,1,2,true,d,false,true,0.0-2.0-0.64-0.583-3.583,1,0,0,68,false,stim,false,1,655.2750000264496,2,0,2,17172,WMM2,1547779,false,false,1850,image-keyboard-response,44
true,11,0,1,0,true,q,false,true,0.0-2.0-0.64-0.584-3.584,1,0,0,81,false,stim,false,0,1027.9649998992682,2,1,0,17172,WMM2,1550320,false,false,1853,image-keyboard-response,45
true,11,2,1,2,true,d,false,true,0.0-2.0-0.65-0.585-3.585,1,0,0,68,false,stim,false,1,764.5350000821054,2,0,2,17172,WMM2,1552595,false,false,1856,image-keyboard-response,46
true,11,2,1,2,true,d,false,true,0.0-2.0-0.65-0.586-3.586,1,0,0,68,false,stim,false,1,897.9299999773502,2,0,2,17172,WMM2,1555000,false,false,1859,image-keyboard-response,47
