answered,blockNum,choice,condition,corResp,correct,correct_response,explo,fb,internal_node_id,isStable_1,isStable_2,isStable_3,key_press,newBlock,part,persev,persevResp,rt,sessNum,stableAS,stimulus,subject,task,time_elapsed,training,trap,trial_index,trial_type,trialsInBlock
true,1,1,0,0,false,q,true,false,0.0-2.0-0.0-0.0-3.0,0,0,0,90,true,stim,false,-1,1135.8050000853837,1,0,0,17861,WMM2,131270,false,false,79,image-keyboard-response,1
true,1,1,0,0,false,q,true,false,0.0-2.0-0.0-0.1-3.1,0,0,0,90,false,stim,false,-1,641.6150000877678,1,0,2,17861,WMM2,133446,false,false,82,image-keyboard-response,2
true,1,0,0,1,false,z,true,false,0.0-2.0-0.0-0.2-3.2,0,0,0,81,false,stim,false,-1,696.6300001367927,1,0,1,17861,WMM2,135664,false,false,85,image-keyboard-response,3
true,1,1,0,1,true,z,false,true,0.0-2.0-0.0-0.3-3.3,0,0,0,90,false,stim,false,-1,523.9250001031905,1,0,1,17861,WMM2,137707,false,false,88,image-keyboard-response,4
true,1,2,0,0,false,q,true,false,0.0-2.0-0.0-0.4-3.4,0,0,0,68,false,stim,false,-1,502.0349998958409,1,0,2,17861,WMM2,139723,false,false,91,image-keyboard-response,5
true,1,2,0,0,false,q,true,false,0.0-2.0-0.0-0.5-3.5,0,0,0,68,false,stim,false,-1,764.2500000074506,1,0,0,17861,WMM2,142011,false,false,94,image-keyboard-response,6
true,1,0,0,0,true,q,false,true,0.0-2.0-0.0-0.6-3.6,0,0,0,81,false,stim,false,-1,644.2199999000877,1,0,2,17861,WMM2,144172,false,false,97,image-keyboard-response,7
true,1,1,0,1,true,z,false,true,0.0-2.0-0.0-0.7-3.7,0,0,0,90,false,stim,false,-1,512.7000000793487,1,0,1,17861,WMM2,146205,false,false,100,image-keyboard-response,8
true,1,0,0,0,true,q,false,true,0.0-2.0-0.0-0.8-3.8,0,0,0,81,false,stim,false,-1,394.2849999293685,1,0,0,17861,WMM2,148134,false,false,103,image-keyboard-response,9
true,1,0,0,0,true,q,false,true,0.0-2.0-0.1-0.9-3.9,0,0,0,81,false,stim,false,-1,688.4850000496954,1,0,2,17861,WMM2,150344,false,false,106,image-keyboard-response,10
true,1,0,0,0,true,q,false,true,0.0-2.0-0.1-0.10-3.10,0,0,0,81,false,stim,false,-1,482.3300000280142,1,0,2,17861,WMM2,152353,false,false,109,image-keyboard-response,11
true,1,1,0,1,true,z,false,true,0.0-2.0-0.1-0.11-3.11,0,0,0,90,false,stim,false,-1,400.61999997124076,1,0,1,17861,WMM2,154269,false,false,112,image-keyboard-response,12
true,1,0,0,0,true,q,false,true,0.0-2.0-0.1-0.12-3.12,0,0,0,81,false,stim,false,-1,589.68500001356,1,0,0,17861,WMM2,156389,false,false,115,image-keyboard-response,13
true,1,0,0,0,true,q,false,true,0.0-2.0-0.1-0.13-3.13,0,0,0,81,false,stim,false,-1,2013.234999962151,1,0,2,17861,WMM2,159928,false,false,118,image-keyboard-response,14
true,1,1,0,1,true,z,false,true,0.0-2.0-0.1-0.14-3.14,0,0,0,90,false,stim,false,-1,453.5850000102073,1,0,1,17861,WMM2,161899,false,false,121,image-keyboard-response,15
true,1,0,0,0,true,q,false,true,0.0-2.0-0.1-0.15-3.15,0,0,0,81,false,stim,false,-1,572.6750001776963,1,0,0,17861,WMM2,163999,false,false,124,image-keyboard-response,16
true,1,0,0,0,true,q,false,true,0.0-2.0-0.1-0.16-3.16,0,0,0,81,false,stim,false,-1,611.4799999631941,1,0,0,17861,WMM2,166121,false,false,127,image-keyboard-response,17
true,1,1,0,1,true,z,false,true,0.0-2.0-0.1-0.17-3.17,0,0,0,90,false,stim,false,-1,447.4400000181049,1,0,1,17861,WMM2,168087,false,false,130,image-keyboard-response,18
true,1,1,0,1,true,z,false,true,0.0-2.0-0.2-0.18-3.18,0,0,0,90,false,stim,false,-1,702.1600001025945,1,0,1,17861,WMM2,170307,false,false,133,image-keyboard-response,19
true,1,0,0,0,true,q,false,true,0.0-2.0-0.2-0.19-3.19,0,0,0,81,false,stim,false,-1,437.6949998550117,1,0,0,17861,WMM2,172274,false,false,136,image-keyboard-response,20
true,1,0,0,0,true,q,false,true,0.0-2.0-0.2-0.20-3.20,0,0,0,81,false,stim,false,-1,449.979999801144,1,1,2,17861,WMM2,174250,false,false,139,image-keyboard-response,21
true,1,0,0,0,true,q,false,true,0.0-2.0-0.2-0.21-3.21,0,0,0,81,false,stim,false,-1,555.6300000753254,1,0,0,17861,WMM2,176338,false,false,142,image-keyboard-response,22
true,1,1,0,1,true,z,false,true,0.0-2.0-0.2-0.22-3.22,0,0,0,90,false,stim,false,-1,771.805000025779,1,1,1,17861,WMM2,178636,false,false,145,image-keyboard-response,23
true,1,1,0,1,true,z,false,true,0.0-2.0-0.2-0.23-3.23,0,0,0,90,false,stim,false,-1,554.1100001428276,1,1,1,17861,WMM2,180716,false,false,148,image-keyboard-response,24
true,1,0,0,0,true,q,false,true,0.0-2.0-0.2-0.24-3.24,0,0,0,81,false,stim,false,-1,840.8200000412762,1,1,2,17861,WMM2,183084,false,false,151,image-keyboard-response,25
true,1,0,0,0,true,q,false,true,0.0-2.0-0.2-0.25-3.25,0,0,0,81,false,stim,false,-1,455.4949998855591,1,1,2,17861,WMM2,185063,false,false,154,image-keyboard-response,26
true,1,0,0,0,true,q,false,true,0.0-2.0-0.2-0.26-3.26,0,0,0,81,false,stim,false,-1,475.4500000271946,1,0,0,17861,WMM2,187065,false,false,157,image-keyboard-response,27
true,1,0,0,0,true,q,false,true,0.0-2.0-0.3-0.27-3.27,0,0,0,81,false,stim,false,-1,702.5399999693036,1,0,0,17861,WMM2,189291,false,false,160,image-keyboard-response,28
true,1,0,0,0,true,q,false,true,0.0-2.0-0.3-0.28-3.28,0,0,0,81,false,stim,false,-1,566.6649998165667,1,0,0,17861,WMM2,191386,false,false,163,image-keyboard-response,29
true,1,1,0,1,true,z,false,true,0.0-2.0-0.3-0.29-3.29,0,0,0,90,false,stim,false,-1,1315.0949999690056,1,1,1,17861,WMM2,194216,false,false,166,image-keyboard-response,30
true,2,1,2,1,true,z,false,false,0.0-2.0-0.3-0.30-3.30,0,1,1,90,true,stim,false,1,891.1650001537055,1,1,1,17861,WMM2,196639,false,true,169,image-keyboard-response,1
true,2,1,2,1,true,z,false,true,0.0-2.0-0.3-0.31-3.31,0,1,1,90,false,stim,false,1,669.1900000441819,1,1,1,17861,WMM2,198832,false,false,172,image-keyboard-response,2
true,2,0,2,0,true,q,false,true,0.0-2.0-0.3-0.32-3.32,0,1,1,81,false,stim,false,0,690.8350000157952,1,1,2,17861,WMM2,201052,false,false,175,image-keyboard-response,3
true,2,0,2,0,true,q,false,true,0.0-2.0-0.3-0.33-3.33,0,1,1,81,false,stim,false,0,632.0700000505894,1,1,2,17861,WMM2,203208,false,false,178,image-keyboard-response,4
true,2,0,2,0,true,q,false,true,0.0-2.0-0.3-0.34-3.34,0,1,1,81,false,stim,false,0,602.8400000650436,1,1,2,17861,WMM2,205343,false,false,181,image-keyboard-response,5
true,2,0,2,1,false,z,false,false,0.0-2.0-0.3-0.35-3.35,0,1,1,81,false,stim,true,0,650.0599998980761,1,0,0,17861,WMM2,207522,false,false,184,image-keyboard-response,6
true,2,1,2,1,true,z,false,true,0.0-2.0-0.4-0.36-3.36,0,1,1,90,false,stim,false,1,539.6249999757856,1,1,1,17861,WMM2,209593,false,false,187,image-keyboard-response,7
true,2,1,2,1,true,z,false,true,0.0-2.0-0.4-0.37-3.37,0,1,1,90,false,stim,false,1,811.4549999590963,1,1,1,17861,WMM2,211930,false,false,190,image-keyboard-response,8
true,2,0,2,0,true,q,false,true,0.0-2.0-0.4-0.38-3.38,0,1,1,81,false,stim,false,0,632.3650002013892,1,1,2,17861,WMM2,214082,false,false,193,image-keyboard-response,9
true,2,0,2,1,false,z,false,false,0.0-2.0-0.4-0.39-3.39,0,1,1,81,false,stim,true,0,762.4200000427663,1,0,0,17861,WMM2,216377,false,false,196,image-keyboard-response,10
true,2,0,2,0,true,q,false,true,0.0-2.0-0.4-0.40-3.40,0,1,1,81,false,stim,false,0,1210.2399999275804,1,1,2,17861,WMM2,219106,false,false,199,image-keyboard-response,11
true,2,1,2,1,true,z,false,true,0.0-2.0-0.4-0.41-3.41,0,1,1,90,false,stim,false,0,968.6300000175834,1,0,0,17861,WMM2,221595,false,false,202,image-keyboard-response,12
true,2,0,2,0,true,q,false,true,0.0-2.0-0.4-0.42-3.42,0,1,1,81,false,stim,false,0,607.1499998215586,1,1,2,17861,WMM2,223732,false,false,205,image-keyboard-response,13
true,2,1,2,1,true,z,false,false,0.0-2.0-0.4-0.43-3.43,0,1,1,90,false,stim,false,0,1207.139999838546,1,0,0,17861,WMM2,226463,false,true,208,image-keyboard-response,14
true,2,1,2,1,true,z,false,false,0.0-2.0-0.4-0.44-3.44,0,1,1,90,false,stim,false,1,487.0899999514222,1,1,1,17861,WMM2,228474,false,true,211,image-keyboard-response,15
true,2,1,2,1,true,z,false,false,0.0-2.0-0.5-0.45-3.45,0,1,1,90,false,stim,false,1,727.8749998658895,1,1,1,17861,WMM2,230729,false,true,214,image-keyboard-response,16
true,2,2,2,1,false,z,true,true,0.0-2.0-0.5-0.46-3.46,0,1,1,68,false,stim,false,0,1782.3850000277162,1,0,0,17861,WMM2,234028,false,true,217,image-keyboard-response,17
true,2,0,2,0,true,q,false,true,0.0-2.0-0.5-0.47-3.47,0,1,1,81,false,stim,false,0,714.3949999008328,1,1,2,17861,WMM2,236261,false,false,220,image-keyboard-response,18
true,2,2,2,1,false,z,true,false,0.0-2.0-0.5-0.48-3.48,0,1,1,68,false,stim,false,1,730.940000154078,1,1,1,17861,WMM2,238509,false,false,223,image-keyboard-response,19
true,2,2,2,1,false,z,true,false,0.0-2.0-0.5-0.49-3.49,0,1,1,68,false,stim,false,0,734.1599999926984,1,0,0,17861,WMM2,240761,false,false,226,image-keyboard-response,20
true,2,0,2,1,false,z,true,true,0.0-2.0-0.5-0.50-3.50,0,1,1,81,false,stim,false,1,757.5799999758601,1,1,1,17861,WMM2,243049,false,true,229,image-keyboard-response,21
true,2,0,2,1,false,z,false,false,0.0-2.0-0.5-0.51-3.51,0,1,1,81,false,stim,true,0,1390.7699999399483,1,0,0,17861,WMM2,245963,false,false,232,image-keyboard-response,22
true,2,0,2,0,true,q,false,true,0.0-2.0-0.5-0.52-3.52,0,1,1,81,false,stim,false,0,772.9599999729544,1,1,2,17861,WMM2,248259,false,false,235,image-keyboard-response,23
true,2,0,2,0,true,q,false,true,0.0-2.0-0.5-0.53-3.53,0,1,1,81,false,stim,false,0,524.890000000596,1,1,2,17861,WMM2,250309,false,false,238,image-keyboard-response,24
true,2,0,2,0,true,q,false,true,0.0-2.0-0.6-0.54-3.54,0,1,1,81,false,stim,false,0,636.6500000003725,1,1,2,17861,WMM2,252440,false,false,241,image-keyboard-response,25
true,2,0,2,1,false,z,true,false,0.0-2.0-0.6-0.55-3.55,0,1,1,81,false,stim,false,1,1172.9999999515712,1,1,1,17861,WMM2,255122,false,false,244,image-keyboard-response,26
true,2,1,2,1,true,z,false,true,0.0-2.0-0.6-0.56-3.56,0,1,1,90,false,stim,false,0,2135.9749999828637,1,0,0,17861,WMM2,258784,false,false,247,image-keyboard-response,27
true,2,1,2,1,true,z,false,true,0.0-2.0-0.6-0.57-3.57,0,1,1,90,false,stim,false,0,787.2299998998642,1,0,0,17861,WMM2,261099,false,false,250,image-keyboard-response,28
true,2,0,2,0,true,q,false,true,0.0-2.0-0.6-0.58-3.58,0,1,1,81,false,stim,false,0,472.5900001358241,1,1,2,17861,WMM2,263099,false,false,253,image-keyboard-response,29
true,2,1,2,1,true,z,false,true,0.0-2.0-0.6-0.59-3.59,0,1,1,90,false,stim,false,1,748.2049998361617,1,1,1,17861,WMM2,265357,false,false,256,image-keyboard-response,30
true,2,1,2,1,true,z,false,true,0.0-2.0-0.6-0.60-3.60,0,1,1,90,false,stim,false,0,1016.2700000219047,1,0,0,17861,WMM2,267904,false,false,259,image-keyboard-response,31
true,2,0,2,0,true,q,false,true,0.0-2.0-0.6-0.61-3.61,0,1,1,81,false,stim,false,0,506.264999974519,1,1,2,17861,WMM2,269944,false,false,262,image-keyboard-response,32
true,2,1,2,1,true,z,false,true,0.0-2.0-0.6-0.62-3.62,0,1,1,90,false,stim,false,1,530.449999962002,1,1,1,17861,WMM2,271999,false,false,265,image-keyboard-response,33
true,2,0,2,0,true,q,false,true,0.0-2.0-0.7-0.63-3.63,0,1,1,81,false,stim,false,0,2230.9900000691414,1,1,2,17861,WMM2,275748,false,false,268,image-keyboard-response,34
true,2,1,2,1,true,z,false,true,0.0-2.0-0.7-0.64-3.64,0,1,1,90,false,stim,false,1,570.2400000300258,1,1,1,17861,WMM2,277850,false,false,271,image-keyboard-response,35
true,2,1,2,1,true,z,false,true,0.0-2.0-0.7-0.65-3.65,0,1,1,90,false,stim,false,0,408.05500000715256,1,0,0,17861,WMM2,279786,false,false,274,image-keyboard-response,36
true,2,0,2,0,true,q,false,false,0.0-2.0-0.7-0.66-3.66,0,1,1,81,false,stim,false,0,604.0550000034273,1,1,2,17861,WMM2,281914,false,true,277,image-keyboard-response,37
true,2,0,2,0,true,q,false,false,0.0-2.0-0.7-0.67-3.67,0,1,1,81,false,stim,false,0,535.0950001738966,1,1,2,17861,WMM2,283976,false,true,280,image-keyboard-response,38
true,2,1,2,1,true,z,false,true,0.0-2.0-0.7-0.68-3.68,0,1,1,90,false,stim,false,1,619.1549999639392,1,1,1,17861,WMM2,286126,false,false,283,image-keyboard-response,39
true,2,1,2,1,true,z,false,true,0.0-2.0-0.7-0.69-3.69,0,1,1,90,false,stim,false,0,631.5399999730289,1,0,0,17861,WMM2,288286,false,false,286,image-keyboard-response,40
true,2,1,2,1,true,z,false,true,0.0-2.0-0.7-0.70-3.70,0,1,1,90,false,stim,false,0,626.8150000832975,1,0,0,17861,WMM2,290430,false,false,289,image-keyboard-response,41
true,2,1,2,1,true,z,false,true,0.0-2.0-0.7-0.71-3.71,0,1,1,90,false,stim,false,1,480.26999994181097,1,1,1,17861,WMM2,292443,false,false,292,image-keyboard-response,42
true,2,1,2,1,true,z,false,true,0.0-2.0-0.8-0.72-3.72,0,1,1,90,false,stim,false,0,635.7350000180304,1,0,0,17861,WMM2,294593,false,false,295,image-keyboard-response,43
true,3,1,4,1,true,z,false,true,0.0-2.0-0.8-0.73-3.73,0,1,1,90,true,stim,false,1,587.7700001001358,1,1,1,17861,WMM2,296702,false,false,298,image-keyboard-response,1
true,3,2,4,0,false,q,true,false,0.0-2.0-0.8-0.74-3.74,0,1,1,68,false,stim,false,0,1583.8299999013543,1,1,2,17861,WMM2,299813,false,false,301,image-keyboard-response,2
true,3,1,4,0,false,q,true,false,0.0-2.0-0.8-0.75-3.75,0,1,1,90,false,stim,false,0,452.1399999503046,1,1,2,17861,WMM2,301794,false,false,304,image-keyboard-response,3
true,3,1,4,1,true,z,false,true,0.0-2.0-0.8-0.76-3.76,0,1,1,90,false,stim,false,1,759.1049999464303,1,0,0,17861,WMM2,304083,false,false,307,image-keyboard-response,4
true,3,1,4,1,true,z,false,true,0.0-2.0-0.8-0.77-3.77,0,1,1,90,false,stim,false,1,493.0849999655038,1,0,0,17861,WMM2,306098,false,false,310,image-keyboard-response,5
true,3,1,4,1,true,z,false,true,0.0-2.0-0.8-0.78-3.78,0,1,1,90,false,stim,false,1,479.22000009566545,1,1,1,17861,WMM2,308099,false,false,313,image-keyboard-response,6
true,3,1,4,1,true,z,false,true,0.0-2.0-0.8-0.79-3.79,0,1,1,90,false,stim,false,1,521.4499998837709,1,1,1,17861,WMM2,310140,false,false,316,image-keyboard-response,7
true,3,0,4,0,true,q,false,false,0.0-2.0-0.8-0.80-3.80,0,1,1,81,false,stim,false,0,507.13999988511205,1,1,2,17861,WMM2,312174,false,true,319,image-keyboard-response,8
true,3,1,4,0,false,q,true,false,0.0-2.0-0.9-0.81-3.81,0,1,1,90,false,stim,false,0,399.9299998395145,1,1,2,17861,WMM2,314114,false,false,322,image-keyboard-response,9
true,3,2,4,0,false,q,true,false,0.0-2.0-0.9-0.82-3.82,0,1,1,68,false,stim,false,0,598.9850000478327,1,1,2,17861,WMM2,316243,false,false,325,image-keyboard-response,10
true,3,1,4,1,true,z,false,true,0.0-2.0-0.9-0.83-3.83,0,1,1,90,false,stim,false,1,945.534999947995,1,0,0,17861,WMM2,318721,false,false,328,image-keyboard-response,11
true,3,2,4,0,false,q,true,false,0.0-2.0-0.9-0.84-3.84,0,1,1,68,false,stim,false,0,1504.6250000596046,1,1,2,17861,WMM2,321745,false,false,331,image-keyboard-response,12
true,3,1,4,1,true,z,false,true,0.0-2.0-0.9-0.85-3.85,0,1,1,90,false,stim,false,1,546.0800000000745,1,0,0,17861,WMM2,323817,false,false,334,image-keyboard-response,13
true,3,1,4,1,true,z,false,true,0.0-2.0-0.9-0.86-3.86,0,1,1,90,false,stim,false,1,756.9050001911819,1,1,1,17861,WMM2,326093,false,false,337,image-keyboard-response,14
true,3,1,4,1,true,z,false,false,0.0-2.0-0.9-0.87-3.87,0,1,1,90,false,stim,false,1,541.3949999492615,1,1,1,17861,WMM2,328143,false,true,340,image-keyboard-response,15
true,3,1,4,1,true,z,false,true,0.0-2.0-0.9-0.88-3.88,0,1,1,90,false,stim,false,1,1429.3249999172986,1,1,1,17861,WMM2,331094,false,false,343,image-keyboard-response,16
true,3,0,4,1,false,z,true,true,0.0-2.0-0.9-0.89-3.89,0,1,1,81,false,stim,false,1,694.5700000505894,1,0,0,17861,WMM2,333307,false,true,346,image-keyboard-response,17
true,3,0,4,0,true,q,false,true,0.0-2.0-0.10-0.90-3.90,0,1,1,81,false,stim,false,0,555.0650001969188,1,1,2,17861,WMM2,335382,false,false,349,image-keyboard-response,18
true,3,1,4,1,true,z,false,false,0.0-2.0-0.10-0.91-3.91,0,1,1,90,false,stim,false,1,578.1199999619275,1,1,1,17861,WMM2,337487,false,true,352,image-keyboard-response,19
true,3,0,4,1,false,z,true,false,0.0-2.0-0.10-0.92-3.92,0,1,1,81,false,stim,false,1,451.64500013925135,1,0,0,17861,WMM2,339459,false,false,355,image-keyboard-response,20
true,3,0,4,0,true,q,false,true,0.0-2.0-0.10-0.93-3.93,0,1,1,81,false,stim,false,0,425.1999999396503,1,1,2,17861,WMM2,341414,false,false,358,image-keyboard-response,21
true,3,0,4,1,false,z,true,false,0.0-2.0-0.10-0.94-3.94,0,1,1,81,false,stim,false,1,2085.054999915883,1,1,1,17861,WMM2,345022,false,false,361,image-keyboard-response,22
true,3,0,4,0,true,q,false,false,0.0-2.0-0.10-0.95-3.95,0,1,1,81,false,stim,false,0,799.8949999455363,1,1,2,17861,WMM2,347352,false,true,364,image-keyboard-response,23
true,3,1,4,1,true,z,false,true,0.0-2.0-0.10-0.96-3.96,0,1,1,90,false,stim,false,1,840.4600000940263,1,1,1,17861,WMM2,349707,false,false,367,image-keyboard-response,24
true,3,0,4,1,false,z,true,true,0.0-2.0-0.10-0.97-3.97,0,1,1,81,false,stim,false,1,1571.2699999567121,1,0,0,17861,WMM2,352802,false,true,370,image-keyboard-response,25
true,3,0,4,1,false,z,true,false,0.0-2.0-0.10-0.98-3.98,0,1,1,81,false,stim,false,1,579.0750000160187,1,0,0,17861,WMM2,354906,false,false,373,image-keyboard-response,26
true,3,1,4,0,false,q,true,false,0.0-2.0-0.11-0.99-3.99,0,1,1,90,false,stim,false,0,1313.7750001624227,1,1,2,17861,WMM2,357738,false,false,376,image-keyboard-response,27
true,3,1,4,1,true,z,false,true,0.0-2.0-0.11-0.100-3.100,0,1,1,90,false,stim,false,1,850.5900001619011,1,1,1,17861,WMM2,360107,false,false,379,image-keyboard-response,28
true,3,1,4,1,true,z,false,true,0.0-2.0-0.11-0.101-3.101,0,1,1,90,false,stim,false,1,1984.6200000029057,1,0,0,17861,WMM2,363607,false,false,382,image-keyboard-response,29
true,3,2,4,0,false,q,true,false,0.0-2.0-0.11-0.102-3.102,0,1,1,68,false,stim,false,0,638.4399998933077,1,1,2,17861,WMM2,365772,false,false,385,image-keyboard-response,30
true,3,0,4,0,true,q,false,true,0.0-2.0-0.11-0.103-3.103,0,1,1,81,false,stim,false,0,513.6250001378357,1,1,2,17861,WMM2,367797,false,false,388,image-keyboard-response,31
true,3,2,4,1,false,z,true,false,0.0-2.0-0.11-0.104-3.104,0,1,1,68,false,stim,false,1,662.7549999393523,1,1,1,17861,WMM2,369978,false,false,391,image-keyboard-response,32
true,3,1,4,1,true,z,false,true,0.0-2.0-0.11-0.105-3.105,0,1,1,90,false,stim,false,1,546.085000038147,1,1,1,17861,WMM2,372042,false,false,394,image-keyboard-response,33
true,3,1,4,1,true,z,false,true,0.0-2.0-0.11-0.106-3.106,0,1,1,90,false,stim,false,1,544.7599999606609,1,0,0,17861,WMM2,374105,false,false,397,image-keyboard-response,34
true,3,1,4,1,true,z,false,true,0.0-2.0-0.11-0.107-3.107,0,1,1,90,false,stim,false,1,806.9599999580532,1,0,0,17861,WMM2,376432,false,false,400,image-keyboard-response,35
true,3,1,4,1,true,z,false,true,0.0-2.0-0.12-0.108-3.108,0,1,1,90,false,stim,false,1,1152.155000017956,1,1,1,17861,WMM2,379109,false,false,403,image-keyboard-response,36
true,3,1,4,1,true,z,false,true,0.0-2.0-0.12-0.109-3.109,0,1,1,90,false,stim,false,1,337.28999993763864,1,1,1,17861,WMM2,380974,false,false,406,image-keyboard-response,37
true,3,0,4,0,true,q,false,true,0.0-2.0-0.12-0.110-3.110,0,1,1,81,false,stim,false,0,1302.8749998193234,1,1,2,17861,WMM2,383805,false,false,409,image-keyboard-response,38
true,3,1,4,1,true,z,false,true,0.0-2.0-0.12-0.111-3.111,0,1,1,90,false,stim,false,1,393.2300000451505,1,1,0,17861,WMM2,385711,false,false,412,image-keyboard-response,39
true,3,1,4,1,true,z,false,true,0.0-2.0-0.12-0.112-3.112,0,1,1,90,false,stim,false,1,411.3749999087304,1,1,0,17861,WMM2,387643,false,false,415,image-keyboard-response,40
true,3,1,4,1,true,z,false,false,0.0-2.0-0.12-0.113-3.113,0,1,1,90,false,stim,false,1,415.5549998395145,1,0,1,17861,WMM2,389579,false,true,418,image-keyboard-response,41
true,3,0,4,0,true,q,false,true,0.0-2.0-0.12-0.114-3.114,0,1,1,81,false,stim,false,0,672.4699998740107,1,1,2,17861,WMM2,391784,false,false,421,image-keyboard-response,42
true,3,0,4,0,true,q,false,false,0.0-2.0-0.12-0.115-3.115,0,1,1,81,false,stim,false,0,795.6049998756498,1,1,2,17861,WMM2,394105,false,true,424,image-keyboard-response,43
true,3,1,4,1,true,z,false,true,0.0-2.0-0.12-0.116-3.116,0,1,1,90,false,stim,false,1,619.9849999975413,1,1,0,17861,WMM2,396244,false,false,427,image-keyboard-response,44
true,3,0,4,0,true,q,false,true,0.0-2.0-0.13-0.117-3.117,0,1,1,81,false,stim,false,0,775.8100000210106,1,1,2,17861,WMM2,398548,false,false,430,image-keyboard-response,45
true,3,0,4,0,true,q,false,true,0.0-2.0-0.13-0.118-3.118,0,1,1,81,false,stim,false,0,503.2899999059737,1,1,2,17861,WMM2,400575,false,false,433,image-keyboard-response,46
true,3,1,4,1,true,z,false,true,0.0-2.0-0.13-0.119-3.119,0,1,1,90,false,stim,false,1,636.8749998509884,1,1,0,17861,WMM2,402739,false,false,436,image-keyboard-response,47
true,3,1,4,1,true,z,false,true,0.0-2.0-0.13-0.120-3.120,0,1,1,90,false,stim,false,1,399.9799999874085,1,1,0,17861,WMM2,404667,false,false,439,image-keyboard-response,48
true,4,1,3,0,false,q,false,false,0.0-2.0-0.13-0.121-3.121,1,0,1,90,true,stim,true,1,939.1799999866635,1,0,1,17861,WMM2,407138,false,false,442,image-keyboard-response,1
true,4,1,3,1,true,z,false,true,0.0-2.0-0.13-0.122-3.122,1,0,1,90,false,stim,false,1,724.5449998881668,1,1,0,17861,WMM2,409388,false,false,445,image-keyboard-response,2
true,4,0,3,0,true,q,false,true,0.0-2.0-0.13-0.123-3.123,1,0,1,81,false,stim,false,1,664.3750001676381,1,0,1,17861,WMM2,411560,false,false,448,image-keyboard-response,3
true,4,0,3,0,true,q,false,true,0.0-2.0-0.13-0.124-3.124,1,0,1,81,false,stim,false,1,712.5299999024719,1,0,1,17861,WMM2,413795,false,false,451,image-keyboard-response,4
true,4,0,3,0,true,q,false,true,0.0-2.0-0.13-0.125-3.125,1,0,1,81,false,stim,false,0,552.8550001326948,1,1,2,17861,WMM2,415877,false,false,454,image-keyboard-response,5
true,4,0,3,0,true,q,false,true,0.0-2.0-0.14-0.126-3.126,1,0,1,81,false,stim,false,1,491.05499987490475,1,0,1,17861,WMM2,417896,false,false,457,image-keyboard-response,6
true,4,0,3,0,true,q,false,true,0.0-2.0-0.14-0.127-3.127,1,0,1,81,false,stim,false,0,537.2399999760091,1,1,2,17861,WMM2,419958,false,false,460,image-keyboard-response,7
true,4,0,3,0,true,q,false,true,0.0-2.0-0.14-0.128-3.128,1,0,1,81,false,stim,false,0,522.7449999656528,1,1,2,17861,WMM2,422008,false,false,463,image-keyboard-response,8
true,4,0,3,0,true,q,false,false,0.0-2.0-0.14-0.129-3.129,1,0,1,81,false,stim,false,1,571.4450001250952,1,0,1,17861,WMM2,424105,false,true,466,image-keyboard-response,9
true,4,0,3,0,true,q,false,false,0.0-2.0-0.14-0.130-3.130,1,0,1,81,false,stim,false,0,556.4699999522418,1,1,2,17861,WMM2,426186,false,true,469,image-keyboard-response,10
true,4,1,3,1,true,z,false,true,0.0-2.0-0.14-0.131-3.131,1,0,1,90,false,stim,false,1,542.5299999769777,1,1,0,17861,WMM2,428256,false,false,472,image-keyboard-response,11
true,4,0,3,0,true,q,false,true,0.0-2.0-0.14-0.132-3.132,1,0,1,81,false,stim,false,1,545.6350001040846,1,0,1,17861,WMM2,430323,false,false,475,image-keyboard-response,12
true,4,1,3,1,true,z,false,true,0.0-2.0-0.14-0.133-3.133,1,0,1,90,false,stim,false,1,539.0149999875575,1,1,0,17861,WMM2,432382,false,false,478,image-keyboard-response,13
true,4,1,3,1,true,z,false,true,0.0-2.0-0.14-0.134-3.134,1,0,1,90,false,stim,false,1,513.5999999474734,1,1,0,17861,WMM2,434406,false,false,481,image-keyboard-response,14
true,4,0,3,0,true,q,false,true,0.0-2.0-0.15-0.135-3.135,1,0,1,81,false,stim,false,0,612.5400001183152,1,1,2,17861,WMM2,436551,false,false,484,image-keyboard-response,15
true,4,1,3,1,true,z,false,false,0.0-2.0-0.15-0.136-3.136,1,0,1,90,false,stim,false,1,646.635000128299,1,1,0,17861,WMM2,438716,false,true,487,image-keyboard-response,16
true,4,0,3,0,true,q,false,true,0.0-2.0-0.15-0.137-3.137,1,0,1,81,false,stim,false,0,392.665000166744,1,1,2,17861,WMM2,440627,false,false,490,image-keyboard-response,17
true,4,0,3,0,true,q,false,true,0.0-2.0-0.15-0.138-3.138,1,0,1,81,false,stim,false,1,564.8499999660999,1,0,1,17861,WMM2,442716,false,false,493,image-keyboard-response,18
true,4,0,3,0,true,q,false,true,0.0-2.0-0.15-0.139-3.139,1,0,1,81,false,stim,false,1,669.63000013493,1,0,1,17861,WMM2,444903,false,false,496,image-keyboard-response,19
true,4,1,3,1,true,z,false,true,0.0-2.0-0.15-0.140-3.140,1,0,1,90,false,stim,false,1,813.4900000877678,1,1,0,17861,WMM2,447244,false,false,499,image-keyboard-response,20
true,4,1,3,1,true,z,false,false,0.0-2.0-0.15-0.141-3.141,1,0,1,90,false,stim,false,1,516.2199998740107,1,1,0,17861,WMM2,449277,false,true,502,image-keyboard-response,21
true,4,0,3,0,true,q,false,true,0.0-2.0-0.15-0.142-3.142,1,0,1,81,false,stim,false,1,709.5349999144673,1,1,1,17861,WMM2,451519,false,false,505,image-keyboard-response,22
true,4,0,3,0,true,q,false,true,0.0-2.0-0.15-0.143-3.143,1,0,1,81,false,stim,false,0,440.16500003635883,1,0,2,17861,WMM2,453472,false,false,508,image-keyboard-response,23
true,4,0,3,0,true,q,false,true,0.0-2.0-0.16-0.144-3.144,1,0,1,81,false,stim,false,1,584.3500001356006,1,1,1,17861,WMM2,455573,false,false,511,image-keyboard-response,24
true,4,1,3,1,true,z,false,false,0.0-2.0-0.16-0.145-3.145,1,0,1,90,false,stim,false,1,1215.6299999915063,1,1,0,17861,WMM2,458304,false,true,514,image-keyboard-response,25
true,4,0,3,0,true,q,false,true,0.0-2.0-0.16-0.146-3.146,1,0,1,81,false,stim,false,0,708.7950001005083,1,0,2,17861,WMM2,460543,false,false,517,image-keyboard-response,26
true,4,0,3,0,true,q,false,true,0.0-2.0-0.16-0.147-3.147,1,0,1,81,false,stim,false,0,612.4549999367446,1,0,2,17861,WMM2,462678,false,false,520,image-keyboard-response,27
true,4,0,3,0,true,q,false,false,0.0-2.0-0.16-0.148-3.148,1,0,1,81,false,stim,false,1,690.7099999953061,1,1,1,17861,WMM2,464888,false,true,523,image-keyboard-response,28
true,4,0,3,0,true,q,false,true,0.0-2.0-0.16-0.149-3.149,1,0,1,81,false,stim,false,1,473.7150000873953,1,1,1,17861,WMM2,466885,false,false,526,image-keyboard-response,29
true,4,1,3,1,true,z,false,false,0.0-2.0-0.16-0.150-3.150,1,0,1,90,false,stim,false,1,569.5599999744445,1,1,0,17861,WMM2,468980,false,true,529,image-keyboard-response,30
true,5,2,4,1,false,z,true,true,0.0-2.0-0.16-0.151-3.151,1,1,0,68,true,stim,false,1,634.0350001119077,1,1,0,17861,WMM2,471143,false,true,532,image-keyboard-response,1
true,5,0,4,0,true,q,false,false,0.0-2.0-0.16-0.152-3.152,1,1,0,81,false,stim,false,0,646.4350000023842,1,0,2,17861,WMM2,473319,false,true,535,image-keyboard-response,2
true,5,1,4,0,false,q,true,false,0.0-2.0-0.17-0.153-3.153,1,1,0,90,false,stim,false,0,647.8349999524653,1,1,1,17861,WMM2,475471,false,false,538,image-keyboard-response,3
true,5,2,4,1,false,z,true,false,0.0-2.0-0.17-0.154-3.154,1,1,0,68,false,stim,false,1,865.1099998969585,1,1,0,17861,WMM2,477868,false,false,541,image-keyboard-response,4
true,5,2,4,1,false,z,true,false,0.0-2.0-0.17-0.155-3.155,1,1,0,68,false,stim,false,1,419.8249999899417,1,1,0,17861,WMM2,479804,false,false,544,image-keyboard-response,5
true,5,0,4,0,true,q,false,true,0.0-2.0-0.17-0.156-3.156,1,1,0,81,false,stim,false,0,921.3549999985844,1,0,2,17861,WMM2,482254,false,false,547,image-keyboard-response,6
true,5,0,4,0,true,q,false,true,0.0-2.0-0.17-0.157-3.157,1,1,0,81,false,stim,false,0,626.5400000847876,1,0,2,17861,WMM2,484406,false,false,550,image-keyboard-response,7
true,5,0,4,0,true,q,false,true,0.0-2.0-0.17-0.158-3.158,1,1,0,81,false,stim,false,0,636.774999788031,1,1,1,17861,WMM2,486566,false,false,553,image-keyboard-response,8
true,5,0,4,0,true,q,false,true,0.0-2.0-0.17-0.159-3.159,1,1,0,81,false,stim,false,0,628.9800000376999,1,0,2,17861,WMM2,488723,false,false,556,image-keyboard-response,9
true,5,1,4,1,true,z,false,true,0.0-2.0-0.17-0.160-3.160,1,1,0,90,false,stim,false,1,863.8150000479072,1,1,0,17861,WMM2,491105,false,false,559,image-keyboard-response,10
true,5,0,4,0,true,q,false,true,0.0-2.0-0.17-0.161-3.161,1,1,0,81,false,stim,false,0,632.6499998103827,1,1,1,17861,WMM2,493256,false,false,562,image-keyboard-response,11
true,5,0,4,0,true,q,false,true,0.0-2.0-0.18-0.162-3.162,1,1,0,81,false,stim,false,0,549.6350000612438,1,1,1,17861,WMM2,495337,false,false,565,image-keyboard-response,12
true,5,1,4,1,true,z,false,true,0.0-2.0-0.18-0.163-3.163,1,1,0,90,false,stim,false,1,610.1049999706447,1,1,0,17861,WMM2,497479,false,false,568,image-keyboard-response,13
true,5,1,4,1,true,z,false,true,0.0-2.0-0.18-0.164-3.164,1,1,0,90,false,stim,false,1,522.5150000769645,1,1,0,17861,WMM2,499521,false,false,571,image-keyboard-response,14
true,5,0,4,0,true,q,false,true,0.0-2.0-0.18-0.165-3.165,1,1,0,81,false,stim,false,0,946.9999999273568,1,0,2,17861,WMM2,501995,false,false,574,image-keyboard-response,15
true,5,0,4,0,true,q,false,true,0.0-2.0-0.18-0.166-3.166,1,1,0,81,false,stim,false,0,377.79000005684793,1,1,1,17861,WMM2,503891,false,false,577,image-keyboard-response,16
true,5,0,4,0,true,q,false,true,0.0-2.0-0.18-0.167-3.167,1,1,0,81,false,stim,false,0,500.22000004537404,1,1,1,17861,WMM2,505912,false,false,580,image-keyboard-response,17
true,5,1,4,1,true,z,false,true,0.0-2.0-0.18-0.168-3.168,1,1,0,90,false,stim,false,1,635.319999884814,1,1,0,17861,WMM2,508078,false,false,583,image-keyboard-response,18
true,5,0,4,0,true,q,false,true,0.0-2.0-0.18-0.169-3.169,1,1,0,81,false,stim,false,0,416.4400000590831,1,0,2,17861,WMM2,510008,false,false,586,image-keyboard-response,19
true,5,0,4,0,true,q,false,true,0.0-2.0-0.18-0.170-3.170,1,1,0,81,false,stim,false,0,552.5400000624359,1,0,2,17861,WMM2,512077,false,false,589,image-keyboard-response,20
true,5,1,4,1,true,z,false,true,0.0-2.0-0.19-0.171-3.171,1,1,0,90,false,stim,false,1,634.3549999874085,1,0,0,17861,WMM2,514223,false,false,592,image-keyboard-response,21
true,5,1,4,1,true,z,false,true,0.0-2.0-0.19-0.172-3.172,1,1,0,90,false,stim,false,1,734.0200000908226,1,0,0,17861,WMM2,516487,false,false,595,image-keyboard-response,22
true,5,0,4,0,true,q,false,true,0.0-2.0-0.19-0.173-3.173,1,1,0,81,false,stim,false,0,435.5150000192225,1,0,1,17861,WMM2,518437,false,false,598,image-keyboard-response,23
true,5,0,4,0,true,q,false,true,0.0-2.0-0.19-0.174-3.174,1,1,0,81,false,stim,false,0,426.1149999219924,1,0,1,17861,WMM2,520393,false,false,601,image-keyboard-response,24
true,5,0,4,0,true,q,false,true,0.0-2.0-0.19-0.175-3.175,1,1,0,81,false,stim,false,0,843.2100000791252,1,1,2,17861,WMM2,522757,false,false,604,image-keyboard-response,25
true,5,0,4,0,true,q,false,true,0.0-2.0-0.19-0.176-3.176,1,1,0,81,false,stim,false,0,514.1249999869615,1,0,1,17861,WMM2,524793,false,false,607,image-keyboard-response,26
true,5,0,4,0,true,q,false,true,0.0-2.0-0.19-0.177-3.177,1,1,0,81,false,stim,false,0,600.0850000418723,1,1,2,17861,WMM2,526909,false,false,610,image-keyboard-response,27
true,5,1,4,1,true,z,false,false,0.0-2.0-0.19-0.178-3.178,1,1,0,90,false,stim,false,1,1178.4399999305606,1,0,0,17861,WMM2,529619,false,true,613,image-keyboard-response,28
true,5,0,4,0,true,q,false,true,0.0-2.0-0.19-0.179-3.179,1,1,0,81,false,stim,false,0,541.749999858439,1,1,2,17861,WMM2,531681,false,false,616,image-keyboard-response,29
true,5,1,4,1,true,z,false,true,0.0-2.0-0.20-0.180-3.180,1,1,0,90,false,stim,false,1,570.27000002563,1,0,0,17861,WMM2,533772,false,false,619,image-keyboard-response,30
true,6,1,1,0,false,q,false,false,0.0-2.0-0.20-0.181-3.181,0,0,1,90,true,stim,true,1,736.3199999090284,1,0,0,17861,WMM2,536039,false,false,622,image-keyboard-response,1
true,6,0,1,2,false,d,false,false,0.0-2.0-0.20-0.182-3.182,0,0,1,81,false,stim,true,0,621.4650000911206,1,0,1,17861,WMM2,538189,false,false,625,image-keyboard-response,2
true,6,0,1,2,false,d,false,false,0.0-2.0-0.20-0.183-3.183,0,0,1,81,false,stim,true,0,712.264999980107,1,0,1,17861,WMM2,540427,false,false,628,image-keyboard-response,3
true,6,0,1,0,true,q,false,true,0.0-2.0-0.20-0.184-3.184,0,0,1,81,false,stim,false,0,1107.2500001173466,1,1,2,17861,WMM2,543054,false,false,631,image-keyboard-response,4
true,6,0,1,0,true,q,false,true,0.0-2.0-0.20-0.185-3.185,0,0,1,81,false,stim,false,0,489.9650001898408,1,1,2,17861,WMM2,545068,false,false,634,image-keyboard-response,5
true,6,0,1,2,false,d,false,false,0.0-2.0-0.20-0.186-3.186,0,0,1,81,false,stim,true,0,803.5599999129772,1,0,1,17861,WMM2,547395,false,false,637,image-keyboard-response,6
true,6,1,1,0,false,q,false,false,0.0-2.0-0.20-0.187-3.187,0,0,1,90,false,stim,true,1,1028.6650001071393,1,0,0,17861,WMM2,549952,false,false,640,image-keyboard-response,7
true,6,0,1,0,true,q,false,true,0.0-2.0-0.20-0.188-3.188,0,0,1,81,false,stim,false,0,482.52000007778406,1,1,2,17861,WMM2,551954,false,false,643,image-keyboard-response,8
true,6,2,1,0,false,q,true,false,0.0-2.0-0.21-0.189-3.189,0,0,1,68,false,stim,false,1,435.34000008367,1,0,0,17861,WMM2,553906,false,false,646,image-keyboard-response,9
true,6,2,1,2,true,d,false,true,0.0-2.0-0.21-0.190-3.190,0,0,1,68,false,stim,false,0,739.5750000141561,1,0,1,17861,WMM2,556174,false,false,649,image-keyboard-response,10
true,6,0,1,0,true,q,false,true,0.0-2.0-0.21-0.191-3.191,0,0,1,81,false,stim,false,0,619.2300000693649,1,1,2,17861,WMM2,558318,false,false,652,image-keyboard-response,11
true,6,0,1,2,false,d,false,false,0.0-2.0-0.21-0.192-3.192,0,0,1,81,false,stim,true,0,718.1799998506904,1,0,1,17861,WMM2,560566,false,false,655,image-keyboard-response,12
true,6,0,1,0,true,q,false,false,0.0-2.0-0.21-0.193-3.193,0,0,1,81,false,stim,false,1,689.5899998489767,1,0,0,17861,WMM2,562785,false,true,658,image-keyboard-response,13
true,6,2,1,2,true,d,false,true,0.0-2.0-0.21-0.194-3.194,0,0,1,68,false,stim,false,0,842.3649999313056,1,0,1,17861,WMM2,565154,false,false,661,image-keyboard-response,14
true,6,2,1,0,false,q,true,false,0.0-2.0-0.21-0.195-3.195,0,0,1,68,false,stim,false,1,389.9799999780953,1,0,0,17861,WMM2,567064,false,false,664,image-keyboard-response,15
true,6,0,1,0,true,q,false,true,0.0-2.0-0.21-0.196-3.196,0,0,1,81,false,stim,false,0,662.8499999642372,1,1,2,17861,WMM2,569253,false,false,667,image-keyboard-response,16
true,6,0,1,0,true,q,false,true,0.0-2.0-0.21-0.197-3.197,0,0,1,81,false,stim,false,0,1109.3599998857826,1,1,2,17861,WMM2,571880,false,false,670,image-keyboard-response,17
true,6,2,1,2,true,d,false,true,0.0-2.0-0.22-0.198-3.198,0,0,1,68,false,stim,false,0,694.8949999641627,1,0,1,17861,WMM2,574098,false,false,673,image-keyboard-response,18
true,6,1,1,0,false,q,false,false,0.0-2.0-0.22-0.199-3.199,0,0,1,90,false,stim,true,1,1464.6650000941008,1,0,0,17861,WMM2,577082,false,false,676,image-keyboard-response,19
true,6,0,1,0,true,q,false,true,0.0-2.0-0.22-0.200-3.200,0,0,1,81,false,stim,false,0,827.4900000542402,1,1,2,17861,WMM2,579442,false,false,679,image-keyboard-response,20
true,6,2,1,2,true,d,false,true,0.0-2.0-0.22-0.201-3.201,0,0,1,68,false,stim,false,0,1214.3500000238419,1,0,1,17861,WMM2,582177,false,false,682,image-keyboard-response,21
true,6,0,1,0,true,q,false,true,0.0-2.0-0.22-0.202-3.202,0,0,1,81,false,stim,false,1,765.2600000146776,1,0,0,17861,WMM2,584475,false,false,685,image-keyboard-response,22
true,6,0,1,0,true,q,false,true,0.0-2.0-0.22-0.203-3.203,0,0,1,81,false,stim,false,0,479.5600001234561,1,1,2,17861,WMM2,586488,false,false,688,image-keyboard-response,23
true,6,0,1,0,true,q,false,true,0.0-2.0-0.22-0.204-3.204,0,0,1,81,false,stim,false,1,831.9650001358241,1,0,0,17861,WMM2,588838,false,false,691,image-keyboard-response,24
true,6,0,1,0,true,q,false,true,0.0-2.0-0.22-0.205-3.205,0,0,1,81,false,stim,false,0,741.124999942258,1,1,2,17861,WMM2,591112,false,false,694,image-keyboard-response,25
true,6,2,1,2,true,d,false,true,0.0-2.0-0.22-0.206-3.206,0,0,1,68,false,stim,false,0,933.5799999535084,1,1,1,17861,WMM2,593569,false,false,697,image-keyboard-response,26
true,6,0,1,0,true,q,false,true,0.0-2.0-0.23-0.207-3.207,0,0,1,81,false,stim,false,0,664.4400001969188,1,1,2,17861,WMM2,595764,false,false,700,image-keyboard-response,27
true,6,2,1,2,true,d,false,true,0.0-2.0-0.23-0.208-3.208,0,0,1,68,false,stim,false,0,1276.6299999784678,1,1,1,17861,WMM2,598575,false,false,703,image-keyboard-response,28
true,6,0,1,0,true,q,false,true,0.0-2.0-0.23-0.209-3.209,0,0,1,81,false,stim,false,0,963.8000000268221,1,1,2,17861,WMM2,601045,false,false,706,image-keyboard-response,29
true,6,0,1,0,true,q,false,true,0.0-2.0-0.23-0.210-3.210,0,0,1,81,false,stim,false,1,1005.3950001019984,1,0,0,17861,WMM2,603582,false,false,709,image-keyboard-response,30
true,6,0,1,0,true,q,false,true,0.0-2.0-0.23-0.211-3.211,0,0,1,81,false,stim,false,0,902.1399999037385,1,1,2,17861,WMM2,606010,false,false,712,image-keyboard-response,31
false,6,-1,1,0,false,q,true,false,0.0-2.0-0.23-0.212-3.212,0,0,1,,false,stim,false,1,,1,0,0,17861,WMM2,610549,false,false,715,image-keyboard-response,32
true,6,2,1,2,true,d,false,false,0.0-2.0-0.23-0.213-3.213,0,0,1,68,false,stim,false,0,836.5249999333173,1,1,1,17861,WMM2,612906,false,true,718,image-keyboard-response,33
true,6,0,1,2,false,d,false,false,0.0-2.0-0.23-0.214-3.214,0,0,1,81,false,stim,true,0,458.9199998881668,1,1,1,17861,WMM2,614893,false,false,721,image-keyboard-response,34
true,7,0,3,2,false,d,false,false,0.0-2.0-0.23-0.215-3.215,0,1,1,81,true,stim,true,0,1232.8500000294298,1,0,0,17861,WMM2,617648,false,false,724,image-keyboard-response,1
true,7,2,3,2,true,d,false,true,0.0-2.0-0.24-0.216-3.216,0,1,1,68,false,stim,false,2,430.94999995082617,1,1,1,17861,WMM2,619610,false,false,727,image-keyboard-response,2
true,7,0,3,0,true,q,false,false,0.0-2.0-0.24-0.217-3.217,0,1,1,81,false,stim,false,0,482.6400000602007,1,1,2,17861,WMM2,621610,false,true,730,image-keyboard-response,3
true,7,0,3,0,true,q,false,true,0.0-2.0-0.24-0.218-3.218,0,1,1,81,false,stim,false,0,792.0450000092387,1,1,2,17861,WMM2,623934,false,false,733,image-keyboard-response,4
true,7,0,3,2,false,d,false,false,0.0-2.0-0.24-0.219-3.219,0,1,1,81,false,stim,true,0,350.02999985590577,1,0,0,17861,WMM2,625807,false,false,736,image-keyboard-response,5
true,7,2,3,2,true,d,false,true,0.0-2.0-0.24-0.220-3.220,0,1,1,68,false,stim,false,2,573.3699998818338,1,1,1,17861,WMM2,627911,false,false,739,image-keyboard-response,6
true,7,1,3,2,false,d,true,false,0.0-2.0-0.24-0.221-3.221,0,1,1,90,false,stim,false,0,407.1949999779463,1,0,0,17861,WMM2,629829,false,false,742,image-keyboard-response,7
true,7,2,3,2,true,d,false,true,0.0-2.0-0.24-0.222-3.222,0,1,1,68,false,stim,false,2,865.2250000741333,1,1,1,17861,WMM2,632217,false,false,745,image-keyboard-response,8
true,7,2,3,2,true,d,false,true,0.0-2.0-0.24-0.223-3.223,0,1,1,68,false,stim,false,0,758.8499998673797,1,0,0,17861,WMM2,634494,false,false,748,image-keyboard-response,9
true,7,0,3,0,true,q,false,true,0.0-2.0-0.24-0.224-3.224,0,1,1,81,false,stim,false,0,453.44999991357327,1,1,2,17861,WMM2,636468,false,false,751,image-keyboard-response,10
true,7,2,3,2,true,d,false,false,0.0-2.0-0.25-0.225-3.225,0,1,1,68,false,stim,false,2,410.6049998663366,1,1,1,17861,WMM2,638406,false,true,754,image-keyboard-response,11
true,7,0,3,0,true,q,false,true,0.0-2.0-0.25-0.226-3.226,0,1,1,81,false,stim,false,0,884.1999999713153,1,1,2,17861,WMM2,640811,false,false,757,image-keyboard-response,12
true,7,2,3,2,true,d,false,true,0.0-2.0-0.25-0.227-3.227,0,1,1,68,false,stim,false,2,797.0399998594075,1,1,1,17861,WMM2,643140,false,false,760,image-keyboard-response,13
true,7,2,3,2,true,d,false,true,0.0-2.0-0.25-0.228-3.228,0,1,1,68,false,stim,false,0,813.570000231266,1,0,0,17861,WMM2,645488,false,false,763,image-keyboard-response,14
true,7,0,3,0,true,q,false,true,0.0-2.0-0.25-0.229-3.229,0,1,1,81,false,stim,false,0,392.46499980799854,1,1,2,17861,WMM2,647397,false,false,766,image-keyboard-response,15
true,7,2,3,2,true,d,false,true,0.0-2.0-0.25-0.230-3.230,0,1,1,68,false,stim,false,2,1059.4700002111495,1,1,1,17861,WMM2,649979,false,false,769,image-keyboard-response,16
true,7,2,3,2,true,d,false,true,0.0-2.0-0.25-0.231-3.231,0,1,1,68,false,stim,false,0,1580.28499991633,1,0,0,17861,WMM2,653081,false,false,772,image-keyboard-response,17
true,7,2,3,2,true,d,false,true,0.0-2.0-0.25-0.232-3.232,0,1,1,68,false,stim,false,0,550.3199999220669,1,0,0,17861,WMM2,655149,false,false,775,image-keyboard-response,18
true,7,0,3,0,true,q,false,false,0.0-2.0-0.25-0.233-3.233,0,1,1,81,false,stim,false,0,536.8500000331551,1,1,2,17861,WMM2,657216,false,true,778,image-keyboard-response,19
true,7,0,3,0,true,q,false,false,0.0-2.0-0.26-0.234-3.234,0,1,1,81,false,stim,false,0,513.4449999313802,1,1,2,17861,WMM2,659258,false,true,781,image-keyboard-response,20
true,7,2,3,2,true,d,false,true,0.0-2.0-0.26-0.235-3.235,0,1,1,68,false,stim,false,0,799.3950000964105,1,1,0,17861,WMM2,661576,false,false,784,image-keyboard-response,21
true,7,2,3,2,true,d,false,false,0.0-2.0-0.26-0.236-3.236,0,1,1,68,false,stim,false,2,598.7650000024587,1,1,1,17861,WMM2,663705,false,true,787,image-keyboard-response,22
true,7,1,3,2,false,d,true,true,0.0-2.0-0.26-0.237-3.237,0,1,1,90,false,stim,false,0,638.6150000616908,1,1,0,17861,WMM2,665860,false,true,790,image-keyboard-response,23
true,7,1,3,0,false,q,true,true,0.0-2.0-0.26-0.238-3.238,0,1,1,90,false,stim,false,0,1590.6699998304248,1,0,2,17861,WMM2,668978,false,true,793,image-keyboard-response,24
true,7,1,3,0,false,q,true,false,0.0-2.0-0.26-0.239-3.239,0,1,1,90,false,stim,false,0,651.6500001307577,1,0,2,17861,WMM2,671153,false,false,796,image-keyboard-response,25
true,7,2,3,2,true,d,false,true,0.0-2.0-0.26-0.240-3.240,0,1,1,68,false,stim,false,2,2265.9899999853224,1,1,1,17861,WMM2,674949,false,false,799,image-keyboard-response,26
true,7,1,3,2,false,d,true,true,0.0-2.0-0.26-0.241-3.241,0,1,1,90,false,stim,false,0,930.2449999377131,1,1,0,17861,WMM2,677409,false,true,802,image-keyboard-response,27
true,7,2,3,2,true,d,false,true,0.0-2.0-0.26-0.242-3.242,0,1,1,68,false,stim,false,2,1364.7050000727177,1,1,1,17861,WMM2,680292,false,false,805,image-keyboard-response,28
true,7,2,3,0,false,q,true,false,0.0-2.0-0.27-0.243-3.243,0,1,1,68,false,stim,false,0,1432.5149999931455,1,0,2,17861,WMM2,683257,false,false,808,image-keyboard-response,29
true,7,0,3,0,true,q,false,true,0.0-2.0-0.27-0.244-3.244,0,1,1,81,false,stim,false,0,686.8549999780953,1,0,2,17861,WMM2,685475,false,false,811,image-keyboard-response,30
true,8,2,3,2,true,d,false,true,0.0-2.0-0.27-0.245-3.245,1,1,0,68,true,stim,false,2,1126.3850000686944,1,1,1,17861,WMM2,688129,false,false,814,image-keyboard-response,1
true,8,2,3,2,true,d,false,true,0.0-2.0-0.27-0.246-3.246,1,1,0,68,false,stim,false,2,1036.3150001503527,1,1,1,17861,WMM2,690687,false,false,817,image-keyboard-response,2
true,8,1,3,2,false,d,true,false,0.0-2.0-0.27-0.247-3.247,1,1,0,90,false,stim,false,2,712.8999999258667,1,1,0,17861,WMM2,692928,false,false,820,image-keyboard-response,3
true,8,1,3,2,false,d,true,true,0.0-2.0-0.27-0.248-3.248,1,1,0,90,false,stim,false,2,1208.7900000624359,1,1,0,17861,WMM2,695655,false,true,823,image-keyboard-response,4
true,8,1,3,2,false,d,true,false,0.0-2.0-0.27-0.249-3.249,1,1,0,90,false,stim,false,2,703.6450000014156,1,1,0,17861,WMM2,697881,false,false,826,image-keyboard-response,5
true,8,2,3,2,true,d,false,true,0.0-2.0-0.27-0.250-3.250,1,1,0,68,false,stim,false,2,744.6950001176447,1,1,1,17861,WMM2,700154,false,false,829,image-keyboard-response,6
true,8,0,3,1,false,z,false,false,0.0-2.0-0.27-0.251-3.251,1,1,0,81,false,stim,true,0,607.8899998683482,1,0,2,17861,WMM2,702282,false,false,832,image-keyboard-response,7
true,8,1,3,2,false,d,true,true,0.0-2.0-0.28-0.252-3.252,1,1,0,90,false,stim,false,2,734.03500020504,1,1,0,17861,WMM2,704540,false,true,835,image-keyboard-response,8
true,8,1,3,2,false,d,true,false,0.0-2.0-0.28-0.253-3.253,1,1,0,90,false,stim,false,2,508.95499996840954,1,1,0,17861,WMM2,706579,false,false,838,image-keyboard-response,9
true,8,2,3,2,true,d,false,true,0.0-2.0-0.28-0.254-3.254,1,1,0,68,false,stim,false,2,818.5700001195073,1,1,1,17861,WMM2,708920,false,false,841,image-keyboard-response,10
true,8,0,3,1,false,z,false,false,0.0-2.0-0.28-0.255-3.255,1,1,0,81,false,stim,true,0,535.4300001636147,1,0,2,17861,WMM2,710970,false,false,844,image-keyboard-response,11
true,8,1,3,2,false,d,true,false,0.0-2.0-0.28-0.256-3.256,1,1,0,90,false,stim,false,2,426.54499993659556,1,1,0,17861,WMM2,712924,false,false,847,image-keyboard-response,12
true,8,2,3,2,true,d,false,true,0.0-2.0-0.28-0.257-3.257,1,1,0,68,false,stim,false,2,648.1500000227243,1,1,1,17861,WMM2,715094,false,false,850,image-keyboard-response,13
true,8,1,3,1,true,z,false,true,0.0-2.0-0.28-0.258-3.258,1,1,0,90,false,stim,false,0,1308.7450000457466,1,0,2,17861,WMM2,717919,false,false,853,image-keyboard-response,14
true,8,1,3,1,true,z,false,true,0.0-2.0-0.28-0.259-3.259,1,1,0,90,false,stim,false,0,546.695000026375,1,0,2,17861,WMM2,719988,false,false,856,image-keyboard-response,15
true,8,2,3,2,true,d,false,true,0.0-2.0-0.28-0.260-3.260,1,1,0,68,false,stim,false,2,718.1300001684576,1,1,1,17861,WMM2,722224,false,false,859,image-keyboard-response,16
true,8,1,3,2,false,d,true,false,0.0-2.0-0.29-0.261-3.261,1,1,0,90,false,stim,false,2,911.8550000712276,1,1,0,17861,WMM2,724666,false,false,862,image-keyboard-response,17
true,8,2,3,2,true,d,false,false,0.0-2.0-0.29-0.262-3.262,1,1,0,68,false,stim,false,2,467.9199999663979,1,1,0,17861,WMM2,726653,false,true,865,image-keyboard-response,18
true,8,2,3,2,true,d,false,true,0.0-2.0-0.29-0.263-3.263,1,1,0,68,false,stim,false,2,768.7649999279529,1,1,1,17861,WMM2,728952,false,false,868,image-keyboard-response,19
true,8,1,3,1,true,z,false,true,0.0-2.0-0.29-0.264-3.264,1,1,0,90,false,stim,false,0,939.1700001433492,1,0,2,17861,WMM2,731421,false,false,871,image-keyboard-response,20
true,8,2,3,2,true,d,false,true,0.0-2.0-0.29-0.265-3.265,1,1,0,68,false,stim,false,2,646.5799999423325,1,1,1,17861,WMM2,733593,false,false,874,image-keyboard-response,21
true,8,2,3,2,true,d,false,true,0.0-2.0-0.29-0.266-3.266,1,1,0,68,false,stim,false,2,935.4649998713285,1,1,1,17861,WMM2,736047,false,false,877,image-keyboard-response,22
true,8,1,3,1,true,z,false,true,0.0-2.0-0.29-0.267-3.267,1,1,0,90,false,stim,false,0,1243.0249999742955,1,0,2,17861,WMM2,738818,false,false,880,image-keyboard-response,23
true,8,0,3,2,false,d,true,false,0.0-2.0-0.29-0.268-3.268,1,1,0,81,false,stim,false,2,651.1549998540431,1,1,0,17861,WMM2,740991,false,false,883,image-keyboard-response,24
true,8,1,3,1,true,z,false,true,0.0-2.0-0.29-0.269-3.269,1,1,0,90,false,stim,false,0,988.2499999366701,1,0,2,17861,WMM2,743509,false,false,886,image-keyboard-response,25
true,8,1,3,1,true,z,false,true,0.0-2.0-0.30-0.270-3.270,1,1,0,90,false,stim,false,0,633.4400000050664,1,0,2,17861,WMM2,745669,false,false,889,image-keyboard-response,26
true,8,1,3,2,false,d,true,false,0.0-2.0-0.30-0.271-3.271,1,1,0,90,false,stim,false,2,880.8899999130517,1,1,0,17861,WMM2,748081,false,false,892,image-keyboard-response,27
true,8,2,3,2,true,d,false,true,0.0-2.0-0.30-0.272-3.272,1,1,0,68,false,stim,false,2,755.8600001502782,1,1,1,17861,WMM2,750371,false,false,895,image-keyboard-response,28
true,8,2,3,2,true,d,false,true,0.0-2.0-0.30-0.273-3.273,1,1,0,68,false,stim,false,2,809.3949998728931,1,1,0,17861,WMM2,752705,false,false,898,image-keyboard-response,29
true,8,2,3,2,true,d,false,true,0.0-2.0-0.30-0.274-3.274,1,1,0,68,false,stim,false,2,1313.154999865219,1,1,1,17861,WMM2,755543,false,false,901,image-keyboard-response,30
true,8,2,3,2,true,d,false,true,0.0-2.0-0.30-0.275-3.275,1,1,0,68,false,stim,false,2,614.2400000244379,1,1,1,17861,WMM2,757689,false,false,904,image-keyboard-response,31
true,8,2,3,2,true,d,false,true,0.0-2.0-0.30-0.276-3.276,1,1,0,68,false,stim,false,2,897.8150000330061,1,1,0,17861,WMM2,760120,false,false,907,image-keyboard-response,32
true,8,1,3,1,true,z,false,true,0.0-2.0-0.30-0.277-3.277,1,1,0,90,false,stim,false,0,600.7000000681728,1,1,2,17861,WMM2,762238,false,false,910,image-keyboard-response,33
true,8,1,3,1,true,z,false,true,0.0-2.0-0.30-0.278-3.278,1,1,0,90,false,stim,false,0,487.63500014320016,1,1,2,17861,WMM2,764256,false,false,913,image-keyboard-response,34
true,8,2,3,2,true,d,false,true,0.0-2.0-0.31-0.279-3.279,1,1,0,68,false,stim,false,2,584.8849997855723,1,1,0,17861,WMM2,766368,false,false,916,image-keyboard-response,35
true,8,2,3,2,true,d,false,true,0.0-2.0-0.31-0.280-3.280,1,1,0,68,false,stim,false,2,470.88000015355647,1,0,1,17861,WMM2,768370,false,false,919,image-keyboard-response,36
true,8,1,3,1,true,z,false,false,0.0-2.0-0.31-0.281-3.281,1,1,0,90,false,stim,false,0,449.1200000047684,1,1,2,17861,WMM2,770346,false,true,922,image-keyboard-response,37
true,8,2,3,2,true,d,false,true,0.0-2.0-0.31-0.282-3.282,1,1,0,68,false,stim,false,2,601.2249998748302,1,1,0,17861,WMM2,772480,false,false,925,image-keyboard-response,38
true,8,2,3,2,true,d,false,true,0.0-2.0-0.31-0.283-3.283,1,1,0,68,false,stim,false,2,449.4699998758733,1,1,0,17861,WMM2,774459,false,false,928,image-keyboard-response,39
true,8,2,3,2,true,d,false,false,0.0-2.0-0.31-0.284-3.284,1,1,0,68,false,stim,false,2,1185.7350000645965,1,0,1,17861,WMM2,777178,false,true,931,image-keyboard-response,40
true,8,1,3,1,true,z,false,true,0.0-2.0-0.31-0.285-3.285,1,1,0,90,false,stim,false,0,531.8950000219047,1,1,2,17861,WMM2,779238,false,false,934,image-keyboard-response,41
true,8,2,3,2,true,d,false,true,0.0-2.0-0.31-0.286-3.286,1,1,0,68,false,stim,false,2,398.32499995827675,1,0,1,17861,WMM2,781169,false,false,937,image-keyboard-response,42
true,9,1,4,1,true,z,false,false,0.0-2.0-0.31-0.287-3.287,1,0,1,90,true,stim,false,1,720.6800000276417,1,1,2,17861,WMM2,783424,false,true,940,image-keyboard-response,1
true,9,1,4,1,true,z,false,false,0.0-2.0-0.32-0.288-3.288,1,0,1,90,false,stim,false,1,1440.8650000113994,1,1,2,17861,WMM2,786391,false,true,943,image-keyboard-response,2
true,9,2,4,2,true,d,false,true,0.0-2.0-0.32-0.289-3.289,1,0,1,68,false,stim,false,2,939.0499999281019,1,1,0,17861,WMM2,788854,false,false,946,image-keyboard-response,3
true,9,0,4,1,false,z,true,false,0.0-2.0-0.32-0.290-3.290,1,0,1,81,false,stim,false,1,926.0849999263883,1,1,2,17861,WMM2,791306,false,false,949,image-keyboard-response,4
true,9,2,4,2,true,d,false,true,0.0-2.0-0.32-0.291-3.291,1,0,1,68,false,stim,false,2,1396.1200001649559,1,0,1,17861,WMM2,794223,false,false,952,image-keyboard-response,5
true,9,2,4,2,true,d,false,true,0.0-2.0-0.32-0.292-3.292,1,0,1,68,false,stim,false,2,1259.2550001572818,1,1,0,17861,WMM2,796991,false,false,955,image-keyboard-response,6
true,9,2,4,2,true,d,false,true,0.0-2.0-0.32-0.293-3.293,1,0,1,68,false,stim,false,2,1028.374999994412,1,0,1,17861,WMM2,799540,false,false,958,image-keyboard-response,7
true,9,2,4,2,true,d,false,false,0.0-2.0-0.32-0.294-3.294,1,0,1,68,false,stim,false,2,819.7999999392778,1,0,1,17861,WMM2,801880,false,true,961,image-keyboard-response,8
true,9,1,4,1,true,z,false,true,0.0-2.0-0.32-0.295-3.295,1,0,1,90,false,stim,false,1,384.1450000181794,1,1,2,17861,WMM2,803792,false,false,964,image-keyboard-response,9
true,9,2,4,2,true,d,false,true,0.0-2.0-0.32-0.296-3.296,1,0,1,68,false,stim,false,2,527.7950000017881,1,1,0,17861,WMM2,805850,false,false,967,image-keyboard-response,10
true,9,1,4,1,true,z,false,true,0.0-2.0-0.33-0.297-3.297,1,0,1,90,false,stim,false,1,573.8750000018626,1,1,2,17861,WMM2,807944,false,false,970,image-keyboard-response,11
true,9,1,4,1,true,z,false,true,0.0-2.0-0.33-0.298-3.298,1,0,1,90,false,stim,false,1,517.5099999178201,1,1,2,17861,WMM2,809987,false,false,973,image-keyboard-response,12
true,9,2,4,2,true,d,false,true,0.0-2.0-0.33-0.299-3.299,1,0,1,68,false,stim,false,2,873.860000167042,1,0,1,17861,WMM2,812392,false,false,976,image-keyboard-response,13
true,9,2,4,2,true,d,false,true,0.0-2.0-0.33-0.300-3.300,1,0,1,68,false,stim,false,2,1424.3099999148399,1,1,0,17861,WMM2,815339,false,false,979,image-keyboard-response,14
true,9,2,4,2,true,d,false,true,0.0-2.0-0.33-0.301-3.301,1,0,1,68,false,stim,false,2,468.36000005714595,1,0,1,17861,WMM2,817331,false,false,982,image-keyboard-response,15
true,9,2,4,2,true,d,false,true,0.0-2.0-0.33-0.302-3.302,1,0,1,68,false,stim,false,2,635.8250000048429,1,0,1,17861,WMM2,819497,false,false,985,image-keyboard-response,16
true,9,2,4,2,true,d,false,false,0.0-2.0-0.33-0.303-3.303,1,0,1,68,false,stim,false,2,1129.5600000303239,1,1,0,17861,WMM2,822156,false,true,988,image-keyboard-response,17
true,9,2,4,2,true,d,false,true,0.0-2.0-0.33-0.304-3.304,1,0,1,68,false,stim,false,2,443.5999998822808,1,1,0,17861,WMM2,824118,false,false,991,image-keyboard-response,18
true,9,1,4,1,true,z,false,true,0.0-2.0-0.33-0.305-3.305,1,0,1,90,false,stim,false,1,714.5249999593943,1,1,2,17861,WMM2,826353,false,false,994,image-keyboard-response,19
true,9,2,4,2,true,d,false,false,0.0-2.0-0.34-0.306-3.306,1,0,1,68,false,stim,false,2,637.1950001921505,1,1,0,17861,WMM2,828507,false,true,997,image-keyboard-response,20
true,9,2,4,2,true,d,false,true,0.0-2.0-0.34-0.307-3.307,1,0,1,68,false,stim,false,2,770.2349999453872,1,1,1,17861,WMM2,830805,false,false,1000,image-keyboard-response,21
true,9,2,4,2,true,d,false,true,0.0-2.0-0.34-0.308-3.308,1,0,1,68,false,stim,false,2,754.4799998868257,1,0,0,17861,WMM2,833086,false,false,1003,image-keyboard-response,22
true,9,2,4,2,true,d,false,true,0.0-2.0-0.34-0.309-3.309,1,0,1,68,false,stim,false,2,584.1649998910725,1,0,0,17861,WMM2,835198,false,false,1006,image-keyboard-response,23
true,9,1,4,1,true,z,false,true,0.0-2.0-0.34-0.310-3.310,1,0,1,90,false,stim,false,1,510.95500006340444,1,1,2,17861,WMM2,837240,false,false,1009,image-keyboard-response,24
true,9,1,4,1,true,z,false,true,0.0-2.0-0.34-0.311-3.311,1,0,1,90,false,stim,false,1,633.5849999450147,1,1,2,17861,WMM2,839394,false,false,1012,image-keyboard-response,25
true,9,2,4,2,true,d,false,true,0.0-2.0-0.34-0.312-3.312,1,0,1,68,false,stim,false,2,562.0249998755753,1,1,1,17861,WMM2,841488,false,false,1015,image-keyboard-response,26
true,9,2,4,2,true,d,false,true,0.0-2.0-0.34-0.313-3.313,1,0,1,68,false,stim,false,2,597.6799998898059,1,1,1,17861,WMM2,843604,false,false,1018,image-keyboard-response,27
true,9,1,4,1,true,z,false,true,0.0-2.0-0.34-0.314-3.314,1,0,1,90,false,stim,false,1,1168.969999998808,1,1,2,17861,WMM2,846290,false,false,1021,image-keyboard-response,28
true,9,2,4,2,true,d,false,true,0.0-2.0-0.35-0.315-3.315,1,0,1,68,false,stim,false,2,498.91500012017787,1,1,1,17861,WMM2,848319,false,false,1024,image-keyboard-response,29
true,9,1,4,1,true,z,false,true,0.0-2.0-0.35-0.316-3.316,1,0,1,90,false,stim,false,1,523.9499998278916,1,1,2,17861,WMM2,850375,false,false,1027,image-keyboard-response,30
true,10,1,2,1,true,z,false,true,0.0-2.0-0.35-0.317-3.317,0,1,1,90,true,stim,false,1,478.53500000201166,1,1,2,17861,WMM2,852377,false,false,1030,image-keyboard-response,1
true,10,2,2,1,false,z,false,false,0.0-2.0-0.35-0.318-3.318,0,1,1,68,false,stim,true,2,708.1549998838454,1,0,0,17861,WMM2,854608,false,false,1033,image-keyboard-response,2
true,10,2,2,2,true,d,false,true,0.0-2.0-0.35-0.319-3.319,0,1,1,68,false,stim,false,2,539.6200001705438,1,1,1,17861,WMM2,856668,false,false,1036,image-keyboard-response,3
true,10,2,2,1,false,z,false,false,0.0-2.0-0.35-0.320-3.320,0,1,1,68,false,stim,true,2,511.52499997988343,1,0,0,17861,WMM2,858716,false,false,1039,image-keyboard-response,4
true,10,2,2,2,true,d,false,true,0.0-2.0-0.35-0.321-3.321,0,1,1,68,false,stim,false,2,994.1749998833984,1,1,1,17861,WMM2,861229,false,false,1042,image-keyboard-response,5
true,10,1,2,1,true,z,false,true,0.0-2.0-0.35-0.322-3.322,0,1,1,90,false,stim,false,2,408.8800000026822,1,0,0,17861,WMM2,863158,false,false,1045,image-keyboard-response,6
true,10,1,2,1,true,z,false,true,0.0-2.0-0.35-0.323-3.323,0,1,1,90,false,stim,false,1,483.3949999883771,1,1,2,17861,WMM2,865165,false,false,1048,image-keyboard-response,7
true,10,2,2,2,true,d,false,true,0.0-2.0-0.36-0.324-3.324,0,1,1,68,false,stim,false,2,530.3199999034405,1,1,1,17861,WMM2,867226,false,false,1051,image-keyboard-response,8
true,10,1,2,1,true,z,false,true,0.0-2.0-0.36-0.325-3.325,0,1,1,90,false,stim,false,1,641.2750000599772,1,1,2,17861,WMM2,869386,false,false,1054,image-keyboard-response,9
true,10,2,2,2,true,d,false,false,0.0-2.0-0.36-0.326-3.326,0,1,1,68,false,stim,false,2,481.8899999372661,1,1,1,17861,WMM2,871391,false,true,1057,image-keyboard-response,10
true,10,1,2,1,true,z,false,true,0.0-2.0-0.36-0.327-3.327,0,1,1,90,false,stim,false,2,677.1400000434369,1,0,0,17861,WMM2,873602,false,false,1060,image-keyboard-response,11
true,10,2,2,2,true,d,false,true,0.0-2.0-0.36-0.328-3.328,0,1,1,68,false,stim,false,2,668.3999998494983,1,1,1,17861,WMM2,875790,false,false,1063,image-keyboard-response,12
true,10,1,2,1,true,z,false,true,0.0-2.0-0.36-0.329-3.329,0,1,1,90,false,stim,false,2,572.7300001308322,1,0,0,17861,WMM2,877893,false,false,1066,image-keyboard-response,13
true,10,1,2,1,true,z,false,true,0.0-2.0-0.36-0.330-3.330,0,1,1,90,false,stim,false,2,460.84999991580844,1,0,0,17861,WMM2,879879,false,false,1069,image-keyboard-response,14
true,10,1,2,1,true,z,false,true,0.0-2.0-0.36-0.331-3.331,0,1,1,90,false,stim,false,1,1257.8649998176843,1,1,2,17861,WMM2,882658,false,false,1072,image-keyboard-response,15
true,10,1,2,1,true,z,false,true,0.0-2.0-0.36-0.332-3.332,0,1,1,90,false,stim,false,1,615.9000000916421,1,1,2,17861,WMM2,884798,false,false,1075,image-keyboard-response,16
true,10,1,2,1,true,z,false,true,0.0-2.0-0.37-0.333-3.333,0,1,1,90,false,stim,false,2,1218.7200000043958,1,0,0,17861,WMM2,887547,false,false,1078,image-keyboard-response,17
true,10,1,2,1,true,z,false,true,0.0-2.0-0.37-0.334-3.334,0,1,1,90,false,stim,false,1,968.3149999473244,1,1,2,17861,WMM2,890045,false,false,1081,image-keyboard-response,18
true,10,1,2,1,true,z,false,true,0.0-2.0-0.37-0.335-3.335,0,1,1,90,false,stim,false,2,456.5650001168251,1,0,0,17861,WMM2,892032,false,false,1084,image-keyboard-response,19
true,10,2,2,2,true,d,false,true,0.0-2.0-0.37-0.336-3.336,0,1,1,68,false,stim,false,2,900.9350000414997,1,1,1,17861,WMM2,894442,false,false,1087,image-keyboard-response,20
true,10,1,2,1,true,z,false,false,0.0-2.0-0.37-0.337-3.337,0,1,1,90,false,stim,false,1,776.0749999433756,1,1,2,17861,WMM2,896747,false,true,1090,image-keyboard-response,21
true,10,2,2,2,true,d,false,true,0.0-2.0-0.37-0.338-3.338,0,1,1,68,false,stim,false,2,1067.8999999072403,1,0,1,17861,WMM2,899337,false,false,1093,image-keyboard-response,22
true,10,1,2,1,true,z,false,true,0.0-2.0-0.37-0.339-3.339,0,1,1,90,false,stim,false,1,440.7750000245869,1,1,2,17861,WMM2,901307,false,false,1096,image-keyboard-response,23
true,10,1,2,1,true,z,false,true,0.0-2.0-0.37-0.340-3.340,0,1,1,90,false,stim,false,2,799.1299999412149,1,0,0,17861,WMM2,903631,false,false,1099,image-keyboard-response,24
true,10,2,2,2,true,d,false,true,0.0-2.0-0.37-0.341-3.341,0,1,1,68,false,stim,false,2,1868.88000019826,1,0,1,17861,WMM2,907031,false,false,1102,image-keyboard-response,25
true,10,1,2,1,true,z,false,true,0.0-2.0-0.38-0.342-3.342,0,1,1,90,false,stim,false,1,546.9100000336766,1,1,2,17861,WMM2,909107,false,false,1105,image-keyboard-response,26
true,10,1,2,1,true,z,false,true,0.0-2.0-0.38-0.343-3.343,0,1,1,90,false,stim,false,2,637.3900000471622,1,0,0,17861,WMM2,911262,false,false,1108,image-keyboard-response,27
true,10,2,2,2,true,d,false,true,0.0-2.0-0.38-0.344-3.344,0,1,1,68,false,stim,false,2,637.6749998889863,1,0,1,17861,WMM2,913427,false,false,1111,image-keyboard-response,28
true,10,1,2,1,true,z,false,true,0.0-2.0-0.38-0.345-3.345,0,1,1,90,false,stim,false,2,479.8899998422712,1,0,0,17861,WMM2,915434,false,false,1114,image-keyboard-response,29
true,10,2,2,2,true,d,false,false,0.0-2.0-0.38-0.346-3.346,0,1,1,68,false,stim,false,2,952.8150002006441,1,0,1,17861,WMM2,917904,false,true,1117,image-keyboard-response,30
true,11,1,1,1,true,z,false,true,0.0-2.0-0.38-0.347-3.347,0,0,1,90,true,stim,false,1,1172.349999891594,1,1,2,17861,WMM2,920605,false,false,1120,image-keyboard-response,1
true,11,1,1,1,true,z,false,false,0.0-2.0-0.38-0.348-3.348,0,0,1,90,false,stim,false,1,643.8349999953061,1,1,2,17861,WMM2,922775,false,true,1123,image-keyboard-response,2
true,11,1,1,2,false,d,false,false,0.0-2.0-0.38-0.349-3.349,0,0,1,90,false,stim,true,1,668.0100001394749,1,0,0,17861,WMM2,924963,false,false,1126,image-keyboard-response,3
true,11,2,1,0,false,q,false,false,0.0-2.0-0.38-0.350-3.350,0,0,1,68,false,stim,true,2,736.2849998753518,1,0,1,17861,WMM2,927228,false,false,1129,image-keyboard-response,4
true,11,1,1,2,false,d,false,false,0.0-2.0-0.39-0.351-3.351,0,0,1,90,false,stim,true,1,476.29500017501414,1,0,0,17861,WMM2,929234,false,false,1132,image-keyboard-response,5
true,11,0,1,2,false,d,true,false,0.0-2.0-0.39-0.352-3.352,0,0,1,81,false,stim,false,1,1828.8350000511855,1,0,0,17861,WMM2,932585,false,false,1135,image-keyboard-response,6
true,11,0,1,0,true,q,false,false,0.0-2.0-0.39-0.353-3.353,0,0,1,81,false,stim,false,2,825.0899999402463,1,0,1,17861,WMM2,934930,false,true,1138,image-keyboard-response,7
true,11,0,1,2,false,d,true,false,0.0-2.0-0.39-0.354-3.354,0,0,1,81,false,stim,false,1,713.8400000985712,1,0,0,17861,WMM2,937166,false,false,1141,image-keyboard-response,8
true,11,1,1,0,false,q,true,false,0.0-2.0-0.39-0.355-3.355,0,0,1,90,false,stim,false,2,1550.1099999528378,1,0,1,17861,WMM2,940249,false,false,1144,image-keyboard-response,9
true,11,1,1,1,true,z,false,true,0.0-2.0-0.39-0.356-3.356,0,0,1,90,false,stim,false,1,868.7549999449402,1,1,2,17861,WMM2,942634,false,false,1147,image-keyboard-response,10
true,11,1,1,1,true,z,false,true,0.0-2.0-0.39-0.357-3.357,0,0,1,90,false,stim,false,1,571.7849999200553,1,1,2,17861,WMM2,944733,false,false,1150,image-keyboard-response,11
true,11,2,1,0,false,q,false,false,0.0-2.0-0.39-0.358-3.358,0,0,1,68,false,stim,true,2,657.6999998651445,1,0,1,17861,WMM2,946915,false,false,1153,image-keyboard-response,12
true,11,1,1,1,true,z,false,true,0.0-2.0-0.39-0.359-3.359,0,0,1,90,false,stim,false,1,586.5500001236796,1,1,2,17861,WMM2,949027,false,false,1156,image-keyboard-response,13
true,11,2,1,0,false,q,false,false,0.0-2.0-0.40-0.360-3.360,0,0,1,68,false,stim,true,2,1310.4399999137968,1,0,1,17861,WMM2,951866,false,false,1159,image-keyboard-response,14
true,11,1,1,1,true,z,false,true,0.0-2.0-0.40-0.361-3.361,0,0,1,90,false,stim,false,1,886.2250000238419,1,1,2,17861,WMM2,954273,false,false,1162,image-keyboard-response,15
true,11,0,1,0,true,q,false,false,0.0-2.0-0.40-0.362-3.362,0,0,1,81,false,stim,false,2,535.6750001665205,1,0,1,17861,WMM2,956336,false,true,1165,image-keyboard-response,16
true,11,0,1,2,false,d,true,false,0.0-2.0-0.40-0.363-3.363,0,0,1,81,false,stim,false,1,1197.6450001820922,1,0,0,17861,WMM2,959064,false,false,1168,image-keyboard-response,17
true,11,2,1,2,true,d,false,true,0.0-2.0-0.40-0.364-3.364,0,0,1,68,false,stim,false,1,365.6150000169873,1,0,0,17861,WMM2,960947,false,false,1171,image-keyboard-response,18
true,11,2,1,2,true,d,false,true,0.0-2.0-0.40-0.365-3.365,0,0,1,68,false,stim,false,1,654.0650001261383,1,0,0,17861,WMM2,963133,false,false,1174,image-keyboard-response,19
true,11,1,1,0,false,q,true,false,0.0-2.0-0.40-0.366-3.366,0,0,1,90,false,stim,false,2,424.2699998430908,1,0,1,17861,WMM2,965085,false,false,1177,image-keyboard-response,20
true,11,1,1,1,true,z,false,true,0.0-2.0-0.40-0.367-3.367,0,0,1,90,false,stim,false,1,681.5649999771267,1,1,2,17861,WMM2,967289,false,false,1180,image-keyboard-response,21
true,11,1,1,1,true,z,false,true,0.0-2.0-0.40-0.368-3.368,0,0,1,90,false,stim,false,1,697.9000000283122,1,1,2,17861,WMM2,969520,false,false,1183,image-keyboard-response,22
true,11,0,1,0,true,q,false,true,0.0-2.0-0.41-0.369-3.369,0,0,1,81,false,stim,false,2,1616.3749999832362,1,0,1,17861,WMM2,972671,false,false,1186,image-keyboard-response,23
true,11,1,1,1,true,z,false,true,0.0-2.0-0.41-0.370-3.370,0,0,1,90,false,stim,false,1,883.5499999113381,1,1,2,17861,WMM2,975069,false,false,1189,image-keyboard-response,24
true,11,1,1,1,true,z,false,true,0.0-2.0-0.41-0.371-3.371,0,0,1,90,false,stim,false,1,721.129999961704,1,1,2,17861,WMM2,977320,false,false,1192,image-keyboard-response,25
true,11,2,1,2,true,d,false,true,0.0-2.0-0.41-0.372-3.372,0,0,1,68,false,stim,false,1,1515.0349999312311,1,0,0,17861,WMM2,980349,false,false,1195,image-keyboard-response,26
true,11,0,1,0,true,q,false,false,0.0-2.0-0.41-0.373-3.373,0,0,1,81,false,stim,false,2,581.6450000274926,1,0,1,17861,WMM2,982461,false,true,1198,image-keyboard-response,27
true,11,2,1,2,true,d,false,true,0.0-2.0-0.41-0.374-3.374,0,0,1,68,false,stim,false,1,807.9800000414252,1,0,0,17861,WMM2,984807,false,false,1201,image-keyboard-response,28
true,11,0,1,0,true,q,false,true,0.0-2.0-0.41-0.375-3.375,0,0,1,81,false,stim,false,2,454.38500004820526,1,1,1,17861,WMM2,986779,false,false,1204,image-keyboard-response,29
true,11,2,1,2,true,d,false,true,0.0-2.0-0.41-0.376-3.376,0,0,1,68,false,stim,false,1,1258.5299999918789,1,0,0,17861,WMM2,989566,false,false,1207,image-keyboard-response,30
true,11,1,1,1,true,z,false,true,0.0-2.0-0.41-0.377-3.377,0,0,1,90,false,stim,false,1,522.7500000037253,1,1,2,17861,WMM2,991611,false,false,1210,image-keyboard-response,31
true,11,2,1,2,true,d,false,true,0.0-2.0-0.42-0.378-3.378,0,0,1,68,false,stim,false,1,657.5499998871237,1,0,0,17861,WMM2,993793,false,false,1213,image-keyboard-response,32
true,11,0,1,0,true,q,false,true,0.0-2.0-0.42-0.379-3.379,0,0,1,81,false,stim,false,2,924.1000001784414,1,1,1,17861,WMM2,996242,false,false,1216,image-keyboard-response,33
true,11,2,1,1,false,z,true,true,0.0-2.0-0.42-0.380-3.380,0,0,1,68,false,stim,false,1,889.1749999020249,1,1,2,17861,WMM2,998654,false,true,1219,image-keyboard-response,34
true,11,0,1,0,true,q,false,true,0.0-2.0-0.42-0.381-3.381,0,0,1,81,false,stim,false,2,649.6649999171495,1,1,1,17861,WMM2,1000829,false,false,1222,image-keyboard-response,35
true,11,2,1,1,false,z,true,false,0.0-2.0-0.42-0.382-3.382,0,0,1,68,false,stim,false,1,766.509999986738,1,1,2,17861,WMM2,1003127,false,false,1225,image-keyboard-response,36
true,11,0,1,0,true,q,false,true,0.0-2.0-0.42-0.383-3.383,0,0,1,81,false,stim,false,2,889.7750000469387,1,1,1,17861,WMM2,1005550,false,false,1228,image-keyboard-response,37
true,12,1,2,1,true,z,false,true,0.0-2.0-0.42-0.384-3.384,0,1,1,90,true,stim,false,1,438.6549999471754,1,1,2,17861,WMM2,1007512,false,false,1231,image-keyboard-response,1
true,12,2,2,0,false,q,false,false,0.0-2.0-0.42-0.385-3.385,0,1,1,68,false,stim,true,2,616.2449999246746,1,0,0,17861,WMM2,1009655,false,false,1234,image-keyboard-response,2
true,12,2,2,0,false,q,false,false,0.0-2.0-0.42-0.386-3.386,0,1,1,68,false,stim,true,2,498.15499992109835,1,0,0,17861,WMM2,1011685,false,false,1237,image-keyboard-response,3
true,12,2,2,0,false,q,false,false,0.0-2.0-0.43-0.387-3.387,0,1,1,68,false,stim,true,2,468.5150000732392,1,0,0,17861,WMM2,1013676,false,false,1240,image-keyboard-response,4
true,12,0,2,0,true,q,false,true,0.0-2.0-0.43-0.388-3.388,0,1,1,81,false,stim,false,0,925.1049999147654,1,1,1,17861,WMM2,1016124,false,false,1243,image-keyboard-response,5
true,12,1,2,1,true,z,false,true,0.0-2.0-0.43-0.389-3.389,0,1,1,90,false,stim,false,1,569.1450000740588,1,1,2,17861,WMM2,1018217,false,false,1246,image-keyboard-response,6
true,12,1,2,1,true,z,false,true,0.0-2.0-0.43-0.390-3.390,0,1,1,90,false,stim,false,1,696.9249998219311,1,1,2,17861,WMM2,1020443,false,false,1249,image-keyboard-response,7
true,12,0,2,0,true,q,false,false,0.0-2.0-0.43-0.391-3.391,0,1,1,81,false,stim,false,2,1371.6249999124557,1,0,0,17861,WMM2,1023332,false,true,1252,image-keyboard-response,8
true,12,0,2,0,true,q,false,true,0.0-2.0-0.43-0.392-3.392,0,1,1,81,false,stim,false,0,906.5199999604374,1,1,1,17861,WMM2,1025765,false,false,1255,image-keyboard-response,9
true,12,1,2,1,true,z,false,true,0.0-2.0-0.43-0.393-3.393,0,1,1,90,false,stim,false,1,491.440000012517,1,1,2,17861,WMM2,1027781,false,false,1258,image-keyboard-response,10
true,12,0,2,0,true,q,false,true,0.0-2.0-0.43-0.394-3.394,0,1,1,81,false,stim,false,0,759.0149999596179,1,1,1,17861,WMM2,1030063,false,false,1261,image-keyboard-response,11
true,12,1,2,0,false,q,true,false,0.0-2.0-0.43-0.395-3.395,0,1,1,90,false,stim,false,2,420.6899998243898,1,0,0,17861,WMM2,1032006,false,false,1264,image-keyboard-response,12
true,12,2,2,0,false,q,false,false,0.0-2.0-0.44-0.396-3.396,0,1,1,68,false,stim,true,2,465.935000218451,1,0,0,17861,WMM2,1033999,false,false,1267,image-keyboard-response,13
true,12,1,2,1,true,z,false,true,0.0-2.0-0.44-0.397-3.397,0,1,1,90,false,stim,false,1,665.2550001163036,1,1,2,17861,WMM2,1036199,false,false,1270,image-keyboard-response,14
true,12,0,2,0,true,q,false,true,0.0-2.0-0.44-0.398-3.398,0,1,1,81,false,stim,false,0,578.7249999120831,1,1,1,17861,WMM2,1038309,false,false,1273,image-keyboard-response,15
true,12,2,2,0,false,q,false,false,0.0-2.0-0.44-0.399-3.399,0,1,1,68,false,stim,true,2,943.5350000858307,1,0,0,17861,WMM2,1040772,false,false,1276,image-keyboard-response,16
true,12,2,2,0,false,q,false,false,0.0-2.0-0.44-0.400-3.400,0,1,1,68,false,stim,true,2,1373.9400000777096,1,0,0,17861,WMM2,1043667,false,false,1279,image-keyboard-response,17
true,12,1,2,1,true,z,false,false,0.0-2.0-0.44-0.401-3.401,0,1,1,90,false,stim,false,1,750.8700001053512,1,1,2,17861,WMM2,1045942,false,true,1282,image-keyboard-response,18
true,12,1,2,1,true,z,false,true,0.0-2.0-0.44-0.402-3.402,0,1,1,90,false,stim,false,1,502.1500000730157,1,1,2,17861,WMM2,1047975,false,false,1285,image-keyboard-response,19
true,12,0,2,0,true,q,false,true,0.0-2.0-0.44-0.403-3.403,0,1,1,81,false,stim,false,0,598.5799999907613,1,1,1,17861,WMM2,1050085,false,false,1288,image-keyboard-response,20
true,12,0,2,0,true,q,false,true,0.0-2.0-0.44-0.404-3.404,0,1,1,81,false,stim,false,0,518.8349999953061,1,1,1,17861,WMM2,1052138,false,false,1291,image-keyboard-response,21
true,12,0,2,0,true,q,false,true,0.0-2.0-0.45-0.405-3.405,0,1,1,81,false,stim,false,2,1652.3499998729676,1,0,0,17861,WMM2,1055302,false,false,1294,image-keyboard-response,22
true,12,0,2,0,true,q,false,true,0.0-2.0-0.45-0.406-3.406,0,1,1,81,false,stim,false,0,561.0299999825656,1,1,1,17861,WMM2,1057392,false,false,1297,image-keyboard-response,23
true,12,0,2,0,true,q,false,true,0.0-2.0-0.45-0.407-3.407,0,1,1,81,false,stim,false,0,550.2600001636893,1,1,1,17861,WMM2,1059462,false,false,1300,image-keyboard-response,24
true,12,0,2,0,true,q,false,true,0.0-2.0-0.45-0.408-3.408,0,1,1,81,false,stim,false,0,526.0149999521673,1,1,1,17861,WMM2,1061504,false,false,1303,image-keyboard-response,25
true,12,0,2,0,true,q,false,true,0.0-2.0-0.45-0.409-3.409,0,1,1,81,false,stim,false,2,645.4750001430511,1,0,0,17861,WMM2,1063670,false,false,1306,image-keyboard-response,26
true,12,1,2,1,true,z,false,true,0.0-2.0-0.45-0.410-3.410,0,1,1,90,false,stim,false,1,531.2749999575317,1,0,2,17861,WMM2,1065721,false,false,1309,image-keyboard-response,27
true,12,1,2,1,true,z,false,true,0.0-2.0-0.45-0.411-3.411,0,1,1,90,false,stim,false,1,616.4600001648068,1,0,2,17861,WMM2,1067856,false,false,1312,image-keyboard-response,28
true,12,0,2,0,true,q,false,true,0.0-2.0-0.45-0.412-3.412,0,1,1,81,false,stim,false,2,586.4550000987947,1,0,0,17861,WMM2,1069973,false,false,1315,image-keyboard-response,29
true,12,1,2,1,true,z,false,true,0.0-2.0-0.45-0.413-3.413,0,1,1,90,false,stim,false,1,594.08999979496,1,0,2,17861,WMM2,1072095,false,false,1318,image-keyboard-response,30
true,12,1,2,1,true,z,false,false,0.0-2.0-0.46-0.414-3.414,0,1,1,90,false,stim,false,1,717.5050000660121,1,0,2,17861,WMM2,1074334,false,true,1321,image-keyboard-response,31
true,12,0,2,0,true,q,false,true,0.0-2.0-0.46-0.415-3.415,0,1,1,81,false,stim,false,2,604.7299997881055,1,0,0,17861,WMM2,1076469,false,false,1324,image-keyboard-response,32
true,12,0,2,0,true,q,false,true,0.0-2.0-0.46-0.416-3.416,0,1,1,81,false,stim,false,0,497.3799998406321,1,1,1,17861,WMM2,1078493,false,false,1327,image-keyboard-response,33
true,12,0,2,0,true,q,false,true,0.0-2.0-0.46-0.417-3.417,0,1,1,81,false,stim,false,2,686.710000038147,1,0,0,17861,WMM2,1080697,false,false,1330,image-keyboard-response,34
true,12,1,2,1,true,z,false,true,0.0-2.0-0.46-0.418-3.418,0,1,1,90,false,stim,false,1,562.2849999926984,1,0,2,17861,WMM2,1082788,false,false,1333,image-keyboard-response,35
true,12,0,2,0,true,q,false,false,0.0-2.0-0.46-0.419-3.419,0,1,1,81,false,stim,false,2,376.6000000759959,1,0,0,17861,WMM2,1084683,false,true,1336,image-keyboard-response,36
true,13,0,1,0,true,q,false,false,0.0-2.0-0.46-0.420-3.420,0,1,0,81,true,stim,false,0,585.0550001487136,1,1,1,17861,WMM2,1086790,false,true,1339,image-keyboard-response,1
true,13,1,1,2,false,d,false,false,0.0-2.0-0.46-0.421-3.421,0,1,0,90,false,stim,true,1,547.1850000321865,1,0,2,17861,WMM2,1088867,false,false,1342,image-keyboard-response,2
true,13,0,1,0,true,q,false,false,0.0-2.0-0.46-0.422-3.422,0,1,0,81,false,stim,false,0,515.275000128895,1,1,1,17861,WMM2,1090900,false,true,1345,image-keyboard-response,3
true,13,0,1,0,true,q,false,true,0.0-2.0-0.47-0.423-3.423,0,1,0,81,false,stim,false,0,2002.169999992475,1,1,1,17861,WMM2,1094436,false,false,1348,image-keyboard-response,4
true,13,1,1,0,false,q,true,false,0.0-2.0-0.47-0.424-3.424,0,1,0,90,false,stim,false,0,494.55000017769635,1,1,1,17861,WMM2,1096458,false,false,1351,image-keyboard-response,5
true,13,0,1,2,false,d,false,false,0.0-2.0-0.47-0.425-3.425,0,1,0,81,false,stim,true,0,769.2549999337643,1,0,0,17861,WMM2,1098747,false,false,1354,image-keyboard-response,6
true,13,0,1,2,false,d,false,true,0.0-2.0-0.47-0.426-3.426,0,1,0,81,false,stim,true,0,1202.8799999970943,1,0,0,17861,WMM2,1101478,false,true,1357,image-keyboard-response,7
true,13,0,1,0,true,q,false,true,0.0-2.0-0.47-0.427-3.427,0,1,0,81,false,stim,false,0,766.1999999545515,1,1,1,17861,WMM2,1103774,false,false,1360,image-keyboard-response,8
true,13,1,1,2,false,d,false,false,0.0-2.0-0.47-0.428-3.428,0,1,0,90,false,stim,true,1,506.56000012531877,1,0,2,17861,WMM2,1105811,false,false,1363,image-keyboard-response,9
true,13,0,1,2,false,d,false,false,0.0-2.0-0.47-0.429-3.429,0,1,0,81,false,stim,true,0,720.6599998753518,1,0,0,17861,WMM2,1108057,false,false,1366,image-keyboard-response,10
true,13,1,1,2,false,d,false,false,0.0-2.0-0.47-0.430-3.430,0,1,0,90,false,stim,true,1,859.1099998448044,1,0,2,17861,WMM2,1110443,false,false,1369,image-keyboard-response,11
true,13,0,1,2,false,d,true,false,0.0-2.0-0.47-0.431-3.431,0,1,0,81,false,stim,false,1,761.8299999739975,1,0,2,17861,WMM2,1112728,false,false,1372,image-keyboard-response,12
true,13,0,1,0,true,q,false,false,0.0-2.0-0.48-0.432-3.432,0,1,0,81,false,stim,false,0,749.7050000820309,1,1,1,17861,WMM2,1114997,false,true,1375,image-keyboard-response,13
true,13,2,1,2,true,d,false,true,0.0-2.0-0.48-0.433-3.433,0,1,0,68,false,stim,false,0,1308.214999968186,1,0,0,17861,WMM2,1117837,false,false,1378,image-keyboard-response,14
true,13,1,1,2,false,d,false,false,0.0-2.0-0.48-0.434-3.434,0,1,0,90,false,stim,true,1,938.5049999691546,1,0,2,17861,WMM2,1120299,false,false,1381,image-keyboard-response,15
true,13,2,1,2,true,d,false,true,0.0-2.0-0.48-0.435-3.435,0,1,0,68,false,stim,false,1,426.85499996878207,1,0,2,17861,WMM2,1122251,false,false,1384,image-keyboard-response,16
true,13,2,1,2,true,d,false,true,0.0-2.0-0.48-0.436-3.436,0,1,0,68,false,stim,false,0,883.475000038743,1,0,0,17861,WMM2,1124655,false,false,1387,image-keyboard-response,17
true,13,2,1,2,true,d,false,true,0.0-2.0-0.48-0.437-3.437,0,1,0,68,false,stim,false,0,623.0899998918176,1,0,0,17861,WMM2,1126810,false,false,1390,image-keyboard-response,18
true,13,2,1,2,true,d,false,false,0.0-2.0-0.48-0.438-3.438,0,1,0,68,false,stim,false,1,502.20999983139336,1,0,2,17861,WMM2,1128838,false,true,1393,image-keyboard-response,19
true,13,1,1,0,false,q,true,false,0.0-2.0-0.48-0.439-3.439,0,1,0,90,false,stim,false,0,1991.1299999803305,1,1,1,17861,WMM2,1132357,false,false,1396,image-keyboard-response,20
true,13,0,1,0,true,q,false,true,0.0-2.0-0.48-0.440-3.440,0,1,0,81,false,stim,false,0,309.67499990947545,1,1,1,17861,WMM2,1134174,false,false,1399,image-keyboard-response,21
true,13,2,1,2,true,d,false,true,0.0-2.0-0.49-0.441-3.441,0,1,0,68,false,stim,false,1,604.1400001849979,1,0,2,17861,WMM2,1136300,false,false,1402,image-keyboard-response,22
true,13,0,1,0,true,q,false,true,0.0-2.0-0.49-0.442-3.442,0,1,0,81,false,stim,false,0,502.37499992363155,1,1,1,17861,WMM2,1138329,false,false,1405,image-keyboard-response,23
true,13,2,1,2,true,d,false,true,0.0-2.0-0.49-0.443-3.443,0,1,0,68,false,stim,false,0,791.8050000444055,1,1,0,17861,WMM2,1140650,false,false,1408,image-keyboard-response,24
true,13,2,1,2,true,d,false,true,0.0-2.0-0.49-0.444-3.444,0,1,0,68,false,stim,false,1,599.1950000170618,1,0,2,17861,WMM2,1142773,false,false,1411,image-keyboard-response,25
true,13,0,1,0,true,q,false,false,0.0-2.0-0.49-0.445-3.445,0,1,0,81,false,stim,false,0,679.9800000153482,1,1,1,17861,WMM2,1144985,false,true,1414,image-keyboard-response,26
true,13,2,1,2,true,d,false,true,0.0-2.0-0.49-0.446-3.446,0,1,0,68,false,stim,false,1,593.9150000922382,1,0,2,17861,WMM2,1147098,false,false,1417,image-keyboard-response,27
true,13,0,1,0,true,q,false,true,0.0-2.0-0.49-0.447-3.447,0,1,0,81,false,stim,false,0,683.4200001321733,1,1,1,17861,WMM2,1149301,false,false,1420,image-keyboard-response,28
true,13,2,1,2,true,d,false,false,0.0-2.0-0.49-0.448-3.448,0,1,0,68,false,stim,false,0,1040.9649999346584,1,1,0,17861,WMM2,1151873,false,true,1423,image-keyboard-response,29
true,13,2,1,2,true,d,false,true,0.0-2.0-0.49-0.449-3.449,0,1,0,68,false,stim,false,0,601.3350000139326,1,1,0,17861,WMM2,1153998,false,false,1426,image-keyboard-response,30
true,13,2,1,2,true,d,false,true,0.0-2.0-0.50-0.450-3.450,0,1,0,68,false,stim,false,0,508.80499999038875,1,1,0,17861,WMM2,1156038,false,false,1429,image-keyboard-response,31
true,13,2,1,2,true,d,false,true,0.0-2.0-0.50-0.451-3.451,0,1,0,68,false,stim,false,0,1264.9850000161678,1,1,0,17861,WMM2,1158825,false,false,1432,image-keyboard-response,32
true,13,2,1,2,true,d,false,true,0.0-2.0-0.50-0.452-3.452,0,1,0,68,false,stim,false,1,1218.6699998565018,1,0,2,17861,WMM2,1161575,false,false,1435,image-keyboard-response,33
true,14,1,0,2,false,d,true,false,0.0-2.0-0.50-0.453-3.453,1,1,0,90,true,stim,false,2,1854.1149999946356,1,1,0,17861,WMM2,1286519,false,false,1558,image-keyboard-response,1
true,14,0,0,0,true,q,false,true,0.0-2.0-0.50-0.454-3.454,1,1,0,81,false,stim,false,0,1050.3249999601394,1,1,1,17861,WMM2,1289096,false,false,1561,image-keyboard-response,2
true,14,2,0,2,true,d,false,true,0.0-2.0-0.50-0.455-3.455,1,1,0,68,false,stim,false,2,950.5549999885261,1,0,2,17861,WMM2,1291577,false,false,1564,image-keyboard-response,3
true,14,0,0,0,true,q,false,true,0.0-2.0-0.50-0.456-3.456,1,1,0,81,false,stim,false,0,1887.6600000075996,1,1,1,17861,WMM2,1294993,false,false,1567,image-keyboard-response,4
true,14,0,0,0,true,q,false,true,0.0-2.0-0.50-0.457-3.457,1,1,0,81,false,stim,false,0,1030.6849998887628,1,1,1,17861,WMM2,1297552,false,false,1570,image-keyboard-response,5
true,14,2,0,2,true,d,false,true,0.0-2.0-0.50-0.458-3.458,1,1,0,68,false,stim,false,2,1022.6300000213087,1,0,2,17861,WMM2,1300082,false,false,1573,image-keyboard-response,6
true,14,1,0,2,false,d,true,false,0.0-2.0-0.51-0.459-3.459,1,1,0,90,false,stim,false,2,832.494999980554,1,1,0,17861,WMM2,1302434,false,false,1576,image-keyboard-response,7
true,14,1,0,2,false,d,true,false,0.0-2.0-0.51-0.460-3.460,1,1,0,90,false,stim,false,2,495.24500011466444,1,0,2,17861,WMM2,1304461,false,false,1579,image-keyboard-response,8
true,14,0,0,0,true,q,false,true,0.0-2.0-0.51-0.461-3.461,1,1,0,81,false,stim,false,0,419.52500003390014,1,1,1,17861,WMM2,1306399,false,false,1582,image-keyboard-response,9
true,14,2,0,2,true,d,false,false,0.0-2.0-0.51-0.462-3.462,1,1,0,68,false,stim,false,2,646.1549999658018,1,0,2,17861,WMM2,1308574,false,true,1585,image-keyboard-response,10
true,14,0,0,2,false,d,true,false,0.0-2.0-0.51-0.463-3.463,1,1,0,81,false,stim,false,2,1177.0300001371652,1,1,0,17861,WMM2,1311270,false,false,1588,image-keyboard-response,11
true,14,2,0,2,true,d,false,false,0.0-2.0-0.51-0.464-3.464,1,1,0,68,false,stim,false,2,591.2949999328703,1,0,2,17861,WMM2,1313381,false,true,1591,image-keyboard-response,12
true,14,0,0,0,true,q,false,true,0.0-2.0-0.51-0.465-3.465,1,1,0,81,false,stim,false,0,835.6200000271201,1,1,1,17861,WMM2,1315741,false,false,1594,image-keyboard-response,13
true,14,0,0,0,true,q,false,true,0.0-2.0-0.51-0.466-3.466,1,1,0,81,false,stim,false,0,763.0700001027435,1,1,1,17861,WMM2,1318034,false,false,1597,image-keyboard-response,14
true,14,2,0,2,true,d,false,true,0.0-2.0-0.51-0.467-3.467,1,1,0,68,false,stim,false,2,1052.254999987781,1,1,0,17861,WMM2,1320604,false,false,1600,image-keyboard-response,15
true,14,0,0,2,false,d,true,false,0.0-2.0-0.52-0.468-3.468,1,1,0,81,false,stim,false,2,771.100000012666,1,0,2,17861,WMM2,1322903,false,false,1603,image-keyboard-response,16
true,14,0,0,0,true,q,false,false,0.0-2.0-0.52-0.469-3.469,1,1,0,81,false,stim,false,0,1208.9549999218434,1,1,1,17861,WMM2,1325639,false,true,1606,image-keyboard-response,17
true,14,2,0,2,true,d,false,true,0.0-2.0-0.52-0.470-3.470,1,1,0,68,false,stim,false,2,680.0900001544505,1,1,0,17861,WMM2,1327842,false,false,1609,image-keyboard-response,18
true,14,1,0,2,false,d,true,false,0.0-2.0-0.52-0.471-3.471,1,1,0,90,false,stim,false,2,708.7100001517683,1,0,2,17861,WMM2,1330064,false,false,1612,image-keyboard-response,19
true,14,0,0,0,true,q,false,true,0.0-2.0-0.52-0.472-3.472,1,1,0,81,false,stim,false,0,757.8800001647323,1,1,1,17861,WMM2,1332349,false,false,1615,image-keyboard-response,20
true,14,2,0,2,true,d,false,true,0.0-2.0-0.52-0.473-3.473,1,1,0,68,false,stim,false,2,918.8299998641014,1,1,0,17861,WMM2,1334791,false,false,1618,image-keyboard-response,21
true,14,2,0,2,true,d,false,true,0.0-2.0-0.52-0.474-3.474,1,1,0,68,false,stim,false,2,419.9149999767542,1,0,2,17861,WMM2,1336740,false,false,1621,image-keyboard-response,22
true,14,2,0,2,true,d,false,true,0.0-2.0-0.52-0.475-3.475,1,1,0,68,false,stim,false,2,567.879999987781,1,1,0,17861,WMM2,1338836,false,false,1624,image-keyboard-response,23
true,14,0,0,0,true,q,false,true,0.0-2.0-0.52-0.476-3.476,1,1,0,81,false,stim,false,0,685.2100000251085,1,1,1,17861,WMM2,1341052,false,false,1627,image-keyboard-response,24
true,14,0,0,0,true,q,false,true,0.0-2.0-0.53-0.477-3.477,1,1,0,81,false,stim,false,0,881.485000019893,1,1,1,17861,WMM2,1343463,false,false,1630,image-keyboard-response,25
true,14,0,0,0,true,q,false,true,0.0-2.0-0.53-0.478-3.478,1,1,0,81,false,stim,false,0,601.4799999538809,1,1,1,17861,WMM2,1345598,false,false,1633,image-keyboard-response,26
true,14,2,0,2,true,d,false,true,0.0-2.0-0.53-0.479-3.479,1,1,0,68,false,stim,false,2,879.8149998765439,1,0,2,17861,WMM2,1348007,false,false,1636,image-keyboard-response,27
true,14,2,0,2,true,d,false,true,0.0-2.0-0.53-0.480-3.480,1,1,0,68,false,stim,false,2,850.9599999524653,1,1,0,17861,WMM2,1350376,false,false,1639,image-keyboard-response,28
true,14,0,0,0,true,q,false,true,0.0-2.0-0.53-0.481-3.481,1,1,0,81,false,stim,false,0,501.93000002764165,1,0,1,17861,WMM2,1352409,false,false,1642,image-keyboard-response,29
true,14,2,0,2,true,d,false,true,0.0-2.0-0.53-0.482-3.482,1,1,0,68,false,stim,false,2,987.9199999850243,1,1,0,17861,WMM2,1354926,false,false,1645,image-keyboard-response,30
true,14,2,0,2,true,d,false,true,0.0-2.0-0.53-0.483-3.483,1,1,0,68,false,stim,false,2,545.7850000821054,1,1,0,17861,WMM2,1356998,false,false,1648,image-keyboard-response,31
true,14,2,0,2,true,d,false,true,0.0-2.0-0.53-0.484-3.484,1,1,0,68,false,stim,false,2,1255.0550000742078,1,1,2,17861,WMM2,1359772,false,false,1651,image-keyboard-response,32
true,14,2,0,2,true,d,false,true,0.0-2.0-0.53-0.485-3.485,1,1,0,68,false,stim,false,2,541.0250001586974,1,1,2,17861,WMM2,1361839,false,false,1654,image-keyboard-response,33
true,14,2,0,2,true,d,false,true,0.0-2.0-0.54-0.486-3.486,1,1,0,68,false,stim,false,2,543.0350000970066,1,1,2,17861,WMM2,1363906,false,false,1657,image-keyboard-response,34
true,14,2,0,2,true,d,false,false,0.0-2.0-0.54-0.487-3.487,1,1,0,68,false,stim,false,2,617.2200001310557,1,1,0,17861,WMM2,1366045,false,true,1660,image-keyboard-response,35
true,14,2,0,2,true,d,false,false,0.0-2.0-0.54-0.488-3.488,1,1,0,68,false,stim,false,2,497.4149998743087,1,1,0,17861,WMM2,1368074,false,true,1663,image-keyboard-response,36
true,14,0,0,0,true,q,false,false,0.0-2.0-0.54-0.489-3.489,1,1,0,81,false,stim,false,0,556.0399999376386,1,0,1,17861,WMM2,1370148,false,true,1666,image-keyboard-response,37
true,15,0,4,0,true,q,false,true,0.0-2.0-0.54-0.490-3.490,1,0,1,81,true,stim,false,0,526.6150000970811,1,0,1,17861,WMM2,1372199,false,false,1669,image-keyboard-response,1
true,15,2,4,2,true,d,false,true,0.0-2.0-0.54-0.491-3.491,1,0,1,68,false,stim,false,2,535.6000000610948,1,1,2,17861,WMM2,1374242,false,false,1672,image-keyboard-response,2
true,15,2,4,2,true,d,false,true,0.0-2.0-0.54-0.492-3.492,1,0,1,68,false,stim,false,2,757.2500000242144,1,1,2,17861,WMM2,1376526,false,false,1675,image-keyboard-response,3
true,15,2,4,2,true,d,false,false,0.0-2.0-0.54-0.493-3.493,1,0,1,68,false,stim,false,2,501.8199998885393,1,1,0,17861,WMM2,1378552,false,true,1678,image-keyboard-response,4
true,15,0,4,0,true,q,false,false,0.0-2.0-0.54-0.494-3.494,1,0,1,81,false,stim,false,0,650.5849999375641,1,0,1,17861,WMM2,1380733,false,true,1681,image-keyboard-response,5
true,15,1,4,2,false,d,true,false,0.0-2.0-0.55-0.495-3.495,1,0,1,90,false,stim,false,2,651.8950001336634,1,1,0,17861,WMM2,1382916,false,false,1684,image-keyboard-response,6
true,15,2,4,2,true,d,false,true,0.0-2.0-0.55-0.496-3.496,1,0,1,68,false,stim,false,2,929.7050000168383,1,1,2,17861,WMM2,1385374,false,false,1687,image-keyboard-response,7
true,15,0,4,0,true,q,false,true,0.0-2.0-0.55-0.497-3.497,1,0,1,81,false,stim,false,0,1776.300000026822,1,0,1,17861,WMM2,1388670,false,false,1690,image-keyboard-response,8
true,15,0,4,2,false,d,true,false,0.0-2.0-0.55-0.498-3.498,1,0,1,81,false,stim,false,2,510.58000000193715,1,1,0,17861,WMM2,1390702,false,false,1693,image-keyboard-response,9
true,15,0,4,0,true,q,false,true,0.0-2.0-0.55-0.499-3.499,1,0,1,81,false,stim,false,0,627.9399998020381,1,0,1,17861,WMM2,1392849,false,false,1696,image-keyboard-response,10
true,15,2,4,2,true,d,false,true,0.0-2.0-0.55-0.500-3.500,1,0,1,68,false,stim,false,2,702.3599999956787,1,1,2,17861,WMM2,1395073,false,false,1699,image-keyboard-response,11
true,15,0,4,0,true,q,false,false,0.0-2.0-0.55-0.501-3.501,1,0,1,81,false,stim,false,0,1626.1849999427795,1,0,1,17861,WMM2,1398227,false,true,1702,image-keyboard-response,12
true,15,0,4,2,false,d,true,true,0.0-2.0-0.55-0.502-3.502,1,0,1,81,false,stim,false,2,1723.109999904409,1,1,0,17861,WMM2,1401472,false,true,1705,image-keyboard-response,13
true,15,2,4,2,true,d,false,false,0.0-2.0-0.55-0.503-3.503,1,0,1,68,false,stim,false,2,542.4699999857694,1,1,2,17861,WMM2,1403538,false,true,1708,image-keyboard-response,14
true,15,0,4,2,false,d,true,false,0.0-2.0-0.56-0.504-3.504,1,0,1,81,false,stim,false,2,1119.5049998350441,1,1,0,17861,WMM2,1406179,false,false,1711,image-keyboard-response,15
true,15,0,4,2,false,d,true,false,0.0-2.0-0.56-0.505-3.505,1,0,1,81,false,stim,false,2,1063.6149998754263,1,1,0,17861,WMM2,1408772,false,false,1714,image-keyboard-response,16
true,15,0,4,0,true,q,false,true,0.0-2.0-0.56-0.506-3.506,1,0,1,81,false,stim,false,0,1012.7149999607354,1,0,1,17861,WMM2,1411302,false,false,1717,image-keyboard-response,17
true,15,2,4,2,true,d,false,true,0.0-2.0-0.56-0.507-3.507,1,0,1,68,false,stim,false,2,468.5649999883026,1,1,2,17861,WMM2,1413289,false,false,1720,image-keyboard-response,18
true,15,2,4,2,true,d,false,true,0.0-2.0-0.56-0.508-3.508,1,0,1,68,false,stim,false,2,572.4599999375641,1,1,2,17861,WMM2,1415391,false,false,1723,image-keyboard-response,19
true,15,2,4,2,true,d,false,true,0.0-2.0-0.56-0.509-3.509,1,0,1,68,false,stim,false,2,487.8199999220669,1,1,0,17861,WMM2,1417404,false,false,1726,image-keyboard-response,20
true,15,2,4,2,true,d,false,true,0.0-2.0-0.56-0.510-3.510,1,0,1,68,false,stim,false,2,519.1549998708069,1,1,2,17861,WMM2,1419451,false,false,1729,image-keyboard-response,21
true,15,0,4,0,true,q,false,true,0.0-2.0-0.56-0.511-3.511,1,0,1,81,false,stim,false,0,518.974999897182,1,0,1,17861,WMM2,1421498,false,false,1732,image-keyboard-response,22
true,15,0,4,0,true,q,false,true,0.0-2.0-0.56-0.512-3.512,1,0,1,81,false,stim,false,0,519.1399999894202,1,0,1,17861,WMM2,1423547,false,false,1735,image-keyboard-response,23
true,15,0,4,0,true,q,false,true,0.0-2.0-0.57-0.513-3.513,1,0,1,81,false,stim,false,0,428.37500013411045,1,0,1,17861,WMM2,1425504,false,false,1738,image-keyboard-response,24
true,15,0,4,0,true,q,false,true,0.0-2.0-0.57-0.514-3.514,1,0,1,81,false,stim,false,0,363.0349999293685,1,0,1,17861,WMM2,1427388,false,false,1741,image-keyboard-response,25
true,15,2,4,2,true,d,false,true,0.0-2.0-0.57-0.515-3.515,1,0,1,68,false,stim,false,2,936.3400000147521,1,1,0,17861,WMM2,1429859,false,false,1744,image-keyboard-response,26
true,15,2,4,2,true,d,false,true,0.0-2.0-0.57-0.516-3.516,1,0,1,68,false,stim,false,2,713.0150001030415,1,1,2,17861,WMM2,1432099,false,false,1747,image-keyboard-response,27
true,15,2,4,2,true,d,false,false,0.0-2.0-0.57-0.517-3.517,1,0,1,68,false,stim,false,2,886.7599999066442,1,0,0,17861,WMM2,1434506,false,true,1750,image-keyboard-response,28
true,15,2,4,2,true,d,false,true,0.0-2.0-0.57-0.518-3.518,1,0,1,68,false,stim,false,2,659.2349999118596,1,1,2,17861,WMM2,1436693,false,false,1753,image-keyboard-response,29
true,15,2,4,2,true,d,false,true,0.0-2.0-0.57-0.519-3.519,1,0,1,68,false,stim,false,2,729.0149999316782,1,1,2,17861,WMM2,1438944,false,false,1756,image-keyboard-response,30
true,15,0,4,0,true,q,false,true,0.0-2.0-0.57-0.520-3.520,1,0,1,81,false,stim,false,0,529.0500000119209,1,1,1,17861,WMM2,1440993,false,false,1759,image-keyboard-response,31
true,15,2,4,2,true,d,false,true,0.0-2.0-0.57-0.521-3.521,1,0,1,68,false,stim,false,2,402.1199999842793,1,0,0,17861,WMM2,1442913,false,false,1762,image-keyboard-response,32
true,15,2,4,2,true,d,false,false,0.0-2.0-0.58-0.522-3.522,1,0,1,68,false,stim,false,2,856.815000064671,1,1,2,17861,WMM2,1445299,false,true,1765,image-keyboard-response,33
true,15,0,4,0,true,q,false,true,0.0-2.0-0.58-0.523-3.523,1,0,1,81,false,stim,false,0,595.8699998445809,1,1,1,17861,WMM2,1447420,false,false,1768,image-keyboard-response,34
true,15,0,4,0,true,q,false,false,0.0-2.0-0.58-0.524-3.524,1,0,1,81,false,stim,false,0,424.01499999687076,1,1,1,17861,WMM2,1449363,false,true,1771,image-keyboard-response,35
true,15,0,4,0,true,q,false,true,0.0-2.0-0.58-0.525-3.525,1,0,1,81,false,stim,false,0,451.0149999987334,1,1,1,17861,WMM2,1451337,false,false,1774,image-keyboard-response,36
true,16,2,3,1,false,z,false,false,0.0-2.0-0.58-0.526-3.526,0,1,1,68,true,stim,true,2,756.0649998486042,1,0,0,17861,WMM2,1453625,false,false,1777,image-keyboard-response,1
true,16,2,3,1,false,z,false,false,0.0-2.0-0.58-0.527-3.527,0,1,1,68,false,stim,true,2,533.7350000627339,1,0,0,17861,WMM2,1455684,false,false,1780,image-keyboard-response,2
true,16,0,3,2,false,d,true,false,0.0-2.0-0.58-0.528-3.528,0,1,1,81,false,stim,false,2,539.8899998981506,1,1,2,17861,WMM2,1457739,false,false,1783,image-keyboard-response,3
true,16,2,3,2,true,d,false,true,0.0-2.0-0.58-0.529-3.529,0,1,1,68,false,stim,false,2,590.3900000266731,1,1,2,17861,WMM2,1459854,false,false,1786,image-keyboard-response,4
true,16,2,3,1,false,z,false,false,0.0-2.0-0.58-0.530-3.530,0,1,1,68,false,stim,true,2,563.554999884218,1,0,0,17861,WMM2,1461941,false,false,1789,image-keyboard-response,5
true,16,0,3,0,true,q,false,true,0.0-2.0-0.59-0.531-3.531,0,1,1,81,false,stim,false,0,648.9750000182539,1,1,1,17861,WMM2,1464109,false,false,1792,image-keyboard-response,6
true,16,2,3,2,true,d,false,true,0.0-2.0-0.59-0.532-3.532,0,1,1,68,false,stim,false,2,824.7050000354648,1,1,2,17861,WMM2,1466466,false,false,1795,image-keyboard-response,7
true,16,1,3,1,true,z,false,true,0.0-2.0-0.59-0.533-3.533,0,1,1,90,false,stim,false,2,1519.0000000875443,1,0,0,17861,WMM2,1469507,false,false,1798,image-keyboard-response,8
true,16,0,3,0,true,q,false,true,0.0-2.0-0.59-0.534-3.534,0,1,1,81,false,stim,false,0,554.875000147149,1,1,1,17861,WMM2,1471599,false,false,1801,image-keyboard-response,9
true,16,2,3,2,true,d,false,true,0.0-2.0-0.59-0.535-3.535,0,1,1,68,false,stim,false,2,718.66500005126,1,1,2,17861,WMM2,1473831,false,false,1804,image-keyboard-response,10
true,16,2,3,2,true,d,false,true,0.0-2.0-0.59-0.536-3.536,0,1,1,68,false,stim,false,2,538.5400000959635,1,1,2,17861,WMM2,1475888,false,false,1807,image-keyboard-response,11
true,16,1,3,1,true,z,false,true,0.0-2.0-0.59-0.537-3.537,0,1,1,90,false,stim,false,2,507.6800000388175,1,0,0,17861,WMM2,1477922,false,false,1810,image-keyboard-response,12
true,16,0,3,0,true,q,false,true,0.0-2.0-0.59-0.538-3.538,0,1,1,81,false,stim,false,0,558.4700000472367,1,1,1,17861,WMM2,1480004,false,false,1813,image-keyboard-response,13
true,16,1,3,1,true,z,false,true,0.0-2.0-0.59-0.539-3.539,0,1,1,90,false,stim,false,2,398.6549999099225,1,0,0,17861,WMM2,1481925,false,false,1816,image-keyboard-response,14
true,16,0,3,0,true,q,false,false,0.0-2.0-0.60-0.540-3.540,0,1,1,81,false,stim,false,0,499.46500011719763,1,1,1,17861,WMM2,1483941,false,true,1819,image-keyboard-response,15
true,16,2,3,2,true,d,false,true,0.0-2.0-0.60-0.541-3.541,0,1,1,68,false,stim,false,2,584.3650000169873,1,1,2,17861,WMM2,1486058,false,false,1822,image-keyboard-response,16
true,16,2,3,2,true,d,false,false,0.0-2.0-0.60-0.542-3.542,0,1,1,68,false,stim,false,2,627.8599998913705,1,1,2,17861,WMM2,1488215,false,true,1825,image-keyboard-response,17
true,16,2,3,2,true,d,false,true,0.0-2.0-0.60-0.543-3.543,0,1,1,68,false,stim,false,2,567.4749999307096,1,1,2,17861,WMM2,1490303,false,false,1828,image-keyboard-response,18
true,16,0,3,0,true,q,false,true,0.0-2.0-0.60-0.544-3.544,0,1,1,81,false,stim,false,0,476.44999995827675,1,1,1,17861,WMM2,1492295,false,false,1831,image-keyboard-response,19
true,16,1,3,1,true,z,false,true,0.0-2.0-0.60-0.545-3.545,0,1,1,90,false,stim,false,2,401.03999990969896,1,0,0,17861,WMM2,1494219,false,false,1834,image-keyboard-response,20
true,16,1,3,1,true,z,false,true,0.0-2.0-0.60-0.546-3.546,0,1,1,90,false,stim,false,2,758.7549998424947,1,1,0,17861,WMM2,1496507,false,false,1837,image-keyboard-response,21
true,16,1,3,1,true,z,false,false,0.0-2.0-0.60-0.547-3.547,0,1,1,90,false,stim,false,2,581.0950000304729,1,1,0,17861,WMM2,1498610,false,true,1840,image-keyboard-response,22
true,16,0,3,0,true,q,false,false,0.0-2.0-0.60-0.548-3.548,0,1,1,81,false,stim,false,0,536.8199998047203,1,1,1,17861,WMM2,1500664,false,true,1843,image-keyboard-response,23
true,16,1,3,1,true,z,false,false,0.0-2.0-0.61-0.549-3.549,0,1,1,90,false,stim,false,2,544.8900000192225,1,1,0,17861,WMM2,1502738,false,true,1846,image-keyboard-response,24
true,16,0,3,0,true,q,false,true,0.0-2.0-0.61-0.550-3.550,0,1,1,81,false,stim,false,0,694.4399999920279,1,1,1,17861,WMM2,1504951,false,false,1849,image-keyboard-response,25
true,16,2,3,2,true,d,false,true,0.0-2.0-0.61-0.551-3.551,0,1,1,68,false,stim,false,2,749.3950000498444,1,0,2,17861,WMM2,1507221,false,false,1852,image-keyboard-response,26
true,16,1,3,1,true,z,false,true,0.0-2.0-0.61-0.552-3.552,0,1,1,90,false,stim,false,2,567.0049998443574,1,1,0,17861,WMM2,1509320,false,false,1855,image-keyboard-response,27
true,16,1,3,1,true,z,false,true,0.0-2.0-0.61-0.553-3.553,0,1,1,90,false,stim,false,2,590.5249998904765,1,1,0,17861,WMM2,1511442,false,false,1858,image-keyboard-response,28
true,16,2,3,2,true,d,false,true,0.0-2.0-0.61-0.554-3.554,0,1,1,68,false,stim,false,2,569.1899999510497,1,0,2,17861,WMM2,1513535,false,false,1861,image-keyboard-response,29
true,16,0,3,0,true,q,false,false,0.0-2.0-0.61-0.555-3.555,0,1,1,81,false,stim,false,0,500.5400001537055,1,1,1,17861,WMM2,1515565,false,true,1864,image-keyboard-response,30
true,17,0,4,0,true,q,false,true,0.0-2.0-0.61-0.556-3.556,1,1,0,81,true,stim,false,0,762.9650000017136,1,1,1,17861,WMM2,1517859,false,false,1867,image-keyboard-response,1
true,17,2,4,2,true,d,false,false,0.0-2.0-0.61-0.557-3.557,1,1,0,68,false,stim,false,2,673.7999999895692,1,0,2,17861,WMM2,1520051,false,true,1870,image-keyboard-response,2
true,17,1,4,1,true,z,false,false,0.0-2.0-0.62-0.558-3.558,1,1,0,90,false,stim,false,1,389.2949998844415,1,1,0,17861,WMM2,1521964,false,true,1873,image-keyboard-response,3
true,17,0,4,0,true,q,false,true,0.0-2.0-0.62-0.559-3.559,1,1,0,81,false,stim,false,0,423.7349999602884,1,1,1,17861,WMM2,1523915,false,false,1876,image-keyboard-response,4
true,17,0,4,0,true,q,false,true,0.0-2.0-0.62-0.560-3.560,1,1,0,81,false,stim,false,0,410.9300000127405,1,1,1,17861,WMM2,1525849,false,false,1879,image-keyboard-response,5
true,17,2,4,2,true,d,false,true,0.0-2.0-0.62-0.561-3.561,1,1,0,68,false,stim,false,2,666.4899999741465,1,0,2,17861,WMM2,1528037,false,false,1882,image-keyboard-response,6
true,17,1,4,1,true,z,false,true,0.0-2.0-0.62-0.562-3.562,1,1,0,90,false,stim,false,1,443.50999989546835,1,1,0,17861,WMM2,1530012,false,false,1885,image-keyboard-response,7
true,17,2,4,2,true,d,false,true,0.0-2.0-0.62-0.563-3.563,1,1,0,68,false,stim,false,2,597.8399999439716,1,0,2,17861,WMM2,1532131,false,false,1888,image-keyboard-response,8
true,17,1,4,1,true,z,false,true,0.0-2.0-0.62-0.564-3.564,1,1,0,90,false,stim,false,1,622.0650000032037,1,1,0,17861,WMM2,1534270,false,false,1891,image-keyboard-response,9
true,17,2,4,2,true,d,false,true,0.0-2.0-0.62-0.565-3.565,1,1,0,68,false,stim,false,2,672.1649998798966,1,0,2,17861,WMM2,1536468,false,false,1894,image-keyboard-response,10
true,17,0,4,0,true,q,false,false,0.0-2.0-0.62-0.566-3.566,1,1,0,81,false,stim,false,0,569.3650001194328,1,1,1,17861,WMM2,1538564,false,true,1897,image-keyboard-response,11
true,17,1,4,1,true,z,false,false,0.0-2.0-0.63-0.567-3.567,1,1,0,90,false,stim,false,1,556.8649999331683,1,1,0,17861,WMM2,1540650,false,true,1900,image-keyboard-response,12
true,17,0,4,0,true,q,false,true,0.0-2.0-0.63-0.568-3.568,1,1,0,81,false,stim,false,0,1036.1699999775738,1,1,1,17861,WMM2,1543227,false,false,1903,image-keyboard-response,13
true,17,1,4,2,false,d,true,false,0.0-2.0-0.63-0.569-3.569,1,1,0,90,false,stim,false,2,516.7450001463294,1,0,2,17861,WMM2,1545272,false,false,1906,image-keyboard-response,14
true,17,1,4,1,true,z,false,true,0.0-2.0-0.63-0.570-3.570,1,1,0,90,false,stim,false,1,785.765000153333,1,1,0,17861,WMM2,1547588,false,false,1909,image-keyboard-response,15
true,17,1,4,1,true,z,false,false,0.0-2.0-0.63-0.571-3.571,1,1,0,90,false,stim,false,1,680.4049999918789,1,1,0,17861,WMM2,1549798,false,true,1912,image-keyboard-response,16
true,17,2,4,2,true,d,false,true,0.0-2.0-0.63-0.572-3.572,1,1,0,68,false,stim,false,2,843.2950000278652,1,0,2,17861,WMM2,1552160,false,false,1915,image-keyboard-response,17
true,17,0,4,0,true,q,false,true,0.0-2.0-0.63-0.573-3.573,1,1,0,81,false,stim,false,0,684.015000006184,1,1,1,17861,WMM2,1554364,false,false,1918,image-keyboard-response,18
true,17,0,4,0,true,q,false,true,0.0-2.0-0.63-0.574-3.574,1,1,0,81,false,stim,false,0,427.32000001706183,1,1,1,17861,WMM2,1556323,false,false,1921,image-keyboard-response,19
true,17,2,4,2,true,d,false,true,0.0-2.0-0.63-0.575-3.575,1,1,0,68,false,stim,false,2,568.0299999658018,1,0,2,17861,WMM2,1558412,false,false,1924,image-keyboard-response,20
true,17,0,4,0,true,q,false,true,0.0-2.0-0.64-0.576-3.576,1,1,0,81,false,stim,false,0,594.8600000701845,1,1,1,17861,WMM2,1560537,false,false,1927,image-keyboard-response,21
true,17,2,4,2,true,d,false,true,0.0-2.0-0.64-0.577-3.577,1,1,0,68,false,stim,false,2,610.1299999281764,1,1,2,17861,WMM2,1562667,false,false,1930,image-keyboard-response,22
true,17,0,4,0,true,q,false,true,0.0-2.0-0.64-0.578-3.578,1,1,0,81,false,stim,false,0,623.1750000733882,1,1,1,17861,WMM2,1564811,false,false,1933,image-keyboard-response,23
true,17,1,4,1,true,z,false,true,0.0-2.0-0.64-0.579-3.579,1,1,0,90,false,stim,false,1,570.0350000988692,1,0,0,17861,WMM2,1566906,false,false,1936,image-keyboard-response,24
true,17,2,4,2,true,d,false,true,0.0-2.0-0.64-0.580-3.580,1,1,0,68,false,stim,false,2,567.1900000888854,1,1,2,17861,WMM2,1569002,false,false,1939,image-keyboard-response,25
true,17,1,4,1,true,z,false,true,0.0-2.0-0.64-0.581-3.581,1,1,0,90,false,stim,false,1,1090.400000102818,1,0,0,17861,WMM2,1571623,false,false,1942,image-keyboard-response,26
true,17,0,4,0,true,q,false,false,0.0-2.0-0.64-0.582-3.582,1,1,0,81,false,stim,false,0,1753.5500000230968,1,1,1,17861,WMM2,1574897,false,true,1945,image-keyboard-response,27
true,17,1,4,1,true,z,false,true,0.0-2.0-0.64-0.583-3.583,1,1,0,90,false,stim,false,1,670.7349999342114,1,0,0,17861,WMM2,1577098,false,false,1948,image-keyboard-response,28
true,17,2,4,2,true,d,false,true,0.0-2.0-0.64-0.584-3.584,1,1,0,68,false,stim,false,2,534.3700000084937,1,1,2,17861,WMM2,1579145,false,false,1951,image-keyboard-response,29
true,17,2,4,2,true,d,false,true,0.0-2.0-0.65-0.585-3.585,1,1,0,68,false,stim,false,2,672.3700000438839,1,1,2,17861,WMM2,1581331,false,false,1954,image-keyboard-response,30
true,18,2,2,2,true,d,false,true,0.0-2.0-0.65-0.586-3.586,0,1,1,68,true,stim,false,2,612.5650000758469,1,1,2,17861,WMM2,1583463,false,false,1957,image-keyboard-response,1
