answered,blockNum,choice,condition,corResp,correct,correct_response,explo,fb,internal_node_id,isStable_1,isStable_2,isStable_3,key_press,newBlock,part,persev,persevResp,rt,sessNum,stableAS,stimulus,subject,task,time_elapsed,training,trap,trial_index,trial_type,trialsInBlock
true,1,2,0,0,false,q,true,false,0.0-2.0-0.0-0.0-3.0,0,0,0,68,true,stim,false,-1,1251.9099998753518,2,0,2,17861,WMM1,152419,false,false,148,image-keyboard-response,1
true,1,1,0,0,false,q,true,false,0.0-2.0-0.0-0.1-3.1,0,0,0,90,false,stim,false,-1,897.459999890998,2,0,0,17861,WMM1,154833,false,false,151,image-keyboard-response,2
true,1,0,0,1,false,z,true,false,0.0-2.0-0.0-0.2-3.2,0,0,0,81,false,stim,false,-1,521.6649998910725,2,0,1,17861,WMM1,156864,false,false,154,image-keyboard-response,3
true,1,0,0,0,true,q,false,true,0.0-2.0-0.0-0.3-3.3,0,0,0,81,false,stim,false,-1,848.6849998589605,2,0,0,17861,WMM1,159217,false,false,157,image-keyboard-response,4
true,1,1,0,1,true,z,false,true,0.0-2.0-0.0-0.4-3.4,0,0,0,90,false,stim,false,-1,447.9499999433756,2,0,1,17861,WMM1,161189,false,false,160,image-keyboard-response,5
true,1,1,0,1,true,z,false,true,0.0-2.0-0.0-0.5-3.5,0,0,0,90,false,stim,false,-1,526.9100000150502,2,0,1,17861,WMM1,163235,false,false,163,image-keyboard-response,6
true,1,0,0,0,true,q,false,true,0.0-2.0-0.0-0.6-3.6,0,0,0,81,false,stim,false,-1,631.7900000140071,2,0,0,17861,WMM1,165385,false,false,166,image-keyboard-response,7
true,1,1,0,0,false,q,true,false,0.0-2.0-0.0-0.7-3.7,0,0,0,90,false,stim,false,-1,1471.404999960214,2,0,2,17861,WMM1,168376,false,false,169,image-keyboard-response,8
true,1,0,0,0,true,q,false,true,0.0-2.0-0.0-0.8-3.8,0,0,0,81,false,stim,false,-1,418.62999997101724,2,0,2,17861,WMM1,170312,false,false,172,image-keyboard-response,9
true,1,0,0,0,true,q,false,true,0.0-2.0-0.1-0.9-3.9,0,0,0,81,false,stim,false,-1,512.3000000603497,2,0,2,17861,WMM1,172345,false,false,175,image-keyboard-response,10
true,1,2,0,1,false,z,true,false,0.0-2.0-0.1-0.10-3.10,0,0,0,68,false,stim,false,-1,638.0900000222027,2,0,1,17861,WMM1,174499,false,false,178,image-keyboard-response,11
true,1,0,0,0,true,q,false,true,0.0-2.0-0.1-0.11-3.11,0,0,0,81,false,stim,false,-1,658.8200000114739,2,0,0,17861,WMM1,176682,false,false,181,image-keyboard-response,12
true,1,1,0,1,true,z,false,true,0.0-2.0-0.1-0.12-3.12,0,0,0,90,false,stim,false,-1,784.6200000494719,2,0,1,17861,WMM1,178981,false,false,184,image-keyboard-response,13
true,1,0,0,0,true,q,false,true,0.0-2.0-0.1-0.13-3.13,0,0,0,81,false,stim,false,-1,624.8999999370426,2,0,0,17861,WMM1,181114,false,false,187,image-keyboard-response,14
true,1,0,0,0,true,q,false,true,0.0-2.0-0.1-0.14-3.14,0,0,0,81,false,stim,false,-1,1486.0400001052767,2,0,2,17861,WMM1,184117,false,false,190,image-keyboard-response,15
true,1,0,0,0,true,q,false,true,0.0-2.0-0.1-0.15-3.15,0,0,0,81,false,stim,false,-1,567.9500000551343,2,0,2,17861,WMM1,186204,false,false,193,image-keyboard-response,16
true,1,1,0,1,true,z,false,true,0.0-2.0-0.1-0.16-3.16,0,0,0,90,false,stim,false,-1,902.7599999681115,2,0,1,17861,WMM1,188630,false,false,196,image-keyboard-response,17
true,1,0,0,0,true,q,false,true,0.0-2.0-0.1-0.17-3.17,0,0,0,81,false,stim,false,-1,579.0599999018013,2,0,0,17861,WMM1,190714,false,false,199,image-keyboard-response,18
true,1,0,0,0,true,q,false,true,0.0-2.0-0.2-0.18-3.18,0,0,0,81,false,stim,false,-1,679.950000019744,2,0,0,17861,WMM1,192912,false,false,202,image-keyboard-response,19
true,1,0,0,0,true,q,false,true,0.0-2.0-0.2-0.19-3.19,0,0,0,81,false,stim,false,-1,1308.6850000545382,2,0,2,17861,WMM1,195743,false,false,205,image-keyboard-response,20
true,1,0,0,0,true,q,false,false,0.0-2.0-0.2-0.20-3.20,0,0,0,81,false,stim,false,-1,800.8300000801682,2,0,0,17861,WMM1,198073,false,true,208,image-keyboard-response,21
true,1,1,0,1,true,z,false,false,0.0-2.0-0.2-0.21-3.21,0,0,0,90,false,stim,false,-1,671.0550000425428,2,0,1,17861,WMM1,200268,false,true,211,image-keyboard-response,22
true,1,1,0,1,true,z,false,true,0.0-2.0-0.2-0.22-3.22,0,0,0,90,false,stim,false,-1,1215.444999979809,2,0,1,17861,WMM1,203009,false,false,214,image-keyboard-response,23
true,1,0,0,0,true,q,false,true,0.0-2.0-0.2-0.23-3.23,0,0,0,81,false,stim,false,-1,574.555000057444,2,0,2,17861,WMM1,205098,false,false,217,image-keyboard-response,24
true,1,0,0,0,true,q,false,true,0.0-2.0-0.2-0.24-3.24,0,0,0,81,false,stim,false,-1,857.1800000499934,2,0,2,17861,WMM1,207471,false,false,220,image-keyboard-response,25
true,1,0,0,0,true,q,false,true,0.0-2.0-0.2-0.25-3.25,0,0,0,81,false,stim,false,-1,942.3399998340756,2,0,0,17861,WMM1,209929,false,false,223,image-keyboard-response,26
true,1,1,0,1,true,z,false,true,0.0-2.0-0.2-0.26-3.26,0,0,0,90,false,stim,false,-1,659.2699999455363,2,0,1,17861,WMM1,212104,false,false,226,image-keyboard-response,27
true,1,1,0,1,true,z,false,true,0.0-2.0-0.3-0.27-3.27,0,0,0,90,false,stim,false,-1,664.9000002071261,2,0,1,17861,WMM1,214290,false,false,229,image-keyboard-response,28
true,1,0,0,0,true,q,false,true,0.0-2.0-0.3-0.28-3.28,0,0,0,81,false,stim,false,-1,836.5350000094622,2,0,2,17861,WMM1,216646,false,false,232,image-keyboard-response,29
true,1,0,0,0,true,q,false,true,0.0-2.0-0.3-0.29-3.29,0,0,0,81,false,stim,false,-1,626.3200000394136,2,0,2,17861,WMM1,218784,false,false,235,image-keyboard-response,30
true,2,0,1,2,false,d,false,false,0.0-2.0-0.3-0.30-3.30,0,0,0,81,true,stim,true,0,652.4399998597801,2,0,2,17861,WMM1,220948,false,false,238,image-keyboard-response,1
true,2,1,1,0,false,q,false,false,0.0-2.0-0.3-0.31-3.31,0,0,0,90,false,stim,true,1,1730.05500016734,2,0,1,17861,WMM1,224198,false,false,241,image-keyboard-response,2
true,2,0,1,2,false,d,false,false,0.0-2.0-0.3-0.32-3.32,0,0,0,81,false,stim,true,0,498.5599999781698,2,0,0,17861,WMM1,226222,false,false,244,image-keyboard-response,3
true,2,1,1,0,false,q,false,false,0.0-2.0-0.3-0.33-3.33,0,0,0,90,false,stim,true,1,707.4549999088049,2,0,1,17861,WMM1,228458,false,false,247,image-keyboard-response,4
true,2,0,1,2,false,d,false,false,0.0-2.0-0.3-0.34-3.34,0,0,0,81,false,stim,true,0,389.3099999986589,2,0,0,17861,WMM1,230371,false,false,250,image-keyboard-response,5
true,2,1,1,2,false,d,true,false,0.0-2.0-0.3-0.35-3.35,0,0,0,90,false,stim,false,0,724.1549999453127,2,0,0,17861,WMM1,232607,false,false,253,image-keyboard-response,6
true,2,0,1,2,false,d,false,false,0.0-2.0-0.4-0.36-3.36,0,0,0,81,false,stim,true,0,2175.319999922067,2,0,2,17861,WMM1,236309,false,false,256,image-keyboard-response,7
true,2,1,1,2,false,d,true,false,0.0-2.0-0.4-0.37-3.37,0,0,0,90,false,stim,false,0,400.9749998804182,2,0,2,17861,WMM1,238229,false,false,259,image-keyboard-response,8
true,2,2,1,2,true,d,false,true,0.0-2.0-0.4-0.38-3.38,0,0,0,68,false,stim,false,0,761.9650000706315,2,0,0,17861,WMM1,240506,false,false,262,image-keyboard-response,9
true,2,2,1,0,false,q,true,false,0.0-2.0-0.4-0.39-3.39,0,0,0,68,false,stim,false,1,630.6000000331551,2,0,1,17861,WMM1,242659,false,false,265,image-keyboard-response,10
true,2,2,1,2,true,d,false,true,0.0-2.0-0.4-0.40-3.40,0,0,0,68,false,stim,false,0,828.9199999999255,2,0,0,17861,WMM1,245004,false,false,268,image-keyboard-response,11
true,2,2,1,2,true,d,false,true,0.0-2.0-0.4-0.41-3.41,0,0,0,68,false,stim,false,0,611.924999859184,2,0,0,17861,WMM1,247140,false,false,271,image-keyboard-response,12
true,2,2,1,2,true,d,false,false,0.0-2.0-0.4-0.42-3.42,0,0,0,68,false,stim,false,0,1047.3950000014156,2,0,2,17861,WMM1,249710,false,true,274,image-keyboard-response,13
true,2,0,1,0,true,q,false,true,0.0-2.0-0.4-0.43-3.43,0,0,0,81,false,stim,false,1,761.790000135079,2,0,1,17861,WMM1,251981,false,false,277,image-keyboard-response,14
true,2,0,1,0,true,q,false,true,0.0-2.0-0.4-0.44-3.44,0,0,0,81,false,stim,false,1,815.0400000158697,2,0,1,17861,WMM1,254321,false,false,280,image-keyboard-response,15
true,2,2,1,2,true,d,false,true,0.0-2.0-0.5-0.45-3.45,0,0,0,68,false,stim,false,0,1238.6300000362098,2,0,0,17861,WMM1,257081,false,false,283,image-keyboard-response,16
true,2,0,1,2,false,d,false,false,0.0-2.0-0.5-0.46-3.46,0,0,0,81,false,stim,true,0,1898.174999980256,2,0,2,17861,WMM1,260498,false,false,286,image-keyboard-response,17
true,2,2,1,2,true,d,false,true,0.0-2.0-0.5-0.47-3.47,0,0,0,68,false,stim,false,0,800.9550001006573,2,0,0,17861,WMM1,262819,false,false,289,image-keyboard-response,18
true,2,2,1,2,true,d,false,true,0.0-2.0-0.5-0.48-3.48,0,0,0,68,false,stim,false,0,507.0849999319762,2,0,0,17861,WMM1,264840,false,false,292,image-keyboard-response,19
true,2,1,1,2,false,d,true,false,0.0-2.0-0.5-0.49-3.49,0,0,0,90,false,stim,false,0,738.43999998644,2,0,2,17861,WMM1,267105,false,false,295,image-keyboard-response,20
true,2,0,1,0,true,q,false,false,0.0-2.0-0.5-0.50-3.50,0,0,0,81,false,stim,false,1,773.3749998733401,2,0,1,17861,WMM1,269404,false,true,298,image-keyboard-response,21
true,2,0,1,0,true,q,false,false,0.0-2.0-0.5-0.51-3.51,0,0,0,81,false,stim,false,1,423.86500001884997,2,0,1,17861,WMM1,271341,false,true,301,image-keyboard-response,22
true,2,2,1,0,false,q,true,false,0.0-2.0-0.5-0.52-3.52,0,0,0,68,false,stim,false,1,471.91000008024275,2,0,1,17861,WMM1,273330,false,false,304,image-keyboard-response,23
true,2,2,1,2,true,d,false,true,0.0-2.0-0.5-0.53-3.53,0,0,0,68,false,stim,false,0,1087.7249999903142,2,0,2,17861,WMM1,275941,false,false,307,image-keyboard-response,24
true,2,2,1,2,true,d,false,true,0.0-2.0-0.6-0.54-3.54,0,0,0,68,false,stim,false,0,656.3150000292808,2,0,2,17861,WMM1,278113,false,false,310,image-keyboard-response,25
true,2,1,1,0,false,q,false,false,0.0-2.0-0.6-0.55-3.55,0,0,0,90,false,stim,true,1,1685.1850000675768,2,0,1,17861,WMM1,281326,false,false,313,image-keyboard-response,26
true,2,0,1,0,true,q,false,true,0.0-2.0-0.6-0.56-3.56,0,0,0,81,false,stim,false,1,876.3049999251962,2,0,1,17861,WMM1,283722,false,false,316,image-keyboard-response,27
true,2,2,1,2,true,d,false,true,0.0-2.0-0.6-0.57-3.57,0,0,0,68,false,stim,false,0,612.1400000993162,2,0,2,17861,WMM1,285849,false,false,319,image-keyboard-response,28
true,2,2,1,2,true,d,false,true,0.0-2.0-0.6-0.58-3.58,0,0,0,68,false,stim,false,0,514.604999916628,2,0,0,17861,WMM1,287887,false,false,322,image-keyboard-response,29
true,2,2,1,2,true,d,false,true,0.0-2.0-0.6-0.59-3.59,0,0,0,68,false,stim,false,0,775.7200000341982,2,0,0,17861,WMM1,290177,false,false,325,image-keyboard-response,30
true,2,2,1,2,true,d,false,true,0.0-2.0-0.6-0.60-3.60,0,0,0,68,false,stim,false,0,623.0500000528991,2,0,2,17861,WMM1,292319,false,false,328,image-keyboard-response,31
true,2,2,1,2,true,d,false,true,0.0-2.0-0.6-0.61-3.61,0,0,0,68,false,stim,false,0,622.5100001320243,2,0,0,17861,WMM1,294466,false,false,331,image-keyboard-response,32
true,2,0,1,0,true,q,false,true,0.0-2.0-0.6-0.62-3.62,0,0,0,81,false,stim,false,1,813.5100000072271,2,0,1,17861,WMM1,296796,false,false,334,image-keyboard-response,33
true,2,0,1,0,true,q,false,true,0.0-2.0-0.7-0.63-3.63,0,0,0,81,false,stim,false,1,526.3699998613447,2,0,1,17861,WMM1,298836,false,false,337,image-keyboard-response,34
true,2,2,1,2,true,d,false,true,0.0-2.0-0.7-0.64-3.64,0,0,0,68,false,stim,false,0,737.859999993816,2,0,0,17861,WMM1,301096,false,false,340,image-keyboard-response,35
true,2,2,1,2,true,d,false,true,0.0-2.0-0.7-0.65-3.65,0,0,0,68,false,stim,false,0,977.7349999640137,2,0,2,17861,WMM1,303585,false,false,343,image-keyboard-response,36
true,2,0,1,0,true,q,false,true,0.0-2.0-0.7-0.66-3.66,0,0,0,81,false,stim,false,1,603.9299999829382,2,0,1,17861,WMM1,305709,false,false,346,image-keyboard-response,37
true,2,2,1,2,true,d,false,true,0.0-2.0-0.7-0.67-3.67,0,0,0,68,false,stim,false,0,708.8750000111759,2,0,2,17861,WMM1,307940,false,false,349,image-keyboard-response,38
true,2,2,1,2,true,d,false,true,0.0-2.0-0.7-0.68-3.68,0,0,0,68,false,stim,false,0,603.1450000591576,2,0,2,17861,WMM1,310054,false,false,352,image-keyboard-response,39
true,2,2,1,2,true,d,false,true,0.0-2.0-0.7-0.69-3.69,0,0,0,68,false,stim,false,0,630.6249999906868,2,0,0,17861,WMM1,312190,false,false,355,image-keyboard-response,40
true,2,0,1,0,true,q,false,true,0.0-2.0-0.7-0.70-3.70,0,0,0,81,false,stim,false,1,669.4499999284744,2,0,1,17861,WMM1,314375,false,false,358,image-keyboard-response,41
true,2,2,1,2,true,d,false,true,0.0-2.0-0.7-0.71-3.71,0,0,0,68,false,stim,false,0,751.9699998665601,2,0,0,17861,WMM1,316644,false,false,361,image-keyboard-response,42
true,2,2,1,2,true,d,false,true,0.0-2.0-0.8-0.72-3.72,0,0,0,68,false,stim,false,0,523.1050001457334,2,0,0,17861,WMM1,318691,false,false,364,image-keyboard-response,43
true,3,2,1,1,false,z,false,false,0.0-2.0-0.8-0.73-3.73,0,0,0,68,true,stim,true,2,574.2949999403208,2,0,0,17861,WMM1,320786,false,false,367,image-keyboard-response,1
true,3,2,1,0,false,q,false,false,0.0-2.0-0.8-0.74-3.74,0,0,0,68,false,stim,true,2,618.7399998307228,2,0,2,17861,WMM1,322924,false,false,370,image-keyboard-response,2
true,3,0,1,1,false,z,false,false,0.0-2.0-0.8-0.75-3.75,0,0,0,81,false,stim,true,0,585.1700000930578,2,0,1,17861,WMM1,325021,false,false,373,image-keyboard-response,3
true,3,0,1,1,false,z,false,false,0.0-2.0-0.8-0.76-3.76,0,0,0,81,false,stim,true,0,663.1949997972697,2,0,1,17861,WMM1,327194,false,false,376,image-keyboard-response,4
true,3,2,1,0,false,q,false,false,0.0-2.0-0.8-0.77-3.77,0,0,0,68,false,stim,true,2,929.0000000037253,2,0,2,17861,WMM1,329637,false,false,379,image-keyboard-response,5
true,3,2,1,1,false,z,false,false,0.0-2.0-0.8-0.78-3.78,0,0,0,68,false,stim,true,2,568.8549999613315,2,0,0,17861,WMM1,331725,false,false,382,image-keyboard-response,6
true,3,1,1,0,false,q,true,false,0.0-2.0-0.8-0.79-3.79,0,0,0,90,false,stim,false,2,1134.349999949336,2,0,2,17861,WMM1,334379,false,false,385,image-keyboard-response,7
true,3,1,1,1,true,z,false,true,0.0-2.0-0.8-0.80-3.80,0,0,0,90,false,stim,false,0,860.5299999471754,2,0,1,17861,WMM1,336756,false,false,388,image-keyboard-response,8
true,3,1,1,1,true,z,false,true,0.0-2.0-0.9-0.81-3.81,0,0,0,90,false,stim,false,0,550.3399998415262,2,0,1,17861,WMM1,338832,false,false,391,image-keyboard-response,9
true,3,0,1,1,false,z,true,true,0.0-2.0-0.9-0.82-3.82,0,0,0,81,false,stim,false,2,585.3299999143928,2,0,0,17861,WMM1,340933,false,true,394,image-keyboard-response,10
true,3,1,1,1,true,z,false,true,0.0-2.0-0.9-0.83-3.83,0,0,0,90,false,stim,false,0,723.3850001357496,2,0,1,17861,WMM1,343169,false,false,397,image-keyboard-response,11
true,3,0,1,1,false,z,true,false,0.0-2.0-0.9-0.84-3.84,0,0,0,81,false,stim,false,2,718.9400000497699,2,0,0,17861,WMM1,345404,false,false,400,image-keyboard-response,12
true,3,0,1,0,true,q,false,true,0.0-2.0-0.9-0.85-3.85,0,0,0,81,false,stim,false,2,1304.5999999158084,2,0,2,17861,WMM1,348217,false,false,403,image-keyboard-response,13
true,3,0,1,1,false,z,true,false,0.0-2.0-0.9-0.86-3.86,0,0,0,81,false,stim,false,2,494.14499988779426,2,0,0,17861,WMM1,350231,false,false,406,image-keyboard-response,14
true,3,0,1,0,true,q,false,true,0.0-2.0-0.9-0.87-3.87,0,0,0,81,false,stim,false,2,1017.8100001066923,2,0,2,17861,WMM1,352764,false,false,409,image-keyboard-response,15
true,3,1,1,1,true,z,false,true,0.0-2.0-0.9-0.88-3.88,0,0,0,90,false,stim,false,0,599.8849999159575,2,0,1,17861,WMM1,354882,false,false,412,image-keyboard-response,16
true,3,0,1,0,true,q,false,true,0.0-2.0-0.9-0.89-3.89,0,0,0,81,false,stim,false,2,649.3299999274313,2,0,2,17861,WMM1,357059,false,false,415,image-keyboard-response,17
true,3,1,1,1,true,z,false,true,0.0-2.0-0.10-0.90-3.90,0,0,0,90,false,stim,false,0,732.6950000133365,2,0,1,17861,WMM1,359315,false,false,418,image-keyboard-response,18
true,3,1,1,1,true,z,false,true,0.0-2.0-0.10-0.91-3.91,0,0,0,90,false,stim,false,2,1119.1499999258667,2,0,0,17861,WMM1,361950,false,false,421,image-keyboard-response,19
true,3,0,1,0,true,q,false,true,0.0-2.0-0.10-0.92-3.92,0,0,0,81,false,stim,false,2,507.46500003151596,2,0,2,17861,WMM1,363974,false,false,424,image-keyboard-response,20
true,3,0,1,0,true,q,false,false,0.0-2.0-0.10-0.93-3.93,0,0,0,81,false,stim,false,2,589.7400001995265,2,0,2,17861,WMM1,366082,false,true,427,image-keyboard-response,21
true,3,1,1,1,true,z,false,true,0.0-2.0-0.10-0.94-3.94,0,0,0,90,false,stim,false,0,546.4999999385327,2,0,1,17861,WMM1,368143,false,false,430,image-keyboard-response,22
true,3,0,1,0,true,q,false,true,0.0-2.0-0.10-0.95-3.95,0,0,0,81,false,stim,false,2,554.56000007689,2,0,2,17861,WMM1,370213,false,false,433,image-keyboard-response,23
true,3,1,1,1,true,z,false,true,0.0-2.0-0.10-0.96-3.96,0,0,0,90,false,stim,false,2,1628.169999923557,2,0,0,17861,WMM1,373360,false,false,436,image-keyboard-response,24
true,3,1,1,1,true,z,false,true,0.0-2.0-0.10-0.97-3.97,0,0,0,90,false,stim,false,2,542.2199999447912,2,0,0,17861,WMM1,375425,false,false,439,image-keyboard-response,25
true,3,1,1,1,true,z,false,false,0.0-2.0-0.10-0.98-3.98,0,0,0,90,false,stim,false,0,555.2900000475347,2,1,1,17861,WMM1,377490,false,true,442,image-keyboard-response,26
true,3,0,1,0,true,q,false,true,0.0-2.0-0.11-0.99-3.99,0,0,0,81,false,stim,false,2,574.7150001116097,2,0,2,17861,WMM1,379582,false,false,445,image-keyboard-response,27
true,3,1,1,1,true,z,false,true,0.0-2.0-0.11-0.100-3.100,0,0,0,90,false,stim,false,0,519.4500000216067,2,1,1,17861,WMM1,381619,false,false,448,image-keyboard-response,28
true,3,1,1,1,true,z,false,true,0.0-2.0-0.11-0.101-3.101,0,0,0,90,false,stim,false,2,564.9900001008064,2,0,0,17861,WMM1,383707,false,false,451,image-keyboard-response,29
true,3,1,1,1,true,z,false,true,0.0-2.0-0.11-0.102-3.102,0,0,0,90,false,stim,false,0,1030.4199999663979,2,1,1,17861,WMM1,386264,false,false,454,image-keyboard-response,30
true,3,0,1,0,true,q,false,true,0.0-2.0-0.11-0.103-3.103,0,0,0,81,false,stim,false,2,1700.175000121817,2,0,2,17861,WMM1,389488,false,false,457,image-keyboard-response,31
true,3,1,1,1,true,z,false,true,0.0-2.0-0.11-0.104-3.104,0,0,0,90,false,stim,false,2,536.6899999789894,2,0,0,17861,WMM1,391550,false,false,460,image-keyboard-response,32
true,3,1,1,1,true,z,false,true,0.0-2.0-0.11-0.105-3.105,0,0,0,90,false,stim,false,2,622.399999992922,2,0,0,17861,WMM1,393685,false,false,463,image-keyboard-response,33
true,3,0,1,0,true,q,false,true,0.0-2.0-0.11-0.106-3.106,0,0,0,81,false,stim,false,2,683.045000070706,2,0,2,17861,WMM1,395892,false,false,466,image-keyboard-response,34
true,4,1,3,1,true,z,false,true,0.0-2.0-0.11-0.107-3.107,0,1,0,90,true,stim,false,1,628.4649998415262,2,1,1,17861,WMM1,398034,false,false,469,image-keyboard-response,1
true,4,1,3,0,false,q,false,false,0.0-2.0-0.12-0.108-3.108,0,1,0,90,false,stim,true,1,586.6700001060963,2,0,0,17861,WMM1,400128,false,false,472,image-keyboard-response,2
true,4,1,3,1,true,z,false,true,0.0-2.0-0.12-0.109-3.109,0,1,0,90,false,stim,false,1,678.2299999613315,2,1,1,17861,WMM1,402320,false,false,475,image-keyboard-response,3
true,4,0,3,2,false,d,false,false,0.0-2.0-0.12-0.110-3.110,0,1,0,81,false,stim,true,0,615.6600001268089,2,0,2,17861,WMM1,404453,false,false,478,image-keyboard-response,4
true,4,1,3,1,true,z,false,true,0.0-2.0-0.12-0.111-3.111,0,1,0,90,false,stim,false,1,636.5799999330193,2,1,1,17861,WMM1,406611,false,false,481,image-keyboard-response,5
true,4,1,3,0,false,q,false,true,0.0-2.0-0.12-0.112-3.112,0,1,0,90,false,stim,true,1,499.210000038147,2,0,0,17861,WMM1,408621,false,true,484,image-keyboard-response,6
true,4,0,3,2,false,d,false,false,0.0-2.0-0.12-0.113-3.113,0,1,0,81,false,stim,true,0,472.23999979905784,2,0,2,17861,WMM1,410605,false,false,487,image-keyboard-response,7
true,4,1,3,0,false,q,false,false,0.0-2.0-0.12-0.114-3.114,0,1,0,90,false,stim,true,1,635.4249999858439,2,0,0,17861,WMM1,412757,false,false,490,image-keyboard-response,8
true,4,1,3,1,true,z,false,true,0.0-2.0-0.12-0.115-3.115,0,1,0,90,false,stim,false,1,511.7999999783933,2,1,1,17861,WMM1,414793,false,false,493,image-keyboard-response,9
true,4,0,3,2,false,d,false,false,0.0-2.0-0.12-0.116-3.116,0,1,0,81,false,stim,true,0,1421.7500002123415,2,0,2,17861,WMM1,417742,false,false,496,image-keyboard-response,10
true,4,1,3,0,false,q,false,false,0.0-2.0-0.13-0.117-3.117,0,1,0,90,false,stim,true,1,589.9300000164658,2,0,0,17861,WMM1,419842,false,false,499,image-keyboard-response,11
true,4,1,3,0,false,q,false,false,0.0-2.0-0.13-0.118-3.118,0,1,0,90,false,stim,true,1,404.3050000909716,2,0,0,17861,WMM1,421769,false,false,502,image-keyboard-response,12
true,4,2,3,2,true,d,false,true,0.0-2.0-0.13-0.119-3.119,0,1,0,68,false,stim,false,0,1172.6400000043213,2,0,2,17861,WMM1,424456,false,false,505,image-keyboard-response,13
true,4,1,3,1,true,z,false,false,0.0-2.0-0.13-0.120-3.120,0,1,0,90,false,stim,false,1,974.5549999643117,2,1,1,17861,WMM1,426956,false,true,508,image-keyboard-response,14
true,4,2,3,2,true,d,false,true,0.0-2.0-0.13-0.121-3.121,0,1,0,68,false,stim,false,0,734.1299999970943,2,0,2,17861,WMM1,429205,false,false,511,image-keyboard-response,15
true,4,0,3,0,true,q,false,true,0.0-2.0-0.13-0.122-3.122,0,1,0,81,false,stim,false,1,578.3200000878423,2,0,0,17861,WMM1,431305,false,false,514,image-keyboard-response,16
true,4,2,3,2,true,d,false,true,0.0-2.0-0.13-0.123-3.123,0,1,0,68,false,stim,false,0,844.6899999398738,2,0,2,17861,WMM1,433658,false,false,517,image-keyboard-response,17
true,4,0,3,1,false,z,true,false,0.0-2.0-0.13-0.124-3.124,0,1,0,81,false,stim,false,1,800.7200001738966,2,1,1,17861,WMM1,435971,false,false,520,image-keyboard-response,18
true,4,1,3,1,true,z,false,true,0.0-2.0-0.13-0.125-3.125,0,1,0,90,false,stim,false,1,551.0350000113249,2,1,1,17861,WMM1,438035,false,false,523,image-keyboard-response,19
true,4,1,3,1,true,z,false,true,0.0-2.0-0.14-0.126-3.126,0,1,0,90,false,stim,false,1,679.9149999860674,2,1,1,17861,WMM1,440237,false,false,526,image-keyboard-response,20
true,4,0,3,0,true,q,false,true,0.0-2.0-0.14-0.127-3.127,0,1,0,81,false,stim,false,1,580.7950000744313,2,0,0,17861,WMM1,442344,false,false,529,image-keyboard-response,21
true,4,2,3,2,true,d,false,true,0.0-2.0-0.14-0.128-3.128,0,1,0,68,false,stim,false,0,666.9050001073629,2,0,2,17861,WMM1,444535,false,false,532,image-keyboard-response,22
true,4,0,3,0,true,q,false,true,0.0-2.0-0.14-0.129-3.129,0,1,0,81,false,stim,false,1,1027.7700000442564,2,0,0,17861,WMM1,447082,false,false,535,image-keyboard-response,23
true,4,0,3,0,true,q,false,true,0.0-2.0-0.14-0.130-3.130,0,1,0,81,false,stim,false,1,541.6800000239164,2,0,0,17861,WMM1,449138,false,false,538,image-keyboard-response,24
true,4,2,3,2,true,d,false,true,0.0-2.0-0.14-0.131-3.131,0,1,0,68,false,stim,false,0,754.674999974668,2,0,2,17861,WMM1,451406,false,false,541,image-keyboard-response,25
true,4,2,3,2,true,d,false,true,0.0-2.0-0.14-0.132-3.132,0,1,0,68,false,stim,false,0,548.8299999851733,2,0,2,17861,WMM1,453468,false,false,544,image-keyboard-response,26
true,4,1,3,1,true,z,false,true,0.0-2.0-0.14-0.133-3.133,0,1,0,90,false,stim,false,1,804.2600001208484,2,0,1,17861,WMM1,455790,false,false,547,image-keyboard-response,27
true,4,1,3,1,true,z,false,true,0.0-2.0-0.14-0.134-3.134,0,1,0,90,false,stim,false,1,546.5649999678135,2,0,1,17861,WMM1,457856,false,false,550,image-keyboard-response,28
true,4,1,3,1,true,z,false,true,0.0-2.0-0.15-0.135-3.135,0,1,0,90,false,stim,false,1,702.8300000820309,2,0,1,17861,WMM1,460070,false,false,553,image-keyboard-response,29
true,4,2,3,2,true,d,false,true,0.0-2.0-0.15-0.136-3.136,0,1,0,68,false,stim,false,0,1126.3900001067668,2,0,2,17861,WMM1,462719,false,false,556,image-keyboard-response,30
true,4,2,3,2,true,d,false,true,0.0-2.0-0.15-0.137-3.137,0,1,0,68,false,stim,false,0,722.4200000055134,2,0,2,17861,WMM1,464964,false,false,559,image-keyboard-response,31
true,5,0,1,1,false,z,false,true,0.0-2.0-0.15-0.138-3.138,0,0,0,81,true,stim,true,0,894.4850000552833,2,0,0,17861,WMM1,467381,false,true,562,image-keyboard-response,1
true,5,1,1,2,false,d,false,false,0.0-2.0-0.15-0.139-3.139,0,0,0,90,false,stim,true,1,619.3099999800324,2,0,1,17861,WMM1,469519,false,false,565,image-keyboard-response,2
true,5,2,1,1,false,z,false,false,0.0-2.0-0.15-0.140-3.140,0,0,0,68,false,stim,true,2,719.9699999764562,2,0,2,17861,WMM1,471764,false,false,568,image-keyboard-response,3
true,5,1,1,2,false,d,false,false,0.0-2.0-0.15-0.141-3.141,0,0,0,90,false,stim,true,1,1007.85499997437,2,0,1,17861,WMM1,474286,false,false,571,image-keyboard-response,4
true,5,0,1,1,false,z,false,false,0.0-2.0-0.15-0.142-3.142,0,0,0,81,false,stim,true,0,1422.8350000921637,2,0,0,17861,WMM1,477236,false,false,574,image-keyboard-response,5
true,5,0,1,1,false,z,false,false,0.0-2.0-0.15-0.143-3.143,0,0,0,81,false,stim,true,0,440.6999999191612,2,0,0,17861,WMM1,479202,false,false,577,image-keyboard-response,6
true,5,1,1,1,true,z,false,false,0.0-2.0-0.16-0.144-3.144,0,0,0,90,false,stim,false,2,1039.820000063628,2,0,2,17861,WMM1,481766,false,true,580,image-keyboard-response,7
true,5,0,1,2,false,d,true,false,0.0-2.0-0.16-0.145-3.145,0,0,0,81,false,stim,false,1,1161.4449999760836,2,0,1,17861,WMM1,484439,false,false,583,image-keyboard-response,8
true,5,1,1,1,true,z,false,true,0.0-2.0-0.16-0.146-3.146,0,0,0,90,false,stim,false,0,1169.2049999255687,2,0,0,17861,WMM1,487122,false,false,586,image-keyboard-response,9
true,5,1,1,1,true,z,false,true,0.0-2.0-0.16-0.147-3.147,0,0,0,90,false,stim,false,0,556.1449998058379,2,0,0,17861,WMM1,489194,false,false,589,image-keyboard-response,10
true,5,1,1,1,true,z,false,true,0.0-2.0-0.16-0.148-3.148,0,0,0,90,false,stim,false,0,466.27500001341105,2,0,0,17861,WMM1,491181,false,false,592,image-keyboard-response,11
true,5,0,1,1,false,z,true,false,0.0-2.0-0.16-0.149-3.149,0,0,0,81,false,stim,false,2,1100.5299999378622,2,0,2,17861,WMM1,493801,false,false,595,image-keyboard-response,12
true,5,2,1,2,true,d,false,true,0.0-2.0-0.16-0.150-3.150,0,0,0,68,false,stim,false,1,839.2450001556426,2,0,1,17861,WMM1,496156,false,false,598,image-keyboard-response,13
true,5,1,1,1,true,z,false,true,0.0-2.0-0.16-0.151-3.151,0,0,0,90,false,stim,false,2,744.8350000195205,2,0,2,17861,WMM1,498425,false,false,601,image-keyboard-response,14
true,5,2,1,2,true,d,false,true,0.0-2.0-0.16-0.152-3.152,0,0,0,68,false,stim,false,1,1133.4799998439848,2,0,1,17861,WMM1,501074,false,false,604,image-keyboard-response,15
true,5,2,1,2,true,d,false,true,0.0-2.0-0.17-0.153-3.153,0,0,0,68,false,stim,false,1,529.975000070408,2,0,1,17861,WMM1,503122,false,false,607,image-keyboard-response,16
true,5,1,1,1,true,z,false,true,0.0-2.0-0.17-0.154-3.154,0,0,0,90,false,stim,false,2,566.2700000684708,2,0,2,17861,WMM1,505206,false,false,610,image-keyboard-response,17
true,5,1,1,1,true,z,false,true,0.0-2.0-0.17-0.155-3.155,0,0,0,90,false,stim,false,2,518.5449998825788,2,0,2,17861,WMM1,507250,false,false,613,image-keyboard-response,18
true,5,2,1,2,true,d,false,true,0.0-2.0-0.17-0.156-3.156,0,0,0,68,false,stim,false,1,975.4250000696629,2,0,1,17861,WMM1,509750,false,false,616,image-keyboard-response,19
true,5,2,1,2,true,d,false,true,0.0-2.0-0.17-0.157-3.157,0,0,0,68,false,stim,false,1,957.4800000991672,2,0,1,17861,WMM1,512225,false,false,619,image-keyboard-response,20
true,5,1,1,1,true,z,false,true,0.0-2.0-0.17-0.158-3.158,0,0,0,90,false,stim,false,2,678.1699999701232,2,0,2,17861,WMM1,514423,false,false,622,image-keyboard-response,21
true,5,1,1,1,true,z,false,true,0.0-2.0-0.17-0.159-3.159,0,0,0,90,false,stim,false,0,1115.0799999013543,2,0,0,17861,WMM1,517059,false,false,625,image-keyboard-response,22
true,5,1,1,1,true,z,false,true,0.0-2.0-0.17-0.160-3.160,0,0,0,90,false,stim,false,0,479.4600000604987,2,0,0,17861,WMM1,519060,false,false,628,image-keyboard-response,23
true,5,1,1,1,true,z,false,true,0.0-2.0-0.17-0.161-3.161,0,0,0,90,false,stim,false,0,404.11000000312924,2,0,0,17861,WMM1,520987,false,false,631,image-keyboard-response,24
true,5,1,1,1,true,z,false,true,0.0-2.0-0.18-0.162-3.162,0,0,0,90,false,stim,false,2,621.3100000750273,2,0,2,17861,WMM1,523125,false,false,634,image-keyboard-response,25
true,5,2,1,2,true,d,false,true,0.0-2.0-0.18-0.163-3.163,0,0,0,68,false,stim,false,1,443.4350000228733,2,0,1,17861,WMM1,525088,false,false,637,image-keyboard-response,26
true,5,1,1,1,true,z,false,true,0.0-2.0-0.18-0.164-3.164,0,0,0,90,false,stim,false,2,603.3750001806766,2,0,2,17861,WMM1,527210,false,false,640,image-keyboard-response,27
true,5,1,1,1,true,z,false,true,0.0-2.0-0.18-0.165-3.165,0,0,0,90,false,stim,false,0,535.6649998575449,2,0,0,17861,WMM1,529274,false,false,643,image-keyboard-response,28
true,5,1,1,1,true,z,false,true,0.0-2.0-0.18-0.166-3.166,0,0,0,90,false,stim,false,0,489.2049999907613,2,0,0,17861,WMM1,531289,false,false,646,image-keyboard-response,29
true,5,2,1,2,true,d,false,true,0.0-2.0-0.18-0.167-3.167,0,0,0,68,false,stim,false,1,545.285000000149,2,0,1,17861,WMM1,533353,false,false,649,image-keyboard-response,30
true,6,1,2,0,false,q,false,false,0.0-2.0-0.18-0.168-3.168,0,0,0,90,true,stim,true,1,605.0350000150502,2,0,0,17861,WMM1,535482,false,false,652,image-keyboard-response,1
true,6,2,2,1,false,z,false,false,0.0-2.0-0.18-0.169-3.169,0,0,0,68,false,stim,true,2,733.1699999049306,2,0,1,17861,WMM1,537726,false,false,655,image-keyboard-response,2
true,6,1,2,2,false,d,false,false,0.0-2.0-0.18-0.170-3.170,0,0,0,90,false,stim,true,1,634.3050000723451,2,0,2,17861,WMM1,539880,false,false,658,image-keyboard-response,3
true,6,2,2,1,false,z,false,false,0.0-2.0-0.19-0.171-3.171,0,0,0,68,false,stim,true,2,1988.6400001123548,2,0,1,17861,WMM1,543372,false,false,661,image-keyboard-response,4
true,6,2,2,2,true,d,false,true,0.0-2.0-0.19-0.172-3.172,0,0,0,68,false,stim,false,1,762.309999903664,2,0,2,17861,WMM1,545657,false,false,664,image-keyboard-response,5
true,6,0,2,1,false,z,true,false,0.0-2.0-0.19-0.173-3.173,0,0,0,81,false,stim,false,2,1570.975000038743,2,0,1,17861,WMM1,548754,false,false,667,image-keyboard-response,6
true,6,0,2,0,true,q,false,true,0.0-2.0-0.19-0.174-3.174,0,0,0,81,false,stim,false,1,1171.949999872595,2,0,0,17861,WMM1,551443,false,false,670,image-keyboard-response,7
true,6,0,2,0,true,q,false,true,0.0-2.0-0.19-0.175-3.175,0,0,0,81,false,stim,false,1,817.2849998809397,2,0,0,17861,WMM1,553771,false,false,673,image-keyboard-response,8
true,6,0,2,0,true,q,false,true,0.0-2.0-0.19-0.176-3.176,0,0,0,81,false,stim,false,1,704.8549999017268,2,0,0,17861,WMM1,555988,false,false,676,image-keyboard-response,9
true,6,2,2,2,true,d,false,true,0.0-2.0-0.19-0.177-3.177,0,0,0,68,false,stim,false,1,1022.8500000666827,2,0,2,17861,WMM1,558521,false,false,679,image-keyboard-response,10
true,6,1,2,1,true,z,false,true,0.0-2.0-0.19-0.178-3.178,0,0,0,90,false,stim,false,2,486.7850001901388,2,0,1,17861,WMM1,560529,false,false,682,image-keyboard-response,11
true,6,2,2,2,true,d,false,false,0.0-2.0-0.19-0.179-3.179,0,0,0,68,false,stim,false,1,937.3749999795109,2,0,2,17861,WMM1,562991,false,true,685,image-keyboard-response,12
true,6,1,2,1,true,z,false,false,0.0-2.0-0.20-0.180-3.180,0,0,0,90,false,stim,false,2,645.7350000273436,2,0,1,17861,WMM1,565150,false,true,688,image-keyboard-response,13
true,6,0,2,0,true,q,false,true,0.0-2.0-0.20-0.181-3.181,0,0,0,81,false,stim,false,1,567.3249999526888,2,0,0,17861,WMM1,567229,false,false,691,image-keyboard-response,14
true,6,0,2,0,true,q,false,true,0.0-2.0-0.20-0.182-3.182,0,0,0,81,false,stim,false,1,663.8950000051409,2,0,0,17861,WMM1,569400,false,false,694,image-keyboard-response,15
true,6,2,2,2,true,d,false,false,0.0-2.0-0.20-0.183-3.183,0,0,0,68,false,stim,false,1,1071.5699999127537,2,0,2,17861,WMM1,571996,false,true,697,image-keyboard-response,16
true,6,0,2,0,true,q,false,true,0.0-2.0-0.20-0.184-3.184,0,0,0,81,false,stim,false,1,879.7150000464171,2,0,0,17861,WMM1,574394,false,false,700,image-keyboard-response,17
true,6,0,2,1,false,z,true,true,0.0-2.0-0.20-0.185-3.185,0,0,0,81,false,stim,false,2,691.7799999937415,2,0,1,17861,WMM1,576607,false,true,703,image-keyboard-response,18
true,6,1,2,2,false,d,false,false,0.0-2.0-0.20-0.186-3.186,0,0,0,90,false,stim,true,1,529.3749999254942,2,0,2,17861,WMM1,578663,false,false,706,image-keyboard-response,19
true,6,2,2,2,true,d,false,true,0.0-2.0-0.20-0.187-3.187,0,0,0,68,false,stim,false,1,838.7100000400096,2,0,2,17861,WMM1,581014,false,false,709,image-keyboard-response,20
true,6,0,2,1,false,z,true,false,0.0-2.0-0.20-0.188-3.188,0,0,0,81,false,stim,false,2,528.605000115931,2,0,1,17861,WMM1,583062,false,false,712,image-keyboard-response,21
true,6,0,2,1,false,z,true,false,0.0-2.0-0.21-0.189-3.189,0,0,0,81,false,stim,false,2,502.49999994412065,2,0,1,17861,WMM1,585077,false,false,715,image-keyboard-response,22
true,6,2,2,2,true,d,false,true,0.0-2.0-0.21-0.190-3.190,0,0,0,68,false,stim,false,1,1136.7699999827892,2,0,2,17861,WMM1,587730,false,false,718,image-keyboard-response,23
true,6,2,2,2,true,d,false,true,0.0-2.0-0.21-0.191-3.191,0,0,0,68,false,stim,false,1,764.0549999196082,2,0,2,17861,WMM1,590009,false,false,721,image-keyboard-response,24
true,6,2,2,1,false,z,false,false,0.0-2.0-0.21-0.192-3.192,0,0,0,68,false,stim,true,2,1032.4250000994653,2,0,1,17861,WMM1,592553,false,false,724,image-keyboard-response,25
true,6,0,2,0,true,q,false,true,0.0-2.0-0.21-0.193-3.193,0,0,0,81,false,stim,false,1,1119.2799999844283,2,0,0,17861,WMM1,595196,false,false,727,image-keyboard-response,26
true,6,1,2,1,true,z,false,true,0.0-2.0-0.21-0.194-3.194,0,0,0,90,false,stim,false,2,372.0700000412762,2,0,1,17861,WMM1,597086,false,false,730,image-keyboard-response,27
true,6,2,2,2,true,d,false,true,0.0-2.0-0.21-0.195-3.195,0,0,0,68,false,stim,false,1,579.6750001609325,2,0,2,17861,WMM1,599181,false,false,733,image-keyboard-response,28
true,6,0,2,0,true,q,false,true,0.0-2.0-0.21-0.196-3.196,0,0,0,81,false,stim,false,1,937.679999973625,2,0,0,17861,WMM1,601639,false,false,736,image-keyboard-response,29
true,6,0,2,0,true,q,false,true,0.0-2.0-0.21-0.197-3.197,0,0,0,81,false,stim,false,1,577.419999986887,2,0,0,17861,WMM1,603732,false,false,739,image-keyboard-response,30
true,6,1,2,1,true,z,false,true,0.0-2.0-0.22-0.198-3.198,0,0,0,90,false,stim,false,2,670.1350000221282,2,0,1,17861,WMM1,605925,false,false,742,image-keyboard-response,31
true,6,1,2,1,true,z,false,true,0.0-2.0-0.22-0.199-3.199,0,0,0,90,false,stim,false,2,891.3650000467896,2,0,1,17861,WMM1,608342,false,false,745,image-keyboard-response,32
true,6,2,2,2,true,d,false,true,0.0-2.0-0.22-0.200-3.200,0,0,0,68,false,stim,false,1,526.2949999887496,2,0,2,17861,WMM1,610392,false,false,748,image-keyboard-response,33
true,6,0,2,0,true,q,false,true,0.0-2.0-0.22-0.201-3.201,0,0,0,81,false,stim,false,1,880.8800000697374,2,0,0,17861,WMM1,612801,false,false,751,image-keyboard-response,34
true,6,0,2,0,true,q,false,true,0.0-2.0-0.22-0.202-3.202,0,0,0,81,false,stim,false,1,537.2699999716133,2,0,0,17861,WMM1,614857,false,false,754,image-keyboard-response,35
true,6,1,2,1,true,z,false,true,0.0-2.0-0.22-0.203-3.203,0,0,0,90,false,stim,false,2,818.1849999818951,2,0,1,17861,WMM1,617194,false,false,757,image-keyboard-response,36
true,6,2,2,2,true,d,false,true,0.0-2.0-0.22-0.204-3.204,0,0,0,68,false,stim,false,1,659.4499999191612,2,0,2,17861,WMM1,619371,false,false,760,image-keyboard-response,37
true,6,0,2,0,true,q,false,true,0.0-2.0-0.22-0.205-3.205,0,0,0,81,false,stim,false,1,559.8100000061095,2,0,0,17861,WMM1,621435,false,false,763,image-keyboard-response,38
true,6,2,2,2,true,d,false,true,0.0-2.0-0.22-0.206-3.206,0,0,0,68,false,stim,false,1,629.7049999702722,2,0,2,17861,WMM1,623582,false,false,766,image-keyboard-response,39
true,6,0,2,0,true,q,false,true,0.0-2.0-0.23-0.207-3.207,0,0,0,81,false,stim,false,1,760.7500001322478,2,0,0,17861,WMM1,625855,false,false,769,image-keyboard-response,40
true,6,1,2,1,true,z,false,true,0.0-2.0-0.23-0.208-3.208,0,0,0,90,false,stim,false,2,648.6000001896173,2,0,1,17861,WMM1,628031,false,false,772,image-keyboard-response,41
true,7,2,1,0,false,q,false,false,0.0-2.0-0.23-0.209-3.209,0,0,0,68,true,stim,true,2,617.2350000124425,2,0,2,17861,WMM1,630169,false,false,775,image-keyboard-response,1
true,7,2,1,0,false,q,false,false,0.0-2.0-0.23-0.210-3.210,0,0,0,68,false,stim,true,2,551.2900000903755,2,0,2,17861,WMM1,632240,false,false,778,image-keyboard-response,2
true,7,0,1,2,false,d,false,false,0.0-2.0-0.23-0.211-3.211,0,0,0,81,false,stim,true,0,884.5999999903142,2,0,0,17861,WMM1,634650,false,false,781,image-keyboard-response,3
true,7,0,1,0,true,q,false,true,0.0-2.0-0.23-0.212-3.212,0,0,0,81,false,stim,false,2,1177.9350000433624,2,0,2,17861,WMM1,637345,false,false,784,image-keyboard-response,4
true,7,1,1,2,false,d,false,false,0.0-2.0-0.23-0.213-3.213,0,0,0,90,false,stim,true,1,784.3400000128895,2,0,1,17861,WMM1,639647,false,false,787,image-keyboard-response,5
true,7,0,1,2,false,d,true,false,0.0-2.0-0.23-0.214-3.214,0,0,0,81,false,stim,false,1,437.0249998755753,2,0,1,17861,WMM1,641594,false,false,790,image-keyboard-response,6
true,7,2,1,2,true,d,false,true,0.0-2.0-0.23-0.215-3.215,0,0,0,68,false,stim,false,0,1318.44999990426,2,0,0,17861,WMM1,644444,false,false,793,image-keyboard-response,7
true,7,0,1,0,true,q,false,true,0.0-2.0-0.24-0.216-3.216,0,0,0,81,false,stim,false,2,614.9150000419468,2,0,2,17861,WMM1,646577,false,false,796,image-keyboard-response,8
true,7,0,1,0,true,q,false,true,0.0-2.0-0.24-0.217-3.217,0,0,0,81,false,stim,false,2,1032.6400001067668,2,0,2,17861,WMM1,649126,false,false,799,image-keyboard-response,9
true,7,2,1,2,true,d,false,false,0.0-2.0-0.24-0.218-3.218,0,0,0,68,false,stim,false,0,1195.4649998806417,2,0,0,17861,WMM1,651836,false,true,802,image-keyboard-response,10
true,7,2,1,2,true,d,false,true,0.0-2.0-0.24-0.219-3.219,0,0,0,68,false,stim,false,1,410.050000064075,2,0,1,17861,WMM1,653774,false,false,805,image-keyboard-response,11
true,7,2,1,2,true,d,false,true,0.0-2.0-0.24-0.220-3.220,0,0,0,68,false,stim,false,1,494.10499981604517,2,0,1,17861,WMM1,655784,false,false,808,image-keyboard-response,12
true,7,2,1,2,true,d,false,true,0.0-2.0-0.24-0.221-3.221,0,0,0,68,false,stim,false,0,432.5850000604987,2,0,0,17861,WMM1,657739,false,false,811,image-keyboard-response,13
true,7,2,1,2,true,d,false,true,0.0-2.0-0.24-0.222-3.222,0,0,0,68,false,stim,false,1,484.19500002637506,2,0,1,17861,WMM1,659748,false,false,814,image-keyboard-response,14
true,7,0,1,0,true,q,false,true,0.0-2.0-0.24-0.223-3.223,0,0,0,81,false,stim,false,2,487.72000009194016,2,0,2,17861,WMM1,661760,false,false,817,image-keyboard-response,15
true,7,2,1,2,true,d,false,true,0.0-2.0-0.24-0.224-3.224,0,0,0,68,false,stim,false,0,806.2750000972301,2,0,0,17861,WMM1,664080,false,false,820,image-keyboard-response,16
true,7,2,1,2,true,d,false,true,0.0-2.0-0.25-0.225-3.225,0,0,0,68,false,stim,false,0,840.8399999607354,2,0,0,17861,WMM1,666436,false,false,823,image-keyboard-response,17
true,7,2,1,2,true,d,false,true,0.0-2.0-0.25-0.226-3.226,0,0,0,68,false,stim,false,1,593.5400000307709,2,0,1,17861,WMM1,668548,false,false,826,image-keyboard-response,18
true,7,2,1,2,true,d,false,false,0.0-2.0-0.25-0.227-3.227,0,0,0,68,false,stim,false,1,492.9750000592321,2,0,1,17861,WMM1,670556,false,true,829,image-keyboard-response,19
true,7,2,1,2,true,d,false,true,0.0-2.0-0.25-0.228-3.228,0,0,0,68,false,stim,false,0,1174.7599998489022,2,0,0,17861,WMM1,673252,false,false,832,image-keyboard-response,20
true,7,0,1,0,true,q,false,true,0.0-2.0-0.25-0.229-3.229,0,0,0,81,false,stim,false,2,752.1750000305474,2,0,2,17861,WMM1,675527,false,false,835,image-keyboard-response,21
true,7,2,1,2,true,d,false,true,0.0-2.0-0.25-0.230-3.230,0,0,0,68,false,stim,false,0,460.75999992899597,2,0,0,17861,WMM1,677508,false,false,838,image-keyboard-response,22
true,7,2,1,2,true,d,false,false,0.0-2.0-0.25-0.231-3.231,0,0,0,68,false,stim,false,1,473.8300000317395,2,0,1,17861,WMM1,679504,false,true,841,image-keyboard-response,23
true,7,0,1,0,true,q,false,false,0.0-2.0-0.25-0.232-3.232,0,0,0,81,false,stim,false,2,518.7000001315027,2,0,2,17861,WMM1,681549,false,true,844,image-keyboard-response,24
true,7,2,1,0,false,q,false,false,0.0-2.0-0.25-0.233-3.233,0,0,0,68,false,stim,true,2,2005.7950001209974,2,0,2,17861,WMM1,685077,false,false,847,image-keyboard-response,25
true,7,2,1,2,true,d,false,true,0.0-2.0-0.26-0.234-3.234,0,0,0,68,false,stim,false,1,805.2399998996407,2,0,1,17861,WMM1,687390,false,false,850,image-keyboard-response,26
true,7,2,1,2,true,d,false,true,0.0-2.0-0.26-0.235-3.235,0,0,0,68,false,stim,false,0,601.9450000021607,2,0,0,17861,WMM1,689508,false,false,853,image-keyboard-response,27
true,7,0,1,0,true,q,false,false,0.0-2.0-0.26-0.236-3.236,0,0,0,81,false,stim,false,2,525.2850002143532,2,0,2,17861,WMM1,691547,false,true,856,image-keyboard-response,28
true,7,1,1,0,false,q,true,false,0.0-2.0-0.26-0.237-3.237,0,0,0,90,false,stim,false,2,565.7949999440461,2,0,2,17861,WMM1,693635,false,false,859,image-keyboard-response,29
true,7,2,1,2,true,d,false,true,0.0-2.0-0.26-0.238-3.238,0,0,0,68,false,stim,false,1,542.3799999989569,2,0,1,17861,WMM1,695706,false,false,862,image-keyboard-response,30
true,8,2,2,0,false,q,false,false,0.0-2.0-0.26-0.239-3.239,0,0,0,68,true,stim,true,2,374.34000009670854,2,0,0,17861,WMM1,697604,false,false,865,image-keyboard-response,1
true,8,1,2,2,false,d,true,false,0.0-2.0-0.26-0.240-3.240,0,0,0,90,false,stim,false,0,1512.0749999769032,2,0,2,17861,WMM1,700621,false,false,868,image-keyboard-response,2
true,8,2,2,0,false,q,false,false,0.0-2.0-0.26-0.241-3.241,0,0,0,68,false,stim,true,2,606.5500001423061,2,0,0,17861,WMM1,702747,false,false,871,image-keyboard-response,3
true,8,2,2,1,false,z,false,false,0.0-2.0-0.26-0.242-3.242,0,0,0,68,false,stim,true,2,751.3600001111627,2,0,1,17861,WMM1,705005,false,false,874,image-keyboard-response,4
true,8,0,2,1,false,z,true,false,0.0-2.0-0.27-0.243-3.243,0,0,0,81,false,stim,false,2,919.0800001379102,2,0,1,17861,WMM1,707441,false,false,877,image-keyboard-response,5
true,8,0,2,0,true,q,false,true,0.0-2.0-0.27-0.244-3.244,0,0,0,81,false,stim,false,2,858.0300000030547,2,0,0,17861,WMM1,709819,false,false,880,image-keyboard-response,6
true,8,0,2,2,false,d,false,false,0.0-2.0-0.27-0.245-3.245,0,0,0,81,false,stim,true,0,1100.4950001370162,2,0,2,17861,WMM1,712448,false,false,883,image-keyboard-response,7
true,8,0,2,1,false,z,true,false,0.0-2.0-0.27-0.246-3.246,0,0,0,81,false,stim,false,2,1980.3049999754876,2,0,1,17861,WMM1,715954,false,false,886,image-keyboard-response,8
true,8,0,2,0,true,q,false,true,0.0-2.0-0.27-0.247-3.247,0,0,0,81,false,stim,false,2,963.420000160113,2,0,0,17861,WMM1,718433,false,false,889,image-keyboard-response,9
true,8,1,2,1,true,z,false,true,0.0-2.0-0.27-0.248-3.248,0,0,0,90,false,stim,false,2,916.0499998833984,2,0,1,17861,WMM1,720874,false,false,892,image-keyboard-response,10
true,8,2,2,2,true,d,false,true,0.0-2.0-0.27-0.249-3.249,0,0,0,68,false,stim,false,0,1274.6049999259412,2,0,2,17861,WMM1,723677,false,false,895,image-keyboard-response,11
true,8,2,2,2,true,d,false,true,0.0-2.0-0.27-0.250-3.250,0,0,0,68,false,stim,false,0,791.884999955073,2,0,2,17861,WMM1,725990,false,false,898,image-keyboard-response,12
true,8,0,2,0,true,q,false,true,0.0-2.0-0.27-0.251-3.251,0,0,0,81,false,stim,false,2,940.8050000201911,2,0,0,17861,WMM1,728453,false,false,901,image-keyboard-response,13
true,8,0,2,0,true,q,false,true,0.0-2.0-0.28-0.252-3.252,0,0,0,81,false,stim,false,2,553.1000001356006,2,0,0,17861,WMM1,730516,false,false,904,image-keyboard-response,14
true,8,1,2,1,true,z,false,false,0.0-2.0-0.28-0.253-3.253,0,0,0,90,false,stim,false,2,569.6699998807162,2,0,1,17861,WMM1,732607,false,true,907,image-keyboard-response,15
true,8,0,2,0,true,q,false,true,0.0-2.0-0.28-0.254-3.254,0,0,0,81,false,stim,false,2,858.4600000176579,2,0,0,17861,WMM1,734982,false,false,910,image-keyboard-response,16
true,8,1,2,1,true,z,false,true,0.0-2.0-0.28-0.255-3.255,0,0,0,90,false,stim,false,2,836.4199998322874,2,0,1,17861,WMM1,737345,false,false,913,image-keyboard-response,17
true,8,0,2,0,true,q,false,true,0.0-2.0-0.28-0.256-3.256,0,0,0,81,false,stim,false,2,575.7899999152869,2,0,0,17861,WMM1,739432,false,false,916,image-keyboard-response,18
true,8,2,2,2,true,d,false,true,0.0-2.0-0.28-0.257-3.257,0,0,0,68,false,stim,false,0,778.0499998480082,2,0,2,17861,WMM1,741723,false,false,919,image-keyboard-response,19
true,8,2,2,2,true,d,false,true,0.0-2.0-0.28-0.258-3.258,0,0,0,68,false,stim,false,0,708.335000090301,2,0,2,17861,WMM1,743958,false,false,922,image-keyboard-response,20
true,8,2,2,2,true,d,false,true,0.0-2.0-0.28-0.259-3.259,0,0,0,68,false,stim,false,0,554.4300000183284,2,0,2,17861,WMM1,746030,false,false,925,image-keyboard-response,21
true,8,1,2,1,true,z,false,true,0.0-2.0-0.28-0.260-3.260,0,0,0,90,false,stim,false,2,1471.9699998386204,2,0,1,17861,WMM1,749021,false,false,928,image-keyboard-response,22
true,8,1,2,1,true,z,false,true,0.0-2.0-0.29-0.261-3.261,0,0,0,90,false,stim,false,2,552.2499999497086,2,0,1,17861,WMM1,751090,false,false,931,image-keyboard-response,23
true,8,2,2,2,true,d,false,true,0.0-2.0-0.29-0.262-3.262,0,0,0,68,false,stim,false,0,645.1399999205023,2,0,2,17861,WMM1,753259,false,false,934,image-keyboard-response,24
true,8,0,2,0,true,q,false,true,0.0-2.0-0.29-0.263-3.263,0,0,0,81,false,stim,false,2,612.9099999088794,2,1,0,17861,WMM1,755389,false,false,937,image-keyboard-response,25
true,8,2,2,2,true,d,false,true,0.0-2.0-0.29-0.264-3.264,0,0,0,68,false,stim,false,0,742.2350000124425,2,0,2,17861,WMM1,757645,false,false,940,image-keyboard-response,26
true,8,0,2,0,true,q,false,true,0.0-2.0-0.29-0.265-3.265,0,0,0,81,false,stim,false,2,2584.8999998997897,2,1,0,17861,WMM1,761741,false,false,943,image-keyboard-response,27
true,8,1,2,1,true,z,false,true,0.0-2.0-0.29-0.266-3.266,0,0,0,90,false,stim,false,2,492.0449999626726,2,0,1,17861,WMM1,763747,false,false,946,image-keyboard-response,28
true,8,1,2,1,true,z,false,true,0.0-2.0-0.29-0.267-3.267,0,0,0,90,false,stim,false,2,559.9750000983477,2,0,1,17861,WMM1,765822,false,false,949,image-keyboard-response,29
true,8,0,2,0,true,q,false,true,0.0-2.0-0.29-0.268-3.268,0,0,0,81,false,stim,false,2,748.8500000908971,2,1,0,17861,WMM1,768076,false,false,952,image-keyboard-response,30
true,9,2,3,0,false,q,false,false,0.0-2.0-0.29-0.269-3.269,1,0,0,68,true,stim,true,2,813.4800000116229,2,0,2,17861,WMM1,770411,false,false,955,image-keyboard-response,1
true,9,1,3,2,false,d,false,false,0.0-2.0-0.30-0.270-3.270,1,0,0,90,false,stim,true,1,1212.4599998351187,2,0,1,17861,WMM1,773139,false,false,958,image-keyboard-response,2
true,9,0,3,0,true,q,false,true,0.0-2.0-0.30-0.271-3.271,1,0,0,81,false,stim,false,0,817.2550001181662,2,1,0,17861,WMM1,775466,false,false,961,image-keyboard-response,3
true,9,1,3,2,false,d,false,false,0.0-2.0-0.30-0.272-3.272,1,0,0,90,false,stim,true,1,465.37000010721385,2,0,1,17861,WMM1,777460,false,false,964,image-keyboard-response,4
true,9,1,3,0,false,q,true,false,0.0-2.0-0.30-0.273-3.273,1,0,0,90,false,stim,false,2,963.675000006333,2,0,2,17861,WMM1,779956,false,false,967,image-keyboard-response,5
true,9,0,3,0,true,q,false,true,0.0-2.0-0.30-0.274-3.274,1,0,0,81,false,stim,false,0,890.8600001595914,2,1,0,17861,WMM1,782365,false,false,970,image-keyboard-response,6
true,9,0,3,0,true,q,false,true,0.0-2.0-0.30-0.275-3.275,1,0,0,81,false,stim,false,2,588.5600000619888,2,0,2,17861,WMM1,784477,false,false,973,image-keyboard-response,7
true,9,0,3,0,true,q,false,true,0.0-2.0-0.30-0.276-3.276,1,0,0,81,false,stim,false,0,845.5750001594424,2,1,0,17861,WMM1,786841,false,false,976,image-keyboard-response,8
true,9,0,3,0,true,q,false,true,0.0-2.0-0.30-0.277-3.277,1,0,0,81,false,stim,false,2,412.6200000755489,2,0,2,17861,WMM1,788777,false,false,979,image-keyboard-response,9
true,9,2,3,2,true,d,false,false,0.0-2.0-0.30-0.278-3.278,1,0,0,68,false,stim,false,1,421.61000007763505,2,0,1,17861,WMM1,790715,false,true,982,image-keyboard-response,10
true,9,0,3,0,true,q,false,true,0.0-2.0-0.31-0.279-3.279,1,0,0,81,false,stim,false,2,564.6949999500066,2,0,2,17861,WMM1,792792,false,false,985,image-keyboard-response,11
true,9,0,3,0,true,q,false,false,0.0-2.0-0.31-0.280-3.280,1,0,0,81,false,stim,false,0,378.00000002607703,2,1,0,17861,WMM1,794689,false,true,988,image-keyboard-response,12
true,9,0,3,0,true,q,false,true,0.0-2.0-0.31-0.281-3.281,1,0,0,81,false,stim,false,2,537.3050000052899,2,0,2,17861,WMM1,796756,false,false,991,image-keyboard-response,13
true,9,1,3,2,false,d,false,false,0.0-2.0-0.31-0.282-3.282,1,0,0,90,false,stim,true,1,740.2250000741333,2,0,1,17861,WMM1,799013,false,false,994,image-keyboard-response,14
true,9,0,3,0,true,q,false,true,0.0-2.0-0.31-0.283-3.283,1,0,0,81,false,stim,false,0,1094.4250000175089,2,1,0,17861,WMM1,801621,false,false,997,image-keyboard-response,15
true,9,0,3,0,true,q,false,true,0.0-2.0-0.31-0.284-3.284,1,0,0,81,false,stim,false,0,791.9299998320639,2,1,0,17861,WMM1,803937,false,false,1000,image-keyboard-response,16
true,9,0,3,0,true,q,false,true,0.0-2.0-0.31-0.285-3.285,1,0,0,81,false,stim,false,2,952.4249997921288,2,0,2,17861,WMM1,806417,false,false,1003,image-keyboard-response,17
true,9,0,3,2,false,d,true,true,0.0-2.0-0.31-0.286-3.286,1,0,0,81,false,stim,false,1,1180.3450000006706,2,0,1,17861,WMM1,809117,false,true,1006,image-keyboard-response,18
true,9,0,3,2,false,d,true,false,0.0-2.0-0.31-0.287-3.287,1,0,0,81,false,stim,false,1,515.9800001420081,2,0,1,17861,WMM1,811148,false,false,1009,image-keyboard-response,19
true,9,0,3,0,true,q,false,true,0.0-2.0-0.32-0.288-3.288,1,0,0,81,false,stim,false,0,548.329999903217,2,1,0,17861,WMM1,813202,false,false,1012,image-keyboard-response,20
true,9,0,3,2,false,d,true,true,0.0-2.0-0.32-0.289-3.289,1,0,0,81,false,stim,false,1,1588.6450000107288,2,0,1,17861,WMM1,816315,false,true,1015,image-keyboard-response,21
true,9,0,3,0,true,q,false,true,0.0-2.0-0.32-0.290-3.290,1,0,0,81,false,stim,false,2,395.7699998281896,2,0,2,17861,WMM1,818234,false,false,1018,image-keyboard-response,22
true,9,0,3,0,true,q,false,true,0.0-2.0-0.32-0.291-3.291,1,0,0,81,false,stim,false,0,44.98000000603497,2,1,0,17861,WMM1,819805,false,false,1021,image-keyboard-response,23
true,9,0,3,0,true,q,false,true,0.0-2.0-0.32-0.292-3.292,1,0,0,81,false,stim,false,2,117.64499987475574,2,0,2,17861,WMM1,821431,false,false,1024,image-keyboard-response,24
true,9,0,3,0,true,q,false,true,0.0-2.0-0.32-0.293-3.293,1,0,0,81,false,stim,false,0,351.51499998755753,2,1,0,17861,WMM1,823301,false,false,1027,image-keyboard-response,25
true,9,0,3,2,false,d,true,false,0.0-2.0-0.32-0.294-3.294,1,0,0,81,false,stim,false,1,278.15499994903803,2,0,1,17861,WMM1,825102,false,false,1030,image-keyboard-response,26
true,9,0,3,2,false,d,true,false,0.0-2.0-0.32-0.295-3.295,1,0,0,81,false,stim,false,1,1018.3750002179295,2,0,1,17861,WMM1,827647,false,false,1033,image-keyboard-response,27
true,9,0,3,0,true,q,false,true,0.0-2.0-0.32-0.296-3.296,1,0,0,81,false,stim,false,2,622.0550001598895,2,0,2,17861,WMM1,829782,false,false,1036,image-keyboard-response,28
true,9,1,3,2,false,d,false,false,0.0-2.0-0.33-0.297-3.297,1,0,0,90,false,stim,true,1,1528.8799998816103,2,0,1,17861,WMM1,832837,false,false,1039,image-keyboard-response,29
true,9,0,3,0,true,q,false,true,0.0-2.0-0.33-0.298-3.298,1,0,0,81,false,stim,false,0,648.8050001207739,2,1,0,17861,WMM1,834991,false,false,1042,image-keyboard-response,30
true,9,0,3,0,true,q,false,true,0.0-2.0-0.33-0.299-3.299,1,0,0,81,false,stim,false,2,443.4399998281151,2,0,2,17861,WMM1,836939,false,false,1045,image-keyboard-response,31
true,9,0,3,0,true,q,false,true,0.0-2.0-0.33-0.300-3.300,1,0,0,81,false,stim,false,0,547.1650001127273,2,1,0,17861,WMM1,839012,false,false,1048,image-keyboard-response,32
true,9,2,3,2,true,d,false,false,0.0-2.0-0.33-0.301-3.301,1,0,0,68,false,stim,false,1,820.7199999596924,2,0,1,17861,WMM1,841349,false,true,1051,image-keyboard-response,33
true,9,0,3,0,true,q,false,true,0.0-2.0-0.33-0.302-3.302,1,0,0,81,false,stim,false,0,610.8850000891834,2,1,0,17861,WMM1,843474,false,false,1054,image-keyboard-response,34
true,9,0,3,0,true,q,false,false,0.0-2.0-0.33-0.303-3.303,1,0,0,81,false,stim,false,2,647.3399999085814,2,0,2,17861,WMM1,845640,false,true,1057,image-keyboard-response,35
true,9,1,3,2,false,d,false,false,0.0-2.0-0.33-0.304-3.304,1,0,0,90,false,stim,true,1,667.8599999286234,2,0,1,17861,WMM1,847823,false,false,1060,image-keyboard-response,36
true,9,0,3,0,true,q,false,true,0.0-2.0-0.33-0.305-3.305,1,0,0,81,false,stim,false,2,696.1850000079721,2,0,2,17861,WMM1,850041,false,false,1063,image-keyboard-response,37
true,9,0,3,0,true,q,false,true,0.0-2.0-0.34-0.306-3.306,1,0,0,81,false,stim,false,0,621.3800001423806,2,1,0,17861,WMM1,852183,false,false,1066,image-keyboard-response,38
true,9,0,3,2,false,d,true,false,0.0-2.0-0.34-0.307-3.307,1,0,0,81,false,stim,false,1,303.97000000812113,2,0,1,17861,WMM1,854012,false,false,1069,image-keyboard-response,39
true,9,0,3,0,true,q,false,false,0.0-2.0-0.34-0.308-3.308,1,0,0,81,false,stim,false,0,268.804999999702,2,1,0,17861,WMM1,855795,false,true,1072,image-keyboard-response,40
true,9,0,3,0,true,q,false,true,0.0-2.0-0.34-0.309-3.309,1,0,0,81,false,stim,false,2,500.8350000716746,2,0,2,17861,WMM1,857814,false,false,1075,image-keyboard-response,41
true,9,0,3,0,true,q,false,true,0.0-2.0-0.34-0.310-3.310,1,0,0,81,false,stim,false,2,564.3500001169741,2,0,2,17861,WMM1,859899,false,false,1078,image-keyboard-response,42
true,9,0,3,0,true,q,false,true,0.0-2.0-0.34-0.311-3.311,1,0,0,81,false,stim,false,0,629.8450001049787,2,1,0,17861,WMM1,862053,false,false,1081,image-keyboard-response,43
true,9,0,3,0,true,q,false,true,0.0-2.0-0.34-0.312-3.312,1,0,0,81,false,stim,false,2,670.5500001553446,2,0,2,17861,WMM1,864247,false,false,1084,image-keyboard-response,44
true,9,1,3,2,false,d,false,false,0.0-2.0-0.34-0.313-3.313,1,0,0,90,false,stim,true,1,834.4449999276549,2,0,1,17861,WMM1,866599,false,false,1087,image-keyboard-response,45
true,9,2,3,2,true,d,false,true,0.0-2.0-0.34-0.314-3.314,1,0,0,68,false,stim,false,1,1505.9100000653416,2,0,1,17861,WMM1,869621,false,false,1090,image-keyboard-response,46
true,9,0,3,0,true,q,false,true,0.0-2.0-0.35-0.315-3.315,1,0,0,81,false,stim,false,2,487.30999999679625,2,0,2,17861,WMM1,871626,false,false,1093,image-keyboard-response,47
true,9,0,3,0,true,q,false,true,0.0-2.0-0.35-0.316-3.316,1,0,0,81,false,stim,false,0,998.5749998595566,2,1,0,17861,WMM1,874142,false,false,1096,image-keyboard-response,48
true,9,0,3,0,true,q,false,true,0.0-2.0-0.35-0.317-3.317,1,0,0,81,false,stim,false,0,455.4850000422448,2,1,0,17861,WMM1,876122,false,false,1099,image-keyboard-response,49
true,9,2,3,2,true,d,false,true,0.0-2.0-0.35-0.318-3.318,1,0,0,68,false,stim,false,1,442.87999998778105,2,0,1,17861,WMM1,878097,false,false,1102,image-keyboard-response,50
true,9,2,3,2,true,d,false,false,0.0-2.0-0.35-0.319-3.319,1,0,0,68,false,stim,false,1,516.6299999691546,2,0,1,17861,WMM1,880120,false,true,1105,image-keyboard-response,51
true,9,0,3,0,true,q,false,true,0.0-2.0-0.35-0.320-3.320,1,0,0,81,false,stim,false,2,414.8399999830872,2,0,2,17861,WMM1,882062,false,false,1108,image-keyboard-response,52
true,9,2,3,2,true,d,false,true,0.0-2.0-0.35-0.321-3.321,1,0,0,68,false,stim,false,1,653.775000013411,2,0,1,17861,WMM1,884233,false,false,1111,image-keyboard-response,53
true,9,0,3,0,true,q,false,true,0.0-2.0-0.35-0.322-3.322,1,0,0,81,false,stim,false,2,1255.339999916032,2,0,2,17861,WMM1,887000,false,false,1114,image-keyboard-response,54
true,9,0,3,0,true,q,false,true,0.0-2.0-0.35-0.323-3.323,1,0,0,81,false,stim,false,0,594.7950000409037,2,0,0,17861,WMM1,889116,false,false,1117,image-keyboard-response,55
true,9,0,3,0,true,q,false,true,0.0-2.0-0.36-0.324-3.324,1,0,0,81,false,stim,false,2,634.9750000517815,2,0,2,17861,WMM1,891265,false,false,1120,image-keyboard-response,56
true,9,0,3,0,true,q,false,true,0.0-2.0-0.36-0.325-3.325,1,0,0,81,false,stim,false,2,621.4600000530481,2,0,2,17861,WMM1,893406,false,false,1123,image-keyboard-response,57
true,9,0,3,0,true,q,false,true,0.0-2.0-0.36-0.326-3.326,1,0,0,81,false,stim,false,0,758.4599999245256,2,0,0,17861,WMM1,895669,false,false,1126,image-keyboard-response,58
true,9,2,3,2,true,d,false,true,0.0-2.0-0.36-0.327-3.327,1,0,0,68,false,stim,false,1,603.7850000429899,2,0,1,17861,WMM1,897788,false,false,1129,image-keyboard-response,59
true,9,0,3,0,true,q,false,true,0.0-2.0-0.36-0.328-3.328,1,0,0,81,false,stim,false,0,433.5950000677258,2,0,0,17861,WMM1,899739,false,false,1132,image-keyboard-response,60
true,10,0,4,1,false,z,false,false,0.0-2.0-0.36-0.329-3.329,0,0,0,81,true,stim,true,0,473.71999989263713,2,0,0,17861,WMM1,901731,false,false,1135,image-keyboard-response,1
true,10,2,4,0,false,q,false,false,0.0-2.0-0.36-0.330-3.330,0,0,0,68,false,stim,true,2,900.910000083968,2,0,1,17861,WMM1,904159,false,false,1138,image-keyboard-response,2
true,10,0,4,1,false,z,false,false,0.0-2.0-0.36-0.331-3.331,0,0,0,81,false,stim,true,0,591.1000000778586,2,0,2,17861,WMM1,906277,false,false,1141,image-keyboard-response,3
true,10,2,4,0,false,q,false,false,0.0-2.0-0.36-0.332-3.332,0,0,0,68,false,stim,true,2,813.7149999383837,2,0,1,17861,WMM1,908606,false,false,1144,image-keyboard-response,4
true,10,0,4,1,false,z,false,false,0.0-2.0-0.37-0.333-3.333,0,0,0,81,false,stim,true,0,820.8099999465048,2,0,2,17861,WMM1,910946,false,false,1147,image-keyboard-response,5
true,10,1,4,0,false,q,true,false,0.0-2.0-0.37-0.334-3.334,0,0,0,90,false,stim,false,2,1223.9000000990927,2,0,1,17861,WMM1,913690,false,false,1150,image-keyboard-response,6
true,10,1,4,1,true,z,false,true,0.0-2.0-0.37-0.335-3.335,0,0,0,90,false,stim,false,0,570.0999998953193,2,0,0,17861,WMM1,915767,false,false,1153,image-keyboard-response,7
true,10,0,4,1,false,z,false,false,0.0-2.0-0.37-0.336-3.336,0,0,0,81,false,stim,true,0,406.28999983891845,2,0,2,17861,WMM1,917687,false,false,1156,image-keyboard-response,8
true,10,1,4,1,true,z,false,true,0.0-2.0-0.37-0.337-3.337,0,0,0,90,false,stim,false,0,521.6999999247491,2,0,0,17861,WMM1,919736,false,false,1159,image-keyboard-response,9
true,10,1,4,1,true,z,false,true,0.0-2.0-0.37-0.338-3.338,0,0,0,90,false,stim,false,0,627.6050000451505,2,0,0,17861,WMM1,921875,false,false,1162,image-keyboard-response,10
true,10,0,4,0,true,q,false,true,0.0-2.0-0.37-0.339-3.339,0,0,0,81,false,stim,false,2,1149.9300000723451,2,0,1,17861,WMM1,924541,false,false,1165,image-keyboard-response,11
true,10,0,4,0,true,q,false,true,0.0-2.0-0.37-0.340-3.340,0,0,0,81,false,stim,false,2,966.8900000397116,2,0,1,17861,WMM1,927033,false,false,1168,image-keyboard-response,12
true,10,1,4,1,true,z,false,true,0.0-2.0-0.37-0.341-3.341,0,0,0,90,false,stim,false,0,1069.1899999510497,2,0,2,17861,WMM1,929624,false,false,1171,image-keyboard-response,13
true,10,1,4,0,false,q,true,false,0.0-2.0-0.38-0.342-3.342,0,0,0,90,false,stim,false,2,659.7549999132752,2,0,1,17861,WMM1,931797,false,false,1174,image-keyboard-response,14
true,10,1,4,1,true,z,false,true,0.0-2.0-0.38-0.343-3.343,0,0,0,90,false,stim,false,0,803.7250000052154,2,0,0,17861,WMM1,934119,false,false,1177,image-keyboard-response,15
true,10,1,4,1,true,z,false,true,0.0-2.0-0.38-0.344-3.344,0,0,0,90,false,stim,false,0,597.4449999630451,2,0,2,17861,WMM1,936244,false,false,1180,image-keyboard-response,16
true,10,0,4,0,true,q,false,true,0.0-2.0-0.38-0.345-3.345,0,0,0,81,false,stim,false,2,616.1550001706928,2,0,1,17861,WMM1,938388,false,false,1183,image-keyboard-response,17
true,10,0,4,1,false,z,false,false,0.0-2.0-0.38-0.346-3.346,0,0,0,81,false,stim,true,0,563.920000102371,2,0,0,17861,WMM1,940473,false,false,1186,image-keyboard-response,18
true,10,1,4,1,true,z,false,true,0.0-2.0-0.38-0.347-3.347,0,0,0,90,false,stim,false,0,660.5899999849498,2,0,2,17861,WMM1,942650,false,false,1189,image-keyboard-response,19
true,10,1,4,1,true,z,false,true,0.0-2.0-0.38-0.348-3.348,0,0,0,90,false,stim,false,0,524.2399999406189,2,0,2,17861,WMM1,944685,false,false,1192,image-keyboard-response,20
true,10,1,4,1,true,z,false,true,0.0-2.0-0.38-0.349-3.349,0,0,0,90,false,stim,false,0,724.4749998208135,2,0,0,17861,WMM1,946940,false,false,1195,image-keyboard-response,21
true,10,0,4,0,true,q,false,false,0.0-2.0-0.38-0.350-3.350,0,0,0,81,false,stim,false,2,632.5300000607967,2,0,1,17861,WMM1,949094,false,true,1198,image-keyboard-response,22
true,10,1,4,1,true,z,false,true,0.0-2.0-0.39-0.351-3.351,0,0,0,90,false,stim,false,0,1392.824999988079,2,0,2,17861,WMM1,952013,false,false,1201,image-keyboard-response,23
true,10,0,4,0,true,q,false,true,0.0-2.0-0.39-0.352-3.352,0,0,0,81,false,stim,false,2,771.2350001093,2,0,1,17861,WMM1,954311,false,false,1204,image-keyboard-response,24
true,10,1,4,1,true,z,false,true,0.0-2.0-0.39-0.353-3.353,0,0,0,90,false,stim,false,0,575.0949999783188,2,0,0,17861,WMM1,956403,false,false,1207,image-keyboard-response,25
true,10,0,4,0,true,q,false,true,0.0-2.0-0.39-0.354-3.354,0,0,0,81,false,stim,false,2,780.1549998112023,2,0,1,17861,WMM1,958697,false,false,1210,image-keyboard-response,26
true,10,0,4,0,true,q,false,true,0.0-2.0-0.39-0.355-3.355,0,0,0,81,false,stim,false,2,589.0350001864135,2,0,1,17861,WMM1,960809,false,false,1213,image-keyboard-response,27
true,10,1,4,1,true,z,false,true,0.0-2.0-0.39-0.356-3.356,0,0,0,90,false,stim,false,0,528.2149999402463,2,0,0,17861,WMM1,962860,false,false,1216,image-keyboard-response,28
true,10,1,4,1,true,z,false,true,0.0-2.0-0.39-0.357-3.357,0,0,0,90,false,stim,false,0,654.3000000528991,2,0,2,17861,WMM1,965035,false,false,1219,image-keyboard-response,29
true,10,1,4,1,true,z,false,false,0.0-2.0-0.39-0.358-3.358,0,0,0,90,false,stim,false,0,435.1299998816103,2,0,0,17861,WMM1,966994,false,true,1222,image-keyboard-response,30
true,10,1,4,1,true,z,false,true,0.0-2.0-0.39-0.359-3.359,0,0,0,90,false,stim,false,0,607.7100001275539,2,0,2,17861,WMM1,969119,false,false,1225,image-keyboard-response,31
true,10,1,4,1,true,z,false,true,0.0-2.0-0.40-0.360-3.360,0,0,0,90,false,stim,false,0,543.7249999959022,2,0,0,17861,WMM1,971188,false,false,1228,image-keyboard-response,32
true,10,1,4,1,true,z,false,true,0.0-2.0-0.40-0.361-3.361,0,0,0,90,false,stim,false,0,466.6049999650568,2,0,0,17861,WMM1,973182,false,false,1231,image-keyboard-response,33
true,10,1,4,1,true,z,false,true,0.0-2.0-0.40-0.362-3.362,0,0,0,90,false,stim,false,0,489.71000011079013,2,0,0,17861,WMM1,975195,false,false,1234,image-keyboard-response,34
true,10,1,4,1,true,z,false,true,0.0-2.0-0.40-0.363-3.363,0,0,0,90,false,stim,false,0,711.5350000094622,2,0,2,17861,WMM1,977434,false,false,1237,image-keyboard-response,35
true,11,1,2,2,false,d,false,false,0.0-2.0-0.40-0.364-3.364,0,0,0,90,true,stim,true,1,790.1099999435246,2,0,2,17861,WMM1,979742,false,false,1240,image-keyboard-response,1
true,11,1,2,2,false,d,false,false,0.0-2.0-0.40-0.365-3.365,0,0,0,90,false,stim,true,1,463.2900001015514,2,0,2,17861,WMM1,981729,false,false,1243,image-keyboard-response,2
true,11,0,2,1,false,z,false,false,0.0-2.0-0.40-0.366-3.366,0,0,0,81,false,stim,true,0,644.2700000479817,2,0,1,17861,WMM1,983891,false,false,1246,image-keyboard-response,3
true,11,2,2,1,false,z,true,false,0.0-2.0-0.40-0.367-3.367,0,0,0,68,false,stim,false,0,539.3049998674542,2,0,1,17861,WMM1,985944,false,false,1249,image-keyboard-response,4
true,11,1,2,1,true,z,false,true,0.0-2.0-0.40-0.368-3.368,0,0,0,90,false,stim,false,0,317.3249999526888,2,0,1,17861,WMM1,987768,false,false,1252,image-keyboard-response,5
true,11,1,2,0,false,q,false,false,0.0-2.0-0.41-0.369-3.369,0,0,0,90,false,stim,true,1,348.2299998868257,2,0,0,17861,WMM1,989641,false,false,1255,image-keyboard-response,6
true,11,1,2,2,false,d,false,false,0.0-2.0-0.41-0.370-3.370,0,0,0,90,false,stim,true,1,706.7549999337643,2,0,2,17861,WMM1,991871,false,false,1258,image-keyboard-response,7
true,11,1,2,0,false,q,false,false,0.0-2.0-0.41-0.371-3.371,0,0,0,90,false,stim,true,1,892.0199999120086,2,0,0,17861,WMM1,994275,false,false,1261,image-keyboard-response,8
true,11,1,2,1,true,z,false,true,0.0-2.0-0.41-0.372-3.372,0,0,0,90,false,stim,false,0,756.8200000096112,2,0,1,17861,WMM1,996549,false,false,1264,image-keyboard-response,9
true,11,0,2,0,true,q,false,true,0.0-2.0-0.41-0.373-3.373,0,0,0,81,false,stim,false,1,364.8099999409169,2,0,0,17861,WMM1,998432,false,false,1267,image-keyboard-response,10
true,11,2,2,2,true,d,false,true,0.0-2.0-0.41-0.374-3.374,0,0,0,68,false,stim,false,1,453.0099998228252,2,0,2,17861,WMM1,1000413,false,false,1270,image-keyboard-response,11
true,11,1,2,1,true,z,false,true,0.0-2.0-0.41-0.375-3.375,0,0,0,90,false,stim,false,0,648.090000031516,2,0,1,17861,WMM1,1002578,false,false,1273,image-keyboard-response,12
true,11,1,2,1,true,z,false,true,0.0-2.0-0.41-0.376-3.376,0,0,0,90,false,stim,false,0,551.4849999453872,2,0,1,17861,WMM1,1004655,false,false,1276,image-keyboard-response,13
true,11,2,2,2,true,d,false,true,0.0-2.0-0.41-0.377-3.377,0,0,0,68,false,stim,false,1,760.1900000590831,2,0,2,17861,WMM1,1006942,false,false,1279,image-keyboard-response,14
true,11,0,2,0,true,q,false,true,0.0-2.0-0.42-0.378-3.378,0,0,0,81,false,stim,false,1,473.9999999292195,2,0,0,17861,WMM1,1008934,false,false,1282,image-keyboard-response,15
true,11,2,2,2,true,d,false,true,0.0-2.0-0.42-0.379-3.379,0,0,0,68,false,stim,false,1,569.9899999890476,2,0,2,17861,WMM1,1011019,false,false,1285,image-keyboard-response,16
true,11,1,2,1,true,z,false,true,0.0-2.0-0.42-0.380-3.380,0,0,0,90,false,stim,false,0,504.9499999731779,2,0,1,17861,WMM1,1013043,false,false,1288,image-keyboard-response,17
true,11,2,2,2,true,d,false,false,0.0-2.0-0.42-0.381-3.381,0,0,0,68,false,stim,false,1,614.7749999072403,2,0,2,17861,WMM1,1015184,false,true,1291,image-keyboard-response,18
true,11,0,2,0,true,q,false,true,0.0-2.0-0.42-0.382-3.382,0,0,0,81,false,stim,false,1,496.3050000369549,2,0,0,17861,WMM1,1017203,false,false,1294,image-keyboard-response,19
true,11,1,2,1,true,z,false,true,0.0-2.0-0.42-0.383-3.383,0,0,0,90,false,stim,false,0,405.5750002153218,2,0,1,17861,WMM1,1019125,false,false,1297,image-keyboard-response,20
true,11,1,2,1,true,z,false,true,0.0-2.0-0.42-0.384-3.384,0,0,0,90,false,stim,false,0,641.1250000819564,2,1,1,17861,WMM1,1021292,false,false,1300,image-keyboard-response,21
true,11,0,2,0,true,q,false,true,0.0-2.0-0.42-0.385-3.385,0,0,0,81,false,stim,false,1,1571.0699998307973,2,0,0,17861,WMM1,1024385,false,false,1303,image-keyboard-response,22
true,11,2,2,2,true,d,false,true,0.0-2.0-0.42-0.386-3.386,0,0,0,68,false,stim,false,1,471.82999993674457,2,0,2,17861,WMM1,1026382,false,false,1306,image-keyboard-response,23
true,11,2,2,2,true,d,false,true,0.0-2.0-0.43-0.387-3.387,0,0,0,68,false,stim,false,1,595.3599999193102,2,0,2,17861,WMM1,1028498,false,false,1309,image-keyboard-response,24
true,11,1,2,1,true,z,false,true,0.0-2.0-0.43-0.388-3.388,0,0,0,90,false,stim,false,0,824.2450000252575,2,1,1,17861,WMM1,1030850,false,false,1312,image-keyboard-response,25
true,11,0,2,0,true,q,false,true,0.0-2.0-0.43-0.389-3.389,0,0,0,81,false,stim,false,1,413.1150001194328,2,0,0,17861,WMM1,1032767,false,false,1315,image-keyboard-response,26
true,11,1,2,1,true,z,false,true,0.0-2.0-0.43-0.390-3.390,0,0,0,90,false,stim,false,0,812.4949999619275,2,1,1,17861,WMM1,1035085,false,false,1318,image-keyboard-response,27
true,11,0,2,0,true,q,false,true,0.0-2.0-0.43-0.391-3.391,0,0,0,81,false,stim,false,1,697.4349999800324,2,0,0,17861,WMM1,1037302,false,false,1321,image-keyboard-response,28
true,11,0,2,0,true,q,false,true,0.0-2.0-0.43-0.392-3.392,0,0,0,81,false,stim,false,1,532.9849999397993,2,0,0,17861,WMM1,1039358,false,false,1324,image-keyboard-response,29
true,11,1,2,1,true,z,false,true,0.0-2.0-0.43-0.393-3.393,0,0,0,90,false,stim,false,0,634.9750000517815,2,1,1,17861,WMM1,1041522,false,false,1327,image-keyboard-response,30
true,12,2,3,1,false,z,false,false,0.0-2.0-0.43-0.394-3.394,0,1,0,68,true,stim,true,2,430.47000002115965,2,0,2,17861,WMM1,1043471,false,false,1330,image-keyboard-response,1
true,12,2,3,1,false,z,false,false,0.0-2.0-0.43-0.395-3.395,0,1,0,68,false,stim,true,2,605.5649998597801,2,0,2,17861,WMM1,1045600,false,false,1333,image-keyboard-response,2
true,12,1,3,1,true,z,false,true,0.0-2.0-0.44-0.396-3.396,0,1,0,90,false,stim,false,1,1000.0899999868125,2,1,1,17861,WMM1,1048107,false,false,1336,image-keyboard-response,3
true,12,0,3,2,false,d,false,false,0.0-2.0-0.44-0.397-3.397,0,1,0,81,false,stim,true,0,546.9300001859665,2,0,0,17861,WMM1,1050174,false,false,1339,image-keyboard-response,4
true,12,1,3,1,true,z,false,true,0.0-2.0-0.44-0.398-3.398,0,1,0,90,false,stim,false,1,678.1999999657273,2,1,1,17861,WMM1,1052378,false,false,1342,image-keyboard-response,5
true,12,1,3,2,false,d,true,false,0.0-2.0-0.44-0.399-3.399,0,1,0,90,false,stim,false,0,461.6699998732656,2,0,0,17861,WMM1,1054362,false,false,1345,image-keyboard-response,6
true,12,1,3,1,true,z,false,true,0.0-2.0-0.44-0.400-3.400,0,1,0,90,false,stim,false,2,592.1199999283999,2,0,2,17861,WMM1,1056475,false,false,1348,image-keyboard-response,7
true,12,1,3,1,true,z,false,true,0.0-2.0-0.44-0.401-3.401,0,1,0,90,false,stim,false,2,675.5850000772625,2,0,2,17861,WMM1,1058677,false,false,1351,image-keyboard-response,8
true,12,0,3,2,false,d,false,false,0.0-2.0-0.44-0.402-3.402,0,1,0,81,false,stim,true,0,1015.004999935627,2,0,0,17861,WMM1,1061203,false,false,1354,image-keyboard-response,9
true,12,1,3,1,true,z,false,true,0.0-2.0-0.44-0.403-3.403,0,1,0,90,false,stim,false,2,612.2600000817329,2,0,2,17861,WMM1,1063335,false,false,1357,image-keyboard-response,10
true,12,1,3,1,true,z,false,true,0.0-2.0-0.44-0.404-3.404,0,1,0,90,false,stim,false,1,723.9449999760836,2,1,1,17861,WMM1,1065581,false,false,1360,image-keyboard-response,11
true,12,1,3,1,true,z,false,true,0.0-2.0-0.45-0.405-3.405,0,1,0,90,false,stim,false,2,783.9000001549721,2,0,2,17861,WMM1,1067879,false,false,1363,image-keyboard-response,12
true,12,1,3,2,false,d,true,false,0.0-2.0-0.45-0.406-3.406,0,1,0,90,false,stim,false,0,943.8650000374764,2,0,0,17861,WMM1,1070335,false,false,1366,image-keyboard-response,13
true,12,1,3,1,true,z,false,true,0.0-2.0-0.45-0.407-3.407,0,1,0,90,false,stim,false,2,582.2850000113249,2,0,2,17861,WMM1,1072436,false,false,1369,image-keyboard-response,14
true,12,1,3,1,true,z,false,true,0.0-2.0-0.45-0.408-3.408,0,1,0,90,false,stim,false,1,376.56000000424683,2,1,1,17861,WMM1,1074334,false,false,1372,image-keyboard-response,15
true,12,1,3,1,true,z,false,true,0.0-2.0-0.45-0.409-3.409,0,1,0,90,false,stim,false,1,552.0249998662621,2,1,1,17861,WMM1,1076408,false,false,1375,image-keyboard-response,16
true,12,1,3,1,true,z,false,true,0.0-2.0-0.45-0.410-3.410,0,1,0,90,false,stim,false,1,481.23000003397465,2,1,1,17861,WMM1,1078413,false,false,1378,image-keyboard-response,17
true,12,1,3,2,false,d,true,false,0.0-2.0-0.45-0.411-3.411,0,1,0,90,false,stim,false,0,1342.3450000118464,2,0,0,17861,WMM1,1081269,false,false,1381,image-keyboard-response,18
true,12,2,3,2,true,d,false,false,0.0-2.0-0.45-0.412-3.412,0,1,0,68,false,stim,false,0,531.50499984622,2,0,0,17861,WMM1,1083323,false,true,1384,image-keyboard-response,19
true,12,1,3,1,true,z,false,true,0.0-2.0-0.45-0.413-3.413,0,1,0,90,false,stim,false,2,583.5349999833852,2,0,2,17861,WMM1,1085427,false,false,1387,image-keyboard-response,20
true,12,1,3,1,true,z,false,true,0.0-2.0-0.46-0.414-3.414,0,1,0,90,false,stim,false,2,642.4100000876933,2,0,2,17861,WMM1,1087585,false,false,1390,image-keyboard-response,21
true,12,1,3,1,true,z,false,true,0.0-2.0-0.46-0.415-3.415,0,1,0,90,false,stim,false,1,448.32000019960105,2,1,1,17861,WMM1,1089554,false,false,1393,image-keyboard-response,22
true,12,1,3,1,true,z,false,true,0.0-2.0-0.46-0.416-3.416,0,1,0,90,false,stim,false,1,517.4500001594424,2,1,1,17861,WMM1,1091586,false,false,1396,image-keyboard-response,23
true,12,1,3,1,true,z,false,true,0.0-2.0-0.46-0.417-3.417,0,1,0,90,false,stim,false,2,483.2850000821054,2,0,2,17861,WMM1,1093594,false,false,1399,image-keyboard-response,24
true,12,0,3,2,false,d,false,false,0.0-2.0-0.46-0.418-3.418,0,1,0,81,false,stim,true,0,371.1800000164658,2,0,0,17861,WMM1,1095478,false,false,1402,image-keyboard-response,25
true,12,1,3,1,true,z,false,true,0.0-2.0-0.46-0.419-3.419,0,1,0,90,false,stim,false,1,418.9750000368804,2,1,1,17861,WMM1,1097425,false,false,1405,image-keyboard-response,26
true,12,1,3,1,true,z,false,true,0.0-2.0-0.46-0.420-3.420,0,1,0,90,false,stim,false,2,547.9900001082569,2,0,2,17861,WMM1,1099493,false,false,1408,image-keyboard-response,27
true,12,1,3,2,false,d,true,false,0.0-2.0-0.46-0.421-3.421,0,1,0,90,false,stim,false,0,606.0450000222772,2,0,0,17861,WMM1,1101620,false,false,1411,image-keyboard-response,28
true,12,2,3,2,true,d,false,true,0.0-2.0-0.46-0.422-3.422,0,1,0,68,false,stim,false,0,774.100000038743,2,0,0,17861,WMM1,1103916,false,false,1414,image-keyboard-response,29
true,12,1,3,1,true,z,false,true,0.0-2.0-0.47-0.423-3.423,0,1,0,90,false,stim,false,1,407.1299999486655,2,1,1,17861,WMM1,1105831,false,false,1417,image-keyboard-response,30
true,12,1,3,1,true,z,false,true,0.0-2.0-0.47-0.424-3.424,0,1,0,90,false,stim,false,2,389.07000003382564,2,0,2,17861,WMM1,1107748,false,false,1420,image-keyboard-response,31
true,12,1,3,1,true,z,false,true,0.0-2.0-0.47-0.425-3.425,0,1,0,90,false,stim,false,1,544.9149999767542,2,1,1,17861,WMM1,1109825,false,false,1423,image-keyboard-response,32
true,12,1,3,1,true,z,false,false,0.0-2.0-0.47-0.426-3.426,0,1,0,90,false,stim,false,2,1156.0849999077618,2,0,2,17861,WMM1,1112494,false,true,1426,image-keyboard-response,33
true,12,1,3,1,true,z,false,true,0.0-2.0-0.47-0.427-3.427,0,1,0,90,false,stim,false,1,570.8250000607222,2,1,1,17861,WMM1,1114592,false,false,1429,image-keyboard-response,34
true,12,1,3,1,true,z,false,true,0.0-2.0-0.47-0.428-3.428,0,1,0,90,false,stim,false,2,684.6100001130253,2,0,2,17861,WMM1,1116800,false,false,1432,image-keyboard-response,35
true,12,2,3,2,true,d,false,true,0.0-2.0-0.47-0.429-3.429,0,1,0,68,false,stim,false,0,1004.5799999497831,2,0,0,17861,WMM1,1119327,false,false,1435,image-keyboard-response,36
true,12,2,3,2,true,d,false,true,0.0-2.0-0.47-0.430-3.430,0,1,0,68,false,stim,false,0,562.8200001083314,2,0,0,17861,WMM1,1121407,false,false,1438,image-keyboard-response,37
true,12,2,3,2,true,d,false,true,0.0-2.0-0.47-0.431-3.431,0,1,0,68,false,stim,false,0,598.4549999702722,2,0,0,17861,WMM1,1123523,false,false,1441,image-keyboard-response,38
true,12,1,3,1,true,z,false,true,0.0-2.0-0.48-0.432-3.432,0,1,0,90,false,stim,false,1,530.900000128895,2,1,1,17861,WMM1,1125573,false,false,1444,image-keyboard-response,39
true,12,1,3,1,true,z,false,true,0.0-2.0-0.48-0.433-3.433,0,1,0,90,false,stim,false,1,483.80499985069036,2,1,1,17861,WMM1,1127569,false,false,1447,image-keyboard-response,40
true,12,1,3,1,true,z,false,true,0.0-2.0-0.48-0.434-3.434,0,1,0,90,false,stim,false,1,504.505000077188,2,1,1,17861,WMM1,1129600,false,false,1450,image-keyboard-response,41
true,12,1,3,1,true,z,false,true,0.0-2.0-0.48-0.435-3.435,0,1,0,90,false,stim,false,2,1023.4749999362975,2,0,2,17861,WMM1,1132142,false,false,1453,image-keyboard-response,42
true,12,2,3,2,true,d,false,true,0.0-2.0-0.48-0.436-3.436,0,1,0,68,false,stim,false,0,649.1900000255555,2,0,0,17861,WMM1,1134315,false,false,1456,image-keyboard-response,43
true,12,1,3,1,true,z,false,false,0.0-2.0-0.48-0.437-3.437,0,1,0,90,false,stim,false,2,821.9049999024719,2,0,2,17861,WMM1,1136650,false,true,1459,image-keyboard-response,44
true,12,1,3,2,false,d,true,false,0.0-2.0-0.48-0.438-3.438,0,1,0,90,false,stim,false,0,1503.2800000626594,2,0,0,17861,WMM1,1139675,false,false,1462,image-keyboard-response,45
true,12,1,3,1,true,z,false,true,0.0-2.0-0.48-0.439-3.439,0,1,0,90,false,stim,false,2,641.584999859333,2,0,2,17861,WMM1,1141827,false,false,1465,image-keyboard-response,46
true,13,2,3,1,false,z,false,false,0.0-2.0-0.48-0.440-3.440,0,1,0,68,true,stim,true,2,495.0400001835078,2,0,0,17861,WMM1,1143846,false,false,1468,image-keyboard-response,1
true,13,2,3,1,false,z,false,false,0.0-2.0-0.49-0.441-3.441,0,1,0,68,false,stim,true,2,641.5599999018013,2,0,0,17861,WMM1,1146009,false,false,1471,image-keyboard-response,2
true,13,1,3,1,true,z,false,true,0.0-2.0-0.49-0.442-3.442,0,1,0,90,false,stim,false,1,472.07999997772276,2,1,1,17861,WMM1,1148003,false,false,1474,image-keyboard-response,3
true,13,1,3,1,true,z,false,true,0.0-2.0-0.49-0.443-3.443,0,1,0,90,false,stim,false,1,714.5299999974668,2,1,1,17861,WMM1,1150249,false,false,1477,image-keyboard-response,4
true,13,1,3,2,false,d,false,true,0.0-2.0-0.49-0.444-3.444,0,1,0,90,false,stim,true,1,454.38500004820526,2,0,2,17861,WMM1,1152223,false,true,1480,image-keyboard-response,5
true,13,1,3,2,false,d,false,false,0.0-2.0-0.49-0.445-3.445,0,1,0,90,false,stim,true,1,536.6599999833852,2,0,2,17861,WMM1,1154286,false,false,1483,image-keyboard-response,6
true,13,1,3,2,false,d,false,false,0.0-2.0-0.49-0.446-3.446,0,1,0,90,false,stim,true,1,425.275000045076,2,0,2,17861,WMM1,1156234,false,false,1486,image-keyboard-response,7
true,13,1,3,1,true,z,false,true,0.0-2.0-0.49-0.447-3.447,0,1,0,90,false,stim,false,2,1107.740000123158,2,0,0,17861,WMM1,1158866,false,false,1489,image-keyboard-response,8
true,13,1,3,1,true,z,false,true,0.0-2.0-0.49-0.448-3.448,0,1,0,90,false,stim,false,2,432.24500003270805,2,0,0,17861,WMM1,1160820,false,false,1492,image-keyboard-response,9
true,13,1,3,1,true,z,false,true,0.0-2.0-0.49-0.449-3.449,0,1,0,90,false,stim,false,1,290.6250001396984,2,1,1,17861,WMM1,1162627,false,false,1495,image-keyboard-response,10
true,13,1,3,1,true,z,false,false,0.0-2.0-0.50-0.450-3.450,0,1,0,90,false,stim,false,2,628.0300000216812,2,0,0,17861,WMM1,1164767,false,true,1498,image-keyboard-response,11
true,13,1,3,1,true,z,false,true,0.0-2.0-0.50-0.451-3.451,0,1,0,90,false,stim,false,1,398.01499992609024,2,1,1,17861,WMM1,1166690,false,false,1501,image-keyboard-response,12
true,13,2,3,2,true,d,false,true,0.0-2.0-0.50-0.452-3.452,0,1,0,68,false,stim,false,1,975.9800001047552,2,0,2,17861,WMM1,1169192,false,false,1504,image-keyboard-response,13
true,13,2,3,2,true,d,false,true,0.0-2.0-0.50-0.453-3.453,0,1,0,68,false,stim,false,1,444.8250001296401,2,0,2,17861,WMM1,1171156,false,false,1507,image-keyboard-response,14
true,13,1,3,1,true,z,false,true,0.0-2.0-0.50-0.454-3.454,0,1,0,90,false,stim,false,2,384.1600001323968,2,0,0,17861,WMM1,1173059,false,false,1510,image-keyboard-response,15
true,13,1,3,1,true,z,false,true,0.0-2.0-0.50-0.455-3.455,0,1,0,90,false,stim,false,2,597.2949999850243,2,0,0,17861,WMM1,1175174,false,false,1513,image-keyboard-response,16
true,13,1,3,1,true,z,false,true,0.0-2.0-0.50-0.456-3.456,0,1,0,90,false,stim,false,1,942.0499999541789,2,1,1,17861,WMM1,1177632,false,false,1516,image-keyboard-response,17
true,13,1,3,1,true,z,false,true,0.0-2.0-0.50-0.457-3.457,0,1,0,90,false,stim,false,1,516.5049999486655,2,1,1,17861,WMM1,1179670,false,false,1519,image-keyboard-response,18
true,13,2,3,2,true,d,false,true,0.0-2.0-0.50-0.458-3.458,0,1,0,68,false,stim,false,1,581.8350000772625,2,0,2,17861,WMM1,1181777,false,false,1522,image-keyboard-response,19
true,13,1,3,1,true,z,false,true,0.0-2.0-0.51-0.459-3.459,0,1,0,90,false,stim,false,1,733.5500000044703,2,1,1,17861,WMM1,1184027,false,false,1525,image-keyboard-response,20
true,13,2,3,2,true,d,false,true,0.0-2.0-0.51-0.460-3.460,0,1,0,68,false,stim,false,1,833.3099998999387,2,1,2,17861,WMM1,1186388,false,false,1528,image-keyboard-response,21
true,13,1,3,1,true,z,false,true,0.0-2.0-0.51-0.461-3.461,0,1,0,90,false,stim,false,2,468.74499996192753,2,1,0,17861,WMM1,1188377,false,false,1531,image-keyboard-response,22
true,13,2,3,2,true,d,false,true,0.0-2.0-0.51-0.462-3.462,0,1,0,68,false,stim,false,1,980.7400000281632,2,1,2,17861,WMM1,1190880,false,false,1534,image-keyboard-response,23
true,13,1,3,1,true,z,false,true,0.0-2.0-0.51-0.463-3.463,0,1,0,90,false,stim,false,1,648.6949999816716,2,1,1,17861,WMM1,1193055,false,false,1537,image-keyboard-response,24
true,13,2,3,2,true,d,false,true,0.0-2.0-0.51-0.464-3.464,0,1,0,68,false,stim,false,1,801.5699998941272,2,1,2,17861,WMM1,1195377,false,false,1540,image-keyboard-response,25
true,13,1,3,1,true,z,false,true,0.0-2.0-0.51-0.465-3.465,0,1,0,90,false,stim,false,1,475.0800000037998,2,1,1,17861,WMM1,1197364,false,false,1543,image-keyboard-response,26
true,13,1,3,1,true,z,false,true,0.0-2.0-0.51-0.466-3.466,0,1,0,90,false,stim,false,2,506.00999989546835,2,1,0,17861,WMM1,1199387,false,false,1546,image-keyboard-response,27
true,13,1,3,1,true,z,false,true,0.0-2.0-0.51-0.467-3.467,0,1,0,90,false,stim,false,2,506.4399999100715,2,1,0,17861,WMM1,1201411,false,false,1549,image-keyboard-response,28
true,13,1,3,1,true,z,false,false,0.0-2.0-0.52-0.468-3.468,0,1,0,90,false,stim,false,2,539.8499998264015,2,1,0,17861,WMM1,1203479,false,true,1552,image-keyboard-response,29
true,13,2,3,2,true,d,false,false,0.0-2.0-0.52-0.469-3.469,0,1,0,68,false,stim,false,1,576.7700001597404,2,1,2,17861,WMM1,1205577,false,true,1555,image-keyboard-response,30
true,14,2,0,2,true,d,false,true,0.0-2.0-0.52-0.470-3.470,1,1,1,68,true,stim,false,2,2349.7550000902265,2,1,2,17861,WMM1,1330240,false,false,1678,image-keyboard-response,1
true,14,1,0,1,true,z,false,false,0.0-2.0-0.52-0.471-3.471,1,1,1,90,false,stim,false,1,687.5299999956042,2,1,1,17861,WMM1,1332451,false,true,1681,image-keyboard-response,2
true,14,1,0,1,true,z,false,true,0.0-2.0-0.52-0.472-3.472,1,1,1,90,false,stim,false,1,1306.80499994196,2,1,0,17861,WMM1,1335284,false,false,1684,image-keyboard-response,3
true,14,2,0,2,true,d,false,true,0.0-2.0-0.52-0.473-3.473,1,1,1,68,false,stim,false,2,584.8250000271946,2,1,2,17861,WMM1,1337386,false,false,1687,image-keyboard-response,4
true,14,2,0,1,false,z,true,false,0.0-2.0-0.52-0.474-3.474,1,1,1,68,false,stim,false,1,519.6149998810142,2,1,1,17861,WMM1,1339416,false,false,1690,image-keyboard-response,5
true,14,1,0,1,true,z,false,true,0.0-2.0-0.52-0.475-3.475,1,1,1,90,false,stim,false,1,622.535000089556,2,1,0,17861,WMM1,1341551,false,false,1693,image-keyboard-response,6
true,14,0,0,1,false,z,true,false,0.0-2.0-0.52-0.476-3.476,1,1,1,81,false,stim,false,1,435.71999995037913,2,1,1,17861,WMM1,1343505,false,false,1696,image-keyboard-response,7
true,14,0,0,1,false,z,true,false,0.0-2.0-0.53-0.477-3.477,1,1,1,81,false,stim,false,1,472.3650000523776,2,1,1,17861,WMM1,1345497,false,false,1699,image-keyboard-response,8
true,14,1,0,1,true,z,false,true,0.0-2.0-0.53-0.478-3.478,1,1,1,90,false,stim,false,1,539.0099999494851,2,1,0,17861,WMM1,1347571,false,false,1702,image-keyboard-response,9
true,14,2,0,2,true,d,false,true,0.0-2.0-0.53-0.479-3.479,1,1,1,68,false,stim,false,2,581.1799999792129,2,1,2,17861,WMM1,1349678,false,false,1705,image-keyboard-response,10
true,14,1,0,1,true,z,false,false,0.0-2.0-0.53-0.480-3.480,1,1,1,90,false,stim,false,1,482.60500002652407,2,1,0,17861,WMM1,1351683,false,true,1708,image-keyboard-response,11
true,14,1,0,1,true,z,false,true,0.0-2.0-0.53-0.481-3.481,1,1,1,90,false,stim,false,1,611.1299998592585,2,1,1,17861,WMM1,1353811,false,false,1711,image-keyboard-response,12
true,14,2,0,2,true,d,false,true,0.0-2.0-0.53-0.482-3.482,1,1,1,68,false,stim,false,2,718.9100000541657,2,1,2,17861,WMM1,1356036,false,false,1714,image-keyboard-response,13
true,14,1,0,1,true,z,false,true,0.0-2.0-0.53-0.483-3.483,1,1,1,90,false,stim,false,1,467.4799998756498,2,1,1,17861,WMM1,1358026,false,false,1717,image-keyboard-response,14
true,14,1,0,1,true,z,false,true,0.0-2.0-0.53-0.484-3.484,1,1,1,90,false,stim,false,1,462.8800000064075,2,1,0,17861,WMM1,1360015,false,false,1720,image-keyboard-response,15
true,14,2,0,2,true,d,false,true,0.0-2.0-0.53-0.485-3.485,1,1,1,68,false,stim,false,2,722.940000006929,2,1,2,17861,WMM1,1362265,false,false,1723,image-keyboard-response,16
true,14,1,0,1,true,z,false,true,0.0-2.0-0.54-0.486-3.486,1,1,1,90,false,stim,false,1,568.3699999935925,2,1,1,17861,WMM1,1364346,false,false,1726,image-keyboard-response,17
true,14,2,0,2,true,d,false,true,0.0-2.0-0.54-0.487-3.487,1,1,1,68,false,stim,false,2,516.8399999383837,2,1,2,17861,WMM1,1366381,false,false,1729,image-keyboard-response,18
true,14,1,0,1,true,z,false,true,0.0-2.0-0.54-0.488-3.488,1,1,1,90,false,stim,false,1,516.9200000818819,2,1,1,17861,WMM1,1368426,false,false,1732,image-keyboard-response,19
true,14,1,0,1,true,z,false,true,0.0-2.0-0.54-0.489-3.489,1,1,1,90,false,stim,false,1,476.8450001720339,2,1,0,17861,WMM1,1370431,false,false,1735,image-keyboard-response,20
true,14,2,0,2,true,d,false,true,0.0-2.0-0.54-0.490-3.490,1,1,1,68,false,stim,false,2,492.8550000768155,2,0,2,17861,WMM1,1372441,false,false,1738,image-keyboard-response,21
true,14,1,0,1,true,z,false,true,0.0-2.0-0.54-0.491-3.491,1,1,1,90,false,stim,false,1,459.2000001575798,2,1,0,17861,WMM1,1374420,false,false,1741,image-keyboard-response,22
true,14,2,0,2,true,d,false,false,0.0-2.0-0.54-0.492-3.492,1,1,1,68,false,stim,false,2,622.6899998728186,2,0,2,17861,WMM1,1376562,false,true,1744,image-keyboard-response,23
true,14,1,0,1,true,z,false,true,0.0-2.0-0.54-0.493-3.493,1,1,1,90,false,stim,false,1,847.4299998488277,2,1,0,17861,WMM1,1378922,false,false,1747,image-keyboard-response,24
true,14,1,0,1,true,z,false,true,0.0-2.0-0.54-0.494-3.494,1,1,1,90,false,stim,false,1,519.5900001563132,2,0,1,17861,WMM1,1380959,false,false,1750,image-keyboard-response,25
true,14,2,0,2,true,d,false,true,0.0-2.0-0.55-0.495-3.495,1,1,1,68,false,stim,false,2,515.7900000922382,2,0,2,17861,WMM1,1382997,false,false,1753,image-keyboard-response,26
true,14,2,0,2,true,d,false,true,0.0-2.0-0.55-0.496-3.496,1,1,1,68,false,stim,false,2,619.9350000824779,2,0,2,17861,WMM1,1385127,false,false,1756,image-keyboard-response,27
true,14,1,0,1,true,z,false,true,0.0-2.0-0.55-0.497-3.497,1,1,1,90,false,stim,false,1,568.9650001004338,2,0,1,17861,WMM1,1387224,false,false,1759,image-keyboard-response,28
true,14,1,0,1,true,z,false,false,0.0-2.0-0.55-0.498-3.498,1,1,1,90,false,stim,false,1,767.1749999281019,2,1,0,17861,WMM1,1389510,false,true,1762,image-keyboard-response,29
true,14,1,0,1,true,z,false,true,0.0-2.0-0.55-0.499-3.499,1,1,1,90,false,stim,false,1,398.47999997437,2,1,0,17861,WMM1,1391430,false,false,1765,image-keyboard-response,30
true,15,1,3,1,true,z,false,false,0.0-2.0-0.55-0.500-3.500,1,0,0,90,true,stim,false,1,472.58000005967915,2,1,0,17861,WMM1,1393420,false,true,1768,image-keyboard-response,1
true,15,1,3,2,false,d,false,false,0.0-2.0-0.55-0.501-3.501,1,0,0,90,false,stim,true,1,672.749999910593,2,0,1,17861,WMM1,1395616,false,false,1771,image-keyboard-response,2
true,15,2,3,0,false,q,false,false,0.0-2.0-0.55-0.502-3.502,1,0,0,68,false,stim,true,2,735.4949999134988,2,0,2,17861,WMM1,1397869,false,false,1774,image-keyboard-response,3
true,15,1,3,2,false,d,false,false,0.0-2.0-0.55-0.503-3.503,1,0,0,90,false,stim,true,1,642.570000141859,2,0,1,17861,WMM1,1400031,false,false,1777,image-keyboard-response,4
true,15,2,3,2,true,d,false,true,0.0-2.0-0.56-0.504-3.504,1,0,0,68,false,stim,false,1,442.67000001855195,2,0,1,17861,WMM1,1401987,false,false,1780,image-keyboard-response,5
true,15,1,3,0,false,q,true,false,0.0-2.0-0.56-0.505-3.505,1,0,0,90,false,stim,false,2,1193.5499999672174,2,0,2,17861,WMM1,1404699,false,false,1783,image-keyboard-response,6
true,15,0,3,0,true,q,false,true,0.0-2.0-0.56-0.506-3.506,1,0,0,81,false,stim,false,2,565.1050000451505,2,0,2,17861,WMM1,1406771,false,false,1786,image-keyboard-response,7
true,15,1,3,1,true,z,false,true,0.0-2.0-0.56-0.507-3.507,1,0,0,90,false,stim,false,1,637.224999954924,2,1,0,17861,WMM1,1408929,false,false,1789,image-keyboard-response,8
true,15,2,3,2,true,d,false,true,0.0-2.0-0.56-0.508-3.508,1,0,0,68,false,stim,false,1,2021.794999949634,2,0,1,17861,WMM1,1412470,false,false,1792,image-keyboard-response,9
true,15,2,3,2,true,d,false,true,0.0-2.0-0.56-0.509-3.509,1,0,0,68,false,stim,false,1,662.5550000462681,2,0,1,17861,WMM1,1414661,false,false,1795,image-keyboard-response,10
true,15,0,3,0,true,q,false,true,0.0-2.0-0.56-0.510-3.510,1,0,0,81,false,stim,false,2,808.5050000809133,2,0,2,17861,WMM1,1416989,false,false,1798,image-keyboard-response,11
true,15,1,3,1,true,z,false,true,0.0-2.0-0.56-0.511-3.511,1,0,0,90,false,stim,false,1,527.5050001218915,2,1,0,17861,WMM1,1419031,false,false,1801,image-keyboard-response,12
true,15,1,3,1,true,z,false,true,0.0-2.0-0.56-0.512-3.512,1,0,0,90,false,stim,false,1,780.229999916628,2,1,0,17861,WMM1,1421322,false,false,1804,image-keyboard-response,13
true,15,1,3,1,true,z,false,true,0.0-2.0-0.57-0.513-3.513,1,0,0,90,false,stim,false,1,539.9949999991804,2,1,0,17861,WMM1,1423390,false,false,1807,image-keyboard-response,14
true,15,2,3,2,true,d,false,true,0.0-2.0-0.57-0.514-3.514,1,0,0,68,false,stim,false,1,615.3400000184774,2,0,1,17861,WMM1,1425523,false,false,1810,image-keyboard-response,15
true,15,1,3,1,true,z,false,true,0.0-2.0-0.57-0.515-3.515,1,0,0,90,false,stim,false,1,641.1749999970198,2,1,0,17861,WMM1,1427682,false,false,1813,image-keyboard-response,16
true,15,2,3,2,true,d,false,true,0.0-2.0-0.57-0.516-3.516,1,0,0,68,false,stim,false,1,717.9699998814613,2,0,1,17861,WMM1,1429906,false,false,1816,image-keyboard-response,17
true,15,0,3,0,true,q,false,true,0.0-2.0-0.57-0.517-3.517,1,0,0,81,false,stim,false,2,921.8800000380725,2,0,2,17861,WMM1,1432342,false,false,1819,image-keyboard-response,18
true,15,1,3,1,true,z,false,true,0.0-2.0-0.57-0.518-3.518,1,0,0,90,false,stim,false,1,642.0749998651445,2,1,0,17861,WMM1,1434497,false,false,1822,image-keyboard-response,19
true,15,0,3,0,true,q,false,true,0.0-2.0-0.57-0.519-3.519,1,0,0,81,false,stim,false,2,812.2200001962483,2,0,2,17861,WMM1,1436833,false,false,1825,image-keyboard-response,20
true,15,0,3,0,true,q,false,true,0.0-2.0-0.57-0.520-3.520,1,0,0,81,false,stim,false,2,685.689999954775,2,0,2,17861,WMM1,1439028,false,false,1828,image-keyboard-response,21
true,15,2,3,2,true,d,false,true,0.0-2.0-0.57-0.521-3.521,1,0,0,68,false,stim,false,1,751.9500001799315,2,0,1,17861,WMM1,1441300,false,false,1831,image-keyboard-response,22
true,15,2,3,2,true,d,false,true,0.0-2.0-0.58-0.522-3.522,1,0,0,68,false,stim,false,1,676.4199999161065,2,0,1,17861,WMM1,1443496,false,false,1834,image-keyboard-response,23
true,15,2,3,2,true,d,false,true,0.0-2.0-0.58-0.523-3.523,1,0,0,68,false,stim,false,1,656.7549998871982,2,0,1,17861,WMM1,1445680,false,false,1837,image-keyboard-response,24
true,15,0,3,0,true,q,false,true,0.0-2.0-0.58-0.524-3.524,1,0,0,81,false,stim,false,2,1511.689999839291,2,0,2,17861,WMM1,1448707,false,false,1840,image-keyboard-response,25
true,15,1,3,1,true,z,false,false,0.0-2.0-0.58-0.525-3.525,1,0,0,90,false,stim,false,1,438.24000004678965,2,0,0,17861,WMM1,1450674,false,true,1843,image-keyboard-response,26
true,15,0,3,0,true,q,false,false,0.0-2.0-0.58-0.526-3.526,1,0,0,81,false,stim,false,2,959.2750000301749,2,0,2,17861,WMM1,1453163,false,true,1846,image-keyboard-response,27
true,15,2,3,2,true,d,false,true,0.0-2.0-0.58-0.527-3.527,1,0,0,68,false,stim,false,1,769.5849998854101,2,0,1,17861,WMM1,1455450,false,false,1849,image-keyboard-response,28
true,15,2,3,1,false,z,true,false,0.0-2.0-0.58-0.528-3.528,1,0,0,68,false,stim,false,1,427.2099998779595,2,0,0,17861,WMM1,1457393,false,false,1852,image-keyboard-response,29
true,15,2,3,0,false,q,false,false,0.0-2.0-0.58-0.529-3.529,1,0,0,68,false,stim,true,2,678.5899999085814,2,0,2,17861,WMM1,1459598,false,false,1855,image-keyboard-response,30
true,16,1,2,0,false,q,false,true,0.0-2.0-0.58-0.530-3.530,0,0,0,90,true,stim,true,1,752.4599998723716,2,0,0,17861,WMM1,1461865,false,true,1858,image-keyboard-response,1
true,16,2,2,1,false,z,false,false,0.0-2.0-0.59-0.531-3.531,0,0,0,68,false,stim,true,2,681.71999999322,2,0,1,17861,WMM1,1464073,false,false,1861,image-keyboard-response,2
true,16,2,2,1,false,z,false,false,0.0-2.0-0.59-0.532-3.532,0,0,0,68,false,stim,true,2,405.4449999239296,2,0,1,17861,WMM1,1465998,false,false,1864,image-keyboard-response,3
true,16,1,2,0,false,q,false,false,0.0-2.0-0.59-0.533-3.533,0,0,0,90,false,stim,true,1,560.4200002271682,2,0,0,17861,WMM1,1468078,false,false,1867,image-keyboard-response,4
true,16,0,2,2,false,d,false,false,0.0-2.0-0.59-0.534-3.534,0,0,0,81,false,stim,true,0,674.8200000729412,2,0,2,17861,WMM1,1470263,false,false,1870,image-keyboard-response,5
true,16,1,2,2,false,d,true,false,0.0-2.0-0.59-0.535-3.535,0,0,0,90,false,stim,false,0,638.8050001114607,2,0,2,17861,WMM1,1472424,false,false,1873,image-keyboard-response,6
true,16,0,2,0,true,q,false,true,0.0-2.0-0.59-0.536-3.536,0,0,0,81,false,stim,false,1,812.0349999517202,2,0,0,17861,WMM1,1474759,false,false,1876,image-keyboard-response,7
true,16,0,2,0,true,q,false,true,0.0-2.0-0.59-0.537-3.537,0,0,0,81,false,stim,false,1,531.870000064373,2,0,0,17861,WMM1,1476816,false,false,1879,image-keyboard-response,8
true,16,2,2,2,true,d,false,true,0.0-2.0-0.59-0.538-3.538,0,0,0,68,false,stim,false,0,1168.5399999842048,2,0,2,17861,WMM1,1479506,false,false,1882,image-keyboard-response,9
true,16,1,2,1,true,z,false,true,0.0-2.0-0.59-0.539-3.539,0,0,0,90,false,stim,false,2,424.0400001872331,2,0,1,17861,WMM1,1481441,false,false,1885,image-keyboard-response,10
true,16,1,2,1,true,z,false,true,0.0-2.0-0.60-0.540-3.540,0,0,0,90,false,stim,false,2,460.02000011503696,2,0,1,17861,WMM1,1483425,false,false,1888,image-keyboard-response,11
true,16,2,2,2,true,d,false,true,0.0-2.0-0.60-0.541-3.541,0,0,0,68,false,stim,false,0,544.834999833256,2,0,2,17861,WMM1,1485487,false,false,1891,image-keyboard-response,12
true,16,0,2,0,true,q,false,true,0.0-2.0-0.60-0.542-3.542,0,0,0,81,false,stim,false,1,681.8300001323223,2,0,0,17861,WMM1,1487699,false,false,1894,image-keyboard-response,13
true,16,2,2,2,true,d,false,true,0.0-2.0-0.60-0.543-3.543,0,0,0,68,false,stim,false,0,808.1900000106543,2,0,2,17861,WMM1,1490029,false,false,1897,image-keyboard-response,14
true,16,2,2,2,true,d,false,true,0.0-2.0-0.60-0.544-3.544,0,0,0,68,false,stim,false,0,696.995000122115,2,0,2,17861,WMM1,1492245,false,false,1900,image-keyboard-response,15
true,16,0,2,0,true,q,false,true,0.0-2.0-0.60-0.545-3.545,0,0,0,81,false,stim,false,1,897.5249999202788,2,0,0,17861,WMM1,1494668,false,false,1903,image-keyboard-response,16
true,16,0,2,0,true,q,false,true,0.0-2.0-0.60-0.546-3.546,0,0,0,81,false,stim,false,1,557.3950000107288,2,0,0,17861,WMM1,1496746,false,false,1906,image-keyboard-response,17
true,16,1,2,1,true,z,false,true,0.0-2.0-0.60-0.547-3.547,0,0,0,90,false,stim,false,2,754.3850000947714,2,0,1,17861,WMM1,1499019,false,false,1909,image-keyboard-response,18
true,16,1,2,1,true,z,false,false,0.0-2.0-0.60-0.548-3.548,0,0,0,90,false,stim,false,2,521.5949998237193,2,0,1,17861,WMM1,1501067,false,true,1912,image-keyboard-response,19
true,16,2,2,2,true,d,false,true,0.0-2.0-0.61-0.549-3.549,0,0,0,68,false,stim,false,0,570.049999980256,2,0,2,17861,WMM1,1503144,false,false,1915,image-keyboard-response,20
true,16,2,2,2,true,d,false,true,0.0-2.0-0.61-0.550-3.550,0,0,0,68,false,stim,false,0,485.71999999694526,2,0,2,17861,WMM1,1505156,false,false,1918,image-keyboard-response,21
true,16,2,2,2,true,d,false,true,0.0-2.0-0.61-0.551-3.551,0,0,0,68,false,stim,false,0,456.68999990448356,2,0,2,17861,WMM1,1507138,false,false,1921,image-keyboard-response,22
true,16,0,2,0,true,q,false,true,0.0-2.0-0.61-0.552-3.552,0,0,0,81,false,stim,false,1,904.6000000089407,2,0,0,17861,WMM1,1509570,false,false,1924,image-keyboard-response,23
true,16,0,2,0,true,q,false,true,0.0-2.0-0.61-0.553-3.553,0,0,0,81,false,stim,false,1,635.414999909699,2,0,0,17861,WMM1,1511730,false,false,1927,image-keyboard-response,24
true,16,1,2,1,true,z,false,true,0.0-2.0-0.61-0.554-3.554,0,0,0,90,false,stim,false,2,721.0399999748915,2,0,1,17861,WMM1,1513977,false,false,1930,image-keyboard-response,25
true,16,1,2,1,true,z,false,true,0.0-2.0-0.61-0.555-3.555,0,0,0,90,false,stim,false,2,565.3899998869747,2,0,1,17861,WMM1,1516070,false,false,1933,image-keyboard-response,26
true,16,1,2,1,true,z,false,true,0.0-2.0-0.61-0.556-3.556,0,0,0,90,false,stim,false,2,492.6149998791516,2,0,1,17861,WMM1,1518085,false,false,1936,image-keyboard-response,27
true,16,0,2,0,true,q,false,true,0.0-2.0-0.61-0.557-3.557,0,0,0,81,false,stim,false,1,1182.645000051707,2,0,0,17861,WMM1,1520778,false,false,1939,image-keyboard-response,28
true,16,0,2,0,true,q,false,true,0.0-2.0-0.62-0.558-3.558,0,0,0,81,false,stim,false,1,824.9549998436123,2,0,0,17861,WMM1,1523124,false,false,1942,image-keyboard-response,29
true,16,2,2,2,true,d,false,false,0.0-2.0-0.62-0.559-3.559,0,0,0,68,false,stim,false,0,1576.1400000192225,2,0,2,17861,WMM1,1526213,false,true,1945,image-keyboard-response,30
true,17,1,4,0,false,q,false,false,0.0-2.0-0.62-0.560-3.560,0,0,0,90,true,stim,true,1,1521.3250000961125,2,0,1,17861,WMM1,1529253,false,false,1948,image-keyboard-response,1
true,17,2,4,0,false,q,true,false,0.0-2.0-0.62-0.561-3.561,0,0,0,68,false,stim,false,1,1192.8650001063943,2,0,1,17861,WMM1,1531970,false,false,1951,image-keyboard-response,2
true,17,1,4,1,true,z,false,true,0.0-2.0-0.62-0.562-3.562,0,0,0,90,false,stim,false,2,1019.68999998644,2,0,2,17861,WMM1,1534507,false,false,1954,image-keyboard-response,3
true,17,0,4,2,false,d,false,false,0.0-2.0-0.62-0.563-3.563,0,0,0,81,false,stim,true,0,776.9900001585484,2,0,0,17861,WMM1,1536808,false,false,1957,image-keyboard-response,4
true,17,0,4,0,true,q,false,true,0.0-2.0-0.62-0.564-3.564,0,0,0,81,false,stim,false,1,598.0349997989833,2,0,1,17861,WMM1,1538926,false,false,1960,image-keyboard-response,5
true,17,1,4,1,true,z,false,true,0.0-2.0-0.62-0.565-3.565,0,0,0,90,false,stim,false,2,518.1450000964105,2,0,2,17861,WMM1,1540960,false,false,1963,image-keyboard-response,6
true,17,2,4,2,true,d,false,true,0.0-2.0-0.62-0.566-3.566,0,0,0,68,false,stim,false,0,377.6149998884648,2,0,0,17861,WMM1,1542849,false,false,1966,image-keyboard-response,7
true,17,2,4,2,true,d,false,true,0.0-2.0-0.63-0.567-3.567,0,0,0,68,false,stim,false,0,618.9500000327826,2,0,0,17861,WMM1,1544985,false,false,1969,image-keyboard-response,8
true,17,0,4,0,true,q,false,true,0.0-2.0-0.63-0.568-3.568,0,0,0,81,false,stim,false,1,597.5649999454618,2,0,1,17861,WMM1,1547111,false,false,1972,image-keyboard-response,9
true,17,2,4,2,true,d,false,true,0.0-2.0-0.63-0.569-3.569,0,0,0,68,false,stim,false,0,726.4899997971952,2,0,0,17861,WMM1,1549356,false,false,1975,image-keyboard-response,10
true,17,1,4,1,true,z,false,true,0.0-2.0-0.63-0.570-3.570,0,0,0,90,false,stim,false,2,535.2849999908358,2,0,2,17861,WMM1,1551416,false,false,1978,image-keyboard-response,11
true,17,1,4,1,true,z,false,true,0.0-2.0-0.63-0.571-3.571,0,0,0,90,false,stim,false,2,1080.7650000788271,2,0,2,17861,WMM1,1554012,false,false,1981,image-keyboard-response,12
true,17,0,4,0,true,q,false,true,0.0-2.0-0.63-0.572-3.572,0,0,0,81,false,stim,false,1,531.2699999194592,2,0,1,17861,WMM1,1556063,false,false,1984,image-keyboard-response,13
true,17,2,4,2,true,d,false,true,0.0-2.0-0.63-0.573-3.573,0,0,0,68,false,stim,false,0,668.2599999476224,2,0,0,17861,WMM1,1558260,false,false,1987,image-keyboard-response,14
true,17,0,4,0,true,q,false,true,0.0-2.0-0.63-0.574-3.574,0,0,0,81,false,stim,false,1,845.1049998402596,2,0,1,17861,WMM1,1560619,false,false,1990,image-keyboard-response,15
true,17,1,4,1,true,z,false,true,0.0-2.0-0.63-0.575-3.575,0,0,0,90,false,stim,false,2,1030.9200000483543,2,0,2,17861,WMM1,1563161,false,false,1993,image-keyboard-response,16
true,17,0,4,0,true,q,false,true,0.0-2.0-0.64-0.576-3.576,0,0,0,81,false,stim,false,1,848.0700000654906,2,0,1,17861,WMM1,1565525,false,false,1996,image-keyboard-response,17
true,17,1,4,1,true,z,false,true,0.0-2.0-0.64-0.577-3.577,0,0,0,90,false,stim,false,2,864.5199998281896,2,0,2,17861,WMM1,1567896,false,false,1999,image-keyboard-response,18
true,17,1,4,1,true,z,false,true,0.0-2.0-0.64-0.578-3.578,0,0,0,90,false,stim,false,2,574.5350001379848,2,0,2,17861,WMM1,1570009,false,false,2002,image-keyboard-response,19
true,17,2,4,2,true,d,false,true,0.0-2.0-0.64-0.579-3.579,0,0,0,68,false,stim,false,0,575.9400001261383,2,0,0,17861,WMM1,1572115,false,false,2005,image-keyboard-response,20
true,17,2,4,2,true,d,false,true,0.0-2.0-0.64-0.580-3.580,0,0,0,68,false,stim,false,0,555.4550001397729,2,0,0,17861,WMM1,1574184,false,false,2008,image-keyboard-response,21
true,17,0,4,0,true,q,false,false,0.0-2.0-0.64-0.581-3.581,0,0,0,81,false,stim,false,1,981.8650002125651,2,0,1,17861,WMM1,1576686,false,true,2011,image-keyboard-response,22
true,17,0,4,0,true,q,false,true,0.0-2.0-0.64-0.582-3.582,0,0,0,81,false,stim,false,1,552.1449998486787,2,0,1,17861,WMM1,1578761,false,false,2014,image-keyboard-response,23
true,17,1,4,2,false,d,true,false,0.0-2.0-0.64-0.583-3.583,0,0,0,90,false,stim,false,0,564.7700000554323,2,0,0,17861,WMM1,1580837,false,false,2017,image-keyboard-response,24
true,17,2,4,1,false,z,false,false,0.0-2.0-0.64-0.584-3.584,0,0,0,68,false,stim,true,2,529.880000045523,2,0,2,17861,WMM1,1582886,false,false,2020,image-keyboard-response,25
true,17,2,4,1,false,z,false,false,0.0-2.0-0.65-0.585-3.585,0,0,0,68,false,stim,true,2,873.274999903515,2,0,2,17861,WMM1,1585274,false,false,2023,image-keyboard-response,26
true,17,1,4,1,true,z,false,true,0.0-2.0-0.65-0.586-3.586,0,0,0,90,false,stim,false,2,721.1750000715256,2,0,2,17861,WMM1,1587522,false,false,2026,image-keyboard-response,27
