answered,blockNum,choice,condition,corResp,correct,correct_response,explo,fb,internal_node_id,isStable_1,isStable_2,isStable_3,key_press,newBlock,part,persev,persevResp,rt,sessNum,stableAS,stimulus,subject,task,time_elapsed,training,trap,trial_index,trial_type,trialsInBlock
true,1,2,0,0,false,q,true,false,0.0-2.0-0.0-0.0-3.0,0,0,0,68,true,stim,false,-1,1266.7450001463294,3,0,2,17861,WMM1,96880,false,false,103,image-keyboard-response,1
true,1,1,0,0,false,q,true,false,0.0-2.0-0.0-0.1-3.1,0,0,0,90,false,stim,false,-1,780.9650003910065,3,0,2,17861,WMM1,99192,false,false,106,image-keyboard-response,2
true,1,0,0,0,true,q,false,true,0.0-2.0-0.0-0.2-3.2,0,0,0,81,false,stim,false,-1,1077.6349999941885,3,0,0,17861,WMM1,101790,false,false,109,image-keyboard-response,3
true,1,0,0,0,true,q,false,true,0.0-2.0-0.0-0.3-3.3,0,0,0,81,false,stim,false,-1,703.1499999575317,3,0,0,17861,WMM1,104011,false,false,112,image-keyboard-response,4
true,1,0,0,0,true,q,false,true,0.0-2.0-0.0-0.4-3.4,0,0,0,81,false,stim,false,-1,652.6899999007583,3,0,0,17861,WMM1,106192,false,false,115,image-keyboard-response,5
true,1,1,0,1,true,z,false,true,0.0-2.0-0.0-0.5-3.5,0,0,0,90,false,stim,false,-1,771.004999987781,3,0,1,17861,WMM1,108491,false,false,118,image-keyboard-response,6
true,1,1,0,1,true,z,false,true,0.0-2.0-0.0-0.6-3.6,0,0,0,90,false,stim,false,-1,607.9350002110004,3,0,1,17861,WMM1,110626,false,false,121,image-keyboard-response,7
true,1,0,0,0,true,q,false,true,0.0-2.0-0.0-0.7-3.7,0,0,0,81,false,stim,false,-1,475.15999991446733,3,0,2,17861,WMM1,112626,false,false,124,image-keyboard-response,8
true,1,1,0,1,true,z,false,true,0.0-2.0-0.0-0.8-3.8,0,0,0,90,false,stim,false,-1,683.0950002186,3,0,1,17861,WMM1,114831,false,false,127,image-keyboard-response,9
true,1,1,0,1,true,z,false,true,0.0-2.0-0.1-0.9-3.9,0,0,0,90,false,stim,false,-1,893.0299999192357,3,0,1,17861,WMM1,117256,false,false,130,image-keyboard-response,10
true,1,0,0,0,true,q,false,true,0.0-2.0-0.1-0.10-3.10,0,0,0,81,false,stim,false,-1,1604.5699999667704,3,0,2,17861,WMM1,120382,false,false,133,image-keyboard-response,11
true,1,0,0,0,true,q,false,true,0.0-2.0-0.1-0.11-3.11,0,0,0,81,false,stim,false,-1,1439.4499999471009,3,0,0,17861,WMM1,123348,false,false,136,image-keyboard-response,12
true,1,0,0,0,true,q,false,false,0.0-2.0-0.1-0.12-3.12,0,0,0,81,false,stim,false,-1,560.9450000338256,3,0,0,17861,WMM1,125417,false,true,139,image-keyboard-response,13
true,1,0,0,0,true,q,false,true,0.0-2.0-0.1-0.13-3.13,0,0,0,81,false,stim,false,-1,732.6199999079108,3,0,0,17861,WMM1,127670,false,false,142,image-keyboard-response,14
true,1,0,0,0,true,q,false,true,0.0-2.0-0.1-0.14-3.14,0,0,0,81,false,stim,false,-1,804.1599998250604,3,0,2,17861,WMM1,130005,false,false,145,image-keyboard-response,15
true,1,0,0,0,true,q,false,true,0.0-2.0-0.1-0.15-3.15,0,0,0,81,false,stim,false,-1,576.6650000587106,3,0,2,17861,WMM1,132110,false,false,148,image-keyboard-response,16
true,1,1,0,1,true,z,false,true,0.0-2.0-0.1-0.16-3.16,0,0,0,90,false,stim,false,-1,728.1549996696413,3,0,1,17861,WMM1,134360,false,false,151,image-keyboard-response,17
true,1,1,0,1,true,z,false,true,0.0-2.0-0.1-0.17-3.17,0,0,0,90,false,stim,false,-1,900.4899999126792,3,0,1,17861,WMM1,136779,false,false,154,image-keyboard-response,18
true,1,0,0,0,true,q,false,true,0.0-2.0-0.2-0.18-3.18,0,0,0,81,false,stim,false,-1,1065.4649999924004,3,0,0,17861,WMM1,139360,false,false,157,image-keyboard-response,19
true,1,1,0,1,true,z,false,true,0.0-2.0-0.2-0.19-3.19,0,0,0,90,false,stim,false,-1,1328.5799999721348,3,0,1,17861,WMM1,142205,false,false,160,image-keyboard-response,20
true,1,0,0,0,true,q,false,true,0.0-2.0-0.2-0.20-3.20,0,0,0,81,false,stim,false,-1,579.704999923706,3,0,0,17861,WMM1,144302,false,false,163,image-keyboard-response,21
true,1,0,0,0,true,q,false,true,0.0-2.0-0.2-0.21-3.21,0,0,0,81,false,stim,false,-1,425.80000031739473,3,0,2,17861,WMM1,146247,false,false,166,image-keyboard-response,22
true,1,0,0,0,true,q,false,true,0.0-2.0-0.2-0.22-3.22,0,0,0,81,false,stim,false,-1,836.6899997927248,3,0,2,17861,WMM1,148606,false,false,169,image-keyboard-response,23
true,1,1,0,1,true,z,false,true,0.0-2.0-0.2-0.23-3.23,0,0,0,90,false,stim,false,-1,707.4899999424815,3,0,1,17861,WMM1,150841,false,false,172,image-keyboard-response,24
true,1,1,0,1,true,z,false,true,0.0-2.0-0.2-0.24-3.24,0,0,0,90,false,stim,false,-1,592.9250000044703,3,0,1,17861,WMM1,152958,false,false,175,image-keyboard-response,25
true,1,0,0,0,true,q,false,true,0.0-2.0-0.2-0.25-3.25,0,0,0,81,false,stim,false,-1,672.0949998125434,3,0,2,17861,WMM1,155152,false,false,178,image-keyboard-response,26
true,1,0,0,0,true,q,false,true,0.0-2.0-0.2-0.26-3.26,0,0,0,81,false,stim,false,-1,709.9600001238286,3,0,0,17861,WMM1,157387,false,false,181,image-keyboard-response,27
true,1,0,0,0,true,q,false,true,0.0-2.0-0.3-0.27-3.27,0,0,0,81,false,stim,false,-1,1766.8800000101328,3,0,2,17861,WMM1,160676,false,false,184,image-keyboard-response,28
true,1,0,0,0,true,q,false,true,0.0-2.0-0.3-0.28-3.28,0,0,0,81,false,stim,false,-1,485.3749996982515,3,0,2,17861,WMM1,162692,false,false,187,image-keyboard-response,29
true,1,1,0,1,true,z,false,true,0.0-2.0-0.3-0.29-3.29,0,0,0,90,false,stim,false,-1,860.275000333786,3,0,1,17861,WMM1,165082,false,false,190,image-keyboard-response,30
true,2,1,1,0,false,q,false,false,0.0-2.0-0.3-0.30-3.30,0,0,0,90,true,stim,true,1,623.9950000308454,3,0,1,17861,WMM1,167227,false,false,193,image-keyboard-response,1
true,2,0,1,2,false,d,false,false,0.0-2.0-0.3-0.31-3.31,0,0,0,81,false,stim,true,0,766.9199998490512,3,0,2,17861,WMM1,169517,false,false,196,image-keyboard-response,2
true,2,1,1,0,false,q,false,false,0.0-2.0-0.3-0.32-3.32,0,0,0,90,false,stim,true,1,1049.1349999792874,3,0,1,17861,WMM1,172097,false,false,199,image-keyboard-response,3
true,2,0,1,2,false,d,false,false,0.0-2.0-0.3-0.33-3.33,0,0,0,81,false,stim,true,0,960.8999998308718,3,0,0,17861,WMM1,174590,false,false,202,image-keyboard-response,4
true,2,0,1,2,false,d,false,false,0.0-2.0-0.3-0.34-3.34,0,0,0,81,false,stim,true,0,587.3199999332428,3,0,0,17861,WMM1,176698,false,false,205,image-keyboard-response,5
true,2,1,1,2,false,d,true,false,0.0-2.0-0.3-0.35-3.35,0,0,0,90,false,stim,false,0,1382.1549997664988,3,0,0,17861,WMM1,179599,false,false,208,image-keyboard-response,6
true,2,2,1,2,true,d,false,true,0.0-2.0-0.4-0.36-3.36,0,0,0,68,false,stim,false,0,1143.984999973327,3,0,0,17861,WMM1,182259,false,false,211,image-keyboard-response,7
true,2,2,1,2,true,d,false,true,0.0-2.0-0.4-0.37-3.37,0,0,0,68,false,stim,false,0,748.9599999971688,3,0,2,17861,WMM1,184528,false,false,214,image-keyboard-response,8
true,2,2,1,2,true,d,false,true,0.0-2.0-0.4-0.38-3.38,0,0,0,68,false,stim,false,0,662.430000025779,3,0,2,17861,WMM1,186723,false,false,217,image-keyboard-response,9
true,2,1,1,0,false,q,false,false,0.0-2.0-0.4-0.39-3.39,0,0,0,90,false,stim,true,1,2128.9349999278784,3,0,1,17861,WMM1,190371,false,false,220,image-keyboard-response,10
true,2,2,1,2,true,d,false,false,0.0-2.0-0.4-0.40-3.40,0,0,0,68,false,stim,false,0,865.0250001810491,3,0,0,17861,WMM1,192754,false,true,223,image-keyboard-response,11
true,2,2,1,0,false,q,true,true,0.0-2.0-0.4-0.41-3.41,0,0,0,68,false,stim,false,1,809.7100001759827,3,0,1,17861,WMM1,195079,false,true,226,image-keyboard-response,12
true,2,2,1,2,true,d,false,true,0.0-2.0-0.4-0.42-3.42,0,0,0,68,false,stim,false,0,651.0000000707805,3,0,2,17861,WMM1,197252,false,false,229,image-keyboard-response,13
true,2,2,1,0,false,q,true,false,0.0-2.0-0.4-0.43-3.43,0,0,0,68,false,stim,false,1,546.53500020504,3,0,1,17861,WMM1,199329,false,false,232,image-keyboard-response,14
true,2,2,1,2,true,d,false,true,0.0-2.0-0.4-0.44-3.44,0,0,0,68,false,stim,false,0,603.2650000415742,3,0,0,17861,WMM1,201451,false,false,235,image-keyboard-response,15
true,2,2,1,0,false,q,true,false,0.0-2.0-0.5-0.45-3.45,0,0,0,68,false,stim,false,1,392.8000000305474,3,0,1,17861,WMM1,203355,false,false,238,image-keyboard-response,16
true,2,2,1,2,true,d,false,true,0.0-2.0-0.5-0.46-3.46,0,0,0,68,false,stim,false,0,1345.0600001960993,3,0,2,17861,WMM1,206222,false,false,241,image-keyboard-response,17
true,2,2,1,2,true,d,false,true,0.0-2.0-0.5-0.47-3.47,0,0,0,68,false,stim,false,0,514.214999973774,3,0,0,17861,WMM1,208255,false,false,244,image-keyboard-response,18
true,2,2,1,2,true,d,false,true,0.0-2.0-0.5-0.48-3.48,0,0,0,68,false,stim,false,0,648.9249998703599,3,0,2,17861,WMM1,210422,false,false,247,image-keyboard-response,19
true,2,1,1,0,false,q,false,false,0.0-2.0-0.5-0.49-3.49,0,0,0,90,false,stim,true,1,903.0299996957183,3,0,1,17861,WMM1,212857,false,false,250,image-keyboard-response,20
true,2,2,1,2,true,d,false,true,0.0-2.0-0.5-0.50-3.50,0,0,0,68,false,stim,false,0,516.3249997422099,3,0,0,17861,WMM1,214901,false,false,253,image-keyboard-response,21
true,2,2,1,2,true,d,false,true,0.0-2.0-0.5-0.51-3.51,0,0,0,68,false,stim,false,0,499.5799995958805,3,0,2,17861,WMM1,216933,false,false,256,image-keyboard-response,22
true,2,0,1,0,true,q,false,true,0.0-2.0-0.5-0.52-3.52,0,0,0,81,false,stim,false,1,507.93999992311,3,0,1,17861,WMM1,218973,false,false,259,image-keyboard-response,23
true,2,2,1,2,true,d,false,true,0.0-2.0-0.5-0.53-3.53,0,0,0,68,false,stim,false,0,605.4650000296533,3,0,0,17861,WMM1,221102,false,false,262,image-keyboard-response,24
true,2,0,1,0,true,q,false,true,0.0-2.0-0.6-0.54-3.54,0,0,0,81,false,stim,false,1,671.5600001625717,3,0,1,17861,WMM1,223295,false,false,265,image-keyboard-response,25
true,2,2,1,2,true,d,false,true,0.0-2.0-0.6-0.55-3.55,0,0,0,68,false,stim,false,0,587.4299998395145,3,0,0,17861,WMM1,225413,false,false,268,image-keyboard-response,26
true,2,2,1,2,true,d,false,false,0.0-2.0-0.6-0.56-3.56,0,0,0,68,false,stim,false,0,620.4499998129904,3,0,2,17861,WMM1,227562,false,true,271,image-keyboard-response,27
true,2,0,1,0,true,q,false,true,0.0-2.0-0.6-0.57-3.57,0,0,0,81,false,stim,false,1,811.8850002065301,3,0,1,17861,WMM1,229902,false,false,274,image-keyboard-response,28
true,2,2,1,2,true,d,false,true,0.0-2.0-0.6-0.58-3.58,0,0,0,68,false,stim,false,0,582.3000003583729,3,0,2,17861,WMM1,232003,false,false,277,image-keyboard-response,29
true,2,2,1,2,true,d,false,true,0.0-2.0-0.6-0.59-3.59,0,0,0,68,false,stim,false,0,626.0250001214445,3,0,2,17861,WMM1,234146,false,false,280,image-keyboard-response,30
true,2,2,1,2,true,d,false,true,0.0-2.0-0.6-0.60-3.60,0,0,0,68,false,stim,false,0,630.0550000742078,3,0,0,17861,WMM1,236297,false,false,283,image-keyboard-response,31
true,2,2,1,2,true,d,false,true,0.0-2.0-0.6-0.61-3.61,0,0,0,68,false,stim,false,0,639.8699996061623,3,0,0,17861,WMM1,238455,false,false,286,image-keyboard-response,32
true,2,0,1,0,true,q,false,true,0.0-2.0-0.6-0.62-3.62,0,0,0,81,false,stim,false,1,614.9599999189377,3,0,1,17861,WMM1,240594,false,false,289,image-keyboard-response,33
true,2,2,1,2,true,d,false,true,0.0-2.0-0.7-0.63-3.63,0,0,0,68,false,stim,false,0,633.4549998864532,3,0,2,17861,WMM1,242738,false,false,292,image-keyboard-response,34
true,2,0,1,0,true,q,false,true,0.0-2.0-0.7-0.64-3.64,0,0,0,81,false,stim,false,1,711.3600000739098,3,0,1,17861,WMM1,244979,false,false,295,image-keyboard-response,35
true,3,2,1,0,false,q,false,true,0.0-2.0-0.7-0.65-3.65,0,0,0,68,true,stim,true,2,631.784999743104,3,0,2,17861,WMM1,247131,false,true,298,image-keyboard-response,1
true,3,2,1,0,false,q,false,false,0.0-2.0-0.7-0.66-3.66,0,0,0,68,false,stim,true,2,739.8749999701977,3,0,2,17861,WMM1,249388,false,false,301,image-keyboard-response,2
true,3,2,1,1,false,z,false,false,0.0-2.0-0.7-0.67-3.67,0,0,0,68,false,stim,true,2,1562.6949998550117,3,0,0,17861,WMM1,252460,false,false,304,image-keyboard-response,3
true,3,2,1,1,false,z,false,false,0.0-2.0-0.7-0.68-3.68,0,0,0,68,false,stim,true,2,753.5800002515316,3,0,0,17861,WMM1,254731,false,false,307,image-keyboard-response,4
true,3,0,1,1,false,z,true,false,0.0-2.0-0.7-0.69-3.69,0,0,0,81,false,stim,false,2,777.2099999710917,3,0,0,17861,WMM1,257035,false,false,310,image-keyboard-response,5
true,3,0,1,1,false,z,false,true,0.0-2.0-0.7-0.70-3.70,0,0,0,81,false,stim,true,0,668.0850000120699,3,0,1,17861,WMM1,259223,false,true,313,image-keyboard-response,6
true,3,0,1,1,false,z,false,false,0.0-2.0-0.7-0.71-3.71,0,0,0,81,false,stim,true,0,529.1299996897578,3,0,1,17861,WMM1,261266,false,false,316,image-keyboard-response,7
true,3,0,1,1,false,z,false,false,0.0-2.0-0.8-0.72-3.72,0,0,0,81,false,stim,true,0,514.655000064522,3,0,1,17861,WMM1,263300,false,false,319,image-keyboard-response,8
true,3,1,1,0,false,q,true,true,0.0-2.0-0.8-0.73-3.73,0,0,0,90,false,stim,false,2,982.1249996311963,3,0,2,17861,WMM1,265817,false,true,322,image-keyboard-response,9
true,3,1,1,1,true,z,false,true,0.0-2.0-0.8-0.74-3.74,0,0,0,90,false,stim,false,2,456.5700003877282,3,0,0,17861,WMM1,267804,false,false,325,image-keyboard-response,10
true,3,1,1,1,true,z,false,true,0.0-2.0-0.8-0.75-3.75,0,0,0,90,false,stim,false,2,702.5999999605119,3,0,0,17861,WMM1,270032,false,false,328,image-keyboard-response,11
true,3,1,1,1,true,z,false,true,0.0-2.0-0.8-0.76-3.76,0,0,0,90,false,stim,false,2,543.0200002156198,3,0,0,17861,WMM1,272104,false,false,331,image-keyboard-response,12
true,3,2,1,1,false,z,true,false,0.0-2.0-0.8-0.77-3.77,0,0,0,68,false,stim,false,0,786.4549998193979,3,0,1,17861,WMM1,274412,false,false,334,image-keyboard-response,13
true,3,1,1,0,false,q,true,false,0.0-2.0-0.8-0.78-3.78,0,0,0,90,false,stim,false,2,624.8000003397465,3,0,2,17861,WMM1,276565,false,false,337,image-keyboard-response,14
true,3,1,1,1,true,z,false,true,0.0-2.0-0.8-0.79-3.79,0,0,0,90,false,stim,false,0,578.6250000819564,3,0,1,17861,WMM1,278667,false,false,340,image-keyboard-response,15
true,3,0,1,0,true,q,false,true,0.0-2.0-0.8-0.80-3.80,0,0,0,81,false,stim,false,2,1046.2599997408688,3,0,2,17861,WMM1,281233,false,false,343,image-keyboard-response,16
true,3,1,1,1,true,z,false,false,0.0-2.0-0.9-0.81-3.81,0,0,0,90,false,stim,false,0,650.6650000810623,3,0,1,17861,WMM1,283403,false,true,346,image-keyboard-response,17
true,3,0,1,0,true,q,false,true,0.0-2.0-0.9-0.82-3.82,0,0,0,81,false,stim,false,2,899.2449999786913,3,0,2,17861,WMM1,285831,false,false,349,image-keyboard-response,18
true,3,0,1,0,true,q,false,true,0.0-2.0-0.9-0.83-3.83,0,0,0,81,false,stim,false,2,792.6099998876452,3,0,2,17861,WMM1,288156,false,false,352,image-keyboard-response,19
true,3,1,1,1,true,z,false,true,0.0-2.0-0.9-0.84-3.84,0,0,0,90,false,stim,false,0,789.1549998894334,3,0,1,17861,WMM1,290467,false,false,355,image-keyboard-response,20
true,3,1,1,1,true,z,false,true,0.0-2.0-0.9-0.85-3.85,0,0,0,90,false,stim,false,2,905.0799999386072,3,0,0,17861,WMM1,292898,false,false,358,image-keyboard-response,21
true,3,1,1,1,true,z,false,true,0.0-2.0-0.9-0.86-3.86,0,0,0,90,false,stim,false,0,943.0899997241795,3,1,1,17861,WMM1,295368,false,false,361,image-keyboard-response,22
true,3,1,1,1,true,z,false,true,0.0-2.0-0.9-0.87-3.87,0,0,0,90,false,stim,false,2,859.1300002299249,3,0,0,17861,WMM1,297748,false,false,364,image-keyboard-response,23
true,3,1,1,1,true,z,false,true,0.0-2.0-0.9-0.88-3.88,0,0,0,90,false,stim,false,2,924.7249998152256,3,0,0,17861,WMM1,300194,false,false,367,image-keyboard-response,24
true,3,0,1,0,true,q,false,true,0.0-2.0-0.9-0.89-3.89,0,0,0,81,false,stim,false,2,1020.3299997374415,3,0,2,17861,WMM1,302737,false,false,370,image-keyboard-response,25
true,3,0,1,0,true,q,false,false,0.0-2.0-0.10-0.90-3.90,0,0,0,81,false,stim,false,2,953.1649998389184,3,0,2,17861,WMM1,305219,false,true,373,image-keyboard-response,26
true,3,1,1,1,true,z,false,true,0.0-2.0-0.10-0.91-3.91,0,0,0,90,false,stim,false,2,825.7050001993775,3,0,0,17861,WMM1,307572,false,false,376,image-keyboard-response,27
true,3,0,1,0,true,q,false,true,0.0-2.0-0.10-0.92-3.92,0,0,0,81,false,stim,false,2,703.1399998813868,3,0,2,17861,WMM1,309797,false,false,379,image-keyboard-response,28
true,3,1,1,1,true,z,false,true,0.0-2.0-0.10-0.93-3.93,0,0,0,90,false,stim,false,2,682.4400001205504,3,0,0,17861,WMM1,312008,false,false,382,image-keyboard-response,29
true,3,1,1,1,true,z,false,true,0.0-2.0-0.10-0.94-3.94,0,0,0,90,false,stim,false,2,796.2899999693036,3,0,0,17861,WMM1,314337,false,false,385,image-keyboard-response,30
true,4,1,3,1,true,z,false,true,0.0-2.0-0.10-0.95-3.95,0,1,0,90,true,stim,false,1,1313.9450000599027,3,1,1,17861,WMM1,317170,false,false,388,image-keyboard-response,1
true,4,0,3,2,false,d,false,true,0.0-2.0-0.10-0.96-3.96,0,1,0,81,false,stim,true,0,795.2050003223121,3,0,2,17861,WMM1,319498,false,true,391,image-keyboard-response,2
true,4,1,3,1,true,z,false,true,0.0-2.0-0.10-0.97-3.97,0,1,0,90,false,stim,false,1,1268.0549998767674,3,1,1,17861,WMM1,322286,false,false,394,image-keyboard-response,3
true,4,1,3,1,true,z,false,true,0.0-2.0-0.10-0.98-3.98,0,1,0,90,false,stim,false,1,747.084999922663,3,1,1,17861,WMM1,324562,false,false,397,image-keyboard-response,4
true,4,0,3,2,false,d,false,false,0.0-2.0-0.11-0.99-3.99,0,1,0,81,false,stim,true,0,739.8850000463426,3,0,2,17861,WMM1,326820,false,false,400,image-keyboard-response,5
true,4,1,3,1,true,z,false,true,0.0-2.0-0.11-0.100-3.100,0,1,0,90,false,stim,false,1,626.3800002634525,3,1,1,17861,WMM1,328971,false,false,403,image-keyboard-response,6
true,4,0,3,2,false,d,false,false,0.0-2.0-0.11-0.101-3.101,0,1,0,81,false,stim,true,0,923.8349995575845,3,0,2,17861,WMM1,331417,false,false,406,image-keyboard-response,7
true,4,1,3,0,false,q,false,false,0.0-2.0-0.11-0.102-3.102,0,1,0,90,false,stim,true,1,599.5950000360608,3,0,0,17861,WMM1,333541,false,false,409,image-keyboard-response,8
true,4,1,3,1,true,z,false,true,0.0-2.0-0.11-0.103-3.103,0,1,0,90,false,stim,false,1,459.9349997006357,3,1,1,17861,WMM1,335532,false,false,412,image-keyboard-response,9
true,4,1,3,2,false,d,true,false,0.0-2.0-0.11-0.104-3.104,0,1,0,90,false,stim,false,0,619.3499998189509,3,0,2,17861,WMM1,337673,false,false,415,image-keyboard-response,10
true,4,0,3,0,true,q,false,true,0.0-2.0-0.11-0.105-3.105,0,1,0,81,false,stim,false,1,1459.4550002366304,3,0,0,17861,WMM1,340662,false,false,418,image-keyboard-response,11
true,4,0,3,0,true,q,false,false,0.0-2.0-0.11-0.106-3.106,0,1,0,81,false,stim,false,1,978.194999974221,3,0,0,17861,WMM1,343162,false,true,421,image-keyboard-response,12
true,4,1,3,1,true,z,false,false,0.0-2.0-0.11-0.107-3.107,0,1,0,90,false,stim,false,1,465.79999988898635,3,1,1,17861,WMM1,345146,false,true,424,image-keyboard-response,13
true,4,2,3,2,true,d,false,true,0.0-2.0-0.12-0.108-3.108,0,1,0,68,false,stim,false,0,500.34500006586313,3,0,2,17861,WMM1,347179,false,false,427,image-keyboard-response,14
true,4,0,3,0,true,q,false,true,0.0-2.0-0.12-0.109-3.109,0,1,0,81,false,stim,false,1,452.9050001874566,3,0,0,17861,WMM1,349164,false,false,430,image-keyboard-response,15
true,4,0,3,0,true,q,false,true,0.0-2.0-0.12-0.110-3.110,0,1,0,81,false,stim,false,1,578.5849997773767,3,0,0,17861,WMM1,351256,false,false,433,image-keyboard-response,16
true,4,1,3,1,true,z,false,true,0.0-2.0-0.12-0.111-3.111,0,1,0,90,false,stim,false,1,610.2749998681247,3,1,1,17861,WMM1,353383,false,false,436,image-keyboard-response,17
true,4,2,3,2,true,d,false,true,0.0-2.0-0.12-0.112-3.112,0,1,0,68,false,stim,false,0,590.4749999754131,3,0,2,17861,WMM1,355495,false,false,439,image-keyboard-response,18
true,4,0,3,0,true,q,false,true,0.0-2.0-0.12-0.113-3.113,0,1,0,81,false,stim,false,1,1007.8000002540648,3,0,0,17861,WMM1,358027,false,false,442,image-keyboard-response,19
true,4,2,3,2,true,d,false,true,0.0-2.0-0.12-0.114-3.114,0,1,0,68,false,stim,false,0,1011.459999717772,3,0,2,17861,WMM1,360547,false,false,445,image-keyboard-response,20
true,4,1,3,1,true,z,false,true,0.0-2.0-0.12-0.115-3.115,0,1,0,90,false,stim,false,1,954.6550000086427,3,0,1,17861,WMM1,363020,false,false,448,image-keyboard-response,21
true,4,1,3,1,true,z,false,true,0.0-2.0-0.12-0.116-3.116,0,1,0,90,false,stim,false,1,689.7700000554323,3,0,1,17861,WMM1,365236,false,false,451,image-keyboard-response,22
true,4,2,3,2,true,d,false,true,0.0-2.0-0.13-0.117-3.117,0,1,0,68,false,stim,false,0,1204.4549998827279,3,0,2,17861,WMM1,367966,false,false,454,image-keyboard-response,23
true,4,0,3,0,true,q,false,true,0.0-2.0-0.13-0.118-3.118,0,1,0,81,false,stim,false,1,910.8649999834597,3,0,0,17861,WMM1,370403,false,false,457,image-keyboard-response,24
true,4,1,3,1,true,z,false,true,0.0-2.0-0.13-0.119-3.119,0,1,0,90,false,stim,false,1,1087.1000001206994,3,0,1,17861,WMM1,373010,false,false,460,image-keyboard-response,25
true,4,2,3,2,true,d,false,true,0.0-2.0-0.13-0.120-3.120,0,1,0,68,false,stim,false,0,879.2399996891618,3,0,2,17861,WMM1,375417,false,false,463,image-keyboard-response,26
true,4,0,3,0,true,q,false,true,0.0-2.0-0.13-0.121-3.121,0,1,0,81,false,stim,false,1,686.1299998126924,3,0,0,17861,WMM1,377622,false,false,466,image-keyboard-response,27
true,4,2,3,2,true,d,false,false,0.0-2.0-0.13-0.122-3.122,0,1,0,68,false,stim,false,0,588.1599998101592,3,0,2,17861,WMM1,379738,false,true,469,image-keyboard-response,28
true,4,0,3,0,true,q,false,true,0.0-2.0-0.13-0.123-3.123,0,1,0,81,false,stim,false,1,672.1599996089935,3,0,0,17861,WMM1,381938,false,false,472,image-keyboard-response,29
true,4,1,3,1,true,z,false,true,0.0-2.0-0.13-0.124-3.124,0,1,0,90,false,stim,false,1,379.0299999527633,3,0,1,17861,WMM1,383843,false,false,475,image-keyboard-response,30
true,5,1,1,2,false,d,false,true,0.0-2.0-0.13-0.125-3.125,0,0,0,90,true,stim,true,1,554.9049996770918,3,0,1,17861,WMM1,385917,false,true,478,image-keyboard-response,1
true,5,1,1,2,false,d,false,false,0.0-2.0-0.14-0.126-3.126,0,0,0,90,false,stim,true,1,580.1850003190339,3,0,1,17861,WMM1,388023,false,false,481,image-keyboard-response,2
true,5,1,1,2,false,d,false,false,0.0-2.0-0.14-0.127-3.127,0,0,0,90,false,stim,true,1,372.8499999269843,3,0,1,17861,WMM1,389914,false,false,484,image-keyboard-response,3
true,5,0,1,1,false,z,false,false,0.0-2.0-0.14-0.128-3.128,0,0,0,81,false,stim,true,0,609.0650004334748,3,0,0,17861,WMM1,392049,false,false,487,image-keyboard-response,4
true,5,0,1,2,false,d,true,false,0.0-2.0-0.14-0.129-3.129,0,0,0,81,false,stim,false,1,1061.9400003924966,3,0,1,17861,WMM1,394633,false,false,490,image-keyboard-response,5
true,5,0,1,1,false,z,false,false,0.0-2.0-0.14-0.130-3.130,0,0,0,81,false,stim,true,0,890.0450002402067,3,0,0,17861,WMM1,397043,false,false,493,image-keyboard-response,6
true,5,0,1,1,false,z,true,false,0.0-2.0-0.14-0.131-3.131,0,0,0,81,false,stim,false,2,1177.5100002996624,3,0,2,17861,WMM1,399744,false,false,496,image-keyboard-response,7
true,5,1,1,1,true,z,false,true,0.0-2.0-0.14-0.132-3.132,0,0,0,90,false,stim,false,0,843.0949999019504,3,0,0,17861,WMM1,402109,false,false,499,image-keyboard-response,8
true,5,1,1,1,true,z,false,true,0.0-2.0-0.14-0.133-3.133,0,0,0,90,false,stim,false,2,1584.9399999715388,3,0,2,17861,WMM1,405214,false,false,502,image-keyboard-response,9
true,5,1,1,1,true,z,false,true,0.0-2.0-0.14-0.134-3.134,0,0,0,90,false,stim,false,2,697.3149999976158,3,0,2,17861,WMM1,407427,false,false,505,image-keyboard-response,10
true,5,2,1,2,true,d,false,true,0.0-2.0-0.15-0.135-3.135,0,0,0,68,false,stim,false,1,1428.6449998617172,3,0,1,17861,WMM1,410387,false,false,508,image-keyboard-response,11
true,5,1,1,1,true,z,false,true,0.0-2.0-0.15-0.136-3.136,0,0,0,90,false,stim,false,2,1204.7799997963011,3,0,2,17861,WMM1,413110,false,false,511,image-keyboard-response,12
true,5,1,1,1,true,z,false,true,0.0-2.0-0.15-0.137-3.137,0,0,0,90,false,stim,false,2,692.7350000478327,3,0,2,17861,WMM1,415328,false,false,514,image-keyboard-response,13
true,5,2,1,2,true,d,false,true,0.0-2.0-0.15-0.138-3.138,0,0,0,68,false,stim,false,1,853.4800000488758,3,0,1,17861,WMM1,417704,false,false,517,image-keyboard-response,14
true,5,1,1,1,true,z,false,true,0.0-2.0-0.15-0.139-3.139,0,0,0,90,false,stim,false,0,837.0050000958145,3,0,0,17861,WMM1,420067,false,false,520,image-keyboard-response,15
true,5,2,1,2,true,d,false,true,0.0-2.0-0.15-0.140-3.140,0,0,0,68,false,stim,false,1,749.1750000044703,3,0,1,17861,WMM1,422329,false,false,523,image-keyboard-response,16
true,5,1,1,1,true,z,false,true,0.0-2.0-0.15-0.141-3.141,0,0,0,90,false,stim,false,0,868.0099998600781,3,0,0,17861,WMM1,424727,false,false,526,image-keyboard-response,17
true,5,1,1,1,true,z,false,true,0.0-2.0-0.15-0.142-3.142,0,0,0,90,false,stim,false,2,880.464999936521,3,0,2,17861,WMM1,427138,false,false,529,image-keyboard-response,18
true,5,1,1,1,true,z,false,true,0.0-2.0-0.15-0.143-3.143,0,0,0,90,false,stim,false,0,611.415000166744,3,0,0,17861,WMM1,429267,false,false,532,image-keyboard-response,19
true,5,1,1,1,true,z,false,true,0.0-2.0-0.16-0.144-3.144,0,0,0,90,false,stim,false,0,582.0600003935397,3,0,0,17861,WMM1,431369,false,false,535,image-keyboard-response,20
true,5,2,1,2,true,d,false,true,0.0-2.0-0.16-0.145-3.145,0,0,0,68,false,stim,false,1,620.945000089705,3,0,1,17861,WMM1,433523,false,false,538,image-keyboard-response,21
true,5,2,1,2,true,d,false,true,0.0-2.0-0.16-0.146-3.146,0,0,0,68,false,stim,false,1,483.59999991953373,3,0,1,17861,WMM1,435534,false,false,541,image-keyboard-response,22
true,5,1,1,1,true,z,false,true,0.0-2.0-0.16-0.147-3.147,0,0,0,90,false,stim,false,0,591.3450000807643,3,0,0,17861,WMM1,437656,false,false,544,image-keyboard-response,23
true,5,1,1,1,true,z,false,true,0.0-2.0-0.16-0.148-3.148,0,0,0,90,false,stim,false,2,832.894999999553,3,0,2,17861,WMM1,440013,false,false,547,image-keyboard-response,24
true,5,1,1,1,true,z,false,true,0.0-2.0-0.16-0.149-3.149,0,0,0,90,false,stim,false,0,721.9799999147654,3,0,0,17861,WMM1,442267,false,false,550,image-keyboard-response,25
true,5,2,1,1,false,z,false,false,0.0-2.0-0.16-0.150-3.150,0,0,0,68,false,stim,true,2,874.464999884367,3,0,2,17861,WMM1,444667,false,false,553,image-keyboard-response,26
true,5,1,1,1,true,z,false,true,0.0-2.0-0.16-0.151-3.151,0,0,0,90,false,stim,false,2,885.6199998408556,3,0,2,17861,WMM1,447076,false,false,556,image-keyboard-response,27
true,5,2,1,2,true,d,false,true,0.0-2.0-0.16-0.152-3.152,0,0,0,68,false,stim,false,1,663.1050002761185,3,0,1,17861,WMM1,449268,false,false,559,image-keyboard-response,28
true,5,1,1,1,true,z,false,true,0.0-2.0-0.17-0.153-3.153,0,0,0,90,false,stim,false,2,551.2199997901917,3,0,2,17861,WMM1,451337,false,false,562,image-keyboard-response,29
true,5,1,1,1,true,z,false,true,0.0-2.0-0.17-0.154-3.154,0,0,0,90,false,stim,false,0,654.9949999898672,3,0,0,17861,WMM1,453523,false,false,565,image-keyboard-response,30
true,6,2,2,1,false,z,false,false,0.0-2.0-0.17-0.155-3.155,0,0,0,68,true,stim,true,2,1665.959999896586,3,0,1,17861,WMM1,456716,false,false,568,image-keyboard-response,1
true,6,2,2,1,false,z,false,false,0.0-2.0-0.17-0.156-3.156,0,0,0,68,false,stim,true,2,619.2399999126792,3,0,1,17861,WMM1,458866,false,false,571,image-keyboard-response,2
true,6,0,2,1,false,z,true,false,0.0-2.0-0.17-0.157-3.157,0,0,0,81,false,stim,false,2,1650.6199999712408,3,0,1,17861,WMM1,462045,false,false,574,image-keyboard-response,3
true,6,1,2,0,false,q,false,false,0.0-2.0-0.17-0.158-3.158,0,0,0,90,false,stim,true,1,703.6649999208748,3,0,0,17861,WMM1,464279,false,false,577,image-keyboard-response,4
true,6,1,2,2,false,d,false,false,0.0-2.0-0.17-0.159-3.159,0,0,0,90,false,stim,true,1,1091.0450001247227,3,0,2,17861,WMM1,466897,false,false,580,image-keyboard-response,5
true,6,2,2,0,false,q,true,false,0.0-2.0-0.17-0.160-3.160,0,0,0,68,false,stim,false,1,1307.8000000678003,3,0,0,17861,WMM1,469729,false,false,583,image-keyboard-response,6
true,6,0,2,2,false,d,true,false,0.0-2.0-0.17-0.161-3.161,0,0,0,81,false,stim,false,1,712.5499998219311,3,0,2,17861,WMM1,471965,false,false,586,image-keyboard-response,7
true,6,2,2,2,true,d,false,true,0.0-2.0-0.18-0.162-3.162,0,0,0,68,false,stim,false,1,1041.2949998863041,3,0,2,17861,WMM1,474525,false,false,589,image-keyboard-response,8
true,6,2,2,2,true,d,false,true,0.0-2.0-0.18-0.163-3.163,0,0,0,68,false,stim,false,1,974.379999563098,3,0,2,17861,WMM1,477022,false,false,592,image-keyboard-response,9
true,6,1,2,1,true,z,false,true,0.0-2.0-0.18-0.164-3.164,0,0,0,90,false,stim,false,2,875.8650003001094,3,0,1,17861,WMM1,479406,false,false,595,image-keyboard-response,10
true,6,0,2,0,true,q,false,true,0.0-2.0-0.18-0.165-3.165,0,0,0,81,false,stim,false,1,489.0399998985231,3,0,0,17861,WMM1,481402,false,false,598,image-keyboard-response,11
true,6,1,2,1,true,z,false,true,0.0-2.0-0.18-0.166-3.166,0,0,0,90,false,stim,false,2,933.4700000472367,3,0,1,17861,WMM1,483862,false,false,601,image-keyboard-response,12
true,6,1,2,1,true,z,false,true,0.0-2.0-0.18-0.167-3.167,0,0,0,90,false,stim,false,2,549.8999999836087,3,0,1,17861,WMM1,485941,false,false,604,image-keyboard-response,13
true,6,0,2,0,true,q,false,true,0.0-2.0-0.18-0.168-3.168,0,0,0,81,false,stim,false,1,574.9649996869266,3,0,0,17861,WMM1,488048,false,false,607,image-keyboard-response,14
true,6,2,2,2,true,d,false,true,0.0-2.0-0.18-0.169-3.169,0,0,0,68,false,stim,false,1,616.064999718219,3,0,2,17861,WMM1,490187,false,false,610,image-keyboard-response,15
true,6,0,2,0,true,q,false,true,0.0-2.0-0.18-0.170-3.170,0,0,0,81,false,stim,false,1,986.6649997420609,3,0,0,17861,WMM1,492706,false,false,613,image-keyboard-response,16
true,6,0,2,0,true,q,false,true,0.0-2.0-0.19-0.171-3.171,0,0,0,81,false,stim,false,1,693.595000077039,3,0,0,17861,WMM1,494926,false,false,616,image-keyboard-response,17
true,6,1,2,1,true,z,false,false,0.0-2.0-0.19-0.172-3.172,0,0,0,90,false,stim,false,2,533.5249998606741,3,0,1,17861,WMM1,496981,false,true,619,image-keyboard-response,18
true,6,1,2,1,true,z,false,true,0.0-2.0-0.19-0.173-3.173,0,0,0,90,false,stim,false,2,585.5449996888638,3,0,1,17861,WMM1,499098,false,false,622,image-keyboard-response,19
true,6,0,2,0,true,q,false,true,0.0-2.0-0.19-0.174-3.174,0,0,0,81,false,stim,false,1,666.0400000400841,3,0,0,17861,WMM1,501278,false,false,625,image-keyboard-response,20
true,6,2,2,2,true,d,false,true,0.0-2.0-0.19-0.175-3.175,0,0,0,68,false,stim,false,1,751.4899997040629,3,0,2,17861,WMM1,503561,false,false,628,image-keyboard-response,21
true,6,0,2,0,true,q,false,true,0.0-2.0-0.19-0.176-3.176,0,0,0,81,false,stim,false,1,733.8900002650917,3,0,0,17861,WMM1,505824,false,false,631,image-keyboard-response,22
true,6,1,2,1,true,z,false,true,0.0-2.0-0.19-0.177-3.177,0,0,0,90,false,stim,false,2,504.8100003041327,3,0,1,17861,WMM1,507861,false,false,634,image-keyboard-response,23
true,6,2,2,2,true,d,false,true,0.0-2.0-0.19-0.178-3.178,0,0,0,68,false,stim,false,1,543.4599998407066,3,0,2,17861,WMM1,509930,false,false,637,image-keyboard-response,24
true,6,2,2,2,true,d,false,true,0.0-2.0-0.19-0.179-3.179,0,0,0,68,false,stim,false,1,828.4499999135733,3,0,2,17861,WMM1,512280,false,false,640,image-keyboard-response,25
true,6,2,2,2,true,d,false,false,0.0-2.0-0.20-0.180-3.180,0,0,0,68,false,stim,false,1,733.3450000733137,3,0,2,17861,WMM1,514533,false,true,643,image-keyboard-response,26
true,6,0,2,0,true,q,false,true,0.0-2.0-0.20-0.181-3.181,0,0,0,81,false,stim,false,1,967.4049997702241,3,0,0,17861,WMM1,517032,false,false,646,image-keyboard-response,27
true,6,1,2,1,true,z,false,true,0.0-2.0-0.20-0.182-3.182,0,0,0,90,false,stim,false,2,930.8899999596179,3,0,1,17861,WMM1,519494,false,false,649,image-keyboard-response,28
true,6,0,2,0,true,q,false,true,0.0-2.0-0.20-0.183-3.183,0,0,0,81,false,stim,false,1,576.185000129044,3,0,0,17861,WMM1,521585,false,false,652,image-keyboard-response,29
true,6,1,2,1,true,z,false,true,0.0-2.0-0.20-0.184-3.184,0,0,0,90,false,stim,false,2,604.6500001102686,3,0,1,17861,WMM1,523713,false,false,655,image-keyboard-response,30
true,7,0,1,2,false,d,false,false,0.0-2.0-0.20-0.185-3.185,0,0,0,81,true,stim,true,0,760.3799998760223,3,0,0,17861,WMM1,526000,false,false,658,image-keyboard-response,1
true,7,2,1,0,false,q,false,false,0.0-2.0-0.20-0.186-3.186,0,0,0,68,false,stim,true,2,694.2449999041855,3,0,2,17861,WMM1,528215,false,false,661,image-keyboard-response,2
true,7,1,1,0,false,q,true,false,0.0-2.0-0.20-0.187-3.187,0,0,0,90,false,stim,false,2,2060.1900001056492,3,0,2,17861,WMM1,531796,false,false,664,image-keyboard-response,3
true,7,1,1,2,false,d,false,false,0.0-2.0-0.20-0.188-3.188,0,0,0,90,false,stim,true,1,914.44499976933,3,0,1,17861,WMM1,534230,false,false,667,image-keyboard-response,4
true,7,1,1,2,false,d,true,false,0.0-2.0-0.21-0.189-3.189,0,0,0,90,false,stim,false,0,1611.849999986589,3,0,0,17861,WMM1,537360,false,false,670,image-keyboard-response,5
true,7,0,1,2,false,d,true,false,0.0-2.0-0.21-0.190-3.190,0,0,0,81,false,stim,false,1,1215.459999628365,3,0,1,17861,WMM1,540093,false,false,673,image-keyboard-response,6
true,7,2,1,2,true,d,false,true,0.0-2.0-0.21-0.191-3.191,0,0,0,68,false,stim,false,0,1010.3150000795722,3,0,0,17861,WMM1,542636,false,false,676,image-keyboard-response,7
true,7,0,1,0,true,q,false,false,0.0-2.0-0.21-0.192-3.192,0,0,0,81,false,stim,false,2,1668.08500001207,3,0,2,17861,WMM1,545825,false,true,679,image-keyboard-response,8
true,7,1,1,0,false,q,true,false,0.0-2.0-0.21-0.193-3.193,0,0,0,90,false,stim,false,2,470.66000010818243,3,0,2,17861,WMM1,547824,false,false,682,image-keyboard-response,9
true,7,2,1,2,true,d,false,true,0.0-2.0-0.21-0.194-3.194,0,0,0,68,false,stim,false,1,950.5300000309944,3,0,1,17861,WMM1,550302,false,false,685,image-keyboard-response,10
true,7,2,1,2,true,d,false,true,0.0-2.0-0.21-0.195-3.195,0,0,0,68,false,stim,false,0,443.80499981343746,3,0,0,17861,WMM1,552276,false,false,688,image-keyboard-response,11
true,7,2,1,2,true,d,false,true,0.0-2.0-0.21-0.196-3.196,0,0,0,68,false,stim,false,1,589.5299999974668,3,0,1,17861,WMM1,554387,false,false,691,image-keyboard-response,12
true,7,2,1,0,false,q,false,false,0.0-2.0-0.21-0.197-3.197,0,0,0,68,false,stim,true,2,506.3649998046458,3,0,2,17861,WMM1,556404,false,false,694,image-keyboard-response,13
true,7,2,1,2,true,d,false,true,0.0-2.0-0.22-0.198-3.198,0,0,0,68,false,stim,false,1,496.71499989926815,3,0,1,17861,WMM1,558425,false,false,697,image-keyboard-response,14
true,7,2,1,2,true,d,false,true,0.0-2.0-0.22-0.199-3.199,0,0,0,68,false,stim,false,0,628.7949997931719,3,0,0,17861,WMM1,560562,false,false,700,image-keyboard-response,15
true,7,2,1,2,true,d,false,true,0.0-2.0-0.22-0.200-3.200,0,0,0,68,false,stim,false,0,588.8849999755621,3,0,0,17861,WMM1,562679,false,false,703,image-keyboard-response,16
true,7,2,1,2,true,d,false,true,0.0-2.0-0.22-0.201-3.201,0,0,0,68,false,stim,false,1,802.1499998867512,3,0,1,17861,WMM1,565008,false,false,706,image-keyboard-response,17
true,7,2,1,2,true,d,false,true,0.0-2.0-0.22-0.202-3.202,0,0,0,68,false,stim,false,1,615.3899999335408,3,0,1,17861,WMM1,567152,false,false,709,image-keyboard-response,18
true,7,0,1,0,true,q,false,true,0.0-2.0-0.22-0.203-3.203,0,0,0,81,false,stim,false,2,1011.3550000824034,3,0,2,17861,WMM1,569696,false,false,712,image-keyboard-response,19
true,7,2,1,2,true,d,false,true,0.0-2.0-0.22-0.204-3.204,0,0,0,68,false,stim,false,0,755.9050000272691,3,0,0,17861,WMM1,571971,false,false,715,image-keyboard-response,20
true,7,0,1,0,true,q,false,false,0.0-2.0-0.22-0.205-3.205,0,0,0,81,false,stim,false,2,1243.5250002890825,3,0,2,17861,WMM1,574741,false,true,718,image-keyboard-response,21
true,7,0,1,0,true,q,false,true,0.0-2.0-0.22-0.206-3.206,0,0,0,81,false,stim,false,2,1064.8199999704957,3,0,2,17861,WMM1,577326,false,false,721,image-keyboard-response,22
true,7,2,1,2,true,d,false,true,0.0-2.0-0.23-0.207-3.207,0,0,0,68,false,stim,false,0,511.119999922812,3,0,0,17861,WMM1,579354,false,false,724,image-keyboard-response,23
true,7,0,1,0,true,q,false,false,0.0-2.0-0.23-0.208-3.208,0,0,0,81,false,stim,false,2,729.3549999594688,3,0,2,17861,WMM1,581604,false,true,727,image-keyboard-response,24
true,7,0,1,0,true,q,false,true,0.0-2.0-0.23-0.209-3.209,0,0,0,81,false,stim,false,2,944.7050001472235,3,0,2,17861,WMM1,584067,false,false,730,image-keyboard-response,25
true,7,0,1,0,true,q,false,true,0.0-2.0-0.23-0.210-3.210,0,0,0,81,false,stim,false,2,767.6900001242757,3,0,2,17861,WMM1,586355,false,false,733,image-keyboard-response,26
true,7,2,1,2,true,d,false,true,0.0-2.0-0.23-0.211-3.211,0,0,0,68,false,stim,false,0,970.075000077486,3,0,0,17861,WMM1,588855,false,false,736,image-keyboard-response,27
true,7,2,1,2,true,d,false,true,0.0-2.0-0.23-0.212-3.212,0,0,0,68,false,stim,false,1,652.7900001965463,3,0,1,17861,WMM1,591035,false,false,739,image-keyboard-response,28
true,7,2,1,2,true,d,false,true,0.0-2.0-0.23-0.213-3.213,0,0,0,68,false,stim,false,1,655.4149999283254,3,0,1,17861,WMM1,593219,false,false,742,image-keyboard-response,29
true,7,2,1,2,true,d,false,true,0.0-2.0-0.23-0.214-3.214,0,0,0,68,false,stim,false,0,669.4200001657009,3,0,0,17861,WMM1,595415,false,false,745,image-keyboard-response,30
true,7,2,1,2,true,d,false,true,0.0-2.0-0.23-0.215-3.215,0,0,0,68,false,stim,false,1,681.1899999156594,3,0,1,17861,WMM1,597625,false,false,748,image-keyboard-response,31
true,8,2,2,1,false,z,false,false,0.0-2.0-0.24-0.216-3.216,0,0,0,68,true,stim,true,2,1142.1799999661744,3,0,1,17861,WMM1,600285,false,false,751,image-keyboard-response,1
true,8,2,2,0,false,q,false,false,0.0-2.0-0.24-0.217-3.217,0,0,0,68,false,stim,true,2,785.2349998429418,3,0,0,17861,WMM1,602591,false,false,754,image-keyboard-response,2
true,8,1,2,0,false,q,true,false,0.0-2.0-0.24-0.218-3.218,0,0,0,90,false,stim,false,2,1869.084999896586,3,0,0,17861,WMM1,605990,false,false,757,image-keyboard-response,3
true,8,1,2,1,true,z,false,true,0.0-2.0-0.24-0.219-3.219,0,0,0,90,false,stim,false,2,2017.909999936819,3,0,1,17861,WMM1,609536,false,false,760,image-keyboard-response,4
true,8,1,2,1,true,z,false,true,0.0-2.0-0.24-0.220-3.220,0,0,0,90,false,stim,false,2,839.0099997632205,3,0,1,17861,WMM1,611904,false,false,763,image-keyboard-response,5
true,8,0,2,2,false,d,false,false,0.0-2.0-0.24-0.221-3.221,0,0,0,81,false,stim,true,0,1724.5100000873208,3,0,2,17861,WMM1,615153,false,false,766,image-keyboard-response,6
true,8,0,2,0,true,q,false,true,0.0-2.0-0.24-0.222-3.222,0,0,0,81,false,stim,false,2,928.5200000740588,3,0,0,17861,WMM1,617605,false,false,769,image-keyboard-response,7
true,8,2,2,2,true,d,false,true,0.0-2.0-0.24-0.223-3.223,0,0,0,68,false,stim,false,0,516.8149997480214,3,0,2,17861,WMM1,619642,false,false,772,image-keyboard-response,8
true,8,2,2,2,true,d,false,true,0.0-2.0-0.24-0.224-3.224,0,0,0,68,false,stim,false,0,567.8800004534423,3,0,2,17861,WMM1,621740,false,false,775,image-keyboard-response,9
true,8,0,2,0,true,q,false,true,0.0-2.0-0.25-0.225-3.225,0,0,0,81,false,stim,false,2,928.404999896884,3,0,0,17861,WMM1,624200,false,false,778,image-keyboard-response,10
true,8,2,2,2,true,d,false,true,0.0-2.0-0.25-0.226-3.226,0,0,0,68,false,stim,false,0,878.8100001402199,3,0,2,17861,WMM1,626598,false,false,781,image-keyboard-response,11
true,8,2,2,2,true,d,false,true,0.0-2.0-0.25-0.227-3.227,0,0,0,68,false,stim,false,0,731.3049999065697,3,0,2,17861,WMM1,628848,false,false,784,image-keyboard-response,12
true,8,2,2,2,true,d,false,false,0.0-2.0-0.25-0.228-3.228,0,0,0,68,false,stim,false,0,670.1050000265241,3,0,2,17861,WMM1,631049,false,true,787,image-keyboard-response,13
true,8,1,2,1,true,z,false,true,0.0-2.0-0.25-0.229-3.229,0,0,0,90,false,stim,false,2,886.374999769032,3,0,1,17861,WMM1,633466,false,false,790,image-keyboard-response,14
true,8,0,2,0,true,q,false,false,0.0-2.0-0.25-0.230-3.230,0,0,0,81,false,stim,false,2,654.055000282824,3,0,0,17861,WMM1,635648,false,true,793,image-keyboard-response,15
true,8,1,2,1,true,z,false,true,0.0-2.0-0.25-0.231-3.231,0,0,0,90,false,stim,false,2,706.9649999029934,3,0,1,17861,WMM1,637882,false,false,796,image-keyboard-response,16
true,8,1,2,1,true,z,false,true,0.0-2.0-0.25-0.232-3.232,0,0,0,90,false,stim,false,2,642.3949999734759,3,0,1,17861,WMM1,640049,false,false,799,image-keyboard-response,17
true,8,0,2,0,true,q,false,true,0.0-2.0-0.25-0.233-3.233,0,0,0,81,false,stim,false,2,1701.779999770224,3,0,0,17861,WMM1,643273,false,false,802,image-keyboard-response,18
true,8,0,2,0,true,q,false,false,0.0-2.0-0.26-0.234-3.234,0,0,0,81,false,stim,false,2,760.4849999770522,3,0,0,17861,WMM1,645563,false,true,805,image-keyboard-response,19
true,8,1,2,1,true,z,false,true,0.0-2.0-0.26-0.235-3.235,0,0,0,90,false,stim,false,2,811.9100001640618,3,0,1,17861,WMM1,647896,false,false,808,image-keyboard-response,20
true,8,2,2,2,true,d,false,true,0.0-2.0-0.26-0.236-3.236,0,0,0,68,false,stim,false,0,1281.7049999721348,3,0,2,17861,WMM1,650696,false,false,811,image-keyboard-response,21
true,8,0,2,0,true,q,false,true,0.0-2.0-0.26-0.237-3.237,0,0,0,81,false,stim,false,2,1126.6200002282858,3,1,0,17861,WMM1,653355,false,false,814,image-keyboard-response,22
true,8,1,2,1,true,z,false,true,0.0-2.0-0.26-0.238-3.238,0,0,0,90,false,stim,false,2,1111.3749998621643,3,0,1,17861,WMM1,655988,false,false,817,image-keyboard-response,23
true,8,0,2,0,true,q,false,true,0.0-2.0-0.26-0.239-3.239,0,0,0,81,false,stim,false,2,1373.1949999928474,3,1,0,17861,WMM1,658881,false,false,820,image-keyboard-response,24
true,8,2,2,2,true,d,false,true,0.0-2.0-0.26-0.240-3.240,0,0,0,68,false,stim,false,0,1039.745000191033,3,0,2,17861,WMM1,661434,false,false,823,image-keyboard-response,25
true,8,1,2,1,true,z,false,false,0.0-2.0-0.26-0.241-3.241,0,0,0,90,false,stim,false,2,1085.6750002130866,3,0,1,17861,WMM1,664045,false,true,826,image-keyboard-response,26
true,8,2,2,2,true,d,false,true,0.0-2.0-0.26-0.242-3.242,0,0,0,68,false,stim,false,0,1944.5350002497435,3,0,2,17861,WMM1,667518,false,false,829,image-keyboard-response,27
true,8,0,2,0,true,q,false,true,0.0-2.0-0.27-0.243-3.243,0,0,0,81,false,stim,false,2,1083.0999999307096,3,1,0,17861,WMM1,670115,false,false,832,image-keyboard-response,28
true,8,2,2,2,true,d,false,true,0.0-2.0-0.27-0.244-3.244,0,0,0,68,false,stim,false,0,2000.715000089258,3,0,2,17861,WMM1,673635,false,false,835,image-keyboard-response,29
true,8,2,2,2,true,d,false,true,0.0-2.0-0.27-0.245-3.245,0,0,0,68,false,stim,false,0,1203.2800000160933,3,0,2,17861,WMM1,676369,false,false,838,image-keyboard-response,30
true,9,0,3,0,true,q,false,true,0.0-2.0-0.27-0.246-3.246,1,0,0,81,true,stim,false,0,795.9249997511506,3,1,0,17861,WMM1,678693,false,false,841,image-keyboard-response,1
true,9,1,3,2,false,d,false,false,0.0-2.0-0.27-0.247-3.247,1,0,0,90,false,stim,true,1,953.5099999047816,3,0,1,17861,WMM1,681166,false,false,844,image-keyboard-response,2
true,9,2,3,0,false,q,false,false,0.0-2.0-0.27-0.248-3.248,1,0,0,68,false,stim,true,2,969.9300001375377,3,0,2,17861,WMM1,683663,false,false,847,image-keyboard-response,3
true,9,1,3,2,false,d,false,false,0.0-2.0-0.27-0.249-3.249,1,0,0,90,false,stim,true,1,1503.0300002545118,3,0,1,17861,WMM1,686679,false,false,850,image-keyboard-response,4
true,9,2,3,2,true,d,false,true,0.0-2.0-0.27-0.250-3.250,1,0,0,68,false,stim,false,1,1274.07499961555,3,0,1,17861,WMM1,689479,false,false,853,image-keyboard-response,5
true,9,2,3,0,false,q,true,false,0.0-2.0-0.27-0.251-3.251,1,0,0,68,false,stim,false,0,486.37499986216426,3,1,0,17861,WMM1,691488,false,false,856,image-keyboard-response,6
true,9,2,3,2,true,d,false,true,0.0-2.0-0.28-0.252-3.252,1,0,0,68,false,stim,false,1,882.1800001896918,3,0,1,17861,WMM1,693899,false,false,859,image-keyboard-response,7
true,9,2,3,2,true,d,false,true,0.0-2.0-0.28-0.253-3.253,1,0,0,68,false,stim,false,1,993.5149997472763,3,0,1,17861,WMM1,696425,false,false,862,image-keyboard-response,8
true,9,1,3,0,false,q,true,false,0.0-2.0-0.28-0.254-3.254,1,0,0,90,false,stim,false,2,482.6800003647804,3,0,2,17861,WMM1,698428,false,false,865,image-keyboard-response,9
true,9,2,3,2,true,d,false,true,0.0-2.0-0.28-0.255-3.255,1,0,0,68,false,stim,false,1,829.7649999149144,3,0,1,17861,WMM1,700789,false,false,868,image-keyboard-response,10
true,9,1,3,0,false,q,true,false,0.0-2.0-0.28-0.256-3.256,1,0,0,90,false,stim,false,0,477.23500011488795,3,1,0,17861,WMM1,702786,false,false,871,image-keyboard-response,11
true,9,0,3,0,true,q,false,true,0.0-2.0-0.28-0.257-3.257,1,0,0,81,false,stim,false,2,817.2399997711182,3,0,2,17861,WMM1,705124,false,false,874,image-keyboard-response,12
true,9,0,3,0,true,q,false,true,0.0-2.0-0.28-0.258-3.258,1,0,0,81,false,stim,false,0,350.8850000798702,3,1,0,17861,WMM1,707006,false,false,877,image-keyboard-response,13
true,9,0,3,0,true,q,false,false,0.0-2.0-0.28-0.259-3.259,1,0,0,81,false,stim,false,0,617.3699996434152,3,1,0,17861,WMM1,709155,false,true,880,image-keyboard-response,14
true,9,0,3,0,true,q,false,true,0.0-2.0-0.28-0.260-3.260,1,0,0,81,false,stim,false,2,461.69500006362796,3,0,2,17861,WMM1,711146,false,false,883,image-keyboard-response,15
true,9,2,3,2,true,d,false,true,0.0-2.0-0.29-0.261-3.261,1,0,0,68,false,stim,false,1,625.185000244528,3,0,1,17861,WMM1,713291,false,false,886,image-keyboard-response,16
true,9,2,3,2,true,d,false,true,0.0-2.0-0.29-0.262-3.262,1,0,0,68,false,stim,false,1,502.3749996908009,3,0,1,17861,WMM1,715316,false,false,889,image-keyboard-response,17
true,9,0,3,0,true,q,false,true,0.0-2.0-0.29-0.263-3.263,1,0,0,81,false,stim,false,2,1052.9900002293289,3,0,2,17861,WMM1,717899,false,false,892,image-keyboard-response,18
true,9,2,3,2,true,d,false,true,0.0-2.0-0.29-0.264-3.264,1,0,0,68,false,stim,false,1,1064.8550000041723,3,0,1,17861,WMM1,720492,false,false,895,image-keyboard-response,19
true,9,0,3,0,true,q,false,false,0.0-2.0-0.29-0.265-3.265,1,0,0,81,false,stim,false,0,969.3200001493096,3,1,0,17861,WMM1,723003,false,true,898,image-keyboard-response,20
true,9,0,3,0,true,q,false,true,0.0-2.0-0.29-0.266-3.266,1,0,0,81,false,stim,false,2,1286.9349997490644,3,0,2,17861,WMM1,725823,false,false,901,image-keyboard-response,21
true,9,0,3,0,true,q,false,false,0.0-2.0-0.29-0.267-3.267,1,0,0,81,false,stim,false,2,651.9899996928871,3,0,2,17861,WMM1,727998,false,true,904,image-keyboard-response,22
true,9,0,3,0,true,q,false,true,0.0-2.0-0.29-0.268-3.268,1,0,0,81,false,stim,false,0,1149.259999860078,3,0,0,17861,WMM1,730662,false,false,907,image-keyboard-response,23
true,9,0,3,0,true,q,false,true,0.0-2.0-0.29-0.269-3.269,1,0,0,81,false,stim,false,0,708.1100000068545,3,0,0,17861,WMM1,732901,false,false,910,image-keyboard-response,24
true,9,0,3,0,true,q,false,false,0.0-2.0-0.30-0.270-3.270,1,0,0,81,false,stim,false,0,477.68000001087785,3,0,0,17861,WMM1,734902,false,true,913,image-keyboard-response,25
true,9,0,3,0,true,q,false,true,0.0-2.0-0.30-0.271-3.271,1,0,0,81,false,stim,false,2,1420.1199999079108,3,0,2,17861,WMM1,737842,false,false,916,image-keyboard-response,26
true,9,2,3,2,true,d,false,true,0.0-2.0-0.30-0.272-3.272,1,0,0,68,false,stim,false,1,468.00999995321035,3,0,1,17861,WMM1,739837,false,false,919,image-keyboard-response,27
true,9,0,3,0,true,q,false,true,0.0-2.0-0.30-0.273-3.273,1,0,0,81,false,stim,false,2,895.8700001239777,3,0,2,17861,WMM1,742263,false,false,922,image-keyboard-response,28
true,9,2,3,2,true,d,false,true,0.0-2.0-0.30-0.274-3.274,1,0,0,68,false,stim,false,1,818.859999999404,3,0,1,17861,WMM1,744601,false,false,925,image-keyboard-response,29
true,9,0,3,0,true,q,false,true,0.0-2.0-0.30-0.275-3.275,1,0,0,81,false,stim,false,0,723.960000090301,3,0,0,17861,WMM1,746854,false,false,928,image-keyboard-response,30
true,10,2,4,0,false,q,false,false,0.0-2.0-0.30-0.276-3.276,0,0,0,68,true,stim,true,2,967.9450001567602,3,0,1,17861,WMM1,749346,false,false,931,image-keyboard-response,1
true,10,0,4,1,false,z,false,false,0.0-2.0-0.30-0.277-3.277,0,0,0,81,false,stim,true,0,811.895000282675,3,0,2,17861,WMM1,751687,false,false,934,image-keyboard-response,2
true,10,1,4,1,true,z,false,true,0.0-2.0-0.30-0.278-3.278,0,0,0,90,false,stim,false,0,1510.9749999828637,3,0,0,17861,WMM1,754718,false,false,937,image-keyboard-response,3
true,10,2,4,0,false,q,false,false,0.0-2.0-0.31-0.279-3.279,0,0,0,68,false,stim,true,2,745.070000179112,3,0,1,17861,WMM1,756983,false,false,940,image-keyboard-response,4
true,10,1,4,1,true,z,false,true,0.0-2.0-0.31-0.280-3.280,0,0,0,90,false,stim,false,0,610.8150002546608,3,0,0,17861,WMM1,759113,false,false,943,image-keyboard-response,5
true,10,1,4,0,false,q,true,false,0.0-2.0-0.31-0.281-3.281,0,0,0,90,false,stim,false,2,1325.3399999812245,3,0,1,17861,WMM1,761959,false,false,946,image-keyboard-response,6
true,10,1,4,1,true,z,false,true,0.0-2.0-0.31-0.282-3.282,0,0,0,90,false,stim,false,0,760.6899999082088,3,0,0,17861,WMM1,764242,false,false,949,image-keyboard-response,7
true,10,0,4,1,false,z,false,false,0.0-2.0-0.31-0.283-3.283,0,0,0,81,false,stim,true,0,500.9500002488494,3,0,2,17861,WMM1,766263,false,false,952,image-keyboard-response,8
true,10,0,4,0,true,q,false,true,0.0-2.0-0.31-0.284-3.284,0,0,0,81,false,stim,false,2,1195.1349996961653,3,0,1,17861,WMM1,768990,false,false,955,image-keyboard-response,9
true,10,1,4,1,true,z,false,true,0.0-2.0-0.31-0.285-3.285,0,0,0,90,false,stim,false,0,513.2699999958277,3,0,2,17861,WMM1,771022,false,false,958,image-keyboard-response,10
true,10,1,4,1,true,z,false,false,0.0-2.0-0.31-0.286-3.286,0,0,0,90,false,stim,false,0,988.60999988392,3,0,0,17861,WMM1,773529,false,true,961,image-keyboard-response,11
true,10,1,4,1,true,z,false,true,0.0-2.0-0.31-0.287-3.287,0,0,0,90,false,stim,false,0,592.2499997541308,3,0,2,17861,WMM1,775647,false,false,964,image-keyboard-response,12
true,10,0,4,0,true,q,false,true,0.0-2.0-0.32-0.288-3.288,0,0,0,81,false,stim,false,2,467.7699999883771,3,0,1,17861,WMM1,777637,false,false,967,image-keyboard-response,13
true,10,1,4,1,true,z,false,true,0.0-2.0-0.32-0.289-3.289,0,0,0,90,false,stim,false,0,367.0350001193583,3,0,0,17861,WMM1,779535,false,false,970,image-keyboard-response,14
true,10,0,4,0,true,q,false,true,0.0-2.0-0.32-0.290-3.290,0,0,0,81,false,stim,false,2,574.1150001995265,3,0,1,17861,WMM1,781611,false,false,973,image-keyboard-response,15
true,10,1,4,1,true,z,false,true,0.0-2.0-0.32-0.291-3.291,0,0,0,90,false,stim,false,0,729.7600000165403,3,0,2,17861,WMM1,783864,false,false,976,image-keyboard-response,16
true,10,0,4,0,true,q,false,true,0.0-2.0-0.32-0.292-3.292,0,0,0,81,false,stim,false,2,507.6899998821318,3,0,1,17861,WMM1,785890,false,false,979,image-keyboard-response,17
true,10,1,4,1,true,z,false,true,0.0-2.0-0.32-0.293-3.293,0,0,0,90,false,stim,false,0,471.75500029698014,3,0,0,17861,WMM1,787886,false,false,982,image-keyboard-response,18
true,10,1,4,1,true,z,false,true,0.0-2.0-0.32-0.294-3.294,0,0,0,90,false,stim,false,0,1036.444999743253,3,0,2,17861,WMM1,790450,false,false,985,image-keyboard-response,19
true,10,1,4,1,true,z,false,true,0.0-2.0-0.32-0.295-3.295,0,0,0,90,false,stim,false,0,663.4949999861419,3,0,0,17861,WMM1,792641,false,false,988,image-keyboard-response,20
true,10,1,4,1,true,z,false,true,0.0-2.0-0.32-0.296-3.296,0,0,0,90,false,stim,false,0,643.8549999147654,3,0,2,17861,WMM1,794803,false,false,991,image-keyboard-response,21
true,10,1,4,1,true,z,false,true,0.0-2.0-0.33-0.297-3.297,0,0,0,90,false,stim,false,0,536.809999961406,3,0,2,17861,WMM1,796860,false,false,994,image-keyboard-response,22
true,10,1,4,1,true,z,false,true,0.0-2.0-0.33-0.298-3.298,0,0,0,90,false,stim,false,0,658.0899995751679,3,0,0,17861,WMM1,799046,false,false,997,image-keyboard-response,23
true,10,1,4,1,true,z,false,true,0.0-2.0-0.33-0.299-3.299,0,0,0,90,false,stim,false,0,508.72999988496304,3,0,0,17861,WMM1,801063,false,false,1000,image-keyboard-response,24
true,10,0,4,0,true,q,false,true,0.0-2.0-0.33-0.300-3.300,0,0,0,81,false,stim,false,2,569.5349997840822,3,0,1,17861,WMM1,803154,false,false,1003,image-keyboard-response,25
true,10,0,4,0,true,q,false,true,0.0-2.0-0.33-0.301-3.301,0,0,0,81,false,stim,false,2,834.4700001180172,3,0,1,17861,WMM1,805517,false,false,1006,image-keyboard-response,26
true,10,1,4,1,true,z,false,true,0.0-2.0-0.33-0.302-3.302,0,0,0,90,false,stim,false,0,614.839999936521,3,0,0,17861,WMM1,807662,false,false,1009,image-keyboard-response,27
true,10,0,4,0,true,q,false,true,0.0-2.0-0.33-0.303-3.303,0,0,0,81,false,stim,false,2,670.5400003120303,3,0,1,17861,WMM1,809849,false,false,1012,image-keyboard-response,28
true,10,1,4,1,true,z,false,true,0.0-2.0-0.33-0.304-3.304,0,0,0,90,false,stim,false,0,460.96999989822507,3,0,2,17861,WMM1,811838,false,false,1015,image-keyboard-response,29
true,10,1,4,1,true,z,false,true,0.0-2.0-0.33-0.305-3.305,0,0,0,90,false,stim,false,0,532.235000282526,3,0,2,17861,WMM1,813891,false,false,1018,image-keyboard-response,30
true,11,1,2,0,false,q,false,true,0.0-2.0-0.34-0.306-3.306,0,0,0,90,true,stim,true,1,483.02000015974045,3,0,0,17861,WMM1,815907,false,true,1021,image-keyboard-response,1
true,11,1,2,0,false,q,false,false,0.0-2.0-0.34-0.307-3.307,0,0,0,90,false,stim,true,1,565.5200001783669,3,0,0,17861,WMM1,818004,false,false,1024,image-keyboard-response,2
true,11,1,2,2,false,d,false,false,0.0-2.0-0.34-0.308-3.308,0,0,0,90,false,stim,true,1,676.7799998633564,3,0,2,17861,WMM1,820213,false,false,1027,image-keyboard-response,3
true,11,1,2,1,true,z,false,true,0.0-2.0-0.34-0.309-3.309,0,0,0,90,false,stim,false,0,1516.6700002737343,3,0,1,17861,WMM1,823250,false,false,1030,image-keyboard-response,4
true,11,2,2,2,true,d,false,true,0.0-2.0-0.34-0.310-3.310,0,0,0,68,false,stim,false,1,654.7750001773238,3,0,2,17861,WMM1,825436,false,false,1033,image-keyboard-response,5
true,11,0,2,0,true,q,false,true,0.0-2.0-0.34-0.311-3.311,0,0,0,81,false,stim,false,1,410.0299999117851,3,0,0,17861,WMM1,827372,false,false,1036,image-keyboard-response,6
true,11,1,2,1,true,z,false,true,0.0-2.0-0.34-0.312-3.312,0,0,0,90,false,stim,false,0,477.9699998907745,3,0,1,17861,WMM1,829372,false,false,1039,image-keyboard-response,7
true,11,2,2,2,true,d,false,true,0.0-2.0-0.34-0.313-3.313,0,0,0,68,false,stim,false,1,437.90500005707145,3,0,2,17861,WMM1,831331,false,false,1042,image-keyboard-response,8
true,11,1,2,1,true,z,false,true,0.0-2.0-0.34-0.314-3.314,0,0,0,90,false,stim,false,0,846.2900002487004,3,0,1,17861,WMM1,833703,false,false,1045,image-keyboard-response,9
true,11,2,2,2,true,d,false,true,0.0-2.0-0.35-0.315-3.315,0,0,0,68,false,stim,false,1,634.7449999302626,3,0,2,17861,WMM1,835857,false,false,1048,image-keyboard-response,10
true,11,1,2,1,true,z,false,true,0.0-2.0-0.35-0.316-3.316,0,0,0,90,false,stim,false,0,662.3649997636676,3,0,1,17861,WMM1,838049,false,false,1051,image-keyboard-response,11
true,11,0,2,0,true,q,false,true,0.0-2.0-0.35-0.317-3.317,0,0,0,81,false,stim,false,1,730.5600000545382,3,0,0,17861,WMM1,840299,false,false,1054,image-keyboard-response,12
true,11,0,2,0,true,q,false,true,0.0-2.0-0.35-0.318-3.318,0,0,0,81,false,stim,false,1,679.6750002540648,3,0,0,17861,WMM1,842510,false,false,1057,image-keyboard-response,13
true,11,1,2,1,true,z,false,false,0.0-2.0-0.35-0.319-3.319,0,0,0,90,false,stim,false,0,558.4050002507865,3,0,1,17861,WMM1,844586,false,true,1060,image-keyboard-response,14
true,11,0,2,0,true,q,false,false,0.0-2.0-0.35-0.320-3.320,0,0,0,81,false,stim,false,1,779.8799998126924,3,0,0,17861,WMM1,846890,false,true,1063,image-keyboard-response,15
true,11,2,2,1,false,z,true,false,0.0-2.0-0.35-0.321-3.321,0,0,0,68,false,stim,false,0,2004.5500001870096,3,0,1,17861,WMM1,850412,false,false,1066,image-keyboard-response,16
true,11,1,2,2,false,d,false,false,0.0-2.0-0.35-0.322-3.322,0,0,0,90,false,stim,true,1,1560.6700000353158,3,0,2,17861,WMM1,853499,false,false,1069,image-keyboard-response,17
true,11,2,2,2,true,d,false,true,0.0-2.0-0.35-0.323-3.323,0,0,0,68,false,stim,false,1,693.510000128299,3,0,2,17861,WMM1,855712,false,false,1072,image-keyboard-response,18
true,11,2,2,2,true,d,false,true,0.0-2.0-0.36-0.324-3.324,0,0,0,68,false,stim,false,1,606.2400001101196,3,0,2,17861,WMM1,857839,false,false,1075,image-keyboard-response,19
true,11,2,2,2,true,d,false,true,0.0-2.0-0.36-0.325-3.325,0,0,0,68,false,stim,false,1,522.3849997855723,3,0,2,17861,WMM1,859887,false,false,1078,image-keyboard-response,20
true,11,0,2,0,true,q,false,true,0.0-2.0-0.36-0.326-3.326,0,0,0,81,false,stim,false,1,1159.414999652654,3,0,0,17861,WMM1,862573,false,false,1081,image-keyboard-response,21
true,11,1,2,1,true,z,false,true,0.0-2.0-0.36-0.327-3.327,0,0,0,90,false,stim,false,0,341.8499999679625,3,0,1,17861,WMM1,864435,false,false,1084,image-keyboard-response,22
true,11,2,2,2,true,d,false,true,0.0-2.0-0.36-0.328-3.328,0,0,0,68,false,stim,false,1,411.8349999189377,3,0,2,17861,WMM1,866371,false,false,1087,image-keyboard-response,23
true,11,0,2,0,true,q,false,true,0.0-2.0-0.36-0.329-3.329,0,0,0,81,false,stim,false,1,771.3250000961125,3,0,0,17861,WMM1,868662,false,false,1090,image-keyboard-response,24
true,11,1,2,1,true,z,false,true,0.0-2.0-0.36-0.330-3.330,0,0,0,90,false,stim,false,0,456.18500001728535,3,0,1,17861,WMM1,870645,false,false,1093,image-keyboard-response,25
true,11,1,2,1,true,z,false,true,0.0-2.0-0.36-0.331-3.331,0,0,0,90,false,stim,false,0,577.3900002241135,3,1,1,17861,WMM1,872748,false,false,1096,image-keyboard-response,26
true,11,0,2,0,true,q,false,true,0.0-2.0-0.36-0.332-3.332,0,0,0,81,false,stim,false,1,981.5750000998378,3,0,0,17861,WMM1,875250,false,false,1099,image-keyboard-response,27
true,11,1,2,1,true,z,false,true,0.0-2.0-0.37-0.333-3.333,0,0,0,90,false,stim,false,0,612.2650001198053,3,1,1,17861,WMM1,877394,false,false,1102,image-keyboard-response,28
true,11,1,2,0,false,q,false,false,0.0-2.0-0.37-0.334-3.334,0,0,0,90,false,stim,true,1,672.4600000306964,3,0,0,17861,WMM1,879586,false,false,1105,image-keyboard-response,29
true,11,0,2,0,true,q,false,true,0.0-2.0-0.37-0.335-3.335,0,0,0,81,false,stim,false,1,2098.8449999131262,3,0,0,17861,WMM1,883195,false,false,1108,image-keyboard-response,30
true,11,0,2,0,true,q,false,true,0.0-2.0-0.37-0.336-3.336,0,0,0,81,false,stim,false,1,674.8249996453524,3,0,0,17861,WMM1,885400,false,false,1111,image-keyboard-response,31
true,11,2,2,2,true,d,false,true,0.0-2.0-0.37-0.337-3.337,0,0,0,68,false,stim,false,1,928.319999948144,3,0,2,17861,WMM1,887852,false,false,1114,image-keyboard-response,32
true,11,2,2,2,true,d,false,true,0.0-2.0-0.37-0.338-3.338,0,0,0,68,false,stim,false,1,958.2899999804795,3,0,2,17861,WMM1,890331,false,false,1117,image-keyboard-response,33
true,11,1,2,1,true,z,false,false,0.0-2.0-0.37-0.339-3.339,0,0,0,90,false,stim,false,0,1028.3750002272427,3,1,1,17861,WMM1,892882,false,true,1120,image-keyboard-response,34
true,11,2,2,2,true,d,false,true,0.0-2.0-0.37-0.340-3.340,0,0,0,68,false,stim,false,1,1112.5400001183152,3,0,2,17861,WMM1,895514,false,false,1123,image-keyboard-response,35
true,12,1,3,1,true,z,false,true,0.0-2.0-0.37-0.341-3.341,0,1,0,90,true,stim,false,1,1056.5549996681511,3,1,1,17861,WMM1,898089,false,false,1126,image-keyboard-response,1
true,12,0,3,2,false,d,false,true,0.0-2.0-0.38-0.342-3.342,0,1,0,81,false,stim,true,0,1031.50499984622,3,0,0,17861,WMM1,900644,false,true,1129,image-keyboard-response,2
true,12,2,3,1,false,z,false,true,0.0-2.0-0.38-0.343-3.343,0,1,0,68,false,stim,true,2,840.8200000412762,3,0,2,17861,WMM1,903002,false,true,1132,image-keyboard-response,3
true,12,0,3,2,false,d,false,false,0.0-2.0-0.38-0.344-3.344,0,1,0,81,false,stim,true,0,1215.564999729395,3,0,0,17861,WMM1,905741,false,false,1135,image-keyboard-response,4
true,12,1,3,1,true,z,false,true,0.0-2.0-0.38-0.345-3.345,0,1,0,90,false,stim,false,1,924.8100002296269,3,1,1,17861,WMM1,908199,false,false,1138,image-keyboard-response,5
true,12,0,3,2,false,d,false,false,0.0-2.0-0.38-0.346-3.346,0,1,0,81,false,stim,true,0,1131.9099999964237,3,0,0,17861,WMM1,910852,false,false,1141,image-keyboard-response,6
true,12,2,3,1,false,z,false,true,0.0-2.0-0.38-0.347-3.347,0,1,0,68,false,stim,true,2,822.5449998863041,3,0,2,17861,WMM1,913210,false,true,1144,image-keyboard-response,7
true,12,1,3,1,true,z,false,true,0.0-2.0-0.38-0.348-3.348,0,1,0,90,false,stim,false,1,616.4049999788404,3,1,1,17861,WMM1,915350,false,false,1147,image-keyboard-response,8
true,12,1,3,1,true,z,false,false,0.0-2.0-0.38-0.349-3.349,0,1,0,90,false,stim,false,1,532.0999999530613,3,1,1,17861,WMM1,917413,false,true,1150,image-keyboard-response,9
true,12,2,3,1,false,z,false,false,0.0-2.0-0.38-0.350-3.350,0,1,0,68,false,stim,true,2,1808.5249997675419,3,0,2,17861,WMM1,920755,false,false,1153,image-keyboard-response,10
true,12,1,3,2,false,d,true,false,0.0-2.0-0.39-0.351-3.351,0,1,0,90,false,stim,false,0,2471.134999766946,3,0,0,17861,WMM1,924748,false,false,1156,image-keyboard-response,11
true,12,1,3,1,true,z,false,true,0.0-2.0-0.39-0.352-3.352,0,1,0,90,false,stim,false,2,1873.690000269562,3,0,2,17861,WMM1,928147,false,false,1159,image-keyboard-response,12
true,12,0,3,1,false,z,true,false,0.0-2.0-0.39-0.353-3.353,0,1,0,81,false,stim,false,1,710.6600003316998,3,1,1,17861,WMM1,930381,false,false,1162,image-keyboard-response,13
true,12,2,3,2,true,d,false,true,0.0-2.0-0.39-0.354-3.354,0,1,0,68,false,stim,false,0,1385.5599998496473,3,0,0,17861,WMM1,933287,false,false,1165,image-keyboard-response,14
true,12,1,3,1,true,z,false,true,0.0-2.0-0.39-0.355-3.355,0,1,0,90,false,stim,false,2,892.3300001770258,3,0,2,17861,WMM1,935708,false,false,1168,image-keyboard-response,15
true,12,2,3,1,false,z,true,true,0.0-2.0-0.39-0.356-3.356,0,1,0,68,false,stim,false,1,536.0650001093745,3,1,1,17861,WMM1,937766,false,true,1171,image-keyboard-response,16
true,12,2,3,2,true,d,false,true,0.0-2.0-0.39-0.357-3.357,0,1,0,68,false,stim,false,0,855.83999985829,3,0,0,17861,WMM1,940151,false,false,1174,image-keyboard-response,17
true,12,1,3,1,true,z,false,true,0.0-2.0-0.39-0.358-3.358,0,1,0,90,false,stim,false,2,1335.1600002497435,3,0,2,17861,WMM1,943011,false,false,1177,image-keyboard-response,18
true,12,2,3,1,false,z,true,false,0.0-2.0-0.39-0.359-3.359,0,1,0,68,false,stim,false,1,2005.0800000317395,3,1,1,17861,WMM1,946546,false,false,1180,image-keyboard-response,19
true,12,2,3,2,true,d,false,true,0.0-2.0-0.40-0.360-3.360,0,1,0,68,false,stim,false,0,921.1399997584522,3,0,0,17861,WMM1,948992,false,false,1183,image-keyboard-response,20
true,12,2,3,1,false,z,true,false,0.0-2.0-0.40-0.361-3.361,0,1,0,68,false,stim,false,1,542.5050002522767,3,1,1,17861,WMM1,951061,false,false,1186,image-keyboard-response,21
true,12,2,3,2,true,d,false,true,0.0-2.0-0.40-0.362-3.362,0,1,0,68,false,stim,false,0,878.2949997112155,3,0,0,17861,WMM1,953461,false,false,1189,image-keyboard-response,22
true,12,1,3,1,true,z,false,true,0.0-2.0-0.40-0.363-3.363,0,1,0,90,false,stim,false,1,417.02000005170703,3,1,1,17861,WMM1,955398,false,false,1192,image-keyboard-response,23
true,12,1,3,1,true,z,false,true,0.0-2.0-0.40-0.364-3.364,0,1,0,90,false,stim,false,2,391.2700000219047,3,0,2,17861,WMM1,957321,false,false,1195,image-keyboard-response,24
true,12,1,3,1,true,z,false,true,0.0-2.0-0.40-0.365-3.365,0,1,0,90,false,stim,false,2,1258.9900000020862,3,0,2,17861,WMM1,960103,false,false,1198,image-keyboard-response,25
true,12,1,3,1,true,z,false,true,0.0-2.0-0.40-0.366-3.366,0,1,0,90,false,stim,false,2,1481.9149998947978,3,0,2,17861,WMM1,963107,false,false,1201,image-keyboard-response,26
true,12,2,3,2,true,d,false,true,0.0-2.0-0.40-0.367-3.367,0,1,0,68,false,stim,false,0,1220.069999806583,3,0,0,17861,WMM1,965853,false,false,1204,image-keyboard-response,27
true,12,1,3,1,true,z,false,true,0.0-2.0-0.40-0.368-3.368,0,1,0,90,false,stim,false,1,987.7650002017617,3,1,1,17861,WMM1,968370,false,false,1207,image-keyboard-response,28
true,12,1,3,1,true,z,false,true,0.0-2.0-0.41-0.369-3.369,0,1,0,90,false,stim,false,1,1188.2100002840161,3,1,1,17861,WMM1,971083,false,false,1210,image-keyboard-response,29
true,12,1,3,2,false,d,true,false,0.0-2.0-0.41-0.370-3.370,0,1,0,90,false,stim,false,0,630.8200000785291,3,0,0,17861,WMM1,973241,false,false,1213,image-keyboard-response,30
true,12,1,3,1,true,z,false,true,0.0-2.0-0.41-0.371-3.371,0,1,0,90,false,stim,false,1,657.6849999837577,3,1,1,17861,WMM1,975416,false,false,1216,image-keyboard-response,31
true,12,1,3,1,true,z,false,true,0.0-2.0-0.41-0.372-3.372,0,1,0,90,false,stim,false,2,445.37000032141805,3,0,2,17861,WMM1,977385,false,false,1219,image-keyboard-response,32
true,12,2,3,2,true,d,false,true,0.0-2.0-0.41-0.373-3.373,0,1,0,68,false,stim,false,0,1033.4450001828372,3,0,0,17861,WMM1,979937,false,false,1222,image-keyboard-response,33
true,12,1,3,1,true,z,false,true,0.0-2.0-0.41-0.374-3.374,0,1,0,90,false,stim,false,2,928.2050002366304,3,0,2,17861,WMM1,982398,false,false,1225,image-keyboard-response,34
true,12,2,3,2,true,d,false,true,0.0-2.0-0.41-0.375-3.375,0,1,0,68,false,stim,false,0,1707.1099998429418,3,0,0,17861,WMM1,985623,false,false,1228,image-keyboard-response,35
true,12,1,3,1,true,z,false,true,0.0-2.0-0.41-0.376-3.376,0,1,0,90,false,stim,false,1,960.375000257045,3,1,1,17861,WMM1,988107,false,false,1231,image-keyboard-response,36
true,12,1,3,1,true,z,false,true,0.0-2.0-0.41-0.377-3.377,0,1,0,90,false,stim,false,2,810.4650001041591,3,0,2,17861,WMM1,990439,false,false,1234,image-keyboard-response,37
true,12,2,3,2,true,d,false,false,0.0-2.0-0.42-0.378-3.378,0,1,0,68,false,stim,false,0,1195.8699999377131,3,0,0,17861,WMM1,993156,false,true,1237,image-keyboard-response,38
true,13,1,3,1,true,z,false,true,0.0-2.0-0.42-0.379-3.379,0,1,0,90,true,stim,false,1,470.18499998375773,3,1,1,17861,WMM1,995145,false,false,1240,image-keyboard-response,1
true,13,1,3,2,false,d,false,true,0.0-2.0-0.42-0.380-3.380,0,1,0,90,false,stim,true,1,633.3000003360212,3,0,2,17861,WMM1,997290,false,true,1243,image-keyboard-response,2
true,13,1,3,1,true,z,false,true,0.0-2.0-0.42-0.381-3.381,0,1,0,90,false,stim,false,1,588.4450003504753,3,1,1,17861,WMM1,999409,false,false,1246,image-keyboard-response,3
true,13,1,3,1,true,z,false,true,0.0-2.0-0.42-0.382-3.382,0,1,0,90,false,stim,false,2,1593.554999679327,3,0,0,17861,WMM1,1002528,false,false,1249,image-keyboard-response,4
true,13,2,3,1,false,z,false,false,0.0-2.0-0.42-0.383-3.383,0,1,0,68,false,stim,true,2,959.1100001707673,3,0,0,17861,WMM1,1005009,false,false,1252,image-keyboard-response,5
true,13,1,3,2,false,d,false,false,0.0-2.0-0.42-0.384-3.384,0,1,0,90,false,stim,true,1,460.8700000680983,3,0,2,17861,WMM1,1006991,false,false,1255,image-keyboard-response,6
true,13,0,3,1,false,z,true,true,0.0-2.0-0.42-0.385-3.385,0,1,0,81,false,stim,false,1,1114.6799996495247,3,1,1,17861,WMM1,1009626,false,true,1258,image-keyboard-response,7
true,13,0,3,2,false,d,true,false,0.0-2.0-0.42-0.386-3.386,0,1,0,81,false,stim,false,1,1243.4849999845028,3,0,2,17861,WMM1,1012404,false,false,1261,image-keyboard-response,8
true,13,1,3,1,true,z,false,true,0.0-2.0-0.43-0.387-3.387,0,1,0,90,false,stim,false,2,856.4699999988079,3,0,0,17861,WMM1,1014781,false,false,1264,image-keyboard-response,9
true,13,1,3,1,true,z,false,true,0.0-2.0-0.43-0.388-3.388,0,1,0,90,false,stim,false,2,1149.7849998995662,3,0,0,17861,WMM1,1017455,false,false,1267,image-keyboard-response,10
true,13,0,3,1,false,z,true,true,0.0-2.0-0.43-0.389-3.389,0,1,0,81,false,stim,false,1,781.2850000336766,3,1,1,17861,WMM1,1019752,false,true,1270,image-keyboard-response,11
true,13,0,3,1,false,z,true,false,0.0-2.0-0.43-0.390-3.390,0,1,0,81,false,stim,false,1,1341.9199995696545,3,1,1,17861,WMM1,1022627,false,false,1273,image-keyboard-response,12
true,13,0,3,1,false,z,true,false,0.0-2.0-0.43-0.391-3.391,0,1,0,81,false,stim,false,1,1394.594999961555,3,1,1,17861,WMM1,1025549,false,false,1276,image-keyboard-response,13
true,13,0,3,2,false,d,true,false,0.0-2.0-0.43-0.392-3.392,0,1,0,81,false,stim,false,1,1811.9850000366569,3,0,2,17861,WMM1,1028881,false,false,1279,image-keyboard-response,14
true,13,1,3,1,true,z,false,true,0.0-2.0-0.43-0.393-3.393,0,1,0,90,false,stim,false,2,1264.3000003881752,3,0,0,17861,WMM1,1031663,false,false,1282,image-keyboard-response,15
true,13,2,3,2,true,d,false,true,0.0-2.0-0.43-0.394-3.394,0,1,0,68,false,stim,false,1,1023.9349999465048,3,0,2,17861,WMM1,1034220,false,false,1285,image-keyboard-response,16
true,13,2,3,2,true,d,false,true,0.0-2.0-0.43-0.395-3.395,0,1,0,68,false,stim,false,1,755.7250000536442,3,0,2,17861,WMM1,1036500,false,false,1288,image-keyboard-response,17
true,13,2,3,1,false,z,true,false,0.0-2.0-0.44-0.396-3.396,0,1,0,68,false,stim,false,1,326.1150000616908,3,1,1,17861,WMM1,1038352,false,false,1291,image-keyboard-response,18
true,13,1,3,1,true,z,false,true,0.0-2.0-0.44-0.397-3.397,0,1,0,90,false,stim,false,2,421.8800002709031,3,0,0,17861,WMM1,1040283,false,false,1294,image-keyboard-response,19
true,13,1,3,1,true,z,false,true,0.0-2.0-0.44-0.398-3.398,0,1,0,90,false,stim,false,1,328.63999996334314,3,1,1,17861,WMM1,1042134,false,false,1297,image-keyboard-response,20
true,13,2,3,2,true,d,false,true,0.0-2.0-0.44-0.399-3.399,0,1,0,68,false,stim,false,1,647.3699999041855,3,0,2,17861,WMM1,1044301,false,false,1300,image-keyboard-response,21
true,13,2,3,2,true,d,false,true,0.0-2.0-0.44-0.400-3.400,0,1,0,68,false,stim,false,1,562.4400000087917,3,0,2,17861,WMM1,1046397,false,false,1303,image-keyboard-response,22
true,13,1,3,1,true,z,false,true,0.0-2.0-0.44-0.401-3.401,0,1,0,90,false,stim,false,2,529.0899998508394,3,0,0,17861,WMM1,1048446,false,false,1306,image-keyboard-response,23
true,13,2,3,2,true,d,false,true,0.0-2.0-0.44-0.402-3.402,0,1,0,68,false,stim,false,1,804.6449995599687,3,0,2,17861,WMM1,1050770,false,false,1309,image-keyboard-response,24
true,13,1,3,1,true,z,false,true,0.0-2.0-0.44-0.403-3.403,0,1,0,90,false,stim,false,2,957.3450000025332,3,0,0,17861,WMM1,1053253,false,false,1312,image-keyboard-response,25
true,13,1,3,1,true,z,false,true,0.0-2.0-0.44-0.404-3.404,0,1,0,90,false,stim,false,1,1304.6800000593066,3,1,1,17861,WMM1,1056082,false,false,1315,image-keyboard-response,26
true,13,2,3,2,true,d,false,true,0.0-2.0-0.45-0.405-3.405,0,1,0,68,false,stim,false,1,602.5699996389449,3,1,2,17861,WMM1,1058211,false,false,1318,image-keyboard-response,27
true,13,1,3,1,true,z,false,true,0.0-2.0-0.45-0.406-3.406,0,1,0,90,false,stim,false,2,405.9450002387166,3,1,0,17861,WMM1,1060147,false,false,1321,image-keyboard-response,28
true,13,1,3,1,true,z,false,true,0.0-2.0-0.45-0.407-3.407,0,1,0,90,false,stim,false,1,580.8900003321469,3,1,1,17861,WMM1,1062253,false,false,1324,image-keyboard-response,29
true,13,1,3,1,true,z,false,true,0.0-2.0-0.45-0.408-3.408,0,1,0,90,false,stim,false,2,698.9700002595782,3,1,0,17861,WMM1,1064485,false,false,1327,image-keyboard-response,30
true,13,1,3,1,true,z,false,true,0.0-2.0-0.45-0.409-3.409,0,1,0,90,false,stim,false,1,511.05499966070056,3,1,1,17861,WMM1,1066528,false,false,1330,image-keyboard-response,31
true,13,1,3,1,true,z,false,true,0.0-2.0-0.45-0.410-3.410,0,1,0,90,false,stim,false,1,446.01499987766147,3,1,1,17861,WMM1,1068496,false,false,1333,image-keyboard-response,32
true,13,1,3,1,true,z,false,true,0.0-2.0-0.45-0.411-3.411,0,1,0,90,false,stim,false,2,681.8649997003376,3,1,0,17861,WMM1,1070696,false,false,1336,image-keyboard-response,33
true,13,2,3,2,true,d,false,true,0.0-2.0-0.45-0.412-3.412,0,1,0,68,false,stim,false,1,849.3649996817112,3,1,2,17861,WMM1,1073062,false,false,1339,image-keyboard-response,34
true,13,2,3,2,true,d,false,true,0.0-2.0-0.45-0.413-3.413,0,1,0,68,false,stim,false,1,530.6500000879169,3,1,2,17861,WMM1,1075124,false,false,1342,image-keyboard-response,35
true,13,2,3,2,true,d,false,true,0.0-2.0-0.46-0.414-3.414,0,1,0,68,false,stim,false,1,546.7250002548099,3,1,2,17861,WMM1,1077188,false,false,1345,image-keyboard-response,36
true,14,0,0,1,false,z,true,false,0.0-2.0-0.46-0.415-3.415,1,1,1,81,true,stim,false,1,2273.4600002877414,3,1,0,17861,WMM1,1202589,false,false,1468,image-keyboard-response,1
true,14,0,0,2,false,d,true,false,0.0-2.0-0.46-0.416-3.416,1,1,1,81,false,stim,false,2,945.2899997122586,3,1,2,17861,WMM1,1205060,false,false,1471,image-keyboard-response,2
true,14,2,0,1,false,z,true,false,0.0-2.0-0.46-0.417-3.417,1,1,1,68,false,stim,false,1,844.0749999135733,3,1,1,17861,WMM1,1207423,false,false,1474,image-keyboard-response,3
true,14,1,0,1,true,z,false,true,0.0-2.0-0.46-0.418-3.418,1,1,1,90,false,stim,false,1,373.1050002388656,3,1,1,17861,WMM1,1209317,false,false,1477,image-keyboard-response,4
true,14,1,0,2,false,d,true,true,0.0-2.0-0.46-0.419-3.419,1,1,1,90,false,stim,false,2,498.22499975562096,3,1,2,17861,WMM1,1211339,false,true,1480,image-keyboard-response,5
true,14,2,0,1,false,z,true,false,0.0-2.0-0.46-0.420-3.420,1,1,1,68,false,stim,false,1,472.78499975800514,3,1,0,17861,WMM1,1213329,false,false,1483,image-keyboard-response,6
true,14,1,0,1,true,z,false,true,0.0-2.0-0.46-0.421-3.421,1,1,1,90,false,stim,false,1,661.290000192821,3,1,0,17861,WMM1,1215516,false,false,1486,image-keyboard-response,7
true,14,1,0,1,true,z,false,true,0.0-2.0-0.46-0.422-3.422,1,1,1,90,false,stim,false,1,413.56500005349517,3,1,1,17861,WMM1,1217450,false,false,1489,image-keyboard-response,8
true,14,1,0,1,true,z,false,true,0.0-2.0-0.47-0.423-3.423,1,1,1,90,false,stim,false,1,687.2800001874566,3,1,0,17861,WMM1,1219655,false,false,1492,image-keyboard-response,9
true,14,1,0,2,false,d,true,false,0.0-2.0-0.47-0.424-3.424,1,1,1,90,false,stim,false,2,324.52499959617853,3,1,2,17861,WMM1,1221507,false,false,1495,image-keyboard-response,10
true,14,1,0,1,true,z,false,true,0.0-2.0-0.47-0.425-3.425,1,1,1,90,false,stim,false,1,1008.5949995554984,3,1,0,17861,WMM1,1224040,false,false,1498,image-keyboard-response,11
true,14,1,0,1,true,z,false,true,0.0-2.0-0.47-0.426-3.426,1,1,1,90,false,stim,false,1,510.8150001615286,3,1,0,17861,WMM1,1226079,false,false,1501,image-keyboard-response,12
true,14,0,0,2,false,d,true,false,0.0-2.0-0.47-0.427-3.427,1,1,1,81,false,stim,false,2,1211.8950001895428,3,1,2,17861,WMM1,1228821,false,false,1504,image-keyboard-response,13
true,14,1,0,1,true,z,false,true,0.0-2.0-0.47-0.428-3.428,1,1,1,90,false,stim,false,1,650.3600003197789,3,1,1,17861,WMM1,1230992,false,false,1507,image-keyboard-response,14
true,14,1,0,1,true,z,false,true,0.0-2.0-0.47-0.429-3.429,1,1,1,90,false,stim,false,1,524.985000025481,3,1,1,17861,WMM1,1233048,false,false,1510,image-keyboard-response,15
true,14,2,0,2,true,d,false,true,0.0-2.0-0.47-0.430-3.430,1,1,1,68,false,stim,false,2,738.4200002998114,3,1,2,17861,WMM1,1235309,false,false,1513,image-keyboard-response,16
true,14,1,0,1,true,z,false,true,0.0-2.0-0.47-0.431-3.431,1,1,1,90,false,stim,false,1,1038.5099998675287,3,1,1,17861,WMM1,1237874,false,false,1516,image-keyboard-response,17
true,14,1,0,1,true,z,false,true,0.0-2.0-0.48-0.432-3.432,1,1,1,90,false,stim,false,1,1373.6999998800457,3,1,0,17861,WMM1,1240774,false,false,1519,image-keyboard-response,18
true,14,1,0,1,true,z,false,true,0.0-2.0-0.48-0.433-3.433,1,1,1,90,false,stim,false,1,667.0750002376735,3,1,1,17861,WMM1,1242965,false,false,1522,image-keyboard-response,19
true,14,1,0,1,true,z,false,true,0.0-2.0-0.48-0.434-3.434,1,1,1,90,false,stim,false,1,551.4149996452034,3,1,1,17861,WMM1,1245048,false,false,1525,image-keyboard-response,20
true,14,2,0,2,true,d,false,true,0.0-2.0-0.48-0.435-3.435,1,1,1,68,false,stim,false,2,1315.0849998928607,3,1,2,17861,WMM1,1247892,false,false,1528,image-keyboard-response,21
true,14,1,0,1,true,z,false,false,0.0-2.0-0.48-0.436-3.436,1,1,1,90,false,stim,false,1,803.8350003771484,3,0,1,17861,WMM1,1250229,false,true,1531,image-keyboard-response,22
true,14,2,0,2,true,d,false,true,0.0-2.0-0.48-0.437-3.437,1,1,1,68,false,stim,false,2,732.9699997790158,3,0,2,17861,WMM1,1252489,false,false,1534,image-keyboard-response,23
true,14,1,0,1,true,z,false,true,0.0-2.0-0.48-0.438-3.438,1,1,1,90,false,stim,false,1,533.0400001257658,3,1,0,17861,WMM1,1254554,false,false,1537,image-keyboard-response,24
true,14,1,0,1,true,z,false,true,0.0-2.0-0.48-0.439-3.439,1,1,1,90,false,stim,false,1,593.4049999341369,3,1,0,17861,WMM1,1256678,false,false,1540,image-keyboard-response,25
true,14,2,0,2,true,d,false,true,0.0-2.0-0.48-0.440-3.440,1,1,1,68,false,stim,false,2,977.4950002320111,3,0,2,17861,WMM1,1259177,false,false,1543,image-keyboard-response,26
true,14,1,0,1,true,z,false,true,0.0-2.0-0.49-0.441-3.441,1,1,1,90,false,stim,false,1,672.7700000628829,3,0,1,17861,WMM1,1261370,false,false,1546,image-keyboard-response,27
true,14,1,0,1,true,z,false,true,0.0-2.0-0.49-0.442-3.442,1,1,1,90,false,stim,false,1,494.39500039443374,3,0,1,17861,WMM1,1263391,false,false,1549,image-keyboard-response,28
true,14,1,0,1,true,z,false,true,0.0-2.0-0.49-0.443-3.443,1,1,1,90,false,stim,false,1,642.0200001448393,3,1,0,17861,WMM1,1265553,false,false,1552,image-keyboard-response,29
true,14,2,0,2,true,d,false,true,0.0-2.0-0.49-0.444-3.444,1,1,1,68,false,stim,false,2,972.8700001724064,3,0,2,17861,WMM1,1268048,false,false,1555,image-keyboard-response,30
true,14,1,0,1,true,z,false,true,0.0-2.0-0.49-0.445-3.445,1,1,1,90,false,stim,false,1,899.6299998834729,3,1,0,17861,WMM1,1270474,false,false,1558,image-keyboard-response,31
true,15,2,3,0,false,q,false,false,0.0-2.0-0.49-0.446-3.446,1,0,0,68,true,stim,true,2,1101.9799998030066,3,0,2,17861,WMM1,1273106,false,false,1561,image-keyboard-response,1
true,15,1,3,1,true,z,false,true,0.0-2.0-0.49-0.447-3.447,1,0,0,90,false,stim,false,1,1205.6899997405708,3,1,0,17861,WMM1,1275841,false,false,1564,image-keyboard-response,2
true,15,2,3,0,false,q,false,false,0.0-2.0-0.49-0.448-3.448,1,0,0,68,false,stim,true,2,777.7749998494983,3,0,2,17861,WMM1,1278145,false,false,1567,image-keyboard-response,3
true,15,1,3,2,false,d,false,false,0.0-2.0-0.49-0.449-3.449,1,0,0,90,false,stim,true,1,1144.9350002221763,3,0,1,17861,WMM1,1280816,false,false,1570,image-keyboard-response,4
true,15,2,3,0,false,q,false,false,0.0-2.0-0.50-0.450-3.450,1,0,0,68,false,stim,true,2,795.8750003017485,3,0,2,17861,WMM1,1283143,false,false,1573,image-keyboard-response,5
true,15,0,3,1,false,z,true,false,0.0-2.0-0.50-0.451-3.451,1,0,0,81,false,stim,false,1,973.424999974668,3,1,0,17861,WMM1,1285634,false,false,1576,image-keyboard-response,6
true,15,0,3,2,false,d,true,false,0.0-2.0-0.50-0.452-3.452,1,0,0,81,false,stim,false,1,737.0299999602139,3,0,1,17861,WMM1,1287896,false,false,1579,image-keyboard-response,7
true,15,0,3,0,true,q,false,true,0.0-2.0-0.50-0.453-3.453,1,0,0,81,false,stim,false,2,525.6599998101592,3,0,2,17861,WMM1,1289948,false,false,1582,image-keyboard-response,8
true,15,2,3,2,true,d,false,true,0.0-2.0-0.50-0.454-3.454,1,0,0,68,false,stim,false,1,725.4449999891222,3,0,1,17861,WMM1,1292196,false,false,1585,image-keyboard-response,9
true,15,2,3,2,true,d,false,true,0.0-2.0-0.50-0.455-3.455,1,0,0,68,false,stim,false,1,599.0849998779595,3,0,1,17861,WMM1,1294319,false,false,1588,image-keyboard-response,10
true,15,0,3,0,true,q,false,true,0.0-2.0-0.50-0.456-3.456,1,0,0,81,false,stim,false,2,1154.5100002549589,3,0,2,17861,WMM1,1297005,false,false,1591,image-keyboard-response,11
true,15,2,3,1,false,z,true,false,0.0-2.0-0.50-0.457-3.457,1,0,0,68,false,stim,false,1,799.0600001066923,3,1,0,17861,WMM1,1299330,false,false,1594,image-keyboard-response,12
true,15,1,3,1,true,z,false,true,0.0-2.0-0.50-0.458-3.458,1,0,0,90,false,stim,false,1,532.7150002121925,3,1,0,17861,WMM1,1301379,false,false,1597,image-keyboard-response,13
true,15,0,3,0,true,q,false,true,0.0-2.0-0.51-0.459-3.459,1,0,0,81,false,stim,false,2,738.5499998927116,3,0,2,17861,WMM1,1303650,false,false,1600,image-keyboard-response,14
true,15,1,3,1,true,z,false,true,0.0-2.0-0.51-0.460-3.460,1,0,0,90,false,stim,false,1,1065.405000001192,3,1,0,17861,WMM1,1306241,false,false,1603,image-keyboard-response,15
true,15,0,3,0,true,q,false,true,0.0-2.0-0.51-0.461-3.461,1,0,0,81,false,stim,false,2,763.1199997849762,3,0,2,17861,WMM1,1308536,false,false,1606,image-keyboard-response,16
true,15,1,3,1,true,z,false,true,0.0-2.0-0.51-0.462-3.462,1,0,0,90,false,stim,false,1,1155.3099998272955,3,1,0,17861,WMM1,1311211,false,false,1609,image-keyboard-response,17
true,15,2,3,2,true,d,false,true,0.0-2.0-0.51-0.463-3.463,1,0,0,68,false,stim,false,1,1410.3550002910197,3,0,1,17861,WMM1,1314147,false,false,1612,image-keyboard-response,18
true,15,2,3,2,true,d,false,true,0.0-2.0-0.51-0.464-3.464,1,0,0,68,false,stim,false,1,1147.7250000461936,3,0,1,17861,WMM1,1316815,false,false,1615,image-keyboard-response,19
true,15,1,3,1,true,z,false,true,0.0-2.0-0.51-0.465-3.465,1,0,0,90,false,stim,false,1,725.2250001765788,3,1,0,17861,WMM1,1319072,false,false,1618,image-keyboard-response,20
true,15,2,3,2,true,d,false,true,0.0-2.0-0.51-0.466-3.466,1,0,0,68,false,stim,false,1,1212.8449999727309,3,0,1,17861,WMM1,1321793,false,false,1621,image-keyboard-response,21
true,15,0,3,0,true,q,false,true,0.0-2.0-0.51-0.467-3.467,1,0,0,81,false,stim,false,2,1120.9399998188019,3,0,2,17861,WMM1,1324448,false,false,1624,image-keyboard-response,22
true,15,2,3,2,true,d,false,true,0.0-2.0-0.52-0.468-3.468,1,0,0,68,false,stim,false,1,921.2050000205636,3,0,1,17861,WMM1,1326894,false,false,1627,image-keyboard-response,23
true,15,2,3,2,true,d,false,true,0.0-2.0-0.52-0.469-3.469,1,0,0,68,false,stim,false,1,1363.9249997213483,3,0,1,17861,WMM1,1329784,false,false,1630,image-keyboard-response,24
true,15,1,3,1,true,z,false,true,0.0-2.0-0.52-0.470-3.470,1,0,0,90,false,stim,false,1,798.6949998885393,3,0,0,17861,WMM1,1332117,false,false,1633,image-keyboard-response,25
true,15,1,3,1,true,z,false,true,0.0-2.0-0.52-0.471-3.471,1,0,0,90,false,stim,false,1,505.66000025719404,3,0,0,17861,WMM1,1334155,false,false,1636,image-keyboard-response,26
true,15,0,3,0,true,q,false,true,0.0-2.0-0.52-0.472-3.472,1,0,0,81,false,stim,false,2,974.3550000712276,3,0,2,17861,WMM1,1336654,false,false,1639,image-keyboard-response,27
true,15,2,3,2,true,d,false,false,0.0-2.0-0.52-0.473-3.473,1,0,0,68,false,stim,false,1,926.8849999643862,3,0,1,17861,WMM1,1339105,false,true,1642,image-keyboard-response,28
true,15,0,3,0,true,q,false,true,0.0-2.0-0.52-0.474-3.474,1,0,0,81,false,stim,false,2,1371.3299999944866,3,0,2,17861,WMM1,1341982,false,false,1645,image-keyboard-response,29
true,15,1,3,1,true,z,false,true,0.0-2.0-0.52-0.475-3.475,1,0,0,90,false,stim,false,1,576.8300001509488,3,0,0,17861,WMM1,1344084,false,false,1648,image-keyboard-response,30
true,16,0,2,2,false,d,false,false,0.0-2.0-0.52-0.476-3.476,0,0,0,81,true,stim,true,0,900.1150000840425,3,0,2,17861,WMM1,1346505,false,false,1651,image-keyboard-response,1
true,16,1,2,0,false,q,false,false,0.0-2.0-0.53-0.477-3.477,0,0,0,90,false,stim,true,1,493.25500009581447,3,0,0,17861,WMM1,1348529,false,false,1654,image-keyboard-response,2
true,16,2,2,2,true,d,false,true,0.0-2.0-0.53-0.478-3.478,0,0,0,68,false,stim,false,0,1590.760000050068,3,0,2,17861,WMM1,1351642,false,false,1657,image-keyboard-response,3
true,16,2,2,0,false,q,true,false,0.0-2.0-0.53-0.479-3.479,0,0,0,68,false,stim,false,1,1283.9300003834069,3,0,0,17861,WMM1,1354449,false,false,1660,image-keyboard-response,4
true,16,2,2,2,true,d,false,true,0.0-2.0-0.53-0.480-3.480,0,0,0,68,false,stim,false,0,1282.4049997143447,3,0,2,17861,WMM1,1357262,false,false,1663,image-keyboard-response,5
true,16,1,2,1,true,z,false,false,0.0-2.0-0.53-0.481-3.481,0,0,0,90,false,stim,false,2,1778.5600000061095,3,0,1,17861,WMM1,1360572,false,true,1666,image-keyboard-response,6
true,16,0,2,0,true,q,false,true,0.0-2.0-0.53-0.482-3.482,0,0,0,81,false,stim,false,1,700.8500001393259,3,0,0,17861,WMM1,1362791,false,false,1669,image-keyboard-response,7
true,16,2,2,2,true,d,false,true,0.0-2.0-0.53-0.483-3.483,0,0,0,68,false,stim,false,0,1265.5549999326468,3,0,2,17861,WMM1,1365588,false,false,1672,image-keyboard-response,8
true,16,0,2,1,false,z,true,false,0.0-2.0-0.53-0.484-3.484,0,0,0,81,false,stim,false,2,1125.2200002782047,3,0,1,17861,WMM1,1368245,false,false,1675,image-keyboard-response,9
true,16,2,2,1,false,z,false,false,0.0-2.0-0.53-0.485-3.485,0,0,0,68,false,stim,true,2,708.0550002865493,3,0,1,17861,WMM1,1370475,false,false,1678,image-keyboard-response,10
true,16,0,2,0,true,q,false,true,0.0-2.0-0.54-0.486-3.486,0,0,0,81,false,stim,false,1,1462.5649997033179,3,0,0,17861,WMM1,1373461,false,false,1681,image-keyboard-response,11
true,16,2,2,2,true,d,false,true,0.0-2.0-0.54-0.487-3.487,0,0,0,68,false,stim,false,0,1571.589999832213,3,0,2,17861,WMM1,1376551,false,false,1684,image-keyboard-response,12
true,16,1,2,1,true,z,false,true,0.0-2.0-0.54-0.488-3.488,0,0,0,90,false,stim,false,2,640.9950000233948,3,0,1,17861,WMM1,1378718,false,false,1687,image-keyboard-response,13
true,16,0,2,0,true,q,false,false,0.0-2.0-0.54-0.489-3.489,0,0,0,81,false,stim,false,1,1122.509999666363,3,0,0,17861,WMM1,1381348,false,true,1690,image-keyboard-response,14
true,16,2,2,2,true,d,false,true,0.0-2.0-0.54-0.490-3.490,0,0,0,68,false,stim,false,0,931.9150000810623,3,0,2,17861,WMM1,1383804,false,false,1693,image-keyboard-response,15
true,16,1,2,1,true,z,false,true,0.0-2.0-0.54-0.491-3.491,0,0,0,90,false,stim,false,2,1164.9400000460446,3,0,1,17861,WMM1,1386503,false,false,1696,image-keyboard-response,16
true,16,0,2,0,true,q,false,true,0.0-2.0-0.54-0.492-3.492,0,0,0,81,false,stim,false,1,558.1749998964369,3,0,0,17861,WMM1,1388595,false,false,1699,image-keyboard-response,17
true,16,2,2,2,true,d,false,true,0.0-2.0-0.54-0.493-3.493,0,0,0,68,false,stim,false,0,754.4449996203184,3,0,2,17861,WMM1,1390874,false,false,1702,image-keyboard-response,18
true,16,1,2,1,true,z,false,true,0.0-2.0-0.54-0.494-3.494,0,0,0,90,false,stim,false,2,720.9499999880791,3,0,1,17861,WMM1,1393120,false,false,1705,image-keyboard-response,19
true,16,0,2,0,true,q,false,true,0.0-2.0-0.55-0.495-3.495,0,0,0,81,false,stim,false,1,568.6499997973442,3,0,0,17861,WMM1,1395216,false,false,1708,image-keyboard-response,20
true,16,0,2,0,true,q,false,true,0.0-2.0-0.55-0.496-3.496,0,0,0,81,false,stim,false,1,597.9299996979535,3,0,0,17861,WMM1,1397344,false,false,1711,image-keyboard-response,21
true,16,1,2,1,true,z,false,true,0.0-2.0-0.55-0.497-3.497,0,0,0,90,false,stim,false,2,827.2000001743436,3,0,1,17861,WMM1,1399705,false,false,1714,image-keyboard-response,22
true,16,1,2,1,true,z,false,true,0.0-2.0-0.55-0.498-3.498,0,0,0,90,false,stim,false,2,604.3800003826618,3,0,1,17861,WMM1,1401829,false,false,1717,image-keyboard-response,23
true,16,2,2,2,true,d,false,true,0.0-2.0-0.55-0.499-3.499,0,0,0,68,false,stim,false,0,720.3100002370775,3,0,2,17861,WMM1,1404076,false,false,1720,image-keyboard-response,24
true,16,2,2,2,true,d,false,true,0.0-2.0-0.55-0.500-3.500,0,0,0,68,false,stim,false,0,693.6499997973442,3,0,2,17861,WMM1,1406283,false,false,1723,image-keyboard-response,25
true,16,1,2,1,true,z,false,true,0.0-2.0-0.55-0.501-3.501,0,0,0,90,false,stim,false,2,1064.0500001609325,3,0,1,17861,WMM1,1408867,false,false,1726,image-keyboard-response,26
true,16,2,2,2,true,d,false,true,0.0-2.0-0.55-0.502-3.502,0,0,0,68,false,stim,false,0,1235.7499999925494,3,0,2,17861,WMM1,1411620,false,false,1729,image-keyboard-response,27
true,16,0,2,0,true,q,false,true,0.0-2.0-0.55-0.503-3.503,0,0,0,81,false,stim,false,1,699.9349999241531,3,0,0,17861,WMM1,1413849,false,false,1732,image-keyboard-response,28
true,16,2,2,2,true,d,false,true,0.0-2.0-0.56-0.504-3.504,0,0,0,68,false,stim,false,0,842.6149999722838,3,0,2,17861,WMM1,1416222,false,false,1735,image-keyboard-response,29
true,16,0,2,0,true,q,false,true,0.0-2.0-0.56-0.505-3.505,0,0,0,81,false,stim,false,1,1111.0899997875094,3,0,0,17861,WMM1,1418855,false,false,1738,image-keyboard-response,30
true,17,1,4,0,false,q,false,false,0.0-2.0-0.56-0.506-3.506,0,0,0,90,true,stim,true,1,1291.7050002142787,3,0,1,17861,WMM1,1421666,false,false,1741,image-keyboard-response,1
true,17,1,4,0,false,q,false,false,0.0-2.0-0.56-0.507-3.507,0,0,0,90,false,stim,true,1,853.560000192374,3,0,1,17861,WMM1,1424043,false,false,1744,image-keyboard-response,2
true,17,2,4,2,true,d,false,true,0.0-2.0-0.56-0.508-3.508,0,0,0,68,false,stim,false,0,1484.8750000819564,3,0,0,17861,WMM1,1427055,false,false,1747,image-keyboard-response,3
true,17,0,4,0,true,q,false,true,0.0-2.0-0.56-0.509-3.509,0,0,0,81,false,stim,false,1,1775.0450000166893,3,0,1,17861,WMM1,1430359,false,false,1750,image-keyboard-response,4
true,17,2,4,2,true,d,false,true,0.0-2.0-0.56-0.510-3.510,0,0,0,68,false,stim,false,0,700.4750003106892,3,0,0,17861,WMM1,1432583,false,false,1753,image-keyboard-response,5
true,17,1,4,1,true,z,false,true,0.0-2.0-0.56-0.511-3.511,0,0,0,90,false,stim,false,2,496.21500028297305,3,0,2,17861,WMM1,1434610,false,false,1756,image-keyboard-response,6
true,17,1,4,1,true,z,false,true,0.0-2.0-0.56-0.512-3.512,0,0,0,90,false,stim,false,2,792.5599999725819,3,0,2,17861,WMM1,1436921,false,false,1759,image-keyboard-response,7
true,17,1,4,1,true,z,false,true,0.0-2.0-0.57-0.513-3.513,0,0,0,90,false,stim,false,2,877.0049996674061,3,0,2,17861,WMM1,1439320,false,false,1762,image-keyboard-response,8
true,17,1,4,1,true,z,false,true,0.0-2.0-0.57-0.514-3.514,0,0,0,90,false,stim,false,2,552.7449999935925,3,0,2,17861,WMM1,1441395,false,false,1765,image-keyboard-response,9
true,17,2,4,2,true,d,false,true,0.0-2.0-0.57-0.515-3.515,0,0,0,68,false,stim,false,0,1101.43500007689,3,0,0,17861,WMM1,1444023,false,false,1768,image-keyboard-response,10
true,17,0,4,0,true,q,false,true,0.0-2.0-0.57-0.516-3.516,0,0,0,81,false,stim,false,1,1053.055000025779,3,0,1,17861,WMM1,1446606,false,false,1771,image-keyboard-response,11
true,17,2,4,2,true,d,false,true,0.0-2.0-0.57-0.517-3.517,0,0,0,68,false,stim,false,0,840.2750003151596,3,0,0,17861,WMM1,1448975,false,false,1774,image-keyboard-response,12
true,17,0,4,0,true,q,false,true,0.0-2.0-0.57-0.518-3.518,0,0,0,81,false,stim,false,1,726.3799998909235,3,0,1,17861,WMM1,1451225,false,false,1777,image-keyboard-response,13
true,17,2,4,2,true,d,false,true,0.0-2.0-0.57-0.519-3.519,0,0,0,68,false,stim,false,0,806.9050000049174,3,0,0,17861,WMM1,1453554,false,false,1780,image-keyboard-response,14
true,17,0,4,0,true,q,false,true,0.0-2.0-0.57-0.520-3.520,0,0,0,81,false,stim,false,1,624.4699996896088,3,0,1,17861,WMM1,1455687,false,false,1783,image-keyboard-response,15
true,17,1,4,1,true,z,false,true,0.0-2.0-0.57-0.521-3.521,0,0,0,90,false,stim,false,2,552.3649998940527,3,0,2,17861,WMM1,1457762,false,false,1786,image-keyboard-response,16
true,17,0,4,0,true,q,false,true,0.0-2.0-0.58-0.522-3.522,0,0,0,81,false,stim,false,1,1106.900000013411,3,0,1,17861,WMM1,1460399,false,false,1789,image-keyboard-response,17
true,17,1,4,1,true,z,false,false,0.0-2.0-0.58-0.523-3.523,0,0,0,90,false,stim,false,2,792.4700002186,3,0,2,17861,WMM1,1462715,false,true,1792,image-keyboard-response,18
true,17,2,4,2,true,d,false,true,0.0-2.0-0.58-0.524-3.524,0,0,0,68,false,stim,false,0,667.0549996197224,3,0,0,17861,WMM1,1464904,false,false,1795,image-keyboard-response,19
true,17,0,4,0,true,q,false,true,0.0-2.0-0.58-0.525-3.525,0,0,0,81,false,stim,false,1,502.19999998807907,3,0,1,17861,WMM1,1466937,false,false,1798,image-keyboard-response,20
true,17,2,4,2,true,d,false,true,0.0-2.0-0.58-0.526-3.526,0,0,0,68,false,stim,false,0,811.6500000469387,3,0,0,17861,WMM1,1469285,false,false,1801,image-keyboard-response,21
true,17,0,4,0,true,q,false,true,0.0-2.0-0.58-0.527-3.527,0,0,0,81,false,stim,false,1,715.1549998670816,3,0,1,17861,WMM1,1471531,false,false,1804,image-keyboard-response,22
true,17,2,4,2,true,d,false,false,0.0-2.0-0.58-0.528-3.528,0,0,0,68,false,stim,false,0,800.844999961555,3,0,0,17861,WMM1,1473863,false,true,1807,image-keyboard-response,23
true,17,1,4,1,true,z,false,true,0.0-2.0-0.58-0.529-3.529,0,0,0,90,false,stim,false,2,1680.3749999962747,3,0,2,17861,WMM1,1477075,false,false,1810,image-keyboard-response,24
true,17,1,4,1,true,z,false,true,0.0-2.0-0.58-0.530-3.530,0,0,0,90,false,stim,false,2,541.0949997603893,3,0,2,17861,WMM1,1479149,false,false,1813,image-keyboard-response,25
true,17,0,4,0,true,q,false,true,0.0-2.0-0.59-0.531-3.531,0,0,0,81,false,stim,false,1,662.4599997885525,3,0,1,17861,WMM1,1481335,false,false,1816,image-keyboard-response,26
true,17,2,4,2,true,d,false,true,0.0-2.0-0.59-0.532-3.532,0,0,0,68,false,stim,false,0,778.8549996912479,3,0,0,17861,WMM1,1483633,false,false,1819,image-keyboard-response,27
true,17,0,4,0,true,q,false,true,0.0-2.0-0.59-0.533-3.533,0,0,0,81,false,stim,false,1,507.0199999026954,3,0,1,17861,WMM1,1485659,false,false,1822,image-keyboard-response,28
true,17,1,4,1,true,z,false,true,0.0-2.0-0.59-0.534-3.534,0,0,0,90,false,stim,false,2,1089.170000050217,3,0,2,17861,WMM1,1488273,false,false,1825,image-keyboard-response,29
true,17,1,4,1,true,z,false,false,0.0-2.0-0.59-0.535-3.535,0,0,0,90,false,stim,false,2,510.5099999345839,3,0,2,17861,WMM1,1490309,false,true,1828,image-keyboard-response,30
true,18,0,2,1,false,z,false,false,0.0-2.0-0.59-0.536-3.536,0,0,0,81,true,stim,true,0,695.2250003814697,3,0,1,17861,WMM1,1492525,false,false,1831,image-keyboard-response,1
true,18,1,2,0,false,q,true,true,0.0-2.0-0.59-0.537-3.537,0,0,0,90,false,stim,false,2,1490.5749997124076,3,0,0,17861,WMM1,1495535,false,true,1834,image-keyboard-response,2
true,18,2,2,2,true,d,false,false,0.0-2.0-0.59-0.538-3.538,0,0,0,68,false,stim,false,1,982.0249998010695,3,0,2,17861,WMM1,1498041,false,true,1837,image-keyboard-response,3
true,18,1,2,0,false,q,true,false,0.0-2.0-0.59-0.539-3.539,0,0,0,90,false,stim,false,2,1309.7500000149012,3,0,0,17861,WMM1,1500882,false,false,1840,image-keyboard-response,4
true,18,0,2,1,false,z,false,true,0.0-2.0-0.60-0.540-3.540,0,0,0,81,false,stim,true,0,2004.2699999175966,3,0,1,17861,WMM1,1504408,false,true,1843,image-keyboard-response,5
true,18,0,2,1,false,z,false,false,0.0-2.0-0.60-0.541-3.541,0,0,0,81,false,stim,true,0,606.8400000222027,3,0,1,17861,WMM1,1506541,false,false,1846,image-keyboard-response,6
true,18,1,2,2,false,d,false,false,0.0-2.0-0.60-0.542-3.542,0,0,0,90,false,stim,true,1,703.2750002108514,3,0,2,17861,WMM1,1508769,false,false,1849,image-keyboard-response,7
true,18,0,2,0,true,q,false,true,0.0-2.0-0.60-0.543-3.543,0,0,0,81,false,stim,false,2,1121.9500000588596,3,0,0,17861,WMM1,1511419,false,false,1852,image-keyboard-response,8
true,18,0,2,0,true,q,false,false,0.0-2.0-0.60-0.544-3.544,0,0,0,81,false,stim,false,2,553.515000268817,3,0,0,17861,WMM1,1513498,false,true,1855,image-keyboard-response,9
true,18,2,2,2,true,d,false,true,0.0-2.0-0.60-0.545-3.545,0,0,0,68,false,stim,false,1,2400.2100001089275,3,0,2,17861,WMM1,1517427,false,false,1858,image-keyboard-response,10
true,18,0,2,0,true,q,false,true,0.0-2.0-0.60-0.546-3.546,0,0,0,81,false,stim,false,2,684.320000000298,3,0,0,17861,WMM1,1519641,false,false,1861,image-keyboard-response,11
true,18,2,2,2,true,d,false,true,0.0-2.0-0.60-0.547-3.547,0,0,0,68,false,stim,false,1,717.584999743849,3,0,2,17861,WMM1,1521889,false,false,1864,image-keyboard-response,12
true,18,1,2,1,true,z,false,true,0.0-2.0-0.60-0.548-3.548,0,0,0,90,false,stim,false,0,571.2049999274313,3,0,1,17861,WMM1,1523990,false,false,1867,image-keyboard-response,13
true,18,0,2,0,true,q,false,true,0.0-2.0-0.61-0.549-3.549,0,0,0,81,false,stim,false,2,424.6100001037121,3,0,0,17861,WMM1,1525942,false,false,1870,image-keyboard-response,14
true,18,0,2,0,true,q,false,true,0.0-2.0-0.61-0.550-3.550,0,0,0,81,false,stim,false,2,799.2300000041723,3,0,0,17861,WMM1,1528265,false,false,1873,image-keyboard-response,15
true,18,2,2,2,true,d,false,true,0.0-2.0-0.61-0.551-3.551,0,0,0,68,false,stim,false,1,634.0999999083579,3,0,2,17861,WMM1,1530431,false,false,1876,image-keyboard-response,16
true,18,2,2,2,true,d,false,true,0.0-2.0-0.61-0.552-3.552,0,0,0,68,false,stim,false,1,988.5350000113249,3,0,2,17861,WMM1,1532950,false,false,1879,image-keyboard-response,17
true,18,2,2,2,true,d,false,true,0.0-2.0-0.61-0.553-3.553,0,0,0,68,false,stim,false,1,821.690000128001,3,0,2,17861,WMM1,1535297,false,false,1882,image-keyboard-response,18
true,18,1,2,1,true,z,false,true,0.0-2.0-0.61-0.554-3.554,0,0,0,90,false,stim,false,0,1015.1500003412366,3,0,1,17861,WMM1,1537839,false,false,1885,image-keyboard-response,19
true,18,0,2,0,true,q,false,true,0.0-2.0-0.61-0.555-3.555,0,0,0,81,false,stim,false,2,692.4600000493228,3,0,0,17861,WMM1,1540048,false,false,1888,image-keyboard-response,20
true,18,1,2,1,true,z,false,true,0.0-2.0-0.61-0.556-3.556,0,0,0,90,false,stim,false,0,635.0849997252226,3,0,1,17861,WMM1,1542205,false,false,1891,image-keyboard-response,21
true,18,1,2,1,true,z,false,true,0.0-2.0-0.61-0.557-3.557,0,0,0,90,false,stim,false,0,687.7399999648333,3,0,1,17861,WMM1,1544423,false,false,1894,image-keyboard-response,22
true,18,1,2,1,true,z,false,true,0.0-2.0-0.62-0.558-3.558,0,0,0,90,false,stim,false,0,558.8500001467764,3,0,1,17861,WMM1,1546508,false,false,1897,image-keyboard-response,23
true,18,0,2,0,true,q,false,true,0.0-2.0-0.62-0.559-3.559,0,0,0,81,false,stim,false,2,875.0549997203052,3,0,0,17861,WMM1,1548906,false,false,1900,image-keyboard-response,24
true,18,0,2,0,true,q,false,true,0.0-2.0-0.62-0.560-3.560,0,0,0,81,false,stim,false,2,557.6949999667704,3,0,0,17861,WMM1,1551003,false,false,1903,image-keyboard-response,25
true,18,2,2,2,true,d,false,true,0.0-2.0-0.62-0.561-3.561,0,0,0,68,false,stim,false,1,796.0049998946488,3,0,2,17861,WMM1,1553323,false,false,1906,image-keyboard-response,26
true,18,2,2,2,true,d,false,true,0.0-2.0-0.62-0.562-3.562,0,0,0,68,false,stim,false,1,598.7299997359514,3,0,2,17861,WMM1,1555440,false,false,1909,image-keyboard-response,27
true,18,2,2,2,true,d,false,true,0.0-2.0-0.62-0.563-3.563,0,0,0,68,false,stim,false,1,609.979999717325,3,0,2,17861,WMM1,1557582,false,false,1912,image-keyboard-response,28
true,18,1,2,1,true,z,false,true,0.0-2.0-0.62-0.564-3.564,0,0,0,90,false,stim,false,0,1241.6399996727705,3,0,1,17861,WMM1,1560346,false,false,1915,image-keyboard-response,29
true,18,1,2,1,true,z,false,true,0.0-2.0-0.62-0.565-3.565,0,0,0,90,false,stim,false,0,1115.4350000433624,3,0,1,17861,WMM1,1562985,false,false,1918,image-keyboard-response,30
true,19,0,1,2,false,d,false,false,0.0-2.0-0.62-0.566-3.566,0,0,0,81,true,stim,true,0,794.2200000397861,3,0,0,17861,WMM1,1565310,false,false,1921,image-keyboard-response,1
true,19,0,1,2,false,d,false,false,0.0-2.0-0.63-0.567-3.567,0,0,0,81,false,stim,true,0,2020.909999962896,3,0,0,17861,WMM1,1568847,false,false,1924,image-keyboard-response,2
true,19,0,1,2,false,d,true,false,0.0-2.0-0.63-0.568-3.568,0,0,0,81,false,stim,false,1,1252.3850002326071,3,0,1,17861,WMM1,1571626,false,false,1927,image-keyboard-response,3
true,19,1,1,2,false,d,false,false,0.0-2.0-0.63-0.569-3.569,0,0,0,90,false,stim,true,1,592.1800001524389,3,0,1,17861,WMM1,1573747,false,false,1930,image-keyboard-response,4
true,19,0,1,1,false,z,true,false,0.0-2.0-0.63-0.570-3.570,0,0,0,81,false,stim,false,2,1318.2850000448525,3,0,2,17861,WMM1,1576588,false,false,1933,image-keyboard-response,5
true,19,1,1,1,true,z,false,true,0.0-2.0-0.63-0.571-3.571,0,0,0,90,false,stim,false,2,531.5199997276068,3,0,2,17861,WMM1,1578648,false,false,1936,image-keyboard-response,6
true,19,2,1,2,true,d,false,true,0.0-2.0-0.63-0.572-3.572,0,0,0,68,false,stim,false,1,493.53000009432435,3,0,1,17861,WMM1,1580659,false,false,1939,image-keyboard-response,7
true,19,2,1,2,true,d,false,false,0.0-2.0-0.63-0.573-3.573,0,0,0,68,false,stim,false,0,442.975000012666,3,0,0,17861,WMM1,1582623,false,true,1942,image-keyboard-response,8
true,19,1,1,2,false,d,true,false,0.0-2.0-0.63-0.574-3.574,0,0,0,90,false,stim,false,0,319.86499996855855,3,0,0,17861,WMM1,1584466,false,false,1945,image-keyboard-response,9
true,19,1,1,1,true,z,false,true,0.0-2.0-0.63-0.575-3.575,0,0,0,90,false,stim,false,2,2313.7849997729063,3,0,2,17861,WMM1,1588307,false,false,1948,image-keyboard-response,10
true,19,0,1,2,false,d,false,false,0.0-2.0-0.64-0.576-3.576,0,0,0,81,false,stim,true,0,499.4349996559322,3,0,0,17861,WMM1,1590323,false,false,1951,image-keyboard-response,11
true,19,2,1,2,true,d,false,true,0.0-2.0-0.64-0.577-3.577,0,0,0,68,false,stim,false,0,669.6150000207126,3,0,0,17861,WMM1,1592525,false,false,1954,image-keyboard-response,12
true,19,2,1,2,true,d,false,true,0.0-2.0-0.64-0.578-3.578,0,0,0,68,false,stim,false,1,1231.4100000075996,3,0,1,17861,WMM1,1595284,false,false,1957,image-keyboard-response,13
true,19,2,1,2,true,d,false,true,0.0-2.0-0.64-0.579-3.579,0,0,0,68,false,stim,false,1,685.1849998347461,3,0,1,17861,WMM1,1597486,false,false,1960,image-keyboard-response,14
true,19,1,1,1,true,z,false,true,0.0-2.0-0.64-0.580-3.580,0,0,0,90,false,stim,false,2,672.9699997231364,3,0,2,17861,WMM1,1599689,false,false,1963,image-keyboard-response,15
true,19,1,1,1,true,z,false,true,0.0-2.0-0.64-0.581-3.581,0,0,0,90,false,stim,false,2,873.955000191927,3,0,2,17861,WMM1,1602088,false,false,1966,image-keyboard-response,16
true,19,1,1,1,true,z,false,true,0.0-2.0-0.64-0.582-3.582,0,0,0,90,false,stim,false,2,816.4249998517334,3,0,2,17861,WMM1,1604428,false,false,1969,image-keyboard-response,17
true,19,2,1,2,true,d,false,true,0.0-2.0-0.64-0.583-3.583,0,0,0,68,false,stim,false,0,681.2950000166893,3,0,0,17861,WMM1,1606641,false,false,1972,image-keyboard-response,18
true,19,2,1,2,true,d,false,true,0.0-2.0-0.64-0.584-3.584,0,0,0,68,false,stim,false,1,535.1650002412498,3,0,1,17861,WMM1,1608707,false,false,1975,image-keyboard-response,19
true,19,2,1,2,true,d,false,true,0.0-2.0-0.65-0.585-3.585,0,0,0,68,false,stim,false,1,1007.8949998132885,3,0,1,17861,WMM1,1611247,false,false,1978,image-keyboard-response,20
true,19,1,1,1,true,z,false,true,0.0-2.0-0.65-0.586-3.586,0,0,0,90,false,stim,false,2,1210.8500003814697,3,0,2,17861,WMM1,1613981,false,false,1981,image-keyboard-response,21
