answered,blockNum,choice,condition,corResp,correct,correct_response,explo,fb,internal_node_id,isStable_1,isStable_2,isStable_3,key_press,newBlock,part,persev,persevResp,rt,sessNum,stableAS,stimulus,subject,task,time_elapsed,training,trap,trial_index,trial_type,trialsInBlock
true,1,2,0,1,false,z,true,false,0.0-2.0-0.0-0.0-3.0,0,0,0,68,true,stim,false,-1,883.5,1,0,1,18969,WMM2,213324,false,false,99,image-keyboard-response,1
true,1,1,0,1,true,z,false,true,0.0-2.0-0.0-0.1-3.1,0,0,0,90,false,stim,false,-1,327.5,1,0,1,18969,WMM2,215161,false,false,102,image-keyboard-response,2
true,1,0,0,2,false,d,true,false,0.0-2.0-0.0-0.2-3.2,0,0,0,81,false,stim,false,-1,390.70000000298023,1,0,0,18969,WMM2,217081,false,false,105,image-keyboard-response,3
true,1,2,0,0,false,q,true,false,0.0-2.0-0.0-0.3-3.3,0,0,0,68,false,stim,false,-1,527.8999999985099,1,0,2,18969,WMM2,219131,false,false,108,image-keyboard-response,4
true,1,0,0,2,false,d,true,false,0.0-2.0-0.0-0.4-3.4,0,0,0,81,false,stim,false,-1,470.79999999701977,1,0,0,18969,WMM2,221131,false,false,111,image-keyboard-response,5
true,1,2,0,2,true,d,false,true,0.0-2.0-0.0-0.5-3.5,0,0,0,68,false,stim,false,-1,636.0,1,0,0,18969,WMM2,223282,false,false,114,image-keyboard-response,6
true,1,2,0,0,false,q,true,false,0.0-2.0-0.0-0.6-3.6,0,0,0,68,false,stim,false,-1,729.3000000044703,1,0,2,18969,WMM2,225521,false,false,117,image-keyboard-response,7
true,1,1,0,1,true,z,false,true,0.0-2.0-0.0-0.7-3.7,0,0,0,90,false,stim,false,-1,702.0,1,0,1,18969,WMM2,227740,false,false,120,image-keyboard-response,8
true,1,1,0,0,false,q,true,false,0.0-2.0-0.0-0.8-3.8,0,0,0,90,false,stim,false,-1,668.2000000029802,1,0,2,18969,WMM2,229931,false,false,123,image-keyboard-response,9
true,1,0,0,0,true,q,false,true,0.0-2.0-0.1-0.9-3.9,0,0,0,81,false,stim,false,-1,830.2000000029802,1,0,2,18969,WMM2,232271,false,false,126,image-keyboard-response,10
true,1,0,0,0,true,q,false,true,0.0-2.0-0.1-0.10-3.10,0,0,0,81,false,stim,false,-1,380.3999999985099,1,0,2,18969,WMM2,234182,false,false,129,image-keyboard-response,11
true,1,2,0,2,true,d,false,true,0.0-2.0-0.1-0.11-3.11,0,0,0,68,false,stim,false,-1,377.6000000014901,1,0,0,18969,WMM2,236081,false,false,132,image-keyboard-response,12
true,1,1,0,1,true,z,false,true,0.0-2.0-0.1-0.12-3.12,0,0,0,90,false,stim,false,-1,273.29999999701977,1,0,1,18969,WMM2,237871,false,false,135,image-keyboard-response,13
true,1,1,0,1,true,z,false,false,0.0-2.0-0.1-0.13-3.13,0,0,0,90,false,stim,false,-1,732.6000000014901,1,0,1,18969,WMM2,240122,false,true,138,image-keyboard-response,14
true,1,1,0,1,true,z,false,true,0.0-2.0-0.1-0.14-3.14,0,0,0,90,false,stim,false,-1,580.3999999985099,1,0,1,18969,WMM2,242221,false,false,141,image-keyboard-response,15
true,1,2,0,2,true,d,false,true,0.0-2.0-0.1-0.15-3.15,0,0,0,68,false,stim,false,-1,395.3999999985099,1,0,0,18969,WMM2,244141,false,false,144,image-keyboard-response,16
true,1,0,0,0,true,q,false,true,0.0-2.0-0.1-0.16-3.16,0,0,0,81,false,stim,false,-1,366.5,1,0,2,18969,WMM2,246032,false,false,147,image-keyboard-response,17
true,1,2,0,2,true,d,false,true,0.0-2.0-0.1-0.17-3.17,0,0,0,68,false,stim,false,-1,583.2000000029802,1,0,0,18969,WMM2,248132,false,false,150,image-keyboard-response,18
true,1,2,0,2,true,d,false,true,0.0-2.0-0.2-0.18-3.18,0,0,0,68,false,stim,false,-1,479.19999999552965,1,0,0,18969,WMM2,250131,false,false,153,image-keyboard-response,19
true,1,1,0,0,false,q,true,false,0.0-2.0-0.2-0.19-3.19,0,0,0,90,false,stim,false,-1,462.59999999403954,1,0,2,18969,WMM2,252122,false,false,156,image-keyboard-response,20
true,1,0,0,0,true,q,false,true,0.0-2.0-0.2-0.20-3.20,0,0,0,81,false,stim,false,-1,437.3999999985099,1,0,2,18969,WMM2,254082,false,false,159,image-keyboard-response,21
true,1,1,0,1,true,z,false,true,0.0-2.0-0.2-0.21-3.21,0,0,0,90,false,stim,false,-1,338.80000000447035,1,0,1,18969,WMM2,255942,false,false,162,image-keyboard-response,22
true,1,0,0,1,false,z,true,false,0.0-2.0-0.2-0.22-3.22,0,0,0,81,false,stim,false,-1,362.3999999985099,1,0,1,18969,WMM2,257821,false,false,165,image-keyboard-response,23
true,1,0,0,0,true,q,false,true,0.0-2.0-0.2-0.23-3.23,0,0,0,81,false,stim,false,-1,1701.6999999955297,1,0,2,18969,WMM2,261042,false,false,168,image-keyboard-response,24
true,1,2,0,2,true,d,false,true,0.0-2.0-0.2-0.24-3.24,0,0,0,68,false,stim,false,-1,786.6000000014901,1,0,0,18969,WMM2,263341,false,false,171,image-keyboard-response,25
true,1,1,0,1,true,z,false,true,0.0-2.0-0.2-0.25-3.25,0,0,0,90,false,stim,false,-1,582.7999999970198,1,0,1,18969,WMM2,265442,false,false,174,image-keyboard-response,26
true,1,2,0,2,true,d,false,true,0.0-2.0-0.2-0.26-3.26,0,0,0,68,false,stim,false,-1,725.3000000044703,1,0,0,18969,WMM2,267693,false,false,177,image-keyboard-response,27
true,1,2,0,2,true,d,false,true,0.0-2.0-0.3-0.27-3.27,0,0,0,68,false,stim,false,-1,659.1999999955297,1,0,0,18969,WMM2,269882,false,false,180,image-keyboard-response,28
true,1,0,0,0,true,q,false,true,0.0-2.0-0.3-0.28-3.28,0,0,0,81,false,stim,false,-1,680.7999999970198,1,0,2,18969,WMM2,272082,false,false,183,image-keyboard-response,29
true,1,2,0,2,true,d,false,true,0.0-2.0-0.3-0.29-3.29,0,0,0,68,false,stim,false,-1,489.69999999552965,1,0,0,18969,WMM2,274102,false,false,186,image-keyboard-response,30
true,1,1,0,0,false,q,true,false,0.0-2.0-0.3-0.30-3.30,0,0,0,90,false,stim,false,-1,653.7999999970198,1,0,2,18969,WMM2,276272,false,false,189,image-keyboard-response,31
true,1,2,0,2,true,d,false,true,0.0-2.0-0.3-0.31-3.31,0,0,0,68,false,stim,false,-1,475.8999999985099,1,0,0,18969,WMM2,278262,false,false,192,image-keyboard-response,32
true,1,1,0,1,true,z,false,true,0.0-2.0-0.3-0.32-3.32,0,0,0,90,false,stim,false,-1,395.1000000014901,1,0,1,18969,WMM2,280183,false,false,195,image-keyboard-response,33
true,1,0,0,0,true,q,false,true,0.0-2.0-0.3-0.33-3.33,0,0,0,81,false,stim,false,-1,688.7999999970198,1,0,2,18969,WMM2,282402,false,false,198,image-keyboard-response,34
true,1,1,0,1,true,z,false,true,0.0-2.0-0.3-0.34-3.34,0,0,0,90,false,stim,false,-1,470.0,1,0,1,18969,WMM2,284382,false,false,201,image-keyboard-response,35
true,1,1,0,1,true,z,false,true,0.0-2.0-0.3-0.35-3.35,0,0,0,90,false,stim,false,-1,532.0,1,0,1,18969,WMM2,286442,false,false,204,image-keyboard-response,36
true,1,2,0,2,true,d,false,true,0.0-2.0-0.4-0.36-3.36,0,0,0,68,false,stim,false,-1,557.7999999970198,1,0,0,18969,WMM2,288522,false,false,207,image-keyboard-response,37
true,1,2,0,2,true,d,false,true,0.0-2.0-0.4-0.37-3.37,0,0,0,68,false,stim,false,-1,616.7000000029802,1,0,0,18969,WMM2,290662,false,false,210,image-keyboard-response,38
true,1,1,0,1,true,z,false,true,0.0-2.0-0.4-0.38-3.38,0,0,0,90,false,stim,false,-1,730.1999999955297,1,0,1,18969,WMM2,292922,false,false,213,image-keyboard-response,39
true,1,0,0,0,true,q,false,true,0.0-2.0-0.4-0.39-3.39,0,0,0,81,false,stim,false,-1,474.8999999985099,1,0,2,18969,WMM2,294922,false,false,216,image-keyboard-response,40
true,1,2,0,2,true,d,false,true,0.0-2.0-0.4-0.40-3.40,0,0,0,68,false,stim,false,-1,476.80000000447035,1,1,0,18969,WMM2,296922,false,false,219,image-keyboard-response,41
true,1,1,0,1,true,z,false,true,0.0-2.0-0.4-0.41-3.41,0,0,0,90,false,stim,false,-1,566.3000000044703,1,0,1,18969,WMM2,299012,false,false,222,image-keyboard-response,42
true,1,0,0,0,true,q,false,true,0.0-2.0-0.4-0.42-3.42,0,0,0,81,false,stim,false,-1,673.0999999940395,1,1,2,18969,WMM2,301201,false,false,225,image-keyboard-response,43
true,1,0,0,0,true,q,false,true,0.0-2.0-0.4-0.43-3.43,0,0,0,81,false,stim,false,-1,801.8999999985099,1,1,2,18969,WMM2,303521,false,false,228,image-keyboard-response,44
true,1,1,0,1,true,z,false,true,0.0-2.0-0.4-0.44-3.44,0,0,0,90,false,stim,false,-1,550.6999999955297,1,0,1,18969,WMM2,305601,false,false,231,image-keyboard-response,45
true,1,0,0,0,true,q,false,true,0.0-2.0-0.5-0.45-3.45,0,0,0,81,false,stim,false,-1,409.0,1,1,2,18969,WMM2,307530,false,false,234,image-keyboard-response,46
true,1,2,0,2,true,d,false,true,0.0-2.0-0.5-0.46-3.46,0,0,0,68,false,stim,false,-1,445.8999999985099,1,1,0,18969,WMM2,309491,false,false,237,image-keyboard-response,47
true,1,1,0,1,true,z,false,true,0.0-2.0-0.5-0.47-3.47,0,0,0,90,false,stim,false,-1,615.7999999970198,1,0,1,18969,WMM2,311631,false,false,240,image-keyboard-response,48
true,1,0,0,0,true,q,false,true,0.0-2.0-0.5-0.48-3.48,0,0,0,81,false,stim,false,-1,488.29999999701977,1,1,2,18969,WMM2,313651,false,false,243,image-keyboard-response,49
true,1,1,0,1,true,z,false,true,0.0-2.0-0.5-0.49-3.49,0,0,0,90,false,stim,false,-1,520.2000000029802,1,0,1,18969,WMM2,315683,false,false,246,image-keyboard-response,50
true,2,1,3,2,false,d,false,false,0.0-2.0-0.5-0.50-3.50,1,0,1,90,true,stim,true,1,469.20000000298023,1,0,1,18969,WMM2,317659,false,false,249,image-keyboard-response,1
true,2,2,3,2,true,d,false,true,0.0-2.0-0.5-0.51-3.51,1,0,1,68,false,stim,false,2,472.29999999701977,1,1,0,18969,WMM2,319641,false,false,252,image-keyboard-response,2
true,2,0,3,0,true,q,false,true,0.0-2.0-0.5-0.52-3.52,1,0,1,81,false,stim,false,0,445.3999999985099,1,1,2,18969,WMM2,321611,false,false,255,image-keyboard-response,3
true,2,2,3,2,true,d,false,true,0.0-2.0-0.5-0.53-3.53,1,0,1,68,false,stim,false,2,494.29999999701977,1,1,0,18969,WMM2,323631,false,false,258,image-keyboard-response,4
true,2,0,3,0,true,q,false,false,0.0-2.0-0.6-0.54-3.54,1,0,1,81,false,stim,false,0,499.0,1,1,2,18969,WMM2,325641,false,true,261,image-keyboard-response,5
true,2,1,3,2,false,d,false,false,0.0-2.0-0.6-0.55-3.55,1,0,1,90,false,stim,true,1,365.8999999985099,1,0,1,18969,WMM2,327530,false,false,264,image-keyboard-response,6
true,2,2,3,2,true,d,false,true,0.0-2.0-0.6-0.56-3.56,1,0,1,68,false,stim,false,2,401.70000000298023,1,1,0,18969,WMM2,329461,false,false,267,image-keyboard-response,7
true,2,0,3,0,true,q,false,false,0.0-2.0-0.6-0.57-3.57,1,0,1,81,false,stim,false,0,380.3999999985099,1,1,2,18969,WMM2,331363,false,true,270,image-keyboard-response,8
true,2,1,3,0,false,q,true,true,0.0-2.0-0.6-0.58-3.58,1,0,1,90,false,stim,false,0,1022.1999999955297,1,1,2,18969,WMM2,333911,false,true,273,image-keyboard-response,9
true,2,0,3,2,false,d,true,false,0.0-2.0-0.6-0.59-3.59,1,0,1,81,false,stim,false,1,409.70000000298023,1,0,1,18969,WMM2,335851,false,false,276,image-keyboard-response,10
true,2,1,3,2,false,d,false,false,0.0-2.0-0.6-0.60-3.60,1,0,1,90,false,stim,true,1,639.8000000044703,1,0,1,18969,WMM2,338011,false,false,279,image-keyboard-response,11
true,2,2,3,2,true,d,false,true,0.0-2.0-0.6-0.61-3.61,1,0,1,68,false,stim,false,2,458.20000000298023,1,1,0,18969,WMM2,339991,false,false,282,image-keyboard-response,12
true,2,2,3,2,true,d,false,false,0.0-2.0-0.6-0.62-3.62,1,0,1,68,false,stim,false,2,409.20000000298023,1,1,0,18969,WMM2,341921,false,true,285,image-keyboard-response,13
true,2,1,3,0,false,q,true,false,0.0-2.0-0.7-0.63-3.63,1,0,1,90,false,stim,false,0,491.09999999403954,1,1,2,18969,WMM2,343932,false,false,288,image-keyboard-response,14
true,2,2,3,2,true,d,false,false,0.0-2.0-0.7-0.64-3.64,1,0,1,68,false,stim,false,2,787.0,1,1,0,18969,WMM2,346241,false,true,291,image-keyboard-response,15
true,2,2,3,2,true,d,false,true,0.0-2.0-0.7-0.65-3.65,1,0,1,68,false,stim,false,1,348.70000000298023,1,0,1,18969,WMM2,348110,false,false,294,image-keyboard-response,16
true,2,1,3,0,false,q,true,false,0.0-2.0-0.7-0.66-3.66,1,0,1,90,false,stim,false,0,851.2999999970198,1,1,2,18969,WMM2,350481,false,false,297,image-keyboard-response,17
true,2,0,3,2,false,d,true,true,0.0-2.0-0.7-0.67-3.67,1,0,1,81,false,stim,false,2,786.2999999970198,1,1,0,18969,WMM2,352791,false,true,300,image-keyboard-response,18
true,2,0,3,0,true,q,false,false,0.0-2.0-0.7-0.68-3.68,1,0,1,81,false,stim,false,0,1460.8000000044703,1,1,2,18969,WMM2,355772,false,true,303,image-keyboard-response,19
true,2,2,3,2,true,d,false,true,0.0-2.0-0.7-0.69-3.69,1,0,1,68,false,stim,false,1,743.7999999970198,1,0,1,18969,WMM2,358031,false,false,306,image-keyboard-response,20
true,2,2,3,2,true,d,false,false,0.0-2.0-0.7-0.70-3.70,1,0,1,68,false,stim,false,1,407.79999999701977,1,0,1,18969,WMM2,359961,false,true,309,image-keyboard-response,21
true,2,1,3,2,false,d,true,false,0.0-2.0-0.7-0.71-3.71,1,0,1,90,false,stim,false,2,895.8000000044703,1,1,0,18969,WMM2,362393,false,false,312,image-keyboard-response,22
true,2,0,3,0,true,q,false,true,0.0-2.0-0.8-0.72-3.72,1,0,1,81,false,stim,false,0,388.59999999403954,1,1,2,18969,WMM2,364303,false,false,315,image-keyboard-response,23
true,2,2,3,2,true,d,false,true,0.0-2.0-0.8-0.73-3.73,1,0,1,68,false,stim,false,1,582.6000000014901,1,0,1,18969,WMM2,366404,false,false,318,image-keyboard-response,24
true,2,0,3,0,true,q,false,true,0.0-2.0-0.8-0.74-3.74,1,0,1,81,false,stim,false,0,544.5,1,1,2,18969,WMM2,368473,false,false,321,image-keyboard-response,25
true,2,2,3,2,true,d,false,false,0.0-2.0-0.8-0.75-3.75,1,0,1,68,false,stim,false,1,437.6000000014901,1,0,1,18969,WMM2,370433,false,true,324,image-keyboard-response,26
true,2,0,3,2,false,d,true,false,0.0-2.0-0.8-0.76-3.76,1,0,1,81,false,stim,false,2,296.80000000447035,1,1,0,18969,WMM2,372253,false,false,327,image-keyboard-response,27
true,2,2,3,2,true,d,false,true,0.0-2.0-0.8-0.77-3.77,1,0,1,68,false,stim,false,1,462.20000000298023,1,0,1,18969,WMM2,374233,false,false,330,image-keyboard-response,28
true,2,0,3,2,false,d,true,false,0.0-2.0-0.8-0.78-3.78,1,0,1,81,false,stim,false,2,325.5,1,1,0,18969,WMM2,376083,false,false,333,image-keyboard-response,29
true,2,1,3,2,false,d,true,false,0.0-2.0-0.8-0.79-3.79,1,0,1,90,false,stim,false,2,503.8999999985099,1,1,0,18969,WMM2,378102,false,false,336,image-keyboard-response,30
true,2,0,3,0,true,q,false,true,0.0-2.0-0.8-0.80-3.80,1,0,1,81,false,stim,false,0,549.2000000029802,1,1,2,18969,WMM2,380173,false,false,339,image-keyboard-response,31
true,2,2,3,0,false,q,true,false,0.0-2.0-0.9-0.81-3.81,1,0,1,68,false,stim,false,0,360.0,1,1,2,18969,WMM2,382053,false,false,342,image-keyboard-response,32
true,2,2,3,2,true,d,false,true,0.0-2.0-0.9-0.82-3.82,1,0,1,68,false,stim,false,2,328.59999999403954,1,1,0,18969,WMM2,383903,false,false,345,image-keyboard-response,33
true,2,0,3,0,true,q,false,true,0.0-2.0-0.9-0.83-3.83,1,0,1,81,false,stim,false,0,464.79999999701977,1,1,2,18969,WMM2,385893,false,false,348,image-keyboard-response,34
true,2,2,3,2,true,d,false,true,0.0-2.0-0.9-0.84-3.84,1,0,1,68,false,stim,false,1,351.20000000298023,1,0,1,18969,WMM2,387753,false,false,351,image-keyboard-response,35
true,2,2,3,2,true,d,false,true,0.0-2.0-0.9-0.85-3.85,1,0,1,68,false,stim,false,2,499.19999999552965,1,1,0,18969,WMM2,389774,false,false,354,image-keyboard-response,36
true,2,0,3,0,true,q,false,true,0.0-2.0-0.9-0.86-3.86,1,0,1,81,false,stim,false,0,347.80000000447035,1,1,2,18969,WMM2,391645,false,false,357,image-keyboard-response,37
true,2,2,3,2,true,d,false,true,0.0-2.0-0.9-0.87-3.87,1,0,1,68,false,stim,false,2,338.69999999552965,1,0,0,18969,WMM2,393514,false,false,360,image-keyboard-response,38
true,2,2,3,2,true,d,false,true,0.0-2.0-0.9-0.88-3.88,1,0,1,68,false,stim,false,1,314.19999999552965,1,0,1,18969,WMM2,395343,false,false,363,image-keyboard-response,39
true,2,2,3,2,true,d,false,true,0.0-2.0-0.9-0.89-3.89,1,0,1,68,false,stim,false,1,324.0,1,0,1,18969,WMM2,397183,false,false,366,image-keyboard-response,40
true,2,2,3,2,true,d,false,true,0.0-2.0-0.10-0.90-3.90,1,0,1,68,false,stim,false,1,333.5,1,0,1,18969,WMM2,399033,false,false,369,image-keyboard-response,41
true,2,0,3,0,true,q,false,true,0.0-2.0-0.10-0.91-3.91,1,0,1,81,false,stim,false,0,411.6000000014901,1,1,2,18969,WMM2,400964,false,false,372,image-keyboard-response,42
true,2,2,3,2,true,d,false,true,0.0-2.0-0.10-0.92-3.92,1,0,1,68,false,stim,false,1,396.0,1,0,1,18969,WMM2,402883,false,false,375,image-keyboard-response,43
true,2,0,3,0,true,q,false,true,0.0-2.0-0.10-0.93-3.93,1,0,1,81,false,stim,false,0,374.79999999701977,1,1,2,18969,WMM2,404783,false,false,378,image-keyboard-response,44
true,2,2,3,2,true,d,false,true,0.0-2.0-0.10-0.94-3.94,1,0,1,68,false,stim,false,2,386.20000000298023,1,0,0,18969,WMM2,406696,false,false,381,image-keyboard-response,45
true,2,2,3,2,true,d,false,true,0.0-2.0-0.10-0.95-3.95,1,0,1,68,false,stim,false,2,302.79999999701977,1,0,0,18969,WMM2,408513,false,false,384,image-keyboard-response,46
true,2,2,3,2,true,d,false,true,0.0-2.0-0.10-0.96-3.96,1,0,1,68,false,stim,false,2,337.70000000298023,1,0,0,18969,WMM2,410373,false,false,387,image-keyboard-response,47
true,3,0,1,0,true,q,false,true,0.0-2.0-0.10-0.97-3.97,0,0,1,81,true,stim,false,0,493.0,1,1,2,18969,WMM2,412384,false,false,390,image-keyboard-response,1
true,3,2,1,1,false,z,false,false,0.0-2.0-0.10-0.98-3.98,0,0,1,68,false,stim,true,2,397.1000000014901,1,0,1,18969,WMM2,414303,false,false,393,image-keyboard-response,2
true,3,2,1,1,false,z,false,false,0.0-2.0-0.11-0.99-3.99,0,0,1,68,false,stim,true,2,397.19999999552965,1,0,1,18969,WMM2,416224,false,false,396,image-keyboard-response,3
true,3,0,1,0,true,q,false,true,0.0-2.0-0.11-0.100-3.100,0,0,1,81,false,stim,false,0,785.1000000014901,1,1,2,18969,WMM2,418544,false,false,399,image-keyboard-response,4
true,3,2,1,0,false,q,false,true,0.0-2.0-0.11-0.101-3.101,0,0,1,68,false,stim,true,2,214.80000000447035,1,0,0,18969,WMM2,420283,false,true,402,image-keyboard-response,5
true,3,0,1,0,true,q,false,true,0.0-2.0-0.11-0.102-3.102,0,0,1,81,false,stim,false,0,598.6000000014901,1,1,2,18969,WMM2,422414,false,false,405,image-keyboard-response,6
true,3,2,1,0,false,q,false,false,0.0-2.0-0.11-0.103-3.103,0,0,1,68,false,stim,true,2,339.30000000447035,1,0,0,18969,WMM2,424274,false,false,408,image-keyboard-response,7
true,3,2,1,1,false,z,false,true,0.0-2.0-0.11-0.104-3.104,0,0,1,68,false,stim,true,2,439.90000000596046,1,0,1,18969,WMM2,426244,false,true,411,image-keyboard-response,8
true,3,0,1,0,true,q,false,true,0.0-2.0-0.11-0.105-3.105,0,0,1,81,false,stim,false,0,371.5,1,1,2,18969,WMM2,428134,false,false,414,image-keyboard-response,9
true,3,2,1,1,false,z,false,false,0.0-2.0-0.11-0.106-3.106,0,0,1,68,false,stim,true,2,445.3999999985099,1,0,1,18969,WMM2,430104,false,false,417,image-keyboard-response,10
true,3,1,1,0,false,q,true,false,0.0-2.0-0.11-0.107-3.107,0,0,1,90,false,stim,false,2,892.2000000029802,1,0,0,18969,WMM2,432525,false,false,420,image-keyboard-response,11
true,3,2,1,0,false,q,false,false,0.0-2.0-0.12-0.108-3.108,0,0,1,68,false,stim,true,2,397.79999999701977,1,0,0,18969,WMM2,434454,false,false,423,image-keyboard-response,12
true,3,0,1,0,true,q,false,true,0.0-2.0-0.12-0.109-3.109,0,0,1,81,false,stim,false,0,463.19999999552965,1,1,2,18969,WMM2,436444,false,false,426,image-keyboard-response,13
true,3,0,1,1,false,z,true,false,0.0-2.0-0.12-0.110-3.110,0,0,1,81,false,stim,false,2,526.5,1,0,1,18969,WMM2,438494,false,false,429,image-keyboard-response,14
true,3,1,1,1,true,z,false,true,0.0-2.0-0.12-0.111-3.111,0,0,1,90,false,stim,false,2,680.8999999985099,1,0,1,18969,WMM2,440704,false,false,432,image-keyboard-response,15
true,3,0,1,0,true,q,false,true,0.0-2.0-0.12-0.112-3.112,0,0,1,81,false,stim,false,0,584.8000000044703,1,1,2,18969,WMM2,442794,false,false,435,image-keyboard-response,16
true,3,1,1,1,true,z,false,true,0.0-2.0-0.12-0.113-3.113,0,0,1,90,false,stim,false,2,468.5,1,0,1,18969,WMM2,444784,false,false,438,image-keyboard-response,17
true,3,0,1,0,true,q,false,true,0.0-2.0-0.12-0.114-3.114,0,0,1,81,false,stim,false,0,595.9000000059605,1,1,2,18969,WMM2,446894,false,false,441,image-keyboard-response,18
true,3,2,1,0,false,q,false,false,0.0-2.0-0.12-0.115-3.115,0,0,1,68,false,stim,true,2,760.8999999985099,1,0,0,18969,WMM2,449184,false,false,444,image-keyboard-response,19
true,3,1,1,0,false,q,true,false,0.0-2.0-0.12-0.116-3.116,0,0,1,90,false,stim,false,2,577.6000000014901,1,0,0,18969,WMM2,451284,false,false,447,image-keyboard-response,20
true,3,0,1,0,true,q,false,true,0.0-2.0-0.13-0.117-3.117,0,0,1,81,false,stim,false,0,644.3999999985099,1,1,2,18969,WMM2,453445,false,false,450,image-keyboard-response,21
true,3,0,1,0,true,q,false,true,0.0-2.0-0.13-0.118-3.118,0,0,1,81,false,stim,false,0,510.8999999985099,1,1,2,18969,WMM2,455484,false,false,453,image-keyboard-response,22
true,3,1,1,1,true,z,false,true,0.0-2.0-0.13-0.119-3.119,0,0,1,90,false,stim,false,2,947.1000000014901,1,0,1,18969,WMM2,457954,false,false,456,image-keyboard-response,23
true,3,0,1,0,true,q,false,true,0.0-2.0-0.13-0.120-3.120,0,0,1,81,false,stim,false,2,390.5,1,0,0,18969,WMM2,459874,false,false,459,image-keyboard-response,24
true,3,1,1,1,true,z,false,true,0.0-2.0-0.13-0.121-3.121,0,0,1,90,false,stim,false,2,670.1000000014901,1,0,1,18969,WMM2,462074,false,false,462,image-keyboard-response,25
true,3,0,1,0,true,q,false,true,0.0-2.0-0.13-0.122-3.122,0,0,1,81,false,stim,false,2,332.1000000014901,1,0,0,18969,WMM2,463924,false,false,465,image-keyboard-response,26
true,3,0,1,0,true,q,false,true,0.0-2.0-0.13-0.123-3.123,0,0,1,81,false,stim,false,0,378.70000000298023,1,1,2,18969,WMM2,465824,false,false,468,image-keyboard-response,27
true,3,1,1,1,true,z,false,true,0.0-2.0-0.13-0.124-3.124,0,0,1,90,false,stim,false,2,363.8999999985099,1,0,1,18969,WMM2,467703,false,false,471,image-keyboard-response,28
true,3,0,1,0,true,q,false,true,0.0-2.0-0.13-0.125-3.125,0,0,1,81,false,stim,false,2,293.70000000298023,1,1,0,18969,WMM2,469514,false,false,474,image-keyboard-response,29
true,3,0,1,0,true,q,false,true,0.0-2.0-0.14-0.126-3.126,0,0,1,81,false,stim,false,2,311.70000000298023,1,1,0,18969,WMM2,471344,false,false,477,image-keyboard-response,30
true,3,1,1,1,true,z,false,true,0.0-2.0-0.14-0.127-3.127,0,0,1,90,false,stim,false,2,521.5999999940395,1,0,1,18969,WMM2,473394,false,false,480,image-keyboard-response,31
true,3,0,1,0,true,q,false,true,0.0-2.0-0.14-0.128-3.128,0,0,1,81,false,stim,false,0,371.8999999985099,1,1,2,18969,WMM2,475285,false,false,483,image-keyboard-response,32
true,3,0,1,0,true,q,false,true,0.0-2.0-0.14-0.129-3.129,0,0,1,81,false,stim,false,2,674.0999999940395,1,1,0,18969,WMM2,477484,false,false,486,image-keyboard-response,33
true,3,0,1,0,true,q,false,true,0.0-2.0-0.14-0.130-3.130,0,0,1,81,false,stim,false,2,362.79999999701977,1,1,0,18969,WMM2,479374,false,false,489,image-keyboard-response,34
true,3,0,1,0,true,q,false,true,0.0-2.0-0.14-0.131-3.131,0,0,1,81,false,stim,false,0,501.5,1,1,2,18969,WMM2,481404,false,false,492,image-keyboard-response,35
true,3,0,1,0,true,q,false,true,0.0-2.0-0.14-0.132-3.132,0,0,1,81,false,stim,false,0,471.3999999985099,1,1,2,18969,WMM2,483404,false,false,495,image-keyboard-response,36
true,4,1,2,2,false,d,false,false,0.0-2.0-0.14-0.133-3.133,1,0,1,90,true,stim,true,1,521.6999999955297,1,0,1,18969,WMM2,485455,false,false,498,image-keyboard-response,1
true,4,1,2,2,false,d,false,false,0.0-2.0-0.14-0.134-3.134,1,0,1,90,false,stim,true,1,496.70000000298023,1,0,1,18969,WMM2,487484,false,false,501,image-keyboard-response,2
true,4,0,2,0,true,q,false,true,0.0-2.0-0.15-0.135-3.135,1,0,1,81,false,stim,false,0,528.6000000014901,1,1,2,18969,WMM2,489543,false,false,504,image-keyboard-response,3
true,4,1,2,2,false,d,false,false,0.0-2.0-0.15-0.136-3.136,1,0,1,90,false,stim,true,1,404.3999999985099,1,0,1,18969,WMM2,491464,false,false,507,image-keyboard-response,4
true,4,0,2,0,true,q,false,true,0.0-2.0-0.15-0.137-3.137,1,0,1,81,false,stim,false,0,605.1000000014901,1,1,0,18969,WMM2,493584,false,false,510,image-keyboard-response,5
true,4,2,2,0,false,q,true,false,0.0-2.0-0.15-0.138-3.138,1,0,1,68,false,stim,false,0,399.69999999552965,1,1,2,18969,WMM2,495504,false,false,513,image-keyboard-response,6
true,4,0,2,0,true,q,false,true,0.0-2.0-0.15-0.139-3.139,1,0,1,81,false,stim,false,0,581.3999999985099,1,1,0,18969,WMM2,497603,false,false,516,image-keyboard-response,7
true,4,2,2,2,true,d,false,true,0.0-2.0-0.15-0.140-3.140,1,0,1,68,false,stim,false,1,348.09999999403954,1,0,1,18969,WMM2,499474,false,false,519,image-keyboard-response,8
true,4,0,2,0,true,q,false,true,0.0-2.0-0.15-0.141-3.141,1,0,1,81,false,stim,false,0,479.3999999985099,1,1,0,18969,WMM2,501474,false,false,522,image-keyboard-response,9
true,4,0,2,0,true,q,false,true,0.0-2.0-0.15-0.142-3.142,1,0,1,81,false,stim,false,0,611.1000000014901,1,1,2,18969,WMM2,503605,false,false,525,image-keyboard-response,10
true,4,2,2,2,true,d,false,true,0.0-2.0-0.15-0.143-3.143,1,0,1,68,false,stim,false,1,426.69999999552965,1,0,1,18969,WMM2,505545,false,false,528,image-keyboard-response,11
true,4,0,2,0,true,q,false,true,0.0-2.0-0.16-0.144-3.144,1,0,1,81,false,stim,false,0,253.39999999850988,1,1,0,18969,WMM2,507314,false,false,531,image-keyboard-response,12
true,4,2,2,2,true,d,false,true,0.0-2.0-0.16-0.145-3.145,1,0,1,68,false,stim,false,1,359.3999999985099,1,0,1,18969,WMM2,509195,false,false,534,image-keyboard-response,13
true,4,2,2,2,true,d,false,true,0.0-2.0-0.16-0.146-3.146,1,0,1,68,false,stim,false,1,408.6000000014901,1,0,1,18969,WMM2,511134,false,false,537,image-keyboard-response,14
true,4,2,2,2,true,d,false,true,0.0-2.0-0.16-0.147-3.147,1,0,1,68,false,stim,false,1,380.70000000298023,1,0,1,18969,WMM2,513045,false,false,540,image-keyboard-response,15
true,4,0,2,0,true,q,false,true,0.0-2.0-0.16-0.148-3.148,1,0,1,81,false,stim,false,0,337.69999999552965,1,1,2,18969,WMM2,514895,false,false,543,image-keyboard-response,16
true,4,0,2,0,true,q,false,true,0.0-2.0-0.16-0.149-3.149,1,0,1,81,false,stim,false,0,362.0,1,1,0,18969,WMM2,516775,false,false,546,image-keyboard-response,17
true,4,0,2,0,true,q,false,true,0.0-2.0-0.16-0.150-3.150,1,0,1,81,false,stim,false,0,405.29999999701977,1,1,2,18969,WMM2,518695,false,false,549,image-keyboard-response,18
true,4,0,2,0,true,q,false,true,0.0-2.0-0.16-0.151-3.151,1,0,1,81,false,stim,false,0,353.29999999701977,1,1,0,18969,WMM2,520585,false,false,552,image-keyboard-response,19
true,4,0,2,0,true,q,false,false,0.0-2.0-0.16-0.152-3.152,1,0,1,81,false,stim,false,0,387.69999999552965,1,1,2,18969,WMM2,522495,false,true,555,image-keyboard-response,20
true,4,0,2,0,true,q,false,true,0.0-2.0-0.17-0.153-3.153,1,0,1,81,false,stim,false,0,353.59999999403954,1,1,2,18969,WMM2,524375,false,false,558,image-keyboard-response,21
true,4,0,2,0,true,q,false,true,0.0-2.0-0.17-0.154-3.154,1,0,1,81,false,stim,false,0,318.19999999552965,1,0,0,18969,WMM2,526215,false,false,561,image-keyboard-response,22
true,4,2,2,2,true,d,false,true,0.0-2.0-0.17-0.155-3.155,1,0,1,68,false,stim,false,1,439.5,1,0,1,18969,WMM2,528175,false,false,564,image-keyboard-response,23
true,4,0,2,0,true,q,false,false,0.0-2.0-0.17-0.156-3.156,1,0,1,81,false,stim,false,0,327.5,1,1,2,18969,WMM2,530025,false,true,567,image-keyboard-response,24
true,4,2,2,2,true,d,false,false,0.0-2.0-0.17-0.157-3.157,1,0,1,68,false,stim,false,1,324.6000000014901,1,0,1,18969,WMM2,531875,false,true,570,image-keyboard-response,25
true,4,0,2,0,true,q,false,true,0.0-2.0-0.17-0.158-3.158,1,0,1,81,false,stim,false,0,409.6000000014901,1,0,0,18969,WMM2,533815,false,false,573,image-keyboard-response,26
true,4,0,2,0,true,q,false,true,0.0-2.0-0.17-0.159-3.159,1,0,1,81,false,stim,false,0,387.30000000447035,1,0,0,18969,WMM2,535715,false,false,576,image-keyboard-response,27
true,4,1,2,0,false,q,true,false,0.0-2.0-0.17-0.160-3.160,1,0,1,90,false,stim,false,0,402.1000000014901,1,1,2,18969,WMM2,537635,false,false,579,image-keyboard-response,28
true,4,1,2,2,false,d,false,false,0.0-2.0-0.17-0.161-3.161,1,0,1,90,false,stim,true,1,307.09999999403954,1,0,1,18969,WMM2,539475,false,false,582,image-keyboard-response,29
true,4,1,2,2,false,d,false,false,0.0-2.0-0.18-0.162-3.162,1,0,1,90,false,stim,true,1,459.0,1,0,1,18969,WMM2,541454,false,false,585,image-keyboard-response,30
true,5,1,1,0,false,q,true,false,0.0-2.0-0.18-0.163-3.163,0,0,1,90,true,stim,false,2,422.90000000596046,1,0,1,18969,WMM2,543405,false,false,588,image-keyboard-response,1
true,5,2,1,0,false,q,true,false,0.0-2.0-0.18-0.164-3.164,0,0,1,68,false,stim,false,0,726.6999999955297,1,1,2,18969,WMM2,545645,false,false,591,image-keyboard-response,2
true,5,2,1,0,false,q,true,false,0.0-2.0-0.18-0.165-3.165,0,0,1,68,false,stim,false,0,405.5,1,1,2,18969,WMM2,547575,false,false,594,image-keyboard-response,3
true,5,2,1,0,false,q,true,false,0.0-2.0-0.18-0.166-3.166,0,0,1,68,false,stim,false,0,431.5,1,1,2,18969,WMM2,549536,false,false,597,image-keyboard-response,4
true,5,2,1,0,false,q,false,false,0.0-2.0-0.18-0.167-3.167,0,0,1,68,false,stim,true,2,713.2999999970198,1,0,1,18969,WMM2,551765,false,false,600,image-keyboard-response,5
true,5,0,1,2,false,d,false,false,0.0-2.0-0.18-0.168-3.168,0,0,1,81,false,stim,true,0,782.4000000059605,1,0,0,18969,WMM2,554075,false,false,603,image-keyboard-response,6
true,5,1,1,2,false,d,true,false,0.0-2.0-0.18-0.169-3.169,0,0,1,90,false,stim,false,0,599.5999999940395,1,0,0,18969,WMM2,556205,false,false,606,image-keyboard-response,7
true,5,2,1,2,true,d,false,true,0.0-2.0-0.18-0.170-3.170,0,0,1,68,false,stim,false,0,492.90000000596046,1,0,0,18969,WMM2,558224,false,false,609,image-keyboard-response,8
true,5,0,1,0,true,q,false,true,0.0-2.0-0.19-0.171-3.171,0,0,1,81,false,stim,false,0,296.70000000298023,1,1,2,18969,WMM2,560036,false,false,612,image-keyboard-response,9
true,5,2,1,2,true,d,false,true,0.0-2.0-0.19-0.172-3.172,0,0,1,68,false,stim,false,0,746.6999999955297,1,0,0,18969,WMM2,562296,false,false,615,image-keyboard-response,10
true,5,2,1,2,true,d,false,true,0.0-2.0-0.19-0.173-3.173,0,0,1,68,false,stim,false,0,618.8999999985099,1,0,0,18969,WMM2,564435,false,false,618,image-keyboard-response,11
true,5,0,1,2,false,d,false,false,0.0-2.0-0.19-0.174-3.174,0,0,1,81,false,stim,true,0,374.3999999985099,1,0,0,18969,WMM2,566326,false,false,621,image-keyboard-response,12
true,5,0,1,0,true,q,false,true,0.0-2.0-0.19-0.175-3.175,0,0,1,81,false,stim,false,2,1669.5,1,0,1,18969,WMM2,569516,false,false,624,image-keyboard-response,13
true,5,0,1,0,true,q,false,false,0.0-2.0-0.19-0.176-3.176,0,0,1,81,false,stim,false,0,362.70000000298023,1,1,2,18969,WMM2,571396,false,true,627,image-keyboard-response,14
true,5,0,1,0,true,q,false,true,0.0-2.0-0.19-0.177-3.177,0,0,1,81,false,stim,false,2,595.5999999940395,1,0,1,18969,WMM2,573516,false,false,630,image-keyboard-response,15
true,5,0,1,0,true,q,false,false,0.0-2.0-0.19-0.178-3.178,0,0,1,81,false,stim,false,0,545.5,1,1,2,18969,WMM2,575596,false,true,633,image-keyboard-response,16
true,5,0,1,0,true,q,false,true,0.0-2.0-0.19-0.179-3.179,0,0,1,81,false,stim,false,2,694.5999999940395,1,0,1,18969,WMM2,577808,false,false,636,image-keyboard-response,17
true,5,2,1,0,false,q,true,false,0.0-2.0-0.20-0.180-3.180,0,0,1,68,false,stim,false,0,446.30000000447035,1,1,2,18969,WMM2,579776,false,false,639,image-keyboard-response,18
true,5,2,1,2,true,d,false,true,0.0-2.0-0.20-0.181-3.181,0,0,1,68,false,stim,false,0,699.2999999970198,1,0,0,18969,WMM2,581997,false,false,642,image-keyboard-response,19
true,5,0,1,0,true,q,false,true,0.0-2.0-0.20-0.182-3.182,0,0,1,81,false,stim,false,2,626.7000000029802,1,0,1,18969,WMM2,584145,false,false,645,image-keyboard-response,20
true,5,0,1,0,true,q,false,true,0.0-2.0-0.20-0.183-3.183,0,0,1,81,false,stim,false,2,491.29999999701977,1,0,1,18969,WMM2,586156,false,false,648,image-keyboard-response,21
true,5,1,1,0,false,q,true,false,0.0-2.0-0.20-0.184-3.184,0,0,1,90,false,stim,false,0,319.30000000447035,1,1,2,18969,WMM2,587995,false,false,651,image-keyboard-response,22
true,5,0,1,0,true,q,false,true,0.0-2.0-0.20-0.185-3.185,0,0,1,81,false,stim,false,2,425.69999999552965,1,0,1,18969,WMM2,589946,false,false,654,image-keyboard-response,23
true,5,2,1,2,true,d,false,false,0.0-2.0-0.20-0.186-3.186,0,0,1,68,false,stim,false,0,760.5,1,0,0,18969,WMM2,592227,false,true,657,image-keyboard-response,24
true,5,2,1,2,true,d,false,true,0.0-2.0-0.20-0.187-3.187,0,0,1,68,false,stim,false,0,378.5,1,0,0,18969,WMM2,594126,false,false,660,image-keyboard-response,25
true,5,2,1,0,false,q,true,false,0.0-2.0-0.20-0.188-3.188,0,0,1,68,false,stim,false,0,344.5,1,1,2,18969,WMM2,595986,false,false,663,image-keyboard-response,26
true,5,0,1,0,true,q,false,true,0.0-2.0-0.21-0.189-3.189,0,0,1,81,false,stim,false,2,383.29999999701977,1,0,1,18969,WMM2,597906,false,false,666,image-keyboard-response,27
true,5,0,1,0,true,q,false,true,0.0-2.0-0.21-0.190-3.190,0,0,1,81,false,stim,false,2,415.29999999701977,1,0,1,18969,WMM2,599846,false,false,669,image-keyboard-response,28
true,5,0,1,0,true,q,false,true,0.0-2.0-0.21-0.191-3.191,0,0,1,81,false,stim,false,0,307.20000000298023,1,1,2,18969,WMM2,601685,false,false,672,image-keyboard-response,29
true,5,0,1,0,true,q,false,true,0.0-2.0-0.21-0.192-3.192,0,0,1,81,false,stim,false,0,363.1000000014901,1,1,2,18969,WMM2,603567,false,false,675,image-keyboard-response,30
true,5,2,1,2,true,d,false,true,0.0-2.0-0.21-0.193-3.193,0,0,1,68,false,stim,false,0,406.5,1,1,0,18969,WMM2,605506,false,false,678,image-keyboard-response,31
true,5,2,1,2,true,d,false,true,0.0-2.0-0.21-0.194-3.194,0,0,1,68,false,stim,false,0,443.09999999403954,1,1,0,18969,WMM2,607476,false,false,681,image-keyboard-response,32
true,5,0,1,0,true,q,false,true,0.0-2.0-0.21-0.195-3.195,0,0,1,81,false,stim,false,2,320.3999999985099,1,0,1,18969,WMM2,609326,false,false,684,image-keyboard-response,33
true,5,2,1,2,true,d,false,true,0.0-2.0-0.21-0.196-3.196,0,0,1,68,false,stim,false,0,590.0,1,1,0,18969,WMM2,611436,false,false,687,image-keyboard-response,34
true,5,0,1,0,true,q,false,true,0.0-2.0-0.21-0.197-3.197,0,0,1,81,false,stim,false,0,310.20000000298023,1,0,2,18969,WMM2,613266,false,false,690,image-keyboard-response,35
true,5,0,1,0,true,q,false,true,0.0-2.0-0.22-0.198-3.198,0,0,1,81,false,stim,false,2,369.5,1,0,1,18969,WMM2,615167,false,false,693,image-keyboard-response,36
true,5,0,1,0,true,q,false,true,0.0-2.0-0.22-0.199-3.199,0,0,1,81,false,stim,false,0,266.19999999552965,1,0,2,18969,WMM2,616955,false,false,696,image-keyboard-response,37
true,5,0,1,2,false,d,false,false,0.0-2.0-0.22-0.200-3.200,0,0,1,81,false,stim,true,0,301.3999999985099,1,1,0,18969,WMM2,618766,false,false,699,image-keyboard-response,38
true,5,0,1,0,true,q,false,true,0.0-2.0-0.22-0.201-3.201,0,0,1,81,false,stim,false,0,361.20000000298023,1,0,2,18969,WMM2,620666,false,false,702,image-keyboard-response,39
true,5,2,1,2,true,d,false,true,0.0-2.0-0.22-0.202-3.202,0,0,1,68,false,stim,false,0,413.19999999552965,1,1,0,18969,WMM2,622596,false,false,705,image-keyboard-response,40
true,6,0,1,1,false,z,false,false,0.0-2.0-0.22-0.203-3.203,1,0,0,81,true,stim,true,0,317.8999999985099,1,0,1,18969,WMM2,624436,false,false,708,image-keyboard-response,1
true,6,0,1,2,false,d,false,false,0.0-2.0-0.22-0.204-3.204,1,0,0,81,false,stim,true,0,888.2000000029802,1,0,2,18969,WMM2,626847,false,false,711,image-keyboard-response,2
true,6,0,1,1,false,z,false,false,0.0-2.0-0.22-0.205-3.205,1,0,0,81,false,stim,true,0,433.70000000298023,1,0,1,18969,WMM2,628806,false,false,714,image-keyboard-response,3
true,6,2,1,2,true,d,false,true,0.0-2.0-0.22-0.206-3.206,1,0,0,68,false,stim,false,2,394.1000000014901,1,1,0,18969,WMM2,630716,false,false,717,image-keyboard-response,4
true,6,0,1,2,false,d,false,false,0.0-2.0-0.23-0.207-3.207,1,0,0,81,false,stim,true,0,223.39999999850988,1,0,2,18969,WMM2,632466,false,false,720,image-keyboard-response,5
true,6,1,1,1,true,z,false,true,0.0-2.0-0.23-0.208-3.208,1,0,0,90,false,stim,false,0,576.3000000044703,1,0,1,18969,WMM2,634566,false,false,723,image-keyboard-response,6
true,6,2,1,2,true,d,false,true,0.0-2.0-0.23-0.209-3.209,1,0,0,68,false,stim,false,2,496.6000000014901,1,1,0,18969,WMM2,636586,false,false,726,image-keyboard-response,7
true,6,2,1,1,false,z,true,false,0.0-2.0-0.23-0.210-3.210,1,0,0,68,false,stim,false,0,489.1000000014901,1,0,1,18969,WMM2,638587,false,false,729,image-keyboard-response,8
true,6,2,1,2,true,d,false,true,0.0-2.0-0.23-0.211-3.211,1,0,0,68,false,stim,false,0,524.1000000014901,1,0,2,18969,WMM2,640636,false,false,732,image-keyboard-response,9
true,6,2,1,2,true,d,false,true,0.0-2.0-0.23-0.212-3.212,1,0,0,68,false,stim,false,0,443.29999999701977,1,0,2,18969,WMM2,642596,false,false,735,image-keyboard-response,10
true,6,1,1,1,true,z,false,true,0.0-2.0-0.23-0.213-3.213,1,0,0,90,false,stim,false,0,352.70000000298023,1,0,1,18969,WMM2,644466,false,false,738,image-keyboard-response,11
true,6,2,1,2,true,d,false,true,0.0-2.0-0.23-0.214-3.214,1,0,0,68,false,stim,false,2,521.8999999985099,1,1,0,18969,WMM2,646516,false,false,741,image-keyboard-response,12
true,6,2,1,2,true,d,false,true,0.0-2.0-0.23-0.215-3.215,1,0,0,68,false,stim,false,2,331.8999999985099,1,1,0,18969,WMM2,648366,false,false,744,image-keyboard-response,13
true,6,2,1,2,true,d,false,true,0.0-2.0-0.24-0.216-3.216,1,0,0,68,false,stim,false,0,666.7999999970198,1,0,2,18969,WMM2,650547,false,false,747,image-keyboard-response,14
true,6,2,1,2,true,d,false,false,0.0-2.0-0.24-0.217-3.217,1,0,0,68,false,stim,false,0,303.29999999701977,1,0,2,18969,WMM2,652366,false,true,750,image-keyboard-response,15
true,6,1,1,1,true,z,false,true,0.0-2.0-0.24-0.218-3.218,1,0,0,90,false,stim,false,0,335.5,1,0,1,18969,WMM2,654226,false,false,753,image-keyboard-response,16
true,6,2,1,2,true,d,false,true,0.0-2.0-0.24-0.219-3.219,1,0,0,68,false,stim,false,0,412.1000000014901,1,0,2,18969,WMM2,656156,false,false,756,image-keyboard-response,17
true,6,1,1,1,true,z,false,true,0.0-2.0-0.24-0.220-3.220,1,0,0,90,false,stim,false,0,346.3999999985099,1,0,1,18969,WMM2,658026,false,false,759,image-keyboard-response,18
true,6,1,1,1,true,z,false,true,0.0-2.0-0.24-0.221-3.221,1,0,0,90,false,stim,false,0,482.70000000298023,1,0,1,18969,WMM2,660027,false,false,762,image-keyboard-response,19
true,6,2,1,2,true,d,false,true,0.0-2.0-0.24-0.222-3.222,1,0,0,68,false,stim,false,2,463.0,1,1,0,18969,WMM2,662007,false,false,765,image-keyboard-response,20
true,6,2,1,2,true,d,false,true,0.0-2.0-0.24-0.223-3.223,1,0,0,68,false,stim,false,2,336.59999999403954,1,0,0,18969,WMM2,663869,false,false,768,image-keyboard-response,21
true,6,2,1,2,true,d,false,true,0.0-2.0-0.24-0.224-3.224,1,0,0,68,false,stim,false,2,386.0,1,0,0,18969,WMM2,665785,false,false,771,image-keyboard-response,22
true,6,2,1,2,true,d,false,false,0.0-2.0-0.25-0.225-3.225,1,0,0,68,false,stim,false,0,638.5,1,1,2,18969,WMM2,667936,false,true,774,image-keyboard-response,23
true,6,2,1,2,true,d,false,true,0.0-2.0-0.25-0.226-3.226,1,0,0,68,false,stim,false,0,359.8999999985099,1,1,2,18969,WMM2,669817,false,false,777,image-keyboard-response,24
true,6,2,1,2,true,d,false,true,0.0-2.0-0.25-0.227-3.227,1,0,0,68,false,stim,false,2,628.8999999985099,1,0,0,18969,WMM2,671966,false,false,780,image-keyboard-response,25
true,6,2,1,2,true,d,false,true,0.0-2.0-0.25-0.228-3.228,1,0,0,68,false,stim,false,0,302.59999999403954,1,1,2,18969,WMM2,673787,false,false,783,image-keyboard-response,26
true,6,1,1,1,true,z,false,true,0.0-2.0-0.25-0.229-3.229,1,0,0,90,false,stim,false,0,527.5,1,1,1,18969,WMM2,675826,false,false,786,image-keyboard-response,27
true,6,2,1,1,false,z,true,false,0.0-2.0-0.25-0.230-3.230,1,0,0,68,false,stim,false,0,339.79999999701977,1,1,1,18969,WMM2,677695,false,false,789,image-keyboard-response,28
true,6,2,1,2,true,d,false,true,0.0-2.0-0.25-0.231-3.231,1,0,0,68,false,stim,false,2,348.3999999985099,1,0,0,18969,WMM2,679567,false,false,792,image-keyboard-response,29
true,6,2,1,2,true,d,false,true,0.0-2.0-0.25-0.232-3.232,1,0,0,68,false,stim,false,2,388.3999999985099,1,0,0,18969,WMM2,681477,false,false,795,image-keyboard-response,30
true,7,1,4,1,true,z,false,true,0.0-2.0-0.25-0.233-3.233,0,1,1,90,true,stim,false,1,405.29999999701977,1,1,1,18969,WMM2,683407,false,false,798,image-keyboard-response,1
true,7,1,4,1,true,z,false,true,0.0-2.0-0.26-0.234-3.234,0,1,1,90,false,stim,false,1,403.19999999552965,1,1,1,18969,WMM2,685337,false,false,801,image-keyboard-response,2
true,7,2,4,2,true,d,false,true,0.0-2.0-0.26-0.235-3.235,0,1,1,68,false,stim,false,2,589.0,1,1,2,18969,WMM2,687457,false,false,804,image-keyboard-response,3
true,7,2,4,2,true,d,false,false,0.0-2.0-0.26-0.236-3.236,0,1,1,68,false,stim,false,2,614.3999999985099,1,0,0,18969,WMM2,689597,false,true,807,image-keyboard-response,4
true,7,2,4,2,true,d,false,true,0.0-2.0-0.26-0.237-3.237,0,1,1,68,false,stim,false,2,458.8999999985099,1,0,0,18969,WMM2,691577,false,false,810,image-keyboard-response,5
true,7,2,4,2,true,d,false,true,0.0-2.0-0.26-0.238-3.238,0,1,1,68,false,stim,false,2,381.1000000014901,1,0,0,18969,WMM2,693487,false,false,813,image-keyboard-response,6
true,7,1,4,1,true,z,false,true,0.0-2.0-0.26-0.239-3.239,0,1,1,90,false,stim,false,1,366.20000000298023,1,1,1,18969,WMM2,695377,false,false,816,image-keyboard-response,7
true,7,2,4,2,true,d,false,true,0.0-2.0-0.26-0.240-3.240,0,1,1,68,false,stim,false,2,462.80000000447035,1,1,2,18969,WMM2,697357,false,false,819,image-keyboard-response,8
true,7,1,4,1,true,z,false,true,0.0-2.0-0.26-0.241-3.241,0,1,1,90,false,stim,false,1,395.1000000014901,1,1,1,18969,WMM2,699277,false,false,822,image-keyboard-response,9
true,7,2,4,2,true,d,false,true,0.0-2.0-0.26-0.242-3.242,0,1,1,68,false,stim,false,2,455.5,1,1,2,18969,WMM2,701247,false,false,825,image-keyboard-response,10
true,7,2,4,2,true,d,false,true,0.0-2.0-0.27-0.243-3.243,0,1,1,68,false,stim,false,2,343.6000000014901,1,1,2,18969,WMM2,703107,false,false,828,image-keyboard-response,11
true,7,1,4,1,true,z,false,true,0.0-2.0-0.27-0.244-3.244,0,1,1,90,false,stim,false,1,579.1000000014901,1,1,1,18969,WMM2,705207,false,false,831,image-keyboard-response,12
true,7,1,4,1,true,z,false,true,0.0-2.0-0.27-0.245-3.245,0,1,1,90,false,stim,false,1,529.3999999985099,1,1,1,18969,WMM2,707256,false,false,834,image-keyboard-response,13
true,7,2,4,2,true,d,false,false,0.0-2.0-0.27-0.246-3.246,0,1,1,68,false,stim,false,2,389.20000000298023,1,0,0,18969,WMM2,709167,false,true,837,image-keyboard-response,14
true,7,2,4,2,true,d,false,true,0.0-2.0-0.27-0.247-3.247,0,1,1,68,false,stim,false,2,526.0,1,1,2,18969,WMM2,711227,false,false,840,image-keyboard-response,15
true,7,1,4,1,true,z,false,true,0.0-2.0-0.27-0.248-3.248,0,1,1,90,false,stim,false,1,432.3999999985099,1,1,1,18969,WMM2,713187,false,false,843,image-keyboard-response,16
true,7,2,4,2,true,d,false,true,0.0-2.0-0.27-0.249-3.249,0,1,1,68,false,stim,false,2,635.0,1,1,2,18969,WMM2,715347,false,false,846,image-keyboard-response,17
true,7,2,4,2,true,d,false,true,0.0-2.0-0.27-0.250-3.250,0,1,1,68,false,stim,false,2,403.79999999701977,1,0,0,18969,WMM2,717267,false,false,849,image-keyboard-response,18
true,7,2,4,2,true,d,false,true,0.0-2.0-0.27-0.251-3.251,0,1,1,68,false,stim,false,2,384.5,1,0,0,18969,WMM2,719168,false,false,852,image-keyboard-response,19
true,7,2,4,2,true,d,false,true,0.0-2.0-0.28-0.252-3.252,0,1,1,68,false,stim,false,2,539.4000000059605,1,0,0,18969,WMM2,721227,false,false,855,image-keyboard-response,20
true,7,2,4,2,true,d,false,true,0.0-2.0-0.28-0.253-3.253,0,1,1,68,false,stim,false,2,459.90000000596046,1,0,0,18969,WMM2,723212,false,false,858,image-keyboard-response,21
true,7,2,4,2,true,d,false,true,0.0-2.0-0.28-0.254-3.254,0,1,1,68,false,stim,false,2,445.5,1,1,2,18969,WMM2,725182,false,false,861,image-keyboard-response,22
true,7,1,4,1,true,z,false,true,0.0-2.0-0.28-0.255-3.255,0,1,1,90,false,stim,false,1,492.3999999985099,1,1,1,18969,WMM2,727193,false,false,864,image-keyboard-response,23
true,7,2,4,1,false,z,true,false,0.0-2.0-0.28-0.256-3.256,0,1,1,68,false,stim,false,1,362.1000000014901,1,1,1,18969,WMM2,729062,false,false,867,image-keyboard-response,24
true,7,2,4,2,true,d,false,true,0.0-2.0-0.28-0.257-3.257,0,1,1,68,false,stim,false,2,390.30000000447035,1,1,2,18969,WMM2,730973,false,false,870,image-keyboard-response,25
true,7,2,4,2,true,d,false,true,0.0-2.0-0.28-0.258-3.258,0,1,1,68,false,stim,false,2,462.8999999985099,1,1,2,18969,WMM2,732952,false,false,873,image-keyboard-response,26
true,7,2,4,2,true,d,false,true,0.0-2.0-0.28-0.259-3.259,0,1,1,68,false,stim,false,2,375.8999999985099,1,0,0,18969,WMM2,734842,false,false,876,image-keyboard-response,27
true,7,1,4,1,true,z,false,true,0.0-2.0-0.28-0.260-3.260,0,1,1,90,false,stim,false,1,370.19999999552965,1,1,1,18969,WMM2,736741,false,false,879,image-keyboard-response,28
true,7,2,4,1,false,z,true,true,0.0-2.0-0.29-0.261-3.261,0,1,1,68,false,stim,false,1,557.3999999985099,1,1,1,18969,WMM2,738822,false,true,882,image-keyboard-response,29
true,7,2,4,2,true,d,false,true,0.0-2.0-0.29-0.262-3.262,0,1,1,68,false,stim,false,2,389.79999999701977,1,1,2,18969,WMM2,740723,false,false,885,image-keyboard-response,30
true,8,2,2,0,false,q,false,false,0.0-2.0-0.29-0.263-3.263,0,1,1,68,true,stim,true,2,412.3999999985099,1,0,0,18969,WMM2,742653,false,false,888,image-keyboard-response,1
true,8,1,2,1,true,z,false,true,0.0-2.0-0.29-0.264-3.264,0,1,1,90,false,stim,false,1,475.8999999985099,1,1,1,18969,WMM2,744652,false,false,891,image-keyboard-response,2
true,8,2,2,2,true,d,false,true,0.0-2.0-0.29-0.265-3.265,0,1,1,68,false,stim,false,2,367.19999999552965,1,1,2,18969,WMM2,746542,false,false,894,image-keyboard-response,3
true,8,1,2,0,false,q,true,false,0.0-2.0-0.29-0.266-3.266,0,1,1,90,false,stim,false,2,296.69999999552965,1,0,0,18969,WMM2,748353,false,false,897,image-keyboard-response,4
true,8,0,2,0,true,q,false,true,0.0-2.0-0.29-0.267-3.267,0,1,1,81,false,stim,false,2,398.3999999985099,1,0,0,18969,WMM2,750282,false,false,900,image-keyboard-response,5
true,8,2,2,2,true,d,false,true,0.0-2.0-0.29-0.268-3.268,0,1,1,68,false,stim,false,2,613.7999999970198,1,1,2,18969,WMM2,752423,false,false,903,image-keyboard-response,6
true,8,1,2,1,true,z,false,true,0.0-2.0-0.29-0.269-3.269,0,1,1,90,false,stim,false,1,304.79999999701977,1,1,1,18969,WMM2,754253,false,false,906,image-keyboard-response,7
true,8,0,2,0,true,q,false,true,0.0-2.0-0.30-0.270-3.270,0,1,1,81,false,stim,false,2,438.1000000014901,1,0,0,18969,WMM2,756223,false,false,909,image-keyboard-response,8
true,8,0,2,0,true,q,false,true,0.0-2.0-0.30-0.271-3.271,0,1,1,81,false,stim,false,2,540.3000000044703,1,0,0,18969,WMM2,758293,false,false,912,image-keyboard-response,9
true,8,2,2,2,true,d,false,true,0.0-2.0-0.30-0.272-3.272,0,1,1,68,false,stim,false,2,429.70000000298023,1,1,2,18969,WMM2,760253,false,false,915,image-keyboard-response,10
true,8,0,2,0,true,q,false,true,0.0-2.0-0.30-0.273-3.273,0,1,1,81,false,stim,false,2,471.5,1,0,0,18969,WMM2,762252,false,false,918,image-keyboard-response,11
true,8,2,2,2,true,d,false,false,0.0-2.0-0.30-0.274-3.274,0,1,1,68,false,stim,false,2,721.7000000029802,1,1,2,18969,WMM2,764503,false,true,921,image-keyboard-response,12
true,8,1,2,1,true,z,false,true,0.0-2.0-0.30-0.275-3.275,0,1,1,90,false,stim,false,1,400.30000000447035,1,1,1,18969,WMM2,766423,false,false,924,image-keyboard-response,13
true,8,1,2,1,true,z,false,true,0.0-2.0-0.30-0.276-3.276,0,1,1,90,false,stim,false,1,377.20000000298023,1,1,1,18969,WMM2,768323,false,false,927,image-keyboard-response,14
true,8,1,2,1,true,z,false,true,0.0-2.0-0.30-0.277-3.277,0,1,1,90,false,stim,false,1,423.30000000447035,1,1,1,18969,WMM2,770263,false,false,930,image-keyboard-response,15
true,8,0,2,2,false,d,true,false,0.0-2.0-0.30-0.278-3.278,0,1,1,81,false,stim,false,2,700.6000000014901,1,1,2,18969,WMM2,772483,false,false,933,image-keyboard-response,16
true,8,1,2,1,true,z,false,true,0.0-2.0-0.31-0.279-3.279,0,1,1,90,false,stim,false,1,410.8999999985099,1,1,1,18969,WMM2,774423,false,false,936,image-keyboard-response,17
true,8,1,2,1,true,z,false,true,0.0-2.0-0.31-0.280-3.280,0,1,1,90,false,stim,false,1,527.3000000044703,1,1,1,18969,WMM2,776473,false,false,939,image-keyboard-response,18
true,8,0,2,0,true,q,false,true,0.0-2.0-0.31-0.281-3.281,0,1,1,81,false,stim,false,2,442.20000000298023,1,0,0,18969,WMM2,778443,false,false,942,image-keyboard-response,19
true,8,1,2,2,false,d,true,false,0.0-2.0-0.31-0.282-3.282,0,1,1,90,false,stim,false,2,338.59999999403954,1,1,2,18969,WMM2,780313,false,false,945,image-keyboard-response,20
true,8,1,2,1,true,z,false,true,0.0-2.0-0.31-0.283-3.283,0,1,1,90,false,stim,false,1,471.6000000014901,1,1,1,18969,WMM2,782313,false,false,948,image-keyboard-response,21
true,8,0,2,0,true,q,false,true,0.0-2.0-0.31-0.284-3.284,0,1,1,81,false,stim,false,2,360.79999999701977,1,0,0,18969,WMM2,784208,false,false,951,image-keyboard-response,22
true,8,0,2,0,true,q,false,true,0.0-2.0-0.31-0.285-3.285,0,1,1,81,false,stim,false,2,705.2000000029802,1,0,0,18969,WMM2,786448,false,false,954,image-keyboard-response,23
true,8,0,2,2,false,d,true,false,0.0-2.0-0.31-0.286-3.286,0,1,1,81,false,stim,false,2,329.3999999985099,1,1,2,18969,WMM2,788299,false,false,957,image-keyboard-response,24
true,8,1,2,2,false,d,true,false,0.0-2.0-0.31-0.287-3.287,0,1,1,90,false,stim,false,2,421.29999999701977,1,1,2,18969,WMM2,790238,false,false,960,image-keyboard-response,25
true,8,0,2,0,true,q,false,true,0.0-2.0-0.32-0.288-3.288,0,1,1,81,false,stim,false,2,660.3999999985099,1,0,0,18969,WMM2,792418,false,false,963,image-keyboard-response,26
true,8,2,2,2,true,d,false,true,0.0-2.0-0.32-0.289-3.289,0,1,1,68,false,stim,false,2,303.80000000447035,1,1,2,18969,WMM2,794248,false,false,966,image-keyboard-response,27
true,8,0,2,0,true,q,false,true,0.0-2.0-0.32-0.290-3.290,0,1,1,81,false,stim,false,2,425.3999999985099,1,0,0,18969,WMM2,796198,false,false,969,image-keyboard-response,28
true,8,2,2,2,true,d,false,true,0.0-2.0-0.32-0.291-3.291,0,1,1,68,false,stim,false,2,578.3000000044703,1,1,2,18969,WMM2,798298,false,false,972,image-keyboard-response,29
true,8,1,2,1,true,z,false,false,0.0-2.0-0.32-0.292-3.292,0,1,1,90,false,stim,false,1,643.0,1,1,1,18969,WMM2,800459,false,true,975,image-keyboard-response,30
true,8,2,2,2,true,d,false,true,0.0-2.0-0.32-0.293-3.293,0,1,1,68,false,stim,false,2,773.1000000014901,1,1,2,18969,WMM2,802758,false,false,978,image-keyboard-response,31
true,8,0,2,0,true,q,false,true,0.0-2.0-0.32-0.294-3.294,0,1,1,81,false,stim,false,2,639.0,1,0,0,18969,WMM2,804918,false,false,981,image-keyboard-response,32
true,8,1,2,1,true,z,false,true,0.0-2.0-0.32-0.295-3.295,0,1,1,90,false,stim,false,1,475.80000000447035,1,1,1,18969,WMM2,806918,false,false,984,image-keyboard-response,33
true,8,1,2,1,true,z,false,true,0.0-2.0-0.32-0.296-3.296,0,1,1,90,false,stim,false,1,435.5,1,1,1,18969,WMM2,808878,false,false,987,image-keyboard-response,34
true,8,2,2,2,true,d,false,true,0.0-2.0-0.33-0.297-3.297,0,1,1,68,false,stim,false,2,635.7000000029802,1,1,2,18969,WMM2,811037,false,false,990,image-keyboard-response,35
true,8,0,2,0,true,q,false,true,0.0-2.0-0.33-0.298-3.298,0,1,1,81,false,stim,false,2,377.5,1,0,0,18969,WMM2,812929,false,false,993,image-keyboard-response,36
true,8,0,2,0,true,q,false,true,0.0-2.0-0.33-0.299-3.299,0,1,1,81,false,stim,false,2,451.0,1,0,0,18969,WMM2,814898,false,false,996,image-keyboard-response,37
true,8,2,2,2,true,d,false,false,0.0-2.0-0.33-0.300-3.300,0,1,1,68,false,stim,false,2,433.90000000596046,1,1,2,18969,WMM2,816858,false,true,999,image-keyboard-response,38
true,8,1,2,1,true,z,false,false,0.0-2.0-0.33-0.301-3.301,0,1,1,90,false,stim,false,1,275.19999999552965,1,1,1,18969,WMM2,818669,false,true,1002,image-keyboard-response,39
true,9,1,4,1,true,z,false,true,0.0-2.0-0.33-0.302-3.302,0,1,1,90,true,stim,false,1,464.79999999701977,1,1,1,18969,WMM2,820649,false,false,1005,image-keyboard-response,1
true,9,1,4,1,true,z,false,true,0.0-2.0-0.33-0.303-3.303,0,1,1,90,false,stim,false,1,412.6000000014901,1,1,1,18969,WMM2,822579,false,false,1008,image-keyboard-response,2
true,9,0,4,0,true,q,false,true,0.0-2.0-0.33-0.304-3.304,0,1,1,81,false,stim,false,0,486.30000000447035,1,0,0,18969,WMM2,824589,false,false,1011,image-keyboard-response,3
true,9,2,4,2,true,d,false,true,0.0-2.0-0.33-0.305-3.305,0,1,1,68,false,stim,false,2,500.69999999552965,1,1,2,18969,WMM2,826619,false,false,1014,image-keyboard-response,4
true,9,1,4,1,true,z,false,false,0.0-2.0-0.34-0.306-3.306,0,1,1,90,false,stim,false,1,863.7999999970198,1,1,1,18969,WMM2,829007,false,true,1017,image-keyboard-response,5
true,9,0,4,1,false,z,true,false,0.0-2.0-0.34-0.307-3.307,0,1,1,81,false,stim,false,1,529.1000000014901,1,1,1,18969,WMM2,831059,false,false,1020,image-keyboard-response,6
true,9,0,4,0,true,q,false,true,0.0-2.0-0.34-0.308-3.308,0,1,1,81,false,stim,false,0,569.7000000029802,1,0,0,18969,WMM2,833149,false,false,1023,image-keyboard-response,7
true,9,0,4,0,true,q,false,false,0.0-2.0-0.34-0.309-3.309,0,1,1,81,false,stim,false,0,603.2000000029802,1,0,0,18969,WMM2,835281,false,true,1026,image-keyboard-response,8
true,9,2,4,2,true,d,false,true,0.0-2.0-0.34-0.310-3.310,0,1,1,68,false,stim,false,2,394.0,1,1,2,18969,WMM2,837199,false,false,1029,image-keyboard-response,9
true,9,1,4,0,false,q,true,false,0.0-2.0-0.34-0.311-3.311,0,1,1,90,false,stim,false,0,539.2000000029802,1,0,0,18969,WMM2,839258,false,false,1032,image-keyboard-response,10
true,9,0,4,2,false,d,true,false,0.0-2.0-0.34-0.312-3.312,0,1,1,81,false,stim,false,2,318.0,1,1,2,18969,WMM2,841099,false,false,1035,image-keyboard-response,11
true,9,2,4,2,true,d,false,true,0.0-2.0-0.34-0.313-3.313,0,1,1,68,false,stim,false,2,1043.2000000029802,1,1,2,18969,WMM2,843658,false,false,1038,image-keyboard-response,12
true,9,1,4,1,true,z,false,false,0.0-2.0-0.34-0.314-3.314,0,1,1,90,false,stim,false,1,461.8999999985099,1,1,1,18969,WMM2,845637,false,true,1041,image-keyboard-response,13
true,9,1,4,1,true,z,false,true,0.0-2.0-0.35-0.315-3.315,0,1,1,90,false,stim,false,1,443.6000000014901,1,1,1,18969,WMM2,847607,false,false,1044,image-keyboard-response,14
true,9,0,4,0,true,q,false,true,0.0-2.0-0.35-0.316-3.316,0,1,1,81,false,stim,false,0,463.30000000447035,1,0,0,18969,WMM2,849588,false,false,1047,image-keyboard-response,15
true,9,0,4,0,true,q,false,true,0.0-2.0-0.35-0.317-3.317,0,1,1,81,false,stim,false,0,346.19999999552965,1,0,0,18969,WMM2,851458,false,false,1050,image-keyboard-response,16
true,9,2,4,2,true,d,false,true,0.0-2.0-0.35-0.318-3.318,0,1,1,68,false,stim,false,2,530.5,1,1,2,18969,WMM2,853507,false,false,1053,image-keyboard-response,17
true,9,1,4,1,true,z,false,true,0.0-2.0-0.35-0.319-3.319,0,1,1,90,false,stim,false,1,694.6999999955297,1,1,1,18969,WMM2,855730,false,false,1056,image-keyboard-response,18
true,9,1,4,1,true,z,false,true,0.0-2.0-0.35-0.320-3.320,0,1,1,90,false,stim,false,1,509.19999999552965,1,1,1,18969,WMM2,857756,false,false,1059,image-keyboard-response,19
true,9,2,4,2,true,d,false,true,0.0-2.0-0.35-0.321-3.321,0,1,1,68,false,stim,false,2,732.5,1,1,2,18969,WMM2,860008,false,false,1062,image-keyboard-response,20
true,9,2,4,2,true,d,false,false,0.0-2.0-0.35-0.322-3.322,0,1,1,68,false,stim,false,2,468.79999999701977,1,0,2,18969,WMM2,861998,false,true,1065,image-keyboard-response,21
true,9,1,4,0,false,q,true,false,0.0-2.0-0.35-0.323-3.323,0,1,1,90,false,stim,false,0,1199.5,1,1,0,18969,WMM2,864728,false,false,1068,image-keyboard-response,22
true,9,0,4,0,true,q,false,true,0.0-2.0-0.36-0.324-3.324,0,1,1,81,false,stim,false,0,537.3999999985099,1,1,0,18969,WMM2,866788,false,false,1071,image-keyboard-response,23
true,9,1,4,1,true,z,false,true,0.0-2.0-0.36-0.325-3.325,0,1,1,90,false,stim,false,1,839.0,1,1,1,18969,WMM2,869157,false,false,1074,image-keyboard-response,24
true,9,1,4,1,true,z,false,true,0.0-2.0-0.36-0.326-3.326,0,1,1,90,false,stim,false,1,487.40000000596046,1,1,1,18969,WMM2,871168,false,false,1077,image-keyboard-response,25
true,9,0,4,0,true,q,false,true,0.0-2.0-0.36-0.327-3.327,0,1,1,81,false,stim,false,0,387.40000000596046,1,1,0,18969,WMM2,873068,false,false,1080,image-keyboard-response,26
true,9,1,4,1,true,z,false,true,0.0-2.0-0.36-0.328-3.328,0,1,1,90,false,stim,false,1,400.19999999552965,1,1,1,18969,WMM2,874988,false,false,1083,image-keyboard-response,27
true,9,2,4,2,true,d,false,false,0.0-2.0-0.36-0.329-3.329,0,1,1,68,false,stim,false,2,406.80000000447035,1,0,2,18969,WMM2,876928,false,true,1086,image-keyboard-response,28
true,9,0,4,0,true,q,false,true,0.0-2.0-0.36-0.330-3.330,0,1,1,81,false,stim,false,0,404.0,1,1,0,18969,WMM2,878858,false,false,1089,image-keyboard-response,29
true,9,1,4,2,false,d,true,false,0.0-2.0-0.36-0.331-3.331,0,1,1,90,false,stim,false,2,376.8999999985099,1,0,2,18969,WMM2,880768,false,false,1092,image-keyboard-response,30
true,10,0,2,1,false,z,true,false,0.0-2.0-0.36-0.332-3.332,1,1,0,81,true,stim,false,2,520.7000000029802,1,0,2,18969,WMM2,882818,false,false,1095,image-keyboard-response,1
true,10,1,2,1,true,z,false,true,0.0-2.0-0.37-0.333-3.333,1,1,0,90,false,stim,false,1,439.5,1,1,1,18969,WMM2,884778,false,false,1098,image-keyboard-response,2
true,10,0,2,0,true,q,false,true,0.0-2.0-0.37-0.334-3.334,1,1,0,81,false,stim,false,0,423.79999999701977,1,1,0,18969,WMM2,886727,false,false,1101,image-keyboard-response,3
true,10,1,2,1,true,z,false,true,0.0-2.0-0.37-0.335-3.335,1,1,0,90,false,stim,false,1,611.0,1,1,1,18969,WMM2,888859,false,false,1104,image-keyboard-response,4
true,10,1,2,1,true,z,false,false,0.0-2.0-0.37-0.336-3.336,1,1,0,90,false,stim,false,2,386.1000000014901,1,0,2,18969,WMM2,890768,false,true,1107,image-keyboard-response,5
true,10,0,2,1,false,z,true,false,0.0-2.0-0.37-0.337-3.337,1,1,0,81,false,stim,false,1,493.80000000447035,1,1,1,18969,WMM2,892798,false,false,1110,image-keyboard-response,6
true,10,0,2,0,true,q,false,true,0.0-2.0-0.37-0.338-3.338,1,1,0,81,false,stim,false,0,573.0,1,1,0,18969,WMM2,894888,false,false,1113,image-keyboard-response,7
true,10,2,2,1,false,z,false,false,0.0-2.0-0.37-0.339-3.339,1,1,0,68,false,stim,true,2,437.70000000298023,1,0,2,18969,WMM2,896848,false,false,1116,image-keyboard-response,8
true,10,0,2,0,true,q,false,true,0.0-2.0-0.37-0.340-3.340,1,1,0,81,false,stim,false,0,380.59999999403954,1,1,0,18969,WMM2,898749,false,false,1119,image-keyboard-response,9
true,10,0,2,1,false,z,true,false,0.0-2.0-0.37-0.341-3.341,1,1,0,81,false,stim,false,2,383.09999999403954,1,0,2,18969,WMM2,900659,false,false,1122,image-keyboard-response,10
true,10,0,2,1,false,z,true,false,0.0-2.0-0.38-0.342-3.342,1,1,0,81,false,stim,false,2,392.70000000298023,1,0,2,18969,WMM2,902577,false,false,1125,image-keyboard-response,11
true,10,0,2,0,true,q,false,true,0.0-2.0-0.38-0.343-3.343,1,1,0,81,false,stim,false,0,562.1999999955297,1,1,0,18969,WMM2,904669,false,false,1128,image-keyboard-response,12
true,10,1,2,1,true,z,false,true,0.0-2.0-0.38-0.344-3.344,1,1,0,90,false,stim,false,2,347.79999999701977,1,0,2,18969,WMM2,906550,false,false,1131,image-keyboard-response,13
true,10,0,2,0,true,q,false,true,0.0-2.0-0.38-0.345-3.345,1,1,0,81,false,stim,false,0,367.69999999552965,1,1,0,18969,WMM2,908429,false,false,1134,image-keyboard-response,14
true,10,1,2,1,true,z,false,false,0.0-2.0-0.38-0.346-3.346,1,1,0,90,false,stim,false,1,381.0,1,1,1,18969,WMM2,910320,false,true,1137,image-keyboard-response,15
true,10,1,2,1,true,z,false,true,0.0-2.0-0.38-0.347-3.347,1,1,0,90,false,stim,false,1,299.30000000447035,1,1,1,18969,WMM2,912140,false,false,1140,image-keyboard-response,16
true,10,1,2,1,true,z,false,false,0.0-2.0-0.38-0.348-3.348,1,1,0,90,false,stim,false,2,338.6000000014901,1,0,2,18969,WMM2,914009,false,true,1143,image-keyboard-response,17
true,10,1,2,0,false,q,true,false,0.0-2.0-0.38-0.349-3.349,1,1,0,90,false,stim,false,0,324.1000000014901,1,1,0,18969,WMM2,915860,false,false,1146,image-keyboard-response,18
true,10,1,2,1,true,z,false,true,0.0-2.0-0.38-0.350-3.350,1,1,0,90,false,stim,false,1,550.7000000029802,1,1,1,18969,WMM2,917928,false,false,1149,image-keyboard-response,19
true,10,1,2,1,true,z,false,true,0.0-2.0-0.39-0.351-3.351,1,1,0,90,false,stim,false,1,343.6000000014901,1,1,1,18969,WMM2,919790,false,false,1152,image-keyboard-response,20
true,10,1,2,1,true,z,false,true,0.0-2.0-0.39-0.352-3.352,1,1,0,90,false,stim,false,1,308.1000000014901,1,1,1,18969,WMM2,921620,false,false,1155,image-keyboard-response,21
true,10,1,2,1,true,z,false,true,0.0-2.0-0.39-0.353-3.353,1,1,0,90,false,stim,false,2,319.5,1,0,2,18969,WMM2,923460,false,false,1158,image-keyboard-response,22
true,10,1,2,1,true,z,false,false,0.0-2.0-0.39-0.354-3.354,1,1,0,90,false,stim,false,1,357.79999999701977,1,1,1,18969,WMM2,925340,false,true,1161,image-keyboard-response,23
true,10,1,2,1,true,z,false,false,0.0-2.0-0.39-0.355-3.355,1,1,0,90,false,stim,false,2,317.70000000298023,1,0,2,18969,WMM2,927180,false,true,1164,image-keyboard-response,24
true,10,1,2,1,true,z,false,true,0.0-2.0-0.39-0.356-3.356,1,1,0,90,false,stim,false,2,369.0,1,0,2,18969,WMM2,929070,false,false,1167,image-keyboard-response,25
true,10,0,2,0,true,q,false,true,0.0-2.0-0.39-0.357-3.357,1,1,0,81,false,stim,false,0,406.1000000014901,1,1,0,18969,WMM2,931010,false,false,1170,image-keyboard-response,26
true,10,0,2,0,true,q,false,true,0.0-2.0-0.39-0.358-3.358,1,1,0,81,false,stim,false,0,407.6000000014901,1,1,0,18969,WMM2,932950,false,false,1173,image-keyboard-response,27
true,10,0,2,0,true,q,false,true,0.0-2.0-0.39-0.359-3.359,1,1,0,81,false,stim,false,0,371.5,1,1,0,18969,WMM2,934840,false,false,1176,image-keyboard-response,28
true,10,1,2,1,true,z,false,false,0.0-2.0-0.40-0.360-3.360,1,1,0,90,false,stim,false,2,1128.8000000044703,1,1,2,18969,WMM2,937490,false,true,1179,image-keyboard-response,29
true,10,1,2,1,true,z,false,true,0.0-2.0-0.40-0.361-3.361,1,1,0,90,false,stim,false,2,525.4000000059605,1,1,2,18969,WMM2,939540,false,false,1182,image-keyboard-response,30
true,10,1,2,1,true,z,false,true,0.0-2.0-0.40-0.362-3.362,1,1,0,90,false,stim,false,2,455.70000000298023,1,1,2,18969,WMM2,941510,false,false,1185,image-keyboard-response,31
true,10,0,2,1,false,z,true,false,0.0-2.0-0.40-0.363-3.363,1,1,0,81,false,stim,false,1,479.1000000014901,1,0,1,18969,WMM2,943520,false,false,1188,image-keyboard-response,32
true,10,0,2,0,true,q,false,true,0.0-2.0-0.40-0.364-3.364,1,1,0,81,false,stim,false,0,493.5,1,1,0,18969,WMM2,945540,false,false,1191,image-keyboard-response,33
true,10,1,2,1,true,z,false,true,0.0-2.0-0.40-0.365-3.365,1,1,0,90,false,stim,false,1,669.7000000029802,1,0,1,18969,WMM2,947739,false,false,1194,image-keyboard-response,34
true,10,1,2,1,true,z,false,true,0.0-2.0-0.40-0.366-3.366,1,1,0,90,false,stim,false,1,452.19999999552965,1,0,1,18969,WMM2,949710,false,false,1197,image-keyboard-response,35
true,10,0,2,0,true,q,false,false,0.0-2.0-0.40-0.367-3.367,1,1,0,81,false,stim,false,0,447.8999999985099,1,1,0,18969,WMM2,951679,false,true,1200,image-keyboard-response,36
true,10,0,2,0,true,q,false,false,0.0-2.0-0.40-0.368-3.368,1,1,0,81,false,stim,false,0,726.8999999985099,1,1,0,18969,WMM2,953919,false,true,1203,image-keyboard-response,37
true,11,0,3,0,true,q,false,true,0.0-2.0-0.41-0.369-3.369,1,0,1,81,true,stim,false,0,376.8999999985099,1,1,0,18969,WMM2,955821,false,false,1206,image-keyboard-response,1
true,11,0,3,0,true,q,false,true,0.0-2.0-0.41-0.370-3.370,1,0,1,81,false,stim,false,0,488.69999999552965,1,1,0,18969,WMM2,957830,false,false,1209,image-keyboard-response,2
true,11,1,3,0,false,q,false,false,0.0-2.0-0.41-0.371-3.371,1,0,1,90,false,stim,true,1,575.6000000014901,1,0,1,18969,WMM2,959930,false,false,1212,image-keyboard-response,3
true,11,0,3,0,true,q,false,true,0.0-2.0-0.41-0.372-3.372,1,0,1,81,false,stim,false,0,621.3999999985099,1,1,0,18969,WMM2,962070,false,false,1215,image-keyboard-response,4
true,11,1,3,1,true,z,false,true,0.0-2.0-0.41-0.373-3.373,1,0,1,90,false,stim,false,1,706.0,1,1,2,18969,WMM2,964285,false,false,1218,image-keyboard-response,5
true,11,1,3,1,true,z,false,true,0.0-2.0-0.41-0.374-3.374,1,0,1,90,false,stim,false,1,388.69999999552965,1,1,2,18969,WMM2,966196,false,false,1221,image-keyboard-response,6
true,11,1,3,1,true,z,false,false,0.0-2.0-0.41-0.375-3.375,1,0,1,90,false,stim,false,1,369.30000000447035,1,1,2,18969,WMM2,968086,false,true,1224,image-keyboard-response,7
true,11,1,3,0,false,q,false,true,0.0-2.0-0.41-0.376-3.376,1,0,1,90,false,stim,true,1,476.5,1,0,1,18969,WMM2,970085,false,true,1227,image-keyboard-response,8
true,11,1,3,0,false,q,false,false,0.0-2.0-0.41-0.377-3.377,1,0,1,90,false,stim,true,1,386.1000000014901,1,0,1,18969,WMM2,971996,false,false,1230,image-keyboard-response,9
true,11,0,3,0,true,q,false,true,0.0-2.0-0.42-0.378-3.378,1,0,1,81,false,stim,false,0,606.1999999955297,1,1,0,18969,WMM2,974125,false,false,1233,image-keyboard-response,10
true,11,0,3,0,true,q,false,true,0.0-2.0-0.42-0.379-3.379,1,0,1,81,false,stim,false,0,424.80000000447035,1,1,0,18969,WMM2,976076,false,false,1236,image-keyboard-response,11
true,11,1,3,1,true,z,false,true,0.0-2.0-0.42-0.380-3.380,1,0,1,90,false,stim,false,1,417.0,1,1,2,18969,WMM2,978005,false,false,1239,image-keyboard-response,12
true,11,1,3,1,true,z,false,true,0.0-2.0-0.42-0.381-3.381,1,0,1,90,false,stim,false,1,421.0,1,1,2,18969,WMM2,979956,false,false,1242,image-keyboard-response,13
true,11,0,3,0,true,q,false,true,0.0-2.0-0.42-0.382-3.382,1,0,1,81,false,stim,false,1,424.1000000014901,1,0,1,18969,WMM2,981906,false,false,1245,image-keyboard-response,14
true,11,1,3,1,true,z,false,false,0.0-2.0-0.42-0.383-3.383,1,0,1,90,false,stim,false,1,446.29999999701977,1,1,2,18969,WMM2,983876,false,true,1248,image-keyboard-response,15
true,11,0,3,0,true,q,false,true,0.0-2.0-0.42-0.384-3.384,1,0,1,81,false,stim,false,0,762.0999999940395,1,1,0,18969,WMM2,986166,false,false,1251,image-keyboard-response,16
true,11,1,3,0,false,q,false,false,0.0-2.0-0.42-0.385-3.385,1,0,1,90,false,stim,true,1,937.6000000014901,1,0,1,18969,WMM2,988636,false,false,1254,image-keyboard-response,17
true,11,1,3,0,false,q,false,false,0.0-2.0-0.42-0.386-3.386,1,0,1,90,false,stim,true,1,1183.7000000029802,1,0,1,18969,WMM2,991336,false,false,1257,image-keyboard-response,18
true,11,1,3,1,true,z,false,true,0.0-2.0-0.43-0.387-3.387,1,0,1,90,false,stim,false,1,875.3999999985099,1,1,2,18969,WMM2,993736,false,false,1260,image-keyboard-response,19
true,11,1,3,0,false,q,false,true,0.0-2.0-0.43-0.388-3.388,1,0,1,90,false,stim,true,1,384.70000000298023,1,0,1,18969,WMM2,995646,false,true,1263,image-keyboard-response,20
true,11,1,3,0,false,q,false,false,0.0-2.0-0.43-0.389-3.389,1,0,1,90,false,stim,true,1,350.5,1,0,1,18969,WMM2,997516,false,false,1266,image-keyboard-response,21
true,11,1,3,1,true,z,false,true,0.0-2.0-0.43-0.390-3.390,1,0,1,90,false,stim,false,1,599.8000000044703,1,1,2,18969,WMM2,999636,false,false,1269,image-keyboard-response,22
true,11,1,3,1,true,z,false,true,0.0-2.0-0.43-0.391-3.391,1,0,1,90,false,stim,false,1,389.19999999552965,1,1,2,18969,WMM2,1001546,false,false,1272,image-keyboard-response,23
true,11,1,3,0,false,q,false,false,0.0-2.0-0.43-0.392-3.392,1,0,1,90,false,stim,true,1,342.80000000447035,1,0,1,18969,WMM2,1003406,false,false,1275,image-keyboard-response,24
true,11,0,3,0,true,q,false,true,0.0-2.0-0.43-0.393-3.393,1,0,1,81,false,stim,false,0,424.79999999701977,1,1,0,18969,WMM2,1005356,false,false,1278,image-keyboard-response,25
true,11,0,3,0,true,q,false,true,0.0-2.0-0.43-0.394-3.394,1,0,1,81,false,stim,false,0,857.1999999955297,1,1,0,18969,WMM2,1007735,false,false,1281,image-keyboard-response,26
true,11,0,3,0,true,q,false,true,0.0-2.0-0.43-0.395-3.395,1,0,1,81,false,stim,false,0,635.6000000014901,1,1,0,18969,WMM2,1009906,false,false,1284,image-keyboard-response,27
true,11,1,3,1,true,z,false,true,0.0-2.0-0.44-0.396-3.396,1,0,1,90,false,stim,false,1,385.5,1,1,2,18969,WMM2,1011826,false,false,1287,image-keyboard-response,28
true,11,0,3,0,true,q,false,true,0.0-2.0-0.44-0.397-3.397,1,0,1,81,false,stim,false,0,608.3000000044703,1,1,0,18969,WMM2,1013956,false,false,1290,image-keyboard-response,29
true,11,0,3,0,true,q,false,true,0.0-2.0-0.44-0.398-3.398,1,0,1,81,false,stim,false,0,574.1999999955297,1,1,0,18969,WMM2,1016056,false,false,1293,image-keyboard-response,30
true,11,0,3,0,true,q,false,true,0.0-2.0-0.44-0.399-3.399,1,0,1,81,false,stim,false,1,338.5,1,0,1,18969,WMM2,1017926,false,false,1296,image-keyboard-response,31
true,11,1,3,1,true,z,false,false,0.0-2.0-0.44-0.400-3.400,1,0,1,90,false,stim,false,1,532.3999999985099,1,1,2,18969,WMM2,1019987,false,true,1299,image-keyboard-response,32
true,11,0,3,0,true,q,false,true,0.0-2.0-0.44-0.401-3.401,1,0,1,81,false,stim,false,1,327.1000000014901,1,0,1,18969,WMM2,1021836,false,false,1302,image-keyboard-response,33
true,11,0,3,0,true,q,false,true,0.0-2.0-0.44-0.402-3.402,1,0,1,81,false,stim,false,1,692.6000000014901,1,1,1,18969,WMM2,1024056,false,false,1305,image-keyboard-response,34
true,11,0,3,0,true,q,false,true,0.0-2.0-0.44-0.403-3.403,1,0,1,81,false,stim,false,0,437.29999999701977,1,0,0,18969,WMM2,1026031,false,false,1308,image-keyboard-response,35
true,11,2,3,1,false,z,true,false,0.0-2.0-0.44-0.404-3.404,1,0,1,68,false,stim,false,1,317.09999999403954,1,1,2,18969,WMM2,1027871,false,false,1311,image-keyboard-response,36
true,11,2,3,1,false,z,true,true,0.0-2.0-0.45-0.405-3.405,1,0,1,68,false,stim,false,1,448.59999999403954,1,1,2,18969,WMM2,1029841,false,true,1314,image-keyboard-response,37
true,11,2,3,1,false,z,true,false,0.0-2.0-0.45-0.406-3.406,1,0,1,68,false,stim,false,1,355.0,1,1,2,18969,WMM2,1031721,false,false,1317,image-keyboard-response,38
true,11,0,3,0,true,q,false,true,0.0-2.0-0.45-0.407-3.407,1,0,1,81,false,stim,false,0,423.59999999403954,1,0,0,18969,WMM2,1033671,false,false,1320,image-keyboard-response,39
true,11,0,3,0,true,q,false,true,0.0-2.0-0.45-0.408-3.408,1,0,1,81,false,stim,false,1,306.6000000014901,1,1,1,18969,WMM2,1035501,false,false,1323,image-keyboard-response,40
true,11,0,3,0,true,q,false,true,0.0-2.0-0.45-0.409-3.409,1,0,1,81,false,stim,false,1,356.80000000447035,1,1,1,18969,WMM2,1037379,false,false,1326,image-keyboard-response,41
true,11,2,3,1,false,z,true,true,0.0-2.0-0.45-0.410-3.410,1,0,1,68,false,stim,false,1,365.59999999403954,1,1,2,18969,WMM2,1039271,false,true,1329,image-keyboard-response,42
true,11,0,3,0,true,q,false,true,0.0-2.0-0.45-0.411-3.411,1,0,1,81,false,stim,false,0,371.79999999701977,1,0,0,18969,WMM2,1041171,false,false,1332,image-keyboard-response,43
true,12,0,3,1,false,z,false,true,0.0-2.0-0.45-0.412-3.412,0,1,1,81,true,stim,true,0,291.0,1,0,0,18969,WMM2,1042982,false,true,1335,image-keyboard-response,1
true,12,0,3,0,true,q,false,true,0.0-2.0-0.45-0.413-3.413,0,1,1,81,false,stim,false,0,436.0,1,1,1,18969,WMM2,1044941,false,false,1338,image-keyboard-response,2
true,12,2,3,1,false,z,true,false,0.0-2.0-0.46-0.414-3.414,0,1,1,68,false,stim,false,1,485.59999999403954,1,1,2,18969,WMM2,1046951,false,false,1341,image-keyboard-response,3
true,12,0,3,0,true,q,false,true,0.0-2.0-0.46-0.415-3.415,0,1,1,81,false,stim,false,0,371.5,1,1,1,18969,WMM2,1048851,false,false,1344,image-keyboard-response,4
true,12,0,3,0,true,q,false,false,0.0-2.0-0.46-0.416-3.416,0,1,1,81,false,stim,false,0,365.29999999701977,1,1,1,18969,WMM2,1050741,false,true,1347,image-keyboard-response,5
true,12,0,3,1,false,z,false,false,0.0-2.0-0.46-0.417-3.417,0,1,1,81,false,stim,true,0,412.8999999985099,1,0,0,18969,WMM2,1052671,false,false,1350,image-keyboard-response,6
true,12,0,3,0,true,q,false,true,0.0-2.0-0.46-0.418-3.418,0,1,1,81,false,stim,false,0,343.30000000447035,1,1,1,18969,WMM2,1054532,false,false,1353,image-keyboard-response,7
true,12,2,3,1,false,z,true,true,0.0-2.0-0.46-0.419-3.419,0,1,1,68,false,stim,false,1,315.1000000014901,1,1,2,18969,WMM2,1056371,false,true,1356,image-keyboard-response,8
true,12,0,3,1,false,z,false,false,0.0-2.0-0.46-0.420-3.420,0,1,1,81,false,stim,true,0,225.90000000596046,1,0,0,18969,WMM2,1058111,false,false,1359,image-keyboard-response,9
true,12,0,3,1,false,z,false,false,0.0-2.0-0.46-0.421-3.421,0,1,1,81,false,stim,true,0,320.30000000447035,1,0,0,18969,WMM2,1059951,false,false,1362,image-keyboard-response,10
true,12,0,3,1,false,z,true,false,0.0-2.0-0.46-0.422-3.422,0,1,1,81,false,stim,false,1,299.6000000014901,1,1,2,18969,WMM2,1061771,false,false,1365,image-keyboard-response,11
true,12,0,3,1,false,z,false,false,0.0-2.0-0.47-0.423-3.423,0,1,1,81,false,stim,true,0,303.70000000298023,1,0,0,18969,WMM2,1063591,false,false,1368,image-keyboard-response,12
true,12,1,3,0,false,q,true,false,0.0-2.0-0.47-0.424-3.424,0,1,1,90,false,stim,false,0,436.6000000014901,1,1,1,18969,WMM2,1065562,false,false,1371,image-keyboard-response,13
true,12,0,3,0,true,q,false,true,0.0-2.0-0.47-0.425-3.425,0,1,1,81,false,stim,false,0,602.7999999970198,1,1,1,18969,WMM2,1067690,false,false,1374,image-keyboard-response,14
true,12,1,3,1,true,z,false,true,0.0-2.0-0.47-0.426-3.426,0,1,1,90,false,stim,false,0,416.40000000596046,1,0,0,18969,WMM2,1069631,false,false,1377,image-keyboard-response,15
true,12,2,3,1,false,z,true,false,0.0-2.0-0.47-0.427-3.427,0,1,1,68,false,stim,false,1,287.40000000596046,1,1,2,18969,WMM2,1071443,false,false,1380,image-keyboard-response,16
true,12,1,3,1,true,z,false,true,0.0-2.0-0.47-0.428-3.428,0,1,1,90,false,stim,false,1,731.2000000029802,1,1,2,18969,WMM2,1073702,false,false,1383,image-keyboard-response,17
true,12,1,3,1,true,z,false,true,0.0-2.0-0.47-0.429-3.429,0,1,1,90,false,stim,false,0,368.09999999403954,1,0,0,18969,WMM2,1075592,false,false,1386,image-keyboard-response,18
true,12,0,3,0,true,q,false,false,0.0-2.0-0.47-0.430-3.430,0,1,1,81,false,stim,false,0,363.30000000447035,1,1,1,18969,WMM2,1077482,false,true,1389,image-keyboard-response,19
true,12,1,3,1,true,z,false,true,0.0-2.0-0.47-0.431-3.431,0,1,1,90,false,stim,false,1,657.7000000029802,1,1,2,18969,WMM2,1079671,false,false,1392,image-keyboard-response,20
true,12,1,3,0,false,q,true,false,0.0-2.0-0.48-0.432-3.432,0,1,1,90,false,stim,false,0,360.0,1,1,1,18969,WMM2,1081561,false,false,1395,image-keyboard-response,21
true,12,0,3,1,false,z,true,false,0.0-2.0-0.48-0.433-3.433,0,1,1,81,false,stim,false,1,339.20000000298023,1,0,2,18969,WMM2,1083421,false,false,1398,image-keyboard-response,22
true,12,1,3,1,true,z,false,true,0.0-2.0-0.48-0.434-3.434,0,1,1,90,false,stim,false,1,657.3999999985099,1,0,2,18969,WMM2,1085609,false,false,1401,image-keyboard-response,23
true,12,0,3,0,true,q,false,true,0.0-2.0-0.48-0.435-3.435,0,1,1,81,false,stim,false,0,484.29999999701977,1,1,1,18969,WMM2,1087619,false,false,1404,image-keyboard-response,24
true,12,1,3,1,true,z,false,true,0.0-2.0-0.48-0.436-3.436,0,1,1,90,false,stim,false,1,450.8999999985099,1,0,2,18969,WMM2,1089599,false,false,1407,image-keyboard-response,25
true,12,1,3,1,true,z,false,true,0.0-2.0-0.48-0.437-3.437,0,1,1,90,false,stim,false,0,385.6000000014901,1,1,0,18969,WMM2,1091509,false,false,1410,image-keyboard-response,26
true,12,0,3,0,true,q,false,true,0.0-2.0-0.48-0.438-3.438,0,1,1,81,false,stim,false,0,550.7000000029802,1,1,1,18969,WMM2,1093579,false,false,1413,image-keyboard-response,27
true,12,1,3,1,true,z,false,false,0.0-2.0-0.48-0.439-3.439,0,1,1,90,false,stim,false,0,661.7999999970198,1,1,0,18969,WMM2,1095770,false,true,1416,image-keyboard-response,28
true,12,1,3,1,true,z,false,true,0.0-2.0-0.48-0.440-3.440,0,1,1,90,false,stim,false,0,394.0,1,1,0,18969,WMM2,1097678,false,false,1419,image-keyboard-response,29
true,12,1,3,1,true,z,false,true,0.0-2.0-0.49-0.441-3.441,0,1,1,90,false,stim,false,0,363.8999999985099,1,1,0,18969,WMM2,1099569,false,false,1422,image-keyboard-response,30
true,13,1,4,1,true,z,false,true,0.0-2.0-0.49-0.442-3.442,1,1,0,90,true,stim,false,1,769.2000000029802,1,0,2,18969,WMM2,1101869,false,false,1425,image-keyboard-response,1
true,13,1,4,1,true,z,false,true,0.0-2.0-0.49-0.443-3.443,1,1,0,90,false,stim,false,1,564.9000000059605,1,0,2,18969,WMM2,1103958,false,false,1428,image-keyboard-response,2
true,13,0,4,0,true,q,false,true,0.0-2.0-0.49-0.444-3.444,1,1,0,81,false,stim,false,0,591.9000000059605,1,1,1,18969,WMM2,1106079,false,false,1431,image-keyboard-response,3
true,13,1,4,1,true,z,false,true,0.0-2.0-0.49-0.445-3.445,1,1,0,90,false,stim,false,1,459.8999999985099,1,1,0,18969,WMM2,1108069,false,false,1434,image-keyboard-response,4
true,13,0,4,0,true,q,false,true,0.0-2.0-0.49-0.446-3.446,1,1,0,81,false,stim,false,0,841.0,1,1,1,18969,WMM2,1110429,false,false,1437,image-keyboard-response,5
true,13,0,4,0,true,q,false,true,0.0-2.0-0.49-0.447-3.447,1,1,0,81,false,stim,false,0,441.79999999701977,1,1,1,18969,WMM2,1112389,false,false,1440,image-keyboard-response,6
true,13,1,4,1,true,z,false,true,0.0-2.0-0.49-0.448-3.448,1,1,0,90,false,stim,false,1,464.3999999985099,1,0,2,18969,WMM2,1114369,false,false,1443,image-keyboard-response,7
true,13,1,4,1,true,z,false,false,0.0-2.0-0.49-0.449-3.449,1,1,0,90,false,stim,false,1,545.1000000014901,1,1,0,18969,WMM2,1116439,false,true,1446,image-keyboard-response,8
true,13,0,4,0,true,q,false,false,0.0-2.0-0.50-0.450-3.450,1,1,0,81,false,stim,false,0,450.5,1,1,1,18969,WMM2,1118409,false,true,1449,image-keyboard-response,9
true,13,1,4,1,true,z,false,true,0.0-2.0-0.50-0.451-3.451,1,1,0,90,false,stim,false,1,733.1999999955297,1,0,2,18969,WMM2,1120669,false,false,1452,image-keyboard-response,10
true,13,1,4,1,true,z,false,true,0.0-2.0-0.50-0.452-3.452,1,1,0,90,false,stim,false,1,362.70000000298023,1,0,2,18969,WMM2,1122550,false,false,1455,image-keyboard-response,11
true,13,0,4,0,true,q,false,true,0.0-2.0-0.50-0.453-3.453,1,1,0,81,false,stim,false,0,341.20000000298023,1,1,1,18969,WMM2,1124428,false,false,1458,image-keyboard-response,12
true,13,1,4,1,true,z,false,true,0.0-2.0-0.50-0.454-3.454,1,1,0,90,false,stim,false,1,302.0,1,1,0,18969,WMM2,1126249,false,false,1461,image-keyboard-response,13
true,13,1,4,1,true,z,false,true,0.0-2.0-0.50-0.455-3.455,1,1,0,90,false,stim,false,1,386.90000000596046,1,1,0,18969,WMM2,1128149,false,false,1464,image-keyboard-response,14
true,13,0,4,0,true,q,false,true,0.0-2.0-0.50-0.456-3.456,1,1,0,81,false,stim,false,0,731.1000000014901,1,1,1,18969,WMM2,1130399,false,false,1467,image-keyboard-response,15
true,13,1,4,1,true,z,false,true,0.0-2.0-0.50-0.457-3.457,1,1,0,90,false,stim,false,1,472.1000000014901,1,1,0,18969,WMM2,1132399,false,false,1470,image-keyboard-response,16
true,13,1,4,1,true,z,false,true,0.0-2.0-0.50-0.458-3.458,1,1,0,90,false,stim,false,1,383.79999999701977,1,0,2,18969,WMM2,1134309,false,false,1473,image-keyboard-response,17
true,13,0,4,0,true,q,false,true,0.0-2.0-0.51-0.459-3.459,1,1,0,81,false,stim,false,0,328.6000000014901,1,1,1,18969,WMM2,1136159,false,false,1476,image-keyboard-response,18
true,13,0,4,0,true,q,false,false,0.0-2.0-0.51-0.460-3.460,1,1,0,81,false,stim,false,0,372.5,1,1,1,18969,WMM2,1138049,false,true,1479,image-keyboard-response,19
true,13,1,4,1,true,z,false,true,0.0-2.0-0.51-0.461-3.461,1,1,0,90,false,stim,false,1,450.3999999985099,1,0,2,18969,WMM2,1140030,false,false,1482,image-keyboard-response,20
true,13,1,4,1,true,z,false,true,0.0-2.0-0.51-0.462-3.462,1,1,0,90,false,stim,false,1,393.29999999701977,1,0,2,18969,WMM2,1141949,false,false,1485,image-keyboard-response,21
true,13,0,4,0,true,q,false,true,0.0-2.0-0.51-0.463-3.463,1,1,0,81,false,stim,false,0,564.7000000029802,1,1,1,18969,WMM2,1144029,false,false,1488,image-keyboard-response,22
true,13,1,4,1,true,z,false,true,0.0-2.0-0.51-0.464-3.464,1,1,0,90,false,stim,false,1,476.1000000014901,1,0,2,18969,WMM2,1146022,false,false,1491,image-keyboard-response,23
true,13,0,4,1,false,z,true,false,0.0-2.0-0.51-0.465-3.465,1,1,0,81,false,stim,false,1,445.80000000447035,1,1,0,18969,WMM2,1147992,false,false,1494,image-keyboard-response,24
true,13,0,4,1,false,z,true,false,0.0-2.0-0.51-0.466-3.466,1,1,0,81,false,stim,false,1,435.40000000596046,1,1,0,18969,WMM2,1149942,false,false,1497,image-keyboard-response,25
true,13,0,4,1,false,z,true,true,0.0-2.0-0.51-0.467-3.467,1,1,0,81,false,stim,false,1,434.70000000298023,1,1,0,18969,WMM2,1151903,false,true,1500,image-keyboard-response,26
true,13,1,4,0,false,q,true,false,0.0-2.0-0.52-0.468-3.468,1,1,0,90,false,stim,false,0,599.6999999955297,1,1,1,18969,WMM2,1154042,false,false,1503,image-keyboard-response,27
true,13,1,4,0,false,q,true,false,0.0-2.0-0.52-0.469-3.469,1,1,0,90,false,stim,false,0,331.6000000014901,1,1,1,18969,WMM2,1155892,false,false,1506,image-keyboard-response,28
true,13,1,4,1,true,z,false,true,0.0-2.0-0.52-0.470-3.470,1,1,0,90,false,stim,false,1,319.5,1,1,0,18969,WMM2,1157721,false,false,1509,image-keyboard-response,29
true,13,0,4,0,true,q,false,true,0.0-2.0-0.52-0.471-3.471,1,1,0,81,false,stim,false,0,377.20000000298023,1,1,1,18969,WMM2,1159622,false,false,1512,image-keyboard-response,30
true,14,1,0,1,true,z,false,true,0.0-2.0-0.52-0.472-3.472,1,1,0,90,true,stim,false,1,1265.5,1,0,2,18969,WMM2,1283645,false,false,1635,image-keyboard-response,1
true,14,0,0,1,false,z,true,false,0.0-2.0-0.52-0.473-3.473,1,1,0,81,false,stim,false,1,582.7000000029802,1,1,0,18969,WMM2,1285743,false,false,1638,image-keyboard-response,2
true,14,0,0,1,false,z,true,false,0.0-2.0-0.52-0.474-3.474,1,1,0,81,false,stim,false,1,1098.0999999940395,1,1,0,18969,WMM2,1288363,false,false,1641,image-keyboard-response,3
true,14,2,0,1,false,z,true,true,0.0-2.0-0.52-0.475-3.475,1,1,0,68,false,stim,false,1,401.79999999701977,1,0,2,18969,WMM2,1290282,false,true,1644,image-keyboard-response,4
true,14,1,0,1,true,z,false,true,0.0-2.0-0.52-0.476-3.476,1,1,0,90,false,stim,false,1,632.7999999970198,1,0,2,18969,WMM2,1292432,false,false,1647,image-keyboard-response,5
true,14,0,0,1,false,z,true,false,0.0-2.0-0.53-0.477-3.477,1,1,0,81,false,stim,false,1,650.7000000029802,1,1,0,18969,WMM2,1294614,false,false,1650,image-keyboard-response,6
true,14,1,0,1,true,z,false,true,0.0-2.0-0.53-0.478-3.478,1,1,0,90,false,stim,false,1,1319.5,1,1,0,18969,WMM2,1297443,false,false,1653,image-keyboard-response,7
true,14,1,0,1,true,z,false,true,0.0-2.0-0.53-0.479-3.479,1,1,0,90,false,stim,false,1,342.69999999552965,1,0,2,18969,WMM2,1299304,false,false,1656,image-keyboard-response,8
true,14,2,0,1,false,z,true,false,0.0-2.0-0.53-0.480-3.480,1,1,0,68,false,stim,false,1,383.59999999403954,1,0,2,18969,WMM2,1301213,false,false,1659,image-keyboard-response,9
true,14,2,0,0,false,q,true,false,0.0-2.0-0.53-0.481-3.481,1,1,0,68,false,stim,false,0,600.1000000014901,1,1,1,18969,WMM2,1303343,false,false,1662,image-keyboard-response,10
true,14,1,0,0,false,q,true,false,0.0-2.0-0.53-0.482-3.482,1,1,0,90,false,stim,false,0,593.0999999940395,1,1,1,18969,WMM2,1305454,false,false,1665,image-keyboard-response,11
true,14,0,0,0,true,q,false,false,0.0-2.0-0.53-0.483-3.483,1,1,0,81,false,stim,false,0,684.2000000029802,1,1,1,18969,WMM2,1307662,false,true,1668,image-keyboard-response,12
true,14,1,0,1,true,z,false,true,0.0-2.0-0.53-0.484-3.484,1,1,0,90,false,stim,false,1,542.5,1,0,2,18969,WMM2,1309724,false,false,1671,image-keyboard-response,13
true,14,1,0,1,true,z,false,true,0.0-2.0-0.53-0.485-3.485,1,1,0,90,false,stim,false,1,283.6000000014901,1,1,0,18969,WMM2,1311534,false,false,1674,image-keyboard-response,14
true,14,1,0,1,true,z,false,true,0.0-2.0-0.54-0.486-3.486,1,1,0,90,false,stim,false,1,479.70000000298023,1,1,0,18969,WMM2,1313543,false,false,1677,image-keyboard-response,15
true,14,1,0,0,false,q,true,false,0.0-2.0-0.54-0.487-3.487,1,1,0,90,false,stim,false,0,500.80000000447035,1,1,1,18969,WMM2,1315564,false,false,1680,image-keyboard-response,16
true,14,0,0,0,true,q,false,true,0.0-2.0-0.54-0.488-3.488,1,1,0,81,false,stim,false,0,510.90000000596046,1,1,1,18969,WMM2,1317603,false,false,1683,image-keyboard-response,17
true,14,0,0,0,true,q,false,true,0.0-2.0-0.54-0.489-3.489,1,1,0,81,false,stim,false,0,483.1000000014901,1,1,1,18969,WMM2,1319613,false,false,1686,image-keyboard-response,18
true,14,1,0,1,true,z,false,true,0.0-2.0-0.54-0.490-3.490,1,1,0,90,false,stim,false,1,470.8999999985099,1,0,2,18969,WMM2,1321603,false,false,1689,image-keyboard-response,19
true,14,1,0,1,true,z,false,true,0.0-2.0-0.54-0.491-3.491,1,1,0,90,false,stim,false,1,339.19999999552965,1,1,0,18969,WMM2,1323473,false,false,1692,image-keyboard-response,20
true,14,1,0,1,true,z,false,false,0.0-2.0-0.54-0.492-3.492,1,1,0,90,false,stim,false,1,513.5,1,1,2,18969,WMM2,1325513,false,true,1695,image-keyboard-response,21
true,14,1,0,1,true,z,false,true,0.0-2.0-0.54-0.493-3.493,1,1,0,90,false,stim,false,1,351.8999999985099,1,1,2,18969,WMM2,1327394,false,false,1698,image-keyboard-response,22
true,14,1,0,1,true,z,false,false,0.0-2.0-0.54-0.494-3.494,1,1,0,90,false,stim,false,1,591.8000000044703,1,1,0,18969,WMM2,1329523,false,true,1701,image-keyboard-response,23
true,14,1,0,1,true,z,false,true,0.0-2.0-0.55-0.495-3.495,1,1,0,90,false,stim,false,1,292.0,1,1,2,18969,WMM2,1331333,false,false,1704,image-keyboard-response,24
true,14,1,0,1,true,z,false,false,0.0-2.0-0.55-0.496-3.496,1,1,0,90,false,stim,false,1,376.3999999985099,1,1,2,18969,WMM2,1333234,false,true,1707,image-keyboard-response,25
true,14,1,0,1,true,z,false,true,0.0-2.0-0.55-0.497-3.497,1,1,0,90,false,stim,false,1,358.69999999552965,1,1,0,18969,WMM2,1335123,false,false,1710,image-keyboard-response,26
true,14,0,0,0,true,q,false,true,0.0-2.0-0.55-0.498-3.498,1,1,0,81,false,stim,false,0,407.90000000596046,1,0,1,18969,WMM2,1337052,false,false,1713,image-keyboard-response,27
true,14,1,0,1,true,z,false,true,0.0-2.0-0.55-0.499-3.499,1,1,0,90,false,stim,false,1,473.6000000014901,1,1,2,18969,WMM2,1339054,false,false,1716,image-keyboard-response,28
true,14,0,0,0,true,q,false,true,0.0-2.0-0.55-0.500-3.500,1,1,0,81,false,stim,false,0,363.1000000014901,1,0,1,18969,WMM2,1340944,false,false,1719,image-keyboard-response,29
true,14,1,0,1,true,z,false,true,0.0-2.0-0.55-0.501-3.501,1,1,0,90,false,stim,false,1,501.3999999985099,1,1,0,18969,WMM2,1342973,false,false,1722,image-keyboard-response,30
true,15,1,4,1,true,z,false,false,0.0-2.0-0.55-0.502-3.502,1,0,1,90,true,stim,false,1,291.20000000298023,1,1,0,18969,WMM2,1344794,false,true,1725,image-keyboard-response,1
true,15,0,4,0,true,q,false,true,0.0-2.0-0.55-0.503-3.503,1,0,1,81,false,stim,false,0,409.30000000447035,1,0,1,18969,WMM2,1346723,false,false,1728,image-keyboard-response,2
true,15,0,4,0,true,q,false,true,0.0-2.0-0.56-0.504-3.504,1,0,1,81,false,stim,false,0,424.1000000014901,1,0,1,18969,WMM2,1348674,false,false,1731,image-keyboard-response,3
true,15,1,4,1,true,z,false,true,0.0-2.0-0.56-0.505-3.505,1,0,1,90,false,stim,false,1,376.3999999985099,1,1,0,18969,WMM2,1350574,false,false,1734,image-keyboard-response,4
true,15,0,4,1,false,z,true,false,0.0-2.0-0.56-0.506-3.506,1,0,1,81,false,stim,false,1,391.6000000014901,1,1,2,18969,WMM2,1352485,false,false,1737,image-keyboard-response,5
true,15,0,4,0,true,q,false,true,0.0-2.0-0.56-0.507-3.507,1,0,1,81,false,stim,false,0,572.2000000029802,1,0,1,18969,WMM2,1354584,false,false,1740,image-keyboard-response,6
true,15,1,4,1,true,z,false,false,0.0-2.0-0.56-0.508-3.508,1,0,1,90,false,stim,false,1,407.40000000596046,1,1,2,18969,WMM2,1356514,false,true,1743,image-keyboard-response,7
true,15,0,4,0,true,q,false,true,0.0-2.0-0.56-0.509-3.509,1,0,1,81,false,stim,false,0,775.2999999970198,1,0,1,18969,WMM2,1358814,false,false,1746,image-keyboard-response,8
true,15,1,4,1,true,z,false,true,0.0-2.0-0.56-0.510-3.510,1,0,1,90,false,stim,false,1,248.20000000298023,1,1,0,18969,WMM2,1360583,false,false,1749,image-keyboard-response,9
true,15,1,4,1,true,z,false,true,0.0-2.0-0.56-0.511-3.511,1,0,1,90,false,stim,false,1,345.0,1,1,0,18969,WMM2,1362455,false,false,1752,image-keyboard-response,10
true,15,1,4,1,true,z,false,true,0.0-2.0-0.56-0.512-3.512,1,0,1,90,false,stim,false,1,498.40000000596046,1,1,2,18969,WMM2,1364474,false,false,1755,image-keyboard-response,11
true,15,1,4,1,true,z,false,true,0.0-2.0-0.57-0.513-3.513,1,0,1,90,false,stim,false,1,372.59999999403954,1,1,0,18969,WMM2,1366374,false,false,1758,image-keyboard-response,12
true,15,1,4,0,false,q,true,true,0.0-2.0-0.57-0.514-3.514,1,0,1,90,false,stim,false,0,376.0,1,0,1,18969,WMM2,1368273,false,true,1761,image-keyboard-response,13
true,15,1,4,1,true,z,false,true,0.0-2.0-0.57-0.515-3.515,1,0,1,90,false,stim,false,1,367.20000000298023,1,1,0,18969,WMM2,1370174,false,false,1764,image-keyboard-response,14
true,15,1,4,1,true,z,false,true,0.0-2.0-0.57-0.516-3.516,1,0,1,90,false,stim,false,1,344.30000000447035,1,1,2,18969,WMM2,1372044,false,false,1767,image-keyboard-response,15
true,15,0,4,0,true,q,false,true,0.0-2.0-0.57-0.517-3.517,1,0,1,81,false,stim,false,0,347.29999999701977,1,0,1,18969,WMM2,1373915,false,false,1770,image-keyboard-response,16
true,15,1,4,1,true,z,false,true,0.0-2.0-0.57-0.518-3.518,1,0,1,90,false,stim,false,1,469.0,1,1,2,18969,WMM2,1375904,false,false,1773,image-keyboard-response,17
true,15,0,4,0,true,q,false,true,0.0-2.0-0.57-0.519-3.519,1,0,1,81,false,stim,false,0,528.8999999985099,1,0,1,18969,WMM2,1377964,false,false,1776,image-keyboard-response,18
true,15,1,4,1,true,z,false,true,0.0-2.0-0.57-0.520-3.520,1,0,1,90,false,stim,false,1,416.3999999985099,1,1,2,18969,WMM2,1379904,false,false,1779,image-keyboard-response,19
true,15,1,4,1,true,z,false,false,0.0-2.0-0.57-0.521-3.521,1,0,1,90,false,stim,false,1,367.6000000014901,1,1,0,18969,WMM2,1381804,false,true,1782,image-keyboard-response,20
true,15,0,4,0,true,q,false,true,0.0-2.0-0.58-0.522-3.522,1,0,1,81,false,stim,false,0,374.0,1,1,1,18969,WMM2,1383704,false,false,1785,image-keyboard-response,21
true,15,1,4,1,true,z,false,true,0.0-2.0-0.58-0.523-3.523,1,0,1,90,false,stim,false,1,430.1000000014901,1,0,2,18969,WMM2,1385655,false,false,1788,image-keyboard-response,22
true,15,1,4,0,false,q,true,false,0.0-2.0-0.58-0.524-3.524,1,0,1,90,false,stim,false,0,308.8999999985099,1,1,1,18969,WMM2,1387494,false,false,1791,image-keyboard-response,23
true,15,1,4,1,true,z,false,true,0.0-2.0-0.58-0.525-3.525,1,0,1,90,false,stim,false,1,328.3999999985099,1,1,0,18969,WMM2,1389354,false,false,1794,image-keyboard-response,24
true,15,0,4,0,true,q,false,true,0.0-2.0-0.58-0.526-3.526,1,0,1,81,false,stim,false,0,387.0,1,1,1,18969,WMM2,1391264,false,false,1797,image-keyboard-response,25
true,15,1,4,1,true,z,false,true,0.0-2.0-0.58-0.527-3.527,1,0,1,90,false,stim,false,1,336.80000000447035,1,0,2,18969,WMM2,1393124,false,false,1800,image-keyboard-response,26
true,15,1,4,1,true,z,false,true,0.0-2.0-0.58-0.528-3.528,1,0,1,90,false,stim,false,1,708.0,1,0,2,18969,WMM2,1395373,false,false,1803,image-keyboard-response,27
true,15,1,4,1,true,z,false,true,0.0-2.0-0.58-0.529-3.529,1,0,1,90,false,stim,false,1,478.0,1,1,0,18969,WMM2,1397373,false,false,1806,image-keyboard-response,28
true,15,1,4,1,true,z,false,true,0.0-2.0-0.58-0.530-3.530,1,0,1,90,false,stim,false,1,398.1000000014901,1,1,0,18969,WMM2,1399294,false,false,1809,image-keyboard-response,29
true,15,1,4,1,true,z,false,true,0.0-2.0-0.59-0.531-3.531,1,0,1,90,false,stim,false,1,427.0,1,0,2,18969,WMM2,1401244,false,false,1812,image-keyboard-response,30
true,16,1,2,0,false,q,false,false,0.0-2.0-0.59-0.532-3.532,1,1,0,90,true,stim,true,1,402.3999999985099,1,0,2,18969,WMM2,1403164,false,false,1815,image-keyboard-response,1
true,16,0,2,0,true,q,false,true,0.0-2.0-0.59-0.533-3.533,1,1,0,81,false,stim,false,0,879.5,1,1,1,18969,WMM2,1405564,false,false,1818,image-keyboard-response,2
true,16,1,2,1,true,z,false,true,0.0-2.0-0.59-0.534-3.534,1,1,0,90,false,stim,false,1,498.3999999985099,1,1,0,18969,WMM2,1407585,false,false,1821,image-keyboard-response,3
true,16,0,2,0,true,q,false,true,0.0-2.0-0.59-0.535-3.535,1,1,0,81,false,stim,false,0,619.1000000014901,1,1,1,18969,WMM2,1409734,false,false,1824,image-keyboard-response,4
true,16,1,2,0,false,q,false,false,0.0-2.0-0.59-0.536-3.536,1,1,0,90,false,stim,true,1,967.1000000014901,1,0,2,18969,WMM2,1412224,false,false,1827,image-keyboard-response,5
true,16,1,2,1,true,z,false,true,0.0-2.0-0.59-0.537-3.537,1,1,0,90,false,stim,false,1,1043.0999999940395,1,1,0,18969,WMM2,1414784,false,false,1830,image-keyboard-response,6
true,16,1,2,1,true,z,false,true,0.0-2.0-0.59-0.538-3.538,1,1,0,90,false,stim,false,1,640.1000000014901,1,1,0,18969,WMM2,1416944,false,false,1833,image-keyboard-response,7
true,16,0,2,0,true,q,false,true,0.0-2.0-0.59-0.539-3.539,1,1,0,81,false,stim,false,0,1438.3000000044703,1,1,1,18969,WMM2,1419905,false,false,1836,image-keyboard-response,8
true,16,0,2,0,true,q,false,true,0.0-2.0-0.60-0.540-3.540,1,1,0,81,false,stim,false,0,579.1000000014901,1,1,1,18969,WMM2,1422014,false,false,1839,image-keyboard-response,9
true,16,1,2,0,false,q,false,false,0.0-2.0-0.60-0.541-3.541,1,1,0,90,false,stim,true,1,1793.6000000014901,1,0,2,18969,WMM2,1425326,false,false,1842,image-keyboard-response,10
true,16,1,2,0,false,q,false,false,0.0-2.0-0.60-0.542-3.542,1,1,0,90,false,stim,true,1,1190.0999999940395,1,0,2,18969,WMM2,1428033,false,false,1845,image-keyboard-response,11
true,16,1,2,1,true,z,false,false,0.0-2.0-0.60-0.543-3.543,1,1,0,90,false,stim,false,1,351.79999999701977,1,1,0,18969,WMM2,1429904,false,true,1848,image-keyboard-response,12
true,16,2,2,0,false,q,true,false,0.0-2.0-0.60-0.544-3.544,1,1,0,68,false,stim,false,1,407.79999999701977,1,0,2,18969,WMM2,1431835,false,false,1851,image-keyboard-response,13
true,16,0,2,0,true,q,false,true,0.0-2.0-0.60-0.545-3.545,1,1,0,81,false,stim,false,0,611.6999999955297,1,1,1,18969,WMM2,1433974,false,false,1854,image-keyboard-response,14
true,16,1,2,1,true,z,false,true,0.0-2.0-0.60-0.546-3.546,1,1,0,90,false,stim,false,1,679.0,1,1,0,18969,WMM2,1436175,false,false,1857,image-keyboard-response,15
true,16,1,2,1,true,z,false,true,0.0-2.0-0.60-0.547-3.547,1,1,0,90,false,stim,false,1,656.7000000029802,1,1,0,18969,WMM2,1438354,false,false,1860,image-keyboard-response,16
true,16,0,2,0,true,q,false,true,0.0-2.0-0.60-0.548-3.548,1,1,0,81,false,stim,false,0,571.7999999970198,1,1,1,18969,WMM2,1440454,false,false,1863,image-keyboard-response,17
true,16,0,2,0,true,q,false,true,0.0-2.0-0.61-0.549-3.549,1,1,0,81,false,stim,false,1,415.5,1,0,2,18969,WMM2,1442395,false,false,1866,image-keyboard-response,18
true,16,1,2,1,true,z,false,true,0.0-2.0-0.61-0.550-3.550,1,1,0,90,false,stim,false,1,777.8000000044703,1,1,0,18969,WMM2,1444705,false,false,1869,image-keyboard-response,19
true,16,1,2,0,false,q,true,true,0.0-2.0-0.61-0.551-3.551,1,1,0,90,false,stim,false,0,480.59999999403954,1,1,1,18969,WMM2,1446715,false,true,1872,image-keyboard-response,20
true,16,0,2,0,true,q,false,true,0.0-2.0-0.61-0.552-3.552,1,1,0,81,false,stim,false,1,1426.5,1,0,2,18969,WMM2,1449675,false,false,1875,image-keyboard-response,21
true,16,1,2,1,true,z,false,true,0.0-2.0-0.61-0.553-3.553,1,1,0,90,false,stim,false,1,642.1000000014901,1,1,0,18969,WMM2,1451845,false,false,1878,image-keyboard-response,22
true,16,0,2,0,true,q,false,true,0.0-2.0-0.61-0.554-3.554,1,1,0,81,false,stim,false,1,325.1000000014901,1,0,2,18969,WMM2,1453696,false,false,1881,image-keyboard-response,23
true,16,0,2,0,true,q,false,true,0.0-2.0-0.61-0.555-3.555,1,1,0,81,false,stim,false,0,580.4000000059605,1,1,1,18969,WMM2,1455805,false,false,1884,image-keyboard-response,24
true,16,1,2,1,true,z,false,true,0.0-2.0-0.61-0.556-3.556,1,1,0,90,false,stim,false,1,355.1000000014901,1,1,0,18969,WMM2,1457684,false,false,1887,image-keyboard-response,25
true,16,0,2,0,true,q,false,true,0.0-2.0-0.61-0.557-3.557,1,1,0,81,false,stim,false,0,324.3999999985099,1,1,1,18969,WMM2,1459535,false,false,1890,image-keyboard-response,26
true,16,1,2,1,true,z,false,true,0.0-2.0-0.62-0.558-3.558,1,1,0,90,false,stim,false,1,529.0,1,0,0,18969,WMM2,1461595,false,false,1893,image-keyboard-response,27
true,16,0,2,0,true,q,false,true,0.0-2.0-0.62-0.559-3.559,1,1,0,81,false,stim,false,0,374.19999999552965,1,1,1,18969,WMM2,1463495,false,false,1896,image-keyboard-response,28
true,16,1,2,1,true,z,false,true,0.0-2.0-0.62-0.560-3.560,1,1,0,90,false,stim,false,1,479.20000000298023,1,0,0,18969,WMM2,1465505,false,false,1899,image-keyboard-response,29
true,16,0,2,0,true,q,false,true,0.0-2.0-0.62-0.561-3.561,1,1,0,81,false,stim,false,1,532.6999999955297,1,1,2,18969,WMM2,1467575,false,false,1902,image-keyboard-response,30
true,16,0,2,0,true,q,false,true,0.0-2.0-0.62-0.562-3.562,1,1,0,81,false,stim,false,1,721.1000000014901,1,1,2,18969,WMM2,1469815,false,false,1905,image-keyboard-response,31
true,16,0,2,0,true,q,false,false,0.0-2.0-0.62-0.563-3.563,1,1,0,81,false,stim,false,0,878.8999999985099,1,1,1,18969,WMM2,1472215,false,true,1908,image-keyboard-response,32
true,16,1,2,0,false,q,true,true,0.0-2.0-0.62-0.564-3.564,1,1,0,90,false,stim,false,0,486.80000000447035,1,1,1,18969,WMM2,1474225,false,true,1911,image-keyboard-response,33
true,16,1,2,1,true,z,false,true,0.0-2.0-0.62-0.565-3.565,1,1,0,90,false,stim,false,1,312.0,1,0,0,18969,WMM2,1476066,false,false,1914,image-keyboard-response,34
true,16,0,2,0,true,q,false,true,0.0-2.0-0.62-0.566-3.566,1,1,0,81,false,stim,false,1,456.29999999701977,1,1,2,18969,WMM2,1478037,false,false,1917,image-keyboard-response,35
true,16,1,2,0,false,q,true,false,0.0-2.0-0.63-0.567-3.567,1,1,0,90,false,stim,false,0,277.80000000447035,1,1,1,18969,WMM2,1479845,false,false,1920,image-keyboard-response,36
true,17,1,4,0,false,q,true,true,0.0-2.0-0.63-0.568-3.568,0,1,1,90,true,stim,false,0,373.1000000014901,1,1,1,18969,WMM2,1481745,false,true,1923,image-keyboard-response,1
true,17,1,4,0,false,q,true,false,0.0-2.0-0.63-0.569-3.569,0,1,1,90,false,stim,false,0,353.20000000298023,1,1,1,18969,WMM2,1483615,false,false,1926,image-keyboard-response,2
true,17,0,4,0,true,q,false,true,0.0-2.0-0.63-0.570-3.570,0,1,1,81,false,stim,false,0,522.8000000044703,1,1,2,18969,WMM2,1485664,false,false,1929,image-keyboard-response,3
true,17,0,4,0,true,q,false,true,0.0-2.0-0.63-0.571-3.571,0,1,1,81,false,stim,false,0,566.2000000029802,1,1,2,18969,WMM2,1487755,false,false,1932,image-keyboard-response,4
true,17,1,4,1,true,z,false,true,0.0-2.0-0.63-0.572-3.572,0,1,1,90,false,stim,false,1,388.29999999701977,1,0,0,18969,WMM2,1489665,false,false,1935,image-keyboard-response,5
true,17,1,4,1,true,z,false,true,0.0-2.0-0.63-0.573-3.573,0,1,1,90,false,stim,false,1,590.0,1,0,0,18969,WMM2,1491785,false,false,1938,image-keyboard-response,6
true,17,0,4,0,true,q,false,false,0.0-2.0-0.63-0.574-3.574,0,1,1,81,false,stim,false,0,412.6000000014901,1,1,2,18969,WMM2,1493716,false,true,1941,image-keyboard-response,7
true,17,0,4,1,false,z,true,false,0.0-2.0-0.63-0.575-3.575,0,1,1,81,false,stim,false,1,444.80000000447035,1,0,0,18969,WMM2,1495685,false,false,1944,image-keyboard-response,8
true,17,1,4,0,false,q,true,false,0.0-2.0-0.64-0.576-3.576,0,1,1,90,false,stim,false,0,292.0,1,1,1,18969,WMM2,1497505,false,false,1947,image-keyboard-response,9
true,17,0,4,0,true,q,false,true,0.0-2.0-0.64-0.577-3.577,0,1,1,81,false,stim,false,0,419.19999999552965,1,1,2,18969,WMM2,1499446,false,false,1950,image-keyboard-response,10
true,17,1,4,1,true,z,false,true,0.0-2.0-0.64-0.578-3.578,0,1,1,90,false,stim,false,1,470.5,1,0,0,18969,WMM2,1501445,false,false,1953,image-keyboard-response,11
true,17,1,4,1,true,z,false,true,0.0-2.0-0.64-0.579-3.579,0,1,1,90,false,stim,false,1,551.1000000014901,1,0,0,18969,WMM2,1503527,false,false,1956,image-keyboard-response,12
true,17,1,4,0,false,q,true,false,0.0-2.0-0.64-0.580-3.580,0,1,1,90,false,stim,false,0,790.5999999940395,1,1,1,18969,WMM2,1505845,false,false,1959,image-keyboard-response,13
true,17,0,4,0,true,q,false,true,0.0-2.0-0.64-0.581-3.581,0,1,1,81,false,stim,false,0,780.1999999955297,1,1,2,18969,WMM2,1508145,false,false,1962,image-keyboard-response,14
true,17,1,4,0,false,q,true,true,0.0-2.0-0.64-0.582-3.582,0,1,1,90,false,stim,false,0,560.1999999955297,1,1,1,18969,WMM2,1510226,false,true,1965,image-keyboard-response,15
true,17,0,4,0,true,q,false,true,0.0-2.0-0.64-0.583-3.583,0,1,1,81,false,stim,false,0,759.3999999985099,1,1,2,18969,WMM2,1512515,false,false,1968,image-keyboard-response,16
true,17,1,4,1,true,z,false,true,0.0-2.0-0.64-0.584-3.584,0,1,1,90,false,stim,false,1,348.20000000298023,1,0,0,18969,WMM2,1514385,false,false,1971,image-keyboard-response,17
true,17,1,4,1,true,z,false,true,0.0-2.0-0.65-0.585-3.585,0,1,1,90,false,stim,false,1,511.1000000014901,1,0,0,18969,WMM2,1516415,false,false,1974,image-keyboard-response,18
true,17,0,4,0,true,q,false,false,0.0-2.0-0.65-0.586-3.586,0,1,1,81,false,stim,false,0,464.59999999403954,1,1,2,18969,WMM2,1518395,false,true,1977,image-keyboard-response,19
true,17,0,4,0,true,q,false,true,0.0-2.0-0.65-0.587-3.587,0,1,1,81,false,stim,false,0,456.3999999985099,1,1,2,18969,WMM2,1520375,false,false,1980,image-keyboard-response,20
true,17,0,4,0,true,q,false,true,0.0-2.0-0.65-0.588-3.588,0,1,1,81,false,stim,false,0,439.1000000014901,1,1,2,18969,WMM2,1522345,false,false,1983,image-keyboard-response,21
true,17,1,4,0,false,q,true,false,0.0-2.0-0.65-0.589-3.589,0,1,1,90,false,stim,false,0,406.70000000298023,1,1,1,18969,WMM2,1524285,false,false,1986,image-keyboard-response,22
true,17,1,4,0,false,q,true,false,0.0-2.0-0.65-0.590-3.590,0,1,1,90,false,stim,false,0,301.8999999985099,1,1,1,18969,WMM2,1526115,false,false,1989,image-keyboard-response,23
true,17,1,4,1,true,z,false,true,0.0-2.0-0.65-0.591-3.591,0,1,1,90,false,stim,false,1,396.0,1,0,0,18969,WMM2,1528035,false,false,1992,image-keyboard-response,24
true,17,1,4,1,true,z,false,true,0.0-2.0-0.65-0.592-3.592,0,1,1,90,false,stim,false,1,434.70000000298023,1,0,0,18969,WMM2,1529995,false,false,1995,image-keyboard-response,25
true,17,0,4,0,true,q,false,true,0.0-2.0-0.65-0.593-3.593,0,1,1,81,false,stim,false,0,392.79999999701977,1,1,1,18969,WMM2,1531916,false,false,1998,image-keyboard-response,26
