answered,blockNum,choice,condition,corResp,correct,correct_response,explo,fb,internal_node_id,isStable_1,isStable_2,isStable_3,key_press,newBlock,part,persev,persevResp,rt,sessNum,stableAS,stimulus,subject,task,time_elapsed,training,trap,trial_index,trial_type,trialsInBlock
true,1,1,0,0,false,q,true,false,0.0-2.0-0.0-0.0-3.0,0,0,0,90,true,stim,false,-1,1031.410000003234,0,0,2,18969,WMM2,152444,false,false,84,image-keyboard-response,1
true,1,0,0,2,false,d,true,false,0.0-2.0-0.0-0.1-3.1,0,0,0,81,false,stim,false,-1,502.70499999896856,0,0,0,18969,WMM2,154468,false,false,87,image-keyboard-response,2
true,1,2,0,0,false,q,true,true,0.0-2.0-0.0-0.2-3.2,0,0,0,68,false,stim,false,-1,991.7999999961467,0,0,2,18969,WMM2,156986,false,true,90,image-keyboard-response,3
true,1,2,0,0,false,q,true,false,0.0-2.0-0.0-0.3-3.3,0,0,0,68,false,stim,false,-1,515.6600000045728,0,0,2,18969,WMM2,159018,false,false,93,image-keyboard-response,4
true,1,1,0,2,false,d,true,false,0.0-2.0-0.0-0.4-3.4,0,0,0,90,false,stim,false,-1,888.6399999973946,0,0,0,18969,WMM2,161417,false,false,96,image-keyboard-response,5
true,1,0,0,2,false,d,true,false,0.0-2.0-0.0-0.5-3.5,0,0,0,81,false,stim,false,-1,608.6149999973713,0,0,0,18969,WMM2,163538,false,false,99,image-keyboard-response,6
true,1,2,0,1,false,z,true,false,0.0-2.0-0.0-0.6-3.6,0,0,0,68,false,stim,false,-1,923.1299999955809,0,0,1,18969,WMM2,165978,false,false,102,image-keyboard-response,7
true,1,1,0,1,true,z,false,true,0.0-2.0-0.0-0.7-3.7,0,0,0,90,false,stim,false,-1,842.544999999518,0,0,1,18969,WMM2,168338,false,false,105,image-keyboard-response,8
true,1,1,0,1,true,z,false,true,0.0-2.0-0.0-0.8-3.8,0,0,0,90,false,stim,false,-1,753.6749999999302,0,0,1,18969,WMM2,170618,false,false,108,image-keyboard-response,9
true,1,2,0,2,true,d,false,true,0.0-2.0-0.1-0.9-3.9,0,0,0,68,false,stim,false,-1,749.7399999992922,0,0,0,18969,WMM2,172897,false,false,111,image-keyboard-response,10
true,1,2,0,0,false,q,true,false,0.0-2.0-0.1-0.10-3.10,0,0,0,68,false,stim,false,-1,619.8599999988801,0,0,2,18969,WMM2,175048,false,false,114,image-keyboard-response,11
true,1,1,0,1,true,z,false,true,0.0-2.0-0.1-0.11-3.11,0,0,0,90,false,stim,false,-1,906.5150000024005,0,0,1,18969,WMM2,177479,false,false,117,image-keyboard-response,12
true,1,1,0,1,true,z,false,true,0.0-2.0-0.1-0.12-3.12,0,0,0,90,false,stim,false,-1,625.2749999985099,0,0,1,18969,WMM2,179628,false,false,120,image-keyboard-response,13
true,1,0,0,0,true,q,false,true,0.0-2.0-0.1-0.13-3.13,0,0,0,81,false,stim,false,-1,797.5299999961862,0,0,2,18969,WMM2,181947,false,false,123,image-keyboard-response,14
true,1,0,0,0,true,q,false,true,0.0-2.0-0.1-0.14-3.14,0,0,0,81,false,stim,false,-1,616.874999999709,0,0,2,18969,WMM2,184088,false,false,126,image-keyboard-response,15
true,1,2,0,2,true,d,false,true,0.0-2.0-0.1-0.15-3.15,0,0,0,68,false,stim,false,-1,746.9449999989592,0,0,0,18969,WMM2,186359,false,false,129,image-keyboard-response,16
true,1,1,0,1,true,z,false,true,0.0-2.0-0.1-0.16-3.16,0,0,0,90,false,stim,false,-1,420.8599999983562,0,0,1,18969,WMM2,188308,false,false,132,image-keyboard-response,17
true,1,2,0,2,true,d,false,true,0.0-2.0-0.1-0.17-3.17,0,0,0,68,false,stim,false,-1,486.6649999967194,0,0,0,18969,WMM2,190318,false,false,135,image-keyboard-response,18
true,1,2,0,2,true,d,false,true,0.0-2.0-0.2-0.18-3.18,0,0,0,68,false,stim,false,-1,569.9600000007194,0,0,0,18969,WMM2,192418,false,false,138,image-keyboard-response,19
true,1,2,0,2,true,d,false,false,0.0-2.0-0.2-0.19-3.19,0,0,0,68,false,stim,false,-1,525.549999998475,0,0,0,18969,WMM2,194468,false,true,141,image-keyboard-response,20
true,1,1,0,1,true,z,false,true,0.0-2.0-0.2-0.20-3.20,0,0,0,90,false,stim,false,-1,762.6599999930477,0,0,1,18969,WMM2,196749,false,false,144,image-keyboard-response,21
true,1,0,0,0,true,q,false,true,0.0-2.0-0.2-0.21-3.21,0,0,0,81,false,stim,false,-1,710.5900000024121,0,1,2,18969,WMM2,198987,false,false,147,image-keyboard-response,22
true,1,1,0,1,true,z,false,true,0.0-2.0-0.2-0.22-3.22,0,0,0,90,false,stim,false,-1,697.8750000052969,0,0,1,18969,WMM2,201208,false,false,150,image-keyboard-response,23
true,1,0,0,0,true,q,false,true,0.0-2.0-0.2-0.23-3.23,0,0,0,81,false,stim,false,-1,388.14999999885913,0,1,2,18969,WMM2,203118,false,false,153,image-keyboard-response,24
true,1,0,0,0,true,q,false,false,0.0-2.0-0.2-0.24-3.24,0,0,0,81,false,stim,false,-1,638.135000001057,0,1,2,18969,WMM2,205278,false,true,156,image-keyboard-response,25
true,1,0,0,2,false,d,true,false,0.0-2.0-0.2-0.25-3.25,0,0,0,81,false,stim,false,-1,1698.8899999996647,0,1,0,18969,WMM2,208499,false,false,159,image-keyboard-response,26
true,1,1,0,1,true,z,false,true,0.0-2.0-0.2-0.26-3.26,0,0,0,90,false,stim,false,-1,780.5299999963609,0,0,1,18969,WMM2,210808,false,false,162,image-keyboard-response,27
true,1,2,0,0,false,q,true,false,0.0-2.0-0.3-0.27-3.27,0,0,0,68,false,stim,false,-1,850.5599999989499,0,1,2,18969,WMM2,213178,false,false,165,image-keyboard-response,28
true,1,1,0,0,false,q,true,false,0.0-2.0-0.3-0.28-3.28,0,0,0,90,false,stim,false,-1,771.0650000008172,0,1,2,18969,WMM2,215468,false,false,168,image-keyboard-response,29
true,1,2,0,2,true,d,false,true,0.0-2.0-0.3-0.29-3.29,0,0,0,68,false,stim,false,-1,1251.8000000054599,0,1,0,18969,WMM2,218228,false,false,171,image-keyboard-response,30
true,2,2,3,2,true,d,false,true,0.0-2.0-0.3-0.30-3.30,1,0,1,68,true,stim,false,2,487.4599999966449,0,1,0,18969,WMM2,220239,false,false,174,image-keyboard-response,1
true,2,2,3,2,true,d,false,false,0.0-2.0-0.3-0.31-3.31,1,0,1,68,false,stim,false,2,713.1549999976414,0,1,0,18969,WMM2,222478,false,true,177,image-keyboard-response,2
true,2,1,3,2,false,d,false,false,0.0-2.0-0.3-0.32-3.32,1,0,1,90,false,stim,true,1,634.5399999991059,0,0,1,18969,WMM2,224628,false,false,180,image-keyboard-response,3
true,2,1,3,0,false,q,true,false,0.0-2.0-0.3-0.33-3.33,1,0,1,90,false,stim,false,0,1166.6949999998906,0,1,2,18969,WMM2,227308,false,false,183,image-keyboard-response,4
true,2,0,3,2,false,d,true,false,0.0-2.0-0.3-0.34-3.34,1,0,1,81,false,stim,false,1,1070.4849999965518,0,0,1,18969,WMM2,229908,false,false,186,image-keyboard-response,5
true,2,2,3,2,true,d,false,true,0.0-2.0-0.3-0.35-3.35,1,0,1,68,false,stim,false,1,456.8250000011176,0,0,1,18969,WMM2,231879,false,false,189,image-keyboard-response,6
true,2,2,3,2,true,d,false,true,0.0-2.0-0.4-0.36-3.36,1,0,1,68,false,stim,false,1,526.2100000036298,0,0,1,18969,WMM2,233929,false,false,192,image-keyboard-response,7
true,2,2,3,2,true,d,false,true,0.0-2.0-0.4-0.37-3.37,1,0,1,68,false,stim,false,2,1414.7249999950873,0,1,0,18969,WMM2,236858,false,false,195,image-keyboard-response,8
true,2,1,3,0,false,q,true,false,0.0-2.0-0.4-0.38-3.38,1,0,1,90,false,stim,false,0,1495.7700000013574,0,1,2,18969,WMM2,239868,false,false,198,image-keyboard-response,9
true,2,2,3,2,true,d,false,false,0.0-2.0-0.4-0.39-3.39,1,0,1,68,false,stim,false,1,747.2500000003492,0,0,1,18969,WMM2,242149,false,true,201,image-keyboard-response,10
true,2,0,3,0,true,q,false,true,0.0-2.0-0.4-0.40-3.40,1,0,1,81,false,stim,false,0,1295.8549999966635,0,1,2,18969,WMM2,244968,false,false,204,image-keyboard-response,11
true,2,0,3,0,true,q,false,true,0.0-2.0-0.4-0.41-3.41,1,0,1,81,false,stim,false,0,477.39000000001397,0,1,2,18969,WMM2,246957,false,false,207,image-keyboard-response,12
true,2,1,3,2,false,d,false,false,0.0-2.0-0.4-0.42-3.42,1,0,1,90,false,stim,true,1,1145.6250000046566,0,0,1,18969,WMM2,249629,false,false,210,image-keyboard-response,13
true,2,2,3,2,true,d,false,false,0.0-2.0-0.4-0.43-3.43,1,0,1,68,false,stim,false,2,1015.7800000015413,0,1,0,18969,WMM2,252169,false,true,213,image-keyboard-response,14
true,2,1,3,2,false,d,true,false,0.0-2.0-0.4-0.44-3.44,1,0,1,90,false,stim,false,2,520.2449999997043,0,1,0,18969,WMM2,254209,false,false,216,image-keyboard-response,15
true,2,0,3,2,false,d,true,false,0.0-2.0-0.5-0.45-3.45,1,0,1,81,false,stim,false,1,921.940000000177,0,0,1,18969,WMM2,256649,false,false,219,image-keyboard-response,16
true,2,1,3,2,false,d,false,false,0.0-2.0-0.5-0.46-3.46,1,0,1,90,false,stim,true,1,971.5399999986403,0,0,1,18969,WMM2,259139,false,false,222,image-keyboard-response,17
true,2,1,3,2,false,d,true,false,0.0-2.0-0.5-0.47-3.47,1,0,1,90,false,stim,false,2,870.985000001383,0,1,0,18969,WMM2,261529,false,false,225,image-keyboard-response,18
true,2,0,3,2,false,d,true,false,0.0-2.0-0.5-0.48-3.48,1,0,1,81,false,stim,false,1,480.7149999978719,0,0,1,18969,WMM2,263529,false,false,228,image-keyboard-response,19
true,2,1,3,0,false,q,true,false,0.0-2.0-0.5-0.49-3.49,1,0,1,90,false,stim,false,0,2749.360000001616,0,1,2,18969,WMM2,267799,false,false,231,image-keyboard-response,20
true,2,2,3,2,true,d,false,false,0.0-2.0-0.5-0.50-3.50,1,0,1,68,false,stim,false,2,560.910000000149,0,1,0,18969,WMM2,269879,false,true,234,image-keyboard-response,21
true,2,1,3,0,false,q,true,false,0.0-2.0-0.5-0.51-3.51,1,0,1,90,false,stim,false,0,702.8600000048755,0,1,2,18969,WMM2,272099,false,false,237,image-keyboard-response,22
true,2,0,3,0,true,q,false,true,0.0-2.0-0.5-0.52-3.52,1,0,1,81,false,stim,false,0,673.3650000023772,0,1,2,18969,WMM2,274287,false,false,240,image-keyboard-response,23
true,2,2,3,2,true,d,false,true,0.0-2.0-0.5-0.53-3.53,1,0,1,68,false,stim,false,2,2295.4699999972945,0,1,0,18969,WMM2,278107,false,false,243,image-keyboard-response,24
true,2,1,3,2,false,d,false,false,0.0-2.0-0.6-0.54-3.54,1,0,1,90,false,stim,true,1,1745.6750000055763,0,0,1,18969,WMM2,281377,false,false,246,image-keyboard-response,25
true,2,0,3,2,false,d,true,false,0.0-2.0-0.6-0.55-3.55,1,0,1,81,false,stim,false,1,619.2050000026939,0,0,1,18969,WMM2,283527,false,false,249,image-keyboard-response,26
true,2,2,3,2,true,d,false,true,0.0-2.0-0.6-0.56-3.56,1,0,1,68,false,stim,false,2,664.8700000005192,0,1,0,18969,WMM2,285717,false,false,252,image-keyboard-response,27
true,2,0,3,0,true,q,false,true,0.0-2.0-0.6-0.57-3.57,1,0,1,81,false,stim,false,0,570.8949999971082,0,1,2,18969,WMM2,287817,false,false,255,image-keyboard-response,28
true,2,2,3,2,true,d,false,true,0.0-2.0-0.6-0.58-3.58,1,0,1,68,false,stim,false,2,621.4299999992363,0,1,0,18969,WMM2,289957,false,false,258,image-keyboard-response,29
true,2,0,3,0,true,q,false,true,0.0-2.0-0.6-0.59-3.59,1,0,1,81,false,stim,false,0,845.9599999987404,0,1,2,18969,WMM2,292328,false,false,261,image-keyboard-response,30
true,2,2,3,2,true,d,false,true,0.0-2.0-0.6-0.60-3.60,1,0,1,68,false,stim,false,1,578.0249999952503,0,0,1,18969,WMM2,294438,false,false,264,image-keyboard-response,31
true,2,0,3,2,false,d,true,false,0.0-2.0-0.6-0.61-3.61,1,0,1,81,false,stim,false,2,992.2050000022864,0,1,0,18969,WMM2,296958,false,false,267,image-keyboard-response,32
true,2,2,3,0,false,q,true,false,0.0-2.0-0.6-0.62-3.62,1,0,1,68,false,stim,false,0,501.0199999960605,0,1,2,18969,WMM2,298988,false,false,270,image-keyboard-response,33
true,2,2,3,2,true,d,false,true,0.0-2.0-0.7-0.63-3.63,1,0,1,68,false,stim,false,1,826.6550000043935,0,0,1,18969,WMM2,301328,false,false,273,image-keyboard-response,34
true,2,1,3,2,false,d,true,false,0.0-2.0-0.7-0.64-3.64,1,0,1,90,false,stim,false,2,761.5850000001956,0,1,0,18969,WMM2,303597,false,false,276,image-keyboard-response,35
true,2,0,3,2,false,d,true,false,0.0-2.0-0.7-0.65-3.65,1,0,1,81,false,stim,false,2,620.5499999996391,0,1,0,18969,WMM2,305738,false,false,279,image-keyboard-response,36
true,2,2,3,2,true,d,false,true,0.0-2.0-0.7-0.66-3.66,1,0,1,68,false,stim,false,1,425.54500000551343,0,0,1,18969,WMM2,307686,false,false,282,image-keyboard-response,37
true,2,2,3,2,true,d,false,true,0.0-2.0-0.7-0.67-3.67,1,0,1,68,false,stim,false,1,555.6199999991804,0,0,1,18969,WMM2,309757,false,false,285,image-keyboard-response,38
true,2,2,3,0,false,q,true,false,0.0-2.0-0.7-0.68-3.68,1,0,1,68,false,stim,false,0,567.285000004631,0,1,2,18969,WMM2,311847,false,false,288,image-keyboard-response,39
true,2,0,3,0,true,q,false,true,0.0-2.0-0.7-0.69-3.69,1,0,1,81,false,stim,false,0,453.6099999968428,0,1,2,18969,WMM2,313828,false,false,291,image-keyboard-response,40
true,2,0,3,0,true,q,false,false,0.0-2.0-0.7-0.70-3.70,1,0,1,81,false,stim,false,0,450.2199999988079,0,1,2,18969,WMM2,315798,false,true,294,image-keyboard-response,41
true,2,2,3,2,true,d,false,true,0.0-2.0-0.7-0.71-3.71,1,0,1,68,false,stim,false,2,703.5600000017439,0,1,0,18969,WMM2,318038,false,false,297,image-keyboard-response,42
true,2,2,3,2,true,d,false,true,0.0-2.0-0.8-0.72-3.72,1,0,1,68,false,stim,false,2,506.7800000033458,0,1,0,18969,WMM2,320066,false,false,300,image-keyboard-response,43
true,2,0,3,2,false,d,true,false,0.0-2.0-0.8-0.73-3.73,1,0,1,81,false,stim,false,1,1432.6849999997648,0,0,1,18969,WMM2,323026,false,false,303,image-keyboard-response,44
true,2,2,3,2,true,d,false,false,0.0-2.0-0.8-0.74-3.74,1,0,1,68,false,stim,false,2,817.9450000025099,0,0,0,18969,WMM2,325368,false,true,306,image-keyboard-response,45
true,2,0,3,0,true,q,false,true,0.0-2.0-0.8-0.75-3.75,1,0,1,81,false,stim,false,0,1124.3150000009337,0,1,2,18969,WMM2,328008,false,false,309,image-keyboard-response,46
true,2,1,3,2,false,d,true,false,0.0-2.0-0.8-0.76-3.76,1,0,1,90,false,stim,false,2,1640.6850000057602,0,0,0,18969,WMM2,331168,false,false,312,image-keyboard-response,47
true,2,0,3,0,true,q,false,true,0.0-2.0-0.8-0.77-3.77,1,0,1,81,false,stim,false,0,732.1400000000722,0,1,2,18969,WMM2,333418,false,false,315,image-keyboard-response,48
true,2,0,3,2,false,d,true,false,0.0-2.0-0.8-0.78-3.78,1,0,1,81,false,stim,false,1,556.6150000013295,0,0,1,18969,WMM2,335500,false,false,318,image-keyboard-response,49
true,2,0,3,0,true,q,false,true,0.0-2.0-0.8-0.79-3.79,1,0,1,81,false,stim,false,0,413.99499999533873,0,1,2,18969,WMM2,337438,false,false,321,image-keyboard-response,50
true,2,2,3,2,true,d,false,false,0.0-2.0-0.8-0.80-3.80,1,0,1,68,false,stim,false,1,482.6299999986077,0,0,1,18969,WMM2,339440,false,true,324,image-keyboard-response,51
true,2,1,3,2,false,d,false,false,0.0-2.0-0.9-0.81-3.81,1,0,1,90,false,stim,true,1,501.43499999830965,0,0,1,18969,WMM2,341450,false,false,327,image-keyboard-response,52
true,2,2,3,2,true,d,false,true,0.0-2.0-0.9-0.82-3.82,1,0,1,68,false,stim,false,1,379.46499999816297,0,0,1,18969,WMM2,343350,false,false,330,image-keyboard-response,53
true,3,2,1,1,false,z,false,false,0.0-2.0-0.9-0.83-3.83,0,0,1,68,true,stim,true,2,476.2600000030943,0,0,1,18969,WMM2,345342,false,false,333,image-keyboard-response,1
true,3,2,1,0,false,q,true,false,0.0-2.0-0.9-0.84-3.84,0,0,1,68,false,stim,false,0,515.1449999975739,0,1,2,18969,WMM2,347389,false,false,336,image-keyboard-response,2
true,3,1,1,0,false,q,true,false,0.0-2.0-0.9-0.85-3.85,0,0,1,90,false,stim,false,2,611.3600000026054,0,0,0,18969,WMM2,349530,false,false,339,image-keyboard-response,3
true,3,0,1,0,true,q,false,true,0.0-2.0-0.9-0.86-3.86,0,0,1,81,false,stim,false,2,478.5699999993085,0,0,0,18969,WMM2,351520,false,false,342,image-keyboard-response,4
true,3,0,1,0,true,q,false,true,0.0-2.0-0.9-0.87-3.87,0,0,1,81,false,stim,false,2,475.33499999553896,0,0,0,18969,WMM2,353510,false,false,345,image-keyboard-response,5
true,3,2,1,0,false,q,true,false,0.0-2.0-0.9-0.88-3.88,0,0,1,68,false,stim,false,0,979.6799999967334,0,1,2,18969,WMM2,356010,false,false,348,image-keyboard-response,6
true,3,1,1,0,false,q,true,true,0.0-2.0-0.9-0.89-3.89,0,0,1,90,false,stim,false,0,312.29999999777647,0,1,2,18969,WMM2,357840,false,true,351,image-keyboard-response,7
true,3,1,1,0,false,q,true,false,0.0-2.0-0.10-0.90-3.90,0,0,1,90,false,stim,false,0,445.8299999969313,0,1,2,18969,WMM2,359809,false,false,354,image-keyboard-response,8
true,3,0,1,0,true,q,false,true,0.0-2.0-0.10-0.91-3.91,0,0,1,81,false,stim,false,0,522.594999994908,0,1,2,18969,WMM2,361851,false,false,357,image-keyboard-response,9
true,3,2,1,0,false,q,false,false,0.0-2.0-0.10-0.92-3.92,0,0,1,68,false,stim,true,2,614.3400000000838,0,0,0,18969,WMM2,363981,false,false,360,image-keyboard-response,10
true,3,0,1,1,false,z,true,false,0.0-2.0-0.10-0.93-3.93,0,0,1,81,false,stim,false,2,289.62000000319676,0,0,1,18969,WMM2,365790,false,false,363,image-keyboard-response,11
true,3,1,1,0,false,q,true,true,0.0-2.0-0.10-0.94-3.94,0,0,1,90,false,stim,false,0,271.40499999950407,0,1,2,18969,WMM2,367578,false,true,366,image-keyboard-response,12
true,3,0,1,1,false,z,true,false,0.0-2.0-0.10-0.95-3.95,0,0,1,81,false,stim,false,2,651.7749999984517,0,0,1,18969,WMM2,369750,false,false,369,image-keyboard-response,13
true,3,2,1,0,false,q,false,false,0.0-2.0-0.10-0.96-3.96,0,0,1,68,false,stim,true,2,933.0300000001444,0,0,0,18969,WMM2,372211,false,false,372,image-keyboard-response,14
true,3,0,1,1,false,z,true,false,0.0-2.0-0.10-0.97-3.97,0,0,1,81,false,stim,false,2,667.0700000031502,0,0,1,18969,WMM2,374400,false,false,375,image-keyboard-response,15
true,3,1,1,0,false,q,true,false,0.0-2.0-0.10-0.98-3.98,0,0,1,90,false,stim,false,2,691.1700000055134,0,0,0,18969,WMM2,376620,false,false,378,image-keyboard-response,16
true,3,2,1,1,false,z,false,false,0.0-2.0-0.11-0.99-3.99,0,0,1,68,false,stim,true,2,574.9349999969127,0,0,1,18969,WMM2,378720,false,false,381,image-keyboard-response,17
true,3,2,1,1,false,z,false,false,0.0-2.0-0.11-0.100-3.100,0,0,1,68,false,stim,true,2,547.2299999964889,0,0,1,18969,WMM2,380780,false,false,384,image-keyboard-response,18
true,3,0,1,0,true,q,false,true,0.0-2.0-0.11-0.101-3.101,0,0,1,81,false,stim,false,2,582.0999999996275,0,0,0,18969,WMM2,382889,false,false,387,image-keyboard-response,19
true,3,1,1,0,false,q,true,false,0.0-2.0-0.11-0.102-3.102,0,0,1,90,false,stim,false,0,803.3100000029663,0,1,2,18969,WMM2,385210,false,false,390,image-keyboard-response,20
true,3,1,1,1,true,z,false,true,0.0-2.0-0.11-0.103-3.103,0,0,1,90,false,stim,false,2,1074.9750000031781,0,0,1,18969,WMM2,387810,false,false,393,image-keyboard-response,21
true,3,2,1,0,false,q,true,false,0.0-2.0-0.11-0.104-3.104,0,0,1,68,false,stim,false,0,1225.429999998596,0,1,2,18969,WMM2,390560,false,false,396,image-keyboard-response,22
true,3,0,1,0,true,q,false,true,0.0-2.0-0.11-0.105-3.105,0,0,1,81,false,stim,false,2,727.4500000057742,0,0,0,18969,WMM2,392820,false,false,399,image-keyboard-response,23
true,3,0,1,0,true,q,false,true,0.0-2.0-0.11-0.106-3.106,0,0,1,81,false,stim,false,2,542.3349999982747,0,0,0,18969,WMM2,394885,false,false,402,image-keyboard-response,24
true,3,0,1,0,true,q,false,true,0.0-2.0-0.11-0.107-3.107,0,0,1,81,false,stim,false,0,1071.6299999985495,0,1,2,18969,WMM2,397483,false,false,405,image-keyboard-response,25
true,3,0,1,0,true,q,false,true,0.0-2.0-0.12-0.108-3.108,0,0,1,81,false,stim,false,0,512.7399999983027,0,1,2,18969,WMM2,399514,false,false,408,image-keyboard-response,26
true,3,0,1,0,true,q,false,true,0.0-2.0-0.12-0.109-3.109,0,0,1,81,false,stim,false,2,593.8099999984843,0,0,0,18969,WMM2,401635,false,false,411,image-keyboard-response,27
true,3,1,1,1,true,z,false,true,0.0-2.0-0.12-0.110-3.110,0,0,1,90,false,stim,false,2,432.1249999993597,0,0,1,18969,WMM2,403595,false,false,414,image-keyboard-response,28
true,3,0,1,0,true,q,false,true,0.0-2.0-0.12-0.111-3.111,0,0,1,81,false,stim,false,0,661.5299999975832,0,1,2,18969,WMM2,405785,false,false,417,image-keyboard-response,29
true,3,1,1,0,false,q,true,false,0.0-2.0-0.12-0.112-3.112,0,0,1,90,false,stim,false,0,673.3499999972992,0,1,2,18969,WMM2,407984,false,false,420,image-keyboard-response,30
true,3,1,1,1,true,z,false,true,0.0-2.0-0.12-0.113-3.113,0,0,1,90,false,stim,false,2,446.28999999986263,0,0,1,18969,WMM2,409944,false,false,423,image-keyboard-response,31
true,3,1,1,1,true,z,false,false,0.0-2.0-0.12-0.114-3.114,0,0,1,90,false,stim,false,2,461.4300000030198,0,0,1,18969,WMM2,411934,false,true,426,image-keyboard-response,32
true,3,0,1,0,true,q,false,false,0.0-2.0-0.12-0.115-3.115,0,0,1,81,false,stim,false,2,516.8899999989662,0,1,0,18969,WMM2,413965,false,true,429,image-keyboard-response,33
true,3,2,1,0,false,q,false,false,0.0-2.0-0.12-0.116-3.116,0,0,1,68,false,stim,true,2,502.66499999997905,0,1,0,18969,WMM2,415975,false,false,432,image-keyboard-response,34
true,3,1,1,0,false,q,true,false,0.0-2.0-0.13-0.117-3.117,0,0,1,90,false,stim,false,0,1152.089999995951,0,1,2,18969,WMM2,418655,false,false,435,image-keyboard-response,35
true,3,2,1,0,false,q,true,false,0.0-2.0-0.13-0.118-3.118,0,0,1,68,false,stim,false,0,570.6299999947078,0,1,2,18969,WMM2,420753,false,false,438,image-keyboard-response,36
true,3,1,1,1,true,z,false,true,0.0-2.0-0.13-0.119-3.119,0,0,1,90,false,stim,false,2,2147.559999997611,0,0,1,18969,WMM2,424425,false,false,441,image-keyboard-response,37
true,3,0,1,0,true,q,false,true,0.0-2.0-0.13-0.120-3.120,0,0,1,81,false,stim,false,0,857.8549999947427,0,1,2,18969,WMM2,426804,false,false,444,image-keyboard-response,38
true,4,1,2,2,false,d,false,false,0.0-2.0-0.13-0.121-3.121,1,0,1,90,true,stim,true,1,605.2500000005239,0,0,1,18969,WMM2,428925,false,false,447,image-keyboard-response,1
true,4,2,2,0,false,q,true,false,0.0-2.0-0.13-0.122-3.122,1,0,1,68,false,stim,false,0,474.32000000117114,0,1,0,18969,WMM2,430915,false,false,450,image-keyboard-response,2
true,4,1,2,0,false,q,true,false,0.0-2.0-0.13-0.123-3.123,1,0,1,90,false,stim,false,0,460.53000000392785,0,1,0,18969,WMM2,432904,false,false,453,image-keyboard-response,3
true,4,1,2,2,false,d,false,false,0.0-2.0-0.13-0.124-3.124,1,0,1,90,false,stim,true,1,869.6500000005472,0,0,1,18969,WMM2,435295,false,false,456,image-keyboard-response,4
true,4,0,2,0,true,q,false,true,0.0-2.0-0.13-0.125-3.125,1,0,1,81,false,stim,false,0,732.1500000034575,0,1,0,18969,WMM2,437545,false,false,459,image-keyboard-response,5
true,4,1,2,0,false,q,true,false,0.0-2.0-0.14-0.126-3.126,1,0,1,90,false,stim,false,0,627.8949999978067,0,1,2,18969,WMM2,439695,false,false,462,image-keyboard-response,6
true,4,2,2,2,true,d,false,true,0.0-2.0-0.14-0.127-3.127,1,0,1,68,false,stim,false,1,639.3250000037369,0,0,1,18969,WMM2,441855,false,false,465,image-keyboard-response,7
true,4,2,2,2,true,d,false,true,0.0-2.0-0.14-0.128-3.128,1,0,1,68,false,stim,false,1,1036.419999996724,0,0,1,18969,WMM2,444415,false,false,468,image-keyboard-response,8
true,4,2,2,2,true,d,false,true,0.0-2.0-0.14-0.129-3.129,1,0,1,68,false,stim,false,1,479.2749999978696,0,0,1,18969,WMM2,446425,false,false,471,image-keyboard-response,9
true,4,0,2,0,true,q,false,true,0.0-2.0-0.14-0.130-3.130,1,0,1,81,false,stim,false,0,471.81000000273343,0,1,0,18969,WMM2,448426,false,false,474,image-keyboard-response,10
true,4,1,2,0,false,q,true,false,0.0-2.0-0.14-0.131-3.131,1,0,1,90,false,stim,false,0,1582.8250000049593,0,1,2,18969,WMM2,451535,false,false,477,image-keyboard-response,11
true,4,0,2,0,true,q,false,true,0.0-2.0-0.14-0.132-3.132,1,0,1,81,false,stim,false,0,718.9950000029057,0,1,0,18969,WMM2,453775,false,false,480,image-keyboard-response,12
true,4,0,2,0,true,q,false,true,0.0-2.0-0.14-0.133-3.133,1,0,1,81,false,stim,false,0,604.7099999996135,0,1,2,18969,WMM2,455901,false,false,483,image-keyboard-response,13
true,4,0,2,0,true,q,false,true,0.0-2.0-0.14-0.134-3.134,1,0,1,81,false,stim,false,0,573.9149999935762,0,1,0,18969,WMM2,458001,false,false,486,image-keyboard-response,14
true,4,2,2,2,true,d,false,true,0.0-2.0-0.15-0.135-3.135,1,0,1,68,false,stim,false,1,804.759999999078,0,0,1,18969,WMM2,460322,false,false,489,image-keyboard-response,15
true,4,0,2,0,true,q,false,true,0.0-2.0-0.15-0.136-3.136,1,0,1,81,false,stim,false,0,424.88500000035856,0,1,0,18969,WMM2,462271,false,false,492,image-keyboard-response,16
true,4,0,2,0,true,q,false,true,0.0-2.0-0.15-0.137-3.137,1,0,1,81,false,stim,false,0,398.5000000029686,0,1,2,18969,WMM2,464191,false,false,495,image-keyboard-response,17
true,4,0,2,0,true,q,false,false,0.0-2.0-0.15-0.138-3.138,1,0,1,81,false,stim,false,0,588.1399999998393,0,1,0,18969,WMM2,466301,false,true,498,image-keyboard-response,18
true,4,2,2,2,true,d,false,true,0.0-2.0-0.15-0.139-3.139,1,0,1,68,false,stim,false,1,504.6700000020792,0,0,1,18969,WMM2,468331,false,false,501,image-keyboard-response,19
true,4,0,2,0,true,q,false,true,0.0-2.0-0.15-0.140-3.140,1,0,1,81,false,stim,false,0,820.8450000020093,0,1,2,18969,WMM2,470682,false,false,504,image-keyboard-response,20
true,4,2,2,2,true,d,false,true,0.0-2.0-0.15-0.141-3.141,1,0,1,68,false,stim,false,1,535.9699999971781,0,0,1,18969,WMM2,472731,false,false,507,image-keyboard-response,21
true,4,0,2,0,true,q,false,true,0.0-2.0-0.15-0.142-3.142,1,0,1,81,false,stim,false,0,632.2049999944284,0,1,2,18969,WMM2,474892,false,false,510,image-keyboard-response,22
true,4,1,2,0,false,q,true,true,0.0-2.0-0.15-0.143-3.143,1,0,1,90,false,stim,false,0,1050.6549999990966,0,0,0,18969,WMM2,477461,false,true,513,image-keyboard-response,23
true,4,2,2,2,true,d,false,true,0.0-2.0-0.16-0.144-3.144,1,0,1,68,false,stim,false,1,566.6150000033667,0,0,1,18969,WMM2,479551,false,false,516,image-keyboard-response,24
true,4,1,2,0,false,q,true,false,0.0-2.0-0.16-0.145-3.145,1,0,1,90,false,stim,false,0,383.56000000203494,0,0,0,18969,WMM2,481462,false,false,519,image-keyboard-response,25
true,4,0,2,0,true,q,false,true,0.0-2.0-0.16-0.146-3.146,1,0,1,81,false,stim,false,0,427.97499999869615,0,1,2,18969,WMM2,483410,false,false,522,image-keyboard-response,26
true,4,2,2,2,true,d,false,true,0.0-2.0-0.16-0.147-3.147,1,0,1,68,false,stim,false,1,557.1949999939534,0,0,1,18969,WMM2,485491,false,false,525,image-keyboard-response,27
true,4,1,2,0,false,q,true,true,0.0-2.0-0.16-0.148-3.148,1,0,1,90,false,stim,false,0,342.36000000237254,0,0,0,18969,WMM2,487370,false,true,528,image-keyboard-response,28
true,4,2,2,2,true,d,false,true,0.0-2.0-0.16-0.149-3.149,1,0,1,68,false,stim,false,1,2107.059999994817,0,0,1,18969,WMM2,490991,false,false,531,image-keyboard-response,29
true,4,0,2,0,true,q,false,true,0.0-2.0-0.16-0.150-3.150,1,0,1,81,false,stim,false,0,789.4900000028429,0,1,2,18969,WMM2,493312,false,false,534,image-keyboard-response,30
true,5,0,1,0,true,q,false,true,0.0-2.0-0.16-0.151-3.151,0,0,1,81,true,stim,false,0,514.4500000023982,0,1,2,18969,WMM2,495351,false,false,537,image-keyboard-response,1
true,5,1,1,2,false,d,true,false,0.0-2.0-0.16-0.152-3.152,0,0,1,90,false,stim,false,0,758.7050000001909,0,0,0,18969,WMM2,497621,false,false,540,image-keyboard-response,2
true,5,0,1,0,true,q,false,false,0.0-2.0-0.17-0.153-3.153,0,0,1,81,false,stim,false,2,602.8650000007474,0,0,1,18969,WMM2,499752,false,true,543,image-keyboard-response,3
true,5,2,1,0,false,q,false,false,0.0-2.0-0.17-0.154-3.154,0,0,1,68,false,stim,true,2,337.9499999937252,0,0,1,18969,WMM2,501612,false,false,546,image-keyboard-response,4
true,5,1,1,0,false,q,true,false,0.0-2.0-0.17-0.155-3.155,0,0,1,90,false,stim,false,0,1593.6450000008335,0,1,2,18969,WMM2,504722,false,false,549,image-keyboard-response,5
true,5,0,1,0,true,q,false,true,0.0-2.0-0.17-0.156-3.156,0,0,1,81,false,stim,false,0,633.5400000025402,0,1,2,18969,WMM2,506882,false,false,552,image-keyboard-response,6
true,5,2,1,2,true,d,false,true,0.0-2.0-0.17-0.157-3.157,0,0,1,68,false,stim,false,0,1662.239999997837,0,0,0,18969,WMM2,510072,false,false,555,image-keyboard-response,7
true,5,0,1,0,true,q,false,true,0.0-2.0-0.17-0.158-3.158,0,0,1,81,false,stim,false,0,1286.4750000007916,0,1,2,18969,WMM2,512882,false,false,558,image-keyboard-response,8
true,5,1,1,0,false,q,true,false,0.0-2.0-0.17-0.159-3.159,0,0,1,90,false,stim,false,2,620.6999999994878,0,0,1,18969,WMM2,515032,false,false,561,image-keyboard-response,9
true,5,2,1,2,true,d,false,true,0.0-2.0-0.17-0.160-3.160,0,0,1,68,false,stim,false,0,1689.6699999997509,0,0,0,18969,WMM2,518252,false,false,564,image-keyboard-response,10
true,5,0,1,2,false,d,false,false,0.0-2.0-0.17-0.161-3.161,0,0,1,81,false,stim,true,0,1383.6349999983213,0,0,0,18969,WMM2,521154,false,false,567,image-keyboard-response,11
true,5,2,1,0,false,q,true,false,0.0-2.0-0.18-0.162-3.162,0,0,1,68,false,stim,false,0,1349.224999998114,0,1,2,18969,WMM2,524031,false,false,570,image-keyboard-response,12
true,5,1,1,0,false,q,true,false,0.0-2.0-0.18-0.163-3.163,0,0,1,90,false,stim,false,2,613.3150000023888,0,0,1,18969,WMM2,526162,false,false,573,image-keyboard-response,13
true,5,0,1,0,true,q,false,false,0.0-2.0-0.18-0.164-3.164,0,0,1,81,false,stim,false,0,1394.724999998347,0,1,2,18969,WMM2,529091,false,true,576,image-keyboard-response,14
true,5,0,1,2,false,d,false,false,0.0-2.0-0.18-0.165-3.165,0,0,1,81,false,stim,true,0,985.3299999958836,0,0,0,18969,WMM2,531601,false,false,579,image-keyboard-response,15
true,5,1,1,2,false,d,true,false,0.0-2.0-0.18-0.166-3.166,0,0,1,90,false,stim,false,0,555.9549999962328,0,0,0,18969,WMM2,533672,false,false,582,image-keyboard-response,16
true,5,0,1,0,true,q,false,true,0.0-2.0-0.18-0.167-3.167,0,0,1,81,false,stim,false,0,731.4450000049546,0,1,2,18969,WMM2,535921,false,false,585,image-keyboard-response,17
true,5,2,1,0,false,q,false,false,0.0-2.0-0.18-0.168-3.168,0,0,1,68,false,stim,true,2,737.9050000017742,0,0,1,18969,WMM2,538172,false,false,588,image-keyboard-response,18
true,5,1,1,0,false,q,true,false,0.0-2.0-0.18-0.169-3.169,0,0,1,90,false,stim,false,2,652.655000005383,0,0,1,18969,WMM2,540352,false,false,591,image-keyboard-response,19
true,5,1,1,2,false,d,true,false,0.0-2.0-0.18-0.170-3.170,0,0,1,90,false,stim,false,0,1094.9699999983422,0,0,0,18969,WMM2,542962,false,false,594,image-keyboard-response,20
true,5,0,1,0,true,q,false,true,0.0-2.0-0.19-0.171-3.171,0,0,1,81,false,stim,false,0,625.4150000023656,0,1,2,18969,WMM2,545112,false,false,597,image-keyboard-response,21
true,5,0,1,0,true,q,false,true,0.0-2.0-0.19-0.172-3.172,0,0,1,81,false,stim,false,0,646.9550000037998,0,1,2,18969,WMM2,547280,false,false,600,image-keyboard-response,22
true,5,0,1,0,true,q,false,false,0.0-2.0-0.19-0.173-3.173,0,0,1,81,false,stim,false,2,845.9500000025146,0,0,1,18969,WMM2,549643,false,true,603,image-keyboard-response,23
true,5,1,1,0,false,q,true,false,0.0-2.0-0.19-0.174-3.174,0,0,1,90,false,stim,false,2,741.8499999984633,0,0,1,18969,WMM2,551902,false,false,606,image-keyboard-response,24
true,5,2,1,2,true,d,false,true,0.0-2.0-0.19-0.175-3.175,0,0,1,68,false,stim,false,0,1333.9349999951664,0,0,0,18969,WMM2,554762,false,false,609,image-keyboard-response,25
true,5,0,1,0,true,q,false,true,0.0-2.0-0.19-0.176-3.176,0,0,1,81,false,stim,false,0,666.3200000037905,0,1,2,18969,WMM2,556942,false,false,612,image-keyboard-response,26
true,5,2,1,2,true,d,false,true,0.0-2.0-0.19-0.177-3.177,0,0,1,68,false,stim,false,0,674.989999999525,0,0,0,18969,WMM2,559142,false,false,615,image-keyboard-response,27
true,5,2,1,0,false,q,false,false,0.0-2.0-0.19-0.178-3.178,0,0,1,68,false,stim,true,2,675.3199999948265,0,0,1,18969,WMM2,561332,false,false,618,image-keyboard-response,28
true,5,2,1,2,true,d,false,false,0.0-2.0-0.19-0.179-3.179,0,0,1,68,false,stim,false,0,635.3300000046147,0,0,0,18969,WMM2,563491,false,true,621,image-keyboard-response,29
true,5,1,1,0,false,q,true,true,0.0-2.0-0.20-0.180-3.180,0,0,1,90,false,stim,false,0,545.7850000021281,0,1,2,18969,WMM2,565562,false,true,624,image-keyboard-response,30
true,5,0,1,2,false,d,false,false,0.0-2.0-0.20-0.181-3.181,0,0,1,81,false,stim,true,0,816.5300000037532,0,0,0,18969,WMM2,567902,false,false,627,image-keyboard-response,31
true,5,2,1,0,false,q,false,false,0.0-2.0-0.20-0.182-3.182,0,0,1,68,false,stim,true,2,618.0250000033993,0,0,1,18969,WMM2,570042,false,false,630,image-keyboard-response,32
true,5,0,1,0,true,q,false,false,0.0-2.0-0.20-0.183-3.183,0,0,1,81,false,stim,false,2,525.0899999955436,0,0,1,18969,WMM2,572093,false,true,633,image-keyboard-response,33
true,5,1,1,2,false,d,true,false,0.0-2.0-0.20-0.184-3.184,0,0,1,90,false,stim,false,0,1153.0850000054343,0,0,0,18969,WMM2,574773,false,false,636,image-keyboard-response,34
true,5,2,1,0,false,q,true,false,0.0-2.0-0.20-0.185-3.185,0,0,1,68,false,stim,false,0,498.7550000004703,0,1,2,18969,WMM2,576801,false,false,639,image-keyboard-response,35
true,5,1,1,2,false,d,true,false,0.0-2.0-0.20-0.186-3.186,0,0,1,90,false,stim,false,0,607.2950000015553,0,0,0,18969,WMM2,578923,false,false,642,image-keyboard-response,36
true,5,1,1,0,false,q,true,false,0.0-2.0-0.20-0.187-3.187,0,0,1,90,false,stim,false,0,475.64000000432134,0,1,2,18969,WMM2,580912,false,false,645,image-keyboard-response,37
true,5,0,1,0,true,q,false,true,0.0-2.0-0.20-0.188-3.188,0,0,1,81,false,stim,false,2,354.86500000115484,0,0,1,18969,WMM2,582793,false,false,648,image-keyboard-response,38
true,5,0,1,0,true,q,false,true,0.0-2.0-0.21-0.189-3.189,0,0,1,81,false,stim,false,2,499.8299999933224,0,0,1,18969,WMM2,584822,false,false,651,image-keyboard-response,39
true,5,2,1,0,false,q,true,false,0.0-2.0-0.21-0.190-3.190,0,0,1,68,false,stim,false,0,788.2050000043819,0,1,2,18969,WMM2,587133,false,false,654,image-keyboard-response,40
true,5,1,1,2,false,d,true,false,0.0-2.0-0.21-0.191-3.191,0,0,1,90,false,stim,false,0,588.1049999953248,0,0,0,18969,WMM2,589253,false,false,657,image-keyboard-response,41
true,5,0,1,0,true,q,false,true,0.0-2.0-0.21-0.192-3.192,0,0,1,81,false,stim,false,2,739.1600000045728,0,0,1,18969,WMM2,591523,false,false,660,image-keyboard-response,42
true,5,0,1,0,true,q,false,false,0.0-2.0-0.21-0.193-3.193,0,0,1,81,false,stim,false,2,611.7899999953806,0,0,1,18969,WMM2,593653,false,true,663,image-keyboard-response,43
true,5,1,1,2,false,d,true,false,0.0-2.0-0.21-0.194-3.194,0,0,1,90,false,stim,false,0,1267.7699999985052,0,0,0,18969,WMM2,596443,false,false,666,image-keyboard-response,44
true,5,0,1,0,true,q,false,true,0.0-2.0-0.21-0.195-3.195,0,0,1,81,false,stim,false,0,738.5450000001583,0,1,2,18969,WMM2,598713,false,false,669,image-keyboard-response,45
true,5,0,1,2,false,d,false,false,0.0-2.0-0.21-0.196-3.196,0,0,1,81,false,stim,true,0,1388.8850000002421,0,0,0,18969,WMM2,601631,false,false,672,image-keyboard-response,46
true,5,0,1,0,true,q,false,true,0.0-2.0-0.21-0.197-3.197,0,0,1,81,false,stim,false,0,803.4150000021327,0,1,2,18969,WMM2,603953,false,false,675,image-keyboard-response,47
true,5,0,1,0,true,q,false,true,0.0-2.0-0.22-0.198-3.198,0,0,1,81,false,stim,false,0,502.17500000144355,0,1,2,18969,WMM2,605973,false,false,678,image-keyboard-response,48
true,5,2,1,2,true,d,false,true,0.0-2.0-0.22-0.199-3.199,0,0,1,68,false,stim,false,0,756.3550000049872,0,0,0,18969,WMM2,608253,false,false,681,image-keyboard-response,49
true,5,0,1,0,true,q,false,true,0.0-2.0-0.22-0.200-3.200,0,0,1,81,false,stim,false,0,694.1099999967264,0,1,2,18969,WMM2,610472,false,false,684,image-keyboard-response,50
true,5,0,1,0,true,q,false,true,0.0-2.0-0.22-0.201-3.201,0,0,1,81,false,stim,false,0,527.8200000029756,0,0,2,18969,WMM2,612523,false,false,687,image-keyboard-response,51
true,5,1,1,0,false,q,true,false,0.0-2.0-0.22-0.202-3.202,0,0,1,90,false,stim,false,2,952.8700000010431,0,0,1,18969,WMM2,614993,false,false,690,image-keyboard-response,52
true,5,2,1,2,true,d,false,false,0.0-2.0-0.22-0.203-3.203,0,0,1,68,false,stim,false,0,416.0649999976158,0,1,0,18969,WMM2,616934,false,true,693,image-keyboard-response,53
true,5,2,1,2,true,d,false,false,0.0-2.0-0.22-0.204-3.204,0,0,1,68,false,stim,false,0,430.5850000018254,0,1,0,18969,WMM2,618893,false,true,696,image-keyboard-response,54
true,5,0,1,0,true,q,false,true,0.0-2.0-0.22-0.205-3.205,0,0,1,81,false,stim,false,2,1463.4050000022398,0,0,1,18969,WMM2,621863,false,false,699,image-keyboard-response,55
true,5,0,1,0,true,q,false,true,0.0-2.0-0.22-0.206-3.206,0,0,1,81,false,stim,false,2,587.220000001369,0,0,1,18969,WMM2,623973,false,false,702,image-keyboard-response,56
true,5,1,1,0,false,q,true,false,0.0-2.0-0.23-0.207-3.207,0,0,1,90,false,stim,false,0,1829.695000000298,0,0,2,18969,WMM2,627323,false,false,705,image-keyboard-response,57
true,5,2,1,2,true,d,false,true,0.0-2.0-0.23-0.208-3.208,0,0,1,68,false,stim,false,0,569.0299999987474,0,1,0,18969,WMM2,629423,false,false,708,image-keyboard-response,58
true,5,0,1,0,true,q,false,true,0.0-2.0-0.23-0.209-3.209,0,0,1,81,false,stim,false,0,635.2350000014994,0,0,2,18969,WMM2,631573,false,false,711,image-keyboard-response,59
true,5,2,1,2,true,d,false,true,0.0-2.0-0.23-0.210-3.210,0,0,1,68,false,stim,false,0,670.2650000007125,0,1,0,18969,WMM2,633753,false,false,714,image-keyboard-response,60
true,6,0,1,1,false,z,false,true,0.0-2.0-0.23-0.211-3.211,1,0,0,81,true,stim,true,0,649.2150000048568,0,0,1,18969,WMM2,635933,false,true,717,image-keyboard-response,1
true,6,0,1,1,false,z,false,false,0.0-2.0-0.23-0.212-3.212,1,0,0,81,false,stim,true,0,496.76499999617226,0,0,1,18969,WMM2,637952,false,false,720,image-keyboard-response,2
true,6,0,1,1,false,z,false,false,0.0-2.0-0.23-0.213-3.213,1,0,0,81,false,stim,true,0,792.5899999972899,0,0,1,18969,WMM2,640263,false,false,723,image-keyboard-response,3
true,6,1,1,2,false,d,true,false,0.0-2.0-0.23-0.214-3.214,1,0,0,90,false,stim,false,2,543.904999998631,0,1,0,18969,WMM2,642323,false,false,726,image-keyboard-response,4
true,6,2,1,2,true,d,false,true,0.0-2.0-0.23-0.215-3.215,1,0,0,68,false,stim,false,0,333.6350000028033,0,0,2,18969,WMM2,644182,false,false,729,image-keyboard-response,5
true,6,0,1,1,false,z,false,false,0.0-2.0-0.24-0.216-3.216,1,0,0,81,false,stim,true,0,318.36499999905936,0,0,1,18969,WMM2,646023,false,false,732,image-keyboard-response,6
true,6,2,1,2,true,d,false,true,0.0-2.0-0.24-0.217-3.217,1,0,0,68,false,stim,false,2,255.4149999995716,0,1,0,18969,WMM2,647803,false,false,735,image-keyboard-response,7
true,6,1,1,1,true,z,false,false,0.0-2.0-0.24-0.218-3.218,1,0,0,90,false,stim,false,0,493.68500000122003,0,0,1,18969,WMM2,649824,false,true,738,image-keyboard-response,8
true,6,2,1,1,false,z,true,false,0.0-2.0-0.24-0.219-3.219,1,0,0,68,false,stim,false,0,259.9199999967823,0,0,1,18969,WMM2,651603,false,false,741,image-keyboard-response,9
false,6,-1,1,2,false,d,true,false,0.0-2.0-0.24-0.220-3.220,1,0,0,,false,stim,false,0,,0,0,2,18969,WMM2,656126,false,false,744,image-keyboard-response,10
true,6,0,1,2,false,d,true,false,0.0-2.0-0.24-0.221-3.221,1,0,0,81,false,stim,false,2,750.0700000019278,0,1,0,18969,WMM2,658403,false,false,747,image-keyboard-response,11
true,6,1,1,2,false,d,true,false,0.0-2.0-0.24-0.222-3.222,1,0,0,90,false,stim,false,0,444.1000000005588,0,0,2,18969,WMM2,660364,false,false,750,image-keyboard-response,12
true,6,0,1,2,false,d,true,false,0.0-2.0-0.24-0.223-3.223,1,0,0,81,false,stim,false,2,386.2100000041537,0,1,0,18969,WMM2,662274,false,false,753,image-keyboard-response,13
true,6,2,1,2,true,d,false,true,0.0-2.0-0.24-0.224-3.224,1,0,0,68,false,stim,false,0,330.20000000402797,0,0,2,18969,WMM2,664134,false,false,756,image-keyboard-response,14
true,6,2,1,2,true,d,false,true,0.0-2.0-0.25-0.225-3.225,1,0,0,68,false,stim,false,0,726.7250000004424,0,0,2,18969,WMM2,666383,false,false,759,image-keyboard-response,15
true,6,1,1,2,false,d,true,false,0.0-2.0-0.25-0.226-3.226,1,0,0,90,false,stim,false,2,865.8999999971129,0,1,0,18969,WMM2,668774,false,false,762,image-keyboard-response,16
true,6,0,1,1,false,z,false,false,0.0-2.0-0.25-0.227-3.227,1,0,0,81,false,stim,true,0,388.95499999495223,0,0,1,18969,WMM2,670684,false,false,765,image-keyboard-response,17
true,6,2,1,2,true,d,false,true,0.0-2.0-0.25-0.228-3.228,1,0,0,68,false,stim,false,0,569.4799999983516,0,0,2,18969,WMM2,672773,false,false,768,image-keyboard-response,18
true,6,2,1,2,true,d,false,true,0.0-2.0-0.25-0.229-3.229,1,0,0,68,false,stim,false,0,737.2150000010151,0,0,2,18969,WMM2,675034,false,false,771,image-keyboard-response,19
true,6,2,1,2,true,d,false,true,0.0-2.0-0.25-0.230-3.230,1,0,0,68,false,stim,false,2,419.6650000012014,0,1,0,18969,WMM2,676974,false,false,774,image-keyboard-response,20
true,6,2,1,1,false,z,true,false,0.0-2.0-0.25-0.231-3.231,1,0,0,68,false,stim,false,0,924.34499999939,0,0,1,18969,WMM2,679423,false,false,777,image-keyboard-response,21
true,6,1,1,2,false,d,true,false,0.0-2.0-0.25-0.232-3.232,1,0,0,90,false,stim,false,2,945.0550000037765,0,1,0,18969,WMM2,681894,false,false,780,image-keyboard-response,22
true,6,2,1,1,false,z,true,false,0.0-2.0-0.25-0.233-3.233,1,0,0,68,false,stim,false,0,420.80499999423046,0,0,1,18969,WMM2,683844,false,false,783,image-keyboard-response,23
true,6,0,1,2,false,d,true,false,0.0-2.0-0.26-0.234-3.234,1,0,0,81,false,stim,false,2,554.0299999993294,0,1,0,18969,WMM2,685924,false,false,786,image-keyboard-response,24
true,6,2,1,1,false,z,true,false,0.0-2.0-0.26-0.235-3.235,1,0,0,68,false,stim,false,0,756.1400000050198,0,0,1,18969,WMM2,688204,false,false,789,image-keyboard-response,25
true,6,1,1,2,false,d,true,false,0.0-2.0-0.26-0.236-3.236,1,0,0,90,false,stim,false,2,622.5199999971082,0,1,0,18969,WMM2,690344,false,false,792,image-keyboard-response,26
true,6,0,1,1,false,z,false,false,0.0-2.0-0.26-0.237-3.237,1,0,0,81,false,stim,true,0,869.74499999627,0,0,1,18969,WMM2,692744,false,false,795,image-keyboard-response,27
true,6,1,1,2,false,d,true,false,0.0-2.0-0.26-0.238-3.238,1,0,0,90,false,stim,false,0,354.7049999978626,0,0,2,18969,WMM2,694622,false,false,798,image-keyboard-response,28
true,6,2,1,2,true,d,false,true,0.0-2.0-0.26-0.239-3.239,1,0,0,68,false,stim,false,2,296.5249999980442,0,1,0,18969,WMM2,696442,false,false,801,image-keyboard-response,29
true,6,1,1,2,false,d,true,false,0.0-2.0-0.26-0.240-3.240,1,0,0,90,false,stim,false,0,667.5449999965494,0,0,2,18969,WMM2,698643,false,false,804,image-keyboard-response,30
true,6,0,1,2,false,d,false,false,0.0-2.0-0.26-0.241-3.241,1,0,0,81,false,stim,true,0,551.2949999975972,0,0,2,18969,WMM2,700714,false,false,807,image-keyboard-response,31
true,6,1,1,1,true,z,false,true,0.0-2.0-0.26-0.242-3.242,1,0,0,90,false,stim,false,0,850.0899999999674,0,0,1,18969,WMM2,703084,false,false,810,image-keyboard-response,32
true,6,2,1,2,true,d,false,true,0.0-2.0-0.27-0.243-3.243,1,0,0,68,false,stim,false,0,549.0849999986822,0,0,2,18969,WMM2,705154,false,false,813,image-keyboard-response,33
true,6,2,1,2,true,d,false,true,0.0-2.0-0.27-0.244-3.244,1,0,0,68,false,stim,false,0,538.7049999990268,0,0,2,18969,WMM2,707223,false,false,816,image-keyboard-response,34
true,6,1,1,1,true,z,false,true,0.0-2.0-0.27-0.245-3.245,1,0,0,90,false,stim,false,0,390.43499999388587,0,0,1,18969,WMM2,709143,false,false,819,image-keyboard-response,35
true,6,2,1,2,true,d,false,true,0.0-2.0-0.27-0.246-3.246,1,0,0,68,false,stim,false,2,420.8650000001071,0,1,0,18969,WMM2,711094,false,false,822,image-keyboard-response,36
true,6,2,1,2,true,d,false,true,0.0-2.0-0.27-0.247-3.247,1,0,0,68,false,stim,false,0,646.3949999961769,0,1,2,18969,WMM2,713263,false,false,825,image-keyboard-response,37
true,6,2,1,2,true,d,false,true,0.0-2.0-0.27-0.248-3.248,1,0,0,68,false,stim,false,2,431.0449999974808,0,0,0,18969,WMM2,715214,false,false,828,image-keyboard-response,38
true,6,1,1,1,true,z,false,true,0.0-2.0-0.27-0.249-3.249,1,0,0,90,false,stim,false,0,354.35499999590684,0,1,1,18969,WMM2,717082,false,false,831,image-keyboard-response,39
true,6,1,1,1,true,z,false,true,0.0-2.0-0.27-0.250-3.250,1,0,0,90,false,stim,false,0,491.93499999819323,0,1,1,18969,WMM2,719103,false,false,834,image-keyboard-response,40
true,6,2,1,2,true,d,false,true,0.0-2.0-0.27-0.251-3.251,1,0,0,68,false,stim,false,2,391.75000000256114,0,0,0,18969,WMM2,721014,false,false,837,image-keyboard-response,41
true,6,2,1,2,true,d,false,true,0.0-2.0-0.28-0.252-3.252,1,0,0,68,false,stim,false,2,652.9699999955483,0,0,0,18969,WMM2,723183,false,false,840,image-keyboard-response,42
true,6,2,1,2,true,d,false,true,0.0-2.0-0.28-0.253-3.253,1,0,0,68,false,stim,false,2,499.9850000021979,0,0,0,18969,WMM2,725215,false,false,843,image-keyboard-response,43
true,6,1,1,1,true,z,false,false,0.0-2.0-0.28-0.254-3.254,1,0,0,90,false,stim,false,0,400.0049999958137,0,1,1,18969,WMM2,727133,false,true,846,image-keyboard-response,44
true,6,0,1,1,false,z,false,true,0.0-2.0-0.28-0.255-3.255,1,0,0,81,false,stim,true,0,590.9250000040047,0,1,1,18969,WMM2,729234,false,true,849,image-keyboard-response,45
true,6,2,1,2,true,d,false,true,0.0-2.0-0.28-0.256-3.256,1,0,0,68,false,stim,false,0,572.729999999865,0,1,2,18969,WMM2,731323,false,false,852,image-keyboard-response,46
true,7,0,4,1,false,z,true,false,0.0-2.0-0.28-0.257-3.257,0,1,1,81,true,stim,false,1,439.71500000043306,0,1,1,18969,WMM2,733294,false,false,855,image-keyboard-response,1
true,7,1,4,2,false,d,true,false,0.0-2.0-0.28-0.258-3.258,0,1,1,90,false,stim,false,2,559.8300000056624,0,0,0,18969,WMM2,735375,false,false,858,image-keyboard-response,2
true,7,0,4,2,false,d,true,false,0.0-2.0-0.28-0.259-3.259,0,1,1,81,false,stim,false,2,551.9350000031991,0,1,2,18969,WMM2,737454,false,false,861,image-keyboard-response,3
true,7,1,4,2,false,d,true,false,0.0-2.0-0.28-0.260-3.260,0,1,1,90,false,stim,false,2,596.6100000004517,0,1,2,18969,WMM2,739574,false,false,864,image-keyboard-response,4
true,7,0,4,1,false,z,true,false,0.0-2.0-0.29-0.261-3.261,0,1,1,81,false,stim,false,1,547.8799999982584,0,1,1,18969,WMM2,741643,false,false,867,image-keyboard-response,5
true,7,1,4,2,false,d,true,false,0.0-2.0-0.29-0.262-3.262,0,1,1,90,false,stim,false,2,527.925000002142,0,0,0,18969,WMM2,743693,false,false,870,image-keyboard-response,6
true,7,2,4,1,false,z,true,false,0.0-2.0-0.29-0.263-3.263,0,1,1,68,false,stim,false,1,388.88500000024214,0,1,1,18969,WMM2,745595,false,false,873,image-keyboard-response,7
true,7,2,4,1,false,z,true,true,0.0-2.0-0.29-0.264-3.264,0,1,1,68,false,stim,false,1,355.4999999979045,0,1,1,18969,WMM2,747474,false,true,876,image-keyboard-response,8
true,7,2,4,2,true,d,false,true,0.0-2.0-0.29-0.265-3.265,0,1,1,68,false,stim,false,2,629.0999999983469,0,1,2,18969,WMM2,749623,false,false,879,image-keyboard-response,9
true,7,0,4,2,false,d,true,false,0.0-2.0-0.29-0.266-3.266,0,1,1,81,false,stim,false,2,1410.454999997397,0,0,0,18969,WMM2,752563,false,false,882,image-keyboard-response,10
true,7,2,4,2,true,d,false,true,0.0-2.0-0.29-0.267-3.267,0,1,1,68,false,stim,false,2,278.6649999979418,0,1,2,18969,WMM2,754354,false,false,885,image-keyboard-response,11
true,7,1,4,2,false,d,true,false,0.0-2.0-0.29-0.268-3.268,0,1,1,90,false,stim,false,2,367.52500000142027,0,0,0,18969,WMM2,756257,false,false,888,image-keyboard-response,12
true,7,2,4,2,true,d,false,true,0.0-2.0-0.29-0.269-3.269,0,1,1,68,false,stim,false,2,422.5850000001956,0,1,2,18969,WMM2,758204,false,false,891,image-keyboard-response,13
true,7,2,4,2,true,d,false,true,0.0-2.0-0.30-0.270-3.270,0,1,1,68,false,stim,false,2,390.82000000053085,0,1,2,18969,WMM2,760123,false,false,894,image-keyboard-response,14
true,7,2,4,2,true,d,false,true,0.0-2.0-0.30-0.271-3.271,0,1,1,68,false,stim,false,2,334.74500000011176,0,0,0,18969,WMM2,761974,false,false,897,image-keyboard-response,15
true,7,2,4,1,false,z,true,false,0.0-2.0-0.30-0.272-3.272,0,1,1,68,false,stim,false,1,301.1800000021467,0,1,1,18969,WMM2,763784,false,false,900,image-keyboard-response,16
true,7,2,4,2,true,d,false,false,0.0-2.0-0.30-0.273-3.273,0,1,1,68,false,stim,false,2,594.6899999980815,0,1,2,18969,WMM2,765914,false,true,903,image-keyboard-response,17
true,7,2,4,2,true,d,false,true,0.0-2.0-0.30-0.274-3.274,0,1,1,68,false,stim,false,2,560.720000001369,0,0,0,18969,WMM2,767995,false,false,906,image-keyboard-response,18
true,7,1,4,1,true,z,false,true,0.0-2.0-0.30-0.275-3.275,0,1,1,90,false,stim,false,1,435.5450000001583,0,1,1,18969,WMM2,769955,false,false,909,image-keyboard-response,19
true,7,0,4,2,false,d,true,true,0.0-2.0-0.30-0.276-3.276,0,1,1,81,false,stim,false,2,666.4250000030734,0,1,2,18969,WMM2,772135,false,true,912,image-keyboard-response,20
true,7,1,4,1,true,z,false,true,0.0-2.0-0.30-0.277-3.277,0,1,1,90,false,stim,false,1,538.1950000009965,0,1,1,18969,WMM2,774195,false,false,915,image-keyboard-response,21
true,7,2,4,2,true,d,false,true,0.0-2.0-0.30-0.278-3.278,0,1,1,68,false,stim,false,2,383.8350000005448,0,0,0,18969,WMM2,776115,false,false,918,image-keyboard-response,22
true,7,1,4,1,true,z,false,true,0.0-2.0-0.31-0.279-3.279,0,1,1,90,false,stim,false,1,779.5100000003586,0,1,1,18969,WMM2,778425,false,false,921,image-keyboard-response,23
true,7,0,4,2,false,d,true,false,0.0-2.0-0.31-0.280-3.280,0,1,1,81,false,stim,false,2,413.7249999984633,0,1,2,18969,WMM2,780366,false,false,924,image-keyboard-response,24
true,7,1,4,2,false,d,true,false,0.0-2.0-0.31-0.281-3.281,0,1,1,90,false,stim,false,2,536.0849999997299,0,1,2,18969,WMM2,782414,false,false,927,image-keyboard-response,25
true,7,2,4,2,true,d,false,true,0.0-2.0-0.31-0.282-3.282,0,1,1,68,false,stim,false,2,512.9900000027847,0,1,2,18969,WMM2,784454,false,false,930,image-keyboard-response,26
true,7,1,4,1,true,z,false,true,0.0-2.0-0.31-0.283-3.283,0,1,1,90,false,stim,false,1,900.4899999999907,0,1,1,18969,WMM2,786883,false,false,933,image-keyboard-response,27
true,7,2,4,2,true,d,false,false,0.0-2.0-0.31-0.284-3.284,0,1,1,68,false,stim,false,2,385.17999999737367,0,0,0,18969,WMM2,788794,false,true,936,image-keyboard-response,28
true,7,0,4,2,false,d,true,false,0.0-2.0-0.31-0.285-3.285,0,1,1,81,false,stim,false,2,670.5249999940861,0,0,0,18969,WMM2,790984,false,false,939,image-keyboard-response,29
true,7,1,4,2,false,d,true,false,0.0-2.0-0.31-0.286-3.286,0,1,1,90,false,stim,false,2,317.79500000271946,0,0,0,18969,WMM2,792834,false,false,942,image-keyboard-response,30
true,7,1,4,1,true,z,false,true,0.0-2.0-0.31-0.287-3.287,0,1,1,90,false,stim,false,1,714.2749999985099,0,1,1,18969,WMM2,795074,false,false,945,image-keyboard-response,31
true,7,2,4,2,true,d,false,true,0.0-2.0-0.32-0.288-3.288,0,1,1,68,false,stim,false,2,997.3000000026077,0,1,2,18969,WMM2,797594,false,false,948,image-keyboard-response,32
true,7,1,4,1,true,z,false,true,0.0-2.0-0.32-0.289-3.289,0,1,1,90,false,stim,false,1,374.4049999951385,0,1,1,18969,WMM2,799495,false,false,951,image-keyboard-response,33
true,7,1,4,1,true,z,false,true,0.0-2.0-0.32-0.290-3.290,0,1,1,90,false,stim,false,1,441.84999999566935,0,1,1,18969,WMM2,801454,false,false,954,image-keyboard-response,34
true,7,2,4,2,true,d,false,false,0.0-2.0-0.32-0.291-3.291,0,1,1,68,false,stim,false,2,865.7000000020489,0,0,0,18969,WMM2,803853,false,true,957,image-keyboard-response,35
true,7,1,4,2,false,d,true,false,0.0-2.0-0.32-0.292-3.292,0,1,1,90,false,stim,false,2,554.9250000040047,0,0,0,18969,WMM2,805924,false,false,960,image-keyboard-response,36
true,7,0,4,2,false,d,true,false,0.0-2.0-0.32-0.293-3.293,0,1,1,81,false,stim,false,2,449.70000000472646,0,0,0,18969,WMM2,807904,false,false,963,image-keyboard-response,37
true,7,2,4,2,true,d,false,true,0.0-2.0-0.32-0.294-3.294,0,1,1,68,false,stim,false,2,1174.140000002808,0,1,2,18969,WMM2,810605,false,false,966,image-keyboard-response,38
true,7,1,4,1,true,z,false,true,0.0-2.0-0.32-0.295-3.295,0,1,1,90,false,stim,false,1,463.65000000514556,0,1,1,18969,WMM2,812595,false,false,969,image-keyboard-response,39
true,7,2,4,2,true,d,false,true,0.0-2.0-0.32-0.296-3.296,0,1,1,68,false,stim,false,2,738.2149999976391,0,1,2,18969,WMM2,814864,false,false,972,image-keyboard-response,40
true,7,1,4,1,true,z,false,true,0.0-2.0-0.33-0.297-3.297,0,1,1,90,false,stim,false,1,569.0249999969965,0,1,1,18969,WMM2,816963,false,false,975,image-keyboard-response,41
true,7,1,4,1,true,z,false,false,0.0-2.0-0.33-0.298-3.298,0,1,1,90,false,stim,false,1,569.7700000018813,0,1,1,18969,WMM2,819054,false,true,978,image-keyboard-response,42
true,7,2,4,2,true,d,false,true,0.0-2.0-0.33-0.299-3.299,0,1,1,68,false,stim,false,2,643.3650000034831,0,1,2,18969,WMM2,821225,false,false,981,image-keyboard-response,43
true,7,0,4,2,false,d,true,false,0.0-2.0-0.33-0.300-3.300,0,1,1,81,false,stim,false,2,957.0300000051502,0,0,0,18969,WMM2,823713,false,false,984,image-keyboard-response,44
true,7,1,4,1,true,z,false,true,0.0-2.0-0.33-0.301-3.301,0,1,1,90,false,stim,false,1,730.360000001383,0,1,1,18969,WMM2,825954,false,false,987,image-keyboard-response,45
true,7,2,4,2,true,d,false,true,0.0-2.0-0.33-0.302-3.302,0,1,1,68,false,stim,false,2,436.6599999993341,0,1,2,18969,WMM2,827914,false,false,990,image-keyboard-response,46
true,7,1,4,2,false,d,true,false,0.0-2.0-0.33-0.303-3.303,0,1,1,90,false,stim,false,2,512.8449999975273,0,0,0,18969,WMM2,829953,false,false,993,image-keyboard-response,47
true,7,2,4,2,true,d,false,true,0.0-2.0-0.33-0.304-3.304,0,1,1,68,false,stim,false,2,577.9599999950733,0,1,2,18969,WMM2,832045,false,false,996,image-keyboard-response,48
true,7,2,4,2,true,d,false,true,0.0-2.0-0.33-0.305-3.305,0,1,1,68,false,stim,false,2,873.9999999961583,0,0,0,18969,WMM2,834434,false,false,999,image-keyboard-response,49
true,7,2,4,2,true,d,false,true,0.0-2.0-0.34-0.306-3.306,0,1,1,68,false,stim,false,2,453.59999999345746,0,0,0,18969,WMM2,836414,false,false,1002,image-keyboard-response,50
true,7,2,4,2,true,d,false,true,0.0-2.0-0.34-0.307-3.307,0,1,1,68,false,stim,false,2,405.82500000158325,0,1,2,18969,WMM2,838354,false,false,1005,image-keyboard-response,51
true,7,1,4,1,true,z,false,false,0.0-2.0-0.34-0.308-3.308,0,1,1,90,false,stim,false,1,403.7700000044424,0,1,1,18969,WMM2,840283,false,true,1008,image-keyboard-response,52
true,7,2,4,2,true,d,false,true,0.0-2.0-0.34-0.309-3.309,0,1,1,68,false,stim,false,2,502.36500000033993,0,1,2,18969,WMM2,842305,false,false,1011,image-keyboard-response,53
true,7,2,4,2,true,d,false,true,0.0-2.0-0.34-0.310-3.310,0,1,1,68,false,stim,false,2,463.13499999814667,0,1,2,18969,WMM2,844294,false,false,1014,image-keyboard-response,54
true,7,2,4,2,true,d,false,true,0.0-2.0-0.34-0.311-3.311,0,1,1,68,false,stim,false,2,388.6400000046706,0,0,0,18969,WMM2,846204,false,false,1017,image-keyboard-response,55
true,7,0,4,1,false,z,true,true,0.0-2.0-0.34-0.312-3.312,0,1,1,81,false,stim,false,1,322.56000000052154,0,1,1,18969,WMM2,848044,false,true,1020,image-keyboard-response,56
true,7,2,4,2,true,d,false,false,0.0-2.0-0.34-0.313-3.313,0,1,1,68,false,stim,false,2,434.3949999966426,0,0,0,18969,WMM2,850014,false,true,1023,image-keyboard-response,57
true,7,0,4,1,false,z,true,false,0.0-2.0-0.34-0.314-3.314,0,1,1,81,false,stim,false,1,424.45999999472406,0,1,1,18969,WMM2,851964,false,false,1026,image-keyboard-response,58
true,7,2,4,2,true,d,false,true,0.0-2.0-0.35-0.315-3.315,0,1,1,68,false,stim,false,2,757.8599999977741,0,0,0,18969,WMM2,854245,false,false,1029,image-keyboard-response,59
true,7,1,4,2,false,d,true,false,0.0-2.0-0.35-0.316-3.316,0,1,1,90,false,stim,false,2,740.3950000007171,0,1,2,18969,WMM2,856495,false,false,1032,image-keyboard-response,60
true,8,2,2,2,true,d,false,true,0.0-2.0-0.35-0.317-3.317,0,1,1,68,true,stim,false,2,512.9999999989523,0,1,2,18969,WMM2,858535,false,false,1035,image-keyboard-response,1
true,8,0,2,1,false,z,true,false,0.0-2.0-0.35-0.318-3.318,0,1,1,81,false,stim,false,1,369.1649999964284,0,1,1,18969,WMM2,860434,false,false,1038,image-keyboard-response,2
true,8,0,2,1,false,z,true,false,0.0-2.0-0.35-0.319-3.319,0,1,1,81,false,stim,false,1,666.3799999951152,0,1,1,18969,WMM2,862625,false,false,1041,image-keyboard-response,3
true,8,2,2,0,false,q,false,false,0.0-2.0-0.35-0.320-3.320,0,1,1,68,false,stim,true,2,753.8749999948777,0,0,0,18969,WMM2,864904,false,false,1044,image-keyboard-response,4
true,8,2,2,2,true,d,false,true,0.0-2.0-0.35-0.321-3.321,0,1,1,68,false,stim,false,2,969.9249999976018,0,1,2,18969,WMM2,867395,false,false,1047,image-keyboard-response,5
true,8,1,2,0,false,q,true,false,0.0-2.0-0.35-0.322-3.322,0,1,1,90,false,stim,false,2,425.6550000064308,0,0,0,18969,WMM2,869345,false,false,1050,image-keyboard-response,6
true,8,0,2,1,false,z,true,false,0.0-2.0-0.35-0.323-3.323,0,1,1,81,false,stim,false,1,566.8000000005122,0,1,1,18969,WMM2,871434,false,false,1053,image-keyboard-response,7
true,8,0,2,0,true,q,false,true,0.0-2.0-0.36-0.324-3.324,0,1,1,81,false,stim,false,2,665.8600000009174,0,0,0,18969,WMM2,873615,false,false,1056,image-keyboard-response,8
true,8,1,2,1,true,z,false,true,0.0-2.0-0.36-0.325-3.325,0,1,1,90,false,stim,false,1,460.0250000002561,0,1,1,18969,WMM2,875595,false,false,1059,image-keyboard-response,9
true,8,0,2,0,true,q,false,true,0.0-2.0-0.36-0.326-3.326,0,1,1,81,false,stim,false,2,493.91499999910593,0,0,0,18969,WMM2,877603,false,false,1062,image-keyboard-response,10
true,8,1,2,1,true,z,false,true,0.0-2.0-0.36-0.327-3.327,0,1,1,90,false,stim,false,1,331.2099999965867,0,1,1,18969,WMM2,879455,false,false,1065,image-keyboard-response,11
true,8,2,2,2,true,d,false,true,0.0-2.0-0.36-0.328-3.328,0,1,1,68,false,stim,false,2,378.89000000001397,0,1,2,18969,WMM2,881355,false,false,1068,image-keyboard-response,12
true,8,2,2,2,true,d,false,true,0.0-2.0-0.36-0.329-3.329,0,1,1,68,false,stim,false,2,568.5349999985192,0,1,2,18969,WMM2,883445,false,false,1071,image-keyboard-response,13
true,8,0,2,0,true,q,false,true,0.0-2.0-0.36-0.330-3.330,0,1,1,81,false,stim,false,2,379.99999999732245,0,0,0,18969,WMM2,885343,false,false,1074,image-keyboard-response,14
true,8,2,2,2,true,d,false,true,0.0-2.0-0.36-0.331-3.331,0,1,1,68,false,stim,false,2,560.7450000024401,0,1,2,18969,WMM2,887425,false,false,1077,image-keyboard-response,15
true,8,1,2,1,true,z,false,true,0.0-2.0-0.36-0.332-3.332,0,1,1,90,false,stim,false,1,340.16499999410007,0,1,1,18969,WMM2,889295,false,false,1080,image-keyboard-response,16
true,8,0,2,0,true,q,false,true,0.0-2.0-0.37-0.333-3.333,0,1,1,81,false,stim,false,2,448.66999999806285,0,0,0,18969,WMM2,891285,false,false,1083,image-keyboard-response,17
true,8,1,2,1,true,z,false,true,0.0-2.0-0.37-0.334-3.334,0,1,1,90,false,stim,false,1,512.3949999979232,0,1,1,18969,WMM2,893317,false,false,1086,image-keyboard-response,18
true,8,0,2,0,true,q,false,true,0.0-2.0-0.37-0.335-3.335,0,1,1,81,false,stim,false,2,420.53000000305474,0,0,0,18969,WMM2,895255,false,false,1089,image-keyboard-response,19
true,8,1,2,1,true,z,false,true,0.0-2.0-0.37-0.336-3.336,0,1,1,90,false,stim,false,1,950.2799999973504,0,1,1,18969,WMM2,897735,false,false,1092,image-keyboard-response,20
true,8,0,2,0,true,q,false,true,0.0-2.0-0.37-0.337-3.337,0,1,1,81,false,stim,false,2,392.0499999949243,0,0,0,18969,WMM2,899655,false,false,1095,image-keyboard-response,21
true,8,2,2,2,true,d,false,true,0.0-2.0-0.37-0.338-3.338,0,1,1,68,false,stim,false,2,405.0149999966379,0,1,2,18969,WMM2,901595,false,false,1098,image-keyboard-response,22
true,8,2,2,2,true,d,false,true,0.0-2.0-0.37-0.339-3.339,0,1,1,68,false,stim,false,2,437.3650000053458,0,1,2,18969,WMM2,903565,false,false,1101,image-keyboard-response,23
true,8,2,2,2,true,d,false,true,0.0-2.0-0.37-0.340-3.340,0,1,1,68,false,stim,false,2,441.62499999953434,0,1,2,18969,WMM2,905535,false,false,1104,image-keyboard-response,24
true,8,1,2,1,true,z,false,true,0.0-2.0-0.37-0.341-3.341,0,1,1,90,false,stim,false,1,700.0500000066822,0,1,1,18969,WMM2,907754,false,false,1107,image-keyboard-response,25
true,8,1,2,1,true,z,false,true,0.0-2.0-0.38-0.342-3.342,0,1,1,90,false,stim,false,1,561.5099999995437,0,1,1,18969,WMM2,909845,false,false,1110,image-keyboard-response,26
true,8,2,2,2,true,d,false,true,0.0-2.0-0.38-0.343-3.343,0,1,1,68,false,stim,false,2,542.045000002021,0,1,2,18969,WMM2,911905,false,false,1113,image-keyboard-response,27
true,8,2,2,2,true,d,false,true,0.0-2.0-0.38-0.344-3.344,0,1,1,68,false,stim,false,2,423.10000000009313,0,1,2,18969,WMM2,913855,false,false,1116,image-keyboard-response,28
true,8,2,2,2,true,d,false,true,0.0-2.0-0.38-0.345-3.345,0,1,1,68,false,stim,false,2,359.13499999872874,0,1,2,18969,WMM2,915735,false,false,1119,image-keyboard-response,29
true,8,1,2,1,true,z,false,true,0.0-2.0-0.38-0.346-3.346,0,1,1,90,false,stim,false,1,537.0550000007497,0,1,1,18969,WMM2,917796,false,false,1122,image-keyboard-response,30
true,9,0,4,0,true,q,false,true,0.0-2.0-0.38-0.347-3.347,0,1,1,81,true,stim,false,0,421.41000000271015,0,0,0,18969,WMM2,919735,false,false,1125,image-keyboard-response,1
true,9,1,4,0,false,q,true,false,0.0-2.0-0.38-0.348-3.348,0,1,1,90,false,stim,false,0,315.3549999988172,0,0,0,18969,WMM2,921575,false,false,1128,image-keyboard-response,2
true,9,0,4,0,true,q,false,true,0.0-2.0-0.38-0.349-3.349,0,1,1,81,false,stim,false,0,403.7400000015041,0,0,0,18969,WMM2,923495,false,false,1131,image-keyboard-response,3
true,9,1,4,1,true,z,false,true,0.0-2.0-0.38-0.350-3.350,0,1,1,90,false,stim,false,1,463.6700000045821,0,1,1,18969,WMM2,925485,false,false,1134,image-keyboard-response,4
true,9,2,4,2,true,d,false,true,0.0-2.0-0.39-0.351-3.351,0,1,1,68,false,stim,false,2,542.2600000019884,0,1,2,18969,WMM2,927535,false,false,1137,image-keyboard-response,5
true,9,0,4,0,true,q,false,true,0.0-2.0-0.39-0.352-3.352,0,1,1,81,false,stim,false,0,477.0349999961909,0,0,0,18969,WMM2,929538,false,false,1140,image-keyboard-response,6
true,9,1,4,1,true,z,false,true,0.0-2.0-0.39-0.353-3.353,0,1,1,90,false,stim,false,1,431.5500000010943,0,1,1,18969,WMM2,931495,false,false,1143,image-keyboard-response,7
true,9,2,4,2,true,d,false,true,0.0-2.0-0.39-0.354-3.354,0,1,1,68,false,stim,false,2,443.894999996759,0,1,2,18969,WMM2,933465,false,false,1146,image-keyboard-response,8
true,9,1,4,1,true,z,false,true,0.0-2.0-0.39-0.355-3.355,0,1,1,90,false,stim,false,1,401.66499999770895,0,1,1,18969,WMM2,935385,false,false,1149,image-keyboard-response,9
true,9,2,4,2,true,d,false,true,0.0-2.0-0.39-0.356-3.356,0,1,1,68,false,stim,false,2,535.4300000036601,0,1,2,18969,WMM2,937454,false,false,1152,image-keyboard-response,10
true,9,0,4,0,true,q,false,false,0.0-2.0-0.39-0.357-3.357,0,1,1,81,false,stim,false,0,312.03500000259373,0,0,0,18969,WMM2,939276,false,true,1155,image-keyboard-response,11
true,9,1,4,1,true,z,false,true,0.0-2.0-0.39-0.358-3.358,0,1,1,90,false,stim,false,1,904.1050000013784,0,1,1,18969,WMM2,941696,false,false,1158,image-keyboard-response,12
true,9,1,4,0,false,q,true,false,0.0-2.0-0.39-0.359-3.359,0,1,1,90,false,stim,false,0,810.6249999982538,0,0,0,18969,WMM2,944035,false,false,1161,image-keyboard-response,13
true,9,1,4,1,true,z,false,true,0.0-2.0-0.40-0.360-3.360,0,1,1,90,false,stim,false,1,704.4800000003306,0,1,1,18969,WMM2,946266,false,false,1164,image-keyboard-response,14
true,9,2,4,0,false,q,true,false,0.0-2.0-0.40-0.361-3.361,0,1,1,68,false,stim,false,0,399.44999999715947,0,0,0,18969,WMM2,948175,false,false,1167,image-keyboard-response,15
true,9,2,4,2,true,d,false,true,0.0-2.0-0.40-0.362-3.362,0,1,1,68,false,stim,false,2,830.1399999982677,0,1,2,18969,WMM2,950526,false,false,1170,image-keyboard-response,16
true,9,2,4,2,true,d,false,false,0.0-2.0-0.40-0.363-3.363,0,1,1,68,false,stim,false,2,741.0850000013597,0,1,2,18969,WMM2,952787,false,true,1173,image-keyboard-response,17
true,9,1,4,1,true,z,false,true,0.0-2.0-0.40-0.364-3.364,0,1,1,90,false,stim,false,1,623.8900000024587,0,1,1,18969,WMM2,954936,false,false,1176,image-keyboard-response,18
true,9,2,4,2,true,d,false,true,0.0-2.0-0.40-0.365-3.365,0,1,1,68,false,stim,false,2,1078.9549999972805,0,1,2,18969,WMM2,957546,false,false,1179,image-keyboard-response,19
true,9,0,4,0,true,q,false,true,0.0-2.0-0.40-0.366-3.366,0,1,1,81,false,stim,false,0,390.16000000259373,0,0,0,18969,WMM2,959466,false,false,1182,image-keyboard-response,20
true,9,1,4,1,true,z,false,true,0.0-2.0-0.40-0.367-3.367,0,1,1,90,false,stim,false,1,590.7600000065286,0,1,1,18969,WMM2,961586,false,false,1185,image-keyboard-response,21
true,9,0,4,0,true,q,false,false,0.0-2.0-0.40-0.368-3.368,0,1,1,81,false,stim,false,0,474.54000000294764,0,0,0,18969,WMM2,963576,false,true,1188,image-keyboard-response,22
true,9,1,4,1,true,z,false,true,0.0-2.0-0.41-0.369-3.369,0,1,1,90,false,stim,false,1,602.2099999972852,0,1,1,18969,WMM2,965705,false,false,1191,image-keyboard-response,23
true,9,2,4,2,true,d,false,true,0.0-2.0-0.41-0.370-3.370,0,1,1,68,false,stim,false,2,420.2900000017835,0,0,2,18969,WMM2,967644,false,false,1194,image-keyboard-response,24
true,9,1,4,1,true,z,false,true,0.0-2.0-0.41-0.371-3.371,0,1,1,90,false,stim,false,1,572.5650000022724,0,1,1,18969,WMM2,969745,false,false,1197,image-keyboard-response,25
true,9,0,4,0,true,q,false,false,0.0-2.0-0.41-0.372-3.372,0,1,1,81,false,stim,false,0,305.2900000039954,0,1,0,18969,WMM2,971576,false,true,1200,image-keyboard-response,26
true,9,0,4,0,true,q,false,true,0.0-2.0-0.41-0.373-3.373,0,1,1,81,false,stim,false,0,411.2899999964284,0,1,0,18969,WMM2,973516,false,false,1203,image-keyboard-response,27
true,9,2,4,2,true,d,false,true,0.0-2.0-0.41-0.374-3.374,0,1,1,68,false,stim,false,2,555.8400000007823,0,0,2,18969,WMM2,975596,false,false,1206,image-keyboard-response,28
true,9,0,4,0,true,q,false,true,0.0-2.0-0.41-0.375-3.375,0,1,1,81,false,stim,false,0,574.5999999998603,0,1,0,18969,WMM2,977706,false,false,1209,image-keyboard-response,29
true,9,2,4,2,true,d,false,true,0.0-2.0-0.41-0.376-3.376,0,1,1,68,false,stim,false,2,417.26500000362284,0,0,2,18969,WMM2,979646,false,false,1212,image-keyboard-response,30
true,9,1,4,1,true,z,false,true,0.0-2.0-0.41-0.377-3.377,0,1,1,90,false,stim,false,1,421.05000000447035,0,1,1,18969,WMM2,981596,false,false,1215,image-keyboard-response,31
true,9,0,4,0,true,q,false,true,0.0-2.0-0.42-0.378-3.378,0,1,1,81,false,stim,false,0,365.0899999993853,0,1,0,18969,WMM2,983487,false,false,1218,image-keyboard-response,32
true,10,1,2,1,true,z,false,false,0.0-2.0-0.42-0.379-3.379,1,1,0,90,true,stim,false,1,359.0349999940954,0,1,1,18969,WMM2,985375,false,true,1221,image-keyboard-response,1
true,10,2,2,1,false,z,false,false,0.0-2.0-0.42-0.380-3.380,1,1,0,68,false,stim,true,2,412.30499999807216,0,0,2,18969,WMM2,987297,false,false,1224,image-keyboard-response,2
true,10,0,2,0,true,q,false,true,0.0-2.0-0.42-0.381-3.381,1,1,0,81,false,stim,false,0,394.6750000031898,0,1,0,18969,WMM2,989216,false,false,1227,image-keyboard-response,3
true,10,2,2,1,false,z,false,false,0.0-2.0-0.42-0.382-3.382,1,1,0,68,false,stim,true,2,474.5600000023842,0,0,2,18969,WMM2,991216,false,false,1230,image-keyboard-response,4
true,10,2,2,0,false,q,true,false,0.0-2.0-0.42-0.383-3.383,1,1,0,68,false,stim,false,0,481.98499999847263,0,1,0,18969,WMM2,993206,false,false,1233,image-keyboard-response,5
true,10,2,2,1,false,z,false,false,0.0-2.0-0.42-0.384-3.384,1,1,0,68,false,stim,true,2,918.084999997518,0,0,2,18969,WMM2,995646,false,false,1236,image-keyboard-response,6
true,10,1,2,1,true,z,false,true,0.0-2.0-0.42-0.385-3.385,1,1,0,90,false,stim,false,1,1018.7350000049919,0,1,1,18969,WMM2,998187,false,false,1239,image-keyboard-response,7
true,10,1,2,1,true,z,false,true,0.0-2.0-0.42-0.386-3.386,1,1,0,90,false,stim,false,1,868.77000000095,0,1,1,18969,WMM2,1000586,false,false,1242,image-keyboard-response,8
true,10,1,2,1,true,z,false,true,0.0-2.0-0.43-0.387-3.387,1,1,0,90,false,stim,false,1,438.190000000759,0,1,1,18969,WMM2,1002546,false,false,1245,image-keyboard-response,9
true,10,2,2,1,false,z,false,false,0.0-2.0-0.43-0.388-3.388,1,1,0,68,false,stim,true,2,530.415000001085,0,0,2,18969,WMM2,1004596,false,false,1248,image-keyboard-response,10
true,10,0,2,0,true,q,false,true,0.0-2.0-0.43-0.389-3.389,1,1,0,81,false,stim,false,0,917.0699999958742,0,1,0,18969,WMM2,1007036,false,false,1251,image-keyboard-response,11
true,10,0,2,0,true,q,false,true,0.0-2.0-0.43-0.390-3.390,1,1,0,81,false,stim,false,0,547.1150000011548,0,1,0,18969,WMM2,1009107,false,false,1254,image-keyboard-response,12
true,10,2,2,1,false,z,false,false,0.0-2.0-0.43-0.391-3.391,1,1,0,68,false,stim,true,2,538.6250000010477,0,0,2,18969,WMM2,1011176,false,false,1257,image-keyboard-response,13
true,10,1,2,1,true,z,false,true,0.0-2.0-0.43-0.392-3.392,1,1,0,90,false,stim,false,1,661.2299999978859,0,1,1,18969,WMM2,1013356,false,false,1260,image-keyboard-response,14
true,10,1,2,1,true,z,false,true,0.0-2.0-0.43-0.393-3.393,1,1,0,90,false,stim,false,1,775.8150000008754,0,1,1,18969,WMM2,1015656,false,false,1263,image-keyboard-response,15
true,10,2,2,1,false,z,false,false,0.0-2.0-0.43-0.394-3.394,1,1,0,68,false,stim,true,2,547.2799999988638,0,0,2,18969,WMM2,1017736,false,false,1266,image-keyboard-response,16
true,10,0,2,0,true,q,false,true,0.0-2.0-0.43-0.395-3.395,1,1,0,81,false,stim,false,0,868.505000005709,0,1,0,18969,WMM2,1020127,false,false,1269,image-keyboard-response,17
true,10,1,2,1,true,z,false,true,0.0-2.0-0.44-0.396-3.396,1,1,0,90,false,stim,false,1,617.7600000009406,0,1,1,18969,WMM2,1022276,false,false,1272,image-keyboard-response,18
true,10,0,2,0,true,q,false,true,0.0-2.0-0.44-0.397-3.397,1,1,0,81,false,stim,false,0,429.7500000029104,0,1,0,18969,WMM2,1024236,false,false,1275,image-keyboard-response,19
true,10,1,2,0,false,q,true,true,0.0-2.0-0.44-0.398-3.398,1,1,0,90,false,stim,false,0,409.78500000352506,0,1,0,18969,WMM2,1026176,false,true,1278,image-keyboard-response,20
true,10,1,2,0,false,q,true,false,0.0-2.0-0.44-0.399-3.399,1,1,0,90,false,stim,false,0,687.5050000017509,0,1,0,18969,WMM2,1028386,false,false,1281,image-keyboard-response,21
true,10,2,2,1,false,z,false,false,0.0-2.0-0.44-0.400-3.400,1,1,0,68,false,stim,true,2,504.1150000032503,0,0,2,18969,WMM2,1030417,false,false,1284,image-keyboard-response,22
true,10,2,2,1,false,z,false,false,0.0-2.0-0.44-0.401-3.401,1,1,0,68,false,stim,true,2,855.0550000000512,0,0,2,18969,WMM2,1032796,false,false,1287,image-keyboard-response,23
true,10,2,2,1,false,z,false,false,0.0-2.0-0.44-0.402-3.402,1,1,0,68,false,stim,true,2,559.1599999971222,0,0,2,18969,WMM2,1034875,false,false,1290,image-keyboard-response,24
true,10,1,2,1,true,z,false,true,0.0-2.0-0.44-0.403-3.403,1,1,0,90,false,stim,false,1,686.3000000012107,0,1,1,18969,WMM2,1037096,false,false,1293,image-keyboard-response,25
true,10,1,2,1,true,z,false,true,0.0-2.0-0.44-0.404-3.404,1,1,0,90,false,stim,false,1,499.2550000024494,0,1,1,18969,WMM2,1039126,false,false,1296,image-keyboard-response,26
true,10,1,2,0,false,q,true,false,0.0-2.0-0.45-0.405-3.405,1,1,0,90,false,stim,false,0,1156.3999999999069,0,1,0,18969,WMM2,1041806,false,false,1299,image-keyboard-response,27
true,10,1,2,1,true,z,false,true,0.0-2.0-0.45-0.406-3.406,1,1,0,90,false,stim,false,1,642.6249999931315,0,1,1,18969,WMM2,1043976,false,false,1302,image-keyboard-response,28
true,10,1,2,1,true,z,false,true,0.0-2.0-0.45-0.407-3.407,1,1,0,90,false,stim,false,2,427.5449999986449,0,0,2,18969,WMM2,1045926,false,false,1305,image-keyboard-response,29
true,10,2,2,0,false,q,true,false,0.0-2.0-0.45-0.408-3.408,1,1,0,68,false,stim,false,0,1132.2549999968614,0,1,0,18969,WMM2,1048587,false,false,1308,image-keyboard-response,30
true,10,1,2,0,false,q,true,false,0.0-2.0-0.45-0.409-3.409,1,1,0,90,false,stim,false,0,692.9249999956228,0,1,0,18969,WMM2,1050816,false,false,1311,image-keyboard-response,31
true,10,1,2,1,true,z,false,true,0.0-2.0-0.45-0.410-3.410,1,1,0,90,false,stim,false,1,422.50500000221655,0,1,1,18969,WMM2,1052787,false,false,1314,image-keyboard-response,32
true,10,1,2,1,true,z,false,false,0.0-2.0-0.45-0.411-3.411,1,1,0,90,false,stim,false,2,487.56000000145286,0,0,2,18969,WMM2,1054787,false,true,1317,image-keyboard-response,33
true,10,1,2,1,true,z,false,true,0.0-2.0-0.45-0.412-3.412,1,1,0,90,false,stim,false,2,865.2999999977183,0,0,2,18969,WMM2,1057175,false,false,1320,image-keyboard-response,34
true,10,1,2,1,true,z,false,true,0.0-2.0-0.45-0.413-3.413,1,1,0,90,false,stim,false,1,479.24999999650754,0,1,1,18969,WMM2,1059177,false,false,1323,image-keyboard-response,35
true,10,1,2,1,true,z,false,true,0.0-2.0-0.46-0.414-3.414,1,1,0,90,false,stim,false,2,545.8100000033155,0,0,2,18969,WMM2,1061237,false,false,1326,image-keyboard-response,36
true,10,1,2,1,true,z,false,true,0.0-2.0-0.46-0.415-3.415,1,1,0,90,false,stim,false,1,420.0399999972433,0,1,1,18969,WMM2,1063187,false,false,1329,image-keyboard-response,37
true,10,1,2,1,true,z,false,true,0.0-2.0-0.46-0.416-3.416,1,1,0,90,false,stim,false,1,372.8750000009313,0,1,1,18969,WMM2,1065087,false,false,1332,image-keyboard-response,38
true,10,0,2,0,true,q,false,true,0.0-2.0-0.46-0.417-3.417,1,1,0,81,false,stim,false,0,616.5949999995064,0,1,0,18969,WMM2,1067227,false,false,1335,image-keyboard-response,39
true,10,0,2,0,true,q,false,true,0.0-2.0-0.46-0.418-3.418,1,1,0,81,false,stim,false,0,480.58499999763444,0,1,0,18969,WMM2,1069237,false,false,1338,image-keyboard-response,40
true,10,1,2,1,true,z,false,false,0.0-2.0-0.46-0.419-3.419,1,1,0,90,false,stim,false,1,356.1499999994412,0,0,1,18969,WMM2,1071127,false,true,1341,image-keyboard-response,41
true,10,2,2,1,false,z,false,false,0.0-2.0-0.46-0.420-3.420,1,1,0,68,false,stim,true,2,488.0649999976158,0,1,2,18969,WMM2,1073137,false,false,1344,image-keyboard-response,42
true,10,1,2,1,true,z,false,true,0.0-2.0-0.46-0.421-3.421,1,1,0,90,false,stim,false,2,440.949999996461,0,1,2,18969,WMM2,1075107,false,false,1347,image-keyboard-response,43
true,10,0,2,0,true,q,false,true,0.0-2.0-0.46-0.422-3.422,1,1,0,81,false,stim,false,0,834.1250000011642,0,1,0,18969,WMM2,1077457,false,false,1350,image-keyboard-response,44
true,10,2,2,1,false,z,true,false,0.0-2.0-0.47-0.423-3.423,1,1,0,68,false,stim,false,1,440.94500000216067,0,0,1,18969,WMM2,1079429,false,false,1353,image-keyboard-response,45
true,10,2,2,1,false,z,false,false,0.0-2.0-0.47-0.424-3.424,1,1,0,68,false,stim,true,2,858.5349999992177,0,1,2,18969,WMM2,1081817,false,false,1356,image-keyboard-response,46
true,10,1,2,1,true,z,false,true,0.0-2.0-0.47-0.425-3.425,1,1,0,90,false,stim,false,1,350.81499999784864,0,0,1,18969,WMM2,1083687,false,false,1359,image-keyboard-response,47
true,10,0,2,0,true,q,false,true,0.0-2.0-0.47-0.426-3.426,1,1,0,81,false,stim,false,0,480.83999999659136,0,1,0,18969,WMM2,1085688,false,false,1362,image-keyboard-response,48
true,10,1,2,1,true,z,false,false,0.0-2.0-0.47-0.427-3.427,1,1,0,90,false,stim,false,1,259.39500000094995,0,0,1,18969,WMM2,1087475,false,true,1365,image-keyboard-response,49
true,10,0,2,0,true,q,false,true,0.0-2.0-0.47-0.428-3.428,1,1,0,81,false,stim,false,0,603.1300000031479,0,1,0,18969,WMM2,1089607,false,false,1368,image-keyboard-response,50
true,11,1,3,1,true,z,false,true,0.0-2.0-0.47-0.429-3.429,1,0,1,90,true,stim,false,1,291.3350000018254,0,1,2,18969,WMM2,1091417,false,false,1371,image-keyboard-response,1
true,11,0,3,0,true,q,false,true,0.0-2.0-0.47-0.430-3.430,1,0,1,81,false,stim,false,0,568.300000006333,0,1,0,18969,WMM2,1093507,false,false,1374,image-keyboard-response,2
true,11,1,3,1,true,z,false,true,0.0-2.0-0.47-0.431-3.431,1,0,1,90,false,stim,false,1,477.30000000586733,0,1,2,18969,WMM2,1095507,false,false,1377,image-keyboard-response,3
true,11,1,3,0,false,q,false,false,0.0-2.0-0.48-0.432-3.432,1,0,1,90,false,stim,true,1,760.5599999951664,0,0,1,18969,WMM2,1097788,false,false,1380,image-keyboard-response,4
true,11,1,3,0,false,q,false,false,0.0-2.0-0.48-0.433-3.433,1,0,1,90,false,stim,true,1,533.0599999942351,0,0,1,18969,WMM2,1099847,false,false,1383,image-keyboard-response,5
true,11,0,3,0,true,q,false,false,0.0-2.0-0.48-0.434-3.434,1,0,1,81,false,stim,false,0,498.6350000037346,0,1,0,18969,WMM2,1101867,false,true,1386,image-keyboard-response,6
true,11,0,3,0,true,q,false,true,0.0-2.0-0.48-0.435-3.435,1,0,1,81,false,stim,false,0,483.7699999988545,0,1,0,18969,WMM2,1103867,false,false,1389,image-keyboard-response,7
true,11,0,3,0,true,q,false,false,0.0-2.0-0.48-0.436-3.436,1,0,1,81,false,stim,false,0,790.2749999994412,0,1,0,18969,WMM2,1106187,false,true,1392,image-keyboard-response,8
true,11,2,3,1,false,z,true,false,0.0-2.0-0.48-0.437-3.437,1,0,1,68,false,stim,false,1,509.9999999946449,0,1,2,18969,WMM2,1108228,false,false,1395,image-keyboard-response,9
true,11,1,3,1,true,z,false,false,0.0-2.0-0.48-0.438-3.438,1,0,1,90,false,stim,false,1,527.4250000000466,0,1,2,18969,WMM2,1110277,false,true,1398,image-keyboard-response,10
true,11,0,3,0,true,q,false,true,0.0-2.0-0.48-0.439-3.439,1,0,1,81,false,stim,false,1,338.75500000454485,0,0,1,18969,WMM2,1112147,false,false,1401,image-keyboard-response,11
true,11,1,3,1,true,z,false,false,0.0-2.0-0.48-0.440-3.440,1,0,1,90,false,stim,false,1,1029.3449999953154,0,1,2,18969,WMM2,1114707,false,true,1404,image-keyboard-response,12
true,11,0,3,0,true,q,false,false,0.0-2.0-0.49-0.441-3.441,1,0,1,81,false,stim,false,0,537.9500000053085,0,1,0,18969,WMM2,1116766,false,true,1407,image-keyboard-response,13
true,11,0,3,0,true,q,false,true,0.0-2.0-0.49-0.442-3.442,1,0,1,81,false,stim,false,0,454.94500000495464,0,1,0,18969,WMM2,1118738,false,false,1410,image-keyboard-response,14
true,11,0,3,0,true,q,false,true,0.0-2.0-0.49-0.443-3.443,1,0,1,81,false,stim,false,0,669.9399999997113,0,1,0,18969,WMM2,1120938,false,false,1413,image-keyboard-response,15
true,11,2,3,0,false,q,true,false,0.0-2.0-0.49-0.444-3.444,1,0,1,68,false,stim,false,1,783.2150000031106,0,0,1,18969,WMM2,1123237,false,false,1416,image-keyboard-response,16
true,11,1,3,1,true,z,false,false,0.0-2.0-0.49-0.445-3.445,1,0,1,90,false,stim,false,1,659.4949999998789,0,1,2,18969,WMM2,1125427,false,true,1419,image-keyboard-response,17
true,11,2,3,1,false,z,true,true,0.0-2.0-0.49-0.446-3.446,1,0,1,68,false,stim,false,1,665.85499999905,0,1,2,18969,WMM2,1127628,false,true,1422,image-keyboard-response,18
true,11,2,3,0,false,q,true,false,0.0-2.0-0.49-0.447-3.447,1,0,1,68,false,stim,false,1,1177.4149999981746,0,0,1,18969,WMM2,1130328,false,false,1425,image-keyboard-response,19
true,11,2,3,1,false,z,true,false,0.0-2.0-0.49-0.448-3.448,1,0,1,68,false,stim,false,1,368.80000000377186,0,1,2,18969,WMM2,1132218,false,false,1428,image-keyboard-response,20
true,11,0,3,0,true,q,false,true,0.0-2.0-0.49-0.449-3.449,1,0,1,81,false,stim,false,1,1886.124999997206,0,0,1,18969,WMM2,1135627,false,false,1431,image-keyboard-response,21
true,11,0,3,0,true,q,false,true,0.0-2.0-0.50-0.450-3.450,1,0,1,81,false,stim,false,0,363.8199999986682,0,1,0,18969,WMM2,1137516,false,false,1434,image-keyboard-response,22
true,11,2,3,1,false,z,true,false,0.0-2.0-0.50-0.451-3.451,1,0,1,68,false,stim,false,1,820.6500000015367,0,1,2,18969,WMM2,1139857,false,false,1437,image-keyboard-response,23
true,11,0,3,0,true,q,false,true,0.0-2.0-0.50-0.452-3.452,1,0,1,81,false,stim,false,0,436.9550000047311,0,1,0,18969,WMM2,1141808,false,false,1440,image-keyboard-response,24
true,11,2,3,1,false,z,true,true,0.0-2.0-0.50-0.453-3.453,1,0,1,68,false,stim,false,1,767.1400000036228,0,1,2,18969,WMM2,1144096,false,true,1443,image-keyboard-response,25
true,11,0,3,0,true,q,false,true,0.0-2.0-0.50-0.454-3.454,1,0,1,81,false,stim,false,1,429.8899999994319,0,0,1,18969,WMM2,1146047,false,false,1446,image-keyboard-response,26
true,11,0,3,0,true,q,false,true,0.0-2.0-0.50-0.455-3.455,1,0,1,81,false,stim,false,1,355.20000000530854,0,0,1,18969,WMM2,1147926,false,false,1449,image-keyboard-response,27
true,11,2,3,1,false,z,true,false,0.0-2.0-0.50-0.456-3.456,1,0,1,68,false,stim,false,1,523.2050000047311,0,1,2,18969,WMM2,1149968,false,false,1452,image-keyboard-response,28
true,11,0,3,0,true,q,false,true,0.0-2.0-0.50-0.457-3.457,1,0,1,81,false,stim,false,0,464.1300000003539,0,1,0,18969,WMM2,1151968,false,false,1455,image-keyboard-response,29
true,11,2,3,0,false,q,true,false,0.0-2.0-0.50-0.458-3.458,1,0,1,68,false,stim,false,1,372.1799999985378,0,0,1,18969,WMM2,1153868,false,false,1458,image-keyboard-response,30
true,11,0,3,1,false,z,true,false,0.0-2.0-0.51-0.459-3.459,1,0,1,81,false,stim,false,1,441.9899999992922,0,1,2,18969,WMM2,1155848,false,false,1461,image-keyboard-response,31
true,11,1,3,0,false,q,false,false,0.0-2.0-0.51-0.460-3.460,1,0,1,90,false,stim,true,1,883.5150000012945,0,0,1,18969,WMM2,1158248,false,false,1464,image-keyboard-response,32
true,11,0,3,1,false,z,true,false,0.0-2.0-0.51-0.461-3.461,1,0,1,81,false,stim,false,1,308.16000000038184,0,1,2,18969,WMM2,1160086,false,false,1467,image-keyboard-response,33
true,11,2,3,0,false,q,true,true,0.0-2.0-0.51-0.462-3.462,1,0,1,68,false,stim,false,1,306.7499999960419,0,0,1,18969,WMM2,1161918,false,true,1470,image-keyboard-response,34
true,11,0,3,0,true,q,false,true,0.0-2.0-0.51-0.463-3.463,1,0,1,81,false,stim,false,0,722.0149999994319,0,1,0,18969,WMM2,1164168,false,false,1473,image-keyboard-response,35
true,11,0,3,0,true,q,false,true,0.0-2.0-0.51-0.464-3.464,1,0,1,81,false,stim,false,0,567.3999999999069,0,1,0,18969,WMM2,1166258,false,false,1476,image-keyboard-response,36
true,11,0,3,0,true,q,false,true,0.0-2.0-0.51-0.465-3.465,1,0,1,81,false,stim,false,0,466.30500000179745,0,1,0,18969,WMM2,1168248,false,false,1479,image-keyboard-response,37
true,11,0,3,1,false,z,true,false,0.0-2.0-0.51-0.466-3.466,1,0,1,81,false,stim,false,1,606.285000001546,0,1,2,18969,WMM2,1170388,false,false,1482,image-keyboard-response,38
true,11,2,3,0,false,q,true,true,0.0-2.0-0.51-0.467-3.467,1,0,1,68,false,stim,false,1,1136.6899999994785,0,0,1,18969,WMM2,1173048,false,true,1485,image-keyboard-response,39
true,11,2,3,0,false,q,true,false,0.0-2.0-0.52-0.468-3.468,1,0,1,68,false,stim,false,1,528.225000001723,0,0,1,18969,WMM2,1175099,false,false,1488,image-keyboard-response,40
true,11,2,3,0,false,q,true,false,0.0-2.0-0.52-0.469-3.469,1,0,1,68,false,stim,false,1,657.2099999976344,0,0,1,18969,WMM2,1177287,false,false,1491,image-keyboard-response,41
true,11,2,3,0,false,q,true,false,0.0-2.0-0.52-0.470-3.470,1,0,1,68,false,stim,false,1,378.3000000040047,0,0,1,18969,WMM2,1179188,false,false,1494,image-keyboard-response,42
true,11,0,3,0,true,q,false,true,0.0-2.0-0.52-0.471-3.471,1,0,1,81,false,stim,false,0,706.8049999943469,0,1,0,18969,WMM2,1181418,false,false,1497,image-keyboard-response,43
true,11,1,3,1,true,z,false,false,0.0-2.0-0.52-0.472-3.472,1,0,1,90,false,stim,false,1,531.1100000033621,0,1,2,18969,WMM2,1183478,false,true,1500,image-keyboard-response,44
true,11,2,3,1,false,z,true,false,0.0-2.0-0.52-0.473-3.473,1,0,1,68,false,stim,false,1,396.8899999964051,0,1,2,18969,WMM2,1185409,false,false,1503,image-keyboard-response,45
true,11,0,3,0,true,q,false,true,0.0-2.0-0.52-0.474-3.474,1,0,1,81,false,stim,false,0,540.5899999968242,0,1,0,18969,WMM2,1187468,false,false,1506,image-keyboard-response,46
true,11,0,3,1,false,z,true,false,0.0-2.0-0.52-0.475-3.475,1,0,1,81,false,stim,false,1,405.43000000622123,0,1,2,18969,WMM2,1189408,false,false,1509,image-keyboard-response,47
true,11,0,3,0,true,q,false,true,0.0-2.0-0.52-0.476-3.476,1,0,1,81,false,stim,false,0,696.1599999994505,0,1,0,18969,WMM2,1191618,false,false,1512,image-keyboard-response,48
true,11,1,3,1,true,z,false,true,0.0-2.0-0.53-0.477-3.477,1,0,1,90,false,stim,false,1,489.3450000018347,0,1,2,18969,WMM2,1193628,false,false,1515,image-keyboard-response,49
true,11,2,3,0,false,q,true,true,0.0-2.0-0.53-0.478-3.478,1,0,1,68,false,stim,false,1,420.6649999979418,0,0,1,18969,WMM2,1195569,false,true,1518,image-keyboard-response,50
true,11,1,3,1,true,z,false,true,0.0-2.0-0.53-0.479-3.479,1,0,1,90,false,stim,false,1,370.080000000773,0,1,2,18969,WMM2,1197458,false,false,1521,image-keyboard-response,51
true,11,2,3,0,false,q,true,false,0.0-2.0-0.53-0.480-3.480,1,0,1,68,false,stim,false,1,600.8699999947567,0,1,1,18969,WMM2,1199578,false,false,1524,image-keyboard-response,52
true,11,0,3,0,true,q,false,true,0.0-2.0-0.53-0.481-3.481,1,0,1,81,false,stim,false,0,480.3549999995157,0,0,0,18969,WMM2,1201588,false,false,1527,image-keyboard-response,53
true,11,0,3,0,true,q,false,true,0.0-2.0-0.53-0.482-3.482,1,0,1,81,false,stim,false,0,597.5649999962188,0,0,0,18969,WMM2,1203698,false,false,1530,image-keyboard-response,54
true,11,1,3,1,true,z,false,false,0.0-2.0-0.53-0.483-3.483,1,0,1,90,false,stim,false,1,476.3449999955483,0,1,2,18969,WMM2,1205699,false,true,1533,image-keyboard-response,55
true,11,0,3,0,true,q,false,true,0.0-2.0-0.53-0.484-3.484,1,0,1,81,false,stim,false,0,557.0999999982305,0,0,0,18969,WMM2,1207777,false,false,1536,image-keyboard-response,56
true,11,2,3,0,false,q,true,false,0.0-2.0-0.53-0.485-3.485,1,0,1,68,false,stim,false,1,557.0850000001956,0,1,1,18969,WMM2,1209858,false,false,1539,image-keyboard-response,57
true,11,0,3,0,true,q,false,true,0.0-2.0-0.54-0.486-3.486,1,0,1,81,false,stim,false,0,816.4800000013784,0,0,0,18969,WMM2,1212198,false,false,1542,image-keyboard-response,58
true,11,2,3,1,false,z,true,false,0.0-2.0-0.54-0.487-3.487,1,0,1,68,false,stim,false,1,491.6099999975413,0,1,2,18969,WMM2,1214208,false,false,1545,image-keyboard-response,59
true,11,1,3,0,false,q,false,true,0.0-2.0-0.54-0.488-3.488,1,0,1,90,false,stim,true,1,1039.9050000051502,0,1,1,18969,WMM2,1216769,false,true,1548,image-keyboard-response,60
true,12,0,3,1,false,z,false,false,0.0-2.0-0.54-0.489-3.489,0,1,1,81,true,stim,true,0,455.28500000364147,0,0,0,18969,WMM2,1218749,false,false,1551,image-keyboard-response,1
true,12,1,3,0,false,q,true,false,0.0-2.0-0.54-0.490-3.490,0,1,1,90,false,stim,false,0,452.8450000071898,0,1,1,18969,WMM2,1220728,false,false,1554,image-keyboard-response,2
true,12,2,3,1,false,z,true,true,0.0-2.0-0.54-0.491-3.491,0,1,1,68,false,stim,false,1,436.2399999953341,0,1,2,18969,WMM2,1222679,false,true,1557,image-keyboard-response,3
true,12,0,3,1,false,z,false,false,0.0-2.0-0.54-0.492-3.492,0,1,1,81,false,stim,true,0,438.0149999996647,0,0,0,18969,WMM2,1224639,false,false,1560,image-keyboard-response,4
true,12,1,3,0,false,q,true,false,0.0-2.0-0.54-0.493-3.493,0,1,1,90,false,stim,false,0,478.9949999975506,0,1,1,18969,WMM2,1226649,false,false,1563,image-keyboard-response,5
true,12,2,3,1,false,z,true,false,0.0-2.0-0.54-0.494-3.494,0,1,1,68,false,stim,false,1,428.8349999987986,0,1,2,18969,WMM2,1228609,false,false,1566,image-keyboard-response,6
true,12,1,3,0,false,q,true,false,0.0-2.0-0.55-0.495-3.495,0,1,1,90,false,stim,false,0,741.3650000016205,0,1,1,18969,WMM2,1230879,false,false,1569,image-keyboard-response,7
true,12,0,3,1,false,z,false,true,0.0-2.0-0.55-0.496-3.496,0,1,1,81,false,stim,true,0,485.33499999763444,0,0,0,18969,WMM2,1232879,false,true,1572,image-keyboard-response,8
true,12,0,3,1,false,z,false,false,0.0-2.0-0.55-0.497-3.497,0,1,1,81,false,stim,true,0,384.44000000157394,0,0,0,18969,WMM2,1234789,false,false,1575,image-keyboard-response,9
true,12,2,3,0,false,q,true,false,0.0-2.0-0.55-0.498-3.498,0,1,1,68,false,stim,false,0,920.250000002794,0,1,1,18969,WMM2,1237237,false,false,1578,image-keyboard-response,10
true,12,0,3,1,false,z,false,false,0.0-2.0-0.55-0.499-3.499,0,1,1,81,false,stim,true,0,443.6100000021979,0,0,0,18969,WMM2,1239199,false,false,1581,image-keyboard-response,11
true,12,1,3,1,true,z,false,false,0.0-2.0-0.55-0.500-3.500,0,1,1,90,false,stim,false,1,542.7999999956228,0,1,2,18969,WMM2,1241271,false,true,1584,image-keyboard-response,12
true,12,2,3,1,false,z,true,false,0.0-2.0-0.55-0.501-3.501,0,1,1,68,false,stim,false,1,642.8650000016205,0,1,2,18969,WMM2,1243449,false,false,1587,image-keyboard-response,13
true,12,0,3,1,false,z,true,false,0.0-2.0-0.55-0.502-3.502,0,1,1,81,false,stim,false,1,457.6549999983981,0,1,2,18969,WMM2,1245429,false,false,1590,image-keyboard-response,14
true,12,1,3,0,false,q,true,false,0.0-2.0-0.55-0.503-3.503,0,1,1,90,false,stim,false,0,497.60000000242144,0,1,1,18969,WMM2,1247449,false,false,1593,image-keyboard-response,15
true,12,2,3,1,false,z,true,false,0.0-2.0-0.56-0.504-3.504,0,1,1,68,false,stim,false,1,799.675000002142,0,1,2,18969,WMM2,1249769,false,false,1596,image-keyboard-response,16
true,12,2,3,0,false,q,true,true,0.0-2.0-0.56-0.505-3.505,0,1,1,68,false,stim,false,0,909.0050000012852,0,1,1,18969,WMM2,1252189,false,true,1599,image-keyboard-response,17
true,12,2,3,1,false,z,true,false,0.0-2.0-0.56-0.506-3.506,0,1,1,68,false,stim,false,1,605.2649999982677,0,1,2,18969,WMM2,1254339,false,false,1602,image-keyboard-response,18
true,12,2,3,0,false,q,true,false,0.0-2.0-0.56-0.507-3.507,0,1,1,68,false,stim,false,0,480.84499999834225,0,1,1,18969,WMM2,1256349,false,false,1605,image-keyboard-response,19
true,12,1,3,0,false,q,true,false,0.0-2.0-0.56-0.508-3.508,0,1,1,90,false,stim,false,0,549.1750000002794,0,1,1,18969,WMM2,1258429,false,false,1608,image-keyboard-response,20
true,12,0,3,1,false,z,false,false,0.0-2.0-0.56-0.509-3.509,0,1,1,81,false,stim,true,0,497.30000000284053,0,0,0,18969,WMM2,1260460,false,false,1611,image-keyboard-response,21
true,12,1,3,1,true,z,false,true,0.0-2.0-0.56-0.510-3.510,0,1,1,90,false,stim,false,1,444.64500000327826,0,1,2,18969,WMM2,1262429,false,false,1614,image-keyboard-response,22
true,12,1,3,1,true,z,false,true,0.0-2.0-0.56-0.511-3.511,0,1,1,90,false,stim,false,0,548.1799999978393,0,0,0,18969,WMM2,1264499,false,false,1617,image-keyboard-response,23
true,12,1,3,1,true,z,false,true,0.0-2.0-0.56-0.512-3.512,0,1,1,90,false,stim,false,0,658.8899999987334,0,0,0,18969,WMM2,1266677,false,false,1620,image-keyboard-response,24
true,12,1,3,1,true,z,false,false,0.0-2.0-0.57-0.513-3.513,0,1,1,90,false,stim,false,1,413.1950000009965,0,1,2,18969,WMM2,1268619,false,true,1623,image-keyboard-response,25
true,12,1,3,1,true,z,false,true,0.0-2.0-0.57-0.514-3.514,0,1,1,90,false,stim,false,1,409.92000000551343,0,1,2,18969,WMM2,1270550,false,false,1626,image-keyboard-response,26
true,12,1,3,1,true,z,false,true,0.0-2.0-0.57-0.515-3.515,0,1,1,90,false,stim,false,0,296.9500000034459,0,0,0,18969,WMM2,1272369,false,false,1629,image-keyboard-response,27
true,12,1,3,1,true,z,false,true,0.0-2.0-0.57-0.516-3.516,0,1,1,90,false,stim,false,1,471.55999999819323,0,1,2,18969,WMM2,1274359,false,false,1632,image-keyboard-response,28
true,12,1,3,1,true,z,false,true,0.0-2.0-0.57-0.517-3.517,0,1,1,90,false,stim,false,0,491.75000000116415,0,0,0,18969,WMM2,1276379,false,false,1635,image-keyboard-response,29
true,12,0,3,0,true,q,false,true,0.0-2.0-0.57-0.518-3.518,0,1,1,81,false,stim,false,0,1142.5850000013597,0,1,1,18969,WMM2,1279059,false,false,1638,image-keyboard-response,30
true,12,1,3,1,true,z,false,false,0.0-2.0-0.57-0.519-3.519,0,1,1,90,false,stim,false,0,435.33000000030734,0,0,0,18969,WMM2,1281020,false,true,1641,image-keyboard-response,31
true,12,0,3,0,true,q,false,true,0.0-2.0-0.57-0.520-3.520,0,1,1,81,false,stim,false,0,444.81000000075437,0,1,1,18969,WMM2,1282989,false,false,1644,image-keyboard-response,32
true,12,0,3,0,true,q,false,false,0.0-2.0-0.57-0.521-3.521,0,1,1,81,false,stim,false,0,507.76500000199303,0,1,1,18969,WMM2,1285039,false,true,1647,image-keyboard-response,33
true,12,1,3,1,true,z,false,true,0.0-2.0-0.58-0.522-3.522,0,1,1,90,false,stim,false,1,519.2050000042655,0,0,2,18969,WMM2,1287079,false,false,1650,image-keyboard-response,34
true,12,1,3,1,true,z,false,false,0.0-2.0-0.58-0.523-3.523,0,1,1,90,false,stim,false,1,430.9450000000652,0,0,2,18969,WMM2,1289029,false,true,1653,image-keyboard-response,35
true,12,1,3,1,true,z,false,true,0.0-2.0-0.58-0.524-3.524,0,1,1,90,false,stim,false,1,426.9150000035297,0,0,2,18969,WMM2,1290979,false,false,1656,image-keyboard-response,36
true,12,0,3,1,false,z,false,false,0.0-2.0-0.58-0.525-3.525,0,1,1,81,false,stim,true,0,488.6499999992084,0,1,0,18969,WMM2,1292990,false,false,1659,image-keyboard-response,37
true,12,0,3,1,false,z,false,false,0.0-2.0-0.58-0.526-3.526,0,1,1,81,false,stim,true,0,480.1699999952689,0,1,0,18969,WMM2,1294989,false,false,1662,image-keyboard-response,38
true,12,1,3,0,false,q,true,false,0.0-2.0-0.58-0.527-3.527,0,1,1,90,false,stim,false,0,409.3349999967031,0,1,1,18969,WMM2,1296918,false,false,1665,image-keyboard-response,39
true,12,1,3,1,true,z,false,true,0.0-2.0-0.58-0.528-3.528,0,1,1,90,false,stim,false,0,397.0100000007078,0,1,0,18969,WMM2,1298839,false,false,1668,image-keyboard-response,40
true,12,2,3,0,false,q,true,false,0.0-2.0-0.58-0.529-3.529,0,1,1,68,false,stim,false,0,553.9300000017975,0,1,1,18969,WMM2,1300913,false,false,1671,image-keyboard-response,41
true,12,1,3,0,false,q,true,false,0.0-2.0-0.58-0.530-3.530,0,1,1,90,false,stim,false,0,493.8350000011269,0,1,1,18969,WMM2,1302933,false,false,1674,image-keyboard-response,42
true,13,2,4,1,false,z,true,false,0.0-2.0-0.59-0.531-3.531,1,1,0,68,true,stim,false,1,749.9849999949802,0,0,2,18969,WMM2,1305204,false,false,1677,image-keyboard-response,1
true,13,1,4,1,true,z,false,true,0.0-2.0-0.59-0.532-3.532,1,1,0,90,false,stim,false,1,315.81500000180677,0,1,0,18969,WMM2,1307053,false,false,1680,image-keyboard-response,2
true,13,0,4,0,true,q,false,true,0.0-2.0-0.59-0.533-3.533,1,1,0,81,false,stim,false,0,515.650000001071,0,1,1,18969,WMM2,1309093,false,false,1683,image-keyboard-response,3
true,13,0,4,0,true,q,false,true,0.0-2.0-0.59-0.534-3.534,1,1,0,81,false,stim,false,0,420.03500000271015,0,1,1,18969,WMM2,1311023,false,false,1686,image-keyboard-response,4
true,13,1,4,1,true,z,false,true,0.0-2.0-0.59-0.535-3.535,1,1,0,90,false,stim,false,1,353.4799999978859,0,1,0,18969,WMM2,1312903,false,false,1689,image-keyboard-response,5
true,13,0,4,0,true,q,false,false,0.0-2.0-0.59-0.536-3.536,1,1,0,81,false,stim,false,0,533.3250000039116,0,1,1,18969,WMM2,1314963,false,true,1692,image-keyboard-response,6
true,13,0,4,1,false,z,true,false,0.0-2.0-0.59-0.537-3.537,1,1,0,81,false,stim,false,1,319.0149999936111,0,0,2,18969,WMM2,1316804,false,false,1695,image-keyboard-response,7
true,13,1,4,1,true,z,false,false,0.0-2.0-0.59-0.538-3.538,1,1,0,90,false,stim,false,1,778.5300000030547,0,0,2,18969,WMM2,1319104,false,true,1698,image-keyboard-response,8
true,13,1,4,1,true,z,false,true,0.0-2.0-0.59-0.539-3.539,1,1,0,90,false,stim,false,1,882.550000002142,0,1,0,18969,WMM2,1321524,false,false,1701,image-keyboard-response,9
true,13,2,4,1,false,z,true,false,0.0-2.0-0.60-0.540-3.540,1,1,0,68,false,stim,false,1,485.89499999792315,0,1,0,18969,WMM2,1323533,false,false,1704,image-keyboard-response,10
true,13,1,4,1,true,z,false,false,0.0-2.0-0.60-0.541-3.541,1,1,0,90,false,stim,false,1,443.0950000025332,0,1,0,18969,WMM2,1325504,false,true,1707,image-keyboard-response,11
true,13,2,4,0,false,q,true,false,0.0-2.0-0.60-0.542-3.542,1,1,0,68,false,stim,false,0,815.410000002943,0,1,1,18969,WMM2,1327852,false,false,1710,image-keyboard-response,12
true,13,0,4,0,true,q,false,false,0.0-2.0-0.60-0.543-3.543,1,1,0,81,false,stim,false,0,431.19499999750406,0,1,1,18969,WMM2,1329813,false,true,1713,image-keyboard-response,13
true,13,1,4,0,false,q,true,false,0.0-2.0-0.60-0.544-3.544,1,1,0,90,false,stim,false,0,621.6449999993201,0,1,1,18969,WMM2,1331964,false,false,1716,image-keyboard-response,14
true,13,1,4,1,true,z,false,true,0.0-2.0-0.60-0.545-3.545,1,1,0,90,false,stim,false,1,842.2999999965541,0,0,2,18969,WMM2,1334334,false,false,1719,image-keyboard-response,15
true,13,1,4,1,true,z,false,true,0.0-2.0-0.60-0.546-3.546,1,1,0,90,false,stim,false,1,761.8499999952037,0,0,2,18969,WMM2,1336626,false,false,1722,image-keyboard-response,16
true,13,1,4,1,true,z,false,true,0.0-2.0-0.60-0.547-3.547,1,1,0,90,false,stim,false,1,485.46499999798834,0,0,2,18969,WMM2,1338645,false,false,1725,image-keyboard-response,17
true,13,2,4,1,false,z,true,true,0.0-2.0-0.60-0.548-3.548,1,1,0,68,false,stim,false,1,503.6550000004936,0,1,0,18969,WMM2,1340664,false,true,1728,image-keyboard-response,18
true,13,2,4,1,false,z,true,false,0.0-2.0-0.61-0.549-3.549,1,1,0,68,false,stim,false,1,546.1450000002515,0,1,0,18969,WMM2,1342734,false,false,1731,image-keyboard-response,19
true,13,1,4,1,true,z,false,true,0.0-2.0-0.61-0.550-3.550,1,1,0,90,false,stim,false,1,597.4399999976158,0,0,2,18969,WMM2,1344844,false,false,1734,image-keyboard-response,20
true,13,2,4,1,false,z,true,false,0.0-2.0-0.61-0.551-3.551,1,1,0,68,false,stim,false,1,410.5200000051409,0,1,0,18969,WMM2,1346774,false,false,1737,image-keyboard-response,21
true,13,0,4,0,true,q,false,false,0.0-2.0-0.61-0.552-3.552,1,1,0,81,false,stim,false,0,599.5650000041351,0,1,1,18969,WMM2,1348897,false,true,1740,image-keyboard-response,22
true,13,1,4,0,false,q,true,false,0.0-2.0-0.61-0.553-3.553,1,1,0,90,false,stim,false,0,544.4549999956507,0,1,1,18969,WMM2,1350974,false,false,1743,image-keyboard-response,23
true,13,1,4,1,true,z,false,true,0.0-2.0-0.61-0.554-3.554,1,1,0,90,false,stim,false,1,721.6199999966193,0,0,2,18969,WMM2,1353234,false,false,1746,image-keyboard-response,24
true,13,1,4,1,true,z,false,true,0.0-2.0-0.61-0.555-3.555,1,1,0,90,false,stim,false,1,429.9249999965541,0,0,2,18969,WMM2,1355194,false,false,1749,image-keyboard-response,25
true,13,2,4,1,false,z,true,true,0.0-2.0-0.61-0.556-3.556,1,1,0,68,false,stim,false,1,598.7749999987427,0,1,0,18969,WMM2,1357323,false,true,1752,image-keyboard-response,26
true,13,2,4,0,false,q,true,false,0.0-2.0-0.61-0.557-3.557,1,1,0,68,false,stim,false,0,1072.4850000042934,0,1,1,18969,WMM2,1359915,false,false,1755,image-keyboard-response,27
true,13,1,4,0,false,q,true,false,0.0-2.0-0.62-0.558-3.558,1,1,0,90,false,stim,false,0,606.2249999959022,0,1,1,18969,WMM2,1362049,false,false,1758,image-keyboard-response,28
true,13,1,4,1,true,z,false,true,0.0-2.0-0.62-0.559-3.559,1,1,0,90,false,stim,false,1,895.295000002021,0,0,2,18969,WMM2,1364460,false,false,1761,image-keyboard-response,29
true,13,1,4,1,true,z,false,true,0.0-2.0-0.62-0.560-3.560,1,1,0,90,false,stim,false,1,629.2350000003353,0,0,2,18969,WMM2,1366610,false,false,1764,image-keyboard-response,30
true,13,1,4,1,true,z,false,true,0.0-2.0-0.62-0.561-3.561,1,1,0,90,false,stim,false,1,431.9499999983236,0,0,2,18969,WMM2,1368562,false,false,1767,image-keyboard-response,31
true,13,2,4,1,false,z,true,false,0.0-2.0-0.62-0.562-3.562,1,1,0,68,false,stim,false,1,398.43500000284985,0,1,0,18969,WMM2,1370481,false,false,1770,image-keyboard-response,32
true,13,2,4,0,false,q,true,false,0.0-2.0-0.62-0.563-3.563,1,1,0,68,false,stim,false,0,415.1449999990873,0,1,1,18969,WMM2,1372432,false,false,1773,image-keyboard-response,33
true,13,2,4,0,false,q,true,false,0.0-2.0-0.62-0.564-3.564,1,1,0,68,false,stim,false,0,464.2749999985099,0,1,1,18969,WMM2,1374430,false,false,1776,image-keyboard-response,34
true,13,0,4,1,false,z,true,false,0.0-2.0-0.62-0.565-3.565,1,1,0,81,false,stim,false,1,834.7549999963958,0,1,0,18969,WMM2,1376789,false,false,1779,image-keyboard-response,35
true,13,1,4,1,true,z,false,true,0.0-2.0-0.62-0.566-3.566,1,1,0,90,false,stim,false,1,505.5300000021234,0,1,0,18969,WMM2,1378819,false,false,1782,image-keyboard-response,36
true,13,1,4,1,true,z,false,true,0.0-2.0-0.63-0.567-3.567,1,1,0,90,false,stim,false,1,351.51500000222586,0,0,2,18969,WMM2,1380701,false,false,1785,image-keyboard-response,37
true,13,1,4,1,true,z,false,true,0.0-2.0-0.63-0.568-3.568,1,1,0,90,false,stim,false,1,525.2600000021048,0,1,0,18969,WMM2,1382750,false,false,1788,image-keyboard-response,38
true,13,1,4,1,true,z,false,true,0.0-2.0-0.63-0.569-3.569,1,1,0,90,false,stim,false,1,669.1849999988917,0,0,2,18969,WMM2,1384930,false,false,1791,image-keyboard-response,39
true,13,0,4,0,true,q,false,true,0.0-2.0-0.63-0.570-3.570,1,1,0,81,false,stim,false,0,573.4249999951571,0,1,1,18969,WMM2,1387029,false,false,1794,image-keyboard-response,40
true,13,1,4,1,true,z,false,true,0.0-2.0-0.63-0.571-3.571,1,1,0,90,false,stim,false,1,440.99000000278465,0,0,2,18969,WMM2,1389000,false,false,1797,image-keyboard-response,41
true,13,0,4,1,false,z,true,false,0.0-2.0-0.63-0.572-3.572,1,1,0,81,false,stim,false,1,588.0500000058673,0,1,0,18969,WMM2,1391121,false,false,1800,image-keyboard-response,42
true,13,0,4,0,true,q,false,true,0.0-2.0-0.63-0.573-3.573,1,1,0,81,false,stim,false,0,456.9599999957718,0,1,1,18969,WMM2,1393110,false,false,1803,image-keyboard-response,43
true,13,1,4,1,true,z,false,true,0.0-2.0-0.63-0.574-3.574,1,1,0,90,false,stim,false,1,1184.9700000020675,0,1,0,18969,WMM2,1395831,false,false,1806,image-keyboard-response,44
true,13,0,4,0,true,q,false,true,0.0-2.0-0.63-0.575-3.575,1,1,0,81,false,stim,false,0,430.3100000033155,0,1,1,18969,WMM2,1397781,false,false,1809,image-keyboard-response,45
true,13,1,4,1,true,z,false,true,0.0-2.0-0.64-0.576-3.576,1,1,0,90,false,stim,false,1,940.3600000003353,0,1,0,18969,WMM2,1400250,false,false,1812,image-keyboard-response,46
true,13,0,4,0,true,q,false,true,0.0-2.0-0.64-0.577-3.577,1,1,0,81,false,stim,false,0,377.03000000328757,0,1,1,18969,WMM2,1402151,false,false,1815,image-keyboard-response,47
true,13,2,4,1,false,z,true,false,0.0-2.0-0.64-0.578-3.578,1,1,0,68,false,stim,false,1,930.0799999984447,0,0,2,18969,WMM2,1404600,false,false,1818,image-keyboard-response,48
true,13,1,4,1,true,z,false,true,0.0-2.0-0.64-0.579-3.579,1,1,0,90,false,stim,false,1,464.6649999995716,0,0,2,18969,WMM2,1406589,false,false,1821,image-keyboard-response,49
true,13,0,4,0,true,q,false,true,0.0-2.0-0.64-0.580-3.580,1,1,0,81,false,stim,false,0,550.5000000046566,0,1,1,18969,WMM2,1408661,false,false,1824,image-keyboard-response,50
true,13,1,4,1,true,z,false,true,0.0-2.0-0.64-0.581-3.581,1,1,0,90,false,stim,false,1,280.7900000042282,0,1,0,18969,WMM2,1410461,false,false,1827,image-keyboard-response,51
true,13,0,4,0,true,q,false,false,0.0-2.0-0.64-0.582-3.582,1,1,0,81,false,stim,false,0,816.1450000042096,0,1,1,18969,WMM2,1412791,false,true,1830,image-keyboard-response,52
true,13,1,4,1,true,z,false,true,0.0-2.0-0.64-0.583-3.583,1,1,0,90,false,stim,false,1,356.78500000340864,0,1,0,18969,WMM2,1414671,false,false,1833,image-keyboard-response,53
true,13,1,4,1,true,z,false,true,0.0-2.0-0.64-0.584-3.584,1,1,0,90,false,stim,false,1,346.0750000013504,0,0,2,18969,WMM2,1416539,false,false,1836,image-keyboard-response,54
true,13,2,4,0,false,q,true,false,0.0-2.0-0.65-0.585-3.585,1,1,0,68,false,stim,false,0,651.590000001248,0,1,1,18969,WMM2,1418701,false,false,1839,image-keyboard-response,55
