answered,blockNum,choice,condition,corResp,correct,correct_response,explo,fb,internal_node_id,isStable_1,isStable_2,isStable_3,key_press,newBlock,part,persev,persevResp,rt,sessNum,stableAS,stimulus,subject,task,time_elapsed,training,trap,trial_index,trial_type,trialsInBlock
true,1,0,0,1,false,z,true,false,0.0-2.0-0.0-0.0-3.0,0,0,0,81,true,stim,false,-1,854.0,2,0,0,18969,WMM1,254174,false,false,130,image-keyboard-response,1
true,1,2,0,1,false,z,true,false,0.0-2.0-0.0-0.1-3.1,0,0,0,68,false,stim,false,-1,544.8999999999069,2,0,2,18969,WMM1,256234,false,false,133,image-keyboard-response,2
true,1,2,0,1,false,z,true,false,0.0-2.0-0.0-0.2-3.2,0,0,0,68,false,stim,false,-1,392.70000000018626,2,0,2,18969,WMM1,258154,false,false,136,image-keyboard-response,3
true,1,1,0,1,true,z,false,true,0.0-2.0-0.0-0.3-3.3,0,0,0,90,false,stim,false,-1,406.5,2,0,0,18969,WMM1,260074,false,false,139,image-keyboard-response,4
true,1,0,0,2,false,d,true,false,0.0-2.0-0.0-0.4-3.4,0,0,0,81,false,stim,false,-1,598.8000000002794,2,0,1,18969,WMM1,262194,false,false,142,image-keyboard-response,5
true,1,1,0,2,false,d,true,false,0.0-2.0-0.0-0.5-3.5,0,0,0,90,false,stim,false,-1,573.6000000000931,2,0,1,18969,WMM1,264295,false,false,145,image-keyboard-response,6
true,1,2,0,1,false,z,true,true,0.0-2.0-0.0-0.6-3.6,0,0,0,68,false,stim,false,-1,433.0,2,0,2,18969,WMM1,266253,false,true,148,image-keyboard-response,7
true,1,2,0,2,true,d,false,true,0.0-2.0-0.0-0.7-3.7,0,0,0,68,false,stim,false,-1,488.09999999962747,2,0,1,18969,WMM1,268264,false,false,151,image-keyboard-response,8
true,1,1,0,1,true,z,false,true,0.0-2.0-0.0-0.8-3.8,0,0,0,90,false,stim,false,-1,445.89999999990687,2,0,0,18969,WMM1,270224,false,false,154,image-keyboard-response,9
true,1,2,0,1,false,z,true,false,0.0-2.0-0.1-0.9-3.9,0,0,0,68,false,stim,false,-1,401.39999999990687,2,0,2,18969,WMM1,272154,false,false,157,image-keyboard-response,10
true,1,2,0,2,true,d,false,true,0.0-2.0-0.1-0.10-3.10,0,0,0,68,false,stim,false,-1,459.5,2,0,1,18969,WMM1,274134,false,false,160,image-keyboard-response,11
true,1,1,0,1,true,z,false,true,0.0-2.0-0.1-0.11-3.11,0,0,0,90,false,stim,false,-1,375.90000000037253,2,0,0,18969,WMM1,276025,false,false,163,image-keyboard-response,12
true,1,2,0,2,true,d,false,true,0.0-2.0-0.1-0.12-3.12,0,0,0,68,false,stim,false,-1,1418.3000000002794,2,0,1,18969,WMM1,278964,false,false,166,image-keyboard-response,13
true,1,1,0,1,true,z,false,true,0.0-2.0-0.1-0.13-3.13,0,0,0,90,false,stim,false,-1,1162.6999999997206,2,0,0,18969,WMM1,281654,false,false,169,image-keyboard-response,14
true,1,2,0,1,false,z,true,true,0.0-2.0-0.1-0.14-3.14,0,0,0,68,false,stim,false,-1,691.5,2,0,2,18969,WMM1,283874,false,true,172,image-keyboard-response,15
true,1,2,0,1,false,z,true,true,0.0-2.0-0.1-0.15-3.15,0,0,0,68,false,stim,false,-1,584.5,2,0,2,18969,WMM1,285984,false,true,175,image-keyboard-response,16
true,1,2,0,2,true,d,false,true,0.0-2.0-0.1-0.16-3.16,0,0,0,68,false,stim,false,-1,440.10000000009313,2,0,1,18969,WMM1,287945,false,false,178,image-keyboard-response,17
true,1,1,0,1,true,z,false,true,0.0-2.0-0.1-0.17-3.17,0,0,0,90,false,stim,false,-1,1037.0,2,0,0,18969,WMM1,290504,false,false,181,image-keyboard-response,18
true,1,2,0,1,false,z,true,false,0.0-2.0-0.2-0.18-3.18,0,0,0,68,false,stim,false,-1,378.20000000018626,2,0,2,18969,WMM1,292404,false,false,184,image-keyboard-response,19
true,1,1,0,1,true,z,false,true,0.0-2.0-0.2-0.19-3.19,0,0,0,90,false,stim,false,-1,328.79999999981374,2,0,0,18969,WMM1,294256,false,false,187,image-keyboard-response,20
true,1,1,0,1,true,z,false,true,0.0-2.0-0.2-0.20-3.20,0,0,0,90,false,stim,false,-1,468.6999999997206,2,0,0,18969,WMM1,296244,false,false,190,image-keyboard-response,21
true,1,2,0,1,false,z,true,false,0.0-2.0-0.2-0.21-3.21,0,0,0,68,false,stim,false,-1,451.29999999981374,2,0,2,18969,WMM1,298215,false,false,193,image-keyboard-response,22
true,1,0,0,2,false,d,true,false,0.0-2.0-0.2-0.22-3.22,0,0,0,81,false,stim,false,-1,831.2999999998137,2,0,1,18969,WMM1,300564,false,false,196,image-keyboard-response,23
true,1,0,0,2,false,d,true,false,0.0-2.0-0.2-0.23-3.23,0,0,0,81,false,stim,false,-1,949.2000000001863,2,0,1,18969,WMM1,303034,false,false,199,image-keyboard-response,24
true,1,0,0,1,false,z,true,false,0.0-2.0-0.2-0.24-3.24,0,0,0,81,false,stim,false,-1,731.5,2,0,2,18969,WMM1,305285,false,false,202,image-keyboard-response,25
true,1,2,0,2,true,d,false,true,0.0-2.0-0.2-0.25-3.25,0,0,0,68,false,stim,false,-1,568.2999999998137,2,0,1,18969,WMM1,307374,false,false,205,image-keyboard-response,26
true,1,1,0,1,true,z,false,true,0.0-2.0-0.2-0.26-3.26,0,0,0,90,false,stim,false,-1,362.0,2,0,0,18969,WMM1,309264,false,false,208,image-keyboard-response,27
true,1,2,0,2,true,d,false,true,0.0-2.0-0.3-0.27-3.27,0,0,0,68,false,stim,false,-1,711.0999999996275,2,0,1,18969,WMM1,311494,false,false,211,image-keyboard-response,28
true,1,1,0,1,true,z,false,true,0.0-2.0-0.3-0.28-3.28,0,0,0,90,false,stim,false,-1,921.7999999998137,2,0,2,18969,WMM1,313944,false,false,214,image-keyboard-response,29
true,1,1,0,1,true,z,false,true,0.0-2.0-0.3-0.29-3.29,0,0,0,90,false,stim,false,-1,633.6000000000931,2,0,0,18969,WMM1,316104,false,false,217,image-keyboard-response,30
true,1,1,0,1,true,z,false,true,0.0-2.0-0.3-0.30-3.30,0,0,0,90,false,stim,false,-1,338.10000000009313,2,0,0,18969,WMM1,317964,false,false,220,image-keyboard-response,31
true,1,1,0,1,true,z,false,true,0.0-2.0-0.3-0.31-3.31,0,0,0,90,false,stim,false,-1,386.10000000009313,2,0,2,18969,WMM1,319875,false,false,223,image-keyboard-response,32
true,1,2,0,2,true,d,false,true,0.0-2.0-0.3-0.32-3.32,0,0,0,68,false,stim,false,-1,346.1999999997206,2,0,1,18969,WMM1,321735,false,false,226,image-keyboard-response,33
true,1,2,0,2,true,d,false,true,0.0-2.0-0.3-0.33-3.33,0,0,0,68,false,stim,false,-1,350.60000000009313,2,0,1,18969,WMM1,323604,false,false,229,image-keyboard-response,34
true,1,1,0,1,true,z,false,true,0.0-2.0-0.3-0.34-3.34,0,0,0,90,false,stim,false,-1,531.3000000002794,2,0,2,18969,WMM1,325665,false,false,232,image-keyboard-response,35
true,1,1,0,1,true,z,false,true,0.0-2.0-0.3-0.35-3.35,0,0,0,90,false,stim,false,-1,295.90000000037253,2,0,0,18969,WMM1,327484,false,false,235,image-keyboard-response,36
true,1,1,0,1,true,z,false,true,0.0-2.0-0.4-0.36-3.36,0,0,0,90,false,stim,false,-1,389.79999999981374,2,0,2,18969,WMM1,329395,false,false,238,image-keyboard-response,37
true,1,1,0,1,true,z,false,true,0.0-2.0-0.4-0.37-3.37,0,0,0,90,false,stim,false,-1,481.39999999990687,2,0,0,18969,WMM1,331395,false,false,241,image-keyboard-response,38
true,1,2,0,2,true,d,false,true,0.0-2.0-0.4-0.38-3.38,0,0,0,68,false,stim,false,-1,490.10000000009313,2,0,1,18969,WMM1,333415,false,false,244,image-keyboard-response,39
true,1,1,0,1,true,z,false,false,0.0-2.0-0.4-0.39-3.39,0,0,0,90,false,stim,false,-1,407.60000000009313,2,0,2,18969,WMM1,335345,false,true,247,image-keyboard-response,40
true,1,1,0,1,true,z,false,true,0.0-2.0-0.4-0.40-3.40,0,0,0,90,false,stim,false,-1,482.10000000009313,2,0,0,18969,WMM1,337355,false,false,250,image-keyboard-response,41
true,1,2,0,2,true,d,false,true,0.0-2.0-0.4-0.41-3.41,0,0,0,68,false,stim,false,-1,397.0,2,0,1,18969,WMM1,339284,false,false,253,image-keyboard-response,42
true,2,1,1,0,false,q,false,false,0.0-2.0-0.4-0.42-3.42,0,0,0,90,true,stim,true,1,417.10000000009313,2,0,0,18969,WMM1,341224,false,false,256,image-keyboard-response,1
true,2,1,1,0,false,q,false,false,0.0-2.0-0.4-0.43-3.43,0,0,0,90,false,stim,true,1,571.8999999999069,2,0,2,18969,WMM1,343325,false,false,259,image-keyboard-response,2
true,2,2,1,1,false,z,false,false,0.0-2.0-0.4-0.44-3.44,0,0,0,68,false,stim,true,2,409.0,2,0,1,18969,WMM1,345245,false,false,262,image-keyboard-response,3
true,2,1,1,0,false,q,false,false,0.0-2.0-0.5-0.45-3.45,0,0,0,90,false,stim,true,1,556.1000000000931,2,0,2,18969,WMM1,347325,false,false,265,image-keyboard-response,4
true,2,2,1,1,false,z,false,true,0.0-2.0-0.5-0.46-3.46,0,0,0,68,false,stim,true,2,399.6999999997206,2,0,1,18969,WMM1,349235,false,true,268,image-keyboard-response,5
true,2,1,1,0,false,q,false,false,0.0-2.0-0.5-0.47-3.47,0,0,0,90,false,stim,true,1,388.0,2,0,0,18969,WMM1,351145,false,false,271,image-keyboard-response,6
true,2,0,1,0,true,q,false,true,0.0-2.0-0.5-0.48-3.48,0,0,0,81,false,stim,false,1,468.20000000018626,2,0,0,18969,WMM1,353135,false,false,274,image-keyboard-response,7
true,2,2,1,0,false,q,true,false,0.0-2.0-0.5-0.49-3.49,0,0,0,68,false,stim,false,1,518.0,2,0,2,18969,WMM1,355175,false,false,277,image-keyboard-response,8
true,2,2,1,1,false,z,false,false,0.0-2.0-0.5-0.50-3.50,0,0,0,68,false,stim,true,2,659.2000000001863,2,0,1,18969,WMM1,357355,false,false,280,image-keyboard-response,9
true,2,0,1,0,true,q,false,true,0.0-2.0-0.5-0.51-3.51,0,0,0,81,false,stim,false,1,485.39999999990687,2,0,2,18969,WMM1,359365,false,false,283,image-keyboard-response,10
true,2,0,1,0,true,q,false,true,0.0-2.0-0.5-0.52-3.52,0,0,0,81,false,stim,false,1,589.2999999998137,2,0,0,18969,WMM1,361475,false,false,286,image-keyboard-response,11
true,2,1,1,1,true,z,false,true,0.0-2.0-0.5-0.53-3.53,0,0,0,90,false,stim,false,2,526.8999999999069,2,0,1,18969,WMM1,363515,false,false,289,image-keyboard-response,12
true,2,1,1,1,true,z,false,true,0.0-2.0-0.6-0.54-3.54,0,0,0,90,false,stim,false,2,440.89999999990687,2,0,1,18969,WMM1,365485,false,false,292,image-keyboard-response,13
true,2,0,1,0,true,q,false,false,0.0-2.0-0.6-0.55-3.55,0,0,0,81,false,stim,false,1,332.09999999962747,2,0,0,18969,WMM1,367335,false,true,295,image-keyboard-response,14
true,2,0,1,0,true,q,false,true,0.0-2.0-0.6-0.56-3.56,0,0,0,81,false,stim,false,1,706.0,2,0,2,18969,WMM1,369554,false,false,298,image-keyboard-response,15
true,2,0,1,0,true,q,false,false,0.0-2.0-0.6-0.57-3.57,0,0,0,81,false,stim,false,1,521.5,2,0,2,18969,WMM1,371595,false,true,301,image-keyboard-response,16
true,2,0,1,0,true,q,false,true,0.0-2.0-0.6-0.58-3.58,0,0,0,81,false,stim,false,1,352.6999999997206,2,0,0,18969,WMM1,373465,false,false,304,image-keyboard-response,17
true,2,0,1,0,true,q,false,true,0.0-2.0-0.6-0.59-3.59,0,0,0,81,false,stim,false,1,431.29999999981374,2,0,0,18969,WMM1,375425,false,false,307,image-keyboard-response,18
true,2,1,1,1,true,z,false,true,0.0-2.0-0.6-0.60-3.60,0,0,0,90,false,stim,false,2,405.29999999981374,2,0,1,18969,WMM1,377346,false,false,310,image-keyboard-response,19
true,2,1,1,1,true,z,false,true,0.0-2.0-0.6-0.61-3.61,0,0,0,90,false,stim,false,2,499.89999999990687,2,0,1,18969,WMM1,379375,false,false,313,image-keyboard-response,20
true,2,0,1,0,true,q,false,true,0.0-2.0-0.6-0.62-3.62,0,0,0,81,false,stim,false,1,395.79999999981374,2,0,2,18969,WMM1,381284,false,false,316,image-keyboard-response,21
true,2,1,1,1,true,z,false,true,0.0-2.0-0.7-0.63-3.63,0,0,0,90,false,stim,false,2,384.5,2,0,1,18969,WMM1,383195,false,false,319,image-keyboard-response,22
true,2,0,1,0,true,q,false,true,0.0-2.0-0.7-0.64-3.64,0,0,0,81,false,stim,false,1,402.79999999981374,2,1,0,18969,WMM1,385125,false,false,322,image-keyboard-response,23
true,2,0,1,0,true,q,false,true,0.0-2.0-0.7-0.65-3.65,0,0,0,81,false,stim,false,1,805.4000000003725,2,0,2,18969,WMM1,387446,false,false,325,image-keyboard-response,24
true,2,0,1,0,true,q,false,true,0.0-2.0-0.7-0.66-3.66,0,0,0,81,false,stim,false,1,488.5,2,0,2,18969,WMM1,389458,false,false,328,image-keyboard-response,25
true,2,1,1,1,true,z,false,true,0.0-2.0-0.7-0.67-3.67,0,0,0,90,false,stim,false,2,795.2999999998137,2,0,1,18969,WMM1,391775,false,false,331,image-keyboard-response,26
true,2,0,1,0,true,q,false,true,0.0-2.0-0.7-0.68-3.68,0,0,0,81,false,stim,false,1,620.7000000001863,2,1,0,18969,WMM1,393914,false,false,334,image-keyboard-response,27
true,2,1,1,1,true,z,false,true,0.0-2.0-0.7-0.69-3.69,0,0,0,90,false,stim,false,2,794.0,2,0,1,18969,WMM1,396235,false,false,337,image-keyboard-response,28
true,2,0,1,0,true,q,false,true,0.0-2.0-0.7-0.70-3.70,0,0,0,81,false,stim,false,1,536.0,2,1,0,18969,WMM1,398296,false,false,340,image-keyboard-response,29
true,2,1,1,0,false,q,false,false,0.0-2.0-0.7-0.71-3.71,0,0,0,90,false,stim,true,1,720.6999999997206,2,0,2,18969,WMM1,400536,false,false,343,image-keyboard-response,30
true,3,1,3,1,true,z,false,true,0.0-2.0-0.8-0.72-3.72,1,0,0,90,true,stim,false,0,479.59999999962747,2,0,2,18969,WMM1,402536,false,false,346,image-keyboard-response,1
true,3,0,3,1,false,z,false,false,0.0-2.0-0.8-0.73-3.73,1,0,0,81,false,stim,true,0,368.59999999962747,2,0,2,18969,WMM1,404426,false,false,349,image-keyboard-response,2
true,3,0,3,0,true,q,false,true,0.0-2.0-0.8-0.74-3.74,1,0,0,81,false,stim,false,0,590.3999999994412,2,1,0,18969,WMM1,406546,false,false,352,image-keyboard-response,3
true,3,1,3,2,false,d,false,false,0.0-2.0-0.8-0.75-3.75,1,0,0,90,false,stim,true,1,405.59999999962747,2,0,1,18969,WMM1,408476,false,false,355,image-keyboard-response,4
true,3,2,3,2,true,d,false,true,0.0-2.0-0.8-0.76-3.76,1,0,0,68,false,stim,false,1,1011.7999999998137,2,0,1,18969,WMM1,411006,false,false,358,image-keyboard-response,5
true,3,0,3,0,true,q,false,true,0.0-2.0-0.8-0.77-3.77,1,0,0,81,false,stim,false,0,575.7999999998137,2,1,0,18969,WMM1,413096,false,false,361,image-keyboard-response,6
true,3,2,3,1,false,z,true,false,0.0-2.0-0.8-0.78-3.78,1,0,0,68,false,stim,false,0,363.19999999925494,2,0,2,18969,WMM1,414986,false,false,364,image-keyboard-response,7
true,3,2,3,2,true,d,false,true,0.0-2.0-0.8-0.79-3.79,1,0,0,68,false,stim,false,1,439.40000000037253,2,0,1,18969,WMM1,416956,false,false,367,image-keyboard-response,8
true,3,0,3,0,true,q,false,true,0.0-2.0-0.8-0.80-3.80,1,0,0,81,false,stim,false,0,380.29999999981374,2,1,0,18969,WMM1,418856,false,false,370,image-keyboard-response,9
true,3,0,3,0,true,q,false,true,0.0-2.0-0.9-0.81-3.81,1,0,0,81,false,stim,false,0,547.0,2,1,0,18969,WMM1,420916,false,false,373,image-keyboard-response,10
true,3,2,3,2,true,d,false,true,0.0-2.0-0.9-0.82-3.82,1,0,0,68,false,stim,false,1,399.8999999994412,2,0,1,18969,WMM1,422837,false,false,376,image-keyboard-response,11
true,3,2,3,2,true,d,false,true,0.0-2.0-0.9-0.83-3.83,1,0,0,68,false,stim,false,1,516.8999999994412,2,0,1,18969,WMM1,424876,false,false,379,image-keyboard-response,12
true,3,0,3,0,true,q,false,true,0.0-2.0-0.9-0.84-3.84,1,0,0,81,false,stim,false,0,567.0,2,1,0,18969,WMM1,426965,false,false,382,image-keyboard-response,13
true,3,1,3,1,true,z,false,true,0.0-2.0-0.9-0.85-3.85,1,0,0,90,false,stim,false,0,394.09999999962747,2,0,2,18969,WMM1,428876,false,false,385,image-keyboard-response,14
true,3,1,3,1,true,z,false,true,0.0-2.0-0.9-0.86-3.86,1,0,0,90,false,stim,false,0,413.5,2,0,2,18969,WMM1,430806,false,false,388,image-keyboard-response,15
true,3,0,3,0,true,q,false,true,0.0-2.0-0.9-0.87-3.87,1,0,0,81,false,stim,false,0,468.6000000005588,2,1,0,18969,WMM1,432796,false,false,391,image-keyboard-response,16
true,3,1,3,1,true,z,false,true,0.0-2.0-0.9-0.88-3.88,1,0,0,90,false,stim,false,0,760.7000000001863,2,0,2,18969,WMM1,435075,false,false,394,image-keyboard-response,17
true,3,2,3,2,true,d,false,true,0.0-2.0-0.9-0.89-3.89,1,0,0,68,false,stim,false,1,367.90000000037253,2,0,1,18969,WMM1,436959,false,false,397,image-keyboard-response,18
true,3,1,3,1,true,z,false,true,0.0-2.0-0.10-0.90-3.90,1,0,0,90,false,stim,false,0,389.0,2,0,2,18969,WMM1,438876,false,false,400,image-keyboard-response,19
true,3,1,3,1,true,z,false,true,0.0-2.0-0.10-0.91-3.91,1,0,0,90,false,stim,false,0,358.09999999962747,2,0,2,18969,WMM1,440756,false,false,403,image-keyboard-response,20
true,3,1,3,1,true,z,false,true,0.0-2.0-0.10-0.92-3.92,1,0,0,90,false,stim,false,0,363.40000000037253,2,0,2,18969,WMM1,442636,false,false,406,image-keyboard-response,21
true,3,2,3,2,true,d,false,true,0.0-2.0-0.10-0.93-3.93,1,0,0,68,false,stim,false,1,549.4000000003725,2,0,1,18969,WMM1,444695,false,false,409,image-keyboard-response,22
true,3,2,3,2,true,d,false,true,0.0-2.0-0.10-0.94-3.94,1,0,0,68,false,stim,false,1,565.8999999994412,2,0,1,18969,WMM1,446786,false,false,412,image-keyboard-response,23
true,3,0,3,0,true,q,false,true,0.0-2.0-0.10-0.95-3.95,1,0,0,81,false,stim,false,0,477.1000000005588,2,0,0,18969,WMM1,448786,false,false,415,image-keyboard-response,24
true,3,0,3,0,true,q,false,true,0.0-2.0-0.10-0.96-3.96,1,0,0,81,false,stim,false,0,440.5,2,0,0,18969,WMM1,450756,false,false,418,image-keyboard-response,25
true,3,2,3,2,true,d,false,true,0.0-2.0-0.10-0.97-3.97,1,0,0,68,false,stim,false,1,1423.9000000003725,2,0,1,18969,WMM1,453697,false,false,421,image-keyboard-response,26
true,3,0,3,0,true,q,false,true,0.0-2.0-0.10-0.98-3.98,1,0,0,81,false,stim,false,0,394.5,2,0,0,18969,WMM1,455606,false,false,424,image-keyboard-response,27
true,3,1,3,2,false,d,false,false,0.0-2.0-0.11-0.99-3.99,1,0,0,90,false,stim,true,1,414.19999999925494,2,0,1,18969,WMM1,457546,false,false,427,image-keyboard-response,28
true,3,0,3,0,true,q,false,true,0.0-2.0-0.11-0.100-3.100,1,0,0,81,false,stim,false,0,515.0999999996275,2,0,0,18969,WMM1,459585,false,false,430,image-keyboard-response,29
true,3,2,3,2,true,d,false,true,0.0-2.0-0.11-0.101-3.101,1,0,0,68,false,stim,false,1,492.5,2,0,1,18969,WMM1,461595,false,false,433,image-keyboard-response,30
true,4,1,4,2,false,d,false,false,0.0-2.0-0.11-0.102-3.102,0,0,0,90,true,stim,true,1,387.90000000037253,2,0,2,18969,WMM1,463496,false,false,436,image-keyboard-response,1
true,4,0,4,2,false,d,false,false,0.0-2.0-0.11-0.103-3.103,0,0,0,81,false,stim,true,0,492.29999999981374,2,0,0,18969,WMM1,465517,false,false,439,image-keyboard-response,2
true,4,2,4,0,false,q,false,false,0.0-2.0-0.11-0.104-3.104,0,0,0,68,false,stim,true,2,354.40000000037253,2,0,1,18969,WMM1,467396,false,false,442,image-keyboard-response,3
true,4,1,4,2,false,d,false,false,0.0-2.0-0.11-0.105-3.105,0,0,0,90,false,stim,true,1,463.70000000018626,2,0,2,18969,WMM1,469376,false,false,445,image-keyboard-response,4
true,4,0,4,2,false,d,false,false,0.0-2.0-0.11-0.106-3.106,0,0,0,81,false,stim,true,0,429.29999999981374,2,0,0,18969,WMM1,471326,false,false,448,image-keyboard-response,5
true,4,2,4,2,true,d,false,true,0.0-2.0-0.11-0.107-3.107,0,0,0,68,false,stim,false,1,1003.0,2,0,2,18969,WMM1,473846,false,false,451,image-keyboard-response,6
true,4,1,4,0,false,q,true,false,0.0-2.0-0.12-0.108-3.108,0,0,0,90,false,stim,false,2,609.0999999996275,2,0,1,18969,WMM1,475977,false,false,454,image-keyboard-response,7
true,4,1,4,2,false,d,true,false,0.0-2.0-0.12-0.109-3.109,0,0,0,90,false,stim,false,0,406.09999999962747,2,0,0,18969,WMM1,477896,false,false,457,image-keyboard-response,8
true,4,2,4,2,true,d,false,true,0.0-2.0-0.12-0.110-3.110,0,0,0,68,false,stim,false,1,506.09999999962747,2,0,2,18969,WMM1,479926,false,false,460,image-keyboard-response,9
true,4,2,4,2,true,d,false,true,0.0-2.0-0.12-0.111-3.111,0,0,0,68,false,stim,false,1,430.79999999981374,2,0,2,18969,WMM1,481876,false,false,463,image-keyboard-response,10
true,4,2,4,0,false,q,false,false,0.0-2.0-0.12-0.112-3.112,0,0,0,68,false,stim,true,2,397.70000000018626,2,0,1,18969,WMM1,483796,false,false,466,image-keyboard-response,11
true,4,2,4,2,true,d,false,true,0.0-2.0-0.12-0.113-3.113,0,0,0,68,false,stim,false,0,1059.5999999996275,2,0,0,18969,WMM1,486377,false,false,469,image-keyboard-response,12
true,4,0,4,0,true,q,false,true,0.0-2.0-0.12-0.114-3.114,0,0,0,81,false,stim,false,2,483.29999999981374,2,0,1,18969,WMM1,488386,false,false,472,image-keyboard-response,13
true,4,2,4,2,true,d,false,true,0.0-2.0-0.12-0.115-3.115,0,0,0,68,false,stim,false,1,350.59999999962747,2,0,2,18969,WMM1,490265,false,false,475,image-keyboard-response,14
true,4,2,4,2,true,d,false,false,0.0-2.0-0.12-0.116-3.116,0,0,0,68,false,stim,false,0,301.5,2,0,0,18969,WMM1,492096,false,true,478,image-keyboard-response,15
true,4,0,4,0,true,q,false,true,0.0-2.0-0.13-0.117-3.117,0,0,0,81,false,stim,false,2,472.0,2,0,1,18969,WMM1,494096,false,false,481,image-keyboard-response,16
true,4,0,4,0,true,q,false,true,0.0-2.0-0.13-0.118-3.118,0,0,0,81,false,stim,false,2,513.5,2,0,1,18969,WMM1,496125,false,false,484,image-keyboard-response,17
true,4,0,4,0,true,q,false,true,0.0-2.0-0.13-0.119-3.119,0,0,0,81,false,stim,false,2,438.8999999994412,2,0,1,18969,WMM1,498085,false,false,487,image-keyboard-response,18
true,4,2,4,2,true,d,false,true,0.0-2.0-0.13-0.120-3.120,0,0,0,68,false,stim,false,0,354.20000000018626,2,0,0,18969,WMM1,499965,false,false,490,image-keyboard-response,19
true,4,2,4,2,true,d,false,true,0.0-2.0-0.13-0.121-3.121,0,0,0,68,false,stim,false,1,320.1000000005588,2,0,2,18969,WMM1,501815,false,false,493,image-keyboard-response,20
true,4,2,4,2,true,d,false,true,0.0-2.0-0.13-0.122-3.122,0,0,0,68,false,stim,false,0,390.59999999962747,2,0,0,18969,WMM1,503725,false,false,496,image-keyboard-response,21
true,4,2,4,2,true,d,false,true,0.0-2.0-0.13-0.123-3.123,0,0,0,68,false,stim,false,0,383.29999999981374,2,0,0,18969,WMM1,505625,false,false,499,image-keyboard-response,22
true,4,2,4,2,true,d,false,true,0.0-2.0-0.13-0.124-3.124,0,0,0,68,false,stim,false,1,366.3999999994412,2,0,2,18969,WMM1,507515,false,false,502,image-keyboard-response,23
true,4,2,4,2,true,d,false,true,0.0-2.0-0.13-0.125-3.125,0,0,0,68,false,stim,false,1,362.79999999981374,2,0,2,18969,WMM1,509406,false,false,505,image-keyboard-response,24
true,4,0,4,0,true,q,false,true,0.0-2.0-0.14-0.126-3.126,0,0,0,81,false,stim,false,2,338.20000000018626,2,1,1,18969,WMM1,511275,false,false,508,image-keyboard-response,25
true,4,2,4,2,true,d,false,false,0.0-2.0-0.14-0.127-3.127,0,0,0,68,false,stim,false,0,666.2000000001863,2,0,0,18969,WMM1,513465,false,true,511,image-keyboard-response,26
true,4,2,4,2,true,d,false,true,0.0-2.0-0.14-0.128-3.128,0,0,0,68,false,stim,false,1,530.1999999992549,2,0,2,18969,WMM1,515515,false,false,514,image-keyboard-response,27
true,4,2,4,2,true,d,false,false,0.0-2.0-0.14-0.129-3.129,0,0,0,68,false,stim,false,0,650.9000000003725,2,0,0,18969,WMM1,517695,false,true,517,image-keyboard-response,28
true,4,0,4,0,true,q,false,true,0.0-2.0-0.14-0.130-3.130,0,0,0,81,false,stim,false,2,286.79999999981374,2,1,1,18969,WMM1,519504,false,false,520,image-keyboard-response,29
true,4,0,4,0,true,q,false,true,0.0-2.0-0.14-0.131-3.131,0,0,0,81,false,stim,false,2,453.09999999962747,2,1,1,18969,WMM1,521485,false,false,523,image-keyboard-response,30
true,5,2,3,1,false,z,false,false,0.0-2.0-0.14-0.132-3.132,0,1,0,68,true,stim,true,2,476.8999999994412,2,0,0,18969,WMM1,523485,false,false,526,image-keyboard-response,1
true,5,2,3,0,false,q,false,false,0.0-2.0-0.14-0.133-3.133,0,1,0,68,false,stim,true,2,327.3999999994412,2,0,2,18969,WMM1,525335,false,false,529,image-keyboard-response,2
true,5,1,3,0,false,q,true,false,0.0-2.0-0.14-0.134-3.134,0,1,0,90,false,stim,false,2,634.9000000003725,2,0,2,18969,WMM1,527485,false,false,532,image-keyboard-response,3
true,5,0,3,0,true,q,false,false,0.0-2.0-0.15-0.135-3.135,0,1,0,81,false,stim,false,0,345.29999999981374,2,1,1,18969,WMM1,529355,false,true,535,image-keyboard-response,4
true,5,1,3,0,false,q,true,false,0.0-2.0-0.15-0.136-3.136,0,1,0,90,false,stim,false,2,587.5,2,0,2,18969,WMM1,531466,false,false,538,image-keyboard-response,5
true,5,2,3,0,false,q,false,false,0.0-2.0-0.15-0.137-3.137,0,1,0,68,false,stim,true,2,490.29999999981374,2,0,2,18969,WMM1,533475,false,false,541,image-keyboard-response,6
true,5,0,3,0,true,q,false,true,0.0-2.0-0.15-0.138-3.138,0,1,0,81,false,stim,false,2,525.0999999996275,2,0,2,18969,WMM1,535524,false,false,544,image-keyboard-response,7
true,5,1,3,0,false,q,true,false,0.0-2.0-0.15-0.139-3.139,0,1,0,90,false,stim,false,0,442.59999999962747,2,1,1,18969,WMM1,537485,false,false,547,image-keyboard-response,8
true,5,2,3,1,false,z,false,false,0.0-2.0-0.15-0.140-3.140,0,1,0,68,false,stim,true,2,420.79999999981374,2,0,0,18969,WMM1,539435,false,false,550,image-keyboard-response,9
true,5,2,3,0,false,q,true,false,0.0-2.0-0.15-0.141-3.141,0,1,0,68,false,stim,false,0,434.6000000005588,2,1,1,18969,WMM1,541385,false,false,553,image-keyboard-response,10
true,5,1,3,1,true,z,false,true,0.0-2.0-0.15-0.142-3.142,0,1,0,90,false,stim,false,2,677.2000000001863,2,0,0,18969,WMM1,543586,false,false,556,image-keyboard-response,11
true,5,0,3,1,false,z,true,false,0.0-2.0-0.15-0.143-3.143,0,1,0,81,false,stim,false,2,495.29999999981374,2,0,0,18969,WMM1,545615,false,false,559,image-keyboard-response,12
true,5,0,3,0,true,q,false,false,0.0-2.0-0.16-0.144-3.144,0,1,0,81,false,stim,false,0,570.2999999998137,2,1,1,18969,WMM1,547705,false,true,562,image-keyboard-response,13
true,5,0,3,0,true,q,false,true,0.0-2.0-0.16-0.145-3.145,0,1,0,81,false,stim,false,2,613.6999999992549,2,0,2,18969,WMM1,549844,false,false,565,image-keyboard-response,14
true,5,1,3,1,true,z,false,true,0.0-2.0-0.16-0.146-3.146,0,1,0,90,false,stim,false,2,502.40000000037253,2,0,0,18969,WMM1,551875,false,false,568,image-keyboard-response,15
true,5,2,3,0,false,q,true,false,0.0-2.0-0.16-0.147-3.147,0,1,0,68,false,stim,false,0,311.29999999981374,2,1,1,18969,WMM1,553706,false,false,571,image-keyboard-response,16
true,5,0,3,0,true,q,false,false,0.0-2.0-0.16-0.148-3.148,0,1,0,81,false,stim,false,0,401.29999999981374,2,1,1,18969,WMM1,555637,false,true,574,image-keyboard-response,17
true,5,0,3,0,true,q,false,true,0.0-2.0-0.16-0.149-3.149,0,1,0,81,false,stim,false,2,469.3999999994412,2,0,2,18969,WMM1,557637,false,false,577,image-keyboard-response,18
true,5,1,3,1,true,z,false,true,0.0-2.0-0.16-0.150-3.150,0,1,0,90,false,stim,false,2,411.59999999962747,2,0,0,18969,WMM1,559567,false,false,580,image-keyboard-response,19
true,5,1,3,1,true,z,false,true,0.0-2.0-0.16-0.151-3.151,0,1,0,90,false,stim,false,2,565.8999999994412,2,0,0,18969,WMM1,561657,false,false,583,image-keyboard-response,20
true,5,0,3,0,true,q,false,true,0.0-2.0-0.16-0.152-3.152,0,1,0,81,false,stim,false,2,491.20000000018626,2,0,2,18969,WMM1,563677,false,false,586,image-keyboard-response,21
true,5,1,3,1,true,z,false,true,0.0-2.0-0.17-0.153-3.153,0,1,0,90,false,stim,false,2,598.5999999996275,2,0,0,18969,WMM1,565798,false,false,589,image-keyboard-response,22
true,5,1,3,0,false,q,true,false,0.0-2.0-0.17-0.154-3.154,0,1,0,90,false,stim,false,0,347.6000000005588,2,1,1,18969,WMM1,567657,false,false,592,image-keyboard-response,23
true,5,1,3,1,true,z,false,true,0.0-2.0-0.17-0.155-3.155,0,1,0,90,false,stim,false,2,463.6000000005588,2,0,0,18969,WMM1,569637,false,false,595,image-keyboard-response,24
true,5,0,3,0,true,q,false,false,0.0-2.0-0.17-0.156-3.156,0,1,0,81,false,stim,false,0,375.1000000005588,2,1,1,18969,WMM1,571537,false,true,598,image-keyboard-response,25
true,5,0,3,1,false,z,true,false,0.0-2.0-0.17-0.157-3.157,0,1,0,81,false,stim,false,2,353.59999999962747,2,0,0,18969,WMM1,573417,false,false,601,image-keyboard-response,26
true,5,0,3,0,true,q,false,true,0.0-2.0-0.17-0.158-3.158,0,1,0,81,false,stim,false,2,641.4000000003725,2,0,2,18969,WMM1,575578,false,false,604,image-keyboard-response,27
true,5,2,3,0,false,q,true,false,0.0-2.0-0.17-0.159-3.159,0,1,0,68,false,stim,false,0,460.0,2,1,1,18969,WMM1,577568,false,false,607,image-keyboard-response,28
true,5,0,3,0,true,q,false,true,0.0-2.0-0.17-0.160-3.160,0,1,0,81,false,stim,false,2,988.7999999998137,2,0,2,18969,WMM1,580087,false,false,610,image-keyboard-response,29
true,5,0,3,0,true,q,false,true,0.0-2.0-0.17-0.161-3.161,0,1,0,81,false,stim,false,2,1031.7999999998137,2,0,2,18969,WMM1,582637,false,false,613,image-keyboard-response,30
true,5,1,3,0,false,q,true,false,0.0-2.0-0.18-0.162-3.162,0,1,0,90,false,stim,false,0,483.5,2,1,1,18969,WMM1,584647,false,false,616,image-keyboard-response,31
true,5,0,3,0,true,q,false,false,0.0-2.0-0.18-0.163-3.163,0,1,0,81,false,stim,false,2,761.0999999996275,2,0,2,18969,WMM1,586927,false,true,619,image-keyboard-response,32
true,5,0,3,0,true,q,false,true,0.0-2.0-0.18-0.164-3.164,0,1,0,81,false,stim,false,2,589.9000000003725,2,0,2,18969,WMM1,589038,false,false,622,image-keyboard-response,33
true,5,1,3,1,true,z,false,true,0.0-2.0-0.18-0.165-3.165,0,1,0,90,false,stim,false,2,493.29999999981374,2,0,0,18969,WMM1,591058,false,false,625,image-keyboard-response,34
true,5,0,3,0,true,q,false,true,0.0-2.0-0.18-0.166-3.166,0,1,0,81,false,stim,false,2,461.6000000005588,2,0,2,18969,WMM1,593047,false,false,628,image-keyboard-response,35
true,5,2,3,0,false,q,true,false,0.0-2.0-0.18-0.167-3.167,0,1,0,68,false,stim,false,0,410.0,2,1,1,18969,WMM1,594967,false,false,631,image-keyboard-response,36
true,5,1,3,1,true,z,false,true,0.0-2.0-0.18-0.168-3.168,0,1,0,90,false,stim,false,2,716.7999999998137,2,0,0,18969,WMM1,597197,false,false,634,image-keyboard-response,37
true,5,2,3,0,false,q,true,false,0.0-2.0-0.18-0.169-3.169,0,1,0,68,false,stim,false,0,451.29999999981374,2,1,1,18969,WMM1,599178,false,false,637,image-keyboard-response,38
true,5,1,3,1,true,z,false,true,0.0-2.0-0.18-0.170-3.170,0,1,0,90,false,stim,false,2,520.5999999996275,2,0,0,18969,WMM1,601228,false,false,640,image-keyboard-response,39
true,5,1,3,1,true,z,false,true,0.0-2.0-0.19-0.171-3.171,0,1,0,90,false,stim,false,2,473.09999999962747,2,0,0,18969,WMM1,603238,false,false,643,image-keyboard-response,40
true,5,1,3,1,true,z,false,true,0.0-2.0-0.19-0.172-3.172,0,1,0,90,false,stim,false,2,447.40000000037253,2,0,0,18969,WMM1,605207,false,false,646,image-keyboard-response,41
true,5,0,3,0,true,q,false,true,0.0-2.0-0.19-0.173-3.173,0,1,0,81,false,stim,false,2,494.6000000005588,2,0,2,18969,WMM1,607228,false,false,649,image-keyboard-response,42
true,5,1,3,0,false,q,true,false,0.0-2.0-0.19-0.174-3.174,0,1,0,90,false,stim,false,0,417.79999999981374,2,1,1,18969,WMM1,609166,false,false,652,image-keyboard-response,43
true,5,1,3,0,false,q,true,true,0.0-2.0-0.19-0.175-3.175,0,1,0,90,false,stim,false,0,513.9000000003725,2,1,1,18969,WMM1,611198,false,true,655,image-keyboard-response,44
true,5,1,3,0,false,q,true,false,0.0-2.0-0.19-0.176-3.176,0,1,0,90,false,stim,false,0,742.7999999998137,2,1,1,18969,WMM1,613468,false,false,658,image-keyboard-response,45
true,5,1,3,1,true,z,false,true,0.0-2.0-0.19-0.177-3.177,0,1,0,90,false,stim,false,2,475.20000000018626,2,0,0,18969,WMM1,615468,false,false,661,image-keyboard-response,46
true,5,0,3,0,true,q,false,true,0.0-2.0-0.19-0.178-3.178,0,1,0,81,false,stim,false,2,486.70000000018626,2,0,2,18969,WMM1,617468,false,false,664,image-keyboard-response,47
true,5,0,3,0,true,q,false,true,0.0-2.0-0.19-0.179-3.179,0,1,0,81,false,stim,false,2,654.7999999998137,2,0,2,18969,WMM1,619648,false,false,667,image-keyboard-response,48
true,5,1,3,0,false,q,true,false,0.0-2.0-0.20-0.180-3.180,0,1,0,90,false,stim,false,0,522.8999999994412,2,1,1,18969,WMM1,621690,false,false,670,image-keyboard-response,49
true,5,1,3,1,true,z,false,true,0.0-2.0-0.20-0.181-3.181,0,1,0,90,false,stim,false,2,767.1999999992549,2,0,0,18969,WMM1,623988,false,false,673,image-keyboard-response,50
true,5,1,3,1,true,z,false,true,0.0-2.0-0.20-0.182-3.182,0,1,0,90,false,stim,false,2,741.5,2,0,0,18969,WMM1,626258,false,false,676,image-keyboard-response,51
true,5,0,3,0,true,q,false,true,0.0-2.0-0.20-0.183-3.183,0,1,0,81,false,stim,false,2,485.90000000037253,2,0,2,18969,WMM1,628268,false,false,679,image-keyboard-response,52
true,5,1,3,1,true,z,false,true,0.0-2.0-0.20-0.184-3.184,0,1,0,90,false,stim,false,2,440.79999999981374,2,0,0,18969,WMM1,630238,false,false,682,image-keyboard-response,53
true,5,0,3,0,true,q,false,true,0.0-2.0-0.20-0.185-3.185,0,1,0,81,false,stim,false,0,295.29999999981374,2,0,1,18969,WMM1,632049,false,false,685,image-keyboard-response,54
true,5,0,3,0,true,q,false,true,0.0-2.0-0.20-0.186-3.186,0,1,0,81,false,stim,false,2,948.5,2,0,2,18969,WMM1,634518,false,false,688,image-keyboard-response,55
true,5,0,3,0,true,q,false,true,0.0-2.0-0.20-0.187-3.187,0,1,0,81,false,stim,false,0,806.7999999998137,2,0,1,18969,WMM1,636848,false,false,691,image-keyboard-response,56
true,5,0,3,0,true,q,false,true,0.0-2.0-0.20-0.188-3.188,0,1,0,81,false,stim,false,2,406.09999999962747,2,0,2,18969,WMM1,638778,false,false,694,image-keyboard-response,57
true,5,0,3,0,true,q,false,true,0.0-2.0-0.21-0.189-3.189,0,1,0,81,false,stim,false,2,391.0,2,0,2,18969,WMM1,640688,false,false,697,image-keyboard-response,58
true,5,0,3,0,true,q,false,true,0.0-2.0-0.21-0.190-3.190,0,1,0,81,false,stim,false,0,476.90000000037253,2,0,1,18969,WMM1,642689,false,false,700,image-keyboard-response,59
true,5,1,3,1,true,z,false,true,0.0-2.0-0.21-0.191-3.191,0,1,0,90,false,stim,false,2,481.6000000005588,2,0,0,18969,WMM1,644698,false,false,703,image-keyboard-response,60
true,6,0,2,1,false,z,false,false,0.0-2.0-0.21-0.192-3.192,0,0,0,81,true,stim,true,0,511.1000000005588,2,0,2,18969,WMM1,646728,false,false,706,image-keyboard-response,1
true,6,1,2,0,false,q,false,false,0.0-2.0-0.21-0.193-3.193,0,0,0,90,false,stim,true,1,519.7000000001863,2,0,0,18969,WMM1,648778,false,false,709,image-keyboard-response,2
true,6,0,2,2,false,d,false,false,0.0-2.0-0.21-0.194-3.194,0,0,0,81,false,stim,true,0,366.79999999981374,2,0,1,18969,WMM1,650668,false,false,712,image-keyboard-response,3
true,6,0,2,2,false,d,false,true,0.0-2.0-0.21-0.195-3.195,0,0,0,81,false,stim,true,0,345.20000000018626,2,0,1,18969,WMM1,652538,false,true,715,image-keyboard-response,4
true,6,0,2,1,false,z,false,false,0.0-2.0-0.21-0.196-3.196,0,0,0,81,false,stim,true,0,421.70000000018626,2,0,2,18969,WMM1,654479,false,false,718,image-keyboard-response,5
true,6,1,2,0,false,q,false,false,0.0-2.0-0.21-0.197-3.197,0,0,0,90,false,stim,true,1,335.20000000018626,2,0,0,18969,WMM1,656339,false,false,721,image-keyboard-response,6
true,6,2,2,1,false,z,true,false,0.0-2.0-0.22-0.198-3.198,0,0,0,68,false,stim,false,0,327.5,2,0,2,18969,WMM1,658189,false,false,724,image-keyboard-response,7
true,6,0,2,2,false,d,false,true,0.0-2.0-0.22-0.199-3.199,0,0,0,81,false,stim,true,0,595.2000000001863,2,0,1,18969,WMM1,660309,false,true,727,image-keyboard-response,8
true,6,0,2,1,false,z,false,false,0.0-2.0-0.22-0.200-3.200,0,0,0,81,false,stim,true,0,502.0,2,0,2,18969,WMM1,662339,false,false,730,image-keyboard-response,9
true,6,1,2,2,false,d,true,false,0.0-2.0-0.22-0.201-3.201,0,0,0,90,false,stim,false,0,1085.0999999996275,2,0,1,18969,WMM1,664949,false,false,733,image-keyboard-response,10
true,6,0,2,2,false,d,false,false,0.0-2.0-0.22-0.202-3.202,0,0,0,81,false,stim,true,0,413.79999999981374,2,0,1,18969,WMM1,666888,false,false,736,image-keyboard-response,11
true,6,1,2,0,false,q,false,false,0.0-2.0-0.22-0.203-3.203,0,0,0,90,false,stim,true,1,832.9000000003725,2,0,0,18969,WMM1,669237,false,false,739,image-keyboard-response,12
true,6,0,2,0,true,q,false,true,0.0-2.0-0.22-0.204-3.204,0,0,0,81,false,stim,false,1,488.59999999962747,2,0,0,18969,WMM1,671248,false,false,742,image-keyboard-response,13
true,6,0,2,0,true,q,false,false,0.0-2.0-0.22-0.205-3.205,0,0,0,81,false,stim,false,1,396.1000000005588,2,0,0,18969,WMM1,673168,false,true,745,image-keyboard-response,14
true,6,2,2,1,false,z,true,false,0.0-2.0-0.22-0.206-3.206,0,0,0,68,false,stim,false,0,716.0,2,0,2,18969,WMM1,675402,false,false,748,image-keyboard-response,15
true,6,1,2,1,true,z,false,true,0.0-2.0-0.23-0.207-3.207,0,0,0,90,false,stim,false,0,385.70000000018626,2,0,2,18969,WMM1,677311,false,false,751,image-keyboard-response,16
true,6,0,2,0,true,q,false,true,0.0-2.0-0.23-0.208-3.208,0,0,0,81,false,stim,false,1,564.3000000007451,2,0,0,18969,WMM1,679401,false,false,754,image-keyboard-response,17
true,6,1,2,1,true,z,false,false,0.0-2.0-0.23-0.209-3.209,0,0,0,90,false,stim,false,0,440.80000000074506,2,0,2,18969,WMM1,681371,false,true,757,image-keyboard-response,18
true,6,2,2,2,true,d,false,true,0.0-2.0-0.23-0.210-3.210,0,0,0,68,false,stim,false,0,459.0,2,0,1,18969,WMM1,683361,false,false,760,image-keyboard-response,19
true,6,1,2,1,true,z,false,true,0.0-2.0-0.23-0.211-3.211,0,0,0,90,false,stim,false,0,393.69999999925494,2,0,2,18969,WMM1,685271,false,false,763,image-keyboard-response,20
true,6,0,2,0,true,q,false,false,0.0-2.0-0.23-0.212-3.212,0,0,0,81,false,stim,false,1,414.79999999981374,2,0,0,18969,WMM1,687212,false,true,766,image-keyboard-response,21
true,6,1,2,2,false,d,true,false,0.0-2.0-0.23-0.213-3.213,0,0,0,90,false,stim,false,0,646.5999999996275,2,0,1,18969,WMM1,689391,false,false,769,image-keyboard-response,22
true,6,0,2,0,true,q,false,true,0.0-2.0-0.23-0.214-3.214,0,0,0,81,false,stim,false,1,601.7000000001863,2,0,0,18969,WMM1,691521,false,false,772,image-keyboard-response,23
true,6,2,2,2,true,d,false,true,0.0-2.0-0.23-0.215-3.215,0,0,0,68,false,stim,false,0,381.79999999981374,2,0,1,18969,WMM1,693421,false,false,775,image-keyboard-response,24
true,6,2,2,2,true,d,false,true,0.0-2.0-0.24-0.216-3.216,0,0,0,68,false,stim,false,0,561.7999999998137,2,0,1,18969,WMM1,695511,false,false,778,image-keyboard-response,25
true,6,1,2,1,true,z,false,true,0.0-2.0-0.24-0.217-3.217,0,0,0,90,false,stim,false,0,789.5,2,0,2,18969,WMM1,697832,false,false,781,image-keyboard-response,26
true,6,2,2,2,true,d,false,false,0.0-2.0-0.24-0.218-3.218,0,0,0,68,false,stim,false,0,469.5,2,0,1,18969,WMM1,699820,false,true,784,image-keyboard-response,27
true,6,0,2,0,true,q,false,true,0.0-2.0-0.24-0.219-3.219,0,0,0,81,false,stim,false,1,563.7999999998137,2,0,0,18969,WMM1,701901,false,false,787,image-keyboard-response,28
true,6,0,2,0,true,q,false,true,0.0-2.0-0.24-0.220-3.220,0,0,0,81,false,stim,false,1,530.5,2,0,0,18969,WMM1,703961,false,false,790,image-keyboard-response,29
true,6,0,2,0,true,q,false,true,0.0-2.0-0.24-0.221-3.221,0,0,0,81,false,stim,false,1,555.2000000001863,2,0,0,18969,WMM1,706041,false,false,793,image-keyboard-response,30
true,6,1,2,1,true,z,false,true,0.0-2.0-0.24-0.222-3.222,0,0,0,90,false,stim,false,0,1185.0,2,0,2,18969,WMM1,708752,false,false,796,image-keyboard-response,31
true,6,2,2,2,true,d,false,true,0.0-2.0-0.24-0.223-3.223,0,0,0,68,false,stim,false,0,436.20000000018626,2,0,1,18969,WMM1,710711,false,false,799,image-keyboard-response,32
true,6,1,2,1,true,z,false,true,0.0-2.0-0.24-0.224-3.224,0,0,0,90,false,stim,false,0,386.20000000018626,2,0,2,18969,WMM1,712620,false,false,802,image-keyboard-response,33
true,6,2,2,2,true,d,false,true,0.0-2.0-0.25-0.225-3.225,0,0,0,68,false,stim,false,0,449.79999999981374,2,0,1,18969,WMM1,714592,false,false,805,image-keyboard-response,34
true,6,2,2,2,true,d,false,true,0.0-2.0-0.25-0.226-3.226,0,0,0,68,false,stim,false,0,444.40000000037253,2,0,1,18969,WMM1,716561,false,false,808,image-keyboard-response,35
true,7,0,1,2,false,d,false,false,0.0-2.0-0.25-0.227-3.227,0,0,0,81,true,stim,true,0,540.9000000003725,2,0,0,18969,WMM1,718621,false,false,811,image-keyboard-response,1
true,7,0,1,2,false,d,false,true,0.0-2.0-0.25-0.228-3.228,0,0,0,81,false,stim,true,0,440.8999999994412,2,0,0,18969,WMM1,720582,false,true,814,image-keyboard-response,2
true,7,0,1,2,false,d,false,false,0.0-2.0-0.25-0.229-3.229,0,0,0,81,false,stim,true,0,452.5,2,0,0,18969,WMM1,722562,false,false,817,image-keyboard-response,3
true,7,1,1,0,false,q,false,false,0.0-2.0-0.25-0.230-3.230,0,0,0,90,false,stim,true,1,748.7999999998137,2,0,2,18969,WMM1,724841,false,false,820,image-keyboard-response,4
true,7,2,1,0,false,q,false,false,0.0-2.0-0.25-0.231-3.231,0,0,0,68,false,stim,true,2,528.0,2,0,1,18969,WMM1,726901,false,false,823,image-keyboard-response,5
true,7,2,1,0,false,q,true,false,0.0-2.0-0.25-0.232-3.232,0,0,0,68,false,stim,false,1,907.2000000001863,2,0,2,18969,WMM1,729330,false,false,826,image-keyboard-response,6
true,7,1,1,0,false,q,false,false,0.0-2.0-0.25-0.233-3.233,0,0,0,90,false,stim,true,1,517.0,2,0,2,18969,WMM1,731372,false,false,829,image-keyboard-response,7
true,7,0,1,2,false,d,false,false,0.0-2.0-0.26-0.234-3.234,0,0,0,81,false,stim,true,0,480.0,2,0,0,18969,WMM1,733381,false,false,832,image-keyboard-response,8
true,7,0,1,0,true,q,false,true,0.0-2.0-0.26-0.235-3.235,0,0,0,81,false,stim,false,2,844.9000000003725,2,0,1,18969,WMM1,735740,false,false,835,image-keyboard-response,9
true,7,0,1,0,true,q,false,false,0.0-2.0-0.26-0.236-3.236,0,0,0,81,false,stim,false,2,438.29999999981374,2,0,1,18969,WMM1,737700,false,true,838,image-keyboard-response,10
true,7,1,1,0,false,q,false,true,0.0-2.0-0.26-0.237-3.237,0,0,0,90,false,stim,true,1,922.0999999996275,2,0,2,18969,WMM1,740139,false,true,841,image-keyboard-response,11
true,7,2,1,2,true,d,false,false,0.0-2.0-0.26-0.238-3.238,0,0,0,68,false,stim,false,0,411.80000000074506,2,0,0,18969,WMM1,742081,false,true,844,image-keyboard-response,12
true,7,1,1,0,false,q,false,false,0.0-2.0-0.26-0.239-3.239,0,0,0,90,false,stim,true,1,653.5,2,0,2,18969,WMM1,744260,false,false,847,image-keyboard-response,13
true,7,1,1,0,false,q,true,false,0.0-2.0-0.26-0.240-3.240,0,0,0,90,false,stim,false,2,649.5999999996275,2,0,1,18969,WMM1,746430,false,false,850,image-keyboard-response,14
true,7,1,1,2,false,d,true,false,0.0-2.0-0.26-0.241-3.241,0,0,0,90,false,stim,false,0,307.3999999994412,2,0,0,18969,WMM1,748250,false,false,853,image-keyboard-response,15
true,7,0,1,0,true,q,false,true,0.0-2.0-0.26-0.242-3.242,0,0,0,81,false,stim,false,1,745.2999999998137,2,0,2,18969,WMM1,750520,false,false,856,image-keyboard-response,16
true,7,0,1,0,true,q,false,true,0.0-2.0-0.27-0.243-3.243,0,0,0,81,false,stim,false,2,597.0999999996275,2,0,1,18969,WMM1,752651,false,false,859,image-keyboard-response,17
true,7,2,1,2,true,d,false,true,0.0-2.0-0.27-0.244-3.244,0,0,0,68,false,stim,false,0,351.29999999981374,2,0,0,18969,WMM1,754520,false,false,862,image-keyboard-response,18
true,7,0,1,0,true,q,false,true,0.0-2.0-0.27-0.245-3.245,0,0,0,81,false,stim,false,2,332.29999999981374,2,0,1,18969,WMM1,756380,false,false,865,image-keyboard-response,19
true,7,0,1,0,true,q,false,true,0.0-2.0-0.27-0.246-3.246,0,0,0,81,false,stim,false,2,551.2000000001863,2,0,1,18969,WMM1,758460,false,false,868,image-keyboard-response,20
true,7,0,1,0,true,q,false,true,0.0-2.0-0.27-0.247-3.247,0,0,0,81,false,stim,false,1,335.29999999981374,2,0,2,18969,WMM1,760318,false,false,871,image-keyboard-response,21
true,7,0,1,0,true,q,false,true,0.0-2.0-0.27-0.248-3.248,0,0,0,81,false,stim,false,1,372.40000000037253,2,0,2,18969,WMM1,762210,false,false,874,image-keyboard-response,22
true,7,2,1,2,true,d,false,true,0.0-2.0-0.27-0.249-3.249,0,0,0,68,false,stim,false,0,387.79999999981374,2,0,0,18969,WMM1,764121,false,false,877,image-keyboard-response,23
true,7,0,1,0,true,q,false,true,0.0-2.0-0.27-0.250-3.250,0,0,0,81,false,stim,false,1,355.09999999962747,2,0,2,18969,WMM1,766000,false,false,880,image-keyboard-response,24
true,7,2,1,2,true,d,false,true,0.0-2.0-0.27-0.251-3.251,0,0,0,68,false,stim,false,0,480.1000000005588,2,0,0,18969,WMM1,768010,false,false,883,image-keyboard-response,25
true,7,0,1,0,true,q,false,true,0.0-2.0-0.28-0.252-3.252,0,0,0,81,false,stim,false,1,385.70000000018626,2,0,2,18969,WMM1,769920,false,false,886,image-keyboard-response,26
true,7,2,1,2,true,d,false,true,0.0-2.0-0.28-0.253-3.253,0,0,0,68,false,stim,false,0,348.5,2,0,0,18969,WMM1,771800,false,false,889,image-keyboard-response,27
true,7,2,1,2,true,d,false,true,0.0-2.0-0.28-0.254-3.254,0,0,0,68,false,stim,false,0,447.80000000074506,2,0,0,18969,WMM1,773770,false,false,892,image-keyboard-response,28
true,7,0,1,0,true,q,false,true,0.0-2.0-0.28-0.255-3.255,0,0,0,81,false,stim,false,2,415.09999999962747,2,0,1,18969,WMM1,775701,false,false,895,image-keyboard-response,29
true,7,0,1,0,true,q,false,false,0.0-2.0-0.28-0.256-3.256,0,0,0,81,false,stim,false,2,681.7000000001863,2,0,1,18969,WMM1,777900,false,true,898,image-keyboard-response,30
true,7,0,1,0,true,q,false,true,0.0-2.0-0.28-0.257-3.257,0,0,0,81,false,stim,false,2,400.3999999994412,2,0,1,18969,WMM1,779831,false,false,901,image-keyboard-response,31
true,7,0,1,0,true,q,false,true,0.0-2.0-0.28-0.258-3.258,0,0,0,81,false,stim,false,1,577.5,2,0,2,18969,WMM1,781930,false,false,904,image-keyboard-response,32
true,7,0,1,0,true,q,false,true,0.0-2.0-0.28-0.259-3.259,0,0,0,81,false,stim,false,1,750.2999999998137,2,0,2,18969,WMM1,784200,false,false,907,image-keyboard-response,33
true,8,2,2,0,false,q,false,false,0.0-2.0-0.28-0.260-3.260,0,0,0,68,true,stim,true,2,694.5999999996275,2,0,0,18969,WMM1,786411,false,false,910,image-keyboard-response,1
true,8,2,2,0,false,q,false,false,0.0-2.0-0.29-0.261-3.261,0,0,0,68,false,stim,true,2,670.9000000003725,2,0,0,18969,WMM1,788600,false,false,913,image-keyboard-response,2
true,8,0,2,2,false,d,false,false,0.0-2.0-0.29-0.262-3.262,0,0,0,81,false,stim,true,0,451.3999999994412,2,0,1,18969,WMM1,790580,false,false,916,image-keyboard-response,3
true,8,1,2,0,false,q,true,false,0.0-2.0-0.29-0.263-3.263,0,0,0,90,false,stim,false,2,818.9000000003725,2,0,0,18969,WMM1,792920,false,false,919,image-keyboard-response,4
true,8,0,2,2,false,d,false,true,0.0-2.0-0.29-0.264-3.264,0,0,0,81,false,stim,true,0,590.4000000003725,2,0,1,18969,WMM1,795040,false,true,922,image-keyboard-response,5
true,8,2,2,0,false,q,false,false,0.0-2.0-0.29-0.265-3.265,0,0,0,68,false,stim,true,2,412.70000000018626,2,0,0,18969,WMM1,796981,false,false,925,image-keyboard-response,6
true,8,0,2,1,false,z,false,false,0.0-2.0-0.29-0.266-3.266,0,0,0,81,false,stim,true,0,460.5,2,0,2,18969,WMM1,798960,false,false,928,image-keyboard-response,7
true,8,0,2,2,false,d,false,true,0.0-2.0-0.29-0.267-3.267,0,0,0,81,false,stim,true,0,443.09999999962747,2,0,1,18969,WMM1,800920,false,true,931,image-keyboard-response,8
true,8,2,2,1,false,z,true,false,0.0-2.0-0.29-0.268-3.268,0,0,0,68,false,stim,false,0,683.4000000003725,2,0,2,18969,WMM1,803130,false,false,934,image-keyboard-response,9
true,8,1,2,1,true,z,false,true,0.0-2.0-0.29-0.269-3.269,0,0,0,90,false,stim,false,0,722.0,2,0,2,18969,WMM1,805380,false,false,937,image-keyboard-response,10
true,8,1,2,1,true,z,false,true,0.0-2.0-0.30-0.270-3.270,0,0,0,90,false,stim,false,0,735.2000000001863,2,0,2,18969,WMM1,807640,false,false,940,image-keyboard-response,11
true,8,0,2,0,true,q,false,true,0.0-2.0-0.30-0.271-3.271,0,0,0,81,false,stim,false,2,368.59999999962747,2,0,0,18969,WMM1,809539,false,false,943,image-keyboard-response,12
true,8,0,2,1,false,z,false,true,0.0-2.0-0.30-0.272-3.272,0,0,0,81,false,stim,true,0,353.29999999981374,2,0,2,18969,WMM1,811420,false,true,946,image-keyboard-response,13
true,8,0,2,2,false,d,false,false,0.0-2.0-0.30-0.273-3.273,0,0,0,81,false,stim,true,0,497.79999999981374,2,0,1,18969,WMM1,813440,false,false,949,image-keyboard-response,14
true,8,1,2,2,false,d,true,false,0.0-2.0-0.30-0.274-3.274,0,0,0,90,false,stim,false,0,653.2999999998137,2,0,1,18969,WMM1,815620,false,false,952,image-keyboard-response,15
true,8,0,2,0,true,q,false,true,0.0-2.0-0.30-0.275-3.275,0,0,0,81,false,stim,false,2,524.1999999992549,2,0,0,18969,WMM1,817651,false,false,955,image-keyboard-response,16
true,8,2,2,2,true,d,false,true,0.0-2.0-0.30-0.276-3.276,0,0,0,68,false,stim,false,0,572.7000000001863,2,0,1,18969,WMM1,819748,false,false,958,image-keyboard-response,17
true,8,0,2,1,false,z,false,false,0.0-2.0-0.30-0.277-3.277,0,0,0,81,false,stim,true,0,1063.0999999996275,2,0,2,18969,WMM1,822320,false,false,961,image-keyboard-response,18
true,8,1,2,0,false,q,true,true,0.0-2.0-0.30-0.278-3.278,0,0,0,90,false,stim,false,2,398.20000000018626,2,0,0,18969,WMM1,824230,false,true,964,image-keyboard-response,19
true,8,1,2,1,true,z,false,true,0.0-2.0-0.31-0.279-3.279,0,0,0,90,false,stim,false,0,674.5,2,0,2,18969,WMM1,826440,false,false,967,image-keyboard-response,20
true,8,1,2,0,false,q,true,false,0.0-2.0-0.31-0.280-3.280,0,0,0,90,false,stim,false,2,544.2999999998137,2,0,0,18969,WMM1,828511,false,false,970,image-keyboard-response,21
true,8,1,2,0,false,q,true,false,0.0-2.0-0.31-0.281-3.281,0,0,0,90,false,stim,false,2,425.20000000018626,2,0,0,18969,WMM1,830461,false,false,973,image-keyboard-response,22
true,8,1,2,1,true,z,false,true,0.0-2.0-0.31-0.282-3.282,0,0,0,90,false,stim,false,0,545.3999999994412,2,0,2,18969,WMM1,832540,false,false,976,image-keyboard-response,23
true,8,2,2,2,true,d,false,true,0.0-2.0-0.31-0.283-3.283,0,0,0,68,false,stim,false,0,504.70000000018626,2,0,1,18969,WMM1,834580,false,false,979,image-keyboard-response,24
true,8,0,2,0,true,q,false,true,0.0-2.0-0.31-0.284-3.284,0,0,0,81,false,stim,false,2,340.20000000018626,2,0,0,18969,WMM1,836440,false,false,982,image-keyboard-response,25
true,8,1,2,1,true,z,false,true,0.0-2.0-0.31-0.285-3.285,0,0,0,90,false,stim,false,0,433.29999999981374,2,0,2,18969,WMM1,838390,false,false,985,image-keyboard-response,26
true,8,2,2,2,true,d,false,true,0.0-2.0-0.31-0.286-3.286,0,0,0,68,false,stim,false,0,362.90000000037253,2,0,1,18969,WMM1,840280,false,false,988,image-keyboard-response,27
true,8,2,2,2,true,d,false,true,0.0-2.0-0.31-0.287-3.287,0,0,0,68,false,stim,false,0,728.3999999994412,2,0,1,18969,WMM1,842540,false,false,991,image-keyboard-response,28
true,8,1,2,1,true,z,false,true,0.0-2.0-0.32-0.288-3.288,0,0,0,90,false,stim,false,0,966.2999999998137,2,0,2,18969,WMM1,845030,false,false,994,image-keyboard-response,29
true,8,0,2,0,true,q,false,true,0.0-2.0-0.32-0.289-3.289,0,0,0,81,false,stim,false,2,329.8999999994412,2,0,0,18969,WMM1,846890,false,false,997,image-keyboard-response,30
true,8,2,2,2,true,d,false,true,0.0-2.0-0.32-0.290-3.290,0,0,0,68,false,stim,false,0,509.90000000037253,2,0,1,18969,WMM1,848920,false,false,1000,image-keyboard-response,31
true,8,2,2,2,true,d,false,true,0.0-2.0-0.32-0.291-3.291,0,0,0,68,false,stim,false,0,406.30000000074506,2,0,1,18969,WMM1,850850,false,false,1003,image-keyboard-response,32
true,8,1,2,1,true,z,false,true,0.0-2.0-0.32-0.292-3.292,0,0,0,90,false,stim,false,0,596.0999999996275,2,1,2,18969,WMM1,852960,false,false,1006,image-keyboard-response,33
true,8,1,2,1,true,z,false,true,0.0-2.0-0.32-0.293-3.293,0,0,0,90,false,stim,false,0,667.0,2,1,2,18969,WMM1,855150,false,false,1009,image-keyboard-response,34
true,8,0,2,0,true,q,false,true,0.0-2.0-0.32-0.294-3.294,0,0,0,81,false,stim,false,2,483.6000000005588,2,0,0,18969,WMM1,857150,false,false,1012,image-keyboard-response,35
true,8,0,2,0,true,q,false,false,0.0-2.0-0.32-0.295-3.295,0,0,0,81,false,stim,false,2,588.5999999996275,2,0,0,18969,WMM1,859260,false,true,1015,image-keyboard-response,36
true,8,2,2,2,true,d,false,true,0.0-2.0-0.32-0.296-3.296,0,0,0,68,false,stim,false,0,581.1000000005588,2,0,1,18969,WMM1,861371,false,false,1018,image-keyboard-response,37
true,8,2,2,2,true,d,false,true,0.0-2.0-0.33-0.297-3.297,0,0,0,68,false,stim,false,0,694.6999999992549,2,0,1,18969,WMM1,863600,false,false,1021,image-keyboard-response,38
true,8,0,2,0,true,q,false,true,0.0-2.0-0.33-0.298-3.298,0,0,0,81,false,stim,false,2,671.2999999998137,2,0,0,18969,WMM1,865800,false,false,1024,image-keyboard-response,39
true,8,2,2,2,true,d,false,true,0.0-2.0-0.33-0.299-3.299,0,0,0,68,false,stim,false,0,735.8999999994412,2,0,1,18969,WMM1,868060,false,false,1027,image-keyboard-response,40
true,9,1,3,1,true,z,false,true,0.0-2.0-0.33-0.300-3.300,0,0,1,90,true,stim,false,1,361.0,2,1,2,18969,WMM1,869930,false,false,1030,image-keyboard-response,1
true,9,1,3,1,true,z,false,true,0.0-2.0-0.33-0.301-3.301,0,0,1,90,false,stim,false,1,401.30000000074506,2,1,2,18969,WMM1,871851,false,false,1033,image-keyboard-response,2
true,9,0,3,2,false,d,false,false,0.0-2.0-0.33-0.302-3.302,0,0,1,81,false,stim,true,0,515.3999999994412,2,0,0,18969,WMM1,873900,false,false,1036,image-keyboard-response,3
true,9,2,3,1,false,z,false,true,0.0-2.0-0.33-0.303-3.303,0,0,1,68,false,stim,true,2,448.5,2,0,1,18969,WMM1,875870,false,true,1039,image-keyboard-response,4
true,9,1,3,1,true,z,false,true,0.0-2.0-0.33-0.304-3.304,0,0,1,90,false,stim,false,1,371.8999999994412,2,1,2,18969,WMM1,877770,false,false,1042,image-keyboard-response,5
true,9,1,3,2,false,d,true,true,0.0-2.0-0.33-0.305-3.305,0,0,1,90,false,stim,false,0,335.29999999981374,2,0,0,18969,WMM1,879629,false,true,1045,image-keyboard-response,6
true,9,2,3,1,false,z,false,false,0.0-2.0-0.34-0.306-3.306,0,0,1,68,false,stim,true,2,544.0999999996275,2,0,1,18969,WMM1,881690,false,false,1048,image-keyboard-response,7
true,9,1,3,2,false,d,true,false,0.0-2.0-0.34-0.307-3.307,0,0,1,90,false,stim,false,0,441.29999999981374,2,0,0,18969,WMM1,883651,false,false,1051,image-keyboard-response,8
true,9,1,3,2,false,d,true,false,0.0-2.0-0.34-0.308-3.308,0,0,1,90,false,stim,false,0,437.90000000037253,2,0,0,18969,WMM1,885610,false,false,1054,image-keyboard-response,9
true,9,0,3,1,false,z,true,false,0.0-2.0-0.34-0.309-3.309,0,0,1,81,false,stim,false,1,507.79999999981374,2,1,2,18969,WMM1,887641,false,false,1057,image-keyboard-response,10
true,9,0,3,1,false,z,true,false,0.0-2.0-0.34-0.310-3.310,0,0,1,81,false,stim,false,2,592.3999999994412,2,0,1,18969,WMM1,889760,false,false,1060,image-keyboard-response,11
true,9,1,3,1,true,z,false,true,0.0-2.0-0.34-0.311-3.311,0,0,1,90,false,stim,false,2,388.90000000037253,2,0,1,18969,WMM1,891671,false,false,1063,image-keyboard-response,12
true,9,2,3,2,true,d,false,true,0.0-2.0-0.34-0.312-3.312,0,0,1,68,false,stim,false,0,399.70000000018626,2,0,0,18969,WMM1,893590,false,false,1066,image-keyboard-response,13
true,9,1,3,1,true,z,false,true,0.0-2.0-0.34-0.313-3.313,0,0,1,90,false,stim,false,1,346.90000000037253,2,1,2,18969,WMM1,895470,false,false,1069,image-keyboard-response,14
true,9,1,3,1,true,z,false,true,0.0-2.0-0.34-0.314-3.314,0,0,1,90,false,stim,false,1,385.29999999981374,2,1,2,18969,WMM1,897370,false,false,1072,image-keyboard-response,15
true,9,2,3,1,false,z,false,false,0.0-2.0-0.35-0.315-3.315,0,0,1,68,false,stim,true,2,349.70000000018626,2,0,1,18969,WMM1,899250,false,false,1075,image-keyboard-response,16
true,9,2,3,2,true,d,false,false,0.0-2.0-0.35-0.316-3.316,0,0,1,68,false,stim,false,0,488.90000000037253,2,0,0,18969,WMM1,901261,false,true,1078,image-keyboard-response,17
true,9,0,3,2,false,d,false,false,0.0-2.0-0.35-0.317-3.317,0,0,1,81,false,stim,true,0,648.3999999994412,2,0,0,18969,WMM1,903430,false,false,1081,image-keyboard-response,18
true,9,1,3,1,true,z,false,true,0.0-2.0-0.35-0.318-3.318,0,0,1,90,false,stim,false,1,455.79999999981374,2,1,2,18969,WMM1,905411,false,false,1084,image-keyboard-response,19
true,9,2,3,2,true,d,false,true,0.0-2.0-0.35-0.319-3.319,0,0,1,68,false,stim,false,0,585.5999999996275,2,0,0,18969,WMM1,907522,false,false,1087,image-keyboard-response,20
true,9,1,3,1,true,z,false,true,0.0-2.0-0.35-0.320-3.320,0,0,1,90,false,stim,false,2,497.3999999994412,2,0,1,18969,WMM1,909539,false,false,1090,image-keyboard-response,21
true,9,1,3,1,true,z,false,true,0.0-2.0-0.35-0.321-3.321,0,0,1,90,false,stim,false,2,485.6000000005588,2,0,1,18969,WMM1,911551,false,false,1093,image-keyboard-response,22
true,9,1,3,1,true,z,false,true,0.0-2.0-0.35-0.322-3.322,0,0,1,90,false,stim,false,1,754.2999999998137,2,1,2,18969,WMM1,913833,false,false,1096,image-keyboard-response,23
true,9,1,3,1,true,z,false,true,0.0-2.0-0.35-0.323-3.323,0,0,1,90,false,stim,false,1,471.20000000018626,2,1,2,18969,WMM1,915831,false,false,1099,image-keyboard-response,24
true,9,2,3,2,true,d,false,true,0.0-2.0-0.36-0.324-3.324,0,0,1,68,false,stim,false,0,590.7999999998137,2,0,0,18969,WMM1,917951,false,false,1102,image-keyboard-response,25
true,9,2,3,2,true,d,false,true,0.0-2.0-0.36-0.325-3.325,0,0,1,68,false,stim,false,0,458.19999999925494,2,0,0,18969,WMM1,919940,false,false,1105,image-keyboard-response,26
true,9,1,3,1,true,z,false,true,0.0-2.0-0.36-0.326-3.326,0,0,1,90,false,stim,false,1,521.7999999998137,2,0,2,18969,WMM1,921991,false,false,1108,image-keyboard-response,27
true,9,1,3,1,true,z,false,true,0.0-2.0-0.36-0.327-3.327,0,0,1,90,false,stim,false,2,1092.5,2,1,1,18969,WMM1,924611,false,false,1111,image-keyboard-response,28
true,9,1,3,1,true,z,false,false,0.0-2.0-0.36-0.328-3.328,0,0,1,90,false,stim,false,2,436.19999999925494,2,1,1,18969,WMM1,926560,false,true,1114,image-keyboard-response,29
true,9,2,3,2,true,d,false,true,0.0-2.0-0.36-0.329-3.329,0,0,1,68,false,stim,false,0,425.59999999962747,2,0,0,18969,WMM1,928501,false,false,1117,image-keyboard-response,30
true,9,1,3,1,true,z,false,true,0.0-2.0-0.36-0.330-3.330,0,0,1,90,false,stim,false,1,532.2999999998137,2,0,2,18969,WMM1,930551,false,false,1120,image-keyboard-response,31
true,9,1,3,1,true,z,false,true,0.0-2.0-0.36-0.331-3.331,0,0,1,90,false,stim,false,1,1049.9000000003725,2,0,2,18969,WMM1,933121,false,false,1123,image-keyboard-response,32
true,9,1,3,1,true,z,false,false,0.0-2.0-0.36-0.332-3.332,0,0,1,90,false,stim,false,2,619.2999999998137,2,1,1,18969,WMM1,935261,false,true,1126,image-keyboard-response,33
true,9,2,3,2,true,d,false,true,0.0-2.0-0.37-0.333-3.333,0,0,1,68,false,stim,false,0,589.8000000007451,2,0,0,18969,WMM1,937371,false,false,1129,image-keyboard-response,34
true,9,1,3,1,true,z,false,true,0.0-2.0-0.37-0.334-3.334,0,0,1,90,false,stim,false,1,390.0,2,0,2,18969,WMM1,939291,false,false,1132,image-keyboard-response,35
true,10,1,3,1,true,z,false,true,0.0-2.0-0.37-0.335-3.335,0,1,0,90,true,stim,false,1,582.8999999994412,2,1,1,18969,WMM1,941391,false,false,1135,image-keyboard-response,1
true,10,1,3,2,false,d,false,false,0.0-2.0-0.37-0.336-3.336,0,1,0,90,false,stim,true,1,505.40000000037253,2,0,2,18969,WMM1,943421,false,false,1138,image-keyboard-response,2
true,10,1,3,1,true,z,false,true,0.0-2.0-0.37-0.337-3.337,0,1,0,90,false,stim,false,1,806.6000000005588,2,1,1,18969,WMM1,945751,false,false,1141,image-keyboard-response,3
true,10,1,3,2,false,d,false,false,0.0-2.0-0.37-0.338-3.338,0,1,0,90,false,stim,true,1,365.5,2,0,2,18969,WMM1,947641,false,false,1144,image-keyboard-response,4
true,10,2,3,1,false,z,false,false,0.0-2.0-0.37-0.339-3.339,0,1,0,68,false,stim,true,2,529.7999999998137,2,0,0,18969,WMM1,949702,false,false,1147,image-keyboard-response,5
true,10,1,3,1,true,z,false,true,0.0-2.0-0.37-0.340-3.340,0,1,0,90,false,stim,false,2,685.5,2,0,0,18969,WMM1,951911,false,false,1150,image-keyboard-response,6
true,10,1,3,1,true,z,false,true,0.0-2.0-0.37-0.341-3.341,0,1,0,90,false,stim,false,1,637.0,2,1,1,18969,WMM1,954071,false,false,1153,image-keyboard-response,7
true,10,1,3,1,true,z,false,true,0.0-2.0-0.38-0.342-3.342,0,1,0,90,false,stim,false,1,431.3999999994412,2,1,1,18969,WMM1,956031,false,false,1156,image-keyboard-response,8
true,10,1,3,1,true,z,false,true,0.0-2.0-0.38-0.343-3.343,0,1,0,90,false,stim,false,1,471.5,2,1,1,18969,WMM1,958021,false,false,1159,image-keyboard-response,9
true,10,1,3,1,true,z,false,true,0.0-2.0-0.38-0.344-3.344,0,1,0,90,false,stim,false,2,571.6000000005588,2,0,0,18969,WMM1,960121,false,false,1162,image-keyboard-response,10
true,10,1,3,1,true,z,false,true,0.0-2.0-0.38-0.345-3.345,0,1,0,90,false,stim,false,1,817.5,2,1,1,18969,WMM1,962462,false,false,1165,image-keyboard-response,11
true,10,1,3,1,true,z,false,true,0.0-2.0-0.38-0.346-3.346,0,1,0,90,false,stim,false,2,580.3999999994412,2,0,0,18969,WMM1,964561,false,false,1168,image-keyboard-response,12
true,10,0,3,2,false,d,true,false,0.0-2.0-0.38-0.347-3.347,0,1,0,81,false,stim,false,1,335.19999999925494,2,0,2,18969,WMM1,966421,false,false,1171,image-keyboard-response,13
true,10,2,3,2,true,d,false,true,0.0-2.0-0.38-0.348-3.348,0,1,0,68,false,stim,false,1,489.70000000018626,2,0,2,18969,WMM1,968441,false,false,1174,image-keyboard-response,14
true,10,1,3,1,true,z,false,true,0.0-2.0-0.38-0.349-3.349,0,1,0,90,false,stim,false,2,294.29999999981374,2,0,0,18969,WMM1,970251,false,false,1177,image-keyboard-response,15
true,10,2,3,2,true,d,false,true,0.0-2.0-0.38-0.350-3.350,0,1,0,68,false,stim,false,1,523.2000000001863,2,0,2,18969,WMM1,972291,false,false,1180,image-keyboard-response,16
true,10,2,3,2,true,d,false,true,0.0-2.0-0.39-0.351-3.351,0,1,0,68,false,stim,false,1,422.79999999981374,2,0,2,18969,WMM1,974231,false,false,1183,image-keyboard-response,17
true,10,1,3,1,true,z,false,true,0.0-2.0-0.39-0.352-3.352,0,1,0,90,false,stim,false,2,787.5,2,0,0,18969,WMM1,976541,false,false,1186,image-keyboard-response,18
true,10,2,3,2,true,d,false,true,0.0-2.0-0.39-0.353-3.353,0,1,0,68,false,stim,false,1,369.3999999994412,2,0,2,18969,WMM1,978431,false,false,1189,image-keyboard-response,19
true,10,1,3,1,true,z,false,true,0.0-2.0-0.39-0.354-3.354,0,1,0,90,false,stim,false,1,616.3000000007451,2,1,1,18969,WMM1,980572,false,false,1192,image-keyboard-response,20
true,10,2,3,2,true,d,false,true,0.0-2.0-0.39-0.355-3.355,0,1,0,68,false,stim,false,1,429.90000000037253,2,0,2,18969,WMM1,982521,false,false,1195,image-keyboard-response,21
true,10,1,3,1,true,z,false,true,0.0-2.0-0.39-0.356-3.356,0,1,0,90,false,stim,false,1,457.59999999962747,2,0,1,18969,WMM1,984501,false,false,1198,image-keyboard-response,22
true,10,2,3,1,false,z,false,false,0.0-2.0-0.39-0.357-3.357,0,1,0,68,false,stim,true,2,509.70000000018626,2,0,0,18969,WMM1,986541,false,false,1201,image-keyboard-response,23
true,10,1,3,1,true,z,false,true,0.0-2.0-0.39-0.358-3.358,0,1,0,90,false,stim,false,1,364.80000000074506,2,0,1,18969,WMM1,988431,false,false,1204,image-keyboard-response,24
true,10,1,3,1,true,z,false,true,0.0-2.0-0.39-0.359-3.359,0,1,0,90,false,stim,false,2,392.5,2,0,0,18969,WMM1,990354,false,false,1207,image-keyboard-response,25
true,10,1,3,1,true,z,false,true,0.0-2.0-0.40-0.360-3.360,0,1,0,90,false,stim,false,1,414.0,2,0,1,18969,WMM1,992292,false,false,1210,image-keyboard-response,26
true,10,1,3,1,true,z,false,true,0.0-2.0-0.40-0.361-3.361,0,1,0,90,false,stim,false,2,506.5,2,0,0,18969,WMM1,994321,false,false,1213,image-keyboard-response,27
true,10,2,3,2,true,d,false,true,0.0-2.0-0.40-0.362-3.362,0,1,0,68,false,stim,false,1,652.6999999992549,2,0,2,18969,WMM1,996491,false,false,1216,image-keyboard-response,28
true,10,1,3,1,true,z,false,false,0.0-2.0-0.40-0.363-3.363,0,1,0,90,false,stim,false,2,507.0,2,0,0,18969,WMM1,998532,false,true,1219,image-keyboard-response,29
true,10,1,3,1,true,z,false,true,0.0-2.0-0.40-0.364-3.364,0,1,0,90,false,stim,false,2,393.0,2,0,0,18969,WMM1,1000450,false,false,1222,image-keyboard-response,30
true,11,1,2,2,false,d,false,false,0.0-2.0-0.40-0.365-3.365,0,0,0,90,true,stim,true,1,716.3000000007451,2,0,1,18969,WMM1,1002682,false,false,1225,image-keyboard-response,1
true,11,2,2,1,false,z,false,true,0.0-2.0-0.40-0.366-3.366,0,0,0,68,false,stim,true,2,384.79999999981374,2,0,2,18969,WMM1,1004592,false,true,1228,image-keyboard-response,2
true,11,1,2,2,false,d,false,false,0.0-2.0-0.40-0.367-3.367,0,0,0,90,false,stim,true,1,343.1000000005588,2,0,1,18969,WMM1,1006470,false,false,1231,image-keyboard-response,3
true,11,2,2,1,false,z,false,false,0.0-2.0-0.40-0.368-3.368,0,0,0,68,false,stim,true,2,548.2000000001863,2,0,2,18969,WMM1,1008541,false,false,1234,image-keyboard-response,4
true,11,0,2,2,false,d,true,false,0.0-2.0-0.41-0.369-3.369,0,0,0,81,false,stim,false,1,332.59999999962747,2,0,1,18969,WMM1,1010392,false,false,1237,image-keyboard-response,5
true,11,2,2,1,false,z,false,false,0.0-2.0-0.41-0.370-3.370,0,0,0,68,false,stim,true,2,717.3999999994412,2,0,2,18969,WMM1,1012632,false,false,1240,image-keyboard-response,6
true,11,1,2,1,true,z,false,true,0.0-2.0-0.41-0.371-3.371,0,0,0,90,false,stim,false,2,654.4000000003725,2,0,2,18969,WMM1,1014812,false,false,1243,image-keyboard-response,7
true,11,2,2,2,true,d,false,true,0.0-2.0-0.41-0.372-3.372,0,0,0,68,false,stim,false,1,328.6000000005588,2,0,1,18969,WMM1,1016662,false,false,1246,image-keyboard-response,8
true,11,1,2,1,true,z,false,true,0.0-2.0-0.41-0.373-3.373,0,0,0,90,false,stim,false,2,478.20000000018626,2,0,2,18969,WMM1,1018662,false,false,1249,image-keyboard-response,9
true,11,1,2,0,false,q,false,false,0.0-2.0-0.41-0.374-3.374,0,0,0,90,false,stim,true,1,296.0,2,0,0,18969,WMM1,1020482,false,false,1252,image-keyboard-response,10
true,11,0,2,0,true,q,false,true,0.0-2.0-0.41-0.375-3.375,0,0,0,81,false,stim,false,1,520.8999999994412,2,0,0,18969,WMM1,1022532,false,false,1255,image-keyboard-response,11
true,11,0,2,0,true,q,false,true,0.0-2.0-0.41-0.376-3.376,0,0,0,81,false,stim,false,1,737.7000000001863,2,0,0,18969,WMM1,1024794,false,false,1258,image-keyboard-response,12
true,11,2,2,2,true,d,false,true,0.0-2.0-0.41-0.377-3.377,0,0,0,68,false,stim,false,1,506.40000000037253,2,0,1,18969,WMM1,1026822,false,false,1261,image-keyboard-response,13
true,11,0,2,0,true,q,false,true,0.0-2.0-0.42-0.378-3.378,0,0,0,81,false,stim,false,1,666.2000000001863,2,0,0,18969,WMM1,1029002,false,false,1264,image-keyboard-response,14
true,11,0,2,0,true,q,false,true,0.0-2.0-0.42-0.379-3.379,0,0,0,81,false,stim,false,1,460.20000000018626,2,0,0,18969,WMM1,1030972,false,false,1267,image-keyboard-response,15
true,11,0,2,0,true,q,false,true,0.0-2.0-0.42-0.380-3.380,0,0,0,81,false,stim,false,1,364.40000000037253,2,0,0,18969,WMM1,1032862,false,false,1270,image-keyboard-response,16
true,11,1,2,2,false,d,false,false,0.0-2.0-0.42-0.381-3.381,0,0,0,90,false,stim,true,1,1034.0999999996275,2,0,1,18969,WMM1,1035414,false,false,1273,image-keyboard-response,17
true,11,2,2,1,false,z,false,false,0.0-2.0-0.42-0.382-3.382,0,0,0,68,false,stim,true,2,348.0,2,0,2,18969,WMM1,1037293,false,false,1276,image-keyboard-response,18
true,11,2,2,2,true,d,false,false,0.0-2.0-0.42-0.383-3.383,0,0,0,68,false,stim,false,1,507.5,2,0,1,18969,WMM1,1039322,false,true,1279,image-keyboard-response,19
true,11,1,2,1,true,z,false,true,0.0-2.0-0.42-0.384-3.384,0,0,0,90,false,stim,false,2,424.90000000037253,2,0,2,18969,WMM1,1041272,false,false,1282,image-keyboard-response,20
true,11,2,2,2,true,d,false,true,0.0-2.0-0.42-0.385-3.385,0,0,0,68,false,stim,false,1,400.3999999994412,2,0,1,18969,WMM1,1043192,false,false,1285,image-keyboard-response,21
true,11,1,2,1,true,z,false,true,0.0-2.0-0.42-0.386-3.386,0,0,0,90,false,stim,false,2,436.59999999962747,2,0,2,18969,WMM1,1045152,false,false,1288,image-keyboard-response,22
true,11,0,2,0,true,q,false,true,0.0-2.0-0.43-0.387-3.387,0,0,0,81,false,stim,false,1,445.20000000018626,2,0,0,18969,WMM1,1047112,false,false,1291,image-keyboard-response,23
true,11,0,2,0,true,q,false,true,0.0-2.0-0.43-0.388-3.388,0,0,0,81,false,stim,false,1,476.5,2,0,0,18969,WMM1,1049113,false,false,1294,image-keyboard-response,24
true,11,1,2,1,true,z,false,true,0.0-2.0-0.43-0.389-3.389,0,0,0,90,false,stim,false,2,379.09999999962747,2,0,2,18969,WMM1,1051022,false,false,1297,image-keyboard-response,25
true,11,1,2,1,true,z,false,true,0.0-2.0-0.43-0.390-3.390,0,0,0,90,false,stim,false,2,407.20000000018626,2,0,2,18969,WMM1,1052952,false,false,1300,image-keyboard-response,26
true,11,2,2,2,true,d,false,true,0.0-2.0-0.43-0.391-3.391,0,0,0,68,false,stim,false,1,464.6000000005588,2,0,1,18969,WMM1,1054942,false,false,1303,image-keyboard-response,27
true,11,1,2,1,true,z,false,true,0.0-2.0-0.43-0.392-3.392,0,0,0,90,false,stim,false,2,387.70000000018626,2,0,2,18969,WMM1,1056853,false,false,1306,image-keyboard-response,28
true,11,0,2,0,true,q,false,true,0.0-2.0-0.43-0.393-3.393,0,0,0,81,false,stim,false,1,379.0,2,0,0,18969,WMM1,1058752,false,false,1309,image-keyboard-response,29
true,11,2,2,2,true,d,false,true,0.0-2.0-0.43-0.394-3.394,0,0,0,68,false,stim,false,1,414.6000000005588,2,0,1,18969,WMM1,1060682,false,false,1312,image-keyboard-response,30
true,11,2,2,2,true,d,false,true,0.0-2.0-0.43-0.395-3.395,0,0,0,68,false,stim,false,1,420.90000000037253,2,0,1,18969,WMM1,1062623,false,false,1315,image-keyboard-response,31
true,11,1,2,1,true,z,false,false,0.0-2.0-0.44-0.396-3.396,0,0,0,90,false,stim,false,2,414.5,2,0,2,18969,WMM1,1064552,false,true,1318,image-keyboard-response,32
true,12,1,1,0,false,q,false,false,0.0-2.0-0.44-0.397-3.397,0,0,0,90,true,stim,true,1,371.70000000018626,2,0,2,18969,WMM1,1066442,false,false,1321,image-keyboard-response,1
true,12,0,1,1,false,z,false,true,0.0-2.0-0.44-0.398-3.398,0,0,0,81,false,stim,true,0,455.90000000037253,2,0,0,18969,WMM1,1068422,false,true,1324,image-keyboard-response,2
true,12,0,1,1,false,z,false,false,0.0-2.0-0.44-0.399-3.399,0,0,0,81,false,stim,true,0,430.0,2,0,0,18969,WMM1,1070382,false,false,1327,image-keyboard-response,3
true,12,0,1,1,false,z,true,false,0.0-2.0-0.44-0.400-3.400,0,0,0,81,false,stim,false,2,383.79999999981374,2,0,1,18969,WMM1,1072294,false,false,1330,image-keyboard-response,4
true,12,2,1,1,false,z,false,true,0.0-2.0-0.44-0.401-3.401,0,0,0,68,false,stim,true,2,395.80000000074506,2,0,1,18969,WMM1,1074212,false,true,1333,image-keyboard-response,5
true,12,2,1,0,false,q,true,false,0.0-2.0-0.44-0.402-3.402,0,0,0,68,false,stim,false,1,833.3000000007451,2,0,2,18969,WMM1,1076572,false,false,1336,image-keyboard-response,6
true,12,0,1,1,false,z,true,false,0.0-2.0-0.44-0.403-3.403,0,0,0,81,false,stim,false,2,321.70000000018626,2,0,1,18969,WMM1,1078412,false,false,1339,image-keyboard-response,7
true,12,0,1,1,false,z,false,false,0.0-2.0-0.44-0.404-3.404,0,0,0,81,false,stim,true,0,619.5999999996275,2,0,0,18969,WMM1,1080562,false,false,1342,image-keyboard-response,8
true,12,2,1,0,false,q,true,false,0.0-2.0-0.45-0.405-3.405,0,0,0,68,false,stim,false,1,425.29999999981374,2,0,2,18969,WMM1,1082513,false,false,1345,image-keyboard-response,9
true,12,1,1,0,false,q,false,false,0.0-2.0-0.45-0.406-3.406,0,0,0,90,false,stim,true,1,414.8999999994412,2,0,2,18969,WMM1,1084452,false,false,1348,image-keyboard-response,10
true,12,2,1,1,false,z,false,false,0.0-2.0-0.45-0.407-3.407,0,0,0,68,false,stim,true,2,338.19999999925494,2,0,1,18969,WMM1,1086323,false,false,1351,image-keyboard-response,11
true,12,2,1,1,false,z,false,false,0.0-2.0-0.45-0.408-3.408,0,0,0,68,false,stim,true,2,391.3999999994412,2,0,1,18969,WMM1,1088233,false,false,1354,image-keyboard-response,12
true,12,1,1,1,true,z,false,true,0.0-2.0-0.45-0.409-3.409,0,0,0,90,false,stim,false,0,352.1000000005588,2,0,0,18969,WMM1,1090101,false,false,1357,image-keyboard-response,13
true,12,1,1,1,true,z,false,true,0.0-2.0-0.45-0.410-3.410,0,0,0,90,false,stim,false,0,737.4000000003725,2,0,0,18969,WMM1,1092362,false,false,1360,image-keyboard-response,14
true,12,2,1,0,false,q,true,false,0.0-2.0-0.45-0.411-3.411,0,0,0,68,false,stim,false,1,551.0,2,0,2,18969,WMM1,1094433,false,false,1363,image-keyboard-response,15
true,12,1,1,1,true,z,false,true,0.0-2.0-0.45-0.412-3.412,0,0,0,90,false,stim,false,0,424.40000000037253,2,0,0,18969,WMM1,1096372,false,false,1366,image-keyboard-response,16
true,12,1,1,1,true,z,false,true,0.0-2.0-0.45-0.413-3.413,0,0,0,90,false,stim,false,2,303.70000000018626,2,0,1,18969,WMM1,1098203,false,false,1369,image-keyboard-response,17
true,12,1,1,1,true,z,false,true,0.0-2.0-0.46-0.414-3.414,0,0,0,90,false,stim,false,2,419.19999999925494,2,0,1,18969,WMM1,1100143,false,false,1372,image-keyboard-response,18
true,12,1,1,1,true,z,false,true,0.0-2.0-0.46-0.415-3.415,0,0,0,90,false,stim,false,0,424.5,2,0,0,18969,WMM1,1102093,false,false,1375,image-keyboard-response,19
true,12,0,1,0,true,q,false,true,0.0-2.0-0.46-0.416-3.416,0,0,0,81,false,stim,false,1,335.5,2,0,2,18969,WMM1,1103953,false,false,1378,image-keyboard-response,20
true,12,1,1,1,true,z,false,true,0.0-2.0-0.46-0.417-3.417,0,0,0,90,false,stim,false,2,418.40000000037253,2,0,1,18969,WMM1,1105903,false,false,1381,image-keyboard-response,21
true,12,1,1,1,true,z,false,false,0.0-2.0-0.46-0.418-3.418,0,0,0,90,false,stim,false,0,301.40000000037253,2,0,0,18969,WMM1,1107722,false,true,1384,image-keyboard-response,22
true,12,0,1,0,true,q,false,true,0.0-2.0-0.46-0.419-3.419,0,0,0,81,false,stim,false,1,626.6000000005588,2,0,2,18969,WMM1,1109873,false,false,1387,image-keyboard-response,23
true,12,1,1,1,true,z,false,true,0.0-2.0-0.46-0.420-3.420,0,0,0,90,false,stim,false,2,578.7999999998137,2,0,1,18969,WMM1,1111973,false,false,1390,image-keyboard-response,24
true,12,1,1,1,true,z,false,true,0.0-2.0-0.46-0.421-3.421,0,0,0,90,false,stim,false,0,350.20000000018626,2,0,0,18969,WMM1,1113853,false,false,1393,image-keyboard-response,25
true,12,0,1,0,true,q,false,true,0.0-2.0-0.46-0.422-3.422,0,0,0,81,false,stim,false,1,360.59999999962747,2,0,2,18969,WMM1,1115743,false,false,1396,image-keyboard-response,26
true,12,1,1,1,true,z,false,true,0.0-2.0-0.47-0.423-3.423,0,0,0,90,false,stim,false,0,373.20000000018626,2,0,0,18969,WMM1,1117634,false,false,1399,image-keyboard-response,27
true,12,0,1,0,true,q,false,false,0.0-2.0-0.47-0.424-3.424,0,0,0,81,false,stim,false,1,414.90000000037253,2,0,2,18969,WMM1,1119572,false,true,1402,image-keyboard-response,28
true,12,1,1,1,true,z,false,true,0.0-2.0-0.47-0.425-3.425,0,0,0,90,false,stim,false,2,321.0,2,0,1,18969,WMM1,1121412,false,false,1405,image-keyboard-response,29
true,12,1,1,0,false,q,false,true,0.0-2.0-0.47-0.426-3.426,0,0,0,90,false,stim,true,1,383.19999999925494,2,0,2,18969,WMM1,1123313,false,true,1408,image-keyboard-response,30
true,12,1,1,1,true,z,false,true,0.0-2.0-0.47-0.427-3.427,0,0,0,90,false,stim,false,0,403.5,2,0,0,18969,WMM1,1125243,false,false,1411,image-keyboard-response,31
true,12,1,1,1,true,z,false,true,0.0-2.0-0.47-0.428-3.428,0,0,0,90,false,stim,false,0,426.20000000018626,2,0,0,18969,WMM1,1127193,false,false,1414,image-keyboard-response,32
true,12,1,1,1,true,z,false,true,0.0-2.0-0.47-0.429-3.429,0,0,0,90,false,stim,false,2,704.5,2,0,1,18969,WMM1,1129424,false,false,1417,image-keyboard-response,33
true,13,0,1,2,false,d,false,true,0.0-2.0-0.47-0.430-3.430,0,0,0,81,true,stim,true,0,294.80000000074506,2,0,2,18969,WMM1,1131243,false,true,1420,image-keyboard-response,1
true,13,1,1,2,false,d,false,false,0.0-2.0-0.47-0.431-3.431,0,0,0,90,false,stim,true,1,470.5,2,0,1,18969,WMM1,1133233,false,false,1423,image-keyboard-response,2
true,13,0,1,2,false,d,false,false,0.0-2.0-0.48-0.432-3.432,0,0,0,81,false,stim,true,0,419.59999999962747,2,0,2,18969,WMM1,1135183,false,false,1426,image-keyboard-response,3
true,13,1,1,2,false,d,false,false,0.0-2.0-0.48-0.433-3.433,0,0,0,90,false,stim,true,1,404.30000000074506,2,0,1,18969,WMM1,1137103,false,false,1429,image-keyboard-response,4
true,13,1,1,0,false,q,false,false,0.0-2.0-0.48-0.434-3.434,0,0,0,90,false,stim,true,1,824.7000000001863,2,0,0,18969,WMM1,1139443,false,false,1432,image-keyboard-response,5
true,13,1,1,2,false,d,false,false,0.0-2.0-0.48-0.435-3.435,0,0,0,90,false,stim,true,1,627.1000000005588,2,0,1,18969,WMM1,1141594,false,false,1435,image-keyboard-response,6
true,13,0,1,2,false,d,false,false,0.0-2.0-0.48-0.436-3.436,0,0,0,81,false,stim,true,0,479.6000000005588,2,0,2,18969,WMM1,1143593,false,false,1438,image-keyboard-response,7
true,13,2,1,0,false,q,true,true,0.0-2.0-0.48-0.437-3.437,0,0,0,68,false,stim,false,1,523.9000000003725,2,0,0,18969,WMM1,1145635,false,true,1441,image-keyboard-response,8
true,13,1,1,2,false,d,true,false,0.0-2.0-0.48-0.438-3.438,0,0,0,90,false,stim,false,0,843.8999999994412,2,0,2,18969,WMM1,1148003,false,false,1444,image-keyboard-response,9
true,13,0,1,2,false,d,true,false,0.0-2.0-0.48-0.439-3.439,0,0,0,81,false,stim,false,1,537.5,2,0,1,18969,WMM1,1150052,false,false,1447,image-keyboard-response,10
true,13,2,1,0,false,q,true,false,0.0-2.0-0.48-0.440-3.440,0,0,0,68,false,stim,false,1,459.59999999962747,2,0,0,18969,WMM1,1152043,false,false,1450,image-keyboard-response,11
true,13,2,1,2,true,d,false,true,0.0-2.0-0.49-0.441-3.441,0,0,0,68,false,stim,false,0,473.09999999962747,2,0,2,18969,WMM1,1154043,false,false,1453,image-keyboard-response,12
true,13,2,1,2,true,d,false,true,0.0-2.0-0.49-0.442-3.442,0,0,0,68,false,stim,false,0,401.70000000018626,2,0,2,18969,WMM1,1155973,false,false,1456,image-keyboard-response,13
true,13,2,1,2,true,d,false,true,0.0-2.0-0.49-0.443-3.443,0,0,0,68,false,stim,false,1,519.5,2,0,1,18969,WMM1,1158004,false,false,1459,image-keyboard-response,14
true,13,2,1,2,true,d,false,true,0.0-2.0-0.49-0.444-3.444,0,0,0,68,false,stim,false,1,423.79999999981374,2,0,1,18969,WMM1,1159943,false,false,1462,image-keyboard-response,15
true,13,1,1,0,false,q,false,false,0.0-2.0-0.49-0.445-3.445,0,0,0,90,false,stim,true,1,469.5,2,0,0,18969,WMM1,1161934,false,false,1465,image-keyboard-response,16
true,13,2,1,2,true,d,false,true,0.0-2.0-0.49-0.446-3.446,0,0,0,68,false,stim,false,1,574.1000000005588,2,0,1,18969,WMM1,1164024,false,false,1468,image-keyboard-response,17
true,13,1,1,0,false,q,false,false,0.0-2.0-0.49-0.447-3.447,0,0,0,90,false,stim,true,1,316.59999999962747,2,0,0,18969,WMM1,1165863,false,false,1471,image-keyboard-response,18
true,13,0,1,0,true,q,false,true,0.0-2.0-0.49-0.448-3.448,0,0,0,81,false,stim,false,1,343.59999999962747,2,0,0,18969,WMM1,1167724,false,false,1474,image-keyboard-response,19
true,13,2,1,2,true,d,false,true,0.0-2.0-0.49-0.449-3.449,0,0,0,68,false,stim,false,0,476.70000000018626,2,0,2,18969,WMM1,1169724,false,false,1477,image-keyboard-response,20
true,13,2,1,2,true,d,false,true,0.0-2.0-0.50-0.450-3.450,0,0,0,68,false,stim,false,1,379.6000000005588,2,0,1,18969,WMM1,1171633,false,false,1480,image-keyboard-response,21
true,13,2,1,2,true,d,false,true,0.0-2.0-0.50-0.451-3.451,0,0,0,68,false,stim,false,1,359.5,2,0,1,18969,WMM1,1173514,false,false,1483,image-keyboard-response,22
true,13,0,1,0,true,q,false,true,0.0-2.0-0.50-0.452-3.452,0,0,0,81,false,stim,false,1,337.5,2,0,0,18969,WMM1,1175384,false,false,1486,image-keyboard-response,23
true,13,0,1,0,true,q,false,true,0.0-2.0-0.50-0.453-3.453,0,0,0,81,false,stim,false,1,603.0,2,1,0,18969,WMM1,1177513,false,false,1489,image-keyboard-response,24
true,13,2,1,2,true,d,false,true,0.0-2.0-0.50-0.454-3.454,0,0,0,68,false,stim,false,0,348.40000000037253,2,1,2,18969,WMM1,1179382,false,false,1492,image-keyboard-response,25
true,13,2,1,2,true,d,false,true,0.0-2.0-0.50-0.455-3.455,0,0,0,68,false,stim,false,0,412.1000000005588,2,1,2,18969,WMM1,1181313,false,false,1495,image-keyboard-response,26
true,13,2,1,2,true,d,false,true,0.0-2.0-0.50-0.456-3.456,0,0,0,68,false,stim,false,0,424.5,2,1,2,18969,WMM1,1183254,false,false,1498,image-keyboard-response,27
true,13,2,1,2,true,d,false,true,0.0-2.0-0.50-0.457-3.457,0,0,0,68,false,stim,false,1,631.0999999996275,2,1,1,18969,WMM1,1185414,false,false,1501,image-keyboard-response,28
true,13,0,1,0,true,q,false,true,0.0-2.0-0.50-0.458-3.458,0,0,0,81,false,stim,false,1,400.90000000037253,2,1,0,18969,WMM1,1187344,false,false,1504,image-keyboard-response,29
true,13,2,1,2,true,d,false,true,0.0-2.0-0.51-0.459-3.459,0,0,0,68,false,stim,false,0,360.5,2,1,2,18969,WMM1,1189224,false,false,1507,image-keyboard-response,30
true,13,0,1,0,true,q,false,true,0.0-2.0-0.51-0.460-3.460,0,0,0,81,false,stim,false,1,370.79999999981374,2,1,0,18969,WMM1,1191103,false,false,1510,image-keyboard-response,31
true,13,2,1,2,true,d,false,true,0.0-2.0-0.51-0.461-3.461,0,0,0,68,false,stim,false,0,391.0,2,1,2,18969,WMM1,1193014,false,false,1513,image-keyboard-response,32
true,13,0,1,0,true,q,false,true,0.0-2.0-0.51-0.462-3.462,0,0,0,81,false,stim,false,1,370.70000000018626,2,1,0,18969,WMM1,1194904,false,false,1516,image-keyboard-response,33
true,14,2,0,0,false,q,true,false,0.0-2.0-0.51-0.463-3.463,1,1,1,68,true,stim,false,0,1776.7999999998137,2,1,0,18969,WMM1,1319423,false,false,1639,image-keyboard-response,1
true,14,1,0,2,false,d,true,false,0.0-2.0-0.51-0.464-3.464,1,1,1,90,false,stim,false,2,807.3000000007451,2,1,1,18969,WMM1,1321762,false,false,1642,image-keyboard-response,2
true,14,0,0,2,false,d,true,false,0.0-2.0-0.51-0.465-3.465,1,1,1,81,false,stim,false,2,522.2999999998137,2,1,1,18969,WMM1,1323802,false,false,1645,image-keyboard-response,3
true,14,1,0,2,false,d,true,false,0.0-2.0-0.51-0.466-3.466,1,1,1,90,false,stim,false,2,506.59999999962747,2,1,2,18969,WMM1,1325822,false,false,1648,image-keyboard-response,4
true,14,2,0,2,true,d,false,true,0.0-2.0-0.51-0.467-3.467,1,1,1,68,false,stim,false,2,540.7999999998137,2,1,1,18969,WMM1,1327882,false,false,1651,image-keyboard-response,5
true,14,0,0,2,false,d,true,false,0.0-2.0-0.52-0.468-3.468,1,1,1,81,false,stim,false,2,713.3999999994412,2,1,2,18969,WMM1,1330121,false,false,1654,image-keyboard-response,6
true,14,1,0,0,false,q,true,true,0.0-2.0-0.52-0.469-3.469,1,1,1,90,false,stim,false,0,483.59999999962747,2,1,0,18969,WMM1,1332122,false,true,1657,image-keyboard-response,7
true,14,1,0,0,false,q,true,false,0.0-2.0-0.52-0.470-3.470,1,1,1,90,false,stim,false,0,622.7999999998137,2,1,0,18969,WMM1,1334273,false,false,1660,image-keyboard-response,8
true,14,2,0,2,true,d,false,true,0.0-2.0-0.52-0.471-3.471,1,1,1,68,false,stim,false,2,691.7000000001863,2,1,1,18969,WMM1,1336493,false,false,1663,image-keyboard-response,9
true,14,1,0,2,false,d,true,false,0.0-2.0-0.52-0.472-3.472,1,1,1,90,false,stim,false,2,788.4000000003725,2,1,1,18969,WMM1,1338802,false,false,1666,image-keyboard-response,10
true,14,2,0,2,true,d,false,true,0.0-2.0-0.52-0.473-3.473,1,1,1,68,false,stim,false,2,504.30000000074506,2,1,1,18969,WMM1,1340822,false,false,1669,image-keyboard-response,11
true,14,2,0,0,false,q,true,true,0.0-2.0-0.52-0.474-3.474,1,1,1,68,false,stim,false,0,919.1999999992549,2,1,0,18969,WMM1,1343253,false,true,1672,image-keyboard-response,12
true,14,1,0,2,false,d,true,false,0.0-2.0-0.52-0.475-3.475,1,1,1,90,false,stim,false,2,1184.7000000001863,2,1,2,18969,WMM1,1345962,false,false,1675,image-keyboard-response,13
true,14,0,0,2,false,d,true,false,0.0-2.0-0.52-0.476-3.476,1,1,1,81,false,stim,false,2,690.5999999996275,2,1,2,18969,WMM1,1348173,false,false,1678,image-keyboard-response,14
true,14,1,0,2,false,d,true,false,0.0-2.0-0.53-0.477-3.477,1,1,1,90,false,stim,false,2,557.5,2,1,2,18969,WMM1,1350253,false,false,1681,image-keyboard-response,15
true,14,2,0,2,true,d,false,true,0.0-2.0-0.53-0.478-3.478,1,1,1,68,false,stim,false,2,498.3999999994412,2,1,1,18969,WMM1,1352282,false,false,1684,image-keyboard-response,16
true,14,2,0,2,true,d,false,true,0.0-2.0-0.53-0.479-3.479,1,1,1,68,false,stim,false,2,528.2000000001863,2,1,1,18969,WMM1,1354333,false,false,1687,image-keyboard-response,17
true,14,2,0,2,true,d,false,true,0.0-2.0-0.53-0.480-3.480,1,1,1,68,false,stim,false,2,586.7999999998137,2,1,1,18969,WMM1,1356444,false,false,1690,image-keyboard-response,18
true,14,2,0,0,false,q,true,false,0.0-2.0-0.53-0.481-3.481,1,1,1,68,false,stim,false,0,506.70000000018626,2,1,0,18969,WMM1,1358473,false,false,1693,image-keyboard-response,19
true,14,2,0,2,true,d,false,true,0.0-2.0-0.53-0.482-3.482,1,1,1,68,false,stim,false,2,640.5999999996275,2,1,2,18969,WMM1,1360633,false,false,1696,image-keyboard-response,20
true,14,2,0,2,true,d,false,true,0.0-2.0-0.53-0.483-3.483,1,1,1,68,false,stim,false,2,693.4000000003725,2,1,2,18969,WMM1,1362863,false,false,1699,image-keyboard-response,21
true,14,1,0,0,false,q,true,true,0.0-2.0-0.53-0.484-3.484,1,1,1,90,false,stim,false,0,462.09999999962747,2,1,0,18969,WMM1,1364842,false,true,1702,image-keyboard-response,22
true,14,1,0,0,false,q,true,false,0.0-2.0-0.53-0.485-3.485,1,1,1,90,false,stim,false,0,595.3999999994412,2,1,0,18969,WMM1,1366953,false,false,1705,image-keyboard-response,23
true,14,2,0,2,true,d,false,true,0.0-2.0-0.54-0.486-3.486,1,1,1,68,false,stim,false,2,507.09999999962747,2,1,1,18969,WMM1,1368973,false,false,1708,image-keyboard-response,24
true,14,1,0,0,false,q,true,false,0.0-2.0-0.54-0.487-3.487,1,1,1,90,false,stim,false,0,606.6000000005588,2,1,0,18969,WMM1,1371102,false,false,1711,image-keyboard-response,25
true,14,2,0,2,true,d,false,false,0.0-2.0-0.54-0.488-3.488,1,1,1,68,false,stim,false,2,509.0,2,1,2,18969,WMM1,1373134,false,true,1714,image-keyboard-response,26
true,14,2,0,2,true,d,false,true,0.0-2.0-0.54-0.489-3.489,1,1,1,68,false,stim,false,2,875.1999999992549,2,1,2,18969,WMM1,1375542,false,false,1717,image-keyboard-response,27
true,14,0,0,0,true,q,false,true,0.0-2.0-0.54-0.490-3.490,1,1,1,81,false,stim,false,0,493.5,2,1,0,18969,WMM1,1377563,false,false,1720,image-keyboard-response,28
true,14,2,0,2,true,d,false,true,0.0-2.0-0.54-0.491-3.491,1,1,1,68,false,stim,false,2,647.5,2,1,2,18969,WMM1,1379743,false,false,1723,image-keyboard-response,29
true,14,1,0,2,false,d,true,false,0.0-2.0-0.54-0.492-3.492,1,1,1,90,false,stim,false,2,714.2999999998137,2,1,1,18969,WMM1,1381983,false,false,1726,image-keyboard-response,30
true,14,2,0,2,true,d,false,true,0.0-2.0-0.54-0.493-3.493,1,1,1,68,false,stim,false,2,1095.2999999998137,2,1,1,18969,WMM1,1384604,false,false,1729,image-keyboard-response,31
true,14,0,0,0,true,q,false,true,0.0-2.0-0.54-0.494-3.494,1,1,1,81,false,stim,false,0,1024.9000000003725,2,1,0,18969,WMM1,1387163,false,false,1732,image-keyboard-response,32
true,14,0,0,0,true,q,false,true,0.0-2.0-0.55-0.495-3.495,1,1,1,81,false,stim,false,0,647.5999999996275,2,1,0,18969,WMM1,1389332,false,false,1735,image-keyboard-response,33
true,14,2,0,2,true,d,false,true,0.0-2.0-0.55-0.496-3.496,1,1,1,68,false,stim,false,2,615.0999999996275,2,1,2,18969,WMM1,1391473,false,false,1738,image-keyboard-response,34
true,14,2,0,2,true,d,false,true,0.0-2.0-0.55-0.497-3.497,1,1,1,68,false,stim,false,2,587.0999999996275,2,1,1,18969,WMM1,1393583,false,false,1741,image-keyboard-response,35
true,14,0,0,0,true,q,false,true,0.0-2.0-0.55-0.498-3.498,1,1,1,81,false,stim,false,0,658.7000000001863,2,0,0,18969,WMM1,1395763,false,false,1744,image-keyboard-response,36
true,14,2,0,2,true,d,false,true,0.0-2.0-0.55-0.499-3.499,1,1,1,68,false,stim,false,2,445.90000000037253,2,1,2,18969,WMM1,1397734,false,false,1747,image-keyboard-response,37
true,14,2,0,2,true,d,false,true,0.0-2.0-0.55-0.500-3.500,1,1,1,68,false,stim,false,2,498.59999999962747,2,0,1,18969,WMM1,1399763,false,false,1750,image-keyboard-response,38
true,14,0,0,0,true,q,false,true,0.0-2.0-0.55-0.501-3.501,1,1,1,81,false,stim,false,0,511.40000000037253,2,0,0,18969,WMM1,1401803,false,false,1753,image-keyboard-response,39
true,14,2,0,2,true,d,false,true,0.0-2.0-0.55-0.502-3.502,1,1,1,68,false,stim,false,2,501.20000000018626,2,1,2,18969,WMM1,1403834,false,false,1756,image-keyboard-response,40
true,14,2,0,2,true,d,false,true,0.0-2.0-0.55-0.503-3.503,1,1,1,68,false,stim,false,2,476.79999999981374,2,0,1,18969,WMM1,1405823,false,false,1759,image-keyboard-response,41
true,14,2,0,2,true,d,false,true,0.0-2.0-0.56-0.504-3.504,1,1,1,68,false,stim,false,2,495.29999999981374,2,1,2,18969,WMM1,1407843,false,false,1762,image-keyboard-response,42
true,14,2,0,2,true,d,false,true,0.0-2.0-0.56-0.505-3.505,1,1,1,68,false,stim,false,2,532.0,2,0,1,18969,WMM1,1409894,false,false,1765,image-keyboard-response,43
true,14,0,0,0,true,q,false,true,0.0-2.0-0.56-0.506-3.506,1,1,1,81,false,stim,false,0,419.09999999962747,2,0,0,18969,WMM1,1411834,false,false,1768,image-keyboard-response,44
true,14,0,0,0,true,q,false,true,0.0-2.0-0.56-0.507-3.507,1,1,1,81,false,stim,false,0,539.7000000001863,2,0,0,18969,WMM1,1413903,false,false,1771,image-keyboard-response,45
true,15,2,3,2,true,d,false,true,0.0-2.0-0.56-0.508-3.508,0,0,1,68,true,stim,false,2,523.2000000001863,2,1,2,18969,WMM1,1415955,false,false,1774,image-keyboard-response,1
true,15,2,3,0,false,q,false,false,0.0-2.0-0.56-0.509-3.509,0,0,1,68,false,stim,true,2,711.6000000005588,2,0,1,18969,WMM1,1418194,false,false,1777,image-keyboard-response,2
true,15,2,3,2,true,d,false,true,0.0-2.0-0.56-0.510-3.510,0,0,1,68,false,stim,false,2,587.7999999998137,2,1,2,18969,WMM1,1420301,false,false,1780,image-keyboard-response,3
true,15,2,3,0,false,q,false,false,0.0-2.0-0.56-0.511-3.511,0,0,1,68,false,stim,true,2,463.20000000018626,2,0,1,18969,WMM1,1422283,false,false,1783,image-keyboard-response,4
true,15,0,3,1,false,z,false,false,0.0-2.0-0.56-0.512-3.512,0,0,1,81,false,stim,true,0,718.9000000003725,2,0,0,18969,WMM1,1424523,false,false,1786,image-keyboard-response,5
true,15,0,3,1,false,z,false,false,0.0-2.0-0.57-0.513-3.513,0,0,1,81,false,stim,true,0,786.2999999998137,2,0,0,18969,WMM1,1426835,false,false,1789,image-keyboard-response,6
true,15,2,3,2,true,d,false,true,0.0-2.0-0.57-0.514-3.514,0,0,1,68,false,stim,false,2,830.6999999992549,2,1,2,18969,WMM1,1429187,false,false,1792,image-keyboard-response,7
true,15,1,3,0,false,q,true,false,0.0-2.0-0.57-0.515-3.515,0,0,1,90,false,stim,false,2,620.3999999994412,2,0,1,18969,WMM1,1431334,false,false,1795,image-keyboard-response,8
true,15,0,3,1,false,z,false,false,0.0-2.0-0.57-0.516-3.516,0,0,1,81,false,stim,true,0,1130.1000000005588,2,0,0,18969,WMM1,1433994,false,false,1798,image-keyboard-response,9
true,15,2,3,2,true,d,false,true,0.0-2.0-0.57-0.517-3.517,0,0,1,68,false,stim,false,2,700.3999999994412,2,1,2,18969,WMM1,1436226,false,false,1801,image-keyboard-response,10
true,15,1,3,2,false,d,true,true,0.0-2.0-0.57-0.518-3.518,0,0,1,90,false,stim,false,2,746.2999999998137,2,1,2,18969,WMM1,1438504,false,true,1804,image-keyboard-response,11
true,15,2,3,1,false,z,true,false,0.0-2.0-0.57-0.519-3.519,0,0,1,68,false,stim,false,0,616.3999999994412,2,0,0,18969,WMM1,1440643,false,false,1807,image-keyboard-response,12
true,15,2,3,0,false,q,false,false,0.0-2.0-0.57-0.520-3.520,0,0,1,68,false,stim,true,2,585.1000000005588,2,0,1,18969,WMM1,1442759,false,false,1810,image-keyboard-response,13
true,15,1,3,0,false,q,true,false,0.0-2.0-0.57-0.521-3.521,0,0,1,90,false,stim,false,2,522.7000000001863,2,0,1,18969,WMM1,1444803,false,false,1813,image-keyboard-response,14
true,15,0,3,2,false,d,true,false,0.0-2.0-0.58-0.522-3.522,0,0,1,81,false,stim,false,2,512.5,2,1,2,18969,WMM1,1446843,false,false,1816,image-keyboard-response,15
true,15,1,3,0,false,q,true,false,0.0-2.0-0.58-0.523-3.523,0,0,1,90,false,stim,false,2,561.1000000005588,2,0,1,18969,WMM1,1448924,false,false,1819,image-keyboard-response,16
true,15,2,3,0,false,q,false,false,0.0-2.0-0.58-0.524-3.524,0,0,1,68,false,stim,true,2,499.09999999962747,2,0,1,18969,WMM1,1450943,false,false,1822,image-keyboard-response,17
true,15,1,3,1,true,z,false,true,0.0-2.0-0.58-0.525-3.525,0,0,1,90,false,stim,false,0,690.7000000001863,2,0,0,18969,WMM1,1453163,false,false,1825,image-keyboard-response,18
true,15,0,3,2,false,d,true,false,0.0-2.0-0.58-0.526-3.526,0,0,1,81,false,stim,false,2,844.6999999992549,2,1,2,18969,WMM1,1455544,false,false,1828,image-keyboard-response,19
true,15,2,3,2,true,d,false,true,0.0-2.0-0.58-0.527-3.527,0,0,1,68,false,stim,false,2,513.7000000001863,2,1,2,18969,WMM1,1457574,false,false,1831,image-keyboard-response,20
true,15,1,3,1,true,z,false,true,0.0-2.0-0.58-0.528-3.528,0,0,1,90,false,stim,false,0,384.5,2,0,0,18969,WMM1,1459484,false,false,1834,image-keyboard-response,21
true,15,2,3,1,false,z,true,false,0.0-2.0-0.58-0.529-3.529,0,0,1,68,false,stim,false,0,384.20000000018626,2,0,0,18969,WMM1,1461402,false,false,1837,image-keyboard-response,22
true,15,2,3,0,false,q,false,false,0.0-2.0-0.58-0.530-3.530,0,0,1,68,false,stim,true,2,605.8999999994412,2,0,1,18969,WMM1,1463523,false,false,1840,image-keyboard-response,23
true,15,1,3,1,true,z,false,true,0.0-2.0-0.59-0.531-3.531,0,0,1,90,false,stim,false,0,416.70000000018626,2,0,0,18969,WMM1,1465462,false,false,1843,image-keyboard-response,24
true,15,0,3,2,false,d,true,false,0.0-2.0-0.59-0.532-3.532,0,0,1,81,false,stim,false,2,1009.2000000001863,2,1,2,18969,WMM1,1468002,false,false,1846,image-keyboard-response,25
true,15,2,3,2,true,d,false,true,0.0-2.0-0.59-0.533-3.533,0,0,1,68,false,stim,false,2,584.1000000005588,2,1,2,18969,WMM1,1470114,false,false,1849,image-keyboard-response,26
true,15,2,3,2,true,d,false,true,0.0-2.0-0.59-0.534-3.534,0,0,1,68,false,stim,false,2,1012.0,2,1,2,18969,WMM1,1472652,false,false,1852,image-keyboard-response,27
true,15,1,3,0,false,q,true,false,0.0-2.0-0.59-0.535-3.535,0,0,1,90,false,stim,false,2,782.4000000003725,2,0,1,18969,WMM1,1474953,false,false,1855,image-keyboard-response,28
true,15,2,3,0,false,q,false,false,0.0-2.0-0.59-0.536-3.536,0,0,1,68,false,stim,true,2,455.0,2,0,1,18969,WMM1,1476933,false,false,1858,image-keyboard-response,29
true,15,1,3,0,false,q,true,false,0.0-2.0-0.59-0.537-3.537,0,0,1,90,false,stim,false,2,452.29999999981374,2,0,1,18969,WMM1,1478903,false,false,1861,image-keyboard-response,30
true,15,2,3,1,false,z,true,false,0.0-2.0-0.59-0.538-3.538,0,0,1,68,false,stim,false,0,837.0,2,0,0,18969,WMM1,1481263,false,false,1864,image-keyboard-response,31
true,15,1,3,1,true,z,false,false,0.0-2.0-0.59-0.539-3.539,0,0,1,90,false,stim,false,0,385.8999999994412,2,0,0,18969,WMM1,1483173,false,true,1867,image-keyboard-response,32
true,15,0,3,1,false,z,false,false,0.0-2.0-0.60-0.540-3.540,0,0,1,81,false,stim,true,0,446.09999999962747,2,0,0,18969,WMM1,1485142,false,false,1870,image-keyboard-response,33
true,15,2,3,0,false,q,false,false,0.0-2.0-0.60-0.541-3.541,0,0,1,68,false,stim,true,2,895.9000000003725,2,0,1,18969,WMM1,1487563,false,false,1873,image-keyboard-response,34
true,15,1,3,2,false,d,true,false,0.0-2.0-0.60-0.542-3.542,0,0,1,90,false,stim,false,2,409.79999999981374,2,1,2,18969,WMM1,1489494,false,false,1876,image-keyboard-response,35
true,15,2,3,0,false,q,false,true,0.0-2.0-0.60-0.543-3.543,0,0,1,68,false,stim,true,2,655.2000000001863,2,0,1,18969,WMM1,1491673,false,true,1879,image-keyboard-response,36
true,15,1,3,1,true,z,false,true,0.0-2.0-0.60-0.544-3.544,0,0,1,90,false,stim,false,0,1450.2000000001863,2,0,0,18969,WMM1,1494653,false,false,1882,image-keyboard-response,37
true,15,1,3,1,true,z,false,true,0.0-2.0-0.60-0.545-3.545,0,0,1,90,false,stim,false,0,562.7000000001863,2,0,0,18969,WMM1,1496743,false,false,1885,image-keyboard-response,38
true,15,0,3,2,false,d,true,false,0.0-2.0-0.60-0.546-3.546,0,0,1,81,false,stim,false,2,799.8000000007451,2,1,2,18969,WMM1,1499072,false,false,1888,image-keyboard-response,39
true,15,2,3,2,true,d,false,true,0.0-2.0-0.60-0.547-3.547,0,0,1,68,false,stim,false,2,518.5999999996275,2,1,2,18969,WMM1,1501114,false,false,1891,image-keyboard-response,40
true,15,2,3,0,false,q,false,false,0.0-2.0-0.60-0.548-3.548,0,0,1,68,false,stim,true,2,381.29999999981374,2,0,1,18969,WMM1,1503023,false,false,1894,image-keyboard-response,41
true,15,2,3,0,false,q,false,false,0.0-2.0-0.61-0.549-3.549,0,0,1,68,false,stim,true,2,436.29999999981374,2,0,1,18969,WMM1,1504993,false,false,1897,image-keyboard-response,42
true,15,1,3,1,true,z,false,true,0.0-2.0-0.61-0.550-3.550,0,0,1,90,false,stim,false,0,338.29999999981374,2,0,0,18969,WMM1,1506853,false,false,1900,image-keyboard-response,43
true,15,2,3,2,true,d,false,true,0.0-2.0-0.61-0.551-3.551,0,0,1,68,false,stim,false,2,411.30000000074506,2,1,2,18969,WMM1,1508803,false,false,1903,image-keyboard-response,44
true,15,1,3,0,false,q,true,false,0.0-2.0-0.61-0.552-3.552,0,0,1,90,false,stim,false,2,303.8999999994412,2,0,1,18969,WMM1,1510632,false,false,1906,image-keyboard-response,45
true,15,2,3,2,true,d,false,false,0.0-2.0-0.61-0.553-3.553,0,0,1,68,false,stim,false,2,514.0,2,1,2,18969,WMM1,1512673,false,true,1909,image-keyboard-response,46
true,15,0,3,0,true,q,false,true,0.0-2.0-0.61-0.554-3.554,0,0,1,81,false,stim,false,2,291.8999999994412,2,0,1,18969,WMM1,1514484,false,false,1912,image-keyboard-response,47
true,15,1,3,1,true,z,false,false,0.0-2.0-0.61-0.555-3.555,0,0,1,90,false,stim,false,0,341.70000000018626,2,0,0,18969,WMM1,1516353,false,true,1915,image-keyboard-response,48
true,15,1,3,1,true,z,false,true,0.0-2.0-0.61-0.556-3.556,0,0,1,90,false,stim,false,0,365.6000000005588,2,0,0,18969,WMM1,1518243,false,false,1918,image-keyboard-response,49
true,15,0,3,2,false,d,true,false,0.0-2.0-0.61-0.557-3.557,0,0,1,81,false,stim,false,2,559.5999999996275,2,1,2,18969,WMM1,1520333,false,false,1921,image-keyboard-response,50
true,15,1,3,1,true,z,false,true,0.0-2.0-0.62-0.558-3.558,0,0,1,90,false,stim,false,0,646.2000000001863,2,0,0,18969,WMM1,1522504,false,false,1924,image-keyboard-response,51
true,15,1,3,1,true,z,false,true,0.0-2.0-0.62-0.559-3.559,0,0,1,90,false,stim,false,0,391.30000000074506,2,0,0,18969,WMM1,1524424,false,false,1927,image-keyboard-response,52
true,15,2,3,2,true,d,false,true,0.0-2.0-0.62-0.560-3.560,0,0,1,68,false,stim,false,2,584.0999999996275,2,0,2,18969,WMM1,1526534,false,false,1930,image-keyboard-response,53
true,15,0,3,0,true,q,false,true,0.0-2.0-0.62-0.561-3.561,0,0,1,81,false,stim,false,2,768.2000000001863,2,0,1,18969,WMM1,1528824,false,false,1933,image-keyboard-response,54
true,15,0,3,0,true,q,false,true,0.0-2.0-0.62-0.562-3.562,0,0,1,81,false,stim,false,2,653.5,2,0,1,18969,WMM1,1530994,false,false,1936,image-keyboard-response,55
true,15,1,3,1,true,z,false,true,0.0-2.0-0.62-0.563-3.563,0,0,1,90,false,stim,false,0,420.69999999925494,2,0,0,18969,WMM1,1532934,false,false,1939,image-keyboard-response,56
true,15,2,3,2,true,d,false,true,0.0-2.0-0.62-0.564-3.564,0,0,1,68,false,stim,false,2,406.79999999981374,2,0,2,18969,WMM1,1534874,false,false,1942,image-keyboard-response,57
true,15,2,3,2,true,d,false,true,0.0-2.0-0.62-0.565-3.565,0,0,1,68,false,stim,false,2,449.1000000005588,2,0,2,18969,WMM1,1536835,false,false,1945,image-keyboard-response,58
true,15,1,3,0,false,q,true,false,0.0-2.0-0.62-0.566-3.566,0,0,1,90,false,stim,false,2,1979.7000000001863,2,0,1,18969,WMM1,1540333,false,false,1948,image-keyboard-response,59
true,15,0,3,0,true,q,false,true,0.0-2.0-0.63-0.567-3.567,0,0,1,81,false,stim,false,2,483.8999999994412,2,0,1,18969,WMM1,1542334,false,false,1951,image-keyboard-response,60
true,16,2,2,1,false,z,false,false,0.0-2.0-0.63-0.568-3.568,0,0,0,68,true,stim,true,2,586.7999999998137,2,0,2,18969,WMM1,1544454,false,false,1954,image-keyboard-response,1
true,16,1,2,2,false,d,true,false,0.0-2.0-0.63-0.569-3.569,0,0,0,90,false,stim,false,0,751.3999999994412,2,0,1,18969,WMM1,1546724,false,false,1957,image-keyboard-response,2
true,16,2,2,1,false,z,false,true,0.0-2.0-0.63-0.570-3.570,0,0,0,68,false,stim,true,2,604.9000000003725,2,0,2,18969,WMM1,1548845,false,true,1960,image-keyboard-response,3
true,16,1,2,0,false,q,false,false,0.0-2.0-0.63-0.571-3.571,0,0,0,90,false,stim,true,1,561.4000000003725,2,0,0,18969,WMM1,1550924,false,false,1963,image-keyboard-response,4
true,16,0,2,0,true,q,false,true,0.0-2.0-0.63-0.572-3.572,0,0,0,81,false,stim,false,1,793.5999999996275,2,0,0,18969,WMM1,1553245,false,false,1966,image-keyboard-response,5
true,16,2,2,1,false,z,false,false,0.0-2.0-0.63-0.573-3.573,0,0,0,68,false,stim,true,2,580.7000000001863,2,0,2,18969,WMM1,1555345,false,false,1969,image-keyboard-response,6
true,16,1,2,0,false,q,false,false,0.0-2.0-0.63-0.574-3.574,0,0,0,90,false,stim,true,1,2223.5,2,0,0,18969,WMM1,1559095,false,false,1972,image-keyboard-response,7
true,16,0,2,2,false,d,false,false,0.0-2.0-0.63-0.575-3.575,0,0,0,81,false,stim,true,0,577.7000000001863,2,0,1,18969,WMM1,1561204,false,false,1975,image-keyboard-response,8
true,16,2,2,1,false,z,false,false,0.0-2.0-0.64-0.576-3.576,0,0,0,68,false,stim,true,2,1010.2999999998137,2,0,2,18969,WMM1,1563735,false,false,1978,image-keyboard-response,9
true,16,1,2,0,false,q,false,false,0.0-2.0-0.64-0.577-3.577,0,0,0,90,false,stim,true,1,416.09999999962747,2,0,0,18969,WMM1,1565674,false,false,1981,image-keyboard-response,10
true,16,0,2,2,false,d,false,false,0.0-2.0-0.64-0.578-3.578,0,0,0,81,false,stim,true,0,619.1000000005588,2,0,1,18969,WMM1,1567814,false,false,1984,image-keyboard-response,11
true,16,2,2,1,false,z,false,true,0.0-2.0-0.64-0.579-3.579,0,0,0,68,false,stim,true,2,505.3999999994412,2,0,2,18969,WMM1,1569834,false,true,1987,image-keyboard-response,12
true,16,1,2,0,false,q,false,false,0.0-2.0-0.64-0.580-3.580,0,0,0,90,false,stim,true,1,1029.4000000003725,2,0,0,18969,WMM1,1572385,false,false,1990,image-keyboard-response,13
true,16,0,2,2,false,d,false,false,0.0-2.0-0.64-0.581-3.581,0,0,0,81,false,stim,true,0,600.4000000003725,2,0,1,18969,WMM1,1574515,false,false,1993,image-keyboard-response,14
true,16,2,2,0,false,q,true,false,0.0-2.0-0.64-0.582-3.582,0,0,0,68,false,stim,false,1,339.79999999981374,2,0,0,18969,WMM1,1576365,false,false,1996,image-keyboard-response,15
true,16,1,2,1,true,z,false,true,0.0-2.0-0.64-0.583-3.583,0,0,0,90,false,stim,false,2,692.5,2,0,2,18969,WMM1,1578585,false,false,1999,image-keyboard-response,16
true,16,0,2,2,false,d,false,false,0.0-2.0-0.64-0.584-3.584,0,0,0,81,false,stim,true,0,565.7999999998137,2,0,1,18969,WMM1,1580685,false,false,2002,image-keyboard-response,17
true,16,1,2,0,false,q,false,false,0.0-2.0-0.65-0.585-3.585,0,0,0,90,false,stim,true,1,505.59999999962747,2,0,0,18969,WMM1,1582715,false,false,2005,image-keyboard-response,18
true,16,1,2,1,true,z,false,true,0.0-2.0-0.65-0.586-3.586,0,0,0,90,false,stim,false,2,473.19999999925494,2,0,2,18969,WMM1,1584705,false,false,2008,image-keyboard-response,19
true,16,2,2,2,true,d,false,true,0.0-2.0-0.65-0.587-3.587,0,0,0,68,false,stim,false,0,406.5,2,0,1,18969,WMM1,1586635,false,false,2011,image-keyboard-response,20
true,16,2,2,0,false,q,true,false,0.0-2.0-0.65-0.588-3.588,0,0,0,68,false,stim,false,1,352.1000000005588,2,0,0,18969,WMM1,1588505,false,false,2014,image-keyboard-response,21
true,16,1,2,0,false,q,false,false,0.0-2.0-0.65-0.589-3.589,0,0,0,90,false,stim,true,1,476.70000000018626,2,0,0,18969,WMM1,1590505,false,false,2017,image-keyboard-response,22
true,16,1,2,1,true,z,false,true,0.0-2.0-0.65-0.590-3.590,0,0,0,90,false,stim,false,2,836.2999999998137,2,0,2,18969,WMM1,1592865,false,false,2020,image-keyboard-response,23
true,16,2,2,2,true,d,false,false,0.0-2.0-0.65-0.591-3.591,0,0,0,68,false,stim,false,0,432.0,2,0,1,18969,WMM1,1594815,false,true,2023,image-keyboard-response,24
true,16,2,2,2,true,d,false,false,0.0-2.0-0.65-0.592-3.592,0,0,0,68,false,stim,false,0,545.9000000003725,2,0,1,18969,WMM1,1596875,false,true,2026,image-keyboard-response,25
