answered,blockNum,choice,condition,corResp,correct,correct_response,explo,fb,internal_node_id,isStable_1,isStable_2,isStable_3,key_press,newBlock,part,persev,persevResp,rt,sessNum,stableAS,stimulus,subject,task,time_elapsed,training,trap,trial_index,trial_type,trialsInBlock
true,1,1,0,0,false,q,true,false,0.0-2.0-0.0-0.0-3.0,0,0,0,90,true,stim,false,-1,808.0,2,0,0,19775,WMM1,77673,false,false,79,image-keyboard-response,1
true,1,2,0,0,false,q,true,false,0.0-2.0-0.0-0.1-3.1,0,0,0,68,false,stim,false,-1,710.0,2,0,0,19775,WMM1,79896,false,false,82,image-keyboard-response,2
true,1,1,0,1,true,z,false,true,0.0-2.0-0.0-0.2-3.2,0,0,0,90,false,stim,false,-1,898.0,2,0,2,19775,WMM1,82303,false,false,85,image-keyboard-response,3
true,1,0,0,0,true,q,false,true,0.0-2.0-0.0-0.3-3.3,0,0,0,81,false,stim,false,-1,690.0,2,0,1,19775,WMM1,84503,false,false,88,image-keyboard-response,4
true,1,1,0,1,true,z,false,true,0.0-2.0-0.0-0.4-3.4,0,0,0,90,false,stim,false,-1,711.0,2,0,2,19775,WMM1,86728,false,false,91,image-keyboard-response,5
true,1,0,0,0,true,q,false,true,0.0-2.0-0.0-0.5-3.5,0,0,0,81,false,stim,false,-1,610.0,2,0,1,19775,WMM1,88848,false,false,94,image-keyboard-response,6
true,1,0,0,0,true,q,false,true,0.0-2.0-0.0-0.6-3.6,0,0,0,81,false,stim,false,-1,628.0,2,0,1,19775,WMM1,90986,false,false,97,image-keyboard-response,7
true,1,0,0,0,true,q,false,true,0.0-2.0-0.0-0.7-3.7,0,0,0,81,false,stim,false,-1,762.0,2,0,0,19775,WMM1,93262,false,false,100,image-keyboard-response,8
true,1,1,0,1,true,z,false,true,0.0-2.0-0.0-0.8-3.8,0,0,0,90,false,stim,false,-1,640.9999999999854,2,0,2,19775,WMM1,95417,false,false,103,image-keyboard-response,9
true,1,0,0,0,true,q,false,true,0.0-2.0-0.1-0.9-3.9,0,0,0,81,false,stim,false,-1,707.0,2,0,0,19775,WMM1,97639,false,false,106,image-keyboard-response,10
true,1,1,0,1,true,z,false,true,0.0-2.0-0.1-0.10-3.10,0,0,0,90,false,stim,false,-1,697.0,2,0,2,19775,WMM1,99849,false,false,109,image-keyboard-response,11
true,1,1,0,1,true,z,false,true,0.0-2.0-0.1-0.11-3.11,0,0,0,90,false,stim,false,-1,526.0,2,0,2,19775,WMM1,101887,false,false,112,image-keyboard-response,12
true,1,0,0,0,true,q,false,true,0.0-2.0-0.1-0.12-3.12,0,0,0,81,false,stim,false,-1,581.0,2,0,1,19775,WMM1,103980,false,false,115,image-keyboard-response,13
true,1,0,0,0,true,q,false,true,0.0-2.0-0.1-0.13-3.13,0,0,0,81,false,stim,false,-1,563.9999999999854,2,0,1,19775,WMM1,106054,false,false,118,image-keyboard-response,14
true,1,1,0,1,true,z,false,true,0.0-2.0-0.1-0.14-3.14,0,0,0,90,false,stim,false,-1,557.0000000000146,2,0,2,19775,WMM1,108124,false,false,121,image-keyboard-response,15
true,1,0,0,0,true,q,false,true,0.0-2.0-0.1-0.15-3.15,0,0,0,81,false,stim,false,-1,956.0,2,0,0,19775,WMM1,110590,false,false,124,image-keyboard-response,16
true,1,0,0,0,true,q,false,true,0.0-2.0-0.1-0.16-3.16,0,0,0,81,false,stim,false,-1,690.0,2,0,1,19775,WMM1,112789,false,false,127,image-keyboard-response,17
true,1,0,0,0,true,q,false,true,0.0-2.0-0.1-0.17-3.17,0,0,0,81,false,stim,false,-1,663.0,2,0,0,19775,WMM1,114963,false,false,130,image-keyboard-response,18
true,1,1,0,1,true,z,false,true,0.0-2.0-0.2-0.18-3.18,0,0,0,90,false,stim,false,-1,613.0,2,0,2,19775,WMM1,117086,false,false,133,image-keyboard-response,19
true,1,1,0,1,true,z,false,true,0.0-2.0-0.2-0.19-3.19,0,0,0,90,false,stim,false,-1,569.0,2,0,2,19775,WMM1,119167,false,false,136,image-keyboard-response,20
true,1,0,0,0,true,q,false,true,0.0-2.0-0.2-0.20-3.20,0,0,0,81,false,stim,false,-1,671.0,2,0,0,19775,WMM1,121351,false,false,139,image-keyboard-response,21
true,1,0,0,0,true,q,false,true,0.0-2.0-0.2-0.21-3.21,0,0,0,81,false,stim,false,-1,542.0,2,0,0,19775,WMM1,123404,false,false,142,image-keyboard-response,22
true,1,1,0,1,true,z,false,true,0.0-2.0-0.2-0.22-3.22,0,0,0,90,false,stim,false,-1,625.0,2,1,2,19775,WMM1,125542,false,false,145,image-keyboard-response,23
true,1,0,0,0,true,q,false,true,0.0-2.0-0.2-0.23-3.23,0,0,0,81,false,stim,false,-1,575.9999999999854,2,0,0,19775,WMM1,127631,false,false,148,image-keyboard-response,24
true,1,0,0,0,true,q,false,true,0.0-2.0-0.2-0.24-3.24,0,0,0,81,false,stim,false,-1,742.0,2,0,1,19775,WMM1,129886,false,false,151,image-keyboard-response,25
true,1,0,0,0,true,q,false,true,0.0-2.0-0.2-0.25-3.25,0,0,0,81,false,stim,false,-1,708.0,2,0,1,19775,WMM1,132104,false,false,154,image-keyboard-response,26
true,1,0,0,0,true,q,false,true,0.0-2.0-0.2-0.26-3.26,0,0,0,81,false,stim,false,-1,622.0,2,0,1,19775,WMM1,134238,false,false,157,image-keyboard-response,27
true,1,0,0,0,true,q,false,true,0.0-2.0-0.3-0.27-3.27,0,0,0,81,false,stim,false,-1,573.0,2,0,1,19775,WMM1,136320,false,false,160,image-keyboard-response,28
true,1,0,0,0,true,q,false,true,0.0-2.0-0.3-0.28-3.28,0,0,0,81,false,stim,false,-1,648.0,2,0,0,19775,WMM1,138480,false,false,163,image-keyboard-response,29
true,1,0,0,0,true,q,false,true,0.0-2.0-0.3-0.29-3.29,0,0,0,81,false,stim,false,-1,668.0,2,0,0,19775,WMM1,140656,false,false,166,image-keyboard-response,30
true,2,1,3,1,true,z,false,true,0.0-2.0-0.3-0.30-3.30,0,0,1,90,true,stim,false,1,500.0,2,1,2,19775,WMM1,142671,false,false,169,image-keyboard-response,1
true,2,0,3,2,false,d,false,false,0.0-2.0-0.3-0.31-3.31,0,0,1,81,false,stim,true,0,605.9999999999709,2,0,1,19775,WMM1,144786,false,false,172,image-keyboard-response,2
true,2,0,3,1,false,z,false,false,0.0-2.0-0.3-0.32-3.32,0,0,1,81,false,stim,true,0,731.0,2,0,0,19775,WMM1,147030,false,false,175,image-keyboard-response,3
true,2,1,3,1,true,z,false,true,0.0-2.0-0.3-0.33-3.33,0,0,1,90,false,stim,false,1,749.0,2,1,2,19775,WMM1,149292,false,false,178,image-keyboard-response,4
true,2,0,3,2,false,d,false,false,0.0-2.0-0.3-0.34-3.34,0,0,1,81,false,stim,true,0,530.0,2,0,1,19775,WMM1,151334,false,false,181,image-keyboard-response,5
true,2,1,3,1,true,z,false,true,0.0-2.0-0.3-0.35-3.35,0,0,1,90,false,stim,false,1,644.0,2,1,2,19775,WMM1,153487,false,false,184,image-keyboard-response,6
true,2,0,3,1,false,z,false,true,0.0-2.0-0.4-0.36-3.36,0,0,1,81,false,stim,true,0,602.0,2,0,0,19775,WMM1,155601,false,true,187,image-keyboard-response,7
true,2,1,3,1,true,z,false,true,0.0-2.0-0.4-0.37-3.37,0,0,1,90,false,stim,false,1,628.0,2,1,2,19775,WMM1,157741,false,false,190,image-keyboard-response,8
true,2,2,3,2,true,d,false,true,0.0-2.0-0.4-0.38-3.38,0,0,1,68,false,stim,false,0,532.0,2,0,1,19775,WMM1,159786,false,false,193,image-keyboard-response,9
true,2,0,3,1,false,z,false,false,0.0-2.0-0.4-0.39-3.39,0,0,1,81,false,stim,true,0,685.0,2,0,0,19775,WMM1,161979,false,false,196,image-keyboard-response,10
true,2,0,3,1,false,z,false,false,0.0-2.0-0.4-0.40-3.40,0,0,1,81,false,stim,true,0,1033.0,2,0,0,19775,WMM1,164524,false,false,199,image-keyboard-response,11
true,2,2,3,2,true,d,false,true,0.0-2.0-0.4-0.41-3.41,0,0,1,68,false,stim,false,0,698.0,2,0,1,19775,WMM1,166782,false,false,202,image-keyboard-response,12
true,2,2,3,2,true,d,false,true,0.0-2.0-0.4-0.42-3.42,0,0,1,68,false,stim,false,0,601.0,2,0,1,19775,WMM1,168893,false,false,205,image-keyboard-response,13
true,2,1,3,1,true,z,false,true,0.0-2.0-0.4-0.43-3.43,0,0,1,90,false,stim,false,1,631.0,2,1,2,19775,WMM1,171033,false,false,208,image-keyboard-response,14
true,2,1,3,1,true,z,false,true,0.0-2.0-0.4-0.44-3.44,0,0,1,90,false,stim,false,1,788.9999999999709,2,1,2,19775,WMM1,173334,false,false,211,image-keyboard-response,15
true,2,1,3,1,true,z,false,true,0.0-2.0-0.5-0.45-3.45,0,0,1,90,false,stim,false,0,580.0,2,0,0,19775,WMM1,175424,false,false,214,image-keyboard-response,16
true,2,2,3,2,true,d,false,true,0.0-2.0-0.5-0.46-3.46,0,0,1,68,false,stim,false,0,764.0,2,0,1,19775,WMM1,177699,false,false,217,image-keyboard-response,17
true,2,1,3,1,true,z,false,true,0.0-2.0-0.5-0.47-3.47,0,0,1,90,false,stim,false,0,670.0,2,0,0,19775,WMM1,179880,false,false,220,image-keyboard-response,18
true,2,2,3,2,true,d,false,true,0.0-2.0-0.5-0.48-3.48,0,0,1,68,false,stim,false,0,664.0,2,0,1,19775,WMM1,182052,false,false,223,image-keyboard-response,19
true,2,1,3,1,true,z,false,true,0.0-2.0-0.5-0.49-3.49,0,0,1,90,false,stim,false,1,624.0,2,1,2,19775,WMM1,184190,false,false,226,image-keyboard-response,20
true,2,1,3,1,true,z,false,true,0.0-2.0-0.5-0.50-3.50,0,0,1,90,false,stim,false,1,525.0000000000291,2,0,2,19775,WMM1,186229,false,false,229,image-keyboard-response,21
true,2,1,3,1,true,z,false,true,0.0-2.0-0.5-0.51-3.51,0,0,1,90,false,stim,false,0,694.0,2,1,0,19775,WMM1,188434,false,false,232,image-keyboard-response,22
true,2,1,3,1,true,z,false,true,0.0-2.0-0.5-0.52-3.52,0,0,1,90,false,stim,false,1,646.0,2,0,2,19775,WMM1,190593,false,false,235,image-keyboard-response,23
true,2,2,3,2,true,d,false,true,0.0-2.0-0.5-0.53-3.53,0,0,1,68,false,stim,false,0,601.0,2,0,1,19775,WMM1,192708,false,false,238,image-keyboard-response,24
true,2,1,3,1,true,z,false,true,0.0-2.0-0.6-0.54-3.54,0,0,1,90,false,stim,false,1,562.0,2,0,2,19775,WMM1,194781,false,false,241,image-keyboard-response,25
true,2,1,3,1,true,z,false,true,0.0-2.0-0.6-0.55-3.55,0,0,1,90,false,stim,false,1,516.9999999999709,2,0,2,19775,WMM1,196811,false,false,244,image-keyboard-response,26
true,2,2,3,2,true,d,false,true,0.0-2.0-0.6-0.56-3.56,0,0,1,68,false,stim,false,0,682.0,2,0,1,19775,WMM1,199005,false,false,247,image-keyboard-response,27
true,2,1,3,1,true,z,false,true,0.0-2.0-0.6-0.57-3.57,0,0,1,90,false,stim,false,0,634.0,2,1,0,19775,WMM1,201150,false,false,250,image-keyboard-response,28
true,2,2,3,2,true,d,false,true,0.0-2.0-0.6-0.58-3.58,0,0,1,68,false,stim,false,0,659.0,2,0,1,19775,WMM1,203320,false,false,253,image-keyboard-response,29
true,2,2,3,2,true,d,false,true,0.0-2.0-0.6-0.59-3.59,0,0,1,68,false,stim,false,0,652.0,2,0,1,19775,WMM1,205485,false,false,256,image-keyboard-response,30
true,3,1,3,2,false,d,false,false,0.0-2.0-0.6-0.60-3.60,1,0,0,90,true,stim,true,1,607.0,2,0,2,19775,WMM1,207602,false,false,259,image-keyboard-response,1
true,3,1,3,1,true,z,false,true,0.0-2.0-0.6-0.61-3.61,1,0,0,90,false,stim,false,1,990.9999999999709,2,1,0,19775,WMM1,210099,false,false,262,image-keyboard-response,2
true,3,1,3,1,true,z,false,false,0.0-2.0-0.6-0.62-3.62,1,0,0,90,false,stim,false,1,566.0,2,1,0,19775,WMM1,212179,false,true,265,image-keyboard-response,3
true,3,2,3,1,false,z,true,false,0.0-2.0-0.7-0.63-3.63,1,0,0,68,false,stim,false,1,959.9999999999709,2,1,0,19775,WMM1,214653,false,false,268,image-keyboard-response,4
true,3,1,3,1,true,z,false,true,0.0-2.0-0.7-0.64-3.64,1,0,0,90,false,stim,false,1,514.9999999999709,2,1,0,19775,WMM1,216678,false,false,271,image-keyboard-response,5
true,3,2,3,0,false,q,false,false,0.0-2.0-0.7-0.65-3.65,1,0,0,68,false,stim,true,2,666.0,2,0,1,19775,WMM1,218854,false,false,274,image-keyboard-response,6
true,3,2,3,0,false,q,false,false,0.0-2.0-0.7-0.66-3.66,1,0,0,68,false,stim,true,2,825.0,2,0,1,19775,WMM1,221192,false,false,277,image-keyboard-response,7
true,3,1,3,1,true,z,false,true,0.0-2.0-0.7-0.67-3.67,1,0,0,90,false,stim,false,1,646.0,2,1,0,19775,WMM1,223351,false,false,280,image-keyboard-response,8
true,3,1,3,2,false,d,false,false,0.0-2.0-0.7-0.68-3.68,1,0,0,90,false,stim,true,1,603.0,2,0,2,19775,WMM1,225465,false,false,283,image-keyboard-response,9
true,3,1,3,2,false,d,false,true,0.0-2.0-0.7-0.69-3.69,1,0,0,90,false,stim,true,1,871.9999999999709,2,0,2,19775,WMM1,227849,false,true,286,image-keyboard-response,10
true,3,0,3,0,true,q,false,false,0.0-2.0-0.7-0.70-3.70,1,0,0,81,false,stim,false,2,537.0000000000291,2,0,1,19775,WMM1,229900,false,true,289,image-keyboard-response,11
true,3,1,3,2,false,d,false,false,0.0-2.0-0.7-0.71-3.71,1,0,0,90,false,stim,true,1,646.0,2,0,2,19775,WMM1,232059,false,false,292,image-keyboard-response,12
true,3,1,3,1,true,z,false,true,0.0-2.0-0.8-0.72-3.72,1,0,0,90,false,stim,false,1,584.0,2,1,0,19775,WMM1,234155,false,false,295,image-keyboard-response,13
true,3,1,3,1,true,z,false,true,0.0-2.0-0.8-0.73-3.73,1,0,0,90,false,stim,false,1,583.0,2,1,0,19775,WMM1,236251,false,false,298,image-keyboard-response,14
true,3,1,3,0,false,q,true,false,0.0-2.0-0.8-0.74-3.74,1,0,0,90,false,stim,false,2,528.0,2,0,1,19775,WMM1,238295,false,false,301,image-keyboard-response,15
true,3,1,3,1,true,z,false,true,0.0-2.0-0.8-0.75-3.75,1,0,0,90,false,stim,false,1,685.0000000000291,2,1,0,19775,WMM1,240488,false,false,304,image-keyboard-response,16
true,3,1,3,2,false,d,false,false,0.0-2.0-0.8-0.76-3.76,1,0,0,90,false,stim,true,1,569.0,2,0,2,19775,WMM1,242565,false,false,307,image-keyboard-response,17
true,3,2,3,2,true,d,false,true,0.0-2.0-0.8-0.77-3.77,1,0,0,68,false,stim,false,1,673.0,2,0,2,19775,WMM1,244746,false,false,310,image-keyboard-response,18
true,3,2,3,2,true,d,false,true,0.0-2.0-0.8-0.78-3.78,1,0,0,68,false,stim,false,1,541.0,2,0,2,19775,WMM1,246800,false,false,313,image-keyboard-response,19
true,3,2,3,0,false,q,false,false,0.0-2.0-0.8-0.79-3.79,1,0,0,68,false,stim,true,2,540.0,2,0,1,19775,WMM1,248853,false,false,316,image-keyboard-response,20
true,3,2,3,0,false,q,false,false,0.0-2.0-0.8-0.80-3.80,1,0,0,68,false,stim,true,2,719.0,2,0,1,19775,WMM1,251080,false,false,319,image-keyboard-response,21
true,3,1,3,1,true,z,false,false,0.0-2.0-0.9-0.81-3.81,1,0,0,90,false,stim,false,1,620.9999999999709,2,1,0,19775,WMM1,253211,false,true,322,image-keyboard-response,22
true,3,1,3,0,false,q,true,false,0.0-2.0-0.9-0.82-3.82,1,0,0,90,false,stim,false,2,1032.999999999971,2,0,1,19775,WMM1,255756,false,false,325,image-keyboard-response,23
true,3,2,3,2,true,d,false,true,0.0-2.0-0.9-0.83-3.83,1,0,0,68,false,stim,false,1,881.0000000000291,2,0,2,19775,WMM1,258146,false,false,328,image-keyboard-response,24
true,3,1,3,1,true,z,false,true,0.0-2.0-0.9-0.84-3.84,1,0,0,90,false,stim,false,1,699.9999999999709,2,1,0,19775,WMM1,260357,false,false,331,image-keyboard-response,25
true,3,1,3,1,true,z,false,true,0.0-2.0-0.9-0.85-3.85,1,0,0,90,false,stim,false,1,657.0,2,1,0,19775,WMM1,262526,false,false,334,image-keyboard-response,26
true,3,0,3,0,true,q,false,true,0.0-2.0-0.9-0.86-3.86,1,0,0,81,false,stim,false,2,884.0,2,0,1,19775,WMM1,264922,false,false,337,image-keyboard-response,27
true,3,2,3,2,true,d,false,true,0.0-2.0-0.9-0.87-3.87,1,0,0,68,false,stim,false,1,657.0000000000582,2,0,2,19775,WMM1,267092,false,false,340,image-keyboard-response,28
true,3,0,3,0,true,q,false,true,0.0-2.0-0.9-0.88-3.88,1,0,0,81,false,stim,false,2,502.0,2,0,1,19775,WMM1,269108,false,false,343,image-keyboard-response,29
true,3,2,3,2,true,d,false,true,0.0-2.0-0.9-0.89-3.89,1,0,0,68,false,stim,false,1,676.0,2,0,2,19775,WMM1,271298,false,false,346,image-keyboard-response,30
true,3,0,3,0,true,q,false,true,0.0-2.0-0.10-0.90-3.90,1,0,0,81,false,stim,false,2,613.0,2,0,1,19775,WMM1,273418,false,false,349,image-keyboard-response,31
true,3,0,3,0,true,q,false,true,0.0-2.0-0.10-0.91-3.91,1,0,0,81,false,stim,false,2,714.0,2,0,1,19775,WMM1,275643,false,false,352,image-keyboard-response,32
true,3,1,3,1,true,z,false,true,0.0-2.0-0.10-0.92-3.92,1,0,0,90,false,stim,false,1,744.0,2,0,0,19775,WMM1,277900,false,false,355,image-keyboard-response,33
true,3,1,3,1,true,z,false,true,0.0-2.0-0.10-0.93-3.93,1,0,0,90,false,stim,false,1,611.0000000000582,2,0,0,19775,WMM1,280020,false,false,358,image-keyboard-response,34
true,3,2,3,2,true,d,false,true,0.0-2.0-0.10-0.94-3.94,1,0,0,68,false,stim,false,1,688.0,2,0,2,19775,WMM1,282221,false,false,361,image-keyboard-response,35
true,3,2,3,2,true,d,false,true,0.0-2.0-0.10-0.95-3.95,1,0,0,68,false,stim,false,1,557.0,2,0,2,19775,WMM1,284287,false,false,364,image-keyboard-response,36
true,3,0,3,0,true,q,false,true,0.0-2.0-0.10-0.96-3.96,1,0,0,81,false,stim,false,2,664.0,2,0,1,19775,WMM1,286462,false,false,367,image-keyboard-response,37
true,3,1,3,1,true,z,false,true,0.0-2.0-0.10-0.97-3.97,1,0,0,90,false,stim,false,1,758.0,2,0,0,19775,WMM1,288730,false,false,370,image-keyboard-response,38
true,3,2,3,2,true,d,false,true,0.0-2.0-0.10-0.98-3.98,1,0,0,68,false,stim,false,1,828.0,2,0,2,19775,WMM1,291071,false,false,373,image-keyboard-response,39
true,4,0,1,2,false,d,false,false,0.0-2.0-0.11-0.99-3.99,0,0,0,81,true,stim,true,0,787.0,2,0,1,19775,WMM1,293367,false,false,376,image-keyboard-response,1
true,4,0,1,2,false,d,false,true,0.0-2.0-0.11-0.100-3.100,0,0,0,81,false,stim,true,0,498.0,2,0,1,19775,WMM1,295374,false,true,379,image-keyboard-response,2
true,4,1,1,0,false,q,false,false,0.0-2.0-0.11-0.101-3.101,0,0,0,90,false,stim,true,1,551.0,2,0,0,19775,WMM1,297432,false,false,382,image-keyboard-response,3
true,4,2,1,1,false,z,false,false,0.0-2.0-0.11-0.102-3.102,0,0,0,68,false,stim,true,2,563.0,2,0,2,19775,WMM1,299504,false,false,385,image-keyboard-response,4
true,4,1,1,0,false,q,false,false,0.0-2.0-0.11-0.103-3.103,0,0,0,90,false,stim,true,1,560.0,2,0,0,19775,WMM1,301574,false,false,388,image-keyboard-response,5
true,4,2,1,1,false,z,false,false,0.0-2.0-0.11-0.104-3.104,0,0,0,68,false,stim,true,2,537.0,2,0,2,19775,WMM1,303624,false,false,391,image-keyboard-response,6
true,4,0,1,2,false,d,false,false,0.0-2.0-0.11-0.105-3.105,0,0,0,81,false,stim,true,0,562.0,2,0,1,19775,WMM1,305699,false,false,394,image-keyboard-response,7
true,4,1,1,0,false,q,false,false,0.0-2.0-0.11-0.106-3.106,0,0,0,90,false,stim,true,1,616.0,2,0,0,19775,WMM1,307827,false,false,397,image-keyboard-response,8
true,4,0,1,1,false,z,true,true,0.0-2.0-0.11-0.107-3.107,0,0,0,81,false,stim,false,2,530.0,2,0,2,19775,WMM1,309869,false,true,400,image-keyboard-response,9
true,4,0,1,0,true,q,false,true,0.0-2.0-0.12-0.108-3.108,0,0,0,81,false,stim,false,1,1126.0,2,0,0,19775,WMM1,312511,false,false,403,image-keyboard-response,10
true,4,0,1,2,false,d,false,false,0.0-2.0-0.12-0.109-3.109,0,0,0,81,false,stim,true,0,573.0,2,0,1,19775,WMM1,314595,false,false,406,image-keyboard-response,11
true,4,0,1,1,false,z,true,false,0.0-2.0-0.12-0.110-3.110,0,0,0,81,false,stim,false,2,548.0,2,0,2,19775,WMM1,316655,false,false,409,image-keyboard-response,12
true,4,0,1,0,true,q,false,true,0.0-2.0-0.12-0.111-3.111,0,0,0,81,false,stim,false,1,470.9999999999418,2,0,0,19775,WMM1,318638,false,false,412,image-keyboard-response,13
true,4,2,1,1,false,z,false,true,0.0-2.0-0.12-0.112-3.112,0,0,0,68,false,stim,true,2,726.0,2,0,2,19775,WMM1,320875,false,true,415,image-keyboard-response,14
true,4,1,1,2,false,d,true,false,0.0-2.0-0.12-0.113-3.113,0,0,0,90,false,stim,false,0,558.0,2,0,1,19775,WMM1,322943,false,false,418,image-keyboard-response,15
true,4,2,1,1,false,z,false,false,0.0-2.0-0.12-0.114-3.114,0,0,0,68,false,stim,true,2,523.0,2,0,2,19775,WMM1,324979,false,false,421,image-keyboard-response,16
true,4,0,1,0,true,q,false,false,0.0-2.0-0.12-0.115-3.115,0,0,0,81,false,stim,false,1,504.0,2,0,0,19775,WMM1,326994,false,true,424,image-keyboard-response,17
true,4,0,1,2,false,d,false,false,0.0-2.0-0.12-0.116-3.116,0,0,0,81,false,stim,true,0,891.0,2,0,1,19775,WMM1,329396,false,false,427,image-keyboard-response,18
true,4,2,1,2,true,d,false,true,0.0-2.0-0.13-0.117-3.117,0,0,0,68,false,stim,false,0,668.0000000000582,2,0,1,19775,WMM1,331577,false,false,430,image-keyboard-response,19
true,4,2,1,1,false,z,false,false,0.0-2.0-0.13-0.118-3.118,0,0,0,68,false,stim,true,2,738.0,2,0,2,19775,WMM1,333827,false,false,433,image-keyboard-response,20
true,4,0,1,2,false,d,false,false,0.0-2.0-0.13-0.119-3.119,0,0,0,81,false,stim,true,0,895.0,2,0,1,19775,WMM1,336236,false,false,436,image-keyboard-response,21
true,4,2,1,1,false,z,false,false,0.0-2.0-0.13-0.120-3.120,0,0,0,68,false,stim,true,2,858.0,2,0,2,19775,WMM1,338608,false,false,439,image-keyboard-response,22
true,4,1,1,2,false,d,true,false,0.0-2.0-0.13-0.121-3.121,0,0,0,90,false,stim,false,0,1336.0,2,0,1,19775,WMM1,341458,false,false,442,image-keyboard-response,23
true,4,2,1,0,false,q,true,false,0.0-2.0-0.13-0.122-3.122,0,0,0,68,false,stim,false,1,1004.0,2,0,0,19775,WMM1,343971,false,false,445,image-keyboard-response,24
true,4,0,1,1,false,z,true,false,0.0-2.0-0.13-0.123-3.123,0,0,0,81,false,stim,false,2,1135.9999999999418,2,0,2,19775,WMM1,346617,false,false,448,image-keyboard-response,25
true,4,0,1,0,true,q,false,true,0.0-2.0-0.13-0.124-3.124,0,0,0,81,false,stim,false,1,731.0,2,0,0,19775,WMM1,348860,false,false,451,image-keyboard-response,26
true,4,0,1,0,true,q,false,true,0.0-2.0-0.13-0.125-3.125,0,0,0,81,false,stim,false,1,1006.0000000000582,2,0,0,19775,WMM1,351379,false,false,454,image-keyboard-response,27
true,4,0,1,1,false,z,true,false,0.0-2.0-0.14-0.126-3.126,0,0,0,81,false,stim,false,2,1053.0,2,0,2,19775,WMM1,353942,false,false,457,image-keyboard-response,28
true,4,0,1,0,true,q,false,false,0.0-2.0-0.14-0.127-3.127,0,0,0,81,false,stim,false,1,839.0,2,0,0,19775,WMM1,356293,false,true,460,image-keyboard-response,29
true,4,2,1,2,true,d,false,true,0.0-2.0-0.14-0.128-3.128,0,0,0,68,false,stim,false,0,697.0,2,0,1,19775,WMM1,358504,false,false,463,image-keyboard-response,30
true,4,1,1,1,true,z,false,true,0.0-2.0-0.14-0.129-3.129,0,0,0,90,false,stim,false,2,1278.0,2,0,2,19775,WMM1,361293,false,false,466,image-keyboard-response,31
true,4,1,1,1,true,z,false,true,0.0-2.0-0.14-0.130-3.130,0,0,0,90,false,stim,false,2,535.0,2,0,2,19775,WMM1,363339,false,false,469,image-keyboard-response,32
true,4,0,1,0,true,q,false,true,0.0-2.0-0.14-0.131-3.131,0,0,0,81,false,stim,false,1,729.9999999999418,2,0,0,19775,WMM1,365580,false,false,472,image-keyboard-response,33
true,4,2,1,2,true,d,false,true,0.0-2.0-0.14-0.132-3.132,0,0,0,68,false,stim,false,0,545.0000000000582,2,0,1,19775,WMM1,367636,false,false,475,image-keyboard-response,34
true,4,2,1,2,true,d,false,true,0.0-2.0-0.14-0.133-3.133,0,0,0,68,false,stim,false,0,661.0,2,0,1,19775,WMM1,369810,false,false,478,image-keyboard-response,35
true,4,0,1,0,true,q,false,true,0.0-2.0-0.14-0.134-3.134,0,0,0,81,false,stim,false,1,620.0,2,0,0,19775,WMM1,371937,false,false,481,image-keyboard-response,36
true,4,2,1,2,true,d,false,true,0.0-2.0-0.15-0.135-3.135,0,0,0,68,false,stim,false,0,971.0,2,0,1,19775,WMM1,374418,false,false,484,image-keyboard-response,37
true,4,1,1,1,true,z,false,true,0.0-2.0-0.15-0.136-3.136,0,0,0,90,false,stim,false,2,656.0,2,0,2,19775,WMM1,376585,false,false,487,image-keyboard-response,38
true,4,1,1,1,true,z,false,true,0.0-2.0-0.15-0.137-3.137,0,0,0,90,false,stim,false,2,832.0,2,0,2,19775,WMM1,378926,false,false,490,image-keyboard-response,39
true,4,1,1,1,true,z,false,true,0.0-2.0-0.15-0.138-3.138,0,0,0,90,false,stim,false,2,589.9999999999418,2,0,2,19775,WMM1,381029,false,false,493,image-keyboard-response,40
true,4,0,1,2,false,d,false,true,0.0-2.0-0.15-0.139-3.139,0,0,0,81,false,stim,true,0,766.0,2,0,1,19775,WMM1,383309,false,true,496,image-keyboard-response,41
true,4,2,1,0,false,q,true,false,0.0-2.0-0.15-0.140-3.140,0,0,0,68,false,stim,false,1,612.0,2,0,0,19775,WMM1,385433,false,false,499,image-keyboard-response,42
true,4,2,1,2,true,d,false,true,0.0-2.0-0.15-0.141-3.141,0,0,0,68,false,stim,false,0,1023.0,2,0,1,19775,WMM1,387971,false,false,502,image-keyboard-response,43
true,4,0,1,0,true,q,false,true,0.0-2.0-0.15-0.142-3.142,0,0,0,81,false,stim,false,1,720.0,2,0,0,19775,WMM1,390203,false,false,505,image-keyboard-response,44
true,5,0,4,2,false,d,false,true,0.0-2.0-0.15-0.143-3.143,0,0,0,81,true,stim,true,0,756.0,2,0,0,19775,WMM1,392469,false,true,508,image-keyboard-response,1
true,5,2,4,1,false,z,false,false,0.0-2.0-0.16-0.144-3.144,0,0,0,68,false,stim,true,2,736.0,2,0,1,19775,WMM1,394718,false,false,511,image-keyboard-response,2
true,5,1,4,0,false,q,false,false,0.0-2.0-0.16-0.145-3.145,0,0,0,90,false,stim,true,1,571.0000000000582,2,0,2,19775,WMM1,396801,false,false,514,image-keyboard-response,3
true,5,1,4,0,false,q,false,false,0.0-2.0-0.16-0.146-3.146,0,0,0,90,false,stim,true,1,643.0,2,0,2,19775,WMM1,398955,false,false,517,image-keyboard-response,4
true,5,1,4,0,false,q,false,true,0.0-2.0-0.16-0.147-3.147,0,0,0,90,false,stim,true,1,787.0,2,0,2,19775,WMM1,401252,false,true,520,image-keyboard-response,5
true,5,0,4,2,false,d,false,false,0.0-2.0-0.16-0.148-3.148,0,0,0,81,false,stim,true,0,734.0,2,0,0,19775,WMM1,403497,false,false,523,image-keyboard-response,6
true,5,2,4,2,true,d,false,true,0.0-2.0-0.16-0.149-3.149,0,0,0,68,false,stim,false,0,661.0,2,0,0,19775,WMM1,405668,false,false,526,image-keyboard-response,7
true,5,2,4,1,false,z,false,false,0.0-2.0-0.16-0.150-3.150,0,0,0,68,false,stim,true,2,567.0,2,0,1,19775,WMM1,407748,false,false,529,image-keyboard-response,8
true,5,0,4,1,false,z,true,false,0.0-2.0-0.16-0.151-3.151,0,0,0,81,false,stim,false,2,558.0,2,0,1,19775,WMM1,409819,false,false,532,image-keyboard-response,9
true,5,2,4,2,true,d,false,true,0.0-2.0-0.16-0.152-3.152,0,0,0,68,false,stim,false,0,789.0,2,0,0,19775,WMM1,412120,false,false,535,image-keyboard-response,10
true,5,1,4,1,true,z,false,true,0.0-2.0-0.17-0.153-3.153,0,0,0,90,false,stim,false,2,748.0,2,0,1,19775,WMM1,414380,false,false,538,image-keyboard-response,11
true,5,1,4,1,true,z,false,true,0.0-2.0-0.17-0.154-3.154,0,0,0,90,false,stim,false,2,510.0,2,0,1,19775,WMM1,416401,false,false,541,image-keyboard-response,12
true,5,2,4,2,true,d,false,true,0.0-2.0-0.17-0.155-3.155,0,0,0,68,false,stim,false,0,810.0,2,0,0,19775,WMM1,418725,false,false,544,image-keyboard-response,13
true,5,1,4,1,true,z,false,true,0.0-2.0-0.17-0.156-3.156,0,0,0,90,false,stim,false,2,553.0,2,0,1,19775,WMM1,420790,false,false,547,image-keyboard-response,14
true,5,1,4,0,false,q,false,false,0.0-2.0-0.17-0.157-3.157,0,0,0,90,false,stim,true,1,495.0,2,0,2,19775,WMM1,422796,false,false,550,image-keyboard-response,15
true,5,1,4,0,false,q,false,false,0.0-2.0-0.17-0.158-3.158,0,0,0,90,false,stim,true,1,569.0,2,0,2,19775,WMM1,424873,false,false,553,image-keyboard-response,16
true,5,0,4,0,true,q,false,true,0.0-2.0-0.17-0.159-3.159,0,0,0,81,false,stim,false,1,566.9999999999418,2,0,2,19775,WMM1,426951,false,false,556,image-keyboard-response,17
true,5,2,4,2,true,d,false,true,0.0-2.0-0.17-0.160-3.160,0,0,0,68,false,stim,false,0,807.0,2,0,0,19775,WMM1,429270,false,false,559,image-keyboard-response,18
true,5,2,4,2,true,d,false,true,0.0-2.0-0.17-0.161-3.161,0,0,0,68,false,stim,false,0,669.0,2,0,0,19775,WMM1,431453,false,false,562,image-keyboard-response,19
true,5,1,4,1,true,z,false,true,0.0-2.0-0.18-0.162-3.162,0,0,0,90,false,stim,false,2,561.0000000000582,2,0,1,19775,WMM1,433526,false,false,565,image-keyboard-response,20
true,5,2,4,2,true,d,false,true,0.0-2.0-0.18-0.163-3.163,0,0,0,68,false,stim,false,0,723.0,2,0,0,19775,WMM1,435761,false,false,568,image-keyboard-response,21
true,5,0,4,0,true,q,false,true,0.0-2.0-0.18-0.164-3.164,0,0,0,81,false,stim,false,1,918.0,2,0,2,19775,WMM1,438190,false,false,571,image-keyboard-response,22
true,5,1,4,1,true,z,false,true,0.0-2.0-0.18-0.165-3.165,0,0,0,90,false,stim,false,2,751.0,2,0,1,19775,WMM1,440454,false,false,574,image-keyboard-response,23
true,5,0,4,0,true,q,false,true,0.0-2.0-0.18-0.166-3.166,0,0,0,81,false,stim,false,1,847.0000000000582,2,0,2,19775,WMM1,442811,false,false,577,image-keyboard-response,24
true,5,2,4,2,true,d,false,true,0.0-2.0-0.18-0.167-3.167,0,0,0,68,false,stim,false,0,747.0,2,0,0,19775,WMM1,445066,false,false,580,image-keyboard-response,25
true,5,0,4,0,true,q,false,true,0.0-2.0-0.18-0.168-3.168,0,0,0,81,false,stim,false,1,743.0000000000582,2,0,2,19775,WMM1,447322,false,false,583,image-keyboard-response,26
true,5,2,4,2,true,d,false,true,0.0-2.0-0.18-0.169-3.169,0,0,0,68,false,stim,false,0,657.0,2,0,0,19775,WMM1,449493,false,false,586,image-keyboard-response,27
true,5,1,4,1,true,z,false,false,0.0-2.0-0.18-0.170-3.170,0,0,0,90,false,stim,false,2,596.0,2,0,1,19775,WMM1,451600,false,true,589,image-keyboard-response,28
true,5,2,4,2,true,d,false,true,0.0-2.0-0.19-0.171-3.171,0,0,0,68,false,stim,false,0,664.9999999999418,2,0,0,19775,WMM1,453773,false,false,592,image-keyboard-response,29
true,5,0,4,0,true,q,false,true,0.0-2.0-0.19-0.172-3.172,0,0,0,81,false,stim,false,1,650.0000000000582,2,0,2,19775,WMM1,455936,false,false,595,image-keyboard-response,30
true,5,1,4,1,true,z,false,true,0.0-2.0-0.19-0.173-3.173,0,0,0,90,false,stim,false,2,623.0000000000582,2,0,1,19775,WMM1,458073,false,false,598,image-keyboard-response,31
true,5,2,4,2,true,d,false,true,0.0-2.0-0.19-0.174-3.174,0,0,0,68,false,stim,false,0,673.0,2,0,0,19775,WMM1,460259,false,false,601,image-keyboard-response,32
true,6,1,2,2,false,d,false,false,0.0-2.0-0.19-0.175-3.175,0,0,0,90,true,stim,true,1,1085.9999999999418,2,0,1,19775,WMM1,462855,false,false,604,image-keyboard-response,1
true,6,1,2,2,false,d,false,false,0.0-2.0-0.19-0.176-3.176,0,0,0,90,false,stim,true,1,866.9999999999418,2,0,1,19775,WMM1,465230,false,false,607,image-keyboard-response,2
true,6,2,2,0,false,q,false,false,0.0-2.0-0.19-0.177-3.177,0,0,0,68,false,stim,true,2,764.9999999999418,2,0,0,19775,WMM1,467504,false,false,610,image-keyboard-response,3
true,6,0,2,1,false,z,false,false,0.0-2.0-0.19-0.178-3.178,0,0,0,81,false,stim,true,0,485.0,2,0,2,19775,WMM1,469501,false,false,613,image-keyboard-response,4
true,6,0,2,1,false,z,false,false,0.0-2.0-0.19-0.179-3.179,0,0,0,81,false,stim,true,0,516.0,2,0,2,19775,WMM1,471525,false,false,616,image-keyboard-response,5
true,6,0,2,1,false,z,false,false,0.0-2.0-0.20-0.180-3.180,0,0,0,81,false,stim,true,0,596.0,2,0,2,19775,WMM1,473631,false,false,619,image-keyboard-response,6
true,6,2,2,2,true,d,false,true,0.0-2.0-0.20-0.181-3.181,0,0,0,68,false,stim,false,1,1139.0,2,0,1,19775,WMM1,476278,false,false,622,image-keyboard-response,7
true,6,2,2,1,false,z,true,false,0.0-2.0-0.20-0.182-3.182,0,0,0,68,false,stim,false,0,874.0000000000582,2,0,2,19775,WMM1,478661,false,false,625,image-keyboard-response,8
true,6,0,2,0,true,q,false,false,0.0-2.0-0.20-0.183-3.183,0,0,0,81,false,stim,false,2,1309.0,2,0,0,19775,WMM1,481478,false,true,628,image-keyboard-response,9
true,6,2,2,2,true,d,false,true,0.0-2.0-0.20-0.184-3.184,0,0,0,68,false,stim,false,1,924.9999999999418,2,0,1,19775,WMM1,483912,false,false,631,image-keyboard-response,10
true,6,1,2,1,true,z,false,true,0.0-2.0-0.20-0.185-3.185,0,0,0,90,false,stim,false,0,679.9999999999418,2,0,2,19775,WMM1,486102,false,false,634,image-keyboard-response,11
true,6,0,2,0,true,q,false,true,0.0-2.0-0.20-0.186-3.186,0,0,0,81,false,stim,false,2,691.0,2,0,0,19775,WMM1,488301,false,false,637,image-keyboard-response,12
true,6,2,2,2,true,d,false,true,0.0-2.0-0.20-0.187-3.187,0,0,0,68,false,stim,false,1,746.0,2,0,1,19775,WMM1,490556,false,false,640,image-keyboard-response,13
true,6,0,2,0,true,q,false,true,0.0-2.0-0.20-0.188-3.188,0,0,0,81,false,stim,false,2,628.0,2,0,0,19775,WMM1,492693,false,false,643,image-keyboard-response,14
true,6,2,2,2,true,d,false,true,0.0-2.0-0.21-0.189-3.189,0,0,0,68,false,stim,false,1,676.0,2,0,1,19775,WMM1,494878,false,false,646,image-keyboard-response,15
true,6,1,2,1,true,z,false,true,0.0-2.0-0.21-0.190-3.190,0,0,0,90,false,stim,false,0,541.0,2,0,2,19775,WMM1,496930,false,false,649,image-keyboard-response,16
true,6,2,2,2,true,d,false,true,0.0-2.0-0.21-0.191-3.191,0,0,0,68,false,stim,false,1,683.0,2,0,1,19775,WMM1,499122,false,false,652,image-keyboard-response,17
true,6,0,2,0,true,q,false,true,0.0-2.0-0.21-0.192-3.192,0,0,0,81,false,stim,false,2,542.0000000000582,2,0,0,19775,WMM1,501171,false,false,655,image-keyboard-response,18
true,6,1,2,1,true,z,false,true,0.0-2.0-0.21-0.193-3.193,0,0,0,90,false,stim,false,0,548.0,2,0,2,19775,WMM1,503229,false,false,658,image-keyboard-response,19
true,6,0,2,0,true,q,false,true,0.0-2.0-0.21-0.194-3.194,0,0,0,81,false,stim,false,2,649.0,2,0,0,19775,WMM1,505392,false,false,661,image-keyboard-response,20
true,6,2,2,2,true,d,false,true,0.0-2.0-0.21-0.195-3.195,0,0,0,68,false,stim,false,1,709.0,2,0,1,19775,WMM1,507609,false,false,664,image-keyboard-response,21
true,6,0,2,0,true,q,false,true,0.0-2.0-0.21-0.196-3.196,0,0,0,81,false,stim,false,2,830.9999999999418,2,0,0,19775,WMM1,509949,false,false,667,image-keyboard-response,22
true,6,1,2,1,true,z,false,true,0.0-2.0-0.21-0.197-3.197,0,0,0,90,false,stim,false,0,881.9999999999418,2,1,2,19775,WMM1,512343,false,false,670,image-keyboard-response,23
true,6,1,2,1,true,z,false,true,0.0-2.0-0.22-0.198-3.198,0,0,0,90,false,stim,false,0,707.9999999999418,2,1,2,19775,WMM1,514564,false,false,673,image-keyboard-response,24
true,6,2,2,2,true,d,false,true,0.0-2.0-0.22-0.199-3.199,0,0,0,68,false,stim,false,1,963.9999999999418,2,0,1,19775,WMM1,517037,false,false,676,image-keyboard-response,25
true,6,0,2,0,true,q,false,true,0.0-2.0-0.22-0.200-3.200,0,0,0,81,false,stim,false,2,569.9999999999418,2,0,0,19775,WMM1,519119,false,false,679,image-keyboard-response,26
true,6,2,2,2,true,d,false,true,0.0-2.0-0.22-0.201-3.201,0,0,0,68,false,stim,false,1,729.0000000000582,2,0,1,19775,WMM1,521361,false,false,682,image-keyboard-response,27
true,6,1,2,1,true,z,false,true,0.0-2.0-0.22-0.202-3.202,0,0,0,90,false,stim,false,0,677.0,2,1,2,19775,WMM1,523549,false,false,685,image-keyboard-response,28
true,6,0,2,0,true,q,false,true,0.0-2.0-0.22-0.203-3.203,0,0,0,81,false,stim,false,2,695.0,2,0,0,19775,WMM1,525757,false,false,688,image-keyboard-response,29
true,6,1,2,1,true,z,false,true,0.0-2.0-0.22-0.204-3.204,0,0,0,90,false,stim,false,0,829.0,2,1,2,19775,WMM1,528097,false,false,691,image-keyboard-response,30
true,7,2,3,0,false,q,false,false,0.0-2.0-0.22-0.205-3.205,0,0,1,68,true,stim,true,2,620.0,2,0,1,19775,WMM1,530228,false,false,694,image-keyboard-response,1
true,7,0,3,1,false,z,false,false,0.0-2.0-0.22-0.206-3.206,0,0,1,81,false,stim,true,0,648.0,2,0,0,19775,WMM1,532386,false,false,697,image-keyboard-response,2
true,7,1,3,0,false,q,true,false,0.0-2.0-0.23-0.207-3.207,0,0,1,90,false,stim,false,2,943.0,2,0,1,19775,WMM1,534843,false,false,700,image-keyboard-response,3
true,7,2,3,1,false,z,true,false,0.0-2.0-0.23-0.208-3.208,0,0,1,68,false,stim,false,0,968.0,2,0,0,19775,WMM1,537324,false,false,703,image-keyboard-response,4
true,7,1,3,1,true,z,false,false,0.0-2.0-0.23-0.209-3.209,0,0,1,90,false,stim,false,1,810.0,2,1,2,19775,WMM1,539646,false,true,706,image-keyboard-response,5
true,7,0,3,0,true,q,false,true,0.0-2.0-0.23-0.210-3.210,0,0,1,81,false,stim,false,2,600.0,2,0,1,19775,WMM1,541757,false,false,709,image-keyboard-response,6
true,7,2,3,1,false,z,true,false,0.0-2.0-0.23-0.211-3.211,0,0,1,68,false,stim,false,1,804.0000000001164,2,1,2,19775,WMM1,544070,false,false,712,image-keyboard-response,7
true,7,2,3,1,false,z,true,false,0.0-2.0-0.23-0.212-3.212,0,0,1,68,false,stim,false,0,775.0,2,0,0,19775,WMM1,546358,false,false,715,image-keyboard-response,8
true,7,1,3,1,true,z,false,true,0.0-2.0-0.23-0.213-3.213,0,0,1,90,false,stim,false,0,641.0,2,0,0,19775,WMM1,548511,false,false,718,image-keyboard-response,9
true,7,2,3,1,false,z,true,true,0.0-2.0-0.23-0.214-3.214,0,0,1,68,false,stim,false,1,566.0,2,1,2,19775,WMM1,550585,false,true,721,image-keyboard-response,10
true,7,0,3,0,true,q,false,true,0.0-2.0-0.23-0.215-3.215,0,0,1,81,false,stim,false,2,683.0,2,0,1,19775,WMM1,552777,false,false,724,image-keyboard-response,11
true,7,0,3,0,true,q,false,true,0.0-2.0-0.24-0.216-3.216,0,0,1,81,false,stim,false,2,710.0,2,0,1,19775,WMM1,554999,false,false,727,image-keyboard-response,12
true,7,1,3,1,true,z,false,true,0.0-2.0-0.24-0.217-3.217,0,0,1,90,false,stim,false,0,525.0,2,0,0,19775,WMM1,557038,false,false,730,image-keyboard-response,13
true,7,0,3,0,true,q,false,true,0.0-2.0-0.24-0.218-3.218,0,0,1,81,false,stim,false,2,865.9999999998836,2,0,1,19775,WMM1,559416,false,false,733,image-keyboard-response,14
true,7,0,3,0,true,q,false,true,0.0-2.0-0.24-0.219-3.219,0,0,1,81,false,stim,false,2,595.0,2,0,1,19775,WMM1,561522,false,false,736,image-keyboard-response,15
true,7,2,3,1,false,z,true,false,0.0-2.0-0.24-0.220-3.220,0,0,1,68,false,stim,false,1,760.0,2,1,2,19775,WMM1,563791,false,false,739,image-keyboard-response,16
true,7,2,3,1,false,z,true,false,0.0-2.0-0.24-0.221-3.221,0,0,1,68,false,stim,false,1,593.0,2,1,2,19775,WMM1,565898,false,false,742,image-keyboard-response,17
true,7,1,3,1,true,z,false,true,0.0-2.0-0.24-0.222-3.222,0,0,1,90,false,stim,false,0,720.0,2,0,0,19775,WMM1,568129,false,false,745,image-keyboard-response,18
true,7,1,3,1,true,z,false,true,0.0-2.0-0.24-0.223-3.223,0,0,1,90,false,stim,false,1,549.0,2,1,2,19775,WMM1,570192,false,false,748,image-keyboard-response,19
true,7,1,3,1,true,z,false,true,0.0-2.0-0.24-0.224-3.224,0,0,1,90,false,stim,false,0,707.0,2,0,0,19775,WMM1,572412,false,false,751,image-keyboard-response,20
true,7,0,3,0,true,q,false,true,0.0-2.0-0.25-0.225-3.225,0,0,1,81,false,stim,false,2,702.0,2,0,1,19775,WMM1,574629,false,false,754,image-keyboard-response,21
true,7,1,3,1,true,z,false,true,0.0-2.0-0.25-0.226-3.226,0,0,1,90,false,stim,false,1,814.0,2,1,2,19775,WMM1,576952,false,false,757,image-keyboard-response,22
true,7,1,3,1,true,z,false,true,0.0-2.0-0.25-0.227-3.227,0,0,1,90,false,stim,false,1,560.0,2,0,2,19775,WMM1,579024,false,false,760,image-keyboard-response,23
true,7,1,3,1,true,z,false,true,0.0-2.0-0.25-0.228-3.228,0,0,1,90,false,stim,false,1,571.0,2,0,2,19775,WMM1,581107,false,false,763,image-keyboard-response,24
true,7,1,3,1,true,z,false,true,0.0-2.0-0.25-0.229-3.229,0,0,1,90,false,stim,false,0,833.0,2,0,0,19775,WMM1,583454,false,false,766,image-keyboard-response,25
true,7,1,3,1,true,z,false,true,0.0-2.0-0.25-0.230-3.230,0,0,1,90,false,stim,false,0,748.0,2,0,0,19775,WMM1,585711,false,false,769,image-keyboard-response,26
true,7,1,3,1,true,z,false,true,0.0-2.0-0.25-0.231-3.231,0,0,1,90,false,stim,false,0,618.0,2,0,0,19775,WMM1,587838,false,false,772,image-keyboard-response,27
true,7,0,3,0,true,q,false,true,0.0-2.0-0.25-0.232-3.232,0,0,1,81,false,stim,false,2,647.0,2,0,1,19775,WMM1,589999,false,false,775,image-keyboard-response,28
true,7,0,3,0,true,q,false,true,0.0-2.0-0.25-0.233-3.233,0,0,1,81,false,stim,false,2,661.0,2,0,1,19775,WMM1,592172,false,false,778,image-keyboard-response,29
true,7,1,3,1,true,z,false,true,0.0-2.0-0.26-0.234-3.234,0,0,1,90,false,stim,false,0,655.0,2,0,0,19775,WMM1,594340,false,false,781,image-keyboard-response,30
true,7,0,3,0,true,q,false,true,0.0-2.0-0.26-0.235-3.235,0,0,1,81,false,stim,false,2,684.0,2,0,1,19775,WMM1,596533,false,false,784,image-keyboard-response,31
true,7,1,3,1,true,z,false,true,0.0-2.0-0.26-0.236-3.236,0,0,1,90,false,stim,false,1,673.0,2,0,2,19775,WMM1,598720,false,false,787,image-keyboard-response,32
true,8,1,1,2,false,d,false,false,0.0-2.0-0.26-0.237-3.237,0,0,0,90,true,stim,true,1,1105.0,2,0,0,19775,WMM1,601336,false,false,790,image-keyboard-response,1
true,8,1,1,2,false,d,false,true,0.0-2.0-0.26-0.238-3.238,0,0,0,90,false,stim,true,1,655.0000000001164,2,0,0,19775,WMM1,603501,false,true,793,image-keyboard-response,2
true,8,0,1,1,false,z,false,false,0.0-2.0-0.26-0.239-3.239,0,0,0,81,false,stim,true,0,732.0,2,0,1,19775,WMM1,605744,false,false,796,image-keyboard-response,3
true,8,1,1,2,false,d,false,false,0.0-2.0-0.26-0.240-3.240,0,0,0,90,false,stim,true,1,717.0,2,0,2,19775,WMM1,607973,false,false,799,image-keyboard-response,4
true,8,1,1,2,false,d,false,false,0.0-2.0-0.26-0.241-3.241,0,0,0,90,false,stim,true,1,804.0,2,0,2,19775,WMM1,610297,false,false,802,image-keyboard-response,5
true,8,2,1,1,false,z,true,false,0.0-2.0-0.26-0.242-3.242,0,0,0,68,false,stim,false,0,506.0,2,0,1,19775,WMM1,612314,false,false,805,image-keyboard-response,6
true,8,0,1,2,false,d,true,true,0.0-2.0-0.27-0.243-3.243,0,0,0,81,false,stim,false,1,939.0,2,0,2,19775,WMM1,614762,false,true,808,image-keyboard-response,7
true,8,1,1,1,true,z,false,true,0.0-2.0-0.27-0.244-3.244,0,0,0,90,false,stim,false,0,563.0,2,0,1,19775,WMM1,616836,false,false,811,image-keyboard-response,8
true,8,1,1,2,false,d,false,false,0.0-2.0-0.27-0.245-3.245,0,0,0,90,false,stim,true,1,533.0,2,0,0,19775,WMM1,618879,false,false,814,image-keyboard-response,9
true,8,1,1,1,true,z,false,true,0.0-2.0-0.27-0.246-3.246,0,0,0,90,false,stim,false,0,752.0,2,0,1,19775,WMM1,621143,false,false,817,image-keyboard-response,10
true,8,2,1,2,true,d,false,true,0.0-2.0-0.27-0.247-3.247,0,0,0,68,false,stim,false,1,645.0000000001164,2,0,0,19775,WMM1,623297,false,false,820,image-keyboard-response,11
true,8,0,1,2,false,d,true,false,0.0-2.0-0.27-0.248-3.248,0,0,0,81,false,stim,false,1,613.0,2,0,2,19775,WMM1,625419,false,false,823,image-keyboard-response,12
true,8,1,1,1,true,z,false,true,0.0-2.0-0.27-0.249-3.249,0,0,0,90,false,stim,false,0,666.0,2,0,1,19775,WMM1,627597,false,false,826,image-keyboard-response,13
true,8,0,1,2,false,d,true,false,0.0-2.0-0.27-0.250-3.250,0,0,0,81,false,stim,false,1,693.0,2,0,2,19775,WMM1,629800,false,false,829,image-keyboard-response,14
true,8,2,1,2,true,d,false,true,0.0-2.0-0.27-0.251-3.251,0,0,0,68,false,stim,false,1,717.0,2,0,0,19775,WMM1,632029,false,false,832,image-keyboard-response,15
true,8,1,1,2,false,d,false,false,0.0-2.0-0.28-0.252-3.252,0,0,0,90,false,stim,true,1,498.0,2,0,2,19775,WMM1,634042,false,false,835,image-keyboard-response,16
true,8,1,1,1,true,z,false,false,0.0-2.0-0.28-0.253-3.253,0,0,0,90,false,stim,false,0,732.0000000001164,2,0,1,19775,WMM1,636287,false,true,838,image-keyboard-response,17
true,8,2,1,2,true,d,false,true,0.0-2.0-0.28-0.254-3.254,0,0,0,68,false,stim,false,1,646.9999999998836,2,0,0,19775,WMM1,638444,false,false,841,image-keyboard-response,18
true,8,1,1,1,true,z,false,false,0.0-2.0-0.28-0.255-3.255,0,0,0,90,false,stim,false,0,867.0000000001164,2,0,1,19775,WMM1,640821,false,true,844,image-keyboard-response,19
true,8,2,1,2,true,d,false,true,0.0-2.0-0.28-0.256-3.256,0,0,0,68,false,stim,false,1,1299.0,2,0,2,19775,WMM1,643634,false,false,847,image-keyboard-response,20
true,8,2,1,2,true,d,false,true,0.0-2.0-0.28-0.257-3.257,0,0,0,68,false,stim,false,1,639.0,2,0,0,19775,WMM1,645785,false,false,850,image-keyboard-response,21
true,8,2,1,2,true,d,false,true,0.0-2.0-0.28-0.258-3.258,0,0,0,68,false,stim,false,1,618.0,2,0,2,19775,WMM1,647913,false,false,853,image-keyboard-response,22
true,8,0,1,1,false,z,false,false,0.0-2.0-0.28-0.259-3.259,0,0,0,81,false,stim,true,0,657.0,2,0,1,19775,WMM1,650085,false,false,856,image-keyboard-response,23
true,8,2,1,2,true,d,false,true,0.0-2.0-0.28-0.260-3.260,0,0,0,68,false,stim,false,1,1126.0,2,0,0,19775,WMM1,652725,false,false,859,image-keyboard-response,24
true,8,2,1,2,true,d,false,false,0.0-2.0-0.29-0.261-3.261,0,0,0,68,false,stim,false,1,637.0000000001164,2,0,2,19775,WMM1,654873,false,true,862,image-keyboard-response,25
true,8,2,1,2,true,d,false,true,0.0-2.0-0.29-0.262-3.262,0,0,0,68,false,stim,false,1,706.0,2,0,0,19775,WMM1,657092,false,false,865,image-keyboard-response,26
true,8,2,1,2,true,d,false,true,0.0-2.0-0.29-0.263-3.263,0,0,0,68,false,stim,false,1,666.0,2,0,2,19775,WMM1,659272,false,false,868,image-keyboard-response,27
true,8,1,1,1,true,z,false,true,0.0-2.0-0.29-0.264-3.264,0,0,0,90,false,stim,false,0,527.9999999998836,2,0,1,19775,WMM1,661314,false,false,871,image-keyboard-response,28
true,8,1,1,1,true,z,false,true,0.0-2.0-0.29-0.265-3.265,0,0,0,90,false,stim,false,0,675.0,2,0,1,19775,WMM1,663501,false,false,874,image-keyboard-response,29
true,8,2,1,2,true,d,false,true,0.0-2.0-0.29-0.266-3.266,0,0,0,68,false,stim,false,1,713.0,2,0,2,19775,WMM1,665726,false,false,877,image-keyboard-response,30
true,8,2,1,2,true,d,false,true,0.0-2.0-0.29-0.267-3.267,0,0,0,68,false,stim,false,1,784.0,2,0,0,19775,WMM1,668023,false,false,880,image-keyboard-response,31
true,8,2,1,2,true,d,false,false,0.0-2.0-0.29-0.268-3.268,0,0,0,68,false,stim,false,1,641.0,2,0,0,19775,WMM1,670176,false,true,883,image-keyboard-response,32
true,9,1,2,2,false,d,false,false,0.0-2.0-0.29-0.269-3.269,0,0,0,90,true,stim,true,1,1100.0,2,0,1,19775,WMM1,672787,false,false,886,image-keyboard-response,1
true,9,1,2,2,false,d,false,false,0.0-2.0-0.30-0.270-3.270,0,0,0,90,false,stim,true,1,712.0,2,0,1,19775,WMM1,675010,false,false,889,image-keyboard-response,2
true,9,2,2,1,false,z,false,false,0.0-2.0-0.30-0.271-3.271,0,0,0,68,false,stim,true,2,925.0,2,0,2,19775,WMM1,677444,false,false,892,image-keyboard-response,3
true,9,0,2,2,false,d,true,false,0.0-2.0-0.30-0.272-3.272,0,0,0,81,false,stim,false,1,518.0,2,0,1,19775,WMM1,679473,false,false,895,image-keyboard-response,4
true,9,0,2,1,false,z,true,false,0.0-2.0-0.30-0.273-3.273,0,0,0,81,false,stim,false,2,827.0,2,0,2,19775,WMM1,681811,false,false,898,image-keyboard-response,5
true,9,2,2,0,false,q,false,false,0.0-2.0-0.30-0.274-3.274,0,0,0,68,false,stim,true,2,722.0,2,0,0,19775,WMM1,684049,false,false,901,image-keyboard-response,6
true,9,1,2,2,false,d,false,false,0.0-2.0-0.30-0.275-3.275,0,0,0,90,false,stim,true,1,701.0,2,0,1,19775,WMM1,686263,false,false,904,image-keyboard-response,7
true,9,1,2,1,true,z,false,true,0.0-2.0-0.30-0.276-3.276,0,0,0,90,false,stim,false,2,839.0,2,0,2,19775,WMM1,688616,false,false,907,image-keyboard-response,8
true,9,1,2,0,false,q,true,false,0.0-2.0-0.30-0.277-3.277,0,0,0,90,false,stim,false,2,525.0,2,0,0,19775,WMM1,690654,false,false,910,image-keyboard-response,9
true,9,0,2,0,true,q,false,true,0.0-2.0-0.30-0.278-3.278,0,0,0,81,false,stim,false,2,573.0,2,0,0,19775,WMM1,692741,false,false,913,image-keyboard-response,10
true,9,0,2,0,true,q,false,true,0.0-2.0-0.31-0.279-3.279,0,0,0,81,false,stim,false,2,617.0,2,0,0,19775,WMM1,694869,false,false,916,image-keyboard-response,11
true,9,0,2,0,true,q,false,true,0.0-2.0-0.31-0.280-3.280,0,0,0,81,false,stim,false,2,541.0,2,0,0,19775,WMM1,696924,false,false,919,image-keyboard-response,12
true,9,1,2,1,true,z,false,true,0.0-2.0-0.31-0.281-3.281,0,0,0,90,false,stim,false,2,641.0,2,0,2,19775,WMM1,699075,false,false,922,image-keyboard-response,13
true,9,2,2,2,true,d,false,true,0.0-2.0-0.31-0.282-3.282,0,0,0,68,false,stim,false,1,519.0,2,0,1,19775,WMM1,701105,false,false,925,image-keyboard-response,14
true,9,1,2,1,true,z,false,true,0.0-2.0-0.31-0.283-3.283,0,0,0,90,false,stim,false,2,581.9999999998836,2,0,2,19775,WMM1,703198,false,false,928,image-keyboard-response,15
true,9,2,2,2,true,d,false,true,0.0-2.0-0.31-0.284-3.284,0,0,0,68,false,stim,false,1,811.0000000001164,2,0,1,19775,WMM1,705520,false,false,931,image-keyboard-response,16
true,9,1,2,1,true,z,false,true,0.0-2.0-0.31-0.285-3.285,0,0,0,90,false,stim,false,2,669.0,2,0,2,19775,WMM1,707699,false,false,934,image-keyboard-response,17
true,9,2,2,2,true,d,false,true,0.0-2.0-0.31-0.286-3.286,0,0,0,68,false,stim,false,1,826.0,2,0,1,19775,WMM1,710038,false,false,937,image-keyboard-response,18
true,9,0,2,0,true,q,false,true,0.0-2.0-0.31-0.287-3.287,0,0,0,81,false,stim,false,2,741.0,2,0,0,19775,WMM1,712290,false,false,940,image-keyboard-response,19
true,9,1,2,1,true,z,false,true,0.0-2.0-0.32-0.288-3.288,0,0,0,90,false,stim,false,2,967.0,2,0,2,19775,WMM1,714768,false,false,943,image-keyboard-response,20
true,9,2,2,2,true,d,false,true,0.0-2.0-0.32-0.289-3.289,0,0,0,68,false,stim,false,1,730.0,2,0,1,19775,WMM1,717009,false,false,946,image-keyboard-response,21
true,9,2,2,2,true,d,false,true,0.0-2.0-0.32-0.290-3.290,0,0,0,68,false,stim,false,1,577.0,2,0,1,19775,WMM1,719098,false,false,949,image-keyboard-response,22
true,9,0,2,0,true,q,false,true,0.0-2.0-0.32-0.291-3.291,0,0,0,81,false,stim,false,2,724.0,2,0,0,19775,WMM1,721333,false,false,952,image-keyboard-response,23
true,9,2,2,2,true,d,false,true,0.0-2.0-0.32-0.292-3.292,0,0,0,68,false,stim,false,1,660.0,2,0,1,19775,WMM1,723504,false,false,955,image-keyboard-response,24
true,9,0,2,0,true,q,false,true,0.0-2.0-0.32-0.293-3.293,0,0,0,81,false,stim,false,2,690.9999999998836,2,0,0,19775,WMM1,725706,false,false,958,image-keyboard-response,25
true,9,1,2,1,true,z,false,true,0.0-2.0-0.32-0.294-3.294,0,0,0,90,false,stim,false,2,628.0,2,0,2,19775,WMM1,727842,false,false,961,image-keyboard-response,26
true,9,0,2,0,true,q,false,true,0.0-2.0-0.32-0.295-3.295,0,0,0,81,false,stim,false,2,803.0,2,0,0,19775,WMM1,730157,false,false,964,image-keyboard-response,27
true,9,1,2,1,true,z,false,true,0.0-2.0-0.32-0.296-3.296,0,0,0,90,false,stim,false,2,632.9999999998836,2,0,2,19775,WMM1,732301,false,false,967,image-keyboard-response,28
true,9,0,2,0,true,q,false,true,0.0-2.0-0.33-0.297-3.297,0,0,0,81,false,stim,false,2,651.0000000001164,2,0,0,19775,WMM1,734461,false,false,970,image-keyboard-response,29
true,9,2,2,2,true,d,false,false,0.0-2.0-0.33-0.298-3.298,0,0,0,68,false,stim,false,1,689.0,2,0,1,19775,WMM1,736662,false,true,973,image-keyboard-response,30
true,10,1,1,0,false,q,true,false,0.0-2.0-0.33-0.299-3.299,0,0,0,90,true,stim,false,2,1312.0,2,0,1,19775,WMM1,739487,false,false,976,image-keyboard-response,1
true,10,0,1,1,false,z,false,true,0.0-2.0-0.33-0.300-3.300,0,0,0,81,false,stim,true,0,741.0000000001164,2,0,0,19775,WMM1,741735,false,true,979,image-keyboard-response,2
true,10,2,1,0,false,q,false,true,0.0-2.0-0.33-0.301-3.301,0,0,0,68,false,stim,true,2,863.0,2,0,1,19775,WMM1,744108,false,true,982,image-keyboard-response,3
true,10,0,1,1,false,z,false,false,0.0-2.0-0.33-0.302-3.302,0,0,0,81,false,stim,true,0,653.0,2,0,0,19775,WMM1,746274,false,false,985,image-keyboard-response,4
true,10,1,1,0,false,q,false,false,0.0-2.0-0.33-0.303-3.303,0,0,0,90,false,stim,true,1,796.9999999998836,2,0,2,19775,WMM1,748580,false,false,988,image-keyboard-response,5
true,10,0,1,0,true,q,false,true,0.0-2.0-0.33-0.304-3.304,0,0,0,81,false,stim,false,1,486.0,2,0,2,19775,WMM1,750574,false,false,991,image-keyboard-response,6
true,10,0,1,0,true,q,false,true,0.0-2.0-0.33-0.305-3.305,0,0,0,81,false,stim,false,1,792.0,2,0,2,19775,WMM1,752875,false,false,994,image-keyboard-response,7
true,10,2,1,1,false,z,true,false,0.0-2.0-0.34-0.306-3.306,0,0,0,68,false,stim,false,0,802.0,2,0,0,19775,WMM1,755187,false,false,997,image-keyboard-response,8
true,10,2,1,0,false,q,false,false,0.0-2.0-0.34-0.307-3.307,0,0,0,68,false,stim,true,2,837.0,2,0,1,19775,WMM1,757534,false,false,1000,image-keyboard-response,9
true,10,1,1,1,true,z,false,true,0.0-2.0-0.34-0.308-3.308,0,0,0,90,false,stim,false,0,1146.0,2,0,0,19775,WMM1,760203,false,false,1003,image-keyboard-response,10
true,10,0,1,0,true,q,false,true,0.0-2.0-0.34-0.309-3.309,0,0,0,81,false,stim,false,1,679.0,2,0,2,19775,WMM1,762391,false,false,1006,image-keyboard-response,11
true,10,1,1,1,true,z,false,true,0.0-2.0-0.34-0.310-3.310,0,0,0,90,false,stim,false,0,548.0,2,0,0,19775,WMM1,764454,false,false,1009,image-keyboard-response,12
true,10,0,1,0,true,q,false,true,0.0-2.0-0.34-0.311-3.311,0,0,0,81,false,stim,false,2,873.0,2,0,1,19775,WMM1,766835,false,false,1012,image-keyboard-response,13
true,10,0,1,0,true,q,false,false,0.0-2.0-0.34-0.312-3.312,0,0,0,81,false,stim,false,1,720.0,2,0,2,19775,WMM1,769066,false,true,1015,image-keyboard-response,14
true,10,0,1,0,true,q,false,false,0.0-2.0-0.34-0.313-3.313,0,0,0,81,false,stim,false,1,701.0,2,0,2,19775,WMM1,771278,false,true,1018,image-keyboard-response,15
true,10,1,1,0,false,q,true,false,0.0-2.0-0.34-0.314-3.314,0,0,0,90,false,stim,false,2,682.9999999998836,2,0,1,19775,WMM1,773469,false,false,1021,image-keyboard-response,16
true,10,1,1,1,true,z,false,true,0.0-2.0-0.35-0.315-3.315,0,0,0,90,false,stim,false,0,1087.0,2,0,0,19775,WMM1,776071,false,false,1024,image-keyboard-response,17
true,10,0,1,0,true,q,false,true,0.0-2.0-0.35-0.316-3.316,0,0,0,81,false,stim,false,1,1110.0,2,0,2,19775,WMM1,778693,false,false,1027,image-keyboard-response,18
true,10,1,1,1,true,z,false,false,0.0-2.0-0.35-0.317-3.317,0,0,0,90,false,stim,false,0,1079.0,2,0,0,19775,WMM1,781284,false,true,1030,image-keyboard-response,19
true,10,0,1,0,true,q,false,true,0.0-2.0-0.35-0.318-3.318,0,0,0,81,false,stim,false,1,734.0,2,0,2,19775,WMM1,783528,false,false,1033,image-keyboard-response,20
true,10,2,1,0,false,q,false,false,0.0-2.0-0.35-0.319-3.319,0,0,0,68,false,stim,true,2,551.0,2,0,1,19775,WMM1,785590,false,false,1036,image-keyboard-response,21
true,10,0,1,0,true,q,false,true,0.0-2.0-0.35-0.320-3.320,0,0,0,81,false,stim,false,2,418.9999999998836,2,0,1,19775,WMM1,787522,false,false,1039,image-keyboard-response,22
true,10,0,1,0,true,q,false,true,0.0-2.0-0.35-0.321-3.321,0,0,0,81,false,stim,false,1,523.0,2,0,2,19775,WMM1,789556,false,false,1042,image-keyboard-response,23
true,10,0,1,0,true,q,false,true,0.0-2.0-0.35-0.322-3.322,0,0,0,81,false,stim,false,2,456.0,2,0,1,19775,WMM1,791525,false,false,1045,image-keyboard-response,24
true,10,1,1,1,true,z,false,true,0.0-2.0-0.35-0.323-3.323,0,0,0,90,false,stim,false,0,531.0,2,0,0,19775,WMM1,793570,false,false,1048,image-keyboard-response,25
true,10,1,1,1,true,z,false,true,0.0-2.0-0.36-0.324-3.324,0,0,0,90,false,stim,false,0,586.9999999998836,2,0,0,19775,WMM1,795670,false,false,1051,image-keyboard-response,26
true,10,1,1,1,true,z,false,true,0.0-2.0-0.36-0.325-3.325,0,0,0,90,false,stim,false,0,563.0,2,0,0,19775,WMM1,797743,false,false,1054,image-keyboard-response,27
true,10,1,1,1,true,z,false,true,0.0-2.0-0.36-0.326-3.326,0,0,0,90,false,stim,false,0,442.0,2,0,0,19775,WMM1,799698,false,false,1057,image-keyboard-response,28
true,10,0,1,0,true,q,false,true,0.0-2.0-0.36-0.327-3.327,0,0,0,81,false,stim,false,1,649.0,2,0,2,19775,WMM1,801856,false,false,1060,image-keyboard-response,29
true,10,0,1,0,true,q,false,true,0.0-2.0-0.36-0.328-3.328,0,0,0,81,false,stim,false,1,453.9999999998836,2,0,2,19775,WMM1,803821,false,false,1063,image-keyboard-response,30
true,10,0,1,0,true,q,false,true,0.0-2.0-0.36-0.329-3.329,0,0,0,81,false,stim,false,2,691.0,2,0,1,19775,WMM1,806022,false,false,1066,image-keyboard-response,31
true,10,0,1,0,true,q,false,true,0.0-2.0-0.36-0.330-3.330,0,0,0,81,false,stim,false,2,483.0,2,0,1,19775,WMM1,808017,false,false,1069,image-keyboard-response,32
true,10,0,1,0,true,q,false,true,0.0-2.0-0.36-0.331-3.331,0,0,0,81,false,stim,false,2,690.0,2,0,1,19775,WMM1,810217,false,false,1072,image-keyboard-response,33
true,10,0,1,0,true,q,false,true,0.0-2.0-0.36-0.332-3.332,0,0,0,81,false,stim,false,1,582.9999999998836,2,0,2,19775,WMM1,812315,false,false,1075,image-keyboard-response,34
true,11,0,2,1,false,z,false,false,0.0-2.0-0.37-0.333-3.333,0,0,0,81,true,stim,true,0,471.0,2,0,2,19775,WMM1,814300,false,false,1078,image-keyboard-response,1
true,11,0,2,2,false,d,false,false,0.0-2.0-0.37-0.334-3.334,0,0,0,81,false,stim,true,0,686.0000000001164,2,0,1,19775,WMM1,816500,false,false,1081,image-keyboard-response,2
true,11,0,2,0,true,q,false,true,0.0-2.0-0.37-0.335-3.335,0,0,0,81,false,stim,false,1,502.0,2,0,0,19775,WMM1,818515,false,false,1084,image-keyboard-response,3
true,11,0,2,0,true,q,false,true,0.0-2.0-0.37-0.336-3.336,0,0,0,81,false,stim,false,1,490.0,2,0,0,19775,WMM1,820514,false,false,1087,image-keyboard-response,4
true,11,1,2,1,true,z,false,false,0.0-2.0-0.37-0.337-3.337,0,0,0,90,false,stim,false,0,581.0,2,0,2,19775,WMM1,822609,false,true,1090,image-keyboard-response,5
true,11,2,2,2,true,d,false,true,0.0-2.0-0.37-0.338-3.338,0,0,0,68,false,stim,false,0,961.0,2,0,1,19775,WMM1,825081,false,false,1093,image-keyboard-response,6
true,11,2,2,1,false,z,true,false,0.0-2.0-0.37-0.339-3.339,0,0,0,68,false,stim,false,0,529.0,2,0,2,19775,WMM1,827121,false,false,1096,image-keyboard-response,7
true,11,2,2,2,true,d,false,true,0.0-2.0-0.37-0.340-3.340,0,0,0,68,false,stim,false,0,866.0,2,0,1,19775,WMM1,829498,false,false,1099,image-keyboard-response,8
true,11,0,2,0,true,q,false,true,0.0-2.0-0.37-0.341-3.341,0,0,0,81,false,stim,false,1,647.0,2,0,0,19775,WMM1,831663,false,false,1102,image-keyboard-response,9
true,11,0,2,0,true,q,false,true,0.0-2.0-0.38-0.342-3.342,0,0,0,81,false,stim,false,1,505.0,2,0,0,19775,WMM1,833680,false,false,1105,image-keyboard-response,10
true,11,2,2,2,true,d,false,true,0.0-2.0-0.38-0.343-3.343,0,0,0,68,false,stim,false,0,895.0,2,0,1,19775,WMM1,836089,false,false,1108,image-keyboard-response,11
true,11,0,2,2,false,d,false,false,0.0-2.0-0.38-0.344-3.344,0,0,0,81,false,stim,true,0,781.9999999998836,2,0,1,19775,WMM1,838383,false,false,1111,image-keyboard-response,12
true,11,0,2,0,true,q,false,true,0.0-2.0-0.38-0.345-3.345,0,0,0,81,false,stim,false,1,594.0,2,0,0,19775,WMM1,840487,false,false,1114,image-keyboard-response,13
true,11,0,2,1,false,z,false,false,0.0-2.0-0.38-0.346-3.346,0,0,0,81,false,stim,true,0,549.0,2,0,2,19775,WMM1,842545,false,false,1117,image-keyboard-response,14
true,11,1,2,1,true,z,false,true,0.0-2.0-0.38-0.347-3.347,0,0,0,90,false,stim,false,0,827.0,2,0,2,19775,WMM1,844882,false,false,1120,image-keyboard-response,15
true,11,2,2,2,true,d,false,true,0.0-2.0-0.38-0.348-3.348,0,0,0,68,false,stim,false,0,1170.0,2,0,1,19775,WMM1,847565,false,false,1123,image-keyboard-response,16
true,11,1,2,1,true,z,false,true,0.0-2.0-0.38-0.349-3.349,0,0,0,90,false,stim,false,0,476.0,2,0,2,19775,WMM1,849553,false,false,1126,image-keyboard-response,17
true,11,0,2,0,true,q,false,true,0.0-2.0-0.38-0.350-3.350,0,0,0,81,false,stim,false,1,679.0,2,0,0,19775,WMM1,851747,false,false,1129,image-keyboard-response,18
true,11,1,2,1,true,z,false,true,0.0-2.0-0.39-0.351-3.351,0,0,0,90,false,stim,false,0,535.0,2,0,2,19775,WMM1,853792,false,false,1132,image-keyboard-response,19
true,11,2,2,2,true,d,false,true,0.0-2.0-0.39-0.352-3.352,0,0,0,68,false,stim,false,0,481.0,2,0,1,19775,WMM1,855784,false,false,1135,image-keyboard-response,20
true,11,2,2,2,true,d,false,true,0.0-2.0-0.39-0.353-3.353,0,0,0,68,false,stim,false,0,564.0,2,0,1,19775,WMM1,857862,false,false,1138,image-keyboard-response,21
true,11,0,2,0,true,q,false,true,0.0-2.0-0.39-0.354-3.354,0,0,0,81,false,stim,false,1,649.0,2,0,0,19775,WMM1,860022,false,false,1141,image-keyboard-response,22
true,11,2,2,2,true,d,false,true,0.0-2.0-0.39-0.355-3.355,0,0,0,68,false,stim,false,0,750.0,2,0,1,19775,WMM1,862281,false,false,1144,image-keyboard-response,23
true,11,0,2,0,true,q,false,true,0.0-2.0-0.39-0.356-3.356,0,0,0,81,false,stim,false,1,650.0,2,0,0,19775,WMM1,864444,false,false,1147,image-keyboard-response,24
true,11,0,2,0,true,q,false,true,0.0-2.0-0.39-0.357-3.357,0,0,0,81,false,stim,false,1,715.0,2,0,0,19775,WMM1,866672,false,false,1150,image-keyboard-response,25
true,11,1,2,1,true,z,false,true,0.0-2.0-0.39-0.358-3.358,0,0,0,90,false,stim,false,0,585.0,2,1,2,19775,WMM1,868765,false,false,1153,image-keyboard-response,26
true,11,1,2,1,true,z,false,true,0.0-2.0-0.39-0.359-3.359,0,0,0,90,false,stim,false,0,577.0,2,1,2,19775,WMM1,870854,false,false,1156,image-keyboard-response,27
true,11,2,2,2,true,d,false,true,0.0-2.0-0.40-0.360-3.360,0,0,0,68,false,stim,false,0,577.0,2,0,1,19775,WMM1,872940,false,false,1159,image-keyboard-response,28
true,11,0,2,0,true,q,false,true,0.0-2.0-0.40-0.361-3.361,0,0,0,81,false,stim,false,1,963.0,2,0,0,19775,WMM1,875417,false,false,1162,image-keyboard-response,29
true,11,0,2,0,true,q,false,true,0.0-2.0-0.40-0.362-3.362,0,0,0,81,false,stim,false,1,652.9999999998836,2,0,0,19775,WMM1,877584,false,false,1165,image-keyboard-response,30
true,12,1,3,1,true,z,false,true,0.0-2.0-0.40-0.363-3.363,0,0,1,90,true,stim,false,1,654.0,2,1,2,19775,WMM1,879752,false,false,1168,image-keyboard-response,1
true,12,2,3,1,false,z,false,false,0.0-2.0-0.40-0.364-3.364,0,0,1,68,false,stim,true,2,807.9999999998836,2,0,1,19775,WMM1,882071,false,false,1171,image-keyboard-response,2
true,12,1,3,1,true,z,false,true,0.0-2.0-0.40-0.365-3.365,0,0,1,90,false,stim,false,1,642.0,2,1,2,19775,WMM1,884223,false,false,1174,image-keyboard-response,3
true,12,0,3,2,false,d,false,false,0.0-2.0-0.40-0.366-3.366,0,0,1,81,false,stim,true,0,530.0,2,0,0,19775,WMM1,886265,false,false,1177,image-keyboard-response,4
true,12,1,3,1,true,z,false,true,0.0-2.0-0.40-0.367-3.367,0,0,1,90,false,stim,false,1,657.0,2,1,2,19775,WMM1,888429,false,false,1180,image-keyboard-response,5
true,12,2,3,1,false,z,false,false,0.0-2.0-0.40-0.368-3.368,0,0,1,68,false,stim,true,2,490.0,2,0,1,19775,WMM1,890429,false,false,1183,image-keyboard-response,6
true,12,1,3,1,true,z,false,true,0.0-2.0-0.41-0.369-3.369,0,0,1,90,false,stim,false,1,1148.0,2,1,2,19775,WMM1,893088,false,false,1186,image-keyboard-response,7
true,12,1,3,1,true,z,false,true,0.0-2.0-0.41-0.370-3.370,0,0,1,90,false,stim,false,1,756.0,2,1,2,19775,WMM1,895357,false,false,1189,image-keyboard-response,8
true,12,0,3,1,false,z,true,false,0.0-2.0-0.41-0.371-3.371,0,0,1,81,false,stim,false,2,538.0,2,0,1,19775,WMM1,897403,false,false,1192,image-keyboard-response,9
true,12,0,3,1,false,z,true,false,0.0-2.0-0.41-0.372-3.372,0,0,1,81,false,stim,false,2,797.0,2,0,1,19775,WMM1,899713,false,false,1195,image-keyboard-response,10
true,12,2,3,2,true,d,false,true,0.0-2.0-0.41-0.373-3.373,0,0,1,68,false,stim,false,0,855.0000000001164,2,0,0,19775,WMM1,902079,false,false,1198,image-keyboard-response,11
true,12,2,3,2,true,d,false,true,0.0-2.0-0.41-0.374-3.374,0,0,1,68,false,stim,false,0,592.0,2,0,0,19775,WMM1,904189,false,false,1201,image-keyboard-response,12
true,12,1,3,1,true,z,false,false,0.0-2.0-0.41-0.375-3.375,0,0,1,90,false,stim,false,1,631.0,2,1,2,19775,WMM1,906333,false,true,1204,image-keyboard-response,13
true,12,1,3,1,true,z,false,true,0.0-2.0-0.41-0.376-3.376,0,0,1,90,false,stim,false,2,643.0,2,0,1,19775,WMM1,908489,false,false,1207,image-keyboard-response,14
true,12,0,3,2,false,d,false,false,0.0-2.0-0.41-0.377-3.377,0,0,1,81,false,stim,true,0,605.0000000001164,2,0,0,19775,WMM1,910608,false,false,1210,image-keyboard-response,15
true,12,1,3,1,true,z,false,true,0.0-2.0-0.42-0.378-3.378,0,0,1,90,false,stim,false,2,710.0,2,0,1,19775,WMM1,912833,false,false,1213,image-keyboard-response,16
true,12,1,3,1,true,z,false,true,0.0-2.0-0.42-0.379-3.379,0,0,1,90,false,stim,false,2,705.0,2,0,1,19775,WMM1,915049,false,false,1216,image-keyboard-response,17
true,12,2,3,2,true,d,false,true,0.0-2.0-0.42-0.380-3.380,0,0,1,68,false,stim,false,0,615.0,2,0,0,19775,WMM1,917175,false,false,1219,image-keyboard-response,18
true,12,2,3,2,true,d,false,true,0.0-2.0-0.42-0.381-3.381,0,0,1,68,false,stim,false,0,705.0,2,0,0,19775,WMM1,919392,false,false,1222,image-keyboard-response,19
true,12,1,3,1,true,z,false,false,0.0-2.0-0.42-0.382-3.382,0,0,1,90,false,stim,false,1,777.0,2,1,2,19775,WMM1,921681,false,true,1225,image-keyboard-response,20
true,12,0,3,1,false,z,true,false,0.0-2.0-0.42-0.383-3.383,0,0,1,81,false,stim,false,1,634.0,2,0,2,19775,WMM1,923832,false,false,1228,image-keyboard-response,21
true,12,1,3,1,true,z,false,true,0.0-2.0-0.42-0.384-3.384,0,0,1,90,false,stim,false,2,789.0000000001164,2,0,1,19775,WMM1,926131,false,false,1231,image-keyboard-response,22
true,12,2,3,1,false,z,true,false,0.0-2.0-0.42-0.385-3.385,0,0,1,68,false,stim,false,1,784.0,2,0,2,19775,WMM1,928429,false,false,1234,image-keyboard-response,23
true,12,2,3,2,true,d,false,true,0.0-2.0-0.42-0.386-3.386,0,0,1,68,false,stim,false,0,635.0,2,0,0,19775,WMM1,930577,false,false,1237,image-keyboard-response,24
true,12,2,3,2,true,d,false,false,0.0-2.0-0.43-0.387-3.387,0,0,1,68,false,stim,false,0,542.0,2,0,0,19775,WMM1,932633,false,true,1240,image-keyboard-response,25
true,12,1,3,1,true,z,false,true,0.0-2.0-0.43-0.388-3.388,0,0,1,90,false,stim,false,2,622.0,2,0,1,19775,WMM1,934768,false,false,1243,image-keyboard-response,26
true,12,1,3,1,true,z,false,true,0.0-2.0-0.43-0.389-3.389,0,0,1,90,false,stim,false,1,774.0,2,0,2,19775,WMM1,937056,false,false,1246,image-keyboard-response,27
true,12,2,3,2,true,d,false,true,0.0-2.0-0.43-0.390-3.390,0,0,1,68,false,stim,false,0,955.0000000001164,2,0,0,19775,WMM1,939519,false,false,1249,image-keyboard-response,28
true,12,2,3,2,true,d,false,true,0.0-2.0-0.43-0.391-3.391,0,0,1,68,false,stim,false,0,614.0,2,0,0,19775,WMM1,941646,false,false,1252,image-keyboard-response,29
true,12,1,3,1,true,z,false,true,0.0-2.0-0.43-0.392-3.392,0,0,1,90,false,stim,false,2,706.0,2,0,1,19775,WMM1,943863,false,false,1255,image-keyboard-response,30
true,13,1,1,2,false,d,false,false,0.0-2.0-0.43-0.393-3.393,0,0,0,90,true,stim,true,1,714.0,2,0,2,19775,WMM1,946092,false,false,1258,image-keyboard-response,1
true,13,1,1,2,false,d,false,false,0.0-2.0-0.43-0.394-3.394,0,0,0,90,false,stim,true,1,716.0,2,0,1,19775,WMM1,948322,false,false,1261,image-keyboard-response,2
true,13,0,1,2,false,d,true,false,0.0-2.0-0.43-0.395-3.395,0,0,0,81,false,stim,false,1,553.9999999998836,2,0,2,19775,WMM1,950386,false,false,1264,image-keyboard-response,3
true,13,1,1,2,false,d,false,false,0.0-2.0-0.44-0.396-3.396,0,0,0,90,false,stim,true,1,655.0,2,0,1,19775,WMM1,952551,false,false,1267,image-keyboard-response,4
true,13,0,1,2,false,d,true,false,0.0-2.0-0.44-0.397-3.397,0,0,0,81,false,stim,false,1,1011.0,2,0,2,19775,WMM1,955071,false,false,1270,image-keyboard-response,5
true,13,2,1,0,false,q,false,false,0.0-2.0-0.44-0.398-3.398,0,0,0,68,false,stim,true,2,755.9999999998836,2,0,0,19775,WMM1,957338,false,false,1273,image-keyboard-response,6
true,13,2,1,2,true,d,false,true,0.0-2.0-0.44-0.399-3.399,0,0,0,68,false,stim,false,1,963.0,2,0,2,19775,WMM1,959811,false,false,1276,image-keyboard-response,7
true,13,2,1,2,true,d,false,true,0.0-2.0-0.44-0.400-3.400,0,0,0,68,false,stim,false,1,542.0,2,0,1,19775,WMM1,961865,false,false,1279,image-keyboard-response,8
true,13,0,1,0,true,q,false,true,0.0-2.0-0.44-0.401-3.401,0,0,0,81,false,stim,false,2,520.0,2,0,0,19775,WMM1,963897,false,false,1282,image-keyboard-response,9
true,13,2,1,2,true,d,false,false,0.0-2.0-0.44-0.402-3.402,0,0,0,68,false,stim,false,1,539.0,2,0,1,19775,WMM1,965945,false,true,1285,image-keyboard-response,10
true,13,2,1,2,true,d,false,true,0.0-2.0-0.44-0.403-3.403,0,0,0,68,false,stim,false,1,570.9999999998836,2,0,2,19775,WMM1,968028,false,false,1288,image-keyboard-response,11
true,13,0,1,0,true,q,false,true,0.0-2.0-0.44-0.404-3.404,0,0,0,81,false,stim,false,2,579.0,2,0,0,19775,WMM1,970118,false,false,1291,image-keyboard-response,12
true,13,0,1,0,true,q,false,true,0.0-2.0-0.45-0.405-3.405,0,0,0,81,false,stim,false,2,675.0000000001164,2,0,0,19775,WMM1,972302,false,false,1294,image-keyboard-response,13
true,13,0,1,0,true,q,false,true,0.0-2.0-0.45-0.406-3.406,0,0,0,81,false,stim,false,2,616.0,2,0,0,19775,WMM1,974430,false,false,1297,image-keyboard-response,14
true,13,2,1,2,true,d,false,true,0.0-2.0-0.45-0.407-3.407,0,0,0,68,false,stim,false,1,636.0,2,0,2,19775,WMM1,976578,false,false,1300,image-keyboard-response,15
true,13,2,1,2,true,d,false,true,0.0-2.0-0.45-0.408-3.408,0,0,0,68,false,stim,false,1,648.0,2,0,2,19775,WMM1,978746,false,false,1303,image-keyboard-response,16
true,13,0,1,0,true,q,false,true,0.0-2.0-0.45-0.409-3.409,0,0,0,81,false,stim,false,2,679.0,2,0,0,19775,WMM1,980935,false,false,1306,image-keyboard-response,17
true,13,1,1,2,false,d,false,false,0.0-2.0-0.45-0.410-3.410,0,0,0,90,false,stim,true,1,699.0,2,0,1,19775,WMM1,983144,false,false,1309,image-keyboard-response,18
true,13,2,1,2,true,d,false,false,0.0-2.0-0.45-0.411-3.411,0,0,0,68,false,stim,false,1,641.0,2,0,2,19775,WMM1,985295,false,true,1312,image-keyboard-response,19
true,13,0,1,2,false,d,true,false,0.0-2.0-0.45-0.412-3.412,0,0,0,81,false,stim,false,1,524.9999999998836,2,0,1,19775,WMM1,987332,false,false,1315,image-keyboard-response,20
true,13,2,1,2,true,d,false,true,0.0-2.0-0.45-0.413-3.413,0,0,0,68,false,stim,false,1,606.0,2,0,1,19775,WMM1,989450,false,false,1318,image-keyboard-response,21
true,13,2,1,2,true,d,false,true,0.0-2.0-0.46-0.414-3.414,0,0,0,68,false,stim,false,1,535.9999999998836,2,0,1,19775,WMM1,991501,false,false,1321,image-keyboard-response,22
true,13,2,1,2,true,d,false,true,0.0-2.0-0.46-0.415-3.415,0,0,0,68,false,stim,false,1,509.0,2,0,2,19775,WMM1,993524,false,false,1324,image-keyboard-response,23
true,13,0,1,0,true,q,false,true,0.0-2.0-0.46-0.416-3.416,0,0,0,81,false,stim,false,2,590.0,2,1,0,19775,WMM1,995627,false,false,1327,image-keyboard-response,24
true,13,0,1,0,true,q,false,false,0.0-2.0-0.46-0.417-3.417,0,0,0,81,false,stim,false,2,1067.0,2,1,0,19775,WMM1,998209,false,true,1330,image-keyboard-response,25
true,13,2,1,2,true,d,false,true,0.0-2.0-0.46-0.418-3.418,0,0,0,68,false,stim,false,1,615.9999999998836,2,1,1,19775,WMM1,1000335,false,false,1333,image-keyboard-response,26
true,13,2,1,2,true,d,false,true,0.0-2.0-0.46-0.419-3.419,0,0,0,68,false,stim,false,1,696.0000000001164,2,1,2,19775,WMM1,1002541,false,false,1336,image-keyboard-response,27
true,13,2,1,2,true,d,false,true,0.0-2.0-0.46-0.420-3.420,0,0,0,68,false,stim,false,1,653.0,2,1,2,19775,WMM1,1004703,false,false,1339,image-keyboard-response,28
true,13,0,1,0,true,q,false,true,0.0-2.0-0.46-0.421-3.421,0,0,0,81,false,stim,false,2,661.9999999998836,2,1,0,19775,WMM1,1006876,false,false,1342,image-keyboard-response,29
true,13,2,1,2,true,d,false,true,0.0-2.0-0.46-0.422-3.422,0,0,0,68,false,stim,false,1,518.0,2,1,1,19775,WMM1,1008908,false,false,1345,image-keyboard-response,30
true,13,0,1,0,true,q,false,true,0.0-2.0-0.47-0.423-3.423,0,0,0,81,false,stim,false,2,820.9999999998836,2,1,0,19775,WMM1,1011242,false,false,1348,image-keyboard-response,31
true,13,0,1,0,true,q,false,true,0.0-2.0-0.47-0.424-3.424,0,0,0,81,false,stim,false,2,520.0,2,1,0,19775,WMM1,1013271,false,false,1351,image-keyboard-response,32
true,13,2,1,2,true,d,false,true,0.0-2.0-0.47-0.425-3.425,0,0,0,68,false,stim,false,1,707.0,2,1,1,19775,WMM1,1015489,false,false,1354,image-keyboard-response,33
true,14,2,0,0,false,q,true,false,0.0-2.0-0.47-0.426-3.426,1,1,1,68,true,stim,false,0,140.0,2,1,0,19775,WMM1,1099610,false,false,1440,image-keyboard-response,1
true,14,0,0,2,false,d,true,true,0.0-2.0-0.47-0.427-3.427,1,1,1,81,false,stim,false,2,712.0,2,1,2,19775,WMM1,1101831,false,true,1443,image-keyboard-response,2
true,14,0,0,2,false,d,true,false,0.0-2.0-0.47-0.428-3.428,1,1,1,81,false,stim,false,2,594.0,2,1,2,19775,WMM1,1103937,false,false,1446,image-keyboard-response,3
true,14,1,0,2,false,d,true,false,0.0-2.0-0.47-0.429-3.429,1,1,1,90,false,stim,false,2,455.0,2,1,1,19775,WMM1,1105903,false,false,1449,image-keyboard-response,4
true,14,2,0,2,true,d,false,true,0.0-2.0-0.47-0.430-3.430,1,1,1,68,false,stim,false,2,570.0,2,1,1,19775,WMM1,1107984,false,false,1452,image-keyboard-response,5
true,14,0,0,2,false,d,true,true,0.0-2.0-0.47-0.431-3.431,1,1,1,81,false,stim,false,2,678.0,2,1,2,19775,WMM1,1110175,false,true,1455,image-keyboard-response,6
true,14,0,0,2,false,d,true,false,0.0-2.0-0.48-0.432-3.432,1,1,1,81,false,stim,false,2,628.0,2,1,2,19775,WMM1,1112315,false,false,1458,image-keyboard-response,7
true,14,0,0,2,false,d,true,false,0.0-2.0-0.48-0.433-3.433,1,1,1,81,false,stim,false,2,586.0,2,1,2,19775,WMM1,1114411,false,false,1461,image-keyboard-response,8
true,14,1,0,0,false,q,true,false,0.0-2.0-0.48-0.434-3.434,1,1,1,90,false,stim,false,0,752.0,2,1,0,19775,WMM1,1116672,false,false,1464,image-keyboard-response,9
true,14,0,0,0,true,q,false,true,0.0-2.0-0.48-0.435-3.435,1,1,1,81,false,stim,false,0,495.99999999976717,2,1,0,19775,WMM1,1118679,false,false,1467,image-keyboard-response,10
true,14,2,0,2,true,d,false,true,0.0-2.0-0.48-0.436-3.436,1,1,1,68,false,stim,false,2,769.0000000002328,2,1,1,19775,WMM1,1120962,false,false,1470,image-keyboard-response,11
true,14,2,0,2,true,d,false,true,0.0-2.0-0.48-0.437-3.437,1,1,1,68,false,stim,false,2,813.0,2,1,1,19775,WMM1,1123287,false,false,1473,image-keyboard-response,12
true,14,0,0,0,true,q,false,true,0.0-2.0-0.48-0.438-3.438,1,1,1,81,false,stim,false,0,589.0,2,1,0,19775,WMM1,1125386,false,false,1476,image-keyboard-response,13
true,14,2,0,2,true,d,false,true,0.0-2.0-0.48-0.439-3.439,1,1,1,68,false,stim,false,2,688.0,2,1,1,19775,WMM1,1127584,false,false,1479,image-keyboard-response,14
true,14,1,0,2,false,d,true,false,0.0-2.0-0.48-0.440-3.440,1,1,1,90,false,stim,false,2,530.0,2,1,2,19775,WMM1,1129624,false,false,1482,image-keyboard-response,15
true,14,2,0,2,true,d,false,true,0.0-2.0-0.49-0.441-3.441,1,1,1,68,false,stim,false,2,565.0,2,1,2,19775,WMM1,1131703,false,false,1485,image-keyboard-response,16
true,14,2,0,2,true,d,false,true,0.0-2.0-0.49-0.442-3.442,1,1,1,68,false,stim,false,2,607.0,2,1,1,19775,WMM1,1133821,false,false,1488,image-keyboard-response,17
true,14,2,0,2,true,d,false,true,0.0-2.0-0.49-0.443-3.443,1,1,1,68,false,stim,false,2,792.0,2,1,2,19775,WMM1,1136122,false,false,1491,image-keyboard-response,18
true,14,2,0,2,true,d,false,true,0.0-2.0-0.49-0.444-3.444,1,1,1,68,false,stim,false,2,557.0,2,1,1,19775,WMM1,1138195,false,false,1494,image-keyboard-response,19
true,14,0,0,0,true,q,false,true,0.0-2.0-0.49-0.445-3.445,1,1,1,81,false,stim,false,0,619.0,2,1,0,19775,WMM1,1140327,false,false,1497,image-keyboard-response,20
true,14,2,0,2,true,d,false,true,0.0-2.0-0.49-0.446-3.446,1,1,1,68,false,stim,false,2,656.0000000002328,2,0,1,19775,WMM1,1142500,false,false,1500,image-keyboard-response,21
true,14,0,0,0,true,q,false,false,0.0-2.0-0.49-0.447-3.447,1,1,1,81,false,stim,false,0,653.0,2,0,0,19775,WMM1,1144675,false,true,1503,image-keyboard-response,22
true,14,2,0,2,true,d,false,true,0.0-2.0-0.49-0.448-3.448,1,1,1,68,false,stim,false,2,652.0,2,1,2,19775,WMM1,1146838,false,false,1506,image-keyboard-response,23
true,14,0,0,0,true,q,false,true,0.0-2.0-0.49-0.449-3.449,1,1,1,81,false,stim,false,0,673.0,2,0,0,19775,WMM1,1149026,false,false,1509,image-keyboard-response,24
true,14,2,0,2,true,d,false,true,0.0-2.0-0.50-0.450-3.450,1,1,1,68,false,stim,false,2,531.0,2,0,1,19775,WMM1,1151067,false,false,1512,image-keyboard-response,25
true,14,0,0,0,true,q,false,true,0.0-2.0-0.50-0.451-3.451,1,1,1,81,false,stim,false,0,615.0,2,0,0,19775,WMM1,1153192,false,false,1515,image-keyboard-response,26
true,14,2,0,2,true,d,false,true,0.0-2.0-0.50-0.452-3.452,1,1,1,68,false,stim,false,2,568.0,2,0,1,19775,WMM1,1155272,false,false,1518,image-keyboard-response,27
true,14,0,0,0,true,q,false,true,0.0-2.0-0.50-0.453-3.453,1,1,1,81,false,stim,false,0,662.0,2,0,0,19775,WMM1,1157448,false,false,1521,image-keyboard-response,28
true,14,2,0,2,true,d,false,true,0.0-2.0-0.50-0.454-3.454,1,1,1,68,false,stim,false,2,812.0,2,1,2,19775,WMM1,1159773,false,false,1524,image-keyboard-response,29
true,14,2,0,2,true,d,false,true,0.0-2.0-0.50-0.455-3.455,1,1,1,68,false,stim,false,2,583.0,2,1,2,19775,WMM1,1161869,false,false,1527,image-keyboard-response,30
true,15,0,3,2,false,d,false,false,0.0-2.0-0.50-0.456-3.456,0,0,1,81,true,stim,true,0,596.0,2,0,0,19775,WMM1,1163976,false,false,1530,image-keyboard-response,1
true,15,2,3,0,false,q,false,false,0.0-2.0-0.50-0.457-3.457,0,0,1,68,false,stim,true,2,757.0,2,0,1,19775,WMM1,1166246,false,false,1533,image-keyboard-response,2
true,15,2,3,2,true,d,false,true,0.0-2.0-0.50-0.458-3.458,0,0,1,68,false,stim,false,2,638.0,2,1,2,19775,WMM1,1168389,false,false,1536,image-keyboard-response,3
true,15,1,3,2,false,d,true,false,0.0-2.0-0.51-0.459-3.459,0,0,1,90,false,stim,false,0,586.0,2,0,0,19775,WMM1,1170488,false,false,1539,image-keyboard-response,4
true,15,2,3,2,true,d,false,true,0.0-2.0-0.51-0.460-3.460,0,0,1,68,false,stim,false,0,487.0,2,0,0,19775,WMM1,1172487,false,false,1542,image-keyboard-response,5
true,15,2,3,2,true,d,false,true,0.0-2.0-0.51-0.461-3.461,0,0,1,68,false,stim,false,0,537.9999999997672,2,0,0,19775,WMM1,1174536,false,false,1545,image-keyboard-response,6
true,15,2,3,2,true,d,false,true,0.0-2.0-0.51-0.462-3.462,0,0,1,68,false,stim,false,2,526.0,2,1,2,19775,WMM1,1176577,false,false,1548,image-keyboard-response,7
true,15,2,3,0,false,q,false,false,0.0-2.0-0.51-0.463-3.463,0,0,1,68,false,stim,true,2,656.0,2,0,1,19775,WMM1,1178745,false,false,1551,image-keyboard-response,8
true,15,2,3,2,true,d,false,true,0.0-2.0-0.51-0.464-3.464,0,0,1,68,false,stim,false,2,787.0,2,1,2,19775,WMM1,1181048,false,false,1554,image-keyboard-response,9
true,15,2,3,2,true,d,false,true,0.0-2.0-0.51-0.465-3.465,0,0,1,68,false,stim,false,2,670.0,2,1,2,19775,WMM1,1183232,false,false,1557,image-keyboard-response,10
true,15,2,3,0,false,q,false,false,0.0-2.0-0.51-0.466-3.466,0,0,1,68,false,stim,true,2,1044.0,2,0,1,19775,WMM1,1185789,false,false,1560,image-keyboard-response,11
true,15,1,3,0,false,q,true,false,0.0-2.0-0.51-0.467-3.467,0,0,1,90,false,stim,false,2,510.0,2,0,1,19775,WMM1,1187809,false,false,1563,image-keyboard-response,12
true,15,2,3,2,true,d,false,true,0.0-2.0-0.52-0.468-3.468,0,0,1,68,false,stim,false,0,673.0,2,0,0,19775,WMM1,1189991,false,false,1566,image-keyboard-response,13
true,15,0,3,0,true,q,false,true,0.0-2.0-0.52-0.469-3.469,0,0,1,81,false,stim,false,2,673.0,2,0,1,19775,WMM1,1192176,false,false,1569,image-keyboard-response,14
true,15,2,3,2,true,d,false,true,0.0-2.0-0.52-0.470-3.470,0,0,1,68,false,stim,false,2,422.0,2,1,2,19775,WMM1,1194113,false,false,1572,image-keyboard-response,15
true,15,2,3,0,false,q,false,false,0.0-2.0-0.52-0.471-3.471,0,0,1,68,false,stim,true,2,569.0,2,0,1,19775,WMM1,1196196,false,false,1575,image-keyboard-response,16
true,15,2,3,2,true,d,false,true,0.0-2.0-0.52-0.472-3.472,0,0,1,68,false,stim,false,2,659.0,2,1,2,19775,WMM1,1198366,false,false,1578,image-keyboard-response,17
true,15,2,3,2,true,d,false,true,0.0-2.0-0.52-0.473-3.473,0,0,1,68,false,stim,false,0,652.9999999997672,2,0,0,19775,WMM1,1200535,false,false,1581,image-keyboard-response,18
true,15,2,3,2,true,d,false,true,0.0-2.0-0.52-0.474-3.474,0,0,1,68,false,stim,false,2,596.0,2,1,2,19775,WMM1,1202644,false,false,1584,image-keyboard-response,19
true,15,2,3,2,true,d,false,true,0.0-2.0-0.52-0.475-3.475,0,0,1,68,false,stim,false,0,636.0000000002328,2,0,0,19775,WMM1,1204795,false,false,1587,image-keyboard-response,20
true,15,0,3,0,true,q,false,true,0.0-2.0-0.52-0.476-3.476,0,0,1,81,false,stim,false,2,551.0,2,0,1,19775,WMM1,1206859,false,false,1590,image-keyboard-response,21
true,15,2,3,2,true,d,false,true,0.0-2.0-0.53-0.477-3.477,0,0,1,68,false,stim,false,2,592.0,2,1,2,19775,WMM1,1208967,false,false,1593,image-keyboard-response,22
true,15,0,3,0,true,q,false,true,0.0-2.0-0.53-0.478-3.478,0,0,1,81,false,stim,false,2,647.0,2,0,1,19775,WMM1,1211131,false,false,1596,image-keyboard-response,23
true,15,2,3,2,true,d,false,true,0.0-2.0-0.53-0.479-3.479,0,0,1,68,false,stim,false,2,653.0,2,0,2,19775,WMM1,1213296,false,false,1599,image-keyboard-response,24
true,15,2,3,2,true,d,false,true,0.0-2.0-0.53-0.480-3.480,0,0,1,68,false,stim,false,2,555.0,2,0,2,19775,WMM1,1215375,false,false,1602,image-keyboard-response,25
true,15,0,3,2,false,d,false,true,0.0-2.0-0.53-0.481-3.481,0,0,1,81,false,stim,true,0,704.0,2,0,0,19775,WMM1,1217592,false,true,1605,image-keyboard-response,26
true,15,0,3,0,true,q,false,true,0.0-2.0-0.53-0.482-3.482,0,0,1,81,false,stim,false,2,833.0,2,0,1,19775,WMM1,1219939,false,false,1608,image-keyboard-response,27
true,15,2,3,2,true,d,false,true,0.0-2.0-0.53-0.483-3.483,0,0,1,68,false,stim,false,0,475.0,2,0,0,19775,WMM1,1221928,false,false,1611,image-keyboard-response,28
true,15,2,3,2,true,d,false,true,0.0-2.0-0.53-0.484-3.484,0,0,1,68,false,stim,false,0,673.0,2,0,0,19775,WMM1,1224112,false,false,1614,image-keyboard-response,29
true,15,0,3,0,true,q,false,true,0.0-2.0-0.53-0.485-3.485,0,0,1,81,false,stim,false,2,774.0,2,0,1,19775,WMM1,1226398,false,false,1617,image-keyboard-response,30
true,15,2,3,2,true,d,false,true,0.0-2.0-0.54-0.486-3.486,0,0,1,68,false,stim,false,2,651.0,2,0,2,19775,WMM1,1228565,false,false,1620,image-keyboard-response,31
true,15,0,3,0,true,q,false,false,0.0-2.0-0.54-0.487-3.487,0,0,1,81,false,stim,false,2,943.0,2,0,1,19775,WMM1,1231020,false,true,1623,image-keyboard-response,32
true,15,2,3,2,true,d,false,true,0.0-2.0-0.54-0.488-3.488,0,0,1,68,false,stim,false,2,575.0,2,0,2,19775,WMM1,1233109,false,false,1626,image-keyboard-response,33
true,16,0,2,0,true,q,false,true,0.0-2.0-0.54-0.489-3.489,0,0,0,81,true,stim,false,2,872.0,2,0,0,19775,WMM1,1235494,false,false,1629,image-keyboard-response,1
true,16,0,2,2,false,d,false,false,0.0-2.0-0.54-0.490-3.490,0,0,0,81,false,stim,true,0,717.0,2,0,1,19775,WMM1,1237724,false,false,1632,image-keyboard-response,2
true,16,1,2,0,false,q,true,false,0.0-2.0-0.54-0.491-3.491,0,0,0,90,false,stim,false,2,609.0,2,0,0,19775,WMM1,1239848,false,false,1635,image-keyboard-response,3
true,16,1,2,2,false,d,true,false,0.0-2.0-0.54-0.492-3.492,0,0,0,90,false,stim,false,0,955.0,2,0,1,19775,WMM1,1242316,false,false,1638,image-keyboard-response,4
true,16,2,2,1,false,z,false,false,0.0-2.0-0.54-0.493-3.493,0,0,0,68,false,stim,true,2,530.0,2,0,2,19775,WMM1,1244358,false,false,1641,image-keyboard-response,5
true,16,0,2,0,true,q,false,true,0.0-2.0-0.54-0.494-3.494,0,0,0,81,false,stim,false,2,869.0,2,0,0,19775,WMM1,1246741,false,false,1644,image-keyboard-response,6
true,16,0,2,0,true,q,false,true,0.0-2.0-0.55-0.495-3.495,0,0,0,81,false,stim,false,2,747.0,2,0,0,19775,WMM1,1249004,false,false,1647,image-keyboard-response,7
true,16,1,2,1,true,z,false,false,0.0-2.0-0.55-0.496-3.496,0,0,0,90,false,stim,false,2,844.0,2,0,2,19775,WMM1,1251361,false,true,1650,image-keyboard-response,8
true,16,2,2,2,true,d,false,false,0.0-2.0-0.55-0.497-3.497,0,0,0,68,false,stim,false,0,1009.0,2,0,1,19775,WMM1,1253885,false,true,1653,image-keyboard-response,9
true,16,0,2,2,false,d,false,false,0.0-2.0-0.55-0.498-3.498,0,0,0,81,false,stim,true,0,491.00000000023283,2,0,1,19775,WMM1,1255888,false,false,1656,image-keyboard-response,10
true,16,1,2,1,true,z,false,true,0.0-2.0-0.55-0.499-3.499,0,0,0,90,false,stim,false,2,631.0,2,0,2,19775,WMM1,1258033,false,false,1659,image-keyboard-response,11
true,16,0,2,0,true,q,false,true,0.0-2.0-0.55-0.500-3.500,0,0,0,81,false,stim,false,2,770.0,2,0,0,19775,WMM1,1260320,false,false,1662,image-keyboard-response,12
true,16,1,2,1,true,z,false,true,0.0-2.0-0.55-0.501-3.501,0,0,0,90,false,stim,false,2,521.0,2,0,2,19775,WMM1,1262355,false,false,1665,image-keyboard-response,13
true,16,0,2,0,true,q,false,true,0.0-2.0-0.55-0.502-3.502,0,0,0,81,false,stim,false,2,593.0,2,0,0,19775,WMM1,1264461,false,false,1668,image-keyboard-response,14
true,16,1,2,2,false,d,true,false,0.0-2.0-0.55-0.503-3.503,0,0,0,90,false,stim,false,0,547.0,2,0,1,19775,WMM1,1266520,false,false,1671,image-keyboard-response,15
true,16,2,2,2,true,d,false,true,0.0-2.0-0.56-0.504-3.504,0,0,0,68,false,stim,false,0,616.0,2,0,1,19775,WMM1,1268650,false,false,1674,image-keyboard-response,16
true,16,0,2,0,true,q,false,true,0.0-2.0-0.56-0.505-3.505,0,0,0,81,false,stim,false,2,559.0,2,0,0,19775,WMM1,1270723,false,false,1677,image-keyboard-response,17
true,16,1,2,1,true,z,false,false,0.0-2.0-0.56-0.506-3.506,0,0,0,90,false,stim,false,2,553.0,2,0,2,19775,WMM1,1272789,false,true,1680,image-keyboard-response,18
true,16,2,2,2,true,d,false,false,0.0-2.0-0.56-0.507-3.507,0,0,0,68,false,stim,false,0,527.9999999997672,2,0,1,19775,WMM1,1274830,false,true,1683,image-keyboard-response,19
true,16,1,2,1,true,z,false,false,0.0-2.0-0.56-0.508-3.508,0,0,0,90,false,stim,false,2,598.0,2,0,2,19775,WMM1,1276945,false,true,1686,image-keyboard-response,20
true,16,1,2,1,true,z,false,true,0.0-2.0-0.56-0.509-3.509,0,0,0,90,false,stim,false,2,670.0000000002328,2,0,2,19775,WMM1,1279129,false,false,1689,image-keyboard-response,21
true,16,2,2,2,true,d,false,true,0.0-2.0-0.56-0.510-3.510,0,0,0,68,false,stim,false,0,513.0,2,0,1,19775,WMM1,1281154,false,false,1692,image-keyboard-response,22
true,16,0,2,0,true,q,false,true,0.0-2.0-0.56-0.511-3.511,0,0,0,81,false,stim,false,2,580.0,2,0,0,19775,WMM1,1283244,false,false,1695,image-keyboard-response,23
true,16,0,2,0,true,q,false,true,0.0-2.0-0.56-0.512-3.512,0,0,0,81,false,stim,false,2,600.0,2,0,0,19775,WMM1,1285355,false,false,1698,image-keyboard-response,24
true,16,1,2,1,true,z,false,true,0.0-2.0-0.57-0.513-3.513,0,0,0,90,false,stim,false,2,786.0,2,0,2,19775,WMM1,1287662,false,false,1701,image-keyboard-response,25
true,16,2,2,2,true,d,false,true,0.0-2.0-0.57-0.514-3.514,0,0,0,68,false,stim,false,0,553.0000000002328,2,0,1,19775,WMM1,1289725,false,false,1704,image-keyboard-response,26
true,16,1,2,1,true,z,false,true,0.0-2.0-0.57-0.515-3.515,0,0,0,90,false,stim,false,2,751.0,2,0,2,19775,WMM1,1291988,false,false,1707,image-keyboard-response,27
true,16,1,2,1,true,z,false,true,0.0-2.0-0.57-0.516-3.516,0,0,0,90,false,stim,false,2,602.0,2,0,2,19775,WMM1,1294107,false,false,1710,image-keyboard-response,28
true,16,2,2,2,true,d,false,true,0.0-2.0-0.57-0.517-3.517,0,0,0,68,false,stim,false,0,675.9999999997672,2,0,1,19775,WMM1,1296295,false,false,1713,image-keyboard-response,29
true,16,0,2,0,true,q,false,true,0.0-2.0-0.57-0.518-3.518,0,0,0,81,false,stim,false,2,680.0,2,0,0,19775,WMM1,1298485,false,false,1716,image-keyboard-response,30
true,17,2,4,1,false,z,false,false,0.0-2.0-0.57-0.519-3.519,0,0,0,68,true,stim,true,2,848.0,2,0,1,19775,WMM1,1300848,false,false,1719,image-keyboard-response,1
true,17,0,4,1,false,z,false,false,0.0-2.0-0.57-0.520-3.520,0,0,0,81,false,stim,true,0,614.9999999997672,2,0,0,19775,WMM1,1302973,false,false,1722,image-keyboard-response,2
true,17,1,4,1,true,z,false,true,0.0-2.0-0.57-0.521-3.521,0,0,0,90,false,stim,false,0,560.0,2,0,0,19775,WMM1,1305048,false,false,1725,image-keyboard-response,3
true,17,1,4,1,true,z,false,true,0.0-2.0-0.58-0.522-3.522,0,0,0,90,false,stim,false,2,869.0,2,0,1,19775,WMM1,1307434,false,false,1728,image-keyboard-response,4
true,17,0,4,0,true,q,false,true,0.0-2.0-0.58-0.523-3.523,0,0,0,81,false,stim,false,1,493.0,2,0,2,19775,WMM1,1309440,false,false,1731,image-keyboard-response,5
true,17,0,4,0,true,q,false,true,0.0-2.0-0.58-0.524-3.524,0,0,0,81,false,stim,false,1,589.0,2,0,2,19775,WMM1,1311543,false,false,1734,image-keyboard-response,6
true,17,1,4,1,true,z,false,false,0.0-2.0-0.58-0.525-3.525,0,0,0,90,false,stim,false,0,616.0,2,0,0,19775,WMM1,1313671,false,true,1737,image-keyboard-response,7
true,17,1,4,1,true,z,false,true,0.0-2.0-0.58-0.526-3.526,0,0,0,90,false,stim,false,2,434.0,2,0,1,19775,WMM1,1315621,false,false,1740,image-keyboard-response,8
true,17,1,4,1,true,z,false,true,0.0-2.0-0.58-0.527-3.527,0,0,0,90,false,stim,false,0,534.0,2,0,0,19775,WMM1,1317668,false,false,1743,image-keyboard-response,9
true,17,1,4,1,true,z,false,true,0.0-2.0-0.58-0.528-3.528,0,0,0,90,false,stim,false,2,661.0,2,0,1,19775,WMM1,1319843,false,false,1746,image-keyboard-response,10
true,17,0,4,0,true,q,false,true,0.0-2.0-0.58-0.529-3.529,0,0,0,81,false,stim,false,1,796.0,2,0,2,19775,WMM1,1322152,false,false,1749,image-keyboard-response,11
true,17,1,4,1,true,z,false,true,0.0-2.0-0.58-0.530-3.530,0,0,0,90,false,stim,false,0,630.0,2,0,0,19775,WMM1,1324299,false,false,1752,image-keyboard-response,12
true,17,1,4,1,true,z,false,true,0.0-2.0-0.59-0.531-3.531,0,0,0,90,false,stim,false,0,680.0000000002328,2,0,0,19775,WMM1,1326492,false,false,1755,image-keyboard-response,13
true,17,1,4,1,true,z,false,true,0.0-2.0-0.59-0.532-3.532,0,0,0,90,false,stim,false,0,551.0,2,0,0,19775,WMM1,1328556,false,false,1758,image-keyboard-response,14
true,17,1,4,1,true,z,false,true,0.0-2.0-0.59-0.533-3.533,0,0,0,90,false,stim,false,2,990.0,2,0,1,19775,WMM1,1331058,false,false,1761,image-keyboard-response,15
true,17,0,4,0,true,q,false,false,0.0-2.0-0.59-0.534-3.534,0,0,0,81,false,stim,false,1,643.0,2,0,2,19775,WMM1,1333214,false,true,1764,image-keyboard-response,16
true,17,1,4,1,true,z,false,true,0.0-2.0-0.59-0.535-3.535,0,0,0,90,false,stim,false,0,559.0,2,0,0,19775,WMM1,1335286,false,false,1767,image-keyboard-response,17
true,17,1,4,0,false,q,false,false,0.0-2.0-0.59-0.536-3.536,0,0,0,90,false,stim,true,1,876.0000000002328,2,0,2,19775,WMM1,1337674,false,false,1770,image-keyboard-response,18
true,17,2,4,0,false,q,true,false,0.0-2.0-0.59-0.537-3.537,0,0,0,68,false,stim,false,1,519.0,2,0,2,19775,WMM1,1339707,false,false,1773,image-keyboard-response,19
true,17,1,4,1,true,z,false,true,0.0-2.0-0.59-0.538-3.538,0,0,0,90,false,stim,false,2,810.0,2,0,1,19775,WMM1,1342028,false,false,1776,image-keyboard-response,20
true,17,1,4,1,true,z,false,true,0.0-2.0-0.59-0.539-3.539,0,0,0,90,false,stim,false,2,522.0,2,0,1,19775,WMM1,1344064,false,false,1779,image-keyboard-response,21
true,17,1,4,1,true,z,false,true,0.0-2.0-0.60-0.540-3.540,0,0,0,90,false,stim,false,0,704.0,2,0,0,19775,WMM1,1346283,false,false,1782,image-keyboard-response,22
true,17,1,4,1,true,z,false,false,0.0-2.0-0.60-0.541-3.541,0,0,0,90,false,stim,false,2,954.0,2,0,1,19775,WMM1,1348752,false,true,1785,image-keyboard-response,23
true,17,0,4,1,false,z,true,true,0.0-2.0-0.60-0.542-3.542,0,0,0,81,false,stim,false,2,666.0,2,0,1,19775,WMM1,1350932,false,true,1788,image-keyboard-response,24
true,17,0,4,1,false,z,true,false,0.0-2.0-0.60-0.543-3.543,0,0,0,81,false,stim,false,2,470.0,2,0,1,19775,WMM1,1352919,false,false,1791,image-keyboard-response,25
true,17,1,4,1,true,z,false,false,0.0-2.0-0.60-0.544-3.544,0,0,0,90,false,stim,false,0,855.0,2,0,0,19775,WMM1,1355286,false,true,1794,image-keyboard-response,26
true,17,2,4,1,false,z,true,true,0.0-2.0-0.60-0.545-3.545,0,0,0,68,false,stim,false,0,604.0,2,0,0,19775,WMM1,1357405,false,true,1797,image-keyboard-response,27
true,17,0,4,0,true,q,false,true,0.0-2.0-0.60-0.546-3.546,0,0,0,81,false,stim,false,1,659.0,2,0,2,19775,WMM1,1359578,false,false,1800,image-keyboard-response,28
true,17,0,4,0,true,q,false,true,0.0-2.0-0.60-0.547-3.547,0,0,0,81,false,stim,false,1,646.9999999997672,2,0,2,19775,WMM1,1361753,false,false,1803,image-keyboard-response,29
true,17,0,4,0,true,q,false,false,0.0-2.0-0.60-0.548-3.548,0,0,0,81,false,stim,false,1,656.0,2,0,2,19775,WMM1,1363924,false,true,1806,image-keyboard-response,30
true,17,2,4,1,false,z,true,false,0.0-2.0-0.61-0.549-3.549,0,0,0,68,false,stim,false,0,973.0,2,0,0,19775,WMM1,1366416,false,false,1809,image-keyboard-response,31
true,17,0,4,1,false,z,true,false,0.0-2.0-0.61-0.550-3.550,0,0,0,81,false,stim,false,2,735.0,2,0,1,19775,WMM1,1368664,false,false,1812,image-keyboard-response,32
true,17,1,4,1,true,z,false,true,0.0-2.0-0.61-0.551-3.551,0,0,0,90,false,stim,false,2,892.0,2,0,1,19775,WMM1,1371072,false,false,1815,image-keyboard-response,33
true,17,0,4,0,true,q,false,true,0.0-2.0-0.61-0.552-3.552,0,0,0,81,false,stim,false,1,599.0,2,0,2,19775,WMM1,1373187,false,false,1818,image-keyboard-response,34
true,17,0,4,0,true,q,false,false,0.0-2.0-0.61-0.553-3.553,0,0,0,81,false,stim,false,1,595.0,2,0,2,19775,WMM1,1375296,false,true,1821,image-keyboard-response,35
true,17,1,4,1,true,z,false,true,0.0-2.0-0.61-0.554-3.554,0,0,0,90,false,stim,false,0,767.0,2,0,0,19775,WMM1,1377580,false,false,1824,image-keyboard-response,36
true,17,1,4,1,true,z,false,true,0.0-2.0-0.61-0.555-3.555,0,0,0,90,false,stim,false,0,522.0,2,0,0,19775,WMM1,1379615,false,false,1827,image-keyboard-response,37
true,17,1,4,1,true,z,false,true,0.0-2.0-0.61-0.556-3.556,0,0,0,90,false,stim,false,2,506.0,2,0,1,19775,WMM1,1381637,false,false,1830,image-keyboard-response,38
true,17,0,4,0,true,q,false,true,0.0-2.0-0.61-0.557-3.557,0,0,0,81,false,stim,false,1,514.9999999997672,2,0,2,19775,WMM1,1383668,false,false,1833,image-keyboard-response,39
true,17,1,4,1,true,z,false,true,0.0-2.0-0.62-0.558-3.558,0,0,0,90,false,stim,false,0,680.0,2,0,0,19775,WMM1,1385863,false,false,1836,image-keyboard-response,40
true,17,1,4,1,true,z,false,true,0.0-2.0-0.62-0.559-3.559,0,0,0,90,false,stim,false,2,516.0,2,0,1,19775,WMM1,1387892,false,false,1839,image-keyboard-response,41
true,17,1,4,1,true,z,false,true,0.0-2.0-0.62-0.560-3.560,0,0,0,90,false,stim,false,0,651.0,2,0,0,19775,WMM1,1390058,false,false,1842,image-keyboard-response,42
true,17,1,4,1,true,z,false,true,0.0-2.0-0.62-0.561-3.561,0,0,0,90,false,stim,false,2,649.0000000002328,2,0,1,19775,WMM1,1392220,false,false,1845,image-keyboard-response,43
true,17,0,4,0,true,q,false,true,0.0-2.0-0.62-0.562-3.562,0,0,0,81,false,stim,false,1,628.0000000002328,2,0,2,19775,WMM1,1394364,false,false,1848,image-keyboard-response,44
true,17,1,4,1,true,z,false,true,0.0-2.0-0.62-0.563-3.563,0,0,0,90,false,stim,false,2,700.0,2,0,1,19775,WMM1,1396576,false,false,1851,image-keyboard-response,45
true,17,1,4,0,false,q,false,false,0.0-2.0-0.62-0.564-3.564,0,0,0,90,false,stim,true,1,632.0,2,0,2,19775,WMM1,1398722,false,false,1854,image-keyboard-response,46
true,17,1,4,1,true,z,false,true,0.0-2.0-0.62-0.565-3.565,0,0,0,90,false,stim,false,0,874.0,2,0,0,19775,WMM1,1401107,false,false,1857,image-keyboard-response,47
true,17,0,4,0,true,q,false,true,0.0-2.0-0.62-0.566-3.566,0,0,0,81,false,stim,false,1,839.0,2,0,2,19775,WMM1,1403459,false,false,1860,image-keyboard-response,48
true,18,1,2,0,false,q,false,false,0.0-2.0-0.63-0.567-3.567,0,0,0,90,true,stim,true,1,648.0,2,0,0,19775,WMM1,1405622,false,false,1863,image-keyboard-response,1
true,18,2,2,0,false,q,true,false,0.0-2.0-0.63-0.568-3.568,0,0,0,68,false,stim,false,1,485.0,2,0,0,19775,WMM1,1407619,false,false,1866,image-keyboard-response,2
true,18,0,2,1,false,z,false,false,0.0-2.0-0.63-0.569-3.569,0,0,0,81,false,stim,true,0,693.0,2,0,2,19775,WMM1,1409827,false,false,1869,image-keyboard-response,3
true,18,1,2,2,false,d,false,false,0.0-2.0-0.63-0.570-3.570,0,0,0,90,false,stim,true,1,945.9999999997672,2,0,1,19775,WMM1,1412290,false,false,1872,image-keyboard-response,4
true,18,0,2,2,false,d,true,false,0.0-2.0-0.63-0.571-3.571,0,0,0,81,false,stim,false,1,659.0,2,0,1,19775,WMM1,1414463,false,false,1875,image-keyboard-response,5
true,18,0,2,0,true,q,false,true,0.0-2.0-0.63-0.572-3.572,0,0,0,81,false,stim,false,1,478.99999999976717,2,0,0,19775,WMM1,1416457,false,false,1878,image-keyboard-response,6
true,18,1,2,1,true,z,false,true,0.0-2.0-0.63-0.573-3.573,0,0,0,90,false,stim,false,0,1169.0,2,0,2,19775,WMM1,1419140,false,false,1881,image-keyboard-response,7
true,18,2,2,2,true,d,false,true,0.0-2.0-0.63-0.574-3.574,0,0,0,68,false,stim,false,1,587.0,2,0,1,19775,WMM1,1421241,false,false,1884,image-keyboard-response,8
true,18,1,2,1,true,z,false,false,0.0-2.0-0.63-0.575-3.575,0,0,0,90,false,stim,false,0,669.0,2,0,2,19775,WMM1,1423425,false,true,1887,image-keyboard-response,9
true,18,1,2,1,true,z,false,true,0.0-2.0-0.64-0.576-3.576,0,0,0,90,false,stim,false,0,849.0,2,0,2,19775,WMM1,1425788,false,false,1890,image-keyboard-response,10
true,18,2,2,2,true,d,false,true,0.0-2.0-0.64-0.577-3.577,0,0,0,68,false,stim,false,1,606.0,2,0,1,19775,WMM1,1427906,false,false,1893,image-keyboard-response,11
true,18,0,2,0,true,q,false,true,0.0-2.0-0.64-0.578-3.578,0,0,0,81,false,stim,false,1,502.00000000023283,2,0,0,19775,WMM1,1429920,false,false,1896,image-keyboard-response,12
true,18,0,2,0,true,q,false,true,0.0-2.0-0.64-0.579-3.579,0,0,0,81,false,stim,false,1,737.0,2,0,0,19775,WMM1,1432172,false,false,1899,image-keyboard-response,13
true,18,2,2,2,true,d,false,false,0.0-2.0-0.64-0.580-3.580,0,0,0,68,false,stim,false,1,578.0,2,0,1,19775,WMM1,1434275,false,true,1902,image-keyboard-response,14
true,18,1,2,1,true,z,false,false,0.0-2.0-0.64-0.581-3.581,0,0,0,90,false,stim,false,0,826.0,2,0,2,19775,WMM1,1436613,false,true,1905,image-keyboard-response,15
true,18,1,2,2,false,d,false,false,0.0-2.0-0.64-0.582-3.582,0,0,0,90,false,stim,true,1,657.0000000002328,2,0,1,19775,WMM1,1438785,false,false,1908,image-keyboard-response,16
true,18,0,2,0,true,q,false,true,0.0-2.0-0.64-0.583-3.583,0,0,0,81,false,stim,false,1,690.0,2,0,0,19775,WMM1,1440991,false,false,1911,image-keyboard-response,17
true,18,2,2,1,false,z,true,true,0.0-2.0-0.64-0.584-3.584,0,0,0,68,false,stim,false,0,683.0,2,0,2,19775,WMM1,1443186,false,true,1914,image-keyboard-response,18
true,18,2,2,2,true,d,false,true,0.0-2.0-0.65-0.585-3.585,0,0,0,68,false,stim,false,1,490.0,2,0,1,19775,WMM1,1445190,false,false,1917,image-keyboard-response,19
true,18,0,2,0,true,q,false,false,0.0-2.0-0.65-0.586-3.586,0,0,0,81,false,stim,false,1,642.0,2,0,0,19775,WMM1,1447348,false,true,1920,image-keyboard-response,20
true,18,1,2,0,false,q,false,false,0.0-2.0-0.65-0.587-3.587,0,0,0,90,false,stim,true,1,785.0000000002328,2,0,0,19775,WMM1,1449649,false,false,1923,image-keyboard-response,21
true,18,1,2,1,true,z,false,true,0.0-2.0-0.65-0.588-3.588,0,0,0,90,false,stim,false,0,809.0,2,0,2,19775,WMM1,1451974,false,false,1926,image-keyboard-response,22
true,18,2,2,2,true,d,false,true,0.0-2.0-0.65-0.589-3.589,0,0,0,68,false,stim,false,1,626.0,2,0,1,19775,WMM1,1454117,false,false,1929,image-keyboard-response,23
true,18,1,2,1,true,z,false,true,0.0-2.0-0.65-0.590-3.590,0,0,0,90,false,stim,false,0,701.0,2,0,2,19775,WMM1,1456336,false,false,1932,image-keyboard-response,24
true,18,1,2,1,true,z,false,true,0.0-2.0-0.65-0.591-3.591,0,0,0,90,false,stim,false,0,585.0,2,0,2,19775,WMM1,1458433,false,false,1935,image-keyboard-response,25
true,18,2,2,2,true,d,false,true,0.0-2.0-0.65-0.592-3.592,0,0,0,68,false,stim,false,1,721.0,2,0,1,19775,WMM1,1460667,false,false,1938,image-keyboard-response,26
true,18,0,2,0,true,q,false,false,0.0-2.0-0.65-0.593-3.593,0,0,0,81,false,stim,false,1,540.0,2,0,0,19775,WMM1,1462722,false,true,1941,image-keyboard-response,27
true,18,2,2,0,false,q,true,false,0.0-2.0-0.66-0.594-3.594,0,0,0,68,false,stim,false,1,537.0,2,0,0,19775,WMM1,1464772,false,false,1944,image-keyboard-response,28
true,18,2,2,2,true,d,false,true,0.0-2.0-0.66-0.595-3.595,0,0,0,68,false,stim,false,1,682.0,2,0,1,19775,WMM1,1466968,false,false,1947,image-keyboard-response,29
true,18,1,2,1,true,z,false,false,0.0-2.0-0.66-0.596-3.596,0,0,0,90,false,stim,false,0,511.0,2,0,2,19775,WMM1,1468995,false,true,1950,image-keyboard-response,30
true,18,1,2,1,true,z,false,true,0.0-2.0-0.66-0.597-3.597,0,0,0,90,false,stim,false,0,488.0,2,0,2,19775,WMM1,1470998,false,false,1953,image-keyboard-response,31
true,18,1,2,0,false,q,false,false,0.0-2.0-0.66-0.598-3.598,0,0,0,90,false,stim,true,1,731.0,2,0,0,19775,WMM1,1473250,false,false,1956,image-keyboard-response,32
true,18,0,2,0,true,q,false,true,0.0-2.0-0.66-0.599-3.599,0,0,0,81,false,stim,false,1,504.0,2,0,0,19775,WMM1,1475267,false,false,1959,image-keyboard-response,33
true,18,1,2,1,true,z,false,true,0.0-2.0-0.66-0.600-3.600,0,0,0,90,false,stim,false,0,647.0,2,0,2,19775,WMM1,1477429,false,false,1962,image-keyboard-response,34
true,18,2,2,2,true,d,false,true,0.0-2.0-0.66-0.601-3.601,0,0,0,68,false,stim,false,1,577.0,2,0,1,19775,WMM1,1479524,false,false,1965,image-keyboard-response,35
true,18,2,2,2,true,d,false,true,0.0-2.0-0.66-0.602-3.602,0,0,0,68,false,stim,false,1,699.0,2,0,1,19775,WMM1,1481739,false,false,1968,image-keyboard-response,36
true,18,0,2,0,true,q,false,true,0.0-2.0-0.67-0.603-3.603,0,0,0,81,false,stim,false,1,657.0,2,0,0,19775,WMM1,1483913,false,false,1971,image-keyboard-response,37
true,18,1,2,1,true,z,false,true,0.0-2.0-0.67-0.604-3.604,0,0,0,90,false,stim,false,0,742.0,2,0,2,19775,WMM1,1486172,false,false,1974,image-keyboard-response,38
true,18,0,2,0,true,q,false,true,0.0-2.0-0.67-0.605-3.605,0,0,0,81,false,stim,false,1,670.0,2,0,0,19775,WMM1,1488354,false,false,1977,image-keyboard-response,39
true,18,2,2,2,true,d,false,true,0.0-2.0-0.67-0.606-3.606,0,0,0,68,false,stim,false,1,676.0,2,0,1,19775,WMM1,1490547,false,false,1980,image-keyboard-response,40
true,18,2,2,2,true,d,false,true,0.0-2.0-0.67-0.607-3.607,0,0,0,68,false,stim,false,1,639.0,2,0,1,19775,WMM1,1492703,false,false,1983,image-keyboard-response,41
true,18,2,2,2,true,d,false,true,0.0-2.0-0.67-0.608-3.608,0,0,0,68,false,stim,false,1,630.0,2,0,1,19775,WMM1,1494843,false,false,1986,image-keyboard-response,42
true,18,1,2,1,true,z,false,true,0.0-2.0-0.67-0.609-3.609,0,0,0,90,false,stim,false,0,598.0,2,0,2,19775,WMM1,1496951,false,false,1989,image-keyboard-response,43
true,18,0,2,0,true,q,false,true,0.0-2.0-0.67-0.610-3.610,0,0,0,81,false,stim,false,1,590.0,2,0,0,19775,WMM1,1499056,false,false,1992,image-keyboard-response,44
true,18,1,2,1,true,z,false,true,0.0-2.0-0.67-0.611-3.611,0,0,0,90,false,stim,false,0,607.0,2,0,2,19775,WMM1,1501176,false,false,1995,image-keyboard-response,45
true,18,1,2,1,true,z,false,true,0.0-2.0-0.68-0.612-3.612,0,0,0,90,false,stim,false,0,603.0,2,0,2,19775,WMM1,1503296,false,false,1998,image-keyboard-response,46
true,18,0,2,0,true,q,false,true,0.0-2.0-0.68-0.613-3.613,0,0,0,81,false,stim,false,1,641.9999999997672,2,0,0,19775,WMM1,1505463,false,false,2001,image-keyboard-response,47
true,19,0,1,2,false,d,false,true,0.0-2.0-0.68-0.614-3.614,0,0,0,81,true,stim,true,0,578.9999999997672,2,0,0,19775,WMM1,1507554,false,true,2004,image-keyboard-response,1
true,19,0,1,0,true,q,false,true,0.0-2.0-0.68-0.615-3.615,0,0,0,81,false,stim,false,2,688.0,2,0,1,19775,WMM1,1509755,false,false,2007,image-keyboard-response,2
true,19,2,1,0,false,q,false,false,0.0-2.0-0.68-0.616-3.616,0,0,0,68,false,stim,true,2,897.0,2,0,1,19775,WMM1,1512165,false,false,2010,image-keyboard-response,3
true,19,0,1,0,true,q,false,true,0.0-2.0-0.68-0.617-3.617,0,0,0,81,false,stim,false,2,475.0,2,0,1,19775,WMM1,1514152,false,false,2013,image-keyboard-response,4
true,19,1,1,0,false,q,false,false,0.0-2.0-0.68-0.618-3.618,0,0,0,90,false,stim,true,1,588.0000000002328,2,0,2,19775,WMM1,1516253,false,false,2016,image-keyboard-response,5
true,19,2,1,0,false,q,true,false,0.0-2.0-0.68-0.619-3.619,0,0,0,68,false,stim,false,1,642.0,2,0,2,19775,WMM1,1518410,false,false,2019,image-keyboard-response,6
true,19,0,1,2,false,d,false,true,0.0-2.0-0.68-0.620-3.620,0,0,0,81,false,stim,true,0,590.0,2,0,0,19775,WMM1,1520509,false,true,2022,image-keyboard-response,7
true,19,1,1,0,false,q,false,false,0.0-2.0-0.69-0.621-3.621,0,0,0,90,false,stim,true,1,706.0,2,0,2,19775,WMM1,1522731,false,false,2025,image-keyboard-response,8
true,19,0,1,0,true,q,false,true,0.0-2.0-0.69-0.622-3.622,0,0,0,81,false,stim,false,2,532.0,2,0,1,19775,WMM1,1524778,false,false,2028,image-keyboard-response,9
