answered,blockNum,choice,condition,corResp,correct,correct_response,explo,fb,internal_node_id,isStable_1,isStable_2,isStable_3,key_press,newBlock,part,persev,persevResp,rt,sessNum,stableAS,stimulus,subject,task,time_elapsed,training,trap,trial_index,trial_type,trialsInBlock
true,1,1,0,0,false,q,true,false,0.0-2.0-0.0-0.0-3.0,0,0,0,90,true,stim,false,-1,766.0000000000146,3,0,0,19775,WMM1,91447,false,false,103,image-keyboard-response,1
true,1,0,0,0,true,q,false,true,0.0-2.0-0.0-0.1-3.1,0,0,0,81,false,stim,false,-1,489.0,3,0,1,19775,WMM1,93449,false,false,106,image-keyboard-response,2
true,1,1,0,0,false,q,true,false,0.0-2.0-0.0-0.2-3.2,0,0,0,90,false,stim,false,-1,726.0,3,0,0,19775,WMM1,95684,false,false,109,image-keyboard-response,3
true,1,1,0,1,true,z,false,false,0.0-2.0-0.0-0.3-3.3,0,0,0,90,false,stim,false,-1,726.0,3,0,2,19775,WMM1,97924,false,true,112,image-keyboard-response,4
true,1,2,0,0,false,q,true,false,0.0-2.0-0.0-0.4-3.4,0,0,0,68,false,stim,false,-1,549.9999999999854,3,0,0,19775,WMM1,99985,false,false,115,image-keyboard-response,5
true,1,0,0,0,true,q,false,true,0.0-2.0-0.0-0.5-3.5,0,0,0,81,false,stim,false,-1,502.0,3,0,1,19775,WMM1,101995,false,false,118,image-keyboard-response,6
true,1,0,0,0,true,q,false,true,0.0-2.0-0.0-0.6-3.6,0,0,0,81,false,stim,false,-1,502.0,3,0,1,19775,WMM1,104005,false,false,121,image-keyboard-response,7
true,1,0,0,1,false,z,true,false,0.0-2.0-0.0-0.7-3.7,0,0,0,81,false,stim,false,-1,698.0000000000146,3,0,2,19775,WMM1,106212,false,false,124,image-keyboard-response,8
true,1,2,0,1,false,z,true,false,0.0-2.0-0.0-0.8-3.8,0,0,0,68,false,stim,false,-1,677.0,3,0,2,19775,WMM1,108399,false,false,127,image-keyboard-response,9
true,1,0,0,0,true,q,false,true,0.0-2.0-0.1-0.9-3.9,0,0,0,81,false,stim,false,-1,739.0,3,0,1,19775,WMM1,110648,false,false,130,image-keyboard-response,10
true,1,1,0,1,true,z,false,true,0.0-2.0-0.1-0.10-3.10,0,0,0,90,false,stim,false,-1,484.0,3,0,2,19775,WMM1,112643,false,false,133,image-keyboard-response,11
true,1,1,0,1,true,z,false,true,0.0-2.0-0.1-0.11-3.11,0,0,0,90,false,stim,false,-1,701.0000000000146,3,0,2,19775,WMM1,114855,false,false,136,image-keyboard-response,12
true,1,1,0,1,true,z,false,true,0.0-2.0-0.1-0.12-3.12,0,0,0,90,false,stim,false,-1,748.0,3,0,2,19775,WMM1,117112,false,false,139,image-keyboard-response,13
true,1,0,0,0,true,q,false,true,0.0-2.0-0.1-0.13-3.13,0,0,0,81,false,stim,false,-1,980.0000000000146,3,0,1,19775,WMM1,119602,false,false,142,image-keyboard-response,14
true,1,0,0,0,true,q,false,true,0.0-2.0-0.1-0.14-3.14,0,0,0,81,false,stim,false,-1,896.0,3,0,0,19775,WMM1,122011,false,false,145,image-keyboard-response,15
true,1,0,0,0,true,q,false,true,0.0-2.0-0.1-0.15-3.15,0,0,0,81,false,stim,false,-1,556.0,3,0,0,19775,WMM1,124080,false,false,148,image-keyboard-response,16
true,1,0,0,0,true,q,false,true,0.0-2.0-0.1-0.16-3.16,0,0,0,81,false,stim,false,-1,1328.0,3,0,1,19775,WMM1,126916,false,false,151,image-keyboard-response,17
true,1,1,0,0,false,q,true,false,0.0-2.0-0.1-0.17-3.17,0,0,0,90,false,stim,false,-1,1388.9999999999854,3,0,0,19775,WMM1,129813,false,false,154,image-keyboard-response,18
true,1,0,0,0,true,q,false,true,0.0-2.0-0.2-0.18-3.18,0,0,0,81,false,stim,false,-1,536.0,3,0,1,19775,WMM1,131858,false,false,157,image-keyboard-response,19
true,1,0,0,0,true,q,false,true,0.0-2.0-0.2-0.19-3.19,0,0,0,81,false,stim,false,-1,1038.999999999971,3,0,0,19775,WMM1,134409,false,false,160,image-keyboard-response,20
true,1,0,0,0,true,q,false,false,0.0-2.0-0.2-0.20-3.20,0,0,0,81,false,stim,false,-1,1333.999999999971,3,0,1,19775,WMM1,137252,false,true,163,image-keyboard-response,21
true,1,1,0,1,true,z,false,false,0.0-2.0-0.2-0.21-3.21,0,0,0,90,false,stim,false,-1,965.0,3,0,2,19775,WMM1,139726,false,true,166,image-keyboard-response,22
true,1,2,0,0,false,q,true,false,0.0-2.0-0.2-0.22-3.22,0,0,0,68,false,stim,false,-1,869.0,3,0,1,19775,WMM1,142104,false,false,169,image-keyboard-response,23
true,1,1,0,1,true,z,false,true,0.0-2.0-0.2-0.23-3.23,0,0,0,90,false,stim,false,-1,1137.0,3,0,2,19775,WMM1,144751,false,false,172,image-keyboard-response,24
true,1,1,0,1,true,z,false,true,0.0-2.0-0.2-0.24-3.24,0,0,0,90,false,stim,false,-1,959.9999999999709,3,0,2,19775,WMM1,147224,false,false,175,image-keyboard-response,25
true,1,0,0,0,true,q,false,true,0.0-2.0-0.2-0.25-3.25,0,0,0,81,false,stim,false,-1,1188.000000000029,3,0,0,19775,WMM1,149925,false,false,178,image-keyboard-response,26
true,1,0,0,0,true,q,false,true,0.0-2.0-0.2-0.26-3.26,0,0,0,81,false,stim,false,-1,1261.0,3,0,0,19775,WMM1,152695,false,false,181,image-keyboard-response,27
true,1,0,0,0,true,q,false,true,0.0-2.0-0.3-0.27-3.27,0,0,0,81,false,stim,false,-1,1023.0,3,0,0,19775,WMM1,155227,false,false,184,image-keyboard-response,28
true,1,1,0,1,true,z,false,true,0.0-2.0-0.3-0.28-3.28,0,0,0,90,false,stim,false,-1,717.0,3,0,2,19775,WMM1,157453,false,false,187,image-keyboard-response,29
true,1,0,0,0,true,q,false,true,0.0-2.0-0.3-0.29-3.29,0,0,0,81,false,stim,false,-1,1066.0,3,0,1,19775,WMM1,160029,false,false,190,image-keyboard-response,30
true,1,1,0,1,true,z,false,true,0.0-2.0-0.3-0.30-3.30,0,0,0,90,false,stim,false,-1,1278.999999999971,3,0,2,19775,WMM1,162816,false,false,193,image-keyboard-response,31
true,1,1,0,1,true,z,false,false,0.0-2.0-0.3-0.31-3.31,0,0,0,90,false,stim,false,-1,1104.0,3,0,2,19775,WMM1,165430,false,true,196,image-keyboard-response,32
true,1,0,0,0,true,q,false,true,0.0-2.0-0.3-0.32-3.32,0,0,0,81,false,stim,false,-1,540.0,3,0,1,19775,WMM1,167478,false,false,199,image-keyboard-response,33
true,1,0,0,0,true,q,false,true,0.0-2.0-0.3-0.33-3.33,0,0,0,81,false,stim,false,-1,724.0,3,0,0,19775,WMM1,169715,false,false,202,image-keyboard-response,34
true,1,0,0,0,true,q,false,true,0.0-2.0-0.3-0.34-3.34,0,0,0,81,false,stim,false,-1,525.0000000000291,3,0,0,19775,WMM1,171752,false,false,205,image-keyboard-response,35
true,1,0,0,0,true,q,false,true,0.0-2.0-0.3-0.35-3.35,0,0,0,81,false,stim,false,-1,643.0,3,0,1,19775,WMM1,173902,false,false,208,image-keyboard-response,36
true,1,1,0,1,true,z,false,true,0.0-2.0-0.4-0.36-3.36,0,0,0,90,false,stim,false,-1,585.0,3,1,2,19775,WMM1,175997,false,false,211,image-keyboard-response,37
true,1,0,0,0,true,q,false,true,0.0-2.0-0.4-0.37-3.37,0,0,0,81,false,stim,false,-1,642.0,3,0,1,19775,WMM1,178148,false,false,214,image-keyboard-response,38
true,1,0,0,0,true,q,false,true,0.0-2.0-0.4-0.38-3.38,0,0,0,81,false,stim,false,-1,550.0,3,0,1,19775,WMM1,180211,false,false,217,image-keyboard-response,39
true,1,1,0,0,false,q,true,false,0.0-2.0-0.4-0.39-3.39,0,0,0,90,false,stim,false,-1,595.0,3,0,0,19775,WMM1,182317,false,false,220,image-keyboard-response,40
true,1,0,0,0,true,q,false,true,0.0-2.0-0.4-0.40-3.40,0,0,0,81,false,stim,false,-1,511.0,3,0,1,19775,WMM1,184339,false,false,223,image-keyboard-response,41
true,1,0,0,0,true,q,false,true,0.0-2.0-0.4-0.41-3.41,0,0,0,81,false,stim,false,-1,506.0,3,0,0,19775,WMM1,186354,false,false,226,image-keyboard-response,42
true,1,1,0,1,true,z,false,true,0.0-2.0-0.4-0.42-3.42,0,0,0,90,false,stim,false,-1,556.0,3,1,2,19775,WMM1,188418,false,false,229,image-keyboard-response,43
true,2,1,3,1,true,z,false,true,0.0-2.0-0.4-0.43-3.43,0,0,1,90,true,stim,false,1,627.0,3,1,2,19775,WMM1,190554,false,false,232,image-keyboard-response,1
true,2,0,3,1,false,z,false,false,0.0-2.0-0.4-0.44-3.44,0,0,1,81,false,stim,true,0,844.0,3,0,0,19775,WMM1,192911,false,false,235,image-keyboard-response,2
true,2,0,3,1,false,z,false,false,0.0-2.0-0.5-0.45-3.45,0,0,1,81,false,stim,true,0,667.0,3,0,0,19775,WMM1,195091,false,false,238,image-keyboard-response,3
true,2,2,3,1,false,z,true,true,0.0-2.0-0.5-0.46-3.46,0,0,1,68,false,stim,false,0,632.0,3,0,0,19775,WMM1,197233,false,true,241,image-keyboard-response,4
true,2,2,3,1,false,z,true,false,0.0-2.0-0.5-0.47-3.47,0,0,1,68,false,stim,false,0,1023.0000000000291,3,0,0,19775,WMM1,199763,false,false,244,image-keyboard-response,5
true,2,1,3,1,true,z,false,false,0.0-2.0-0.5-0.48-3.48,0,0,1,90,false,stim,false,1,1211.0,3,1,2,19775,WMM1,202482,false,true,247,image-keyboard-response,6
true,2,1,3,1,true,z,false,true,0.0-2.0-0.5-0.49-3.49,0,0,1,90,false,stim,false,1,761.0,3,1,2,19775,WMM1,204754,false,false,250,image-keyboard-response,7
true,2,0,3,2,false,d,false,false,0.0-2.0-0.5-0.50-3.50,0,0,1,81,false,stim,true,0,675.0000000000291,3,0,1,19775,WMM1,206942,false,false,253,image-keyboard-response,8
true,2,0,3,2,false,d,false,false,0.0-2.0-0.5-0.51-3.51,0,0,1,81,false,stim,true,0,613.0,3,0,1,19775,WMM1,209062,false,false,256,image-keyboard-response,9
true,2,1,3,2,false,d,true,false,0.0-2.0-0.5-0.52-3.52,0,0,1,90,false,stim,false,0,734.0,3,0,1,19775,WMM1,211304,false,false,259,image-keyboard-response,10
true,2,1,3,1,true,z,false,false,0.0-2.0-0.5-0.53-3.53,0,0,1,90,false,stim,false,1,856.0,3,1,2,19775,WMM1,213666,false,true,262,image-keyboard-response,11
true,2,0,3,2,false,d,false,false,0.0-2.0-0.6-0.54-3.54,0,0,1,81,false,stim,true,0,1245.0,3,0,1,19775,WMM1,216423,false,false,265,image-keyboard-response,12
true,2,2,3,1,false,z,true,false,0.0-2.0-0.6-0.55-3.55,0,0,1,68,false,stim,false,0,1368.0,3,0,0,19775,WMM1,219304,false,false,268,image-keyboard-response,13
true,2,2,3,1,false,z,true,false,0.0-2.0-0.6-0.56-3.56,0,0,1,68,false,stim,false,1,1142.000000000029,3,1,2,19775,WMM1,221955,false,false,271,image-keyboard-response,14
true,2,2,3,1,false,z,true,false,0.0-2.0-0.6-0.57-3.57,0,0,1,68,false,stim,false,0,1609.0,3,0,0,19775,WMM1,225071,false,false,274,image-keyboard-response,15
true,2,1,3,1,true,z,false,true,0.0-2.0-0.6-0.58-3.58,0,0,1,90,false,stim,false,1,1269.0,3,1,2,19775,WMM1,227851,false,false,277,image-keyboard-response,16
true,2,1,3,1,true,z,false,true,0.0-2.0-0.6-0.59-3.59,0,0,1,90,false,stim,false,1,942.0000000000291,3,1,2,19775,WMM1,230300,false,false,280,image-keyboard-response,17
true,2,2,3,2,true,d,false,true,0.0-2.0-0.6-0.60-3.60,0,0,1,68,false,stim,false,0,642.0,3,0,1,19775,WMM1,232452,false,false,283,image-keyboard-response,18
true,2,0,3,1,false,z,false,false,0.0-2.0-0.6-0.61-3.61,0,0,1,81,false,stim,true,0,655.0,3,0,0,19775,WMM1,234615,false,false,286,image-keyboard-response,19
true,2,2,3,2,true,d,false,false,0.0-2.0-0.6-0.62-3.62,0,0,1,68,false,stim,false,0,1399.0,3,0,1,19775,WMM1,237524,false,true,289,image-keyboard-response,20
true,2,1,3,1,true,z,false,true,0.0-2.0-0.7-0.63-3.63,0,0,1,90,false,stim,false,0,1672.000000000029,3,0,0,19775,WMM1,240704,false,false,292,image-keyboard-response,21
true,2,1,3,1,true,z,false,true,0.0-2.0-0.7-0.64-3.64,0,0,1,90,false,stim,false,1,876.0000000000291,3,1,2,19775,WMM1,243091,false,false,295,image-keyboard-response,22
true,2,1,3,1,true,z,false,true,0.0-2.0-0.7-0.65-3.65,0,0,1,90,false,stim,false,0,1274.000000000029,3,0,0,19775,WMM1,245876,false,false,298,image-keyboard-response,23
true,2,1,3,1,true,z,false,true,0.0-2.0-0.7-0.66-3.66,0,0,1,90,false,stim,false,1,609.0000000000291,3,0,2,19775,WMM1,247995,false,false,301,image-keyboard-response,24
true,2,2,3,2,true,d,false,true,0.0-2.0-0.7-0.67-3.67,0,0,1,68,false,stim,false,0,572.0,3,0,1,19775,WMM1,250079,false,false,304,image-keyboard-response,25
true,2,1,3,1,true,z,false,true,0.0-2.0-0.7-0.68-3.68,0,0,1,90,false,stim,false,0,706.0,3,1,0,19775,WMM1,252296,false,false,307,image-keyboard-response,26
true,2,2,3,2,true,d,false,false,0.0-2.0-0.7-0.69-3.69,0,0,1,68,false,stim,false,0,650.9999999999709,3,0,1,19775,WMM1,254459,false,true,310,image-keyboard-response,27
true,2,2,3,2,true,d,false,true,0.0-2.0-0.7-0.70-3.70,0,0,1,68,false,stim,false,0,592.9999999999418,3,0,1,19775,WMM1,256561,false,false,313,image-keyboard-response,28
true,2,1,3,1,true,z,false,true,0.0-2.0-0.7-0.71-3.71,0,0,1,90,false,stim,false,1,630.0,3,0,2,19775,WMM1,258701,false,false,316,image-keyboard-response,29
true,2,1,3,1,true,z,false,true,0.0-2.0-0.8-0.72-3.72,0,0,1,90,false,stim,false,1,819.9999999999709,3,0,2,19775,WMM1,261031,false,false,319,image-keyboard-response,30
true,2,1,3,1,true,z,false,true,0.0-2.0-0.8-0.73-3.73,0,0,1,90,false,stim,false,1,564.0,3,0,2,19775,WMM1,263106,false,false,322,image-keyboard-response,31
true,2,2,3,1,false,z,true,false,0.0-2.0-0.8-0.74-3.74,0,0,1,68,false,stim,false,0,623.9999999999418,3,1,0,19775,WMM1,265243,false,false,325,image-keyboard-response,32
true,2,2,3,2,true,d,false,true,0.0-2.0-0.8-0.75-3.75,0,0,1,68,false,stim,false,0,501.0,3,0,1,19775,WMM1,267252,false,false,328,image-keyboard-response,33
true,3,1,3,2,false,d,false,false,0.0-2.0-0.8-0.76-3.76,1,0,0,90,true,stim,true,1,750.0,3,0,2,19775,WMM1,269511,false,false,331,image-keyboard-response,1
true,3,2,3,0,false,q,false,false,0.0-2.0-0.8-0.77-3.77,1,0,0,68,false,stim,true,2,1168.0,3,0,1,19775,WMM1,272186,false,false,334,image-keyboard-response,2
true,3,2,3,0,false,q,false,false,0.0-2.0-0.8-0.78-3.78,1,0,0,68,false,stim,true,2,985.0000000000582,3,0,1,19775,WMM1,274683,false,false,337,image-keyboard-response,3
true,3,1,3,1,true,z,false,true,0.0-2.0-0.8-0.79-3.79,1,0,0,90,false,stim,false,1,944.0000000000582,3,1,0,19775,WMM1,277135,false,false,340,image-keyboard-response,4
true,3,1,3,1,true,z,false,true,0.0-2.0-0.8-0.80-3.80,1,0,0,90,false,stim,false,1,803.0,3,1,0,19775,WMM1,279446,false,false,343,image-keyboard-response,5
true,3,1,3,1,true,z,false,true,0.0-2.0-0.9-0.81-3.81,1,0,0,90,false,stim,false,1,697.0,3,1,0,19775,WMM1,281652,false,false,346,image-keyboard-response,6
true,3,1,3,1,true,z,false,true,0.0-2.0-0.9-0.82-3.82,1,0,0,90,false,stim,false,1,981.0,3,1,0,19775,WMM1,284141,false,false,349,image-keyboard-response,7
true,3,1,3,2,false,d,false,false,0.0-2.0-0.9-0.83-3.83,1,0,0,90,false,stim,true,1,990.0,3,0,2,19775,WMM1,286644,false,false,352,image-keyboard-response,8
true,3,2,3,1,false,z,true,false,0.0-2.0-0.9-0.84-3.84,1,0,0,68,false,stim,false,1,733.0,3,1,0,19775,WMM1,288890,false,false,355,image-keyboard-response,9
true,3,2,3,0,false,q,false,false,0.0-2.0-0.9-0.85-3.85,1,0,0,68,false,stim,true,2,1218.0000000000582,3,0,1,19775,WMM1,291619,false,false,358,image-keyboard-response,10
true,3,2,3,0,false,q,false,false,0.0-2.0-0.9-0.86-3.86,1,0,0,68,false,stim,true,2,699.0,3,0,1,19775,WMM1,293826,false,false,361,image-keyboard-response,11
true,3,0,3,0,true,q,false,true,0.0-2.0-0.9-0.87-3.87,1,0,0,81,false,stim,false,2,779.0,3,0,1,19775,WMM1,296114,false,false,364,image-keyboard-response,12
true,3,2,3,2,true,d,false,true,0.0-2.0-0.9-0.88-3.88,1,0,0,68,false,stim,false,1,1328.0,3,0,2,19775,WMM1,298950,false,false,367,image-keyboard-response,13
true,3,2,3,2,true,d,false,false,0.0-2.0-0.9-0.89-3.89,1,0,0,68,false,stim,false,1,1244.0,3,0,2,19775,WMM1,301706,false,true,370,image-keyboard-response,14
true,3,0,3,0,true,q,false,true,0.0-2.0-0.10-0.90-3.90,1,0,0,81,false,stim,false,2,1109.0,3,0,1,19775,WMM1,304323,false,false,373,image-keyboard-response,15
true,3,1,3,1,true,z,false,true,0.0-2.0-0.10-0.91-3.91,1,0,0,90,false,stim,false,1,500.9999999999418,3,1,0,19775,WMM1,306334,false,false,376,image-keyboard-response,16
true,3,2,3,2,true,d,false,true,0.0-2.0-0.10-0.92-3.92,1,0,0,68,false,stim,false,1,652.0000000000582,3,0,2,19775,WMM1,308493,false,false,379,image-keyboard-response,17
true,3,1,3,1,true,z,false,true,0.0-2.0-0.10-0.93-3.93,1,0,0,90,false,stim,false,1,1164.0,3,1,0,19775,WMM1,311170,false,false,382,image-keyboard-response,18
true,3,2,3,2,true,d,false,false,0.0-2.0-0.10-0.94-3.94,1,0,0,68,false,stim,false,1,1062.0000000000582,3,0,2,19775,WMM1,313743,false,true,385,image-keyboard-response,19
true,3,0,3,0,true,q,false,true,0.0-2.0-0.10-0.95-3.95,1,0,0,81,false,stim,false,2,1339.0,3,0,1,19775,WMM1,316591,false,false,388,image-keyboard-response,20
true,3,1,3,1,true,z,false,true,0.0-2.0-0.10-0.96-3.96,1,0,0,90,false,stim,false,1,592.0,3,0,0,19775,WMM1,318693,false,false,391,image-keyboard-response,21
true,3,2,3,2,true,d,false,true,0.0-2.0-0.10-0.97-3.97,1,0,0,68,false,stim,false,1,763.0000000000582,3,0,2,19775,WMM1,320969,false,false,394,image-keyboard-response,22
true,3,0,3,0,true,q,false,true,0.0-2.0-0.10-0.98-3.98,1,0,0,81,false,stim,false,2,1350.0000000000582,3,0,1,19775,WMM1,323832,false,false,397,image-keyboard-response,23
true,3,2,3,2,true,d,false,true,0.0-2.0-0.11-0.99-3.99,1,0,0,68,false,stim,false,1,1155.0,3,0,2,19775,WMM1,326497,false,false,400,image-keyboard-response,24
true,3,0,3,0,true,q,false,true,0.0-2.0-0.11-0.100-3.100,1,0,0,81,false,stim,false,2,1540.0,3,0,1,19775,WMM1,329549,false,false,403,image-keyboard-response,25
true,3,1,3,1,true,z,false,true,0.0-2.0-0.11-0.101-3.101,1,0,0,90,false,stim,false,1,634.0,3,0,0,19775,WMM1,331691,false,false,406,image-keyboard-response,26
true,3,2,3,2,true,d,false,true,0.0-2.0-0.11-0.102-3.102,1,0,0,68,false,stim,false,1,568.0000000000582,3,0,2,19775,WMM1,333772,false,false,409,image-keyboard-response,27
true,3,1,3,1,true,z,false,true,0.0-2.0-0.11-0.103-3.103,1,0,0,90,false,stim,false,1,949.0,3,0,0,19775,WMM1,336233,false,false,412,image-keyboard-response,28
true,3,0,3,0,true,q,false,true,0.0-2.0-0.11-0.104-3.104,1,0,0,81,false,stim,false,2,650.0,3,0,1,19775,WMM1,338391,false,false,415,image-keyboard-response,29
true,3,0,3,0,true,q,false,true,0.0-2.0-0.11-0.105-3.105,1,0,0,81,false,stim,false,2,822.0,3,0,1,19775,WMM1,340721,false,false,418,image-keyboard-response,30
true,4,1,1,0,false,q,false,true,0.0-2.0-0.11-0.106-3.106,0,0,0,90,true,stim,true,1,578.0000000000582,3,0,0,19775,WMM1,342808,false,true,421,image-keyboard-response,1
true,4,2,1,1,false,z,false,false,0.0-2.0-0.11-0.107-3.107,0,0,0,68,false,stim,true,2,474.0,3,0,2,19775,WMM1,344795,false,false,424,image-keyboard-response,2
true,4,0,1,2,false,d,false,false,0.0-2.0-0.12-0.108-3.108,0,0,0,81,false,stim,true,0,658.0,3,0,1,19775,WMM1,346965,false,false,427,image-keyboard-response,3
true,4,1,1,0,false,q,false,false,0.0-2.0-0.12-0.109-3.109,0,0,0,90,false,stim,true,1,582.0,3,0,0,19775,WMM1,349056,false,false,430,image-keyboard-response,4
true,4,2,1,1,false,z,false,false,0.0-2.0-0.12-0.110-3.110,0,0,0,68,false,stim,true,2,701.0,3,0,2,19775,WMM1,351265,false,false,433,image-keyboard-response,5
true,4,1,1,2,false,d,true,false,0.0-2.0-0.12-0.111-3.111,0,0,0,90,false,stim,false,0,744.0000000000582,3,0,1,19775,WMM1,353517,false,false,436,image-keyboard-response,6
true,4,1,1,1,true,z,false,true,0.0-2.0-0.12-0.112-3.112,0,0,0,90,false,stim,false,2,793.0000000000582,3,0,2,19775,WMM1,355820,false,false,439,image-keyboard-response,7
true,4,1,1,1,true,z,false,true,0.0-2.0-0.12-0.113-3.113,0,0,0,90,false,stim,false,2,790.0,3,0,2,19775,WMM1,358119,false,false,442,image-keyboard-response,8
true,4,1,1,2,false,d,true,false,0.0-2.0-0.12-0.114-3.114,0,0,0,90,false,stim,false,0,1275.0,3,0,1,19775,WMM1,360903,false,false,445,image-keyboard-response,9
true,4,2,1,0,false,q,true,false,0.0-2.0-0.12-0.115-3.115,0,0,0,68,false,stim,false,1,1271.0000000000582,3,0,0,19775,WMM1,363684,false,false,448,image-keyboard-response,10
true,4,1,1,0,false,q,false,false,0.0-2.0-0.12-0.116-3.116,0,0,0,90,false,stim,true,1,994.0,3,0,0,19775,WMM1,366188,false,false,451,image-keyboard-response,11
true,4,1,1,1,true,z,false,true,0.0-2.0-0.13-0.117-3.117,0,0,0,90,false,stim,false,2,853.0,3,0,2,19775,WMM1,368551,false,false,454,image-keyboard-response,12
true,4,2,1,2,true,d,false,true,0.0-2.0-0.13-0.118-3.118,0,0,0,68,false,stim,false,0,1091.0,3,0,1,19775,WMM1,371154,false,false,457,image-keyboard-response,13
true,4,0,1,0,true,q,false,true,0.0-2.0-0.13-0.119-3.119,0,0,0,81,false,stim,false,1,1247.0,3,0,0,19775,WMM1,373908,false,false,460,image-keyboard-response,14
true,4,0,1,0,true,q,false,true,0.0-2.0-0.13-0.120-3.120,0,0,0,81,false,stim,false,1,1196.9999999999418,3,0,0,19775,WMM1,376613,false,false,463,image-keyboard-response,15
true,4,2,1,2,true,d,false,true,0.0-2.0-0.13-0.121-3.121,0,0,0,68,false,stim,false,0,1348.0,3,0,1,19775,WMM1,379470,false,false,466,image-keyboard-response,16
true,4,2,1,2,true,d,false,true,0.0-2.0-0.13-0.122-3.122,0,0,0,68,false,stim,false,0,1151.0,3,0,1,19775,WMM1,382134,false,false,469,image-keyboard-response,17
true,4,0,1,0,true,q,false,true,0.0-2.0-0.13-0.123-3.123,0,0,0,81,false,stim,false,1,1278.0,3,0,0,19775,WMM1,384924,false,false,472,image-keyboard-response,18
true,4,1,1,1,true,z,false,true,0.0-2.0-0.13-0.124-3.124,0,0,0,90,false,stim,false,2,943.9999999999418,3,0,2,19775,WMM1,387377,false,false,475,image-keyboard-response,19
true,4,1,1,1,true,z,false,true,0.0-2.0-0.13-0.125-3.125,0,0,0,90,false,stim,false,2,611.9999999999418,3,0,2,19775,WMM1,389497,false,false,478,image-keyboard-response,20
true,4,2,1,2,true,d,false,true,0.0-2.0-0.14-0.126-3.126,0,0,0,68,false,stim,false,0,1060.0,3,0,1,19775,WMM1,392064,false,false,481,image-keyboard-response,21
true,4,1,1,1,true,z,false,true,0.0-2.0-0.14-0.127-3.127,0,0,0,90,false,stim,false,2,867.0,3,0,2,19775,WMM1,394442,false,false,484,image-keyboard-response,22
true,4,0,1,0,true,q,false,true,0.0-2.0-0.14-0.128-3.128,0,0,0,81,false,stim,false,1,666.0,3,0,0,19775,WMM1,396621,false,false,487,image-keyboard-response,23
true,4,0,1,0,true,q,false,true,0.0-2.0-0.14-0.129-3.129,0,0,0,81,false,stim,false,1,1313.0,3,0,0,19775,WMM1,399443,false,false,490,image-keyboard-response,24
true,4,1,1,1,true,z,false,false,0.0-2.0-0.14-0.130-3.130,0,0,0,90,false,stim,false,2,953.0,3,0,2,19775,WMM1,401905,false,true,493,image-keyboard-response,25
true,4,0,1,2,false,d,false,false,0.0-2.0-0.14-0.131-3.131,0,0,0,81,false,stim,true,0,814.0,3,0,1,19775,WMM1,404233,false,false,496,image-keyboard-response,26
true,4,2,1,2,true,d,false,true,0.0-2.0-0.14-0.132-3.132,0,0,0,68,false,stim,false,0,1266.0,3,0,1,19775,WMM1,407008,false,false,499,image-keyboard-response,27
true,4,1,1,1,true,z,false,true,0.0-2.0-0.14-0.133-3.133,0,0,0,90,false,stim,false,2,1408.0,3,0,2,19775,WMM1,409927,false,false,502,image-keyboard-response,28
true,4,0,1,0,true,q,false,true,0.0-2.0-0.14-0.134-3.134,0,0,0,81,false,stim,false,1,704.0,3,0,0,19775,WMM1,412140,false,false,505,image-keyboard-response,29
true,4,1,1,1,true,z,false,true,0.0-2.0-0.15-0.135-3.135,0,0,0,90,false,stim,false,2,803.0,3,0,2,19775,WMM1,414458,false,false,508,image-keyboard-response,30
true,5,1,4,0,false,q,false,false,0.0-2.0-0.15-0.136-3.136,0,0,0,90,true,stim,true,1,539.0000000000582,3,0,2,19775,WMM1,416510,false,false,511,image-keyboard-response,1
true,5,1,4,0,false,q,false,false,0.0-2.0-0.15-0.137-3.137,0,0,0,90,false,stim,true,1,535.0,3,0,2,19775,WMM1,418554,false,false,514,image-keyboard-response,2
true,5,2,4,1,false,z,false,false,0.0-2.0-0.15-0.138-3.138,0,0,0,68,false,stim,true,2,558.0,3,0,1,19775,WMM1,420621,false,false,517,image-keyboard-response,3
true,5,0,4,2,false,d,false,true,0.0-2.0-0.15-0.139-3.139,0,0,0,81,false,stim,true,0,880.9999999999418,3,0,0,19775,WMM1,423011,false,true,520,image-keyboard-response,4
true,5,1,4,1,true,z,false,true,0.0-2.0-0.15-0.140-3.140,0,0,0,90,false,stim,false,2,782.9999999999418,3,0,1,19775,WMM1,425305,false,false,523,image-keyboard-response,5
true,5,1,4,1,true,z,false,true,0.0-2.0-0.15-0.141-3.141,0,0,0,90,false,stim,false,2,588.0,3,0,1,19775,WMM1,427405,false,false,526,image-keyboard-response,6
true,5,1,4,2,false,d,true,false,0.0-2.0-0.15-0.142-3.142,0,0,0,90,false,stim,false,0,605.0,3,0,0,19775,WMM1,429523,false,false,529,image-keyboard-response,7
true,5,0,4,2,false,d,false,false,0.0-2.0-0.15-0.143-3.143,0,0,0,81,false,stim,true,0,734.0000000000582,3,0,0,19775,WMM1,431767,false,false,532,image-keyboard-response,8
true,5,0,4,2,false,d,false,false,0.0-2.0-0.16-0.144-3.144,0,0,0,81,false,stim,true,0,502.0,3,0,0,19775,WMM1,433778,false,false,535,image-keyboard-response,9
true,5,1,4,1,true,z,false,true,0.0-2.0-0.16-0.145-3.145,0,0,0,90,false,stim,false,2,853.0,3,0,1,19775,WMM1,436140,false,false,538,image-keyboard-response,10
true,5,1,4,1,true,z,false,true,0.0-2.0-0.16-0.146-3.146,0,0,0,90,false,stim,false,2,754.0,3,0,1,19775,WMM1,438406,false,false,541,image-keyboard-response,11
true,5,2,4,2,true,d,false,true,0.0-2.0-0.16-0.147-3.147,0,0,0,68,false,stim,false,0,1552.0,3,0,0,19775,WMM1,441466,false,false,544,image-keyboard-response,12
true,5,2,4,2,true,d,false,true,0.0-2.0-0.16-0.148-3.148,0,0,0,68,false,stim,false,0,983.0,3,0,0,19775,WMM1,443955,false,false,547,image-keyboard-response,13
true,5,0,4,0,true,q,false,true,0.0-2.0-0.16-0.149-3.149,0,0,0,81,false,stim,false,1,1135.9999999999418,3,0,2,19775,WMM1,446600,false,false,550,image-keyboard-response,14
true,5,0,4,0,true,q,false,true,0.0-2.0-0.16-0.150-3.150,0,0,0,81,false,stim,false,1,1245.0,3,0,2,19775,WMM1,449355,false,false,553,image-keyboard-response,15
true,5,1,4,1,true,z,false,true,0.0-2.0-0.16-0.151-3.151,0,0,0,90,false,stim,false,2,1416.0,3,0,1,19775,WMM1,452283,false,false,556,image-keyboard-response,16
true,5,0,4,0,true,q,false,true,0.0-2.0-0.16-0.152-3.152,0,0,0,81,false,stim,false,1,1063.0,3,0,2,19775,WMM1,454857,false,false,559,image-keyboard-response,17
true,5,0,4,0,true,q,false,false,0.0-2.0-0.17-0.153-3.153,0,0,0,81,false,stim,false,1,1492.0,3,0,2,19775,WMM1,457859,false,true,562,image-keyboard-response,18
true,5,0,4,0,true,q,false,true,0.0-2.0-0.17-0.154-3.154,0,0,0,81,false,stim,false,1,1334.9999999999418,3,0,2,19775,WMM1,460703,false,false,565,image-keyboard-response,19
true,5,2,4,2,true,d,false,true,0.0-2.0-0.17-0.155-3.155,0,0,0,68,false,stim,false,0,888.0,3,0,0,19775,WMM1,463099,false,false,568,image-keyboard-response,20
true,5,2,4,2,true,d,false,true,0.0-2.0-0.17-0.156-3.156,0,0,0,68,false,stim,false,0,618.0000000000582,3,0,0,19775,WMM1,465226,false,false,571,image-keyboard-response,21
true,5,1,4,1,true,z,false,true,0.0-2.0-0.17-0.157-3.157,0,0,0,90,false,stim,false,2,745.0,3,0,1,19775,WMM1,467479,false,false,574,image-keyboard-response,22
true,5,1,4,1,true,z,false,true,0.0-2.0-0.17-0.158-3.158,0,0,0,90,false,stim,false,2,712.9999999999418,3,0,1,19775,WMM1,469701,false,false,577,image-keyboard-response,23
true,5,2,4,0,false,q,true,false,0.0-2.0-0.17-0.159-3.159,0,0,0,68,false,stim,false,1,1121.0,3,0,2,19775,WMM1,472331,false,false,580,image-keyboard-response,24
true,5,1,4,1,true,z,false,true,0.0-2.0-0.17-0.160-3.160,0,0,0,90,false,stim,false,2,839.0,3,0,1,19775,WMM1,474682,false,false,583,image-keyboard-response,25
true,5,0,4,2,false,d,false,false,0.0-2.0-0.17-0.161-3.161,0,0,0,81,false,stim,true,0,443.0,3,0,0,19775,WMM1,476632,false,false,586,image-keyboard-response,26
true,5,2,4,0,false,q,true,false,0.0-2.0-0.18-0.162-3.162,0,0,0,68,false,stim,false,1,850.0,3,0,2,19775,WMM1,478996,false,false,589,image-keyboard-response,27
true,5,1,4,1,true,z,false,true,0.0-2.0-0.18-0.163-3.163,0,0,0,90,false,stim,false,2,767.0,3,0,1,19775,WMM1,481273,false,false,592,image-keyboard-response,28
true,5,1,4,1,true,z,false,true,0.0-2.0-0.18-0.164-3.164,0,0,0,90,false,stim,false,2,706.0000000000582,3,0,1,19775,WMM1,483488,false,false,595,image-keyboard-response,29
true,5,0,4,0,true,q,false,true,0.0-2.0-0.18-0.165-3.165,0,0,0,81,false,stim,false,1,1107.0,3,0,2,19775,WMM1,486108,false,false,598,image-keyboard-response,30
true,6,1,2,2,false,d,false,false,0.0-2.0-0.18-0.166-3.166,0,0,0,90,true,stim,true,1,723.9999999999418,3,0,1,19775,WMM1,488354,false,false,601,image-keyboard-response,1
true,6,1,2,0,false,q,true,false,0.0-2.0-0.18-0.167-3.167,0,0,0,90,false,stim,false,2,1215.0,3,0,0,19775,WMM1,491076,false,false,604,image-keyboard-response,2
true,6,2,2,0,false,q,false,false,0.0-2.0-0.18-0.168-3.168,0,0,0,68,false,stim,true,2,492.0,3,0,0,19775,WMM1,493075,false,false,607,image-keyboard-response,3
true,6,0,2,0,true,q,false,true,0.0-2.0-0.18-0.169-3.169,0,0,0,81,false,stim,false,2,479.0,3,0,0,19775,WMM1,495062,false,false,610,image-keyboard-response,4
true,6,0,2,1,false,z,false,false,0.0-2.0-0.18-0.170-3.170,0,0,0,81,false,stim,true,0,741.0,3,0,2,19775,WMM1,497315,false,false,613,image-keyboard-response,5
true,6,0,2,1,false,z,false,false,0.0-2.0-0.19-0.171-3.171,0,0,0,81,false,stim,true,0,500.0,3,0,2,19775,WMM1,499327,false,false,616,image-keyboard-response,6
true,6,1,2,2,false,d,false,false,0.0-2.0-0.19-0.172-3.172,0,0,0,90,false,stim,true,1,658.0,3,0,1,19775,WMM1,501494,false,false,619,image-keyboard-response,7
true,6,1,2,1,true,z,false,true,0.0-2.0-0.19-0.173-3.173,0,0,0,90,false,stim,false,0,519.0000000000582,3,0,2,19775,WMM1,503522,false,false,622,image-keyboard-response,8
true,6,0,2,0,true,q,false,false,0.0-2.0-0.19-0.174-3.174,0,0,0,81,false,stim,false,2,719.9999999999418,3,0,0,19775,WMM1,505749,false,true,625,image-keyboard-response,9
true,6,1,2,1,true,z,false,true,0.0-2.0-0.19-0.175-3.175,0,0,0,90,false,stim,false,0,747.0000000000582,3,0,2,19775,WMM1,508005,false,false,628,image-keyboard-response,10
true,6,0,2,0,true,q,false,true,0.0-2.0-0.19-0.176-3.176,0,0,0,81,false,stim,false,2,737.0,3,0,0,19775,WMM1,510255,false,false,631,image-keyboard-response,11
true,6,2,2,2,true,d,false,true,0.0-2.0-0.19-0.177-3.177,0,0,0,68,false,stim,false,1,508.0000000000582,3,0,1,19775,WMM1,512276,false,false,634,image-keyboard-response,12
true,6,0,2,0,true,q,false,true,0.0-2.0-0.19-0.178-3.178,0,0,0,81,false,stim,false,2,593.0,3,0,0,19775,WMM1,514380,false,false,637,image-keyboard-response,13
true,6,2,2,2,true,d,false,true,0.0-2.0-0.19-0.179-3.179,0,0,0,68,false,stim,false,1,690.0000000000582,3,0,1,19775,WMM1,516579,false,false,640,image-keyboard-response,14
true,6,1,2,1,true,z,false,false,0.0-2.0-0.20-0.180-3.180,0,0,0,90,false,stim,false,0,789.0,3,0,2,19775,WMM1,518880,false,true,643,image-keyboard-response,15
true,6,1,2,1,true,z,false,true,0.0-2.0-0.20-0.181-3.181,0,0,0,90,false,stim,false,0,467.0,3,0,2,19775,WMM1,520856,false,false,646,image-keyboard-response,16
true,6,0,2,0,true,q,false,true,0.0-2.0-0.20-0.182-3.182,0,0,0,81,false,stim,false,2,625.9999999999418,3,0,0,19775,WMM1,522993,false,false,649,image-keyboard-response,17
true,6,2,2,2,true,d,false,true,0.0-2.0-0.20-0.183-3.183,0,0,0,68,false,stim,false,1,634.9999999998836,3,0,1,19775,WMM1,525141,false,false,652,image-keyboard-response,18
true,6,1,2,1,true,z,false,true,0.0-2.0-0.20-0.184-3.184,0,0,0,90,false,stim,false,0,499.0,3,0,2,19775,WMM1,527149,false,false,655,image-keyboard-response,19
true,6,0,2,0,true,q,false,true,0.0-2.0-0.20-0.185-3.185,0,0,0,81,false,stim,false,2,683.0,3,0,0,19775,WMM1,529340,false,false,658,image-keyboard-response,20
true,6,2,2,2,true,d,false,true,0.0-2.0-0.20-0.186-3.186,0,0,0,68,false,stim,false,1,556.0,3,0,1,19775,WMM1,531406,false,false,661,image-keyboard-response,21
true,6,0,2,0,true,q,false,true,0.0-2.0-0.20-0.187-3.187,0,0,0,81,false,stim,false,2,577.0,3,0,0,19775,WMM1,533496,false,false,664,image-keyboard-response,22
true,6,2,2,2,true,d,false,true,0.0-2.0-0.20-0.188-3.188,0,0,0,68,false,stim,false,1,719.0,3,0,1,19775,WMM1,535728,false,false,667,image-keyboard-response,23
true,6,0,2,0,true,q,false,true,0.0-2.0-0.21-0.189-3.189,0,0,0,81,false,stim,false,2,614.0,3,0,0,19775,WMM1,537856,false,false,670,image-keyboard-response,24
true,6,2,2,2,true,d,false,true,0.0-2.0-0.21-0.190-3.190,0,0,0,68,false,stim,false,1,621.0,3,0,1,19775,WMM1,539985,false,false,673,image-keyboard-response,25
true,6,1,2,1,true,z,false,true,0.0-2.0-0.21-0.191-3.191,0,0,0,90,false,stim,false,0,482.0,3,1,2,19775,WMM1,541977,false,false,676,image-keyboard-response,26
true,6,0,2,0,true,q,false,true,0.0-2.0-0.21-0.192-3.192,0,0,0,81,false,stim,false,2,523.0,3,0,0,19775,WMM1,544014,false,false,679,image-keyboard-response,27
true,6,0,2,0,true,q,false,true,0.0-2.0-0.21-0.193-3.193,0,0,0,81,false,stim,false,2,750.0,3,0,0,19775,WMM1,546272,false,false,682,image-keyboard-response,28
true,6,2,2,2,true,d,false,true,0.0-2.0-0.21-0.194-3.194,0,0,0,68,false,stim,false,1,589.0,3,0,1,19775,WMM1,548372,false,false,685,image-keyboard-response,29
true,6,2,2,2,true,d,false,true,0.0-2.0-0.21-0.195-3.195,0,0,0,68,false,stim,false,1,529.0,3,0,1,19775,WMM1,550411,false,false,688,image-keyboard-response,30
true,7,1,3,1,true,z,false,true,0.0-2.0-0.21-0.196-3.196,0,0,1,90,true,stim,false,1,721.0,3,1,2,19775,WMM1,552641,false,false,691,image-keyboard-response,1
true,7,1,3,1,true,z,false,true,0.0-2.0-0.21-0.197-3.197,0,0,1,90,false,stim,false,1,498.0,3,1,2,19775,WMM1,554649,false,false,694,image-keyboard-response,2
true,7,0,3,1,false,z,false,false,0.0-2.0-0.22-0.198-3.198,0,0,1,81,false,stim,true,0,584.0,3,0,0,19775,WMM1,556745,false,false,697,image-keyboard-response,3
true,7,1,3,1,true,z,false,true,0.0-2.0-0.22-0.199-3.199,0,0,1,90,false,stim,false,1,670.9999999998836,3,1,2,19775,WMM1,558927,false,false,700,image-keyboard-response,4
true,7,2,3,0,false,q,false,false,0.0-2.0-0.22-0.200-3.200,0,0,1,68,false,stim,true,2,844.0000000001164,3,0,1,19775,WMM1,561285,false,false,703,image-keyboard-response,5
true,7,0,3,0,true,q,false,true,0.0-2.0-0.22-0.201-3.201,0,0,1,81,false,stim,false,2,453.0,3,0,1,19775,WMM1,563249,false,false,706,image-keyboard-response,6
true,7,0,3,0,true,q,false,true,0.0-2.0-0.22-0.202-3.202,0,0,1,81,false,stim,false,2,557.0,3,0,1,19775,WMM1,565317,false,false,709,image-keyboard-response,7
true,7,1,3,1,true,z,false,false,0.0-2.0-0.22-0.203-3.203,0,0,1,90,false,stim,false,1,717.0,3,1,2,19775,WMM1,567542,false,true,712,image-keyboard-response,8
true,7,1,3,1,true,z,false,false,0.0-2.0-0.22-0.204-3.204,0,0,1,90,false,stim,false,1,678.0,3,1,2,19775,WMM1,569733,false,true,715,image-keyboard-response,9
true,7,1,3,1,true,z,false,true,0.0-2.0-0.22-0.205-3.205,0,0,1,90,false,stim,false,0,684.0,3,0,0,19775,WMM1,571931,false,false,718,image-keyboard-response,10
true,7,1,3,1,true,z,false,true,0.0-2.0-0.22-0.206-3.206,0,0,1,90,false,stim,false,0,610.0,3,0,0,19775,WMM1,574054,false,false,721,image-keyboard-response,11
true,7,0,3,0,true,q,false,true,0.0-2.0-0.23-0.207-3.207,0,0,1,81,false,stim,false,2,791.9999999998836,3,0,1,19775,WMM1,576356,false,false,724,image-keyboard-response,12
true,7,2,3,1,false,z,true,false,0.0-2.0-0.23-0.208-3.208,0,0,1,68,false,stim,false,1,516.0000000001164,3,1,2,19775,WMM1,578381,false,false,727,image-keyboard-response,13
true,7,0,3,1,false,z,true,false,0.0-2.0-0.23-0.209-3.209,0,0,1,81,false,stim,false,1,694.0,3,1,2,19775,WMM1,580584,false,false,730,image-keyboard-response,14
true,7,0,3,0,true,q,false,true,0.0-2.0-0.23-0.210-3.210,0,0,1,81,false,stim,false,2,758.0,3,0,1,19775,WMM1,582855,false,false,733,image-keyboard-response,15
true,7,1,3,1,true,z,false,true,0.0-2.0-0.23-0.211-3.211,0,0,1,90,false,stim,false,0,657.0,3,0,0,19775,WMM1,585023,false,false,736,image-keyboard-response,16
true,7,0,3,0,true,q,false,true,0.0-2.0-0.23-0.212-3.212,0,0,1,81,false,stim,false,2,586.0,3,0,1,19775,WMM1,587118,false,false,739,image-keyboard-response,17
true,7,2,3,1,false,z,true,false,0.0-2.0-0.23-0.213-3.213,0,0,1,68,false,stim,false,1,643.0,3,1,2,19775,WMM1,589271,false,false,742,image-keyboard-response,18
true,7,1,3,1,true,z,false,true,0.0-2.0-0.23-0.214-3.214,0,0,1,90,false,stim,false,0,921.9999999998836,3,0,0,19775,WMM1,591702,false,false,745,image-keyboard-response,19
true,7,1,3,1,true,z,false,true,0.0-2.0-0.23-0.215-3.215,0,0,1,90,false,stim,false,0,544.0,3,0,0,19775,WMM1,593760,false,false,748,image-keyboard-response,20
true,7,0,3,0,true,q,false,true,0.0-2.0-0.24-0.216-3.216,0,0,1,81,false,stim,false,2,689.0,3,0,1,19775,WMM1,595964,false,false,751,image-keyboard-response,21
true,7,1,3,1,true,z,false,true,0.0-2.0-0.24-0.217-3.217,0,0,1,90,false,stim,false,0,779.0,3,0,0,19775,WMM1,598254,false,false,754,image-keyboard-response,22
true,7,1,3,1,true,z,false,true,0.0-2.0-0.24-0.218-3.218,0,0,1,90,false,stim,false,1,472.0,3,1,2,19775,WMM1,600236,false,false,757,image-keyboard-response,23
true,7,0,3,0,true,q,false,true,0.0-2.0-0.24-0.219-3.219,0,0,1,81,false,stim,false,2,543.0,3,0,1,19775,WMM1,602291,false,false,760,image-keyboard-response,24
true,7,1,3,1,true,z,false,true,0.0-2.0-0.24-0.220-3.220,0,0,1,90,false,stim,false,0,542.0,3,0,0,19775,WMM1,604341,false,false,763,image-keyboard-response,25
true,7,0,3,0,true,q,false,true,0.0-2.0-0.24-0.221-3.221,0,0,1,81,false,stim,false,2,642.0,3,0,1,19775,WMM1,606496,false,false,766,image-keyboard-response,26
true,7,1,3,1,true,z,false,true,0.0-2.0-0.24-0.222-3.222,0,0,1,90,false,stim,false,1,491.9999999998836,3,1,2,19775,WMM1,608498,false,false,769,image-keyboard-response,27
true,7,0,3,1,false,z,false,false,0.0-2.0-0.24-0.223-3.223,0,0,1,81,false,stim,true,0,675.0,3,0,0,19775,WMM1,610685,false,false,772,image-keyboard-response,28
true,7,1,3,1,true,z,false,true,0.0-2.0-0.24-0.224-3.224,0,0,1,90,false,stim,false,1,537.0,3,0,2,19775,WMM1,612730,false,false,775,image-keyboard-response,29
true,7,1,3,1,true,z,false,true,0.0-2.0-0.25-0.225-3.225,0,0,1,90,false,stim,false,0,824.0,3,0,0,19775,WMM1,615065,false,false,778,image-keyboard-response,30
true,7,0,3,0,true,q,false,true,0.0-2.0-0.25-0.226-3.226,0,0,1,81,false,stim,false,2,805.0000000001164,3,0,1,19775,WMM1,617381,false,false,781,image-keyboard-response,31
true,7,1,3,1,true,z,false,true,0.0-2.0-0.25-0.227-3.227,0,0,1,90,false,stim,false,1,539.0000000001164,3,0,2,19775,WMM1,619429,false,false,784,image-keyboard-response,32
true,7,0,3,0,true,q,false,true,0.0-2.0-0.25-0.228-3.228,0,0,1,81,false,stim,false,2,631.0,3,0,1,19775,WMM1,621572,false,false,787,image-keyboard-response,33
true,7,1,3,1,true,z,false,true,0.0-2.0-0.25-0.229-3.229,0,0,1,90,false,stim,false,1,798.0,3,0,2,19775,WMM1,623878,false,false,790,image-keyboard-response,34
true,7,1,3,1,true,z,false,true,0.0-2.0-0.25-0.230-3.230,0,0,1,90,false,stim,false,1,1103.0,3,0,2,19775,WMM1,626490,false,false,793,image-keyboard-response,35
true,7,1,3,1,true,z,false,true,0.0-2.0-0.25-0.231-3.231,0,0,1,90,false,stim,false,0,1029.0,3,0,0,19775,WMM1,629031,false,false,796,image-keyboard-response,36
true,7,0,3,0,true,q,false,true,0.0-2.0-0.25-0.232-3.232,0,0,1,81,false,stim,false,2,545.0,3,0,1,19775,WMM1,631090,false,false,799,image-keyboard-response,37
true,8,1,1,2,false,d,false,false,0.0-2.0-0.25-0.233-3.233,0,0,0,90,true,stim,true,1,1052.0,3,0,0,19775,WMM1,633657,false,false,802,image-keyboard-response,1
true,8,1,1,2,false,d,false,false,0.0-2.0-0.26-0.234-3.234,0,0,0,90,false,stim,true,1,915.0000000001164,3,0,2,19775,WMM1,636083,false,false,805,image-keyboard-response,2
true,8,0,1,1,false,z,false,false,0.0-2.0-0.26-0.235-3.235,0,0,0,81,false,stim,true,0,1090.0,3,0,1,19775,WMM1,638682,false,false,808,image-keyboard-response,3
true,8,1,1,1,true,z,false,true,0.0-2.0-0.26-0.236-3.236,0,0,0,90,false,stim,false,0,1014.0000000001164,3,0,1,19775,WMM1,641208,false,false,811,image-keyboard-response,4
true,8,2,1,2,true,d,false,true,0.0-2.0-0.26-0.237-3.237,0,0,0,68,false,stim,false,1,1309.0,3,0,2,19775,WMM1,644027,false,false,814,image-keyboard-response,5
true,8,0,1,2,false,d,true,false,0.0-2.0-0.26-0.238-3.238,0,0,0,81,false,stim,false,1,1167.0000000001164,3,0,0,19775,WMM1,646702,false,false,817,image-keyboard-response,6
true,8,2,1,2,true,d,false,true,0.0-2.0-0.26-0.239-3.239,0,0,0,68,false,stim,false,1,1258.0,3,0,0,19775,WMM1,649469,false,false,820,image-keyboard-response,7
true,8,1,1,1,true,z,false,true,0.0-2.0-0.26-0.240-3.240,0,0,0,90,false,stim,false,0,1013.0,3,0,1,19775,WMM1,651991,false,false,823,image-keyboard-response,8
true,8,2,1,2,true,d,false,true,0.0-2.0-0.26-0.241-3.241,0,0,0,68,false,stim,false,1,675.0000000001164,3,0,0,19775,WMM1,654179,false,false,826,image-keyboard-response,9
true,8,2,1,2,true,d,false,true,0.0-2.0-0.26-0.242-3.242,0,0,0,68,false,stim,false,1,1235.0,3,0,2,19775,WMM1,656927,false,false,829,image-keyboard-response,10
true,8,1,1,1,true,z,false,true,0.0-2.0-0.27-0.243-3.243,0,0,0,90,false,stim,false,0,1322.0,3,0,1,19775,WMM1,659758,false,false,832,image-keyboard-response,11
true,8,1,1,1,true,z,false,true,0.0-2.0-0.27-0.244-3.244,0,0,0,90,false,stim,false,0,1182.0,3,0,1,19775,WMM1,662450,false,false,835,image-keyboard-response,12
true,8,2,1,2,true,d,false,true,0.0-2.0-0.27-0.245-3.245,0,0,0,68,false,stim,false,1,1290.0,3,0,0,19775,WMM1,665252,false,false,838,image-keyboard-response,13
true,8,2,1,2,true,d,false,true,0.0-2.0-0.27-0.246-3.246,0,0,0,68,false,stim,false,1,1179.0,3,0,2,19775,WMM1,667942,false,false,841,image-keyboard-response,14
true,8,2,1,2,true,d,false,true,0.0-2.0-0.27-0.247-3.247,0,0,0,68,false,stim,false,1,1332.9999999998836,3,0,2,19775,WMM1,670786,false,false,844,image-keyboard-response,15
true,8,2,1,2,true,d,false,true,0.0-2.0-0.27-0.248-3.248,0,0,0,68,false,stim,false,1,1129.0,3,0,2,19775,WMM1,673423,false,false,847,image-keyboard-response,16
true,8,1,1,1,true,z,false,true,0.0-2.0-0.27-0.249-3.249,0,0,0,90,false,stim,false,0,899.0,3,0,1,19775,WMM1,675830,false,false,850,image-keyboard-response,17
true,8,2,1,2,true,d,false,false,0.0-2.0-0.27-0.250-3.250,0,0,0,68,false,stim,false,1,1704.0,3,0,0,19775,WMM1,679047,false,true,853,image-keyboard-response,18
true,8,2,1,2,true,d,false,true,0.0-2.0-0.27-0.251-3.251,0,0,0,68,false,stim,false,1,573.0000000001164,3,0,0,19775,WMM1,681131,false,false,856,image-keyboard-response,19
true,8,1,1,1,true,z,false,true,0.0-2.0-0.28-0.252-3.252,0,0,0,90,false,stim,false,0,788.0000000001164,3,0,1,19775,WMM1,683429,false,false,859,image-keyboard-response,20
true,8,2,1,2,true,d,false,true,0.0-2.0-0.28-0.253-3.253,0,0,0,68,false,stim,false,1,606.9999999998836,3,0,2,19775,WMM1,685546,false,false,862,image-keyboard-response,21
true,8,1,1,1,true,z,false,true,0.0-2.0-0.28-0.254-3.254,0,0,0,90,false,stim,false,0,588.0,3,0,1,19775,WMM1,687646,false,false,865,image-keyboard-response,22
true,8,2,1,2,true,d,false,true,0.0-2.0-0.28-0.255-3.255,0,0,0,68,false,stim,false,1,556.9999999998836,3,0,2,19775,WMM1,689712,false,false,868,image-keyboard-response,23
true,8,1,1,1,true,z,false,true,0.0-2.0-0.28-0.256-3.256,0,0,0,90,false,stim,false,0,620.0,3,0,1,19775,WMM1,691840,false,false,871,image-keyboard-response,24
true,8,2,1,2,true,d,false,true,0.0-2.0-0.28-0.257-3.257,0,0,0,68,false,stim,false,1,720.0,3,0,2,19775,WMM1,694069,false,false,874,image-keyboard-response,25
true,8,2,1,2,true,d,false,true,0.0-2.0-0.28-0.258-3.258,0,0,0,68,false,stim,false,1,857.0,3,0,0,19775,WMM1,696435,false,false,877,image-keyboard-response,26
true,8,2,1,2,true,d,false,true,0.0-2.0-0.28-0.259-3.259,0,0,0,68,false,stim,false,1,684.0000000001164,3,0,0,19775,WMM1,698631,false,false,880,image-keyboard-response,27
true,8,2,1,2,true,d,false,true,0.0-2.0-0.28-0.260-3.260,0,0,0,68,false,stim,false,1,515.0,3,0,0,19775,WMM1,700657,false,false,883,image-keyboard-response,28
true,8,2,1,2,true,d,false,true,0.0-2.0-0.29-0.261-3.261,0,0,0,68,false,stim,false,1,726.0,3,0,2,19775,WMM1,702893,false,false,886,image-keyboard-response,29
true,8,1,1,1,true,z,false,false,0.0-2.0-0.29-0.262-3.262,0,0,0,90,false,stim,false,0,637.0000000001164,3,0,1,19775,WMM1,705040,false,true,889,image-keyboard-response,30
true,9,2,2,1,false,z,false,false,0.0-2.0-0.29-0.263-3.263,0,0,0,68,true,stim,true,2,1109.0,3,0,2,19775,WMM1,707658,false,false,892,image-keyboard-response,1
true,9,0,2,2,false,d,true,false,0.0-2.0-0.29-0.264-3.264,0,0,0,81,false,stim,false,1,1137.0,3,0,1,19775,WMM1,710308,false,false,895,image-keyboard-response,2
true,9,0,2,0,true,q,false,true,0.0-2.0-0.29-0.265-3.265,0,0,0,81,false,stim,false,2,1196.0,3,0,0,19775,WMM1,713014,false,false,898,image-keyboard-response,3
true,9,0,2,1,false,z,true,false,0.0-2.0-0.29-0.266-3.266,0,0,0,81,false,stim,false,2,817.0,3,0,2,19775,WMM1,715350,false,false,901,image-keyboard-response,4
true,9,0,2,0,true,q,false,true,0.0-2.0-0.29-0.267-3.267,0,0,0,81,false,stim,false,2,1303.0,3,0,0,19775,WMM1,718162,false,false,904,image-keyboard-response,5
true,9,0,2,0,true,q,false,false,0.0-2.0-0.29-0.268-3.268,0,0,0,81,false,stim,false,2,1008.0000000001164,3,0,0,19775,WMM1,720679,false,true,907,image-keyboard-response,6
true,9,1,2,2,false,d,false,false,0.0-2.0-0.29-0.269-3.269,0,0,0,90,false,stim,true,1,1115.0,3,0,1,19775,WMM1,723307,false,false,910,image-keyboard-response,7
true,9,2,2,2,true,d,false,true,0.0-2.0-0.30-0.270-3.270,0,0,0,68,false,stim,false,1,1052.0,3,0,1,19775,WMM1,725872,false,false,913,image-keyboard-response,8
true,9,0,2,0,true,q,false,true,0.0-2.0-0.30-0.271-3.271,0,0,0,81,false,stim,false,2,649.9999999998836,3,0,0,19775,WMM1,728030,false,false,916,image-keyboard-response,9
true,9,1,2,1,true,z,false,true,0.0-2.0-0.30-0.272-3.272,0,0,0,90,false,stim,false,2,977.9999999998836,3,0,2,19775,WMM1,730517,false,false,919,image-keyboard-response,10
true,9,1,2,1,true,z,false,true,0.0-2.0-0.30-0.273-3.273,0,0,0,90,false,stim,false,2,1344.0,3,0,2,19775,WMM1,733373,false,false,922,image-keyboard-response,11
true,9,0,2,0,true,q,false,true,0.0-2.0-0.30-0.274-3.274,0,0,0,81,false,stim,false,2,1044.9999999998836,3,0,0,19775,WMM1,735931,false,false,925,image-keyboard-response,12
true,9,2,2,2,true,d,false,true,0.0-2.0-0.30-0.275-3.275,0,0,0,68,false,stim,false,1,696.0,3,0,1,19775,WMM1,738138,false,false,928,image-keyboard-response,13
true,9,0,2,0,true,q,false,true,0.0-2.0-0.30-0.276-3.276,0,0,0,81,false,stim,false,2,955.0,3,0,0,19775,WMM1,740602,false,false,931,image-keyboard-response,14
true,9,1,2,1,true,z,false,true,0.0-2.0-0.30-0.277-3.277,0,0,0,90,false,stim,false,2,942.0,3,0,2,19775,WMM1,743052,false,false,934,image-keyboard-response,15
true,9,2,2,2,true,d,false,true,0.0-2.0-0.30-0.278-3.278,0,0,0,68,false,stim,false,1,831.0,3,0,1,19775,WMM1,745394,false,false,937,image-keyboard-response,16
true,9,2,2,2,true,d,false,true,0.0-2.0-0.31-0.279-3.279,0,0,0,68,false,stim,false,1,796.0000000001164,3,0,1,19775,WMM1,747702,false,false,940,image-keyboard-response,17
true,9,0,2,0,true,q,false,true,0.0-2.0-0.31-0.280-3.280,0,0,0,81,false,stim,false,2,730.0,3,0,0,19775,WMM1,749944,false,false,943,image-keyboard-response,18
true,9,2,2,2,true,d,false,true,0.0-2.0-0.31-0.281-3.281,0,0,0,68,false,stim,false,1,1220.9999999998836,3,0,1,19775,WMM1,752674,false,false,946,image-keyboard-response,19
true,9,0,2,0,true,q,false,true,0.0-2.0-0.31-0.282-3.282,0,0,0,81,false,stim,false,2,1041.0,3,0,0,19775,WMM1,755226,false,false,949,image-keyboard-response,20
true,9,0,2,0,true,q,false,false,0.0-2.0-0.31-0.283-3.283,0,0,0,81,false,stim,false,2,687.0,3,0,0,19775,WMM1,757425,false,true,952,image-keyboard-response,21
true,9,1,2,1,true,z,false,true,0.0-2.0-0.31-0.284-3.284,0,0,0,90,false,stim,false,2,1226.0,3,0,2,19775,WMM1,760162,false,false,955,image-keyboard-response,22
true,9,1,2,1,true,z,false,true,0.0-2.0-0.31-0.285-3.285,0,0,0,90,false,stim,false,2,602.0,3,0,2,19775,WMM1,762275,false,false,958,image-keyboard-response,23
true,9,2,2,2,true,d,false,true,0.0-2.0-0.31-0.286-3.286,0,0,0,68,false,stim,false,1,649.0,3,0,1,19775,WMM1,764433,false,false,961,image-keyboard-response,24
true,9,1,2,1,true,z,false,false,0.0-2.0-0.31-0.287-3.287,0,0,0,90,false,stim,false,2,783.0,3,0,2,19775,WMM1,766725,false,true,964,image-keyboard-response,25
true,9,2,2,2,true,d,false,true,0.0-2.0-0.32-0.288-3.288,0,0,0,68,false,stim,false,1,527.0,3,0,1,19775,WMM1,768772,false,false,967,image-keyboard-response,26
true,9,0,2,0,true,q,false,true,0.0-2.0-0.32-0.289-3.289,0,0,0,81,false,stim,false,2,701.0,3,0,0,19775,WMM1,770980,false,false,970,image-keyboard-response,27
true,9,1,2,1,true,z,false,true,0.0-2.0-0.32-0.290-3.290,0,0,0,90,false,stim,false,2,476.0,3,0,2,19775,WMM1,772967,false,false,973,image-keyboard-response,28
true,9,0,2,0,true,q,false,true,0.0-2.0-0.32-0.291-3.291,0,0,0,81,false,stim,false,2,577.9999999998836,3,0,0,19775,WMM1,775055,false,false,976,image-keyboard-response,29
true,9,1,2,1,true,z,false,true,0.0-2.0-0.32-0.292-3.292,0,0,0,90,false,stim,false,2,664.0,3,0,2,19775,WMM1,777228,false,false,979,image-keyboard-response,30
true,10,2,1,0,false,q,false,false,0.0-2.0-0.32-0.293-3.293,0,0,0,68,true,stim,true,2,779.0,3,0,1,19775,WMM1,779519,false,false,982,image-keyboard-response,1
true,10,2,1,0,false,q,false,true,0.0-2.0-0.32-0.294-3.294,0,0,0,68,false,stim,true,2,560.0,3,0,1,19775,WMM1,781592,false,true,985,image-keyboard-response,2
true,10,1,1,0,false,q,false,false,0.0-2.0-0.32-0.295-3.295,0,0,0,90,false,stim,true,1,589.0,3,0,2,19775,WMM1,783692,false,false,988,image-keyboard-response,3
true,10,0,1,1,false,z,false,false,0.0-2.0-0.32-0.296-3.296,0,0,0,81,false,stim,true,0,537.0,3,0,0,19775,WMM1,785741,false,false,991,image-keyboard-response,4
true,10,2,1,0,false,q,false,false,0.0-2.0-0.33-0.297-3.297,0,0,0,68,false,stim,true,2,1409.0,3,0,1,19775,WMM1,788660,false,false,994,image-keyboard-response,5
true,10,2,1,0,false,q,true,false,0.0-2.0-0.33-0.298-3.298,0,0,0,68,false,stim,false,1,1559.0,3,0,2,19775,WMM1,791731,false,false,997,image-keyboard-response,6
true,10,0,1,0,true,q,false,true,0.0-2.0-0.33-0.299-3.299,0,0,0,81,false,stim,false,2,1083.0,3,0,1,19775,WMM1,794325,false,false,1000,image-keyboard-response,7
true,10,0,1,0,true,q,false,true,0.0-2.0-0.33-0.300-3.300,0,0,0,81,false,stim,false,1,1536.0,3,0,2,19775,WMM1,797380,false,false,1003,image-keyboard-response,8
true,10,1,1,1,true,z,false,true,0.0-2.0-0.33-0.301-3.301,0,0,0,90,false,stim,false,0,521.0000000001164,3,0,0,19775,WMM1,799409,false,false,1006,image-keyboard-response,9
true,10,0,1,0,true,q,false,true,0.0-2.0-0.33-0.302-3.302,0,0,0,81,false,stim,false,1,667.0,3,0,2,19775,WMM1,801584,false,false,1009,image-keyboard-response,10
true,10,1,1,1,true,z,false,true,0.0-2.0-0.33-0.303-3.303,0,0,0,90,false,stim,false,0,1238.0000000001164,3,0,0,19775,WMM1,804332,false,false,1012,image-keyboard-response,11
true,10,0,1,0,true,q,false,true,0.0-2.0-0.33-0.304-3.304,0,0,0,81,false,stim,false,2,491.0000000001164,3,0,1,19775,WMM1,806332,false,false,1015,image-keyboard-response,12
true,10,1,1,1,true,z,false,true,0.0-2.0-0.33-0.305-3.305,0,0,0,90,false,stim,false,0,546.0,3,0,0,19775,WMM1,808387,false,false,1018,image-keyboard-response,13
true,10,0,1,0,true,q,false,true,0.0-2.0-0.34-0.306-3.306,0,0,0,81,false,stim,false,1,691.0,3,0,2,19775,WMM1,810588,false,false,1021,image-keyboard-response,14
true,10,0,1,0,true,q,false,true,0.0-2.0-0.34-0.307-3.307,0,0,0,81,false,stim,false,2,1468.0,3,0,1,19775,WMM1,813564,false,false,1024,image-keyboard-response,15
true,10,1,1,1,true,z,false,true,0.0-2.0-0.34-0.308-3.308,0,0,0,90,false,stim,false,0,1329.0,3,0,0,19775,WMM1,816403,false,false,1027,image-keyboard-response,16
true,10,1,1,1,true,z,false,true,0.0-2.0-0.34-0.309-3.309,0,0,0,90,false,stim,false,0,1182.0,3,0,0,19775,WMM1,819095,false,false,1030,image-keyboard-response,17
true,10,1,1,1,true,z,false,true,0.0-2.0-0.34-0.310-3.310,0,0,0,90,false,stim,false,0,1404.0,3,0,0,19775,WMM1,822007,false,false,1033,image-keyboard-response,18
true,10,1,1,0,false,q,true,false,0.0-2.0-0.34-0.311-3.311,0,0,0,90,false,stim,false,2,1373.0,3,0,1,19775,WMM1,824890,false,false,1036,image-keyboard-response,19
true,10,0,1,0,true,q,false,false,0.0-2.0-0.34-0.312-3.312,0,0,0,81,false,stim,false,1,1252.9999999998836,3,0,2,19775,WMM1,827653,false,true,1039,image-keyboard-response,20
true,10,0,1,0,true,q,false,true,0.0-2.0-0.34-0.313-3.313,0,0,0,81,false,stim,false,2,846.0,3,0,1,19775,WMM1,830013,false,false,1042,image-keyboard-response,21
true,10,0,1,0,true,q,false,true,0.0-2.0-0.34-0.314-3.314,0,0,0,81,false,stim,false,1,1137.0,3,0,2,19775,WMM1,832663,false,false,1045,image-keyboard-response,22
true,10,0,1,0,true,q,false,true,0.0-2.0-0.35-0.315-3.315,0,0,0,81,false,stim,false,2,1508.0,3,0,1,19775,WMM1,835683,false,false,1048,image-keyboard-response,23
true,10,1,1,1,true,z,false,false,0.0-2.0-0.35-0.316-3.316,0,0,0,90,false,stim,false,0,1266.0,3,0,0,19775,WMM1,838464,false,true,1051,image-keyboard-response,24
true,10,0,1,0,true,q,false,true,0.0-2.0-0.35-0.317-3.317,0,0,0,81,false,stim,false,1,902.9999999998836,3,0,2,19775,WMM1,840879,false,false,1054,image-keyboard-response,25
true,10,0,1,0,true,q,false,true,0.0-2.0-0.35-0.318-3.318,0,0,0,81,false,stim,false,2,571.0000000001164,3,0,1,19775,WMM1,842963,false,false,1057,image-keyboard-response,26
true,10,0,1,0,true,q,false,true,0.0-2.0-0.35-0.319-3.319,0,0,0,81,false,stim,false,1,634.0,3,0,2,19775,WMM1,845106,false,false,1060,image-keyboard-response,27
true,10,0,1,0,true,q,false,true,0.0-2.0-0.35-0.320-3.320,0,0,0,81,false,stim,false,2,436.0,3,0,1,19775,WMM1,847052,false,false,1063,image-keyboard-response,28
true,10,1,1,1,true,z,false,true,0.0-2.0-0.35-0.321-3.321,0,0,0,90,false,stim,false,0,446.0,3,0,0,19775,WMM1,849006,false,false,1066,image-keyboard-response,29
true,10,1,1,1,true,z,false,true,0.0-2.0-0.35-0.322-3.322,0,0,0,90,false,stim,false,0,539.0000000001164,3,0,0,19775,WMM1,851053,false,false,1069,image-keyboard-response,30
true,10,0,1,0,true,q,false,true,0.0-2.0-0.35-0.323-3.323,0,0,0,81,false,stim,false,1,538.0,3,0,2,19775,WMM1,853103,false,false,1072,image-keyboard-response,31
true,10,0,1,0,true,q,false,true,0.0-2.0-0.36-0.324-3.324,0,0,0,81,false,stim,false,2,644.0,3,0,1,19775,WMM1,855262,false,false,1075,image-keyboard-response,32
true,10,0,1,0,true,q,false,true,0.0-2.0-0.36-0.325-3.325,0,0,0,81,false,stim,false,2,550.0,3,0,1,19775,WMM1,857320,false,false,1078,image-keyboard-response,33
true,11,1,2,0,false,q,false,false,0.0-2.0-0.36-0.326-3.326,0,0,0,90,true,stim,true,1,852.9999999998836,3,0,0,19775,WMM1,859685,false,false,1081,image-keyboard-response,1
true,11,0,2,1,false,z,false,false,0.0-2.0-0.36-0.327-3.327,0,0,0,81,false,stim,true,0,1003.0,3,0,2,19775,WMM1,862198,false,false,1084,image-keyboard-response,2
true,11,2,2,0,false,q,true,false,0.0-2.0-0.36-0.328-3.328,0,0,0,68,false,stim,false,1,786.0,3,0,0,19775,WMM1,864495,false,false,1087,image-keyboard-response,3
true,11,1,2,1,true,z,false,true,0.0-2.0-0.36-0.329-3.329,0,0,0,90,false,stim,false,0,973.0,3,0,2,19775,WMM1,866979,false,false,1090,image-keyboard-response,4
true,11,0,2,2,false,d,false,false,0.0-2.0-0.36-0.330-3.330,0,0,0,81,false,stim,true,0,698.0,3,0,1,19775,WMM1,869187,false,false,1093,image-keyboard-response,5
true,11,1,2,0,false,q,false,false,0.0-2.0-0.36-0.331-3.331,0,0,0,90,false,stim,true,1,1090.9999999998836,3,0,0,19775,WMM1,871789,false,false,1096,image-keyboard-response,6
true,11,1,2,1,true,z,false,true,0.0-2.0-0.36-0.332-3.332,0,0,0,90,false,stim,false,0,745.0,3,0,2,19775,WMM1,874046,false,false,1099,image-keyboard-response,7
true,11,0,2,0,true,q,false,true,0.0-2.0-0.37-0.333-3.333,0,0,0,81,false,stim,false,1,1551.0,3,0,0,19775,WMM1,877119,false,false,1102,image-keyboard-response,8
true,11,0,2,0,true,q,false,true,0.0-2.0-0.37-0.334-3.334,0,0,0,81,false,stim,false,1,745.0,3,0,0,19775,WMM1,879374,false,false,1105,image-keyboard-response,9
true,11,1,2,1,true,z,false,true,0.0-2.0-0.37-0.335-3.335,0,0,0,90,false,stim,false,0,698.0,3,0,2,19775,WMM1,881581,false,false,1108,image-keyboard-response,10
true,11,2,2,2,true,d,false,true,0.0-2.0-0.37-0.336-3.336,0,0,0,68,false,stim,false,0,665.0,3,0,1,19775,WMM1,883756,false,false,1111,image-keyboard-response,11
true,11,1,2,1,true,z,false,true,0.0-2.0-0.37-0.337-3.337,0,0,0,90,false,stim,false,0,928.0,3,0,2,19775,WMM1,886192,false,false,1114,image-keyboard-response,12
true,11,0,2,0,true,q,false,true,0.0-2.0-0.37-0.338-3.338,0,0,0,81,false,stim,false,1,786.0,3,0,0,19775,WMM1,888490,false,false,1117,image-keyboard-response,13
true,11,2,2,2,true,d,false,true,0.0-2.0-0.37-0.339-3.339,0,0,0,68,false,stim,false,0,940.9999999998836,3,0,1,19775,WMM1,890941,false,false,1120,image-keyboard-response,14
true,11,1,2,1,true,z,false,true,0.0-2.0-0.37-0.340-3.340,0,0,0,90,false,stim,false,0,523.0,3,0,2,19775,WMM1,892975,false,false,1123,image-keyboard-response,15
true,11,2,2,2,true,d,false,true,0.0-2.0-0.37-0.341-3.341,0,0,0,68,false,stim,false,0,1041.0,3,0,1,19775,WMM1,895525,false,false,1126,image-keyboard-response,16
true,11,2,2,2,true,d,false,true,0.0-2.0-0.38-0.342-3.342,0,0,0,68,false,stim,false,0,746.0,3,0,1,19775,WMM1,897782,false,false,1129,image-keyboard-response,17
true,11,0,2,0,true,q,false,true,0.0-2.0-0.38-0.343-3.343,0,0,0,81,false,stim,false,1,571.0,3,0,0,19775,WMM1,899863,false,false,1132,image-keyboard-response,18
true,11,1,2,1,true,z,false,true,0.0-2.0-0.38-0.344-3.344,0,0,0,90,false,stim,false,0,699.0000000001164,3,0,2,19775,WMM1,902078,false,false,1135,image-keyboard-response,19
true,11,1,2,1,true,z,false,true,0.0-2.0-0.38-0.345-3.345,0,0,0,90,false,stim,false,0,558.9999999998836,3,0,2,19775,WMM1,904146,false,false,1138,image-keyboard-response,20
true,11,2,2,2,true,d,false,true,0.0-2.0-0.38-0.346-3.346,0,0,0,68,false,stim,false,0,772.0,3,0,1,19775,WMM1,906430,false,false,1141,image-keyboard-response,21
true,11,0,2,0,true,q,false,true,0.0-2.0-0.38-0.347-3.347,0,0,0,81,false,stim,false,1,603.0,3,0,0,19775,WMM1,908547,false,false,1144,image-keyboard-response,22
true,11,1,2,1,true,z,false,true,0.0-2.0-0.38-0.348-3.348,0,0,0,90,false,stim,false,0,615.9999999998836,3,1,2,19775,WMM1,910675,false,false,1147,image-keyboard-response,23
true,11,2,2,2,true,d,false,false,0.0-2.0-0.38-0.349-3.349,0,0,0,68,false,stim,false,0,790.0000000001164,3,0,1,19775,WMM1,912976,false,true,1150,image-keyboard-response,24
true,11,0,2,0,true,q,false,true,0.0-2.0-0.38-0.350-3.350,0,0,0,81,false,stim,false,1,744.0000000001164,3,0,0,19775,WMM1,915231,false,false,1153,image-keyboard-response,25
true,11,2,2,2,true,d,false,true,0.0-2.0-0.39-0.351-3.351,0,0,0,68,false,stim,false,0,769.0,3,0,1,19775,WMM1,917512,false,false,1156,image-keyboard-response,26
true,11,0,2,0,true,q,false,true,0.0-2.0-0.39-0.352-3.352,0,0,0,81,false,stim,false,1,679.0,3,0,0,19775,WMM1,919701,false,false,1159,image-keyboard-response,27
true,11,1,2,1,true,z,false,false,0.0-2.0-0.39-0.353-3.353,0,0,0,90,false,stim,false,0,559.0000000001164,3,1,2,19775,WMM1,921774,false,true,1162,image-keyboard-response,28
true,11,2,2,2,true,d,false,false,0.0-2.0-0.39-0.354-3.354,0,0,0,68,false,stim,false,0,637.0000000001164,3,0,1,19775,WMM1,923923,false,true,1165,image-keyboard-response,29
true,11,0,2,2,false,d,false,false,0.0-2.0-0.39-0.355-3.355,0,0,0,81,false,stim,true,0,1146.0,3,0,1,19775,WMM1,926584,false,false,1168,image-keyboard-response,30
true,12,0,3,2,false,d,false,false,0.0-2.0-0.39-0.356-3.356,0,0,1,81,true,stim,true,0,1031.0000000001164,3,0,0,19775,WMM1,929126,false,false,1171,image-keyboard-response,1
true,12,2,3,1,false,z,true,false,0.0-2.0-0.39-0.357-3.357,0,0,1,68,false,stim,false,1,1047.0,3,1,2,19775,WMM1,931682,false,false,1174,image-keyboard-response,2
true,12,0,3,1,false,z,true,false,0.0-2.0-0.39-0.358-3.358,0,0,1,81,false,stim,false,1,1247.0,3,1,2,19775,WMM1,934443,false,false,1177,image-keyboard-response,3
true,12,1,3,2,false,d,true,false,0.0-2.0-0.39-0.359-3.359,0,0,1,90,false,stim,false,0,1352.0,3,0,0,19775,WMM1,937308,false,false,1180,image-keyboard-response,4
true,12,0,3,2,false,d,false,false,0.0-2.0-0.40-0.360-3.360,0,0,1,81,false,stim,true,0,960.0,3,0,0,19775,WMM1,939777,false,false,1183,image-keyboard-response,5
true,12,2,3,1,false,z,false,false,0.0-2.0-0.40-0.361-3.361,0,0,1,68,false,stim,true,2,753.0,3,0,1,19775,WMM1,942040,false,false,1186,image-keyboard-response,6
true,12,1,3,1,true,z,false,true,0.0-2.0-0.40-0.362-3.362,0,0,1,90,false,stim,false,2,557.0000000001164,3,0,1,19775,WMM1,944112,false,false,1189,image-keyboard-response,7
true,12,1,3,1,true,z,false,true,0.0-2.0-0.40-0.363-3.363,0,0,1,90,false,stim,false,2,594.0,3,0,1,19775,WMM1,946222,false,false,1192,image-keyboard-response,8
true,12,2,3,1,false,z,true,false,0.0-2.0-0.40-0.364-3.364,0,0,1,68,false,stim,false,1,830.0,3,1,2,19775,WMM1,948564,false,false,1195,image-keyboard-response,9
true,12,2,3,2,true,d,false,true,0.0-2.0-0.40-0.365-3.365,0,0,1,68,false,stim,false,0,562.0,3,0,0,19775,WMM1,950637,false,false,1198,image-keyboard-response,10
true,12,2,3,2,true,d,false,true,0.0-2.0-0.40-0.366-3.366,0,0,1,68,false,stim,false,0,617.0,3,0,0,19775,WMM1,952770,false,false,1201,image-keyboard-response,11
true,12,0,3,1,false,z,true,false,0.0-2.0-0.40-0.367-3.367,0,0,1,81,false,stim,false,1,597.0,3,1,2,19775,WMM1,954878,false,false,1204,image-keyboard-response,12
true,12,1,3,1,true,z,false,true,0.0-2.0-0.40-0.368-3.368,0,0,1,90,false,stim,false,1,609.0,3,1,2,19775,WMM1,956996,false,false,1207,image-keyboard-response,13
true,12,2,3,2,true,d,false,true,0.0-2.0-0.41-0.369-3.369,0,0,1,68,false,stim,false,0,686.0,3,0,0,19775,WMM1,959192,false,false,1210,image-keyboard-response,14
true,12,2,3,1,false,z,true,true,0.0-2.0-0.41-0.370-3.370,0,0,1,68,false,stim,false,1,654.0,3,1,2,19775,WMM1,961360,false,true,1213,image-keyboard-response,15
true,12,2,3,2,true,d,false,true,0.0-2.0-0.41-0.371-3.371,0,0,1,68,false,stim,false,0,808.9999999998836,3,0,0,19775,WMM1,963679,false,false,1216,image-keyboard-response,16
true,12,1,3,1,true,z,false,true,0.0-2.0-0.41-0.372-3.372,0,0,1,90,false,stim,false,1,507.0000000001164,3,1,2,19775,WMM1,965697,false,false,1219,image-keyboard-response,17
true,12,1,3,1,true,z,false,true,0.0-2.0-0.41-0.373-3.373,0,0,1,90,false,stim,false,1,541.0,3,1,2,19775,WMM1,967749,false,false,1222,image-keyboard-response,18
true,12,2,3,2,true,d,false,true,0.0-2.0-0.41-0.374-3.374,0,0,1,68,false,stim,false,0,665.9999999998836,3,0,0,19775,WMM1,969926,false,false,1225,image-keyboard-response,19
true,12,1,3,1,true,z,false,true,0.0-2.0-0.41-0.375-3.375,0,0,1,90,false,stim,false,2,654.0,3,0,1,19775,WMM1,972092,false,false,1228,image-keyboard-response,20
true,12,1,3,1,true,z,false,true,0.0-2.0-0.41-0.376-3.376,0,0,1,90,false,stim,false,2,879.0,3,0,1,19775,WMM1,974485,false,false,1231,image-keyboard-response,21
true,12,1,3,1,true,z,false,true,0.0-2.0-0.41-0.377-3.377,0,0,1,90,false,stim,false,2,1404.0,3,0,1,19775,WMM1,977398,false,false,1234,image-keyboard-response,22
true,12,2,3,2,true,d,false,true,0.0-2.0-0.42-0.378-3.378,0,0,1,68,false,stim,false,0,1059.0,3,0,0,19775,WMM1,979972,false,false,1237,image-keyboard-response,23
true,12,1,3,1,true,z,false,true,0.0-2.0-0.42-0.379-3.379,0,0,1,90,false,stim,false,1,1151.0,3,0,2,19775,WMM1,982633,false,false,1240,image-keyboard-response,24
true,12,1,3,1,true,z,false,true,0.0-2.0-0.42-0.380-3.380,0,0,1,90,false,stim,false,1,551.9999999998836,3,0,2,19775,WMM1,984701,false,false,1243,image-keyboard-response,25
true,12,1,3,1,true,z,false,true,0.0-2.0-0.42-0.381-3.381,0,0,1,90,false,stim,false,2,781.0000000001164,3,0,1,19775,WMM1,986995,false,false,1246,image-keyboard-response,26
true,12,1,3,1,true,z,false,true,0.0-2.0-0.42-0.382-3.382,0,0,1,90,false,stim,false,2,1131.9999999998836,3,0,1,19775,WMM1,989637,false,false,1249,image-keyboard-response,27
true,12,1,3,1,true,z,false,true,0.0-2.0-0.42-0.383-3.383,0,0,1,90,false,stim,false,1,1015.0,3,0,2,19775,WMM1,992163,false,false,1252,image-keyboard-response,28
true,12,2,3,2,true,d,false,true,0.0-2.0-0.42-0.384-3.384,0,0,1,68,false,stim,false,0,1169.0,3,0,0,19775,WMM1,994844,false,false,1255,image-keyboard-response,29
true,12,1,3,1,true,z,false,true,0.0-2.0-0.42-0.385-3.385,0,0,1,90,false,stim,false,2,1155.0,3,0,1,19775,WMM1,997515,false,false,1258,image-keyboard-response,30
true,13,2,1,0,false,q,false,false,0.0-2.0-0.42-0.386-3.386,0,0,0,68,true,stim,true,2,981.0,3,0,0,19775,WMM1,1000006,false,false,1261,image-keyboard-response,1
true,13,1,1,2,false,d,false,false,0.0-2.0-0.43-0.387-3.387,0,0,0,90,false,stim,true,1,811.0,3,0,2,19775,WMM1,1002326,false,false,1264,image-keyboard-response,2
true,13,1,1,2,false,d,false,false,0.0-2.0-0.43-0.388-3.388,0,0,0,90,false,stim,true,1,1197.9999999998836,3,0,1,19775,WMM1,1005035,false,false,1267,image-keyboard-response,3
true,13,1,1,2,false,d,false,false,0.0-2.0-0.43-0.389-3.389,0,0,0,90,false,stim,true,1,1669.0,3,0,2,19775,WMM1,1008217,false,false,1270,image-keyboard-response,4
true,13,0,1,0,true,q,false,true,0.0-2.0-0.43-0.390-3.390,0,0,0,81,false,stim,false,2,727.0,3,0,0,19775,WMM1,1010457,false,false,1273,image-keyboard-response,5
true,13,0,1,0,true,q,false,true,0.0-2.0-0.43-0.391-3.391,0,0,0,81,false,stim,false,2,1383.0,3,0,0,19775,WMM1,1013349,false,false,1276,image-keyboard-response,6
true,13,2,1,2,true,d,false,true,0.0-2.0-0.43-0.392-3.392,0,0,0,68,false,stim,false,1,1184.0,3,0,1,19775,WMM1,1016046,false,false,1279,image-keyboard-response,7
true,13,0,1,0,true,q,false,true,0.0-2.0-0.43-0.393-3.393,0,0,0,81,false,stim,false,2,1179.0,3,0,0,19775,WMM1,1018738,false,false,1282,image-keyboard-response,8
true,13,2,1,2,true,d,false,false,0.0-2.0-0.43-0.394-3.394,0,0,0,68,false,stim,false,1,1441.9999999998836,3,0,1,19775,WMM1,1021692,false,true,1285,image-keyboard-response,9
true,13,2,1,2,true,d,false,true,0.0-2.0-0.43-0.395-3.395,0,0,0,68,false,stim,false,1,1122.0,3,0,2,19775,WMM1,1024324,false,false,1288,image-keyboard-response,10
true,13,0,1,0,true,q,false,true,0.0-2.0-0.44-0.396-3.396,0,0,0,81,false,stim,false,2,1524.9999999997672,3,0,0,19775,WMM1,1027357,false,false,1291,image-keyboard-response,11
true,13,2,1,2,true,d,false,true,0.0-2.0-0.44-0.397-3.397,0,0,0,68,false,stim,false,1,733.0,3,0,2,19775,WMM1,1029601,false,false,1294,image-keyboard-response,12
true,13,0,1,0,true,q,false,true,0.0-2.0-0.44-0.398-3.398,0,0,0,81,false,stim,false,2,653.9999999998836,3,0,0,19775,WMM1,1031765,false,false,1297,image-keyboard-response,13
true,13,2,1,2,true,d,false,true,0.0-2.0-0.44-0.399-3.399,0,0,0,68,false,stim,false,1,902.0000000001164,3,0,1,19775,WMM1,1034173,false,false,1300,image-keyboard-response,14
true,13,0,1,0,true,q,false,true,0.0-2.0-0.44-0.400-3.400,0,0,0,81,false,stim,false,2,1056.0,3,0,0,19775,WMM1,1036746,false,false,1303,image-keyboard-response,15
true,13,2,1,2,true,d,false,true,0.0-2.0-0.44-0.401-3.401,0,0,0,68,false,stim,false,1,844.9999999997672,3,0,1,19775,WMM1,1039097,false,false,1306,image-keyboard-response,16
true,13,2,1,2,true,d,false,true,0.0-2.0-0.44-0.402-3.402,0,0,0,68,false,stim,false,1,785.9999999998836,3,0,1,19775,WMM1,1041394,false,false,1309,image-keyboard-response,17
true,13,2,1,2,true,d,false,false,0.0-2.0-0.44-0.403-3.403,0,0,0,68,false,stim,false,1,837.0,3,0,2,19775,WMM1,1043744,false,true,1312,image-keyboard-response,18
true,13,1,1,2,false,d,false,false,0.0-2.0-0.44-0.404-3.404,0,0,0,90,false,stim,true,1,522.9999999998836,3,0,2,19775,WMM1,1045771,false,false,1315,image-keyboard-response,19
true,13,0,1,0,true,q,false,true,0.0-2.0-0.45-0.405-3.405,0,0,0,81,false,stim,false,2,649.9999999997672,3,0,0,19775,WMM1,1047932,false,false,1318,image-keyboard-response,20
true,13,0,1,0,true,q,false,true,0.0-2.0-0.45-0.406-3.406,0,0,0,81,false,stim,false,2,442.0,3,0,0,19775,WMM1,1049885,false,false,1321,image-keyboard-response,21
true,13,0,1,0,true,q,false,true,0.0-2.0-0.45-0.407-3.407,0,0,0,81,false,stim,false,2,501.0,3,0,0,19775,WMM1,1051900,false,false,1324,image-keyboard-response,22
true,13,2,1,2,true,d,false,true,0.0-2.0-0.45-0.408-3.408,0,0,0,68,false,stim,false,1,1107.0,3,0,2,19775,WMM1,1054524,false,false,1327,image-keyboard-response,23
true,13,2,1,2,true,d,false,true,0.0-2.0-0.45-0.409-3.409,0,0,0,68,false,stim,false,1,810.0,3,0,1,19775,WMM1,1056842,false,false,1330,image-keyboard-response,24
true,13,2,1,2,true,d,false,true,0.0-2.0-0.45-0.410-3.410,0,0,0,68,false,stim,false,1,1227.9999999997672,3,0,2,19775,WMM1,1059577,false,false,1333,image-keyboard-response,25
true,13,2,1,2,true,d,false,true,0.0-2.0-0.45-0.411-3.411,0,0,0,68,false,stim,false,1,796.9999999997672,3,1,1,19775,WMM1,1061886,false,false,1336,image-keyboard-response,26
true,13,2,1,2,true,d,false,true,0.0-2.0-0.45-0.412-3.412,0,0,0,68,false,stim,false,1,572.0,3,1,1,19775,WMM1,1063966,false,false,1339,image-keyboard-response,27
true,13,2,1,2,true,d,false,true,0.0-2.0-0.45-0.413-3.413,0,0,0,68,false,stim,false,1,690.0000000002328,3,1,2,19775,WMM1,1066166,false,false,1342,image-keyboard-response,28
true,13,2,1,2,true,d,false,true,0.0-2.0-0.46-0.414-3.414,0,0,0,68,false,stim,false,1,671.0,3,1,2,19775,WMM1,1068347,false,false,1345,image-keyboard-response,29
true,13,2,1,2,true,d,false,false,0.0-2.0-0.46-0.415-3.415,0,0,0,68,false,stim,false,1,686.0,3,1,1,19775,WMM1,1070540,false,true,1348,image-keyboard-response,30
true,13,2,1,2,true,d,false,false,0.0-2.0-0.46-0.416-3.416,0,0,0,68,false,stim,false,1,697.0,3,1,2,19775,WMM1,1072745,false,true,1351,image-keyboard-response,31
true,13,2,1,2,true,d,false,true,0.0-2.0-0.46-0.417-3.417,0,0,0,68,false,stim,false,1,539.0,3,1,2,19775,WMM1,1074796,false,false,1354,image-keyboard-response,32
true,13,2,1,2,true,d,false,true,0.0-2.0-0.46-0.418-3.418,0,0,0,68,false,stim,false,1,489.0,3,1,1,19775,WMM1,1076797,false,false,1357,image-keyboard-response,33
true,13,0,1,0,true,q,false,true,0.0-2.0-0.46-0.419-3.419,0,0,0,81,false,stim,false,2,515.0,3,1,0,19775,WMM1,1078822,false,false,1360,image-keyboard-response,34
true,13,2,1,2,true,d,false,true,0.0-2.0-0.46-0.420-3.420,0,0,0,68,false,stim,false,1,468.0,3,1,1,19775,WMM1,1080800,false,false,1363,image-keyboard-response,35
true,14,1,0,0,false,q,true,false,0.0-2.0-0.46-0.421-3.421,1,1,1,90,true,stim,false,0,953.9999999997672,3,1,0,19775,WMM1,1203697,false,false,1486,image-keyboard-response,1
true,14,0,0,0,true,q,false,true,0.0-2.0-0.46-0.422-3.422,1,1,1,81,false,stim,false,0,411.0,3,1,0,19775,WMM1,1205620,false,false,1489,image-keyboard-response,2
true,14,2,0,2,true,d,false,false,0.0-2.0-0.47-0.423-3.423,1,1,1,68,false,stim,false,2,473.00000000023283,3,1,1,19775,WMM1,1207608,false,true,1492,image-keyboard-response,3
true,14,2,0,2,true,d,false,false,0.0-2.0-0.47-0.424-3.424,1,1,1,68,false,stim,false,2,452.0,3,1,2,19775,WMM1,1209571,false,true,1495,image-keyboard-response,4
true,14,1,0,0,false,q,true,false,0.0-2.0-0.47-0.425-3.425,1,1,1,90,false,stim,false,0,944.0,3,1,0,19775,WMM1,1212024,false,false,1498,image-keyboard-response,5
true,14,1,0,2,false,d,true,false,0.0-2.0-0.47-0.426-3.426,1,1,1,90,false,stim,false,2,615.0,3,1,1,19775,WMM1,1214159,false,false,1501,image-keyboard-response,6
true,14,1,0,2,false,d,true,false,0.0-2.0-0.47-0.427-3.427,1,1,1,90,false,stim,false,2,668.0,3,1,2,19775,WMM1,1216338,false,false,1504,image-keyboard-response,7
true,14,0,0,2,false,d,true,false,0.0-2.0-0.47-0.428-3.428,1,1,1,81,false,stim,false,2,741.0,3,1,2,19775,WMM1,1218588,false,false,1507,image-keyboard-response,8
true,14,0,0,0,true,q,false,true,0.0-2.0-0.47-0.429-3.429,1,1,1,81,false,stim,false,0,731.0,3,1,0,19775,WMM1,1220832,false,false,1510,image-keyboard-response,9
true,14,0,0,0,true,q,false,true,0.0-2.0-0.47-0.430-3.430,1,1,1,81,false,stim,false,0,564.0,3,1,0,19775,WMM1,1222906,false,false,1513,image-keyboard-response,10
true,14,2,0,2,true,d,false,true,0.0-2.0-0.47-0.431-3.431,1,1,1,68,false,stim,false,2,748.0,3,1,1,19775,WMM1,1225165,false,false,1516,image-keyboard-response,11
true,14,0,0,0,true,q,false,true,0.0-2.0-0.48-0.432-3.432,1,1,1,81,false,stim,false,0,1268.0,3,1,0,19775,WMM1,1227950,false,false,1519,image-keyboard-response,12
true,14,2,0,2,true,d,false,true,0.0-2.0-0.48-0.433-3.433,1,1,1,68,false,stim,false,2,1138.0,3,1,2,19775,WMM1,1230600,false,false,1522,image-keyboard-response,13
true,14,2,0,2,true,d,false,true,0.0-2.0-0.48-0.434-3.434,1,1,1,68,false,stim,false,2,1498.0,3,1,2,19775,WMM1,1233607,false,false,1525,image-keyboard-response,14
true,14,0,0,0,true,q,false,true,0.0-2.0-0.48-0.435-3.435,1,1,1,81,false,stim,false,0,1345.0000000002328,3,1,0,19775,WMM1,1236464,false,false,1528,image-keyboard-response,15
true,14,2,0,2,true,d,false,true,0.0-2.0-0.48-0.436-3.436,1,1,1,68,false,stim,false,2,1148.0,3,1,1,19775,WMM1,1239123,false,false,1531,image-keyboard-response,16
true,14,2,0,2,true,d,false,true,0.0-2.0-0.48-0.437-3.437,1,1,1,68,false,stim,false,2,949.0,3,1,1,19775,WMM1,1241584,false,false,1534,image-keyboard-response,17
true,14,2,0,2,true,d,false,true,0.0-2.0-0.48-0.438-3.438,1,1,1,68,false,stim,false,2,1438.9999999997672,3,1,2,19775,WMM1,1244538,false,false,1537,image-keyboard-response,18
true,14,2,0,2,true,d,false,true,0.0-2.0-0.48-0.439-3.439,1,1,1,68,false,stim,false,2,1344.0,3,1,1,19775,WMM1,1247393,false,false,1540,image-keyboard-response,19
true,14,0,0,0,true,q,false,true,0.0-2.0-0.48-0.440-3.440,1,1,1,81,false,stim,false,0,1112.0,3,1,0,19775,WMM1,1250016,false,false,1543,image-keyboard-response,20
true,14,2,0,2,true,d,false,true,0.0-2.0-0.49-0.441-3.441,1,1,1,68,false,stim,false,2,937.0,3,0,1,19775,WMM1,1252465,false,false,1546,image-keyboard-response,21
true,14,0,0,0,true,q,false,true,0.0-2.0-0.49-0.442-3.442,1,1,1,81,false,stim,false,0,703.0,3,0,0,19775,WMM1,1254678,false,false,1549,image-keyboard-response,22
true,14,2,0,2,true,d,false,true,0.0-2.0-0.49-0.443-3.443,1,1,1,68,false,stim,false,2,2089.0,3,0,1,19775,WMM1,1258278,false,false,1552,image-keyboard-response,23
true,14,0,0,0,true,q,false,false,0.0-2.0-0.49-0.444-3.444,1,1,1,81,false,stim,false,0,667.9999999997672,3,0,0,19775,WMM1,1260459,false,true,1555,image-keyboard-response,24
true,14,2,0,2,true,d,false,true,0.0-2.0-0.49-0.445-3.445,1,1,1,68,false,stim,false,2,704.0,3,1,2,19775,WMM1,1262673,false,false,1558,image-keyboard-response,25
true,14,0,0,0,true,q,false,true,0.0-2.0-0.49-0.446-3.446,1,1,1,81,false,stim,false,0,1407.9999999997672,3,0,0,19775,WMM1,1265592,false,false,1561,image-keyboard-response,26
true,14,2,0,2,true,d,false,true,0.0-2.0-0.49-0.447-3.447,1,1,1,68,false,stim,false,2,653.0,3,1,2,19775,WMM1,1267754,false,false,1564,image-keyboard-response,27
true,14,2,0,2,true,d,false,true,0.0-2.0-0.49-0.448-3.448,1,1,1,68,false,stim,false,2,835.0,3,0,1,19775,WMM1,1270099,false,false,1567,image-keyboard-response,28
true,14,2,0,2,true,d,false,false,0.0-2.0-0.49-0.449-3.449,1,1,1,68,false,stim,false,2,895.9999999997672,3,1,2,19775,WMM1,1272504,false,true,1570,image-keyboard-response,29
true,14,0,0,0,true,q,false,true,0.0-2.0-0.50-0.450-3.450,1,1,1,81,false,stim,false,0,714.0000000002328,3,0,0,19775,WMM1,1274733,false,false,1573,image-keyboard-response,30
true,15,2,3,2,true,d,false,true,0.0-2.0-0.50-0.451-3.451,0,0,1,68,true,stim,false,2,456.0,3,1,2,19775,WMM1,1276698,false,false,1576,image-keyboard-response,1
true,15,2,3,0,false,q,false,false,0.0-2.0-0.50-0.452-3.452,0,0,1,68,false,stim,true,2,560.9999999997672,3,0,1,19775,WMM1,1278775,false,false,1579,image-keyboard-response,2
true,15,0,3,2,false,d,false,false,0.0-2.0-0.50-0.453-3.453,0,0,1,81,false,stim,true,0,600.0,3,0,0,19775,WMM1,1280884,false,false,1582,image-keyboard-response,3
true,15,2,3,0,false,q,false,false,0.0-2.0-0.50-0.454-3.454,0,0,1,68,false,stim,true,2,635.0,3,0,1,19775,WMM1,1283029,false,false,1585,image-keyboard-response,4
true,15,0,3,2,false,d,true,false,0.0-2.0-0.50-0.455-3.455,0,0,1,81,false,stim,false,2,812.0,3,1,2,19775,WMM1,1285352,false,false,1588,image-keyboard-response,5
true,15,0,3,0,true,q,false,true,0.0-2.0-0.50-0.456-3.456,0,0,1,81,false,stim,false,2,732.0,3,0,1,19775,WMM1,1287598,false,false,1591,image-keyboard-response,6
true,15,1,3,2,false,d,true,false,0.0-2.0-0.50-0.457-3.457,0,0,1,90,false,stim,false,2,702.0,3,1,2,19775,WMM1,1289813,false,false,1594,image-keyboard-response,7
true,15,1,3,2,false,d,true,false,0.0-2.0-0.50-0.458-3.458,0,0,1,90,false,stim,false,0,558.0,3,0,0,19775,WMM1,1291886,false,false,1597,image-keyboard-response,8
true,15,0,3,2,false,d,false,false,0.0-2.0-0.51-0.459-3.459,0,0,1,81,false,stim,true,0,477.99999999976717,3,0,0,19775,WMM1,1293875,false,false,1600,image-keyboard-response,9
true,15,2,3,2,true,d,false,false,0.0-2.0-0.51-0.460-3.460,0,0,1,68,false,stim,false,2,867.9999999997672,3,1,2,19775,WMM1,1296265,false,true,1603,image-keyboard-response,10
true,15,0,3,0,true,q,false,true,0.0-2.0-0.51-0.461-3.461,0,0,1,81,false,stim,false,2,664.0,3,0,1,19775,WMM1,1298439,false,false,1606,image-keyboard-response,11
true,15,0,3,0,true,q,false,true,0.0-2.0-0.51-0.462-3.462,0,0,1,81,false,stim,false,2,918.0000000002328,3,0,1,19775,WMM1,1300868,false,false,1609,image-keyboard-response,12
true,15,0,3,0,true,q,false,true,0.0-2.0-0.51-0.463-3.463,0,0,1,81,false,stim,false,2,1185.0000000002328,3,0,1,19775,WMM1,1303570,false,false,1612,image-keyboard-response,13
true,15,0,3,2,false,d,true,false,0.0-2.0-0.51-0.464-3.464,0,0,1,81,false,stim,false,2,1222.0,3,1,2,19775,WMM1,1306301,false,false,1615,image-keyboard-response,14
true,15,2,3,2,true,d,false,true,0.0-2.0-0.51-0.465-3.465,0,0,1,68,false,stim,false,0,612.0,3,0,0,19775,WMM1,1308424,false,false,1618,image-keyboard-response,15
true,15,1,3,2,false,d,true,false,0.0-2.0-0.51-0.466-3.466,0,0,1,90,false,stim,false,2,898.0,3,1,2,19775,WMM1,1310831,false,false,1621,image-keyboard-response,16
true,15,2,3,2,true,d,false,false,0.0-2.0-0.51-0.467-3.467,0,0,1,68,false,stim,false,0,1488.0,3,0,0,19775,WMM1,1313830,false,true,1624,image-keyboard-response,17
true,15,2,3,2,true,d,false,true,0.0-2.0-0.52-0.468-3.468,0,0,1,68,false,stim,false,0,766.0,3,0,0,19775,WMM1,1316110,false,false,1627,image-keyboard-response,18
true,15,0,3,0,true,q,false,true,0.0-2.0-0.52-0.469-3.469,0,0,1,81,false,stim,false,2,611.0,3,0,1,19775,WMM1,1318232,false,false,1630,image-keyboard-response,19
true,15,0,3,0,true,q,false,true,0.0-2.0-0.52-0.470-3.470,0,0,1,81,false,stim,false,2,1344.0,3,0,1,19775,WMM1,1321090,false,false,1633,image-keyboard-response,20
true,15,2,3,2,true,d,false,true,0.0-2.0-0.52-0.471-3.471,0,0,1,68,false,stim,false,0,1679.0000000002328,3,0,0,19775,WMM1,1324280,false,false,1636,image-keyboard-response,21
true,15,2,3,2,true,d,false,true,0.0-2.0-0.52-0.472-3.472,0,0,1,68,false,stim,false,0,782.0,3,0,0,19775,WMM1,1326574,false,false,1639,image-keyboard-response,22
true,15,2,3,2,true,d,false,true,0.0-2.0-0.52-0.473-3.473,0,0,1,68,false,stim,false,2,1332.0,3,1,2,19775,WMM1,1329419,false,false,1642,image-keyboard-response,23
false,15,-1,3,2,false,d,true,true,0.0-2.0-0.52-0.474-3.474,0,0,1,,false,stim,false,2,,3,1,2,19775,WMM1,1333932,false,true,1645,image-keyboard-response,24
true,15,0,3,0,true,q,false,true,0.0-2.0-0.52-0.475-3.475,0,0,1,81,false,stim,false,2,1326.0,3,0,1,19775,WMM1,1336770,false,false,1648,image-keyboard-response,25
true,15,2,3,2,true,d,false,true,0.0-2.0-0.52-0.476-3.476,0,0,1,68,false,stim,false,2,673.0,3,1,2,19775,WMM1,1338958,false,false,1651,image-keyboard-response,26
true,15,0,3,2,false,d,false,false,0.0-2.0-0.53-0.477-3.477,0,0,1,81,false,stim,true,0,1321.0,3,0,0,19775,WMM1,1341791,false,false,1654,image-keyboard-response,27
true,15,2,3,2,true,d,false,true,0.0-2.0-0.53-0.478-3.478,0,0,1,68,false,stim,false,0,881.0,3,0,0,19775,WMM1,1344183,false,false,1657,image-keyboard-response,28
true,15,0,3,0,true,q,false,true,0.0-2.0-0.53-0.479-3.479,0,0,1,81,false,stim,false,2,1625.0,3,0,1,19775,WMM1,1347325,false,false,1660,image-keyboard-response,29
true,15,2,3,2,true,d,false,true,0.0-2.0-0.53-0.480-3.480,0,0,1,68,false,stim,false,2,1352.0,3,1,2,19775,WMM1,1350186,false,false,1663,image-keyboard-response,30
true,15,0,3,2,false,d,true,false,0.0-2.0-0.53-0.481-3.481,0,0,1,81,false,stim,false,2,2138.0,3,1,2,19775,WMM1,1353835,false,false,1666,image-keyboard-response,31
true,15,0,3,0,true,q,false,true,0.0-2.0-0.53-0.482-3.482,0,0,1,81,false,stim,false,2,1028.0,3,0,1,19775,WMM1,1356376,false,false,1669,image-keyboard-response,32
true,15,0,3,0,true,q,false,true,0.0-2.0-0.53-0.483-3.483,0,0,1,81,false,stim,false,2,1171.0,3,0,1,19775,WMM1,1359059,false,false,1672,image-keyboard-response,33
true,15,2,3,2,true,d,false,true,0.0-2.0-0.53-0.484-3.484,0,0,1,68,false,stim,false,0,1688.0,3,0,0,19775,WMM1,1362259,false,false,1675,image-keyboard-response,34
true,15,2,3,2,true,d,false,true,0.0-2.0-0.53-0.485-3.485,0,0,1,68,false,stim,false,2,2383.0,3,1,2,19775,WMM1,1366152,false,false,1678,image-keyboard-response,35
true,15,2,3,2,true,d,false,true,0.0-2.0-0.54-0.486-3.486,0,0,1,68,false,stim,false,2,612.0,3,1,2,19775,WMM1,1368275,false,false,1681,image-keyboard-response,36
true,15,0,3,2,false,d,false,false,0.0-2.0-0.54-0.487-3.487,0,0,1,81,false,stim,true,0,803.0,3,0,0,19775,WMM1,1370590,false,false,1684,image-keyboard-response,37
true,15,2,3,0,false,q,false,false,0.0-2.0-0.54-0.488-3.488,0,0,1,68,false,stim,true,2,2591.0,3,0,1,19775,WMM1,1374691,false,false,1687,image-keyboard-response,38
true,15,0,3,0,true,q,false,true,0.0-2.0-0.54-0.489-3.489,0,0,1,81,false,stim,false,2,1940.0,3,0,1,19775,WMM1,1378138,false,false,1690,image-keyboard-response,39
true,15,2,3,2,true,d,false,true,0.0-2.0-0.54-0.490-3.490,0,0,1,68,false,stim,false,2,749.0,3,0,2,19775,WMM1,1380403,false,false,1693,image-keyboard-response,40
true,15,0,3,2,false,d,false,false,0.0-2.0-0.54-0.491-3.491,0,0,1,81,false,stim,true,0,938.0,3,0,0,19775,WMM1,1382857,false,false,1696,image-keyboard-response,41
true,15,2,3,2,true,d,false,true,0.0-2.0-0.54-0.492-3.492,0,0,1,68,false,stim,false,2,673.0,3,0,2,19775,WMM1,1385046,false,false,1699,image-keyboard-response,42
true,15,2,3,0,false,q,false,false,0.0-2.0-0.54-0.493-3.493,0,0,1,68,false,stim,true,2,1084.0,3,0,1,19775,WMM1,1387655,false,false,1702,image-keyboard-response,43
true,15,2,3,2,true,d,false,true,0.0-2.0-0.54-0.494-3.494,0,0,1,68,false,stim,false,0,703.0000000002328,3,0,0,19775,WMM1,1389873,false,false,1705,image-keyboard-response,44
true,15,0,3,0,true,q,false,true,0.0-2.0-0.55-0.495-3.495,0,0,1,81,false,stim,false,2,605.0,3,0,1,19775,WMM1,1391989,false,false,1708,image-keyboard-response,45
true,15,2,3,2,true,d,false,true,0.0-2.0-0.55-0.496-3.496,0,0,1,68,false,stim,false,2,615.0,3,0,2,19775,WMM1,1394114,false,false,1711,image-keyboard-response,46
true,16,0,2,0,true,q,false,true,0.0-2.0-0.55-0.497-3.497,0,0,0,81,true,stim,false,2,534.0,3,0,0,19775,WMM1,1396162,false,false,1714,image-keyboard-response,1
true,16,2,2,1,false,z,false,false,0.0-2.0-0.55-0.498-3.498,0,0,0,68,false,stim,true,2,756.0,3,0,2,19775,WMM1,1398427,false,false,1717,image-keyboard-response,2
true,16,0,2,0,true,q,false,true,0.0-2.0-0.55-0.499-3.499,0,0,0,81,false,stim,false,2,594.9999999997672,3,0,0,19775,WMM1,1400532,false,false,1720,image-keyboard-response,3
true,16,0,2,2,false,d,false,false,0.0-2.0-0.55-0.500-3.500,0,0,0,81,false,stim,true,0,424.00000000023283,3,0,1,19775,WMM1,1402467,false,false,1723,image-keyboard-response,4
true,16,1,2,1,true,z,false,false,0.0-2.0-0.55-0.501-3.501,0,0,0,90,false,stim,false,2,1170.0,3,0,2,19775,WMM1,1405149,false,true,1726,image-keyboard-response,5
true,16,1,2,2,false,d,true,false,0.0-2.0-0.55-0.502-3.502,0,0,0,90,false,stim,false,0,513.0000000002328,3,0,1,19775,WMM1,1407170,false,false,1729,image-keyboard-response,6
true,16,0,2,0,true,q,false,true,0.0-2.0-0.55-0.503-3.503,0,0,0,81,false,stim,false,2,668.0000000002328,3,0,0,19775,WMM1,1409353,false,false,1732,image-keyboard-response,7
true,16,2,2,2,true,d,false,true,0.0-2.0-0.56-0.504-3.504,0,0,0,68,false,stim,false,0,607.0,3,0,1,19775,WMM1,1411476,false,false,1735,image-keyboard-response,8
true,16,0,2,0,true,q,false,true,0.0-2.0-0.56-0.505-3.505,0,0,0,81,false,stim,false,2,791.0,3,0,0,19775,WMM1,1413781,false,false,1738,image-keyboard-response,9
true,16,2,2,2,true,d,false,true,0.0-2.0-0.56-0.506-3.506,0,0,0,68,false,stim,false,0,620.0,3,0,1,19775,WMM1,1415913,false,false,1741,image-keyboard-response,10
true,16,0,2,1,false,z,true,false,0.0-2.0-0.56-0.507-3.507,0,0,0,81,false,stim,false,2,643.0,3,0,2,19775,WMM1,1418072,false,false,1744,image-keyboard-response,11
true,16,1,2,1,true,z,false,true,0.0-2.0-0.56-0.508-3.508,0,0,0,90,false,stim,false,2,852.0,3,0,2,19775,WMM1,1420438,false,false,1747,image-keyboard-response,12
true,16,0,2,0,true,q,false,true,0.0-2.0-0.56-0.509-3.509,0,0,0,81,false,stim,false,2,600.9999999997672,3,0,0,19775,WMM1,1422552,false,false,1750,image-keyboard-response,13
true,16,0,2,0,true,q,false,true,0.0-2.0-0.56-0.510-3.510,0,0,0,81,false,stim,false,2,734.0000000002328,3,0,0,19775,WMM1,1424798,false,false,1753,image-keyboard-response,14
true,16,1,2,1,true,z,false,true,0.0-2.0-0.56-0.511-3.511,0,0,0,90,false,stim,false,2,664.0,3,0,2,19775,WMM1,1426975,false,false,1756,image-keyboard-response,15
true,16,2,2,2,true,d,false,false,0.0-2.0-0.56-0.512-3.512,0,0,0,68,false,stim,false,0,607.0,3,0,1,19775,WMM1,1429092,false,true,1759,image-keyboard-response,16
true,16,2,2,2,true,d,false,true,0.0-2.0-0.57-0.513-3.513,0,0,0,68,false,stim,false,0,475.0,3,0,1,19775,WMM1,1431085,false,false,1762,image-keyboard-response,17
true,16,2,2,2,true,d,false,true,0.0-2.0-0.57-0.514-3.514,0,0,0,68,false,stim,false,0,588.0,3,0,1,19775,WMM1,1433187,false,false,1765,image-keyboard-response,18
true,16,1,2,1,true,z,false,true,0.0-2.0-0.57-0.515-3.515,0,0,0,90,false,stim,false,2,584.0,3,0,2,19775,WMM1,1435284,false,false,1768,image-keyboard-response,19
true,16,0,2,0,true,q,false,true,0.0-2.0-0.57-0.516-3.516,0,0,0,81,false,stim,false,2,536.9999999997672,3,0,0,19775,WMM1,1437336,false,false,1771,image-keyboard-response,20
true,16,0,2,0,true,q,false,true,0.0-2.0-0.57-0.517-3.517,0,0,0,81,false,stim,false,2,582.0000000002328,3,0,0,19775,WMM1,1439433,false,false,1774,image-keyboard-response,21
true,16,2,2,2,true,d,false,true,0.0-2.0-0.57-0.518-3.518,0,0,0,68,false,stim,false,0,987.0,3,0,1,19775,WMM1,1441931,false,false,1777,image-keyboard-response,22
true,16,1,2,1,true,z,false,true,0.0-2.0-0.57-0.519-3.519,0,0,0,90,false,stim,false,2,512.0,3,0,2,19775,WMM1,1443957,false,false,1780,image-keyboard-response,23
true,16,1,2,1,true,z,false,true,0.0-2.0-0.57-0.520-3.520,0,0,0,90,false,stim,false,2,552.0,3,0,2,19775,WMM1,1446021,false,false,1783,image-keyboard-response,24
true,16,0,2,0,true,q,false,true,0.0-2.0-0.57-0.521-3.521,0,0,0,81,false,stim,false,2,589.0,3,0,0,19775,WMM1,1448123,false,false,1786,image-keyboard-response,25
true,16,1,2,1,true,z,false,true,0.0-2.0-0.58-0.522-3.522,0,0,0,90,false,stim,false,2,654.0,3,0,2,19775,WMM1,1450289,false,false,1789,image-keyboard-response,26
true,16,0,2,0,true,q,false,true,0.0-2.0-0.58-0.523-3.523,0,0,0,81,false,stim,false,2,705.0,3,0,0,19775,WMM1,1452508,false,false,1792,image-keyboard-response,27
true,16,1,2,2,false,d,true,false,0.0-2.0-0.58-0.524-3.524,0,0,0,90,false,stim,false,0,675.0,3,0,1,19775,WMM1,1454697,false,false,1795,image-keyboard-response,28
true,16,0,2,0,true,q,false,true,0.0-2.0-0.58-0.525-3.525,0,0,0,81,false,stim,false,2,582.0,3,0,0,19775,WMM1,1456792,false,false,1798,image-keyboard-response,29
true,16,0,2,0,true,q,false,true,0.0-2.0-0.58-0.526-3.526,0,0,0,81,false,stim,false,2,662.0,3,0,0,19775,WMM1,1458979,false,false,1801,image-keyboard-response,30
true,17,2,4,1,false,z,false,false,0.0-2.0-0.58-0.527-3.527,0,0,0,68,true,stim,true,2,714.9999999997672,3,0,1,19775,WMM1,1461206,false,false,1804,image-keyboard-response,1
true,17,1,4,0,false,q,false,false,0.0-2.0-0.58-0.528-3.528,0,0,0,90,false,stim,true,1,839.0,3,0,2,19775,WMM1,1463556,false,false,1807,image-keyboard-response,2
true,17,2,4,0,false,q,true,false,0.0-2.0-0.58-0.529-3.529,0,0,0,68,false,stim,false,1,739.0,3,0,2,19775,WMM1,1465806,false,false,1810,image-keyboard-response,3
true,17,2,4,1,false,z,false,false,0.0-2.0-0.58-0.530-3.530,0,0,0,68,false,stim,true,2,1019.0,3,0,1,19775,WMM1,1468339,false,false,1813,image-keyboard-response,4
true,17,0,4,1,false,z,true,false,0.0-2.0-0.59-0.531-3.531,0,0,0,81,false,stim,false,2,493.0,3,0,1,19775,WMM1,1470354,false,false,1816,image-keyboard-response,5
true,17,2,4,0,false,q,true,true,0.0-2.0-0.59-0.532-3.532,0,0,0,68,false,stim,false,1,873.0000000002328,3,0,2,19775,WMM1,1472741,false,true,1819,image-keyboard-response,6
true,17,0,4,1,false,z,false,false,0.0-2.0-0.59-0.533-3.533,0,0,0,81,false,stim,true,0,629.0000000002328,3,0,0,19775,WMM1,1474884,false,false,1822,image-keyboard-response,7
true,17,1,4,1,true,z,false,true,0.0-2.0-0.59-0.534-3.534,0,0,0,90,false,stim,false,0,583.0,3,0,0,19775,WMM1,1476977,false,false,1825,image-keyboard-response,8
true,17,2,4,0,false,q,true,false,0.0-2.0-0.59-0.535-3.535,0,0,0,68,false,stim,false,1,636.0000000002328,3,0,2,19775,WMM1,1479125,false,false,1828,image-keyboard-response,9
true,17,1,4,1,true,z,false,true,0.0-2.0-0.59-0.536-3.536,0,0,0,90,false,stim,false,2,499.0,3,0,1,19775,WMM1,1481139,false,false,1831,image-keyboard-response,10
true,17,1,4,1,true,z,false,true,0.0-2.0-0.59-0.537-3.537,0,0,0,90,false,stim,false,0,489.0,3,0,0,19775,WMM1,1483140,false,false,1834,image-keyboard-response,11
true,17,2,4,0,false,q,true,false,0.0-2.0-0.59-0.538-3.538,0,0,0,68,false,stim,false,1,597.0,3,0,2,19775,WMM1,1485252,false,false,1837,image-keyboard-response,12
true,17,1,4,1,true,z,false,true,0.0-2.0-0.59-0.539-3.539,0,0,0,90,false,stim,false,2,1024.0,3,0,1,19775,WMM1,1487793,false,false,1840,image-keyboard-response,13
true,17,0,4,0,true,q,false,true,0.0-2.0-0.60-0.540-3.540,0,0,0,81,false,stim,false,1,557.0,3,0,2,19775,WMM1,1489864,false,false,1843,image-keyboard-response,14
true,17,1,4,1,true,z,false,true,0.0-2.0-0.60-0.541-3.541,0,0,0,90,false,stim,false,2,602.0,3,0,1,19775,WMM1,1491979,false,false,1846,image-keyboard-response,15
true,17,0,4,0,true,q,false,true,0.0-2.0-0.60-0.542-3.542,0,0,0,81,false,stim,false,1,649.0,3,0,2,19775,WMM1,1494142,false,false,1849,image-keyboard-response,16
true,17,1,4,1,true,z,false,true,0.0-2.0-0.60-0.543-3.543,0,0,0,90,false,stim,false,0,557.0,3,0,0,19775,WMM1,1496215,false,false,1852,image-keyboard-response,17
true,17,1,4,1,true,z,false,true,0.0-2.0-0.60-0.544-3.544,0,0,0,90,false,stim,false,0,472.00000000023283,3,0,0,19775,WMM1,1498202,false,false,1855,image-keyboard-response,18
true,17,1,4,1,true,z,false,true,0.0-2.0-0.60-0.545-3.545,0,0,0,90,false,stim,false,0,512.0,3,0,0,19775,WMM1,1500229,false,false,1858,image-keyboard-response,19
true,17,0,4,0,true,q,false,true,0.0-2.0-0.60-0.546-3.546,0,0,0,81,false,stim,false,1,578.9999999997672,3,0,2,19775,WMM1,1502320,false,false,1861,image-keyboard-response,20
true,17,1,4,1,true,z,false,true,0.0-2.0-0.60-0.547-3.547,0,0,0,90,false,stim,false,2,545.9999999997672,3,0,1,19775,WMM1,1504383,false,false,1864,image-keyboard-response,21
true,17,1,4,1,true,z,false,true,0.0-2.0-0.60-0.548-3.548,0,0,0,90,false,stim,false,2,503.99999999976717,3,0,1,19775,WMM1,1506398,false,false,1867,image-keyboard-response,22
true,17,1,4,1,true,z,false,false,0.0-2.0-0.61-0.549-3.549,0,0,0,90,false,stim,false,2,644.9999999997672,3,0,1,19775,WMM1,1508559,false,true,1870,image-keyboard-response,23
true,17,1,4,1,true,z,false,true,0.0-2.0-0.61-0.550-3.550,0,0,0,90,false,stim,false,0,849.0000000002328,3,0,0,19775,WMM1,1510924,false,false,1873,image-keyboard-response,24
true,17,0,4,0,true,q,false,true,0.0-2.0-0.61-0.551-3.551,0,0,0,81,false,stim,false,1,617.0,3,0,2,19775,WMM1,1513053,false,false,1876,image-keyboard-response,25
true,17,1,4,1,true,z,false,true,0.0-2.0-0.61-0.552-3.552,0,0,0,90,false,stim,false,2,660.0000000002328,3,0,1,19775,WMM1,1515231,false,false,1879,image-keyboard-response,26
true,17,1,4,0,false,q,false,false,0.0-2.0-0.61-0.553-3.553,0,0,0,90,false,stim,true,1,683.0,3,0,2,19775,WMM1,1517429,false,false,1882,image-keyboard-response,27
true,17,1,4,1,true,z,false,true,0.0-2.0-0.61-0.554-3.554,0,0,0,90,false,stim,false,0,617.0,3,0,0,19775,WMM1,1519559,false,false,1885,image-keyboard-response,28
true,17,1,4,1,true,z,false,true,0.0-2.0-0.61-0.555-3.555,0,0,0,90,false,stim,false,2,753.0,3,0,1,19775,WMM1,1521825,false,false,1888,image-keyboard-response,29
true,17,0,4,0,true,q,false,false,0.0-2.0-0.61-0.556-3.556,0,0,0,81,false,stim,false,1,825.0,3,0,2,19775,WMM1,1524163,false,true,1891,image-keyboard-response,30
true,18,1,2,0,false,q,false,false,0.0-2.0-0.61-0.557-3.557,0,0,0,90,true,stim,true,1,622.0000000002328,3,0,0,19775,WMM1,1526299,false,false,1894,image-keyboard-response,1
true,18,1,2,0,false,q,false,false,0.0-2.0-0.62-0.558-3.558,0,0,0,90,false,stim,true,1,605.0,3,0,0,19775,WMM1,1528421,false,false,1897,image-keyboard-response,2
true,18,2,2,2,true,d,false,true,0.0-2.0-0.62-0.559-3.559,0,0,0,68,false,stim,false,1,484.0,3,0,1,19775,WMM1,1530414,false,false,1900,image-keyboard-response,3
true,18,2,2,2,true,d,false,true,0.0-2.0-0.62-0.560-3.560,0,0,0,68,false,stim,false,1,631.0,3,0,1,19775,WMM1,1532566,false,false,1903,image-keyboard-response,4
true,18,2,2,0,false,q,true,false,0.0-2.0-0.62-0.561-3.561,0,0,0,68,false,stim,false,1,522.9999999997672,3,0,0,19775,WMM1,1534599,false,false,1906,image-keyboard-response,5
true,18,1,2,1,true,z,false,true,0.0-2.0-0.62-0.562-3.562,0,0,0,90,false,stim,false,0,1136.0,3,0,2,19775,WMM1,1537245,false,false,1909,image-keyboard-response,6
true,18,1,2,1,true,z,false,true,0.0-2.0-0.62-0.563-3.563,0,0,0,90,false,stim,false,0,611.0,3,0,2,19775,WMM1,1539369,false,false,1912,image-keyboard-response,7
true,18,0,2,0,true,q,false,true,0.0-2.0-0.62-0.564-3.564,0,0,0,81,false,stim,false,1,468.0,3,0,0,19775,WMM1,1541348,false,false,1915,image-keyboard-response,8
true,18,1,2,1,true,z,false,true,0.0-2.0-0.62-0.565-3.565,0,0,0,90,false,stim,false,0,568.0,3,0,2,19775,WMM1,1543425,false,false,1918,image-keyboard-response,9
true,18,2,2,2,true,d,false,false,0.0-2.0-0.62-0.566-3.566,0,0,0,68,false,stim,false,1,484.00000000023283,3,0,1,19775,WMM1,1545423,false,true,1921,image-keyboard-response,10
true,18,1,2,1,true,z,false,false,0.0-2.0-0.63-0.567-3.567,0,0,0,90,false,stim,false,0,637.0,3,0,2,19775,WMM1,1547571,false,true,1924,image-keyboard-response,11
true,18,0,2,0,true,q,false,true,0.0-2.0-0.63-0.568-3.568,0,0,0,81,false,stim,false,1,620.0000000002328,3,0,0,19775,WMM1,1549701,false,false,1927,image-keyboard-response,12
true,18,0,2,0,true,q,false,true,0.0-2.0-0.63-0.569-3.569,0,0,0,81,false,stim,false,1,608.0,3,0,0,19775,WMM1,1551820,false,false,1930,image-keyboard-response,13
true,18,2,2,2,true,d,false,true,0.0-2.0-0.63-0.570-3.570,0,0,0,68,false,stim,false,1,587.0,3,0,1,19775,WMM1,1553918,false,false,1933,image-keyboard-response,14
true,18,1,2,1,true,z,false,true,0.0-2.0-0.63-0.571-3.571,0,0,0,90,false,stim,false,0,548.9999999997672,3,0,2,19775,WMM1,1555981,false,false,1936,image-keyboard-response,15
true,18,1,2,1,true,z,false,true,0.0-2.0-0.63-0.572-3.572,0,0,0,90,false,stim,false,0,646.9999999997672,3,0,2,19775,WMM1,1558137,false,false,1939,image-keyboard-response,16
true,18,0,2,0,true,q,false,true,0.0-2.0-0.63-0.573-3.573,0,0,0,81,false,stim,false,1,570.0000000002328,3,0,0,19775,WMM1,1560221,false,false,1942,image-keyboard-response,17
true,18,2,2,2,true,d,false,true,0.0-2.0-0.63-0.574-3.574,0,0,0,68,false,stim,false,1,580.0,3,0,1,19775,WMM1,1562313,false,false,1945,image-keyboard-response,18
true,18,2,2,2,true,d,false,true,0.0-2.0-0.63-0.575-3.575,0,0,0,68,false,stim,false,1,668.0,3,0,1,19775,WMM1,1564493,false,false,1948,image-keyboard-response,19
true,18,0,2,0,true,q,false,false,0.0-2.0-0.64-0.576-3.576,0,0,0,81,false,stim,false,1,663.0,3,0,0,19775,WMM1,1566670,false,true,1951,image-keyboard-response,20
true,18,2,2,2,true,d,false,true,0.0-2.0-0.64-0.577-3.577,0,0,0,68,false,stim,false,1,663.0,3,0,1,19775,WMM1,1568849,false,false,1954,image-keyboard-response,21
true,18,1,2,1,true,z,false,true,0.0-2.0-0.64-0.578-3.578,0,0,0,90,false,stim,false,0,499.0,3,0,2,19775,WMM1,1570860,false,false,1957,image-keyboard-response,22
true,18,2,2,2,true,d,false,false,0.0-2.0-0.64-0.579-3.579,0,0,0,68,false,stim,false,1,614.0,3,0,1,19775,WMM1,1572984,false,true,1960,image-keyboard-response,23
true,18,0,2,0,true,q,false,false,0.0-2.0-0.64-0.580-3.580,0,0,0,81,false,stim,false,1,578.0,3,0,0,19775,WMM1,1575073,false,true,1963,image-keyboard-response,24
true,18,1,2,1,true,z,false,true,0.0-2.0-0.64-0.581-3.581,0,0,0,90,false,stim,false,0,551.0,3,0,2,19775,WMM1,1577136,false,false,1966,image-keyboard-response,25
true,18,2,2,2,true,d,false,true,0.0-2.0-0.64-0.582-3.582,0,0,0,68,false,stim,false,1,519.0,3,0,1,19775,WMM1,1579168,false,false,1969,image-keyboard-response,26
true,18,1,2,1,true,z,false,false,0.0-2.0-0.64-0.583-3.583,0,0,0,90,false,stim,false,0,656.0,3,0,2,19775,WMM1,1581335,false,true,1972,image-keyboard-response,27
true,18,0,2,0,true,q,false,true,0.0-2.0-0.64-0.584-3.584,0,0,0,81,false,stim,false,1,683.0,3,0,0,19775,WMM1,1583530,false,false,1975,image-keyboard-response,28
true,18,2,2,2,true,d,false,true,0.0-2.0-0.65-0.585-3.585,0,0,0,68,false,stim,false,1,658.0,3,0,1,19775,WMM1,1585697,false,false,1978,image-keyboard-response,29
true,18,2,2,2,true,d,false,true,0.0-2.0-0.65-0.586-3.586,0,0,0,68,false,stim,false,1,593.9999999997672,3,0,1,19775,WMM1,1587804,false,false,1981,image-keyboard-response,30
true,19,0,1,2,false,d,false,false,0.0-2.0-0.65-0.587-3.587,0,0,0,81,true,stim,true,0,587.9999999997672,3,0,0,19775,WMM1,1589905,false,false,1984,image-keyboard-response,1
true,19,2,1,0,false,q,false,false,0.0-2.0-0.65-0.588-3.588,0,0,0,68,false,stim,true,2,680.0,3,0,1,19775,WMM1,1592097,false,false,1987,image-keyboard-response,2
true,19,1,1,0,false,q,false,false,0.0-2.0-0.65-0.589-3.589,0,0,0,90,false,stim,true,1,693.0,3,0,2,19775,WMM1,1594303,false,false,1990,image-keyboard-response,3
true,19,1,1,2,false,d,true,true,0.0-2.0-0.65-0.590-3.590,0,0,0,90,false,stim,false,0,597.0,3,0,0,19775,WMM1,1596410,false,true,1993,image-keyboard-response,4
true,19,1,1,0,false,q,false,false,0.0-2.0-0.65-0.591-3.591,0,0,0,90,false,stim,true,1,773.0,3,0,2,19775,WMM1,1598693,false,false,1996,image-keyboard-response,5
true,19,2,1,0,false,q,true,false,0.0-2.0-0.65-0.592-3.592,0,0,0,68,false,stim,false,1,731.0,3,0,2,19775,WMM1,1600935,false,false,1999,image-keyboard-response,6
true,19,1,1,2,false,d,true,false,0.0-2.0-0.65-0.593-3.593,0,0,0,90,false,stim,false,0,849.0000000002328,3,0,0,19775,WMM1,1603306,false,false,2002,image-keyboard-response,7
true,19,0,1,0,true,q,false,true,0.0-2.0-0.66-0.594-3.594,0,0,0,81,false,stim,false,1,653.0000000002328,3,0,2,19775,WMM1,1605470,false,false,2005,image-keyboard-response,8
true,19,0,1,0,true,q,false,true,0.0-2.0-0.66-0.595-3.595,0,0,0,81,false,stim,false,1,761.0,3,0,2,19775,WMM1,1607742,false,false,2008,image-keyboard-response,9
true,19,0,1,0,true,q,false,true,0.0-2.0-0.66-0.596-3.596,0,0,0,81,false,stim,false,2,531.0,3,0,1,19775,WMM1,1609786,false,false,2011,image-keyboard-response,10
true,19,1,1,2,false,d,true,false,0.0-2.0-0.66-0.597-3.597,0,0,0,90,false,stim,false,0,484.0,3,0,0,19775,WMM1,1611780,false,false,2014,image-keyboard-response,11
true,19,0,1,0,true,q,false,true,0.0-2.0-0.66-0.598-3.598,0,0,0,81,false,stim,false,1,626.0,3,0,2,19775,WMM1,1613915,false,false,2017,image-keyboard-response,12
true,19,2,1,2,true,d,false,true,0.0-2.0-0.66-0.599-3.599,0,0,0,68,false,stim,false,0,454.0,3,0,0,19775,WMM1,1615879,false,false,2020,image-keyboard-response,13
true,19,0,1,0,true,q,false,true,0.0-2.0-0.66-0.600-3.600,0,0,0,81,false,stim,false,2,559.0,3,0,1,19775,WMM1,1617948,false,false,2023,image-keyboard-response,14
true,19,0,1,0,true,q,false,true,0.0-2.0-0.66-0.601-3.601,0,0,0,81,false,stim,false,2,503.99999999976717,3,0,1,19775,WMM1,1619964,false,false,2026,image-keyboard-response,15
true,19,2,1,2,true,d,false,true,0.0-2.0-0.66-0.602-3.602,0,0,0,68,false,stim,false,0,732.0,3,0,0,19775,WMM1,1622209,false,false,2029,image-keyboard-response,16
true,19,0,1,0,true,q,false,true,0.0-2.0-0.67-0.603-3.603,0,0,0,81,false,stim,false,1,619.0,3,0,2,19775,WMM1,1624342,false,false,2032,image-keyboard-response,17
true,19,0,1,0,true,q,false,true,0.0-2.0-0.67-0.604-3.604,0,0,0,81,false,stim,false,2,484.0,3,0,1,19775,WMM1,1626339,false,false,2035,image-keyboard-response,18
true,19,0,1,0,true,q,false,true,0.0-2.0-0.67-0.605-3.605,0,0,0,81,false,stim,false,2,555.0,3,0,1,19775,WMM1,1628404,false,false,2038,image-keyboard-response,19
true,19,2,1,2,true,d,false,true,0.0-2.0-0.67-0.606-3.606,0,0,0,68,false,stim,false,0,516.0,3,0,0,19775,WMM1,1630435,false,false,2041,image-keyboard-response,20
true,19,0,1,0,true,q,false,true,0.0-2.0-0.67-0.607-3.607,0,0,0,81,false,stim,false,1,547.0000000002328,3,0,2,19775,WMM1,1632499,false,false,2044,image-keyboard-response,21
true,19,2,1,2,true,d,false,true,0.0-2.0-0.67-0.608-3.608,0,0,0,68,false,stim,false,0,592.0,3,0,0,19775,WMM1,1634602,false,false,2047,image-keyboard-response,22
true,19,2,1,2,true,d,false,true,0.0-2.0-0.67-0.609-3.609,0,0,0,68,false,stim,false,0,596.0,3,0,0,19775,WMM1,1636709,false,false,2050,image-keyboard-response,23
true,19,0,1,0,true,q,false,true,0.0-2.0-0.67-0.610-3.610,0,0,0,81,false,stim,false,2,536.9999999997672,3,0,1,19775,WMM1,1638757,false,false,2053,image-keyboard-response,24
true,19,0,1,0,true,q,false,true,0.0-2.0-0.67-0.611-3.611,0,0,0,81,false,stim,false,1,683.0,3,0,2,19775,WMM1,1640953,false,false,2056,image-keyboard-response,25
true,19,2,1,2,true,d,false,true,0.0-2.0-0.68-0.612-3.612,0,0,0,68,false,stim,false,0,557.0,3,0,0,19775,WMM1,1643023,false,false,2059,image-keyboard-response,26
true,19,0,1,0,true,q,false,true,0.0-2.0-0.68-0.613-3.613,0,0,0,81,false,stim,false,2,572.0,3,0,1,19775,WMM1,1645112,false,false,2062,image-keyboard-response,27
true,19,0,1,0,true,q,false,true,0.0-2.0-0.68-0.614-3.614,0,0,0,81,false,stim,false,1,546.0,3,0,2,19775,WMM1,1647172,false,false,2065,image-keyboard-response,28
true,19,0,1,0,true,q,false,true,0.0-2.0-0.68-0.615-3.615,0,0,0,81,false,stim,false,1,540.0,3,0,2,19775,WMM1,1649227,false,false,2068,image-keyboard-response,29
true,19,0,1,0,true,q,false,false,0.0-2.0-0.68-0.616-3.616,0,0,0,81,false,stim,false,2,593.9999999997672,3,0,1,19775,WMM1,1651332,false,true,2071,image-keyboard-response,30
