answered,blockNum,choice,condition,corResp,correct,correct_response,explo,fb,internal_node_id,isStable_1,isStable_2,isStable_3,key_press,newBlock,part,persev,persevResp,rt,sessNum,stableAS,stimulus,subject,task,time_elapsed,training,trap,trial_index,trial_type,trialsInBlock
false,1,-1,0,2,false,d,false,false,0.0-2.0-0.0-0.0-3.0,0,0,0,,true,stim,true,-1,,0,0,1,20341,WMM2,248078,false,false,116,image-keyboard-response,1
true,1,1,0,1,true,z,false,true,0.0-2.0-0.0-0.1-3.1,0,0,0,90,false,stim,false,-1,991.8349999934435,0,0,2,20341,WMM2,250574,false,false,119,image-keyboard-response,2
true,1,2,0,2,true,d,false,true,0.0-2.0-0.0-0.2-3.2,0,0,0,68,false,stim,false,-1,1155.544999986887,0,0,1,20341,WMM2,253233,false,false,122,image-keyboard-response,3
true,1,1,0,2,false,d,true,true,0.0-2.0-0.0-0.3-3.3,0,0,0,90,false,stim,false,-1,677.2300000302494,0,0,1,20341,WMM2,255414,false,true,125,image-keyboard-response,4
true,1,0,0,2,false,d,true,false,0.0-2.0-0.0-0.4-3.4,0,0,0,81,false,stim,false,-1,599.8300000210293,0,0,0,20341,WMM2,257517,false,false,128,image-keyboard-response,5
true,1,1,0,2,false,d,true,false,0.0-2.0-0.0-0.5-3.5,0,0,0,90,false,stim,false,-1,959.8600000026636,0,0,0,20341,WMM2,259980,false,false,131,image-keyboard-response,6
true,1,2,0,1,false,z,true,true,0.0-2.0-0.0-0.6-3.6,0,0,0,68,false,stim,false,-1,1206.8349999608472,0,0,2,20341,WMM2,262690,false,true,134,image-keyboard-response,7
true,1,2,0,1,false,z,true,false,0.0-2.0-0.0-0.7-3.7,0,0,0,68,false,stim,false,-1,741.5000000037253,0,0,2,20341,WMM2,264935,false,false,137,image-keyboard-response,8
true,1,2,0,2,true,d,false,true,0.0-2.0-0.0-0.8-3.8,0,0,0,68,false,stim,false,-1,1276.6900000278838,0,0,0,20341,WMM2,267715,false,false,140,image-keyboard-response,9
true,1,1,0,2,false,d,true,false,0.0-2.0-0.1-0.9-3.9,0,0,0,90,false,stim,false,-1,2259.1750000137836,0,0,1,20341,WMM2,271479,false,false,143,image-keyboard-response,10
true,1,2,0,2,true,d,false,false,0.0-2.0-0.1-0.10-3.10,0,0,0,68,false,stim,false,-1,1186.6450000088662,0,0,1,20341,WMM2,274169,false,true,146,image-keyboard-response,11
true,1,2,0,1,false,z,true,false,0.0-2.0-0.1-0.11-3.11,0,0,0,68,false,stim,false,-1,796.6250000172295,0,0,2,20341,WMM2,276469,false,false,149,image-keyboard-response,12
true,1,1,0,1,true,z,false,true,0.0-2.0-0.1-0.12-3.12,0,0,0,90,false,stim,false,-1,689.9449999909848,0,0,2,20341,WMM2,278662,false,false,152,image-keyboard-response,13
true,1,2,0,2,true,d,false,true,0.0-2.0-0.1-0.13-3.13,0,0,0,68,false,stim,false,-1,876.0900000343099,0,0,1,20341,WMM2,281042,false,false,155,image-keyboard-response,14
false,1,-1,0,2,false,d,false,false,0.0-2.0-0.1-0.14-3.14,0,0,0,,false,stim,true,-1,,0,0,0,20341,WMM2,285545,false,false,158,image-keyboard-response,15
true,1,1,0,2,false,d,true,false,0.0-2.0-0.1-0.15-3.15,0,0,0,90,false,stim,false,-1,945.6950000021607,0,0,0,20341,WMM2,287994,false,false,161,image-keyboard-response,16
true,1,0,0,2,false,d,true,false,0.0-2.0-0.1-0.16-3.16,0,0,0,81,false,stim,false,-1,410.5299999937415,0,0,0,20341,WMM2,289908,false,false,164,image-keyboard-response,17
true,1,2,0,1,false,z,true,false,0.0-2.0-0.1-0.17-3.17,0,0,0,68,false,stim,false,-1,649.2549999966286,0,0,2,20341,WMM2,292061,false,false,167,image-keyboard-response,18
true,1,2,0,2,true,d,false,true,0.0-2.0-0.2-0.18-3.18,0,0,0,68,false,stim,false,-1,1701.1300000012852,0,0,0,20341,WMM2,295266,false,false,170,image-keyboard-response,19
true,1,2,0,2,true,d,false,true,0.0-2.0-0.2-0.19-3.19,0,0,0,68,false,stim,false,-1,771.5300000272691,0,0,0,20341,WMM2,297541,false,false,173,image-keyboard-response,20
true,1,1,0,2,false,d,true,false,0.0-2.0-0.2-0.20-3.20,0,0,0,90,false,stim,false,-1,1130.8199999621138,0,0,1,20341,WMM2,300175,false,false,176,image-keyboard-response,21
true,1,1,0,1,true,z,false,true,0.0-2.0-0.2-0.21-3.21,0,0,0,90,false,stim,false,-1,1030.5000000516884,0,0,2,20341,WMM2,302710,false,false,179,image-keyboard-response,22
true,1,1,0,1,true,z,false,false,0.0-2.0-0.2-0.22-3.22,0,0,0,90,false,stim,false,-1,1366.32999998983,0,0,2,20341,WMM2,305580,false,true,182,image-keyboard-response,23
true,1,1,0,2,false,d,true,false,0.0-2.0-0.2-0.23-3.23,0,0,0,90,false,stim,false,-1,820.2150000142865,0,0,1,20341,WMM2,307904,false,false,185,image-keyboard-response,24
true,1,1,0,2,false,d,true,false,0.0-2.0-0.2-0.24-3.24,0,0,0,90,false,stim,false,-1,750.0749999890104,0,0,1,20341,WMM2,310158,false,false,188,image-keyboard-response,25
true,1,2,0,2,true,d,false,true,0.0-2.0-0.2-0.25-3.25,0,0,0,68,false,stim,false,-1,1059.3300000182353,0,0,0,20341,WMM2,312723,false,false,191,image-keyboard-response,26
true,1,2,0,1,false,z,true,true,0.0-2.0-0.2-0.26-3.26,0,0,0,68,false,stim,false,-1,324.7700000065379,0,0,2,20341,WMM2,314552,false,true,194,image-keyboard-response,27
true,1,2,0,2,true,d,false,true,0.0-2.0-0.3-0.27-3.27,0,0,0,68,false,stim,false,-1,271.8600000371225,0,0,0,20341,WMM2,316327,false,false,197,image-keyboard-response,28
true,1,2,0,1,false,z,true,false,0.0-2.0-0.3-0.28-3.28,0,0,0,68,false,stim,false,-1,293.5799999977462,0,0,2,20341,WMM2,318124,false,false,200,image-keyboard-response,29
true,1,2,0,2,true,d,false,true,0.0-2.0-0.3-0.29-3.29,0,0,0,68,false,stim,false,-1,1380.3100000368431,0,0,0,20341,WMM2,321009,false,false,203,image-keyboard-response,30
true,1,0,0,1,false,z,true,false,0.0-2.0-0.3-0.30-3.30,0,0,0,81,false,stim,false,-1,454.13500000722706,0,0,2,20341,WMM2,322967,false,false,206,image-keyboard-response,31
true,1,2,0,2,true,d,false,true,0.0-2.0-0.3-0.31-3.31,0,0,0,68,false,stim,false,-1,644.4899999769405,0,0,0,20341,WMM2,325115,false,false,209,image-keyboard-response,32
true,1,2,0,1,false,z,true,false,0.0-2.0-0.3-0.32-3.32,0,0,0,68,false,stim,false,-1,379.1599999531172,0,0,2,20341,WMM2,326998,false,false,212,image-keyboard-response,33
true,1,2,0,2,true,d,false,true,0.0-2.0-0.3-0.33-3.33,0,0,0,68,false,stim,false,-1,1726.799999945797,0,0,1,20341,WMM2,330228,false,false,215,image-keyboard-response,34
true,1,2,0,2,true,d,false,true,0.0-2.0-0.3-0.34-3.34,0,0,0,68,false,stim,false,-1,534.685000020545,0,0,1,20341,WMM2,332267,false,false,218,image-keyboard-response,35
true,1,2,0,2,true,d,false,false,0.0-2.0-0.3-0.35-3.35,0,0,0,68,false,stim,false,-1,1291.6199999745004,0,0,1,20341,WMM2,335061,false,true,221,image-keyboard-response,36
true,1,2,0,2,true,d,false,true,0.0-2.0-0.4-0.36-3.36,0,0,0,68,false,stim,false,-1,1184.3100000405684,0,0,1,20341,WMM2,337750,false,false,224,image-keyboard-response,37
true,1,2,0,2,true,d,false,true,0.0-2.0-0.4-0.37-3.37,0,0,0,68,false,stim,false,-1,513.6850000126287,0,0,1,20341,WMM2,339769,false,false,227,image-keyboard-response,38
true,1,2,0,2,true,d,false,true,0.0-2.0-0.4-0.38-3.38,0,0,0,68,false,stim,false,-1,1000.0850000069477,0,0,0,20341,WMM2,342273,false,false,230,image-keyboard-response,39
true,1,2,0,2,true,d,false,false,0.0-2.0-0.4-0.39-3.39,0,0,0,68,false,stim,false,-1,500.6050000083633,0,0,0,20341,WMM2,344278,false,true,233,image-keyboard-response,40
true,1,2,0,1,false,z,true,false,0.0-2.0-0.4-0.40-3.40,0,0,0,68,false,stim,false,-1,497.2249999991618,0,0,2,20341,WMM2,346279,false,false,236,image-keyboard-response,41
true,1,2,0,1,false,z,true,false,0.0-2.0-0.4-0.41-3.41,0,0,0,68,false,stim,false,-1,251.1600000434555,0,0,2,20341,WMM2,348035,false,false,239,image-keyboard-response,42
true,1,2,0,2,true,d,false,true,0.0-2.0-0.4-0.42-3.42,0,0,0,68,false,stim,false,-1,1025.0949999899603,0,0,1,20341,WMM2,350563,false,false,242,image-keyboard-response,43
true,1,2,0,1,false,z,true,false,0.0-2.0-0.4-0.43-3.43,0,0,0,68,false,stim,false,-1,584.560000046622,0,0,2,20341,WMM2,352652,false,false,245,image-keyboard-response,44
true,1,0,0,2,false,d,true,false,0.0-2.0-0.4-0.44-3.44,0,0,0,81,false,stim,false,-1,830.0450000097044,0,0,0,20341,WMM2,354986,false,false,248,image-keyboard-response,45
true,1,2,0,2,true,d,false,true,0.0-2.0-0.5-0.45-3.45,0,0,0,68,false,stim,false,-1,913.9250000007451,0,0,0,20341,WMM2,357405,false,false,251,image-keyboard-response,46
true,1,2,0,2,true,d,false,true,0.0-2.0-0.5-0.46-3.46,0,0,0,68,false,stim,false,-1,553.9249999565072,0,0,1,20341,WMM2,359463,false,false,254,image-keyboard-response,47
true,1,2,0,1,false,z,true,false,0.0-2.0-0.5-0.47-3.47,0,0,0,68,false,stim,false,-1,536.7299999925308,0,0,2,20341,WMM2,361504,false,false,257,image-keyboard-response,48
true,1,1,0,1,true,z,false,true,0.0-2.0-0.5-0.48-3.48,0,0,0,90,false,stim,false,-1,1123.540000000503,0,0,2,20341,WMM2,364130,false,false,260,image-keyboard-response,49
true,1,1,0,1,true,z,false,true,0.0-2.0-0.5-0.49-3.49,0,0,0,90,false,stim,false,-1,1009.5449999789707,0,0,2,20341,WMM2,366644,false,false,263,image-keyboard-response,50
true,1,2,0,2,true,d,false,true,0.0-2.0-0.5-0.50-3.50,0,0,0,68,false,stim,false,-1,770.0199999962933,0,1,1,20341,WMM2,368917,false,false,266,image-keyboard-response,51
true,1,2,0,2,true,d,false,true,0.0-2.0-0.5-0.51-3.51,0,0,0,68,false,stim,false,-1,614.9050000240095,0,1,1,20341,WMM2,371035,false,false,269,image-keyboard-response,52
true,1,2,0,2,true,d,false,true,0.0-2.0-0.5-0.52-3.52,0,0,0,68,false,stim,false,-1,1576.0749999899417,0,0,0,20341,WMM2,374116,false,false,272,image-keyboard-response,53
true,1,1,0,2,false,d,true,false,0.0-2.0-0.5-0.53-3.53,0,0,0,90,false,stim,false,-1,589.719999989029,0,0,0,20341,WMM2,376209,false,false,275,image-keyboard-response,54
true,1,2,0,2,true,d,false,true,0.0-2.0-0.6-0.54-3.54,0,0,0,68,false,stim,false,-1,383.13500001095235,0,0,0,20341,WMM2,378096,false,false,278,image-keyboard-response,55
true,1,2,0,1,false,z,true,false,0.0-2.0-0.6-0.55-3.55,0,0,0,68,false,stim,false,-1,945.2049999963492,0,0,2,20341,WMM2,380544,false,false,281,image-keyboard-response,56
true,1,2,0,2,true,d,false,true,0.0-2.0-0.6-0.56-3.56,0,0,0,68,false,stim,false,-1,664.2449999926612,0,0,0,20341,WMM2,382712,false,false,284,image-keyboard-response,57
true,1,2,0,2,true,d,false,true,0.0-2.0-0.6-0.57-3.57,0,0,0,68,false,stim,false,-1,459.7800000337884,0,0,0,20341,WMM2,384675,false,false,287,image-keyboard-response,58
true,1,1,0,1,true,z,false,true,0.0-2.0-0.6-0.58-3.58,0,0,0,90,false,stim,false,-1,910.6100000208244,0,0,2,20341,WMM2,387089,false,false,290,image-keyboard-response,59
true,1,2,0,2,true,d,false,true,0.0-2.0-0.6-0.59-3.59,0,0,0,68,false,stim,false,-1,859.0900000417605,0,1,1,20341,WMM2,389451,false,false,293,image-keyboard-response,60
true,2,2,1,2,true,d,false,true,0.0-2.0-0.6-0.60-3.60,0,1,0,68,true,stim,false,2,510.0150000071153,0,1,1,20341,WMM2,391465,false,false,296,image-keyboard-response,1
true,2,1,1,2,false,d,false,false,0.0-2.0-0.6-0.61-3.61,0,1,0,90,false,stim,true,1,505.5399999837391,0,0,2,20341,WMM2,393473,false,false,299,image-keyboard-response,2
true,2,2,1,2,true,d,false,true,0.0-2.0-0.6-0.62-3.62,0,1,0,68,false,stim,false,2,487.51000000629574,0,1,1,20341,WMM2,395466,false,false,302,image-keyboard-response,3
true,2,2,1,1,false,z,false,false,0.0-2.0-0.7-0.63-3.63,0,1,0,68,false,stim,true,2,478.68000000016764,0,0,0,20341,WMM2,397449,false,false,305,image-keyboard-response,4
true,2,1,1,2,false,d,false,false,0.0-2.0-0.7-0.64-3.64,0,1,0,90,false,stim,true,1,954.2950000031851,0,0,2,20341,WMM2,399907,false,false,308,image-keyboard-response,5
true,2,2,1,2,true,d,false,true,0.0-2.0-0.7-0.65-3.65,0,1,0,68,false,stim,false,2,908.7350000045262,0,1,1,20341,WMM2,402319,false,false,311,image-keyboard-response,6
true,2,2,1,2,true,d,false,false,0.0-2.0-0.7-0.66-3.66,0,1,0,68,false,stim,false,1,458.6450000060722,0,0,2,20341,WMM2,404281,false,true,314,image-keyboard-response,7
true,2,2,1,2,true,d,false,true,0.0-2.0-0.7-0.67-3.67,0,1,0,68,false,stim,false,2,1358.9800000190735,0,1,1,20341,WMM2,407145,false,false,317,image-keyboard-response,8
true,2,1,1,2,false,d,false,false,0.0-2.0-0.7-0.68-3.68,0,1,0,90,false,stim,true,1,559.9849999998696,0,0,2,20341,WMM2,409209,false,false,320,image-keyboard-response,9
true,2,2,1,1,false,z,false,false,0.0-2.0-0.7-0.69-3.69,0,1,0,68,false,stim,true,2,430.06000004243106,0,0,0,20341,WMM2,411142,false,false,323,image-keyboard-response,10
true,2,2,1,1,false,z,false,false,0.0-2.0-0.7-0.70-3.70,0,1,0,68,false,stim,true,2,509.97000001370907,0,0,0,20341,WMM2,413156,false,false,326,image-keyboard-response,11
true,2,2,1,2,true,d,false,true,0.0-2.0-0.7-0.71-3.71,0,1,0,68,false,stim,false,2,1202.4749999982305,0,1,1,20341,WMM2,415861,false,false,329,image-keyboard-response,12
true,2,2,1,2,true,d,false,true,0.0-2.0-0.8-0.72-3.72,0,1,0,68,false,stim,false,1,552.7649999712594,0,0,2,20341,WMM2,417919,false,false,332,image-keyboard-response,13
true,2,2,1,2,true,d,false,true,0.0-2.0-0.8-0.73-3.73,0,1,0,68,false,stim,false,2,559.3949999893084,0,1,1,20341,WMM2,419983,false,false,335,image-keyboard-response,14
true,2,2,1,2,true,d,false,true,0.0-2.0-0.8-0.74-3.74,0,1,0,68,false,stim,false,2,542.4800000037067,0,1,1,20341,WMM2,422030,false,false,338,image-keyboard-response,15
true,2,2,1,2,true,d,false,true,0.0-2.0-0.8-0.75-3.75,0,1,0,68,false,stim,false,2,453.4249999560416,0,1,1,20341,WMM2,423988,false,false,341,image-keyboard-response,16
true,2,0,1,1,false,z,true,false,0.0-2.0-0.8-0.76-3.76,0,1,0,81,false,stim,false,2,845.4799999599345,0,0,0,20341,WMM2,426337,false,false,344,image-keyboard-response,17
true,2,2,1,1,false,z,false,false,0.0-2.0-0.8-0.77-3.77,0,1,0,68,false,stim,true,2,699.1300000227056,0,0,0,20341,WMM2,428541,false,false,347,image-keyboard-response,18
true,2,1,1,1,true,z,false,true,0.0-2.0-0.8-0.78-3.78,0,1,0,90,false,stim,false,2,869.4499999983236,0,0,0,20341,WMM2,430914,false,false,350,image-keyboard-response,19
true,2,2,1,2,true,d,false,true,0.0-2.0-0.8-0.79-3.79,0,1,0,68,false,stim,false,1,723.2949999743141,0,0,2,20341,WMM2,433143,false,false,353,image-keyboard-response,20
true,2,2,1,2,true,d,false,true,0.0-2.0-0.8-0.80-3.80,0,1,0,68,false,stim,false,1,1206.049999978859,0,0,2,20341,WMM2,435853,false,false,356,image-keyboard-response,21
true,2,2,1,2,true,d,false,true,0.0-2.0-0.9-0.81-3.81,0,1,0,68,false,stim,false,1,497.365000017453,0,0,2,20341,WMM2,437857,false,false,359,image-keyboard-response,22
true,2,2,1,2,true,d,false,true,0.0-2.0-0.9-0.82-3.82,0,1,0,68,false,stim,false,1,609.0299999923445,0,0,2,20341,WMM2,439970,false,false,362,image-keyboard-response,23
true,2,2,1,1,false,z,false,false,0.0-2.0-0.9-0.83-3.83,0,1,0,68,false,stim,true,2,2115.125000011176,0,0,0,20341,WMM2,443590,false,false,365,image-keyboard-response,24
true,2,2,1,2,true,d,false,true,0.0-2.0-0.9-0.84-3.84,0,1,0,68,false,stim,false,2,1804.9549999996088,0,1,1,20341,WMM2,446901,false,false,368,image-keyboard-response,25
true,2,2,1,1,false,z,false,false,0.0-2.0-0.9-0.85-3.85,0,1,0,68,false,stim,true,2,935.7699999818578,0,0,0,20341,WMM2,449340,false,false,371,image-keyboard-response,26
true,2,2,1,2,true,d,false,true,0.0-2.0-0.9-0.86-3.86,0,1,0,68,false,stim,false,2,713.9600000227802,0,1,1,20341,WMM2,451559,false,false,374,image-keyboard-response,27
true,2,2,1,2,true,d,false,true,0.0-2.0-0.9-0.87-3.87,0,1,0,68,false,stim,false,1,344.55000003799796,0,0,2,20341,WMM2,453407,false,false,377,image-keyboard-response,28
true,2,2,1,1,false,z,false,false,0.0-2.0-0.9-0.88-3.88,0,1,0,68,false,stim,true,2,657.839999999851,0,0,0,20341,WMM2,455571,false,false,380,image-keyboard-response,29
true,2,2,1,2,true,d,false,true,0.0-2.0-0.9-0.89-3.89,0,1,0,68,false,stim,false,2,813.1350000039674,0,1,1,20341,WMM2,457889,false,false,383,image-keyboard-response,30
true,2,1,1,2,false,d,false,false,0.0-2.0-0.10-0.90-3.90,0,1,0,90,false,stim,true,1,499.04000002425164,0,0,2,20341,WMM2,459893,false,false,386,image-keyboard-response,31
true,2,2,1,2,true,d,false,false,0.0-2.0-0.10-0.91-3.91,0,1,0,68,false,stim,false,2,518.6700000194833,0,1,1,20341,WMM2,461917,false,true,389,image-keyboard-response,32
true,2,0,1,2,false,d,true,false,0.0-2.0-0.10-0.92-3.92,0,1,0,81,false,stim,false,1,944.7999999974854,0,0,2,20341,WMM2,464366,false,false,392,image-keyboard-response,33
true,2,0,1,1,false,z,true,false,0.0-2.0-0.10-0.93-3.93,0,1,0,81,false,stim,false,2,999.7149999835528,0,0,0,20341,WMM2,466871,false,false,395,image-keyboard-response,34
true,2,2,1,1,false,z,false,false,0.0-2.0-0.10-0.94-3.94,0,1,0,68,false,stim,true,2,795.125000004191,0,0,0,20341,WMM2,469171,false,false,398,image-keyboard-response,35
true,2,2,1,2,true,d,false,true,0.0-2.0-0.10-0.95-3.95,0,1,0,68,false,stim,false,1,465.49500001128763,0,0,2,20341,WMM2,471144,false,false,401,image-keyboard-response,36
true,2,2,1,2,true,d,false,true,0.0-2.0-0.10-0.96-3.96,0,1,0,68,false,stim,false,2,638.9999999664724,0,1,1,20341,WMM2,473288,false,false,404,image-keyboard-response,37
true,2,2,1,2,true,d,false,true,0.0-2.0-0.10-0.97-3.97,0,1,0,68,false,stim,false,2,490.40000000968575,0,1,1,20341,WMM2,475283,false,false,407,image-keyboard-response,38
true,2,2,1,1,false,z,false,false,0.0-2.0-0.10-0.98-3.98,0,1,0,68,false,stim,true,2,587.4450000119396,0,0,0,20341,WMM2,477374,false,false,410,image-keyboard-response,39
true,2,2,1,2,true,d,false,true,0.0-2.0-0.11-0.99-3.99,0,1,0,68,false,stim,false,2,683.8299999944866,0,1,1,20341,WMM2,479563,false,false,413,image-keyboard-response,40
true,2,2,1,2,true,d,false,true,0.0-2.0-0.11-0.100-3.100,0,1,0,68,false,stim,false,1,595.1550000463612,0,0,2,20341,WMM2,481662,false,false,416,image-keyboard-response,41
true,2,2,1,1,false,z,false,false,0.0-2.0-0.11-0.101-3.101,0,1,0,68,false,stim,true,2,899.6200000401586,0,0,0,20341,WMM2,484065,false,false,419,image-keyboard-response,42
true,2,2,1,2,true,d,false,false,0.0-2.0-0.11-0.102-3.102,0,1,0,68,false,stim,false,2,530.3299999795854,0,1,1,20341,WMM2,486100,false,true,422,image-keyboard-response,43
true,2,1,1,2,false,d,false,false,0.0-2.0-0.11-0.103-3.103,0,1,0,90,false,stim,true,1,1854.0400000056252,0,0,2,20341,WMM2,489458,false,false,425,image-keyboard-response,44
true,2,2,1,1,false,z,false,false,0.0-2.0-0.11-0.104-3.104,0,1,0,68,false,stim,true,2,227.66999999294057,0,0,0,20341,WMM2,491191,false,false,428,image-keyboard-response,45
true,2,2,1,2,true,d,false,true,0.0-2.0-0.11-0.105-3.105,0,1,0,68,false,stim,false,1,417.7200000267476,0,0,2,20341,WMM2,493115,false,false,431,image-keyboard-response,46
true,2,2,1,2,true,d,false,true,0.0-2.0-0.11-0.106-3.106,0,1,0,68,false,stim,false,2,768.8799999887124,0,1,1,20341,WMM2,495388,false,false,434,image-keyboard-response,47
true,2,2,1,1,false,z,false,false,0.0-2.0-0.11-0.107-3.107,0,1,0,68,false,stim,true,2,1353.3299999544397,0,0,0,20341,WMM2,498247,false,false,437,image-keyboard-response,48
true,2,2,1,2,true,d,false,true,0.0-2.0-0.12-0.108-3.108,0,1,0,68,false,stim,false,1,423.2849999680184,0,0,2,20341,WMM2,500175,false,false,440,image-keyboard-response,49
true,2,1,1,1,true,z,false,true,0.0-2.0-0.12-0.109-3.109,0,1,0,90,false,stim,false,2,505.52499998593703,0,0,0,20341,WMM2,502186,false,false,443,image-keyboard-response,50
true,2,2,1,2,true,d,false,true,0.0-2.0-0.12-0.110-3.110,0,1,0,68,false,stim,false,1,697.3049999796785,0,0,2,20341,WMM2,504389,false,false,446,image-keyboard-response,51
true,2,2,1,2,true,d,false,true,0.0-2.0-0.12-0.111-3.111,0,1,0,68,false,stim,false,2,887.9099999903701,0,1,1,20341,WMM2,506782,false,false,449,image-keyboard-response,52
true,2,2,1,2,true,d,false,false,0.0-2.0-0.12-0.112-3.112,0,1,0,68,false,stim,false,2,688.945000001695,0,1,1,20341,WMM2,508975,false,true,452,image-keyboard-response,53
true,2,2,1,2,true,d,false,true,0.0-2.0-0.12-0.113-3.113,0,1,0,68,false,stim,false,2,594.2350000259466,0,1,1,20341,WMM2,511072,false,false,455,image-keyboard-response,54
true,2,1,1,1,true,z,false,false,0.0-2.0-0.12-0.114-3.114,0,1,0,90,false,stim,false,2,578.899999964051,0,1,0,20341,WMM2,513155,false,true,458,image-keyboard-response,55
true,2,2,1,1,false,z,false,false,0.0-2.0-0.12-0.115-3.115,0,1,0,68,false,stim,true,2,173.4699999797158,0,1,0,20341,WMM2,514833,false,false,461,image-keyboard-response,56
true,2,2,1,2,true,d,false,true,0.0-2.0-0.12-0.116-3.116,0,1,0,68,false,stim,false,1,605.0800000084564,0,0,2,20341,WMM2,516943,false,false,464,image-keyboard-response,57
true,2,0,1,1,false,z,true,false,0.0-2.0-0.13-0.117-3.117,0,1,0,81,false,stim,false,2,856.7799999727868,0,1,0,20341,WMM2,519304,false,false,467,image-keyboard-response,58
true,2,2,1,2,true,d,false,true,0.0-2.0-0.13-0.118-3.118,0,1,0,68,false,stim,false,2,434.8549999995157,0,1,1,20341,WMM2,521242,false,false,470,image-keyboard-response,59
true,2,2,1,1,false,z,false,true,0.0-2.0-0.13-0.119-3.119,0,1,0,68,false,stim,true,2,1444.7900000377558,0,1,0,20341,WMM2,524191,false,true,473,image-keyboard-response,60
true,3,2,3,2,true,d,false,true,0.0-2.0-0.13-0.120-3.120,1,1,0,68,true,stim,false,2,393.0450000334531,0,1,1,20341,WMM2,526089,false,false,476,image-keyboard-response,1
true,3,2,3,0,false,q,false,true,0.0-2.0-0.13-0.121-3.121,1,1,0,68,false,stim,true,2,418.5550000402145,0,0,2,20341,WMM2,528012,false,true,479,image-keyboard-response,2
true,3,2,3,2,true,d,false,false,0.0-2.0-0.13-0.122-3.122,1,1,0,68,false,stim,false,2,588.965000002645,0,1,1,20341,WMM2,530106,false,true,482,image-keyboard-response,3
true,3,2,3,0,false,q,false,false,0.0-2.0-0.13-0.123-3.123,1,1,0,68,false,stim,true,2,420.00499996356666,0,0,2,20341,WMM2,532029,false,false,485,image-keyboard-response,4
true,3,2,3,1,false,z,true,false,0.0-2.0-0.13-0.124-3.124,1,1,0,68,false,stim,false,1,615.4749999986961,0,1,0,20341,WMM2,534147,false,false,488,image-keyboard-response,5
true,3,1,3,0,false,q,true,false,0.0-2.0-0.13-0.125-3.125,1,1,0,90,false,stim,false,2,793.5999999754131,0,0,2,20341,WMM2,536446,false,false,491,image-keyboard-response,6
true,3,2,3,0,false,q,false,false,0.0-2.0-0.14-0.126-3.126,1,1,0,68,false,stim,true,2,1043.935000023339,0,0,2,20341,WMM2,538994,false,false,494,image-keyboard-response,7
true,3,0,3,1,false,z,true,false,0.0-2.0-0.14-0.127-3.127,1,1,0,81,false,stim,false,1,1049.509999982547,0,1,0,20341,WMM2,541548,false,false,497,image-keyboard-response,8
true,3,1,3,2,false,d,true,false,0.0-2.0-0.14-0.128-3.128,1,1,0,90,false,stim,false,2,1004.8050000332296,0,1,1,20341,WMM2,544058,false,false,500,image-keyboard-response,9
true,3,2,3,0,false,q,false,false,0.0-2.0-0.14-0.129-3.129,1,1,0,68,false,stim,true,2,171.69000004651025,0,0,2,20341,WMM2,545735,false,false,503,image-keyboard-response,10
true,3,2,3,1,false,z,true,false,0.0-2.0-0.14-0.130-3.130,1,1,0,68,false,stim,false,1,1772.3899999982677,0,1,0,20341,WMM2,549011,false,false,506,image-keyboard-response,11
true,3,2,3,0,false,q,false,false,0.0-2.0-0.14-0.131-3.131,1,1,0,68,false,stim,true,2,514.1399999847636,0,0,2,20341,WMM2,551029,false,false,509,image-keyboard-response,12
true,3,1,3,1,true,z,false,true,0.0-2.0-0.14-0.132-3.132,1,1,0,90,false,stim,false,1,845.74000001885,0,1,0,20341,WMM2,553380,false,false,512,image-keyboard-response,13
true,3,2,3,2,true,d,false,true,0.0-2.0-0.14-0.133-3.133,1,1,0,68,false,stim,false,2,563.9899999951012,0,1,1,20341,WMM2,555449,false,false,515,image-keyboard-response,14
true,3,2,3,2,true,d,false,false,0.0-2.0-0.14-0.134-3.134,1,1,0,68,false,stim,false,2,488.60000004060566,0,1,1,20341,WMM2,557442,false,true,518,image-keyboard-response,15
true,3,2,3,0,false,q,false,false,0.0-2.0-0.15-0.135-3.135,1,1,0,68,false,stim,true,2,528.1749999849126,0,0,2,20341,WMM2,559475,false,false,521,image-keyboard-response,16
true,3,2,3,0,false,q,false,false,0.0-2.0-0.15-0.136-3.136,1,1,0,68,false,stim,true,2,723.6900000134483,0,0,2,20341,WMM2,561703,false,false,524,image-keyboard-response,17
true,3,2,3,2,true,d,false,true,0.0-2.0-0.15-0.137-3.137,1,1,0,68,false,stim,false,2,1727.6299999793991,0,1,1,20341,WMM2,564935,false,false,527,image-keyboard-response,18
true,3,2,3,2,true,d,false,true,0.0-2.0-0.15-0.138-3.138,1,1,0,68,false,stim,false,2,1504.2250000406057,0,1,1,20341,WMM2,567944,false,false,530,image-keyboard-response,19
true,3,1,3,1,true,z,false,true,0.0-2.0-0.15-0.139-3.139,1,1,0,90,false,stim,false,1,784.2250000103377,0,1,0,20341,WMM2,570233,false,false,533,image-keyboard-response,20
true,3,1,3,1,true,z,false,true,0.0-2.0-0.15-0.140-3.140,1,1,0,90,false,stim,false,1,697.4049999844283,0,1,0,20341,WMM2,572436,false,false,536,image-keyboard-response,21
true,3,2,3,0,false,q,false,false,0.0-2.0-0.15-0.141-3.141,1,1,0,68,false,stim,true,2,567.9650000529364,0,0,2,20341,WMM2,574509,false,false,539,image-keyboard-response,22
true,3,1,3,1,true,z,false,true,0.0-2.0-0.15-0.142-3.142,1,1,0,90,false,stim,false,1,378.39000002713874,0,1,0,20341,WMM2,576393,false,false,542,image-keyboard-response,23
true,3,2,3,2,true,d,false,true,0.0-2.0-0.15-0.143-3.143,1,1,0,68,false,stim,false,2,849.5099999709055,0,1,1,20341,WMM2,578747,false,false,545,image-keyboard-response,24
true,3,2,3,2,true,d,false,true,0.0-2.0-0.16-0.144-3.144,1,1,0,68,false,stim,false,2,628.6550000077114,0,1,1,20341,WMM2,580880,false,false,548,image-keyboard-response,25
true,3,2,3,2,true,d,false,false,0.0-2.0-0.16-0.145-3.145,1,1,0,68,false,stim,false,2,693.265000008978,0,1,1,20341,WMM2,583079,false,true,551,image-keyboard-response,26
true,3,1,3,1,true,z,false,true,0.0-2.0-0.16-0.146-3.146,1,1,0,90,false,stim,false,1,593.4850000194274,0,1,0,20341,WMM2,585177,false,false,554,image-keyboard-response,27
true,3,1,3,1,true,z,false,true,0.0-2.0-0.16-0.147-3.147,1,1,0,90,false,stim,false,1,568.5950000188313,0,1,0,20341,WMM2,587250,false,false,557,image-keyboard-response,28
true,3,2,3,0,false,q,false,false,0.0-2.0-0.16-0.148-3.148,1,1,0,68,false,stim,true,2,853.5000000265427,0,0,2,20341,WMM2,589609,false,false,560,image-keyboard-response,29
true,3,1,3,1,true,z,false,true,0.0-2.0-0.16-0.149-3.149,1,1,0,90,false,stim,false,1,697.3099999595433,0,1,0,20341,WMM2,591812,false,false,563,image-keyboard-response,30
true,3,2,3,2,true,d,false,true,0.0-2.0-0.16-0.150-3.150,1,1,0,68,false,stim,false,2,1623.9049999858253,0,1,1,20341,WMM2,594942,false,false,566,image-keyboard-response,31
true,3,2,3,0,false,q,false,false,0.0-2.0-0.16-0.151-3.151,1,1,0,68,false,stim,true,2,1334.210000000894,0,0,2,20341,WMM2,597781,false,false,569,image-keyboard-response,32
true,3,0,3,0,true,q,false,true,0.0-2.0-0.16-0.152-3.152,1,1,0,81,false,stim,false,2,583.2899999804795,0,0,2,20341,WMM2,599870,false,false,572,image-keyboard-response,33
true,3,0,3,0,true,q,false,true,0.0-2.0-0.17-0.153-3.153,1,1,0,81,false,stim,false,2,557.7400000183843,0,0,2,20341,WMM2,601933,false,false,575,image-keyboard-response,34
true,3,2,3,2,true,d,false,true,0.0-2.0-0.17-0.154-3.154,1,1,0,68,false,stim,false,2,994.1600000020117,0,0,1,20341,WMM2,604432,false,false,578,image-keyboard-response,35
true,3,1,3,1,true,z,false,true,0.0-2.0-0.17-0.155-3.155,1,1,0,90,false,stim,false,1,760.0300000049174,0,1,0,20341,WMM2,606696,false,false,581,image-keyboard-response,36
true,3,2,3,2,true,d,false,true,0.0-2.0-0.17-0.156-3.156,1,1,0,68,false,stim,false,2,1196.1049999808893,0,0,1,20341,WMM2,609396,false,false,584,image-keyboard-response,37
true,3,2,3,2,true,d,false,false,0.0-2.0-0.17-0.157-3.157,1,1,0,68,false,stim,false,2,1281.5500000142492,0,0,1,20341,WMM2,612182,false,true,587,image-keyboard-response,38
true,3,0,3,0,true,q,false,true,0.0-2.0-0.17-0.158-3.158,1,1,0,81,false,stim,false,2,604.4349999865517,0,1,2,20341,WMM2,614293,false,false,590,image-keyboard-response,39
true,3,1,3,1,true,z,false,true,0.0-2.0-0.17-0.159-3.159,1,1,0,90,false,stim,false,1,1050.5600000033155,0,1,0,20341,WMM2,616847,false,false,593,image-keyboard-response,40
true,3,1,3,0,false,q,true,false,0.0-2.0-0.17-0.160-3.160,1,1,0,90,false,stim,false,2,1469.8949999874458,0,1,2,20341,WMM2,619822,false,false,596,image-keyboard-response,41
true,3,1,3,1,true,z,false,true,0.0-2.0-0.17-0.161-3.161,1,1,0,90,false,stim,false,1,1274.535000033211,0,1,0,20341,WMM2,622602,false,false,599,image-keyboard-response,42
true,3,2,3,2,true,d,false,true,0.0-2.0-0.18-0.162-3.162,1,1,0,68,false,stim,false,2,927.5849999976344,0,0,1,20341,WMM2,625035,false,false,602,image-keyboard-response,43
true,3,1,3,1,true,z,false,true,0.0-2.0-0.18-0.163-3.163,1,1,0,90,false,stim,false,1,1531.009999976959,0,1,0,20341,WMM2,628071,false,false,605,image-keyboard-response,44
true,4,0,2,0,true,q,false,true,0.0-2.0-0.18-0.164-3.164,1,0,1,81,true,stim,false,0,1394.109999993816,0,1,2,20341,WMM2,630970,false,false,608,image-keyboard-response,1
true,4,0,2,0,true,q,false,true,0.0-2.0-0.18-0.165-3.165,1,0,1,81,false,stim,false,0,694.240000040736,0,1,2,20341,WMM2,633168,false,false,611,image-keyboard-response,2
true,4,0,2,0,true,q,false,true,0.0-2.0-0.18-0.166-3.166,1,0,1,81,false,stim,false,0,624.4500000029802,0,1,2,20341,WMM2,635297,false,false,614,image-keyboard-response,3
true,4,2,2,0,false,q,false,true,0.0-2.0-0.18-0.167-3.167,1,0,1,68,false,stim,true,2,1014.1500000027008,0,0,1,20341,WMM2,637815,false,true,617,image-keyboard-response,4
true,4,1,2,1,true,z,false,true,0.0-2.0-0.18-0.168-3.168,1,0,1,90,false,stim,false,1,885.8299999847077,0,1,0,20341,WMM2,640204,false,false,620,image-keyboard-response,5
true,4,1,2,1,true,z,false,true,0.0-2.0-0.18-0.169-3.169,1,0,1,90,false,stim,false,1,518.4400000143796,0,1,0,20341,WMM2,642227,false,false,623,image-keyboard-response,6
true,4,2,2,0,false,q,false,true,0.0-2.0-0.18-0.170-3.170,1,0,1,68,false,stim,true,2,860.1350000244565,0,0,1,20341,WMM2,644591,false,true,626,image-keyboard-response,7
true,4,2,2,0,false,q,false,false,0.0-2.0-0.19-0.171-3.171,1,0,1,68,false,stim,true,2,1004.3000000296161,0,0,1,20341,WMM2,647100,false,false,629,image-keyboard-response,8
true,4,1,2,1,true,z,false,true,0.0-2.0-0.19-0.172-3.172,1,0,1,90,false,stim,false,1,957.1299999952316,0,1,0,20341,WMM2,649562,false,false,632,image-keyboard-response,9
true,4,0,2,0,true,q,false,true,0.0-2.0-0.19-0.173-3.173,1,0,1,81,false,stim,false,0,1664.8949999944307,0,1,2,20341,WMM2,652731,false,false,635,image-keyboard-response,10
true,4,0,2,0,true,q,false,true,0.0-2.0-0.19-0.174-3.174,1,0,1,81,false,stim,false,0,675.3899999894202,0,1,2,20341,WMM2,654910,false,false,638,image-keyboard-response,11
true,4,0,2,0,true,q,false,false,0.0-2.0-0.19-0.175-3.175,1,0,1,81,false,stim,false,0,1190.5099999858066,0,1,2,20341,WMM2,657605,false,true,641,image-keyboard-response,12
true,4,2,2,0,false,q,false,false,0.0-2.0-0.19-0.176-3.176,1,0,1,68,false,stim,true,2,859.1349999769591,0,0,1,20341,WMM2,659970,false,false,644,image-keyboard-response,13
true,4,1,2,1,true,z,false,true,0.0-2.0-0.19-0.177-3.177,1,0,1,90,false,stim,false,1,789.6100000361912,0,1,0,20341,WMM2,662264,false,false,647,image-keyboard-response,14
true,4,1,2,1,true,z,false,true,0.0-2.0-0.19-0.178-3.178,1,0,1,90,false,stim,false,1,549.7099999920465,0,1,0,20341,WMM2,664318,false,false,650,image-keyboard-response,15
true,4,2,2,0,false,q,false,false,0.0-2.0-0.19-0.179-3.179,1,0,1,68,false,stim,true,2,1030.414999986533,0,0,1,20341,WMM2,666853,false,false,653,image-keyboard-response,16
true,4,1,2,1,true,z,false,false,0.0-2.0-0.20-0.180-3.180,1,0,1,90,false,stim,false,1,1164.809999987483,0,1,0,20341,WMM2,669522,false,true,656,image-keyboard-response,17
true,4,0,2,0,true,q,false,true,0.0-2.0-0.20-0.181-3.181,1,0,1,81,false,stim,false,0,1124.8350000241771,0,1,2,20341,WMM2,672152,false,false,659,image-keyboard-response,18
true,4,0,2,0,true,q,false,true,0.0-2.0-0.20-0.182-3.182,1,0,1,81,false,stim,false,0,774.4300000485964,0,1,2,20341,WMM2,674431,false,false,662,image-keyboard-response,19
true,4,2,2,0,false,q,false,false,0.0-2.0-0.20-0.183-3.183,1,0,1,68,false,stim,true,2,960.129999963101,0,0,1,20341,WMM2,676896,false,false,665,image-keyboard-response,20
true,4,0,2,0,true,q,false,true,0.0-2.0-0.20-0.184-3.184,1,0,1,81,false,stim,false,0,1163.9549999963492,0,1,2,20341,WMM2,679565,false,false,668,image-keyboard-response,21
true,4,1,2,1,true,z,false,true,0.0-2.0-0.20-0.185-3.185,1,0,1,90,false,stim,false,1,627.7099999715574,0,1,0,20341,WMM2,681698,false,false,671,image-keyboard-response,22
true,4,1,2,1,true,z,false,true,0.0-2.0-0.20-0.186-3.186,1,0,1,90,false,stim,false,1,728.4850000287406,0,1,0,20341,WMM2,683931,false,false,674,image-keyboard-response,23
true,4,2,2,0,false,q,false,false,0.0-2.0-0.20-0.187-3.187,1,0,1,68,false,stim,true,2,617.5299999886192,0,0,1,20341,WMM2,686054,false,false,677,image-keyboard-response,24
true,4,2,2,0,false,q,false,false,0.0-2.0-0.20-0.188-3.188,1,0,1,68,false,stim,true,2,481.90499999327585,0,0,1,20341,WMM2,688042,false,false,680,image-keyboard-response,25
true,4,2,2,0,false,q,false,false,0.0-2.0-0.21-0.189-3.189,1,0,1,68,false,stim,true,2,441.3800000329502,0,0,1,20341,WMM2,689989,false,false,683,image-keyboard-response,26
true,4,0,2,0,true,q,false,true,0.0-2.0-0.21-0.190-3.190,1,0,1,81,false,stim,false,0,1128.0799999949522,0,1,2,20341,WMM2,692623,false,false,686,image-keyboard-response,27
true,4,2,2,0,false,q,true,false,0.0-2.0-0.21-0.191-3.191,1,0,1,68,false,stim,false,0,1054.9649999593385,0,1,2,20341,WMM2,695183,false,false,689,image-keyboard-response,28
true,4,2,2,0,false,q,false,false,0.0-2.0-0.21-0.192-3.192,1,0,1,68,false,stim,true,2,597.3749999538995,0,0,1,20341,WMM2,697286,false,false,692,image-keyboard-response,29
true,4,0,2,0,true,q,false,true,0.0-2.0-0.21-0.193-3.193,1,0,1,81,false,stim,false,0,897.4700000253506,0,1,2,20341,WMM2,699689,false,false,695,image-keyboard-response,30
true,4,2,2,0,false,q,false,false,0.0-2.0-0.21-0.194-3.194,1,0,1,68,false,stim,true,2,1662.8050000290386,0,0,1,20341,WMM2,702858,false,false,698,image-keyboard-response,31
true,4,1,2,1,true,z,false,true,0.0-2.0-0.21-0.195-3.195,1,0,1,90,false,stim,false,1,805.274999991525,0,1,0,20341,WMM2,705170,false,false,701,image-keyboard-response,32
true,4,1,2,1,true,z,false,false,0.0-2.0-0.21-0.196-3.196,1,0,1,90,false,stim,false,1,1273.3650000300258,0,1,0,20341,WMM2,707949,false,true,704,image-keyboard-response,33
true,4,1,2,1,true,z,false,true,0.0-2.0-0.21-0.197-3.197,1,0,1,90,false,stim,false,1,657.1550000226125,0,1,0,20341,WMM2,710112,false,false,707,image-keyboard-response,34
true,4,2,2,0,false,q,false,false,0.0-2.0-0.22-0.198-3.198,1,0,1,68,false,stim,true,2,738.184999965597,0,0,1,20341,WMM2,712356,false,false,710,image-keyboard-response,35
true,4,0,2,0,true,q,false,true,0.0-2.0-0.22-0.199-3.199,1,0,1,81,false,stim,false,0,1806.6349999862723,0,1,2,20341,WMM2,715668,false,false,713,image-keyboard-response,36
true,4,2,2,0,false,q,false,false,0.0-2.0-0.22-0.200-3.200,1,0,1,68,false,stim,true,2,1117.194999998901,0,0,1,20341,WMM2,718291,false,false,716,image-keyboard-response,37
true,4,1,2,1,true,z,false,true,0.0-2.0-0.22-0.201-3.201,1,0,1,90,false,stim,false,1,1134.250000002794,0,1,0,20341,WMM2,720931,false,false,719,image-keyboard-response,38
true,4,1,2,1,true,z,false,true,0.0-2.0-0.22-0.202-3.202,1,0,1,90,false,stim,false,1,644.8100000270642,0,1,0,20341,WMM2,723081,false,false,722,image-keyboard-response,39
true,4,2,2,0,false,q,true,false,0.0-2.0-0.22-0.203-3.203,1,0,1,68,false,stim,false,0,892.1149999951012,0,1,2,20341,WMM2,725479,false,false,725,image-keyboard-response,40
true,4,0,2,0,true,q,false,true,0.0-2.0-0.22-0.204-3.204,1,0,1,81,false,stim,false,0,1779.2350000236183,0,1,2,20341,WMM2,728763,false,false,728,image-keyboard-response,41
true,4,1,2,1,true,z,false,true,0.0-2.0-0.22-0.205-3.205,1,0,1,90,false,stim,false,1,653.3549999585375,0,1,0,20341,WMM2,730921,false,false,731,image-keyboard-response,42
true,4,0,2,0,true,q,false,true,0.0-2.0-0.22-0.206-3.206,1,0,1,81,false,stim,false,2,2214.4650000263937,0,0,1,20341,WMM2,734642,false,false,734,image-keyboard-response,43
true,4,0,2,0,true,q,false,false,0.0-2.0-0.23-0.207-3.207,1,0,1,81,false,stim,false,2,536.1850000335835,0,0,1,20341,WMM2,736685,false,true,737,image-keyboard-response,44
true,4,0,2,0,true,q,false,true,0.0-2.0-0.23-0.208-3.208,1,0,1,81,false,stim,false,0,1127.5050000404008,0,1,2,20341,WMM2,739318,false,false,740,image-keyboard-response,45
true,4,1,2,1,true,z,false,true,0.0-2.0-0.23-0.209-3.209,1,0,1,90,false,stim,false,1,648.5749999992549,0,1,0,20341,WMM2,741471,false,false,743,image-keyboard-response,46
true,4,0,2,0,true,q,false,true,0.0-2.0-0.23-0.210-3.210,1,0,1,81,false,stim,false,0,1035.074999963399,0,0,2,20341,WMM2,744011,false,false,746,image-keyboard-response,47
true,4,1,2,1,true,z,false,false,0.0-2.0-0.23-0.211-3.211,1,0,1,90,false,stim,false,1,727.3149999673478,0,1,0,20341,WMM2,746243,false,true,749,image-keyboard-response,48
true,4,0,2,0,true,q,false,true,0.0-2.0-0.23-0.212-3.212,1,0,1,81,false,stim,false,0,1083.550000039395,0,0,2,20341,WMM2,748831,false,false,752,image-keyboard-response,49
true,4,2,2,0,false,q,false,false,0.0-2.0-0.23-0.213-3.213,1,0,1,68,false,stim,true,2,1170.285000000149,0,1,1,20341,WMM2,751505,false,false,755,image-keyboard-response,50
true,4,1,2,1,true,z,false,false,0.0-2.0-0.23-0.214-3.214,1,0,1,90,false,stim,false,1,688.9800000353716,0,1,0,20341,WMM2,753699,false,true,758,image-keyboard-response,51
true,4,1,2,0,false,q,true,true,0.0-2.0-0.23-0.215-3.215,1,0,1,90,false,stim,false,2,1520.2850000350736,0,1,1,20341,WMM2,756723,false,true,761,image-keyboard-response,52
true,4,0,2,0,true,q,false,true,0.0-2.0-0.24-0.216-3.216,1,0,1,81,false,stim,false,0,1825.669999991078,0,0,2,20341,WMM2,760053,false,false,764,image-keyboard-response,53
true,4,1,2,0,false,q,true,false,0.0-2.0-0.24-0.217-3.217,1,0,1,90,false,stim,false,2,838.6999999638647,0,1,1,20341,WMM2,762396,false,false,767,image-keyboard-response,54
true,4,1,2,1,true,z,false,true,0.0-2.0-0.24-0.218-3.218,1,0,1,90,false,stim,false,1,699.7149999951944,0,1,0,20341,WMM2,764600,false,false,770,image-keyboard-response,55
true,5,0,3,2,false,d,false,false,0.0-2.0-0.24-0.219-3.219,1,1,0,81,true,stim,true,0,924.4099999777973,0,0,2,20341,WMM2,767029,false,false,773,image-keyboard-response,1
true,5,2,3,0,false,q,true,true,0.0-2.0-0.24-0.220-3.220,1,1,0,68,false,stim,false,0,975.8750000037253,0,1,1,20341,WMM2,769508,false,true,776,image-keyboard-response,2
true,5,2,3,0,false,q,true,true,0.0-2.0-0.24-0.221-3.221,1,1,0,68,false,stim,false,0,479.30500004440546,0,1,1,20341,WMM2,771492,false,true,779,image-keyboard-response,3
true,5,1,3,1,true,z,false,true,0.0-2.0-0.24-0.222-3.222,1,1,0,90,false,stim,false,1,705.2350000012666,0,1,0,20341,WMM2,773702,false,false,782,image-keyboard-response,4
true,5,2,3,1,false,z,true,false,0.0-2.0-0.24-0.223-3.223,1,1,0,68,false,stim,false,1,502.7400000253692,0,1,0,20341,WMM2,775709,false,false,785,image-keyboard-response,5
true,5,0,3,2,false,d,false,false,0.0-2.0-0.24-0.224-3.224,1,1,0,81,false,stim,true,0,859.7949999966659,0,0,2,20341,WMM2,778073,false,false,788,image-keyboard-response,6
true,5,0,3,2,false,d,false,false,0.0-2.0-0.25-0.225-3.225,1,1,0,81,false,stim,true,0,518.3449999894947,0,0,2,20341,WMM2,780096,false,false,791,image-keyboard-response,7
true,5,1,3,2,false,d,true,false,0.0-2.0-0.25-0.226-3.226,1,1,0,90,false,stim,false,0,744.2750000045635,0,0,2,20341,WMM2,782345,false,false,794,image-keyboard-response,8
true,5,2,3,0,false,q,true,false,0.0-2.0-0.25-0.227-3.227,1,1,0,68,false,stim,false,0,874.065000039991,0,1,1,20341,WMM2,784724,false,false,797,image-keyboard-response,9
true,5,2,3,2,true,d,false,true,0.0-2.0-0.25-0.228-3.228,1,1,0,68,false,stim,false,0,1559.4900000141934,0,0,2,20341,WMM2,787787,false,false,800,image-keyboard-response,10
true,5,1,3,1,true,z,false,true,0.0-2.0-0.25-0.229-3.229,1,1,0,90,false,stim,false,1,815.694999997504,0,1,0,20341,WMM2,790111,false,false,803,image-keyboard-response,11
true,5,0,3,0,true,q,false,true,0.0-2.0-0.25-0.230-3.230,1,1,0,81,false,stim,false,0,674.3699999642558,0,1,1,20341,WMM2,792289,false,false,806,image-keyboard-response,12
true,5,1,3,1,true,z,false,true,0.0-2.0-0.25-0.231-3.231,1,1,0,90,false,stim,false,1,703.1299999798648,0,1,0,20341,WMM2,794498,false,false,809,image-keyboard-response,13
true,5,1,3,1,true,z,false,true,0.0-2.0-0.25-0.232-3.232,1,1,0,90,false,stim,false,1,825.1049999962561,0,1,0,20341,WMM2,796829,false,false,812,image-keyboard-response,14
true,5,0,3,0,true,q,false,true,0.0-2.0-0.25-0.233-3.233,1,1,0,81,false,stim,false,0,2191.240000014659,0,1,1,20341,WMM2,800525,false,false,815,image-keyboard-response,15
true,5,0,3,0,true,q,false,true,0.0-2.0-0.26-0.234-3.234,1,1,0,81,false,stim,false,0,1145.250000001397,0,1,1,20341,WMM2,803174,false,false,818,image-keyboard-response,16
true,5,2,3,2,true,d,false,true,0.0-2.0-0.26-0.235-3.235,1,1,0,68,false,stim,false,0,699.4749999721535,0,0,2,20341,WMM2,805378,false,false,821,image-keyboard-response,17
true,5,1,3,1,true,z,false,false,0.0-2.0-0.26-0.236-3.236,1,1,0,90,false,stim,false,1,638.5550000122748,0,1,0,20341,WMM2,807522,false,true,824,image-keyboard-response,18
true,5,0,3,0,true,q,false,false,0.0-2.0-0.26-0.237-3.237,1,1,0,81,false,stim,false,0,1400.3849999862723,0,1,1,20341,WMM2,810427,false,true,827,image-keyboard-response,19
true,5,0,3,2,false,d,false,true,0.0-2.0-0.26-0.238-3.238,1,1,0,81,false,stim,true,0,2537.280000047758,0,0,2,20341,WMM2,814469,false,true,830,image-keyboard-response,20
true,5,0,3,2,false,d,false,false,0.0-2.0-0.26-0.239-3.239,1,1,0,81,false,stim,true,0,1844.730000011623,0,0,2,20341,WMM2,817820,false,false,833,image-keyboard-response,21
true,5,1,3,1,true,z,false,true,0.0-2.0-0.26-0.240-3.240,1,1,0,90,false,stim,false,1,1204.0250000427477,0,1,0,20341,WMM2,820530,false,false,836,image-keyboard-response,22
true,5,0,3,0,true,q,false,true,0.0-2.0-0.26-0.241-3.241,1,1,0,81,false,stim,false,0,1934.3400000361726,0,1,1,20341,WMM2,823970,false,false,839,image-keyboard-response,23
true,5,1,3,1,true,z,false,true,0.0-2.0-0.26-0.242-3.242,1,1,0,90,false,stim,false,1,1133.0849999794737,0,1,0,20341,WMM2,826609,false,false,842,image-keyboard-response,24
true,5,0,3,0,true,q,false,true,0.0-2.0-0.27-0.243-3.243,1,1,0,81,false,stim,false,0,2285.2249999996275,0,1,1,20341,WMM2,830400,false,false,845,image-keyboard-response,25
true,5,0,3,0,true,q,false,true,0.0-2.0-0.27-0.244-3.244,1,1,0,81,false,stim,false,0,1508.6299999966286,0,1,1,20341,WMM2,833415,false,false,848,image-keyboard-response,26
true,5,2,3,2,true,d,false,true,0.0-2.0-0.27-0.245-3.245,1,1,0,68,false,stim,false,0,2591.324999986682,0,0,2,20341,WMM2,837512,false,false,851,image-keyboard-response,27
true,5,0,3,0,true,q,false,true,0.0-2.0-0.27-0.246-3.246,1,1,0,81,false,stim,false,0,711.6549999918789,0,1,1,20341,WMM2,839729,false,false,854,image-keyboard-response,28
true,5,1,3,1,true,z,false,true,0.0-2.0-0.27-0.247-3.247,1,1,0,90,false,stim,false,1,1249.3600000161678,0,1,0,20341,WMM2,842484,false,false,857,image-keyboard-response,29
true,5,1,3,1,true,z,false,false,0.0-2.0-0.27-0.248-3.248,1,1,0,90,false,stim,false,1,1333.45500001451,0,1,0,20341,WMM2,845323,false,true,860,image-keyboard-response,30
true,5,2,3,2,true,d,false,true,0.0-2.0-0.27-0.249-3.249,1,1,0,68,false,stim,false,0,1454.5299999881536,0,0,2,20341,WMM2,848283,false,false,863,image-keyboard-response,31
true,5,1,3,1,true,z,false,true,0.0-2.0-0.27-0.250-3.250,1,1,0,90,false,stim,false,1,1630.8449999778531,0,0,0,20341,WMM2,851420,false,false,866,image-keyboard-response,32
true,5,2,3,2,true,d,false,true,0.0-2.0-0.27-0.251-3.251,1,1,0,68,false,stim,false,0,1389.870000013616,0,0,2,20341,WMM2,854315,false,false,869,image-keyboard-response,33
true,5,1,3,1,true,z,false,true,0.0-2.0-0.28-0.252-3.252,1,1,0,90,false,stim,false,1,1171.2100000004284,0,0,0,20341,WMM2,856991,false,false,872,image-keyboard-response,34
true,5,0,3,0,true,q,false,true,0.0-2.0-0.28-0.253-3.253,1,1,0,81,false,stim,false,0,1332.3549999622628,0,1,1,20341,WMM2,859828,false,false,875,image-keyboard-response,35
true,5,2,3,2,true,d,false,true,0.0-2.0-0.28-0.254-3.254,1,1,0,68,false,stim,false,0,1426.7799999797717,0,0,2,20341,WMM2,862758,false,false,878,image-keyboard-response,36
true,5,0,3,0,true,q,false,true,0.0-2.0-0.28-0.255-3.255,1,1,0,81,false,stim,false,0,1341.2299999617971,0,1,1,20341,WMM2,865604,false,false,881,image-keyboard-response,37
true,5,2,3,2,true,d,false,true,0.0-2.0-0.28-0.256-3.256,1,1,0,68,false,stim,false,0,704.2900000233203,0,0,2,20341,WMM2,867813,false,false,884,image-keyboard-response,38
true,5,1,3,1,true,z,false,true,0.0-2.0-0.28-0.257-3.257,1,1,0,90,false,stim,false,1,669.9599999701604,0,0,0,20341,WMM2,869988,false,false,887,image-keyboard-response,39
true,5,2,3,2,true,d,false,true,0.0-2.0-0.28-0.258-3.258,1,1,0,68,false,stim,false,0,1137.8899999544956,0,0,2,20341,WMM2,872630,false,false,890,image-keyboard-response,40
true,5,0,3,0,true,q,false,true,0.0-2.0-0.28-0.259-3.259,1,1,0,81,false,stim,false,0,1234.470000024885,0,1,1,20341,WMM2,875368,false,false,893,image-keyboard-response,41
true,6,1,1,0,false,q,false,false,0.0-2.0-0.28-0.260-3.260,0,1,0,90,true,stim,true,1,939.9100000155158,0,0,0,20341,WMM2,877813,false,false,896,image-keyboard-response,1
true,6,1,1,0,false,q,false,false,0.0-2.0-0.29-0.261-3.261,0,1,0,90,false,stim,true,1,593.9999999827705,0,0,0,20341,WMM2,879911,false,false,899,image-keyboard-response,2
true,6,0,1,0,true,q,false,true,0.0-2.0-0.29-0.262-3.262,0,1,0,81,false,stim,false,0,1347.925000009127,0,1,1,20341,WMM2,882767,false,false,902,image-keyboard-response,3
true,6,1,1,0,false,q,false,false,0.0-2.0-0.29-0.263-3.263,0,1,0,90,false,stim,true,1,1150.8199999807402,0,0,0,20341,WMM2,885422,false,false,905,image-keyboard-response,4
true,6,2,1,1,false,z,false,false,0.0-2.0-0.29-0.264-3.264,0,1,0,68,false,stim,true,2,1032.740000053309,0,0,2,20341,WMM2,887959,false,false,908,image-keyboard-response,5
true,6,0,1,0,true,q,false,true,0.0-2.0-0.29-0.265-3.265,0,1,0,81,false,stim,false,0,2075.970000005327,0,1,1,20341,WMM2,891539,false,false,911,image-keyboard-response,6
true,6,2,1,0,false,q,true,false,0.0-2.0-0.29-0.266-3.266,0,1,0,68,false,stim,false,1,830.385000037495,0,0,0,20341,WMM2,893874,false,false,914,image-keyboard-response,7
true,6,0,1,0,true,q,false,true,0.0-2.0-0.29-0.267-3.267,0,1,0,81,false,stim,false,0,1120.824999990873,0,1,1,20341,WMM2,896499,false,false,917,image-keyboard-response,8
true,6,1,1,1,true,z,false,true,0.0-2.0-0.29-0.268-3.268,0,1,0,90,false,stim,false,2,1351.985000015702,0,0,2,20341,WMM2,899356,false,false,920,image-keyboard-response,9
true,6,1,1,1,true,z,false,true,0.0-2.0-0.29-0.269-3.269,0,1,0,90,false,stim,false,2,885.0649999803863,0,0,2,20341,WMM2,901745,false,false,923,image-keyboard-response,10
true,6,1,1,1,true,z,false,true,0.0-2.0-0.30-0.270-3.270,0,1,0,90,false,stim,false,2,478.5249999840744,0,0,2,20341,WMM2,903729,false,false,926,image-keyboard-response,11
true,6,0,1,0,true,q,false,true,0.0-2.0-0.30-0.271-3.271,0,1,0,81,false,stim,false,0,1351.814999943599,0,1,1,20341,WMM2,906585,false,false,929,image-keyboard-response,12
true,6,0,1,0,true,q,false,true,0.0-2.0-0.30-0.272-3.272,0,1,0,81,false,stim,false,1,790.2799999574199,0,0,0,20341,WMM2,908879,false,false,932,image-keyboard-response,13
true,6,0,1,0,true,q,false,true,0.0-2.0-0.30-0.273-3.273,0,1,0,81,false,stim,false,0,1215.9400000236928,0,1,1,20341,WMM2,911600,false,false,935,image-keyboard-response,14
true,6,0,1,0,true,q,false,true,0.0-2.0-0.30-0.274-3.274,0,1,0,81,false,stim,false,0,1746.0350000183098,0,1,1,20341,WMM2,914851,false,false,938,image-keyboard-response,15
true,6,2,1,1,false,z,false,false,0.0-2.0-0.30-0.275-3.275,0,1,0,68,false,stim,true,2,2031.3700000406243,0,0,2,20341,WMM2,918388,false,false,941,image-keyboard-response,16
true,6,0,1,0,true,q,false,true,0.0-2.0-0.30-0.276-3.276,0,1,0,81,false,stim,false,1,1604.4199999887496,0,0,0,20341,WMM2,921498,false,false,944,image-keyboard-response,17
true,6,0,1,0,true,q,false,true,0.0-2.0-0.30-0.277-3.277,0,1,0,81,false,stim,false,1,926.8699999665841,0,0,0,20341,WMM2,923929,false,false,947,image-keyboard-response,18
true,6,2,1,1,false,z,false,true,0.0-2.0-0.30-0.278-3.278,0,1,0,68,false,stim,true,2,2682.0500000030734,0,0,2,20341,WMM2,928115,false,true,950,image-keyboard-response,19
true,6,1,1,0,false,q,true,false,0.0-2.0-0.31-0.279-3.279,0,1,0,90,false,stim,false,0,1516.4300000178628,0,1,1,20341,WMM2,931136,false,false,953,image-keyboard-response,20
true,6,0,1,0,true,q,false,true,0.0-2.0-0.31-0.280-3.280,0,1,0,81,false,stim,false,0,387.9099999903701,0,1,1,20341,WMM2,933029,false,false,956,image-keyboard-response,21
true,6,2,1,1,false,z,false,false,0.0-2.0-0.31-0.281-3.281,0,1,0,68,false,stim,true,2,2427.5950000155717,0,0,2,20341,WMM2,936962,false,false,959,image-keyboard-response,22
true,6,0,1,0,true,q,false,true,0.0-2.0-0.31-0.282-3.282,0,1,0,81,false,stim,false,1,1038.9950000098906,0,0,0,20341,WMM2,939507,false,false,962,image-keyboard-response,23
true,6,1,1,1,true,z,false,false,0.0-2.0-0.31-0.283-3.283,0,1,0,90,false,stim,false,2,2061.779999989085,0,0,2,20341,WMM2,943075,false,true,965,image-keyboard-response,24
true,6,0,1,0,true,q,false,true,0.0-2.0-0.31-0.284-3.284,0,1,0,81,false,stim,false,1,1023.3750000479631,0,0,0,20341,WMM2,945604,false,false,968,image-keyboard-response,25
true,6,2,1,1,false,z,false,false,0.0-2.0-0.31-0.285-3.285,0,1,0,68,false,stim,true,2,652.4349999963306,0,0,2,20341,WMM2,947762,false,false,971,image-keyboard-response,26
true,6,0,1,0,true,q,false,true,0.0-2.0-0.31-0.286-3.286,0,1,0,81,false,stim,false,1,667.6900000311434,0,0,0,20341,WMM2,949936,false,false,974,image-keyboard-response,27
true,6,0,1,0,true,q,false,true,0.0-2.0-0.31-0.287-3.287,0,1,0,81,false,stim,false,0,858.47500001546,0,1,1,20341,WMM2,952300,false,false,977,image-keyboard-response,28
true,6,0,1,0,true,q,false,true,0.0-2.0-0.32-0.288-3.288,0,1,0,81,false,stim,false,0,580.3150000283495,0,1,1,20341,WMM2,954385,false,false,980,image-keyboard-response,29
true,6,0,1,0,true,q,false,true,0.0-2.0-0.32-0.289-3.289,0,1,0,81,false,stim,false,1,791.0099999862723,0,0,0,20341,WMM2,956682,false,false,983,image-keyboard-response,30
true,6,0,1,0,true,q,false,true,0.0-2.0-0.32-0.290-3.290,0,1,0,81,false,stim,false,0,1123.684999998659,0,1,1,20341,WMM2,959312,false,false,986,image-keyboard-response,31
true,6,2,1,1,false,z,false,false,0.0-2.0-0.32-0.291-3.291,0,1,0,68,false,stim,true,2,943.6599999899045,0,0,2,20341,WMM2,961761,false,false,989,image-keyboard-response,32
true,6,0,1,0,true,q,false,true,0.0-2.0-0.32-0.292-3.292,0,1,0,81,false,stim,false,0,817.6199999870732,0,1,1,20341,WMM2,964084,false,false,992,image-keyboard-response,33
false,6,-1,1,1,false,z,true,false,0.0-2.0-0.32-0.293-3.293,0,1,0,,false,stim,false,2,,0,0,2,20341,WMM2,968591,false,false,995,image-keyboard-response,34
true,6,1,1,1,true,z,false,true,0.0-2.0-0.32-0.294-3.294,0,1,0,90,false,stim,false,2,1746.5899999951944,0,0,2,20341,WMM2,971844,false,false,998,image-keyboard-response,35
true,6,0,1,0,true,q,false,true,0.0-2.0-0.32-0.295-3.295,0,1,0,81,false,stim,false,1,854.2149999993853,0,0,0,20341,WMM2,974208,false,false,1001,image-keyboard-response,36
true,6,0,1,0,true,q,false,true,0.0-2.0-0.32-0.296-3.296,0,1,0,81,false,stim,false,1,1109.775000018999,0,0,0,20341,WMM2,976824,false,false,1004,image-keyboard-response,37
true,6,1,1,1,true,z,false,true,0.0-2.0-0.33-0.297-3.297,0,1,0,90,false,stim,false,2,1613.4600000223145,0,0,2,20341,WMM2,979943,false,false,1007,image-keyboard-response,38
true,6,1,1,1,true,z,false,true,0.0-2.0-0.33-0.298-3.298,0,1,0,90,false,stim,false,2,848.3600000035949,0,0,2,20341,WMM2,982297,false,false,1010,image-keyboard-response,39
true,6,0,1,0,true,q,false,true,0.0-2.0-0.33-0.299-3.299,0,1,0,81,false,stim,false,1,924.8249999945983,0,1,0,20341,WMM2,984727,false,false,1013,image-keyboard-response,40
true,6,0,1,0,true,q,false,true,0.0-2.0-0.33-0.300-3.300,0,1,0,81,false,stim,false,0,1251.140000007581,0,1,1,20341,WMM2,987482,false,false,1016,image-keyboard-response,41
true,6,1,1,1,true,z,false,false,0.0-2.0-0.33-0.301-3.301,0,1,0,90,false,stim,false,2,1110.0699999951757,0,0,2,20341,WMM2,990096,false,true,1019,image-keyboard-response,42
true,6,0,1,0,true,q,false,false,0.0-2.0-0.33-0.302-3.302,0,1,0,81,false,stim,false,0,919.5850000251085,0,1,1,20341,WMM2,992521,false,true,1022,image-keyboard-response,43
true,6,0,1,0,true,q,false,true,0.0-2.0-0.33-0.303-3.303,0,1,0,81,false,stim,false,1,1145.3300000284798,0,1,0,20341,WMM2,995171,false,false,1025,image-keyboard-response,44
true,6,0,1,0,true,q,false,true,0.0-2.0-0.33-0.304-3.304,0,1,0,81,false,stim,false,1,1194.3450000253506,0,1,0,20341,WMM2,997870,false,false,1028,image-keyboard-response,45
true,6,0,1,0,true,q,false,true,0.0-2.0-0.33-0.305-3.305,0,1,0,81,false,stim,false,0,1193.3050000225194,0,1,1,20341,WMM2,1000568,false,false,1031,image-keyboard-response,46
true,6,0,1,0,true,q,false,true,0.0-2.0-0.34-0.306-3.306,0,1,0,81,false,stim,false,1,1544.3549999617971,0,1,0,20341,WMM2,1003617,false,false,1034,image-keyboard-response,47
true,6,0,1,0,true,q,false,true,0.0-2.0-0.34-0.307-3.307,0,1,0,81,false,stim,false,0,2484.775000018999,0,1,1,20341,WMM2,1007607,false,false,1037,image-keyboard-response,48
true,7,1,2,2,false,d,false,false,0.0-2.0-0.34-0.308-3.308,1,1,0,90,true,stim,true,1,1204.584999999497,0,0,2,20341,WMM2,1010317,false,false,1040,image-keyboard-response,1
true,7,0,2,0,true,q,false,true,0.0-2.0-0.34-0.309-3.309,1,1,0,81,false,stim,false,0,988.5800000047311,0,1,0,20341,WMM2,1012809,false,false,1043,image-keyboard-response,2
true,7,0,2,0,true,q,false,true,0.0-2.0-0.34-0.310-3.310,1,1,0,81,false,stim,false,0,270.33500000834465,0,1,1,20341,WMM2,1014584,false,false,1046,image-keyboard-response,3
true,7,0,2,2,false,d,true,false,0.0-2.0-0.34-0.311-3.311,1,1,0,81,false,stim,false,1,356.40000004787,0,0,2,20341,WMM2,1016445,false,false,1049,image-keyboard-response,4
true,7,0,2,0,true,q,false,true,0.0-2.0-0.34-0.312-3.312,1,1,0,81,false,stim,false,0,454.120000009425,0,1,0,20341,WMM2,1018404,false,false,1052,image-keyboard-response,5
true,7,2,2,2,true,d,false,true,0.0-2.0-0.34-0.313-3.313,1,1,0,68,false,stim,false,1,1395.0749999494292,0,0,2,20341,WMM2,1021304,false,false,1055,image-keyboard-response,6
true,7,0,2,0,true,q,false,true,0.0-2.0-0.34-0.314-3.314,1,1,0,81,false,stim,false,0,810.2099999669008,0,1,1,20341,WMM2,1023618,false,false,1058,image-keyboard-response,7
true,7,2,2,2,true,d,false,true,0.0-2.0-0.35-0.315-3.315,1,1,0,68,false,stim,false,1,1490.029999986291,0,0,2,20341,WMM2,1026614,false,false,1061,image-keyboard-response,8
true,7,0,2,0,true,q,false,true,0.0-2.0-0.35-0.316-3.316,1,1,0,81,false,stim,false,0,708.8849999709055,0,1,0,20341,WMM2,1028827,false,false,1064,image-keyboard-response,9
true,7,0,2,0,true,q,false,true,0.0-2.0-0.35-0.317-3.317,1,1,0,81,false,stim,false,0,1290.355000004638,0,1,1,20341,WMM2,1031622,false,false,1067,image-keyboard-response,10
true,7,0,2,0,true,q,false,true,0.0-2.0-0.35-0.318-3.318,1,1,0,81,false,stim,false,0,713.3950000279583,0,1,1,20341,WMM2,1033840,false,false,1070,image-keyboard-response,11
true,7,2,2,2,true,d,false,true,0.0-2.0-0.35-0.319-3.319,1,1,0,68,false,stim,false,1,1425.13000004692,0,0,2,20341,WMM2,1036771,false,false,1073,image-keyboard-response,12
true,7,2,2,2,true,d,false,true,0.0-2.0-0.35-0.320-3.320,1,1,0,68,false,stim,false,1,829.2500000097789,0,0,2,20341,WMM2,1039107,false,false,1076,image-keyboard-response,13
true,7,0,2,0,true,q,false,true,0.0-2.0-0.35-0.321-3.321,1,1,0,81,false,stim,false,0,973.4949999838136,0,1,0,20341,WMM2,1041585,false,false,1079,image-keyboard-response,14
true,7,0,2,0,true,q,false,true,0.0-2.0-0.35-0.322-3.322,1,1,0,81,false,stim,false,0,1269.6950000245124,0,1,1,20341,WMM2,1044360,false,false,1082,image-keyboard-response,15
true,7,0,2,0,true,q,false,true,0.0-2.0-0.35-0.323-3.323,1,1,0,81,false,stim,false,0,755.9849999961443,0,1,0,20341,WMM2,1046620,false,false,1085,image-keyboard-response,16
true,7,2,2,2,true,d,false,true,0.0-2.0-0.36-0.324-3.324,1,1,0,68,false,stim,false,1,1051.9299999577925,0,0,2,20341,WMM2,1049176,false,false,1088,image-keyboard-response,17
true,7,0,2,0,true,q,false,true,0.0-2.0-0.36-0.325-3.325,1,1,0,81,false,stim,false,0,925.905000010971,0,1,1,20341,WMM2,1051606,false,false,1091,image-keyboard-response,18
true,7,0,2,0,true,q,false,true,0.0-2.0-0.36-0.326-3.326,1,1,0,81,false,stim,false,0,1305.4300000076182,0,1,0,20341,WMM2,1054416,false,false,1094,image-keyboard-response,19
true,7,0,2,0,true,q,false,true,0.0-2.0-0.36-0.327-3.327,1,1,0,81,false,stim,false,0,889.9100000271574,0,1,0,20341,WMM2,1056810,false,false,1097,image-keyboard-response,20
true,7,0,2,0,true,q,false,true,0.0-2.0-0.36-0.328-3.328,1,1,0,81,false,stim,false,0,1042.1100000385195,0,1,1,20341,WMM2,1059359,false,false,1100,image-keyboard-response,21
true,7,2,2,2,true,d,false,true,0.0-2.0-0.36-0.329-3.329,1,1,0,68,false,stim,false,1,1055.255000013858,0,0,2,20341,WMM2,1061922,false,false,1103,image-keyboard-response,22
true,7,0,2,0,true,q,false,false,0.0-2.0-0.36-0.330-3.330,1,1,0,81,false,stim,false,0,1294.1050000372343,0,1,0,20341,WMM2,1064721,false,true,1106,image-keyboard-response,23
true,7,2,2,2,true,d,false,false,0.0-2.0-0.36-0.331-3.331,1,1,0,68,false,stim,false,1,968.6150000197813,0,0,2,20341,WMM2,1067194,false,true,1109,image-keyboard-response,24
true,7,0,2,0,true,q,false,true,0.0-2.0-0.36-0.332-3.332,1,1,0,81,false,stim,false,0,889.2950000008568,0,1,1,20341,WMM2,1069588,false,false,1112,image-keyboard-response,25
true,7,0,2,0,true,q,false,true,0.0-2.0-0.37-0.333-3.333,1,1,0,81,false,stim,false,0,1099.1700000013225,0,1,1,20341,WMM2,1072192,false,false,1115,image-keyboard-response,26
true,7,0,2,0,true,q,false,false,0.0-2.0-0.37-0.334-3.334,1,1,0,81,false,stim,false,0,939.2600000137463,0,1,1,20341,WMM2,1074636,false,true,1118,image-keyboard-response,27
true,7,0,2,0,true,q,false,false,0.0-2.0-0.37-0.335-3.335,1,1,0,81,false,stim,false,0,1364.4449999555945,0,1,1,20341,WMM2,1077506,false,true,1121,image-keyboard-response,28
true,7,2,2,2,true,d,false,true,0.0-2.0-0.37-0.336-3.336,1,1,0,68,false,stim,false,1,864.8399999947287,0,0,2,20341,WMM2,1079875,false,false,1124,image-keyboard-response,29
true,7,0,2,0,true,q,false,true,0.0-2.0-0.37-0.337-3.337,1,1,0,81,false,stim,false,0,835.6399999465793,0,1,0,20341,WMM2,1082215,false,false,1127,image-keyboard-response,30
true,8,0,4,0,true,q,false,true,0.0-2.0-0.37-0.338-3.338,1,1,0,81,true,stim,false,0,386.31999999051914,0,1,0,20341,WMM2,1084106,false,false,1130,image-keyboard-response,1
true,8,0,4,0,true,q,false,true,0.0-2.0-0.37-0.339-3.339,1,1,0,81,false,stim,false,0,862.9749999963678,0,1,0,20341,WMM2,1086473,false,false,1133,image-keyboard-response,2
true,8,2,4,2,true,d,false,true,0.0-2.0-0.37-0.340-3.340,1,1,0,68,false,stim,false,2,970.2099999994971,0,0,2,20341,WMM2,1088949,false,false,1136,image-keyboard-response,3
true,8,2,4,2,true,d,false,true,0.0-2.0-0.37-0.341-3.341,1,1,0,68,false,stim,false,2,1140.3100000461563,0,0,2,20341,WMM2,1091594,false,false,1139,image-keyboard-response,4
true,8,0,4,0,true,q,false,false,0.0-2.0-0.38-0.342-3.342,1,1,0,81,false,stim,false,0,1560.0499999709427,0,1,0,20341,WMM2,1094660,false,true,1142,image-keyboard-response,5
true,8,2,4,2,true,d,false,true,0.0-2.0-0.38-0.343-3.343,1,1,0,68,false,stim,false,2,636.144999996759,0,0,2,20341,WMM2,1096800,false,false,1145,image-keyboard-response,6
true,8,2,4,2,true,d,false,true,0.0-2.0-0.38-0.344-3.344,1,1,0,68,false,stim,false,2,589.4800000241958,0,0,2,20341,WMM2,1098896,false,false,1148,image-keyboard-response,7
true,8,0,4,0,true,q,false,true,0.0-2.0-0.38-0.345-3.345,1,1,0,81,false,stim,false,0,863.6800000094809,0,1,0,20341,WMM2,1101265,false,false,1151,image-keyboard-response,8
true,8,2,4,2,true,d,false,true,0.0-2.0-0.38-0.346-3.346,1,1,0,68,false,stim,false,2,820.1700000208803,0,0,2,20341,WMM2,1103589,false,false,1154,image-keyboard-response,9
true,8,0,4,0,true,q,false,true,0.0-2.0-0.38-0.347-3.347,1,1,0,81,false,stim,false,0,1354.7250000410713,0,1,0,20341,WMM2,1106450,false,false,1157,image-keyboard-response,10
true,8,0,4,0,true,q,false,true,0.0-2.0-0.38-0.348-3.348,1,1,0,81,false,stim,false,0,1633.6250000167638,0,1,1,20341,WMM2,1109588,false,false,1160,image-keyboard-response,11
true,8,0,4,0,true,q,false,true,0.0-2.0-0.38-0.349-3.349,1,1,0,81,false,stim,false,0,1092.6750000216998,0,1,1,20341,WMM2,1112186,false,false,1163,image-keyboard-response,12
true,8,0,4,0,true,q,false,true,0.0-2.0-0.38-0.350-3.350,1,1,0,81,false,stim,false,0,593.155000009574,0,1,1,20341,WMM2,1114284,false,false,1166,image-keyboard-response,13
true,8,2,4,2,true,d,false,true,0.0-2.0-0.39-0.351-3.351,1,1,0,68,false,stim,false,2,977.9800000251271,0,0,2,20341,WMM2,1116768,false,false,1169,image-keyboard-response,14
true,8,2,4,0,false,q,true,false,0.0-2.0-0.39-0.352-3.352,1,1,0,68,false,stim,false,0,1625.8600000292063,0,1,1,20341,WMM2,1119898,false,false,1172,image-keyboard-response,15
true,8,0,4,0,true,q,false,true,0.0-2.0-0.39-0.353-3.353,1,1,0,81,false,stim,false,0,623.9449999993667,0,1,0,20341,WMM2,1122026,false,false,1175,image-keyboard-response,16
true,8,2,4,2,true,d,false,true,0.0-2.0-0.39-0.354-3.354,1,1,0,68,false,stim,false,2,669.0700000035577,0,0,2,20341,WMM2,1124200,false,false,1178,image-keyboard-response,17
true,8,0,4,0,true,q,false,false,0.0-2.0-0.39-0.355-3.355,1,1,0,81,false,stim,false,0,1014.4800000125542,0,1,1,20341,WMM2,1126719,false,true,1181,image-keyboard-response,18
true,8,0,4,0,true,q,false,true,0.0-2.0-0.39-0.356-3.356,1,1,0,81,false,stim,false,0,669.9549999902956,0,1,0,20341,WMM2,1128893,false,false,1184,image-keyboard-response,19
true,8,0,4,0,true,q,false,true,0.0-2.0-0.39-0.357-3.357,1,1,0,81,false,stim,false,0,749.5249999919906,0,1,0,20341,WMM2,1131147,false,false,1187,image-keyboard-response,20
true,8,0,4,0,true,q,false,true,0.0-2.0-0.39-0.358-3.358,1,1,0,81,false,stim,false,0,657.2000000160187,0,1,1,20341,WMM2,1133310,false,false,1190,image-keyboard-response,21
true,8,2,4,2,true,d,false,true,0.0-2.0-0.39-0.359-3.359,1,1,0,68,false,stim,false,2,798.1049999943934,0,1,2,20341,WMM2,1135614,false,false,1193,image-keyboard-response,22
true,8,0,4,0,true,q,false,false,0.0-2.0-0.40-0.360-3.360,1,1,0,81,false,stim,false,0,718.1049999780953,0,0,1,20341,WMM2,1137838,false,true,1196,image-keyboard-response,23
true,8,0,4,0,true,q,false,true,0.0-2.0-0.40-0.361-3.361,1,1,0,81,false,stim,false,0,1313.7699999497272,0,0,1,20341,WMM2,1140656,false,false,1199,image-keyboard-response,24
true,8,2,4,2,true,d,false,true,0.0-2.0-0.40-0.362-3.362,1,1,0,68,false,stim,false,2,1095.5900000408292,0,1,2,20341,WMM2,1143260,false,false,1202,image-keyboard-response,25
true,8,2,4,2,true,d,false,false,0.0-2.0-0.40-0.363-3.363,1,1,0,68,false,stim,false,2,591.6449999785982,0,1,2,20341,WMM2,1145357,false,true,1205,image-keyboard-response,26
true,8,0,4,0,true,q,false,false,0.0-2.0-0.40-0.364-3.364,1,1,0,81,false,stim,false,0,2200.5300000309944,0,1,0,20341,WMM2,1149062,false,true,1208,image-keyboard-response,27
true,8,2,4,2,true,d,false,true,0.0-2.0-0.40-0.365-3.365,1,1,0,68,false,stim,false,2,602.8999999980442,0,1,2,20341,WMM2,1151170,false,false,1211,image-keyboard-response,28
true,8,0,4,0,true,q,false,true,0.0-2.0-0.40-0.366-3.366,1,1,0,81,false,stim,false,0,728.6800000001676,0,1,0,20341,WMM2,1153404,false,false,1214,image-keyboard-response,29
true,8,0,4,0,true,q,false,true,0.0-2.0-0.40-0.367-3.367,1,1,0,81,false,stim,false,0,1324.300000036601,0,1,0,20341,WMM2,1156232,false,false,1217,image-keyboard-response,30
true,8,1,4,0,false,q,true,false,0.0-2.0-0.40-0.368-3.368,1,1,0,90,false,stim,false,0,2105.094999948051,0,0,1,20341,WMM2,1159844,false,false,1220,image-keyboard-response,31
true,9,2,3,2,true,d,false,true,0.0-2.0-0.41-0.369-3.369,1,0,1,68,true,stim,false,2,684.3550000339746,0,1,2,20341,WMM2,1162033,false,false,1223,image-keyboard-response,1
true,9,0,3,2,false,d,false,false,0.0-2.0-0.41-0.370-3.370,1,0,1,81,false,stim,true,0,1302.8800000320189,0,0,1,20341,WMM2,1164840,false,false,1226,image-keyboard-response,2
true,9,2,3,2,true,d,false,false,0.0-2.0-0.41-0.371-3.371,1,0,1,68,false,stim,false,2,598.3000000123866,0,1,2,20341,WMM2,1166944,false,true,1229,image-keyboard-response,3
true,9,2,3,2,true,d,false,false,0.0-2.0-0.41-0.372-3.372,1,0,1,68,false,stim,false,0,558.4399999934249,0,0,1,20341,WMM2,1169007,false,true,1232,image-keyboard-response,4
true,9,0,3,0,true,q,false,false,0.0-2.0-0.41-0.373-3.373,1,0,1,81,false,stim,false,0,935.6499999994412,0,1,0,20341,WMM2,1171447,false,true,1235,image-keyboard-response,5
true,9,0,3,0,true,q,false,true,0.0-2.0-0.41-0.374-3.374,1,0,1,81,false,stim,false,0,591.8499999679625,0,1,0,20341,WMM2,1173544,false,false,1238,image-keyboard-response,6
true,9,2,3,2,true,d,false,true,0.0-2.0-0.41-0.375-3.375,1,0,1,68,false,stim,false,0,1484.5600000116974,0,0,1,20341,WMM2,1176533,false,false,1241,image-keyboard-response,7
true,9,2,3,2,true,d,false,true,0.0-2.0-0.41-0.376-3.376,1,0,1,68,false,stim,false,2,1109.5749999512918,0,1,2,20341,WMM2,1179148,false,false,1244,image-keyboard-response,8
true,9,0,3,0,true,q,false,true,0.0-2.0-0.41-0.377-3.377,1,0,1,81,false,stim,false,0,693.8899999950081,0,1,0,20341,WMM2,1181346,false,false,1247,image-keyboard-response,9
true,9,2,3,2,true,d,false,false,0.0-2.0-0.42-0.378-3.378,1,0,1,68,false,stim,false,2,734.3550000223331,0,1,2,20341,WMM2,1183585,false,true,1250,image-keyboard-response,10
true,9,2,3,2,true,d,false,false,0.0-2.0-0.42-0.379-3.379,1,0,1,68,false,stim,false,0,432.7049999847077,0,0,1,20341,WMM2,1185522,false,true,1253,image-keyboard-response,11
true,9,1,3,2,false,d,true,false,0.0-2.0-0.42-0.380-3.380,1,0,1,90,false,stim,false,0,1604.9600000260398,0,0,1,20341,WMM2,1188632,false,false,1256,image-keyboard-response,12
true,9,2,3,2,true,d,false,true,0.0-2.0-0.42-0.381-3.381,1,0,1,68,false,stim,false,2,928.989999985788,0,1,2,20341,WMM2,1191065,false,false,1259,image-keyboard-response,13
true,9,2,3,2,true,d,false,true,0.0-2.0-0.42-0.382-3.382,1,0,1,68,false,stim,false,0,676.8000000156462,0,0,1,20341,WMM2,1193248,false,false,1262,image-keyboard-response,14
true,9,0,3,0,true,q,false,false,0.0-2.0-0.42-0.383-3.383,1,0,1,81,false,stim,false,0,638.245000038296,0,1,0,20341,WMM2,1195391,false,true,1265,image-keyboard-response,15
true,9,2,3,2,true,d,false,true,0.0-2.0-0.42-0.384-3.384,1,0,1,68,false,stim,false,2,824.0300000179559,0,1,2,20341,WMM2,1197720,false,false,1268,image-keyboard-response,16
true,9,0,3,0,true,q,false,true,0.0-2.0-0.42-0.385-3.385,1,0,1,81,false,stim,false,0,2150.2800000016578,0,1,0,20341,WMM2,1201375,false,false,1271,image-keyboard-response,17
true,9,0,3,0,true,q,false,true,0.0-2.0-0.42-0.386-3.386,1,0,1,81,false,stim,false,0,1219.405000039842,0,1,0,20341,WMM2,1204100,false,false,1274,image-keyboard-response,18
true,9,2,3,2,true,d,false,false,0.0-2.0-0.43-0.387-3.387,1,0,1,68,false,stim,false,2,743.7499999650754,0,1,2,20341,WMM2,1206348,false,true,1277,image-keyboard-response,19
true,9,0,3,0,true,q,false,true,0.0-2.0-0.43-0.388-3.388,1,0,1,81,false,stim,false,0,928.2399999792688,0,1,0,20341,WMM2,1208781,false,false,1280,image-keyboard-response,20
true,9,0,3,0,true,q,false,false,0.0-2.0-0.43-0.389-3.389,1,0,1,81,false,stim,false,0,642.1700000064448,0,1,0,20341,WMM2,1210929,false,true,1283,image-keyboard-response,21
true,9,0,3,2,false,d,false,false,0.0-2.0-0.43-0.390-3.390,1,0,1,81,false,stim,true,0,761.9899999699555,0,0,1,20341,WMM2,1213198,false,false,1286,image-keyboard-response,22
true,9,2,3,2,true,d,false,true,0.0-2.0-0.43-0.391-3.391,1,0,1,68,false,stim,false,0,1859.360000002198,0,0,1,20341,WMM2,1216564,false,false,1289,image-keyboard-response,23
true,9,2,3,2,true,d,false,true,0.0-2.0-0.43-0.392-3.392,1,0,1,68,false,stim,false,2,597.1750000026077,0,1,2,20341,WMM2,1218667,false,false,1292,image-keyboard-response,24
true,9,0,3,0,true,q,false,true,0.0-2.0-0.43-0.393-3.393,1,0,1,81,false,stim,false,0,1412.555000046268,0,1,0,20341,WMM2,1221588,false,false,1295,image-keyboard-response,25
true,9,2,3,2,true,d,false,true,0.0-2.0-0.43-0.394-3.394,1,0,1,68,false,stim,false,0,977.1849999669939,0,0,1,20341,WMM2,1224072,false,false,1298,image-keyboard-response,26
true,9,2,3,2,true,d,false,true,0.0-2.0-0.43-0.395-3.395,1,0,1,68,false,stim,false,2,814.2900000093505,0,1,2,20341,WMM2,1226400,false,false,1301,image-keyboard-response,27
true,9,0,3,0,true,q,false,true,0.0-2.0-0.44-0.396-3.396,1,0,1,81,false,stim,false,0,908.5300000151619,0,0,0,20341,WMM2,1228814,false,false,1304,image-keyboard-response,28
true,9,2,3,2,true,d,false,true,0.0-2.0-0.44-0.397-3.397,1,0,1,68,false,stim,false,0,868.6949999537319,0,0,1,20341,WMM2,1231187,false,false,1307,image-keyboard-response,29
true,9,0,3,0,true,q,false,false,0.0-2.0-0.44-0.398-3.398,1,0,1,81,false,stim,false,0,553.150000050664,0,0,0,20341,WMM2,1233245,false,true,1310,image-keyboard-response,30
true,9,2,3,2,true,d,false,true,0.0-2.0-0.44-0.399-3.399,1,0,1,68,false,stim,false,2,533.1049999804236,0,1,2,20341,WMM2,1235283,false,false,1313,image-keyboard-response,31
true,9,2,3,2,true,d,false,true,0.0-2.0-0.44-0.400-3.400,1,0,1,68,false,stim,false,0,407.72000001743436,0,0,1,20341,WMM2,1237196,false,false,1316,image-keyboard-response,32
true,9,2,3,2,true,d,false,true,0.0-2.0-0.44-0.401-3.401,1,0,1,68,false,stim,false,2,358.87500003445894,0,1,2,20341,WMM2,1239059,false,false,1319,image-keyboard-response,33
true,9,2,3,2,true,d,false,true,0.0-2.0-0.44-0.402-3.402,1,0,1,68,false,stim,false,2,613.6749999714084,0,1,2,20341,WMM2,1241177,false,false,1322,image-keyboard-response,34
true,9,2,3,2,true,d,false,true,0.0-2.0-0.44-0.403-3.403,1,0,1,68,false,stim,false,0,697.9450000217184,0,0,1,20341,WMM2,1243379,false,false,1325,image-keyboard-response,35
true,9,0,3,0,true,q,false,true,0.0-2.0-0.44-0.404-3.404,1,0,1,81,false,stim,false,0,1724.35500001302,0,0,0,20341,WMM2,1246608,false,false,1328,image-keyboard-response,36
true,10,0,1,2,false,d,false,false,0.0-2.0-0.45-0.405-3.405,0,0,1,81,true,stim,true,0,853.7299999734387,0,0,0,20341,WMM2,1248967,false,false,1331,image-keyboard-response,1
true,10,2,1,0,false,q,false,false,0.0-2.0-0.45-0.406-3.406,0,0,1,68,false,stim,true,2,1604.8350000055507,0,0,1,20341,WMM2,1252077,false,false,1334,image-keyboard-response,2
true,10,2,1,2,true,d,false,true,0.0-2.0-0.45-0.407-3.407,0,0,1,68,false,stim,false,2,1224.0250000031665,0,1,2,20341,WMM2,1254806,false,false,1337,image-keyboard-response,3
true,10,2,1,0,false,q,false,false,0.0-2.0-0.45-0.408-3.408,0,0,1,68,false,stim,true,2,1254.784999997355,0,0,1,20341,WMM2,1257565,false,false,1340,image-keyboard-response,4
true,10,1,1,2,false,d,true,false,0.0-2.0-0.45-0.409-3.409,0,0,1,90,false,stim,false,0,2130.669999984093,0,0,0,20341,WMM2,1261201,false,false,1343,image-keyboard-response,5
true,10,2,1,2,true,d,false,true,0.0-2.0-0.45-0.410-3.410,0,0,1,68,false,stim,false,2,648.5600000014529,0,1,2,20341,WMM2,1263354,false,false,1346,image-keyboard-response,6
true,10,2,1,2,true,d,false,false,0.0-2.0-0.45-0.411-3.411,0,0,1,68,false,stim,false,2,388.0300000309944,0,1,2,20341,WMM2,1265247,false,true,1349,image-keyboard-response,7
true,10,0,1,2,false,d,false,false,0.0-2.0-0.45-0.412-3.412,0,0,1,81,false,stim,true,0,758.4800000186078,0,0,0,20341,WMM2,1267510,false,false,1352,image-keyboard-response,8
true,10,2,1,0,false,q,false,false,0.0-2.0-0.45-0.413-3.413,0,0,1,68,false,stim,true,2,538.4850000264123,0,0,1,20341,WMM2,1269554,false,false,1355,image-keyboard-response,9
true,10,2,1,2,true,d,false,true,0.0-2.0-0.46-0.414-3.414,0,0,1,68,false,stim,false,2,1104.1100000147708,0,1,2,20341,WMM2,1272162,false,false,1358,image-keyboard-response,10
true,10,0,1,2,false,d,false,false,0.0-2.0-0.46-0.415-3.415,0,0,1,81,false,stim,true,0,793.610000051558,0,0,0,20341,WMM2,1274461,false,false,1361,image-keyboard-response,11
true,10,2,1,2,true,d,false,true,0.0-2.0-0.46-0.416-3.416,0,0,1,68,false,stim,false,2,628.7500000325963,0,1,2,20341,WMM2,1276594,false,false,1364,image-keyboard-response,12
true,10,2,1,2,true,d,false,true,0.0-2.0-0.46-0.417-3.417,0,0,1,68,false,stim,false,2,1469.5550000178628,0,1,2,20341,WMM2,1279568,false,false,1367,image-keyboard-response,13
true,10,0,1,2,false,d,false,false,0.0-2.0-0.46-0.418-3.418,0,0,1,81,false,stim,true,0,1419.225000019651,0,0,0,20341,WMM2,1282493,false,false,1370,image-keyboard-response,14
true,10,2,1,0,false,q,false,false,0.0-2.0-0.46-0.419-3.419,0,0,1,68,false,stim,true,2,628.580000018701,0,0,1,20341,WMM2,1284627,false,false,1373,image-keyboard-response,15
true,10,2,1,2,true,d,false,true,0.0-2.0-0.46-0.420-3.420,0,0,1,68,false,stim,false,0,469.7300000116229,0,0,0,20341,WMM2,1286601,false,false,1376,image-keyboard-response,16
true,10,2,1,0,false,q,false,false,0.0-2.0-0.46-0.421-3.421,0,0,1,68,false,stim,true,2,804.6300000278279,0,0,1,20341,WMM2,1288911,false,false,1379,image-keyboard-response,17
true,10,2,1,0,false,q,false,false,0.0-2.0-0.46-0.422-3.422,0,0,1,68,false,stim,true,2,1655.7250000187196,0,0,1,20341,WMM2,1292071,false,false,1382,image-keyboard-response,18
true,10,2,1,2,true,d,false,true,0.0-2.0-0.47-0.423-3.423,0,0,1,68,false,stim,false,2,768.4749999898486,0,1,2,20341,WMM2,1294345,false,false,1385,image-keyboard-response,19
true,10,1,1,2,false,d,true,false,0.0-2.0-0.47-0.424-3.424,0,0,1,90,false,stim,false,0,1796.3749999762513,0,0,0,20341,WMM2,1297646,false,false,1388,image-keyboard-response,20
true,10,2,1,2,true,d,false,true,0.0-2.0-0.47-0.425-3.425,0,0,1,68,false,stim,false,0,395.78000002074987,0,0,0,20341,WMM2,1299548,false,false,1391,image-keyboard-response,21
true,10,2,1,0,false,q,false,false,0.0-2.0-0.47-0.426-3.426,0,0,1,68,false,stim,true,2,482.9950000275858,0,0,1,20341,WMM2,1301537,false,false,1394,image-keyboard-response,22
true,10,2,1,2,true,d,false,false,0.0-2.0-0.47-0.427-3.427,0,0,1,68,false,stim,false,0,642.7100000437349,0,0,0,20341,WMM2,1303687,false,true,1397,image-keyboard-response,23
true,10,2,1,2,true,d,false,true,0.0-2.0-0.47-0.428-3.428,0,0,1,68,false,stim,false,2,687.9649999900721,0,1,2,20341,WMM2,1305881,false,false,1400,image-keyboard-response,24
true,10,2,1,2,true,d,false,true,0.0-2.0-0.47-0.429-3.429,0,0,1,68,false,stim,false,2,826.8499999539927,0,1,2,20341,WMM2,1308219,false,false,1403,image-keyboard-response,25
true,10,2,1,0,false,q,false,false,0.0-2.0-0.47-0.430-3.430,0,0,1,68,false,stim,true,2,421.3549999985844,0,0,1,20341,WMM2,1310147,false,false,1406,image-keyboard-response,26
true,10,0,1,0,true,q,false,true,0.0-2.0-0.47-0.431-3.431,0,0,1,81,false,stim,false,2,813.6149999918416,0,0,1,20341,WMM2,1312468,false,false,1409,image-keyboard-response,27
true,10,2,1,2,true,d,false,true,0.0-2.0-0.48-0.432-3.432,0,0,1,68,false,stim,false,0,1733.0999999539927,0,0,0,20341,WMM2,1315708,false,false,1412,image-keyboard-response,28
true,10,2,1,2,true,d,false,true,0.0-2.0-0.48-0.433-3.433,0,0,1,68,false,stim,false,2,1614.0249999589287,0,1,2,20341,WMM2,1318828,false,false,1415,image-keyboard-response,29
true,10,2,1,2,true,d,false,true,0.0-2.0-0.48-0.434-3.434,0,0,1,68,false,stim,false,2,1043.9550000010058,0,1,2,20341,WMM2,1321378,false,false,1418,image-keyboard-response,30
true,10,2,1,2,true,d,false,true,0.0-2.0-0.48-0.435-3.435,0,0,1,68,false,stim,false,0,557.3899999726564,0,0,0,20341,WMM2,1323442,false,false,1421,image-keyboard-response,31
true,10,2,1,2,true,d,false,true,0.0-2.0-0.48-0.436-3.436,0,0,1,68,false,stim,false,0,462.1649999753572,0,0,0,20341,WMM2,1325410,false,false,1424,image-keyboard-response,32
true,10,2,1,2,true,d,false,true,0.0-2.0-0.48-0.437-3.437,0,0,1,68,false,stim,false,2,612.859999993816,0,1,2,20341,WMM2,1327529,false,false,1427,image-keyboard-response,33
true,10,2,1,0,false,q,false,false,0.0-2.0-0.48-0.438-3.438,0,0,1,68,false,stim,true,2,982.8400000114925,0,0,1,20341,WMM2,1330019,false,false,1430,image-keyboard-response,34
true,10,0,1,0,true,q,false,false,0.0-2.0-0.48-0.439-3.439,0,0,1,81,false,stim,false,2,367.0200000051409,0,0,1,20341,WMM2,1331892,false,true,1433,image-keyboard-response,35
true,10,0,1,0,true,q,false,true,0.0-2.0-0.48-0.440-3.440,0,0,1,81,false,stim,false,2,447.22000003093854,0,0,1,20341,WMM2,1333845,false,false,1436,image-keyboard-response,36
true,10,2,1,2,true,d,false,true,0.0-2.0-0.49-0.441-3.441,0,0,1,68,false,stim,false,2,605.3800000227056,0,1,2,20341,WMM2,1335958,false,false,1439,image-keyboard-response,37
true,10,0,1,0,true,q,false,true,0.0-2.0-0.49-0.442-3.442,0,0,1,81,false,stim,false,2,408.40999997453764,0,0,1,20341,WMM2,1337871,false,false,1442,image-keyboard-response,38
true,10,2,1,2,true,d,false,true,0.0-2.0-0.49-0.443-3.443,0,0,1,68,false,stim,false,2,622.8299999493174,0,1,2,20341,WMM2,1339999,false,false,1445,image-keyboard-response,39
true,10,2,1,2,true,d,false,true,0.0-2.0-0.49-0.444-3.444,0,0,1,68,false,stim,false,2,523.540000023786,0,1,2,20341,WMM2,1342028,false,false,1448,image-keyboard-response,40
true,10,2,1,2,true,d,false,true,0.0-2.0-0.49-0.445-3.445,0,0,1,68,false,stim,false,0,1332.5349999940954,0,1,0,20341,WMM2,1344866,false,false,1451,image-keyboard-response,41
true,10,0,1,0,true,q,false,true,0.0-2.0-0.49-0.446-3.446,0,0,1,81,false,stim,false,2,1549.6649999986403,0,0,1,20341,WMM2,1347920,false,false,1454,image-keyboard-response,42
false,10,-1,1,2,false,d,true,false,0.0-2.0-0.49-0.447-3.447,0,0,1,,false,stim,false,0,,0,1,0,20341,WMM2,1352426,false,false,1457,image-keyboard-response,43
true,10,2,1,2,true,d,false,false,0.0-2.0-0.49-0.448-3.448,0,0,1,68,false,stim,false,0,1615.51499995403,0,1,0,20341,WMM2,1355546,false,true,1460,image-keyboard-response,44
true,10,0,1,0,true,q,false,true,0.0-2.0-0.49-0.449-3.449,0,0,1,81,false,stim,false,2,1064.2149999621324,0,0,1,20341,WMM2,1358116,false,false,1463,image-keyboard-response,45
true,10,0,1,0,true,q,false,true,0.0-2.0-0.50-0.450-3.450,0,0,1,81,false,stim,false,2,649.8199999914505,0,0,1,20341,WMM2,1360271,false,false,1466,image-keyboard-response,46
true,11,2,4,2,true,d,false,true,0.0-2.0-0.50-0.451-3.451,1,0,1,68,true,stim,false,2,855.2049999707378,0,1,2,20341,WMM2,1362630,false,false,1469,image-keyboard-response,1
true,11,1,4,2,false,d,true,false,0.0-2.0-0.50-0.452-3.452,1,0,1,90,false,stim,false,2,372.25000001490116,0,1,0,20341,WMM2,1364508,false,false,1472,image-keyboard-response,2
true,11,0,4,0,true,q,false,true,0.0-2.0-0.50-0.453-3.453,1,0,1,81,false,stim,false,0,1610.3950000251643,0,0,1,20341,WMM2,1367623,false,false,1475,image-keyboard-response,3
true,11,0,4,2,false,d,true,false,0.0-2.0-0.50-0.454-3.454,1,0,1,81,false,stim,false,2,668.9049999695271,0,1,0,20341,WMM2,1369797,false,false,1478,image-keyboard-response,4
true,11,2,4,2,true,d,false,true,0.0-2.0-0.50-0.455-3.455,1,0,1,68,false,stim,false,2,924.4999999646097,0,1,2,20341,WMM2,1372227,false,false,1481,image-keyboard-response,5
true,11,0,4,0,true,q,false,true,0.0-2.0-0.50-0.456-3.456,1,0,1,81,false,stim,false,0,732.979999971576,0,0,1,20341,WMM2,1374465,false,false,1484,image-keyboard-response,6
true,11,2,4,2,true,d,false,true,0.0-2.0-0.50-0.457-3.457,1,0,1,68,false,stim,false,2,835.4749999707565,0,1,2,20341,WMM2,1376805,false,false,1487,image-keyboard-response,7
true,11,0,4,2,false,d,true,false,0.0-2.0-0.50-0.458-3.458,1,0,1,81,false,stim,false,2,2551.6200000420213,0,1,0,20341,WMM2,1380862,false,false,1490,image-keyboard-response,8
true,11,2,4,2,true,d,false,true,0.0-2.0-0.51-0.459-3.459,1,0,1,68,false,stim,false,2,1590.7200000365265,0,1,0,20341,WMM2,1383959,false,false,1493,image-keyboard-response,9
true,11,2,4,2,true,d,false,true,0.0-2.0-0.51-0.460-3.460,1,0,1,68,false,stim,false,2,793.9550000010058,0,1,2,20341,WMM2,1386258,false,false,1496,image-keyboard-response,10
true,11,2,4,2,true,d,false,true,0.0-2.0-0.51-0.461-3.461,1,0,1,68,false,stim,false,2,1145.325000048615,0,1,0,20341,WMM2,1388908,false,false,1499,image-keyboard-response,11
true,11,0,4,0,true,q,false,true,0.0-2.0-0.51-0.462-3.462,1,0,1,81,false,stim,false,0,1088.8500000000931,0,0,1,20341,WMM2,1391508,false,false,1502,image-keyboard-response,12
true,11,2,4,2,true,d,false,true,0.0-2.0-0.51-0.463-3.463,1,0,1,68,false,stim,false,2,1375.5299999611452,0,1,0,20341,WMM2,1394389,false,false,1505,image-keyboard-response,13
true,11,0,4,0,true,q,false,true,0.0-2.0-0.51-0.464-3.464,1,0,1,81,false,stim,false,0,1251.3899999903515,0,0,1,20341,WMM2,1397145,false,false,1508,image-keyboard-response,14
true,11,2,4,2,true,d,false,true,0.0-2.0-0.51-0.465-3.465,1,0,1,68,false,stim,false,2,813.9899999951012,0,1,2,20341,WMM2,1399464,false,false,1511,image-keyboard-response,15
true,11,0,4,0,true,q,false,false,0.0-2.0-0.51-0.466-3.466,1,0,1,81,false,stim,false,0,2125.7650000043213,0,0,1,20341,WMM2,1403097,false,true,1514,image-keyboard-response,16
true,11,2,4,2,true,d,false,true,0.0-2.0-0.51-0.467-3.467,1,0,1,68,false,stim,false,2,634.7250000108033,0,1,2,20341,WMM2,1405236,false,false,1517,image-keyboard-response,17
true,11,2,4,2,true,d,false,true,0.0-2.0-0.52-0.468-3.468,1,0,1,68,false,stim,false,2,844.1650000168011,0,1,2,20341,WMM2,1407586,false,false,1520,image-keyboard-response,18
true,11,0,4,0,true,q,false,true,0.0-2.0-0.52-0.469-3.469,1,0,1,81,false,stim,false,0,914.2749999882653,0,0,1,20341,WMM2,1410005,false,false,1523,image-keyboard-response,19
true,11,2,4,2,true,d,false,true,0.0-2.0-0.52-0.470-3.470,1,0,1,68,false,stim,false,2,1131.0650000232272,0,1,0,20341,WMM2,1412640,false,false,1526,image-keyboard-response,20
true,11,2,4,2,true,d,false,true,0.0-2.0-0.52-0.471-3.471,1,0,1,68,false,stim,false,2,1259.0949999867007,0,0,2,20341,WMM2,1415405,false,false,1529,image-keyboard-response,21
true,11,0,4,0,true,q,false,true,0.0-2.0-0.52-0.472-3.472,1,0,1,81,false,stim,false,0,1550.7900000084192,0,1,1,20341,WMM2,1418461,false,false,1532,image-keyboard-response,22
true,11,0,4,0,true,q,false,true,0.0-2.0-0.52-0.473-3.473,1,0,1,81,false,stim,false,0,1301.0249999933876,0,1,1,20341,WMM2,1421267,false,false,1535,image-keyboard-response,23
true,11,2,4,2,true,d,false,true,0.0-2.0-0.52-0.474-3.474,1,0,1,68,false,stim,false,2,1205.9149999986403,0,1,0,20341,WMM2,1423978,false,false,1538,image-keyboard-response,24
true,11,2,4,2,true,d,false,true,0.0-2.0-0.52-0.475-3.475,1,0,1,68,false,stim,false,2,540.1449999772012,0,1,0,20341,WMM2,1426023,false,false,1541,image-keyboard-response,25
true,11,2,4,2,true,d,false,true,0.0-2.0-0.52-0.476-3.476,1,0,1,68,false,stim,false,2,1380.2750000031665,0,0,2,20341,WMM2,1428908,false,false,1544,image-keyboard-response,26
true,11,2,4,2,true,d,false,true,0.0-2.0-0.53-0.477-3.477,1,0,1,68,false,stim,false,2,594.3400000105612,0,0,2,20341,WMM2,1431007,false,false,1547,image-keyboard-response,27
true,11,0,4,0,true,q,false,true,0.0-2.0-0.53-0.478-3.478,1,0,1,81,false,stim,false,0,1311.8200000026263,0,1,1,20341,WMM2,1433824,false,false,1550,image-keyboard-response,28
true,11,2,4,2,true,d,false,true,0.0-2.0-0.53-0.479-3.479,1,0,1,68,false,stim,false,2,2704.12499998929,0,1,0,20341,WMM2,1438034,false,false,1553,image-keyboard-response,29
true,11,2,4,2,true,d,false,true,0.0-2.0-0.53-0.480-3.480,1,0,1,68,false,stim,false,2,649.4649999658577,0,0,2,20341,WMM2,1440188,false,false,1556,image-keyboard-response,30
true,12,2,2,0,false,q,false,true,0.0-2.0-0.53-0.481-3.481,1,1,0,68,true,stim,true,2,1044.110000017099,0,0,2,20341,WMM2,1442739,false,true,1559,image-keyboard-response,1
true,12,2,2,2,true,d,false,false,0.0-2.0-0.53-0.482-3.482,1,1,0,68,false,stim,false,2,2232.5749999727122,0,1,0,20341,WMM2,1446476,false,true,1562,image-keyboard-response,2
true,12,0,2,0,true,q,false,true,0.0-2.0-0.53-0.483-3.483,1,1,0,81,false,stim,false,0,1275.0900000100955,0,1,1,20341,WMM2,1449256,false,false,1565,image-keyboard-response,3
true,12,0,2,0,true,q,false,true,0.0-2.0-0.53-0.484-3.484,1,1,0,81,false,stim,false,0,815.340000030119,0,1,1,20341,WMM2,1451576,false,false,1568,image-keyboard-response,4
true,12,0,2,2,false,d,true,false,0.0-2.0-0.53-0.485-3.485,1,1,0,81,false,stim,false,2,789.1999999992549,0,1,0,20341,WMM2,1453870,false,false,1571,image-keyboard-response,5
true,12,0,2,0,true,q,false,true,0.0-2.0-0.54-0.486-3.486,1,1,0,81,false,stim,false,0,850.0800000037998,0,1,1,20341,WMM2,1456225,false,false,1574,image-keyboard-response,6
true,12,0,2,0,true,q,false,true,0.0-2.0-0.54-0.487-3.487,1,1,0,81,false,stim,false,0,784.2050000326708,0,1,1,20341,WMM2,1458514,false,false,1577,image-keyboard-response,7
true,12,1,2,2,false,d,true,false,0.0-2.0-0.54-0.488-3.488,1,1,0,90,false,stim,false,2,608.2400000304915,0,1,0,20341,WMM2,1460628,false,false,1580,image-keyboard-response,8
true,12,2,2,2,true,d,false,false,0.0-2.0-0.54-0.489-3.489,1,1,0,68,false,stim,false,2,479.2400000151247,0,1,0,20341,WMM2,1462612,false,true,1583,image-keyboard-response,9
true,12,2,2,2,true,d,false,true,0.0-2.0-0.54-0.490-3.490,1,1,0,68,false,stim,false,2,527.7500000083819,0,1,0,20341,WMM2,1464647,false,false,1586,image-keyboard-response,10
true,12,2,2,0,false,q,false,false,0.0-2.0-0.54-0.491-3.491,1,1,0,68,false,stim,true,2,1107.0700000273064,0,0,2,20341,WMM2,1467258,false,false,1589,image-keyboard-response,11
true,12,1,2,0,false,q,true,false,0.0-2.0-0.54-0.492-3.492,1,1,0,90,false,stim,false,2,487.4450000352226,0,0,2,20341,WMM2,1469251,false,false,1592,image-keyboard-response,12
true,12,2,2,0,false,q,false,false,0.0-2.0-0.54-0.493-3.493,1,1,0,68,false,stim,true,2,1313.5550000006333,0,0,2,20341,WMM2,1472069,false,false,1595,image-keyboard-response,13
true,12,0,2,0,true,q,false,true,0.0-2.0-0.54-0.494-3.494,1,1,0,81,false,stim,false,0,977.7799999574199,0,1,1,20341,WMM2,1474553,false,false,1598,image-keyboard-response,14
true,12,0,2,0,true,q,false,true,0.0-2.0-0.55-0.495-3.495,1,1,0,81,false,stim,false,2,1243.7400000053458,0,0,2,20341,WMM2,1477308,false,false,1601,image-keyboard-response,15
true,12,0,2,0,true,q,false,true,0.0-2.0-0.55-0.496-3.496,1,1,0,81,false,stim,false,0,1481.469999998808,0,1,1,20341,WMM2,1480294,false,false,1604,image-keyboard-response,16
true,12,2,2,2,true,d,false,true,0.0-2.0-0.55-0.497-3.497,1,1,0,68,false,stim,false,2,1091.5050000185147,0,1,0,20341,WMM2,1482892,false,false,1607,image-keyboard-response,17
true,12,2,2,2,true,d,false,true,0.0-2.0-0.55-0.498-3.498,1,1,0,68,false,stim,false,2,719.1550000570714,0,1,0,20341,WMM2,1485116,false,false,1610,image-keyboard-response,18
true,12,0,2,0,true,q,false,true,0.0-2.0-0.55-0.499-3.499,1,1,0,81,false,stim,false,0,1451.5650000539608,0,1,1,20341,WMM2,1488073,false,false,1613,image-keyboard-response,19
false,12,-1,2,0,false,q,true,false,0.0-2.0-0.55-0.500-3.500,1,1,0,,false,stim,false,2,,0,0,2,20341,WMM2,1492579,false,false,1616,image-keyboard-response,20
true,12,2,2,0,false,q,false,false,0.0-2.0-0.55-0.501-3.501,1,1,0,68,false,stim,true,2,609.74000004353,0,0,2,20341,WMM2,1494695,false,false,1619,image-keyboard-response,21
true,12,0,2,2,false,d,true,false,0.0-2.0-0.55-0.502-3.502,1,1,0,81,false,stim,false,2,1644.220000016503,0,1,0,20341,WMM2,1497847,false,false,1622,image-keyboard-response,22
true,12,0,2,0,true,q,false,false,0.0-2.0-0.55-0.503-3.503,1,1,0,81,false,stim,false,0,576.459999952931,0,1,1,20341,WMM2,1499930,false,true,1625,image-keyboard-response,23
true,12,1,2,2,false,d,true,false,0.0-2.0-0.56-0.504-3.504,1,1,0,90,false,stim,false,2,856.8599999998696,0,1,0,20341,WMM2,1502295,false,false,1628,image-keyboard-response,24
true,12,0,2,0,true,q,false,true,0.0-2.0-0.56-0.505-3.505,1,1,0,81,false,stim,false,0,1094.4849999505095,0,1,1,20341,WMM2,1504896,false,false,1631,image-keyboard-response,25
true,12,2,2,0,false,q,false,false,0.0-2.0-0.56-0.506-3.506,1,1,0,68,false,stim,true,2,742.7049999823794,0,0,2,20341,WMM2,1507146,false,false,1634,image-keyboard-response,26
true,12,2,2,2,true,d,false,true,0.0-2.0-0.56-0.507-3.507,1,1,0,68,false,stim,false,2,1302.990000054706,0,1,0,20341,WMM2,1509956,false,false,1637,image-keyboard-response,27
true,12,2,2,0,false,q,false,false,0.0-2.0-0.56-0.508-3.508,1,1,0,68,false,stim,true,2,1643.7800000421703,0,0,2,20341,WMM2,1513107,false,false,1640,image-keyboard-response,28
true,12,2,2,0,false,q,false,true,0.0-2.0-0.56-0.509-3.509,1,1,0,68,false,stim,true,2,555.4750000010245,0,0,2,20341,WMM2,1515170,false,true,1643,image-keyboard-response,29
true,12,0,2,0,true,q,false,true,0.0-2.0-0.56-0.510-3.510,1,1,0,81,false,stim,false,0,857.6849999953993,0,1,1,20341,WMM2,1517535,false,false,1646,image-keyboard-response,30
true,12,0,2,0,true,q,false,true,0.0-2.0-0.56-0.511-3.511,1,1,0,81,false,stim,false,0,1038.1100000231527,0,1,1,20341,WMM2,1520081,false,false,1649,image-keyboard-response,31
true,12,0,2,2,false,d,true,false,0.0-2.0-0.56-0.512-3.512,1,1,0,81,false,stim,false,2,1289.6899999468587,0,1,0,20341,WMM2,1522877,false,false,1652,image-keyboard-response,32
true,12,0,2,0,true,q,false,true,0.0-2.0-0.57-0.513-3.513,1,1,0,81,false,stim,false,0,1222.330000018701,0,1,1,20341,WMM2,1525609,false,false,1655,image-keyboard-response,33
true,12,2,2,0,false,q,false,false,0.0-2.0-0.57-0.514-3.514,1,1,0,68,false,stim,true,2,1654.6800000360236,0,0,2,20341,WMM2,1528771,false,false,1658,image-keyboard-response,34
true,12,1,2,2,false,d,true,false,0.0-2.0-0.57-0.515-3.515,1,1,0,90,false,stim,false,2,1008.075000019744,0,1,0,20341,WMM2,1531286,false,false,1661,image-keyboard-response,35
true,12,0,2,0,true,q,false,true,0.0-2.0-0.57-0.516-3.516,1,1,0,81,false,stim,false,0,716.5950000053272,0,1,1,20341,WMM2,1533511,false,false,1664,image-keyboard-response,36
true,12,2,2,0,false,q,false,false,0.0-2.0-0.57-0.517-3.517,1,1,0,68,false,stim,true,2,616.0950000048615,0,0,2,20341,WMM2,1535633,false,false,1667,image-keyboard-response,37
true,12,0,2,2,false,d,true,false,0.0-2.0-0.57-0.518-3.518,1,1,0,81,false,stim,false,2,1264.0900000114925,0,1,0,20341,WMM2,1538404,false,false,1670,image-keyboard-response,38
true,12,2,2,2,true,d,false,true,0.0-2.0-0.57-0.519-3.519,1,1,0,68,false,stim,false,2,916.834999981802,0,1,0,20341,WMM2,1540828,false,false,1673,image-keyboard-response,39
true,12,0,2,0,true,q,false,true,0.0-2.0-0.57-0.520-3.520,1,1,0,81,false,stim,false,0,631.8949999986216,0,1,1,20341,WMM2,1542967,false,false,1676,image-keyboard-response,40
true,12,2,2,0,false,q,false,false,0.0-2.0-0.57-0.521-3.521,1,1,0,68,false,stim,true,2,683.0299999564886,0,0,2,20341,WMM2,1545156,false,false,1679,image-keyboard-response,41
true,12,1,2,0,false,q,true,false,0.0-2.0-0.58-0.522-3.522,1,1,0,90,false,stim,false,2,730.7549999677576,0,0,2,20341,WMM2,1547395,false,false,1682,image-keyboard-response,42
true,12,0,2,0,true,q,false,true,0.0-2.0-0.58-0.523-3.523,1,1,0,81,false,stim,false,2,446.3349999859929,0,0,2,20341,WMM2,1549349,false,false,1685,image-keyboard-response,43
true,12,0,2,0,true,q,false,false,0.0-2.0-0.58-0.524-3.524,1,1,0,81,false,stim,false,2,498.7550000078045,0,0,2,20341,WMM2,1551354,false,true,1688,image-keyboard-response,44
true,12,0,2,0,true,q,false,true,0.0-2.0-0.58-0.525-3.525,1,1,0,81,false,stim,false,0,826.1649999767542,0,1,1,20341,WMM2,1553688,false,false,1691,image-keyboard-response,45
true,12,0,2,2,false,d,true,true,0.0-2.0-0.58-0.526-3.526,1,1,0,81,false,stim,false,2,1172.9500000365078,0,1,0,20341,WMM2,1556368,false,true,1694,image-keyboard-response,46
true,12,0,2,2,false,d,true,false,0.0-2.0-0.58-0.527-3.527,1,1,0,81,false,stim,false,2,492.13999998755753,0,1,0,20341,WMM2,1558367,false,false,1697,image-keyboard-response,47
true,12,0,2,0,true,q,false,true,0.0-2.0-0.58-0.528-3.528,1,1,0,81,false,stim,false,0,673.1849999632686,0,1,1,20341,WMM2,1560548,false,false,1700,image-keyboard-response,48
true,12,0,2,0,true,q,false,true,0.0-2.0-0.58-0.529-3.529,1,1,0,81,false,stim,false,0,569.3450000253506,0,1,1,20341,WMM2,1562630,false,false,1703,image-keyboard-response,49
true,12,2,2,2,true,d,false,true,0.0-2.0-0.58-0.530-3.530,1,1,0,68,false,stim,false,2,706.3699999707751,0,1,0,20341,WMM2,1564845,false,false,1706,image-keyboard-response,50
true,12,2,2,2,true,d,false,true,0.0-2.0-0.59-0.531-3.531,1,1,0,68,false,stim,false,2,526.079999981448,0,0,0,20341,WMM2,1566879,false,false,1709,image-keyboard-response,51
true,12,0,2,0,true,q,false,true,0.0-2.0-0.59-0.532-3.532,1,1,0,81,false,stim,false,0,1004.5200000167824,0,1,1,20341,WMM2,1569389,false,false,1712,image-keyboard-response,52
true,12,2,2,0,false,q,false,false,0.0-2.0-0.59-0.533-3.533,1,1,0,68,false,stim,true,2,870.2000000048429,0,1,2,20341,WMM2,1571764,false,false,1715,image-keyboard-response,53
true,12,1,2,2,false,d,true,false,0.0-2.0-0.59-0.534-3.534,1,1,0,90,false,stim,false,2,1662.789999973029,0,0,0,20341,WMM2,1574932,false,false,1718,image-keyboard-response,54
true,12,0,2,0,true,q,false,true,0.0-2.0-0.59-0.535-3.535,1,1,0,81,false,stim,false,0,1249.9749999842606,0,1,1,20341,WMM2,1577687,false,false,1721,image-keyboard-response,55
true,12,0,2,2,false,d,true,true,0.0-2.0-0.59-0.536-3.536,1,1,0,81,false,stim,false,2,1805.4250000277534,0,0,0,20341,WMM2,1580997,false,true,1724,image-keyboard-response,56
true,12,2,2,0,false,q,false,false,0.0-2.0-0.59-0.537-3.537,1,1,0,68,false,stim,true,2,573.1900000246242,0,1,2,20341,WMM2,1583076,false,false,1727,image-keyboard-response,57
true,12,0,2,0,true,q,false,true,0.0-2.0-0.59-0.538-3.538,1,1,0,81,false,stim,false,0,1465.5400000046939,0,1,1,20341,WMM2,1586048,false,false,1730,image-keyboard-response,58
true,12,2,2,0,false,q,false,false,0.0-2.0-0.59-0.539-3.539,1,1,0,68,false,stim,true,2,1575.1999999629334,0,1,2,20341,WMM2,1589128,false,false,1733,image-keyboard-response,59
true,12,0,2,0,true,q,false,true,0.0-2.0-0.60-0.540-3.540,1,1,0,81,false,stim,false,0,1364.3900000024587,0,1,1,20341,WMM2,1591998,false,false,1736,image-keyboard-response,60
true,13,2,4,0,false,q,true,false,0.0-2.0-0.60-0.541-3.541,0,1,1,68,true,stim,false,0,799.170000012964,0,1,2,20341,WMM2,1594302,false,false,1739,image-keyboard-response,1
true,13,0,4,0,true,q,false,false,0.0-2.0-0.60-0.542-3.542,0,1,1,81,false,stim,false,0,925.1599999843165,0,1,1,20341,WMM2,1596732,false,true,1742,image-keyboard-response,2
true,13,2,4,0,false,q,true,true,0.0-2.0-0.60-0.543-3.543,0,1,1,68,false,stim,false,0,1158.7650000001304,0,1,2,20341,WMM2,1599396,false,true,1745,image-keyboard-response,3
true,13,1,4,2,false,d,true,false,0.0-2.0-0.60-0.544-3.544,0,1,1,90,false,stim,false,2,1204.0500000002794,0,0,0,20341,WMM2,1602106,false,false,1748,image-keyboard-response,4
true,13,2,4,0,false,q,true,true,0.0-2.0-0.60-0.545-3.545,0,1,1,68,false,stim,false,0,693.6350000323728,0,1,2,20341,WMM2,1604305,false,true,1751,image-keyboard-response,5
true,13,2,4,2,true,d,false,true,0.0-2.0-0.60-0.546-3.546,0,1,1,68,false,stim,false,2,988.0150000099093,0,0,0,20341,WMM2,1606799,false,false,1754,image-keyboard-response,6
true,13,2,4,0,false,q,true,true,0.0-2.0-0.60-0.547-3.547,0,1,1,68,false,stim,false,0,722.9850000003353,0,1,1,20341,WMM2,1609028,false,true,1757,image-keyboard-response,7
true,13,2,4,2,true,d,false,true,0.0-2.0-0.60-0.548-3.548,0,1,1,68,false,stim,false,2,2282.8900000313297,0,0,0,20341,WMM2,1612816,false,false,1760,image-keyboard-response,8
true,13,2,4,0,false,q,true,false,0.0-2.0-0.61-0.549-3.549,0,1,1,68,false,stim,false,0,1951.6549999825656,0,1,2,20341,WMM2,1616273,false,false,1763,image-keyboard-response,9
true,13,2,4,2,true,d,false,true,0.0-2.0-0.61-0.550-3.550,0,1,1,68,false,stim,false,2,880.5150000262074,0,0,0,20341,WMM2,1618659,false,false,1766,image-keyboard-response,10
true,13,2,4,2,true,d,false,true,0.0-2.0-0.61-0.551-3.551,0,1,1,68,false,stim,false,2,702.8500000014901,0,0,0,20341,WMM2,1620866,false,false,1769,image-keyboard-response,11
true,13,1,4,0,false,q,true,true,0.0-2.0-0.61-0.552-3.552,0,1,1,90,false,stim,false,0,1424.3399999686517,0,1,2,20341,WMM2,1623797,false,true,1772,image-keyboard-response,12
true,13,2,4,2,true,d,false,true,0.0-2.0-0.61-0.553-3.553,0,1,1,68,false,stim,false,2,1631.9399999920279,0,0,0,20341,WMM2,1626934,false,false,1775,image-keyboard-response,13
true,13,0,4,0,true,q,false,false,0.0-2.0-0.61-0.554-3.554,0,1,1,81,false,stim,false,0,878.6650000256486,0,1,1,20341,WMM2,1629318,false,true,1778,image-keyboard-response,14
true,13,2,4,0,false,q,true,false,0.0-2.0-0.61-0.555-3.555,0,1,1,68,false,stim,false,0,2396.5600000228733,0,1,2,20341,WMM2,1633219,false,false,1781,image-keyboard-response,15
true,13,0,4,0,true,q,false,true,0.0-2.0-0.61-0.556-3.556,0,1,1,81,false,stim,false,0,1124.6650000102818,0,1,1,20341,WMM2,1635849,false,false,1784,image-keyboard-response,16
true,13,0,4,0,true,q,false,true,0.0-2.0-0.61-0.557-3.557,0,1,1,81,false,stim,false,0,712.8999999840744,0,1,1,20341,WMM2,1638068,false,false,1787,image-keyboard-response,17
true,13,2,4,2,true,d,false,true,0.0-2.0-0.62-0.558-3.558,0,1,1,68,false,stim,false,2,1328.7250000284985,0,0,0,20341,WMM2,1640902,false,false,1790,image-keyboard-response,18
true,13,2,4,2,true,d,false,false,0.0-2.0-0.62-0.559-3.559,0,1,1,68,false,stim,false,2,603.1700000166893,0,0,0,20341,WMM2,1643009,false,true,1793,image-keyboard-response,19
true,13,0,4,0,true,q,false,true,0.0-2.0-0.62-0.560-3.560,0,1,1,81,false,stim,false,0,693.6899999855086,0,1,1,20341,WMM2,1645209,false,false,1796,image-keyboard-response,20
true,13,2,4,2,true,d,false,false,0.0-2.0-0.62-0.561-3.561,0,1,1,68,false,stim,false,2,1081.624999991618,0,0,0,20341,WMM2,1647799,false,true,1799,image-keyboard-response,21
true,13,0,4,0,true,q,false,true,0.0-2.0-0.62-0.562-3.562,0,1,1,81,false,stim,false,0,1130.379999987781,0,1,1,20341,WMM2,1650443,false,false,1802,image-keyboard-response,22
true,13,2,4,0,false,q,true,true,0.0-2.0-0.62-0.563-3.563,0,1,1,68,false,stim,false,0,651.9050000351854,0,1,2,20341,WMM2,1652603,false,true,1805,image-keyboard-response,23
true,13,2,4,0,false,q,true,false,0.0-2.0-0.62-0.564-3.564,0,1,1,68,false,stim,false,0,585.3399999905378,0,1,2,20341,WMM2,1654696,false,false,1808,image-keyboard-response,24
true,13,2,4,0,false,q,true,true,0.0-2.0-0.62-0.565-3.565,0,1,1,68,false,stim,false,0,596.0399999748915,0,1,2,20341,WMM2,1656800,false,true,1811,image-keyboard-response,25
true,13,0,4,0,true,q,false,true,0.0-2.0-0.62-0.566-3.566,0,1,1,81,false,stim,false,0,1327.3300000000745,0,1,1,20341,WMM2,1659635,false,false,1814,image-keyboard-response,26
true,13,2,4,0,false,q,true,true,0.0-2.0-0.63-0.567-3.567,0,1,1,68,false,stim,false,0,1112.7449999912642,0,1,2,20341,WMM2,1662255,false,true,1817,image-keyboard-response,27
true,13,2,4,2,true,d,false,true,0.0-2.0-0.63-0.568-3.568,0,1,1,68,false,stim,false,2,1232.3450000258163,0,0,0,20341,WMM2,1664995,false,false,1820,image-keyboard-response,28
true,13,2,4,2,true,d,false,true,0.0-2.0-0.63-0.569-3.569,0,1,1,68,false,stim,false,2,1568.6250000144355,0,0,0,20341,WMM2,1668070,false,false,1823,image-keyboard-response,29
true,13,2,4,0,false,q,true,false,0.0-2.0-0.63-0.570-3.570,0,1,1,68,false,stim,false,0,1737.135000003036,0,1,1,20341,WMM2,1671315,false,false,1826,image-keyboard-response,30
true,13,0,4,0,true,q,false,true,0.0-2.0-0.63-0.571-3.571,0,1,1,81,false,stim,false,0,1037.2499999939464,0,1,1,20341,WMM2,1673860,false,false,1829,image-keyboard-response,31
true,13,2,4,2,true,d,false,true,0.0-2.0-0.63-0.572-3.572,0,1,1,68,false,stim,false,2,1302.9800000367686,0,0,0,20341,WMM2,1676670,false,false,1832,image-keyboard-response,32
true,13,2,4,0,false,q,true,false,0.0-2.0-0.63-0.573-3.573,0,1,1,68,false,stim,false,0,762.9700000397861,0,1,2,20341,WMM2,1678940,false,false,1835,image-keyboard-response,33
true,13,2,4,0,false,q,true,false,0.0-2.0-0.63-0.574-3.574,0,1,1,68,false,stim,false,0,1101.9100000266917,0,1,2,20341,WMM2,1681550,false,false,1838,image-keyboard-response,34
true,13,0,4,0,true,q,false,true,0.0-2.0-0.63-0.575-3.575,0,1,1,81,false,stim,false,0,845.9700000239536,0,1,1,20341,WMM2,1683903,false,false,1841,image-keyboard-response,35
true,13,0,4,2,false,d,true,false,0.0-2.0-0.64-0.576-3.576,0,1,1,81,false,stim,false,2,1516.425000037998,0,0,0,20341,WMM2,1686928,false,false,1844,image-keyboard-response,36
true,13,2,4,0,false,q,true,true,0.0-2.0-0.64-0.577-3.577,0,1,1,68,false,stim,false,0,485.7799999881536,0,1,1,20341,WMM2,1688921,false,true,1847,image-keyboard-response,37
true,13,2,4,0,false,q,true,false,0.0-2.0-0.64-0.578-3.578,0,1,1,68,false,stim,false,0,792.394999996759,0,1,2,20341,WMM2,1691221,false,false,1850,image-keyboard-response,38
true,13,0,4,2,false,d,true,true,0.0-2.0-0.64-0.579-3.579,0,1,1,81,false,stim,false,2,841.0599999479018,0,0,0,20341,WMM2,1693569,false,true,1853,image-keyboard-response,39
true,13,0,4,0,true,q,false,false,0.0-2.0-0.64-0.580-3.580,0,1,1,81,false,stim,false,0,1132.9350000014529,0,1,2,20341,WMM2,1696210,false,true,1856,image-keyboard-response,40
true,13,2,4,0,false,q,true,false,0.0-2.0-0.64-0.581-3.581,0,1,1,68,false,stim,false,0,891.7449999717064,0,1,1,20341,WMM2,1698609,false,false,1859,image-keyboard-response,41
true,13,0,4,0,true,q,false,true,0.0-2.0-0.64-0.582-3.582,0,1,1,81,false,stim,false,0,1201.5249999822117,0,1,1,20341,WMM2,1701319,false,false,1862,image-keyboard-response,42
true,13,0,4,2,false,d,true,false,0.0-2.0-0.64-0.583-3.583,0,1,1,81,false,stim,false,2,1102.6549999951385,0,0,0,20341,WMM2,1703928,false,false,1865,image-keyboard-response,43
true,13,2,4,0,false,q,true,false,0.0-2.0-0.64-0.584-3.584,0,1,1,68,false,stim,false,0,726.2900000205263,0,1,2,20341,WMM2,1706164,false,false,1868,image-keyboard-response,44
true,13,2,4,0,false,q,true,false,0.0-2.0-0.65-0.585-3.585,0,1,1,68,false,stim,false,0,506.04000000748783,0,1,1,20341,WMM2,1708178,false,false,1871,image-keyboard-response,45
