answered,blockNum,choice,condition,corResp,correct,correct_response,explo,fb,internal_node_id,isStable_1,isStable_2,isStable_3,key_press,newBlock,part,persev,persevResp,rt,sessNum,stableAS,stimulus,subject,task,time_elapsed,training,trap,trial_index,trial_type,trialsInBlock
true,1,0,0,1,false,z,true,false,0.0-2.0-0.0-0.0-3.0,0,0,0,81,true,stim,false,-1,1851.3850000454113,1,0,2,20341,WMM2,469983,false,false,157,image-keyboard-response,1
true,1,1,0,2,false,d,true,false,0.0-2.0-0.0-0.1-3.1,0,0,0,90,false,stim,false,-1,712.8350000130013,1,0,1,20341,WMM2,472202,false,false,160,image-keyboard-response,2
true,1,2,0,2,true,d,false,true,0.0-2.0-0.0-0.2-3.2,0,0,0,68,false,stim,false,-1,1430.2850000094622,1,0,1,20341,WMM2,475136,false,false,163,image-keyboard-response,3
true,1,1,0,2,false,d,true,false,0.0-2.0-0.0-0.3-3.3,0,0,0,90,false,stim,false,-1,1205.4299999726936,1,0,0,20341,WMM2,477844,false,false,166,image-keyboard-response,4
true,1,1,0,1,true,z,false,true,0.0-2.0-0.0-0.4-3.4,0,0,0,90,false,stim,false,-1,961.3550000358373,1,0,2,20341,WMM2,480309,false,false,169,image-keyboard-response,5
true,1,1,0,1,true,z,false,true,0.0-2.0-0.0-0.5-3.5,0,0,0,90,false,stim,false,-1,588.4349999832921,1,0,2,20341,WMM2,482401,false,false,172,image-keyboard-response,6
true,1,2,0,2,true,d,false,true,0.0-2.0-0.0-0.6-3.6,0,0,0,68,false,stim,false,-1,1463.8949999934994,1,0,1,20341,WMM2,485369,false,false,175,image-keyboard-response,7
true,1,0,0,2,false,d,true,false,0.0-2.0-0.0-0.7-3.7,0,0,0,81,false,stim,false,-1,1583.5050000459887,1,0,0,20341,WMM2,488456,false,false,178,image-keyboard-response,8
true,1,0,0,2,false,d,true,false,0.0-2.0-0.0-0.8-3.8,0,0,0,81,false,stim,false,-1,460.9150000032969,1,0,0,20341,WMM2,490420,false,false,181,image-keyboard-response,9
true,1,1,0,2,false,d,true,false,0.0-2.0-0.1-0.9-3.9,0,0,0,90,false,stim,false,-1,787.5449999701232,1,0,0,20341,WMM2,492712,false,false,184,image-keyboard-response,10
true,1,1,0,1,true,z,false,true,0.0-2.0-0.1-0.10-3.10,0,0,0,90,false,stim,false,-1,1789.9600000237115,1,0,2,20341,WMM2,496007,false,false,187,image-keyboard-response,11
true,1,2,0,2,true,d,false,true,0.0-2.0-0.1-0.11-3.11,0,0,0,68,false,stim,false,-1,1431.2050000298768,1,0,1,20341,WMM2,498941,false,false,190,image-keyboard-response,12
true,1,2,0,2,true,d,false,true,0.0-2.0-0.1-0.12-3.12,0,0,0,68,false,stim,false,-1,1769.8799999780022,1,0,1,20341,WMM2,502214,false,false,193,image-keyboard-response,13
true,1,2,0,2,true,d,false,true,0.0-2.0-0.1-0.13-3.13,0,0,0,68,false,stim,false,-1,699.6750000398606,1,0,0,20341,WMM2,504416,false,false,196,image-keyboard-response,14
true,1,2,0,2,true,d,false,true,0.0-2.0-0.1-0.14-3.14,0,0,0,68,false,stim,false,-1,820.7650000113063,1,0,1,20341,WMM2,506740,false,false,199,image-keyboard-response,15
true,1,1,0,1,true,z,false,true,0.0-2.0-0.1-0.15-3.15,0,0,0,90,false,stim,false,-1,983.3699999726377,1,0,2,20341,WMM2,509230,false,false,202,image-keyboard-response,16
true,1,1,0,1,true,z,false,true,0.0-2.0-0.1-0.16-3.16,0,0,0,90,false,stim,false,-1,472.5899999612011,1,0,2,20341,WMM2,511205,false,false,205,image-keyboard-response,17
true,1,2,0,2,true,d,false,true,0.0-2.0-0.1-0.17-3.17,0,0,0,68,false,stim,false,-1,768.2200000272132,1,0,0,20341,WMM2,513477,false,false,208,image-keyboard-response,18
true,1,2,0,2,true,d,false,true,0.0-2.0-0.2-0.18-3.18,0,0,0,68,false,stim,false,-1,1794.339999963995,1,0,0,20341,WMM2,516775,false,false,211,image-keyboard-response,19
true,1,2,0,2,true,d,false,true,0.0-2.0-0.2-0.19-3.19,0,0,0,68,false,stim,false,-1,2105.630000005476,1,0,1,20341,WMM2,520385,false,false,214,image-keyboard-response,20
true,1,2,0,2,true,d,false,true,0.0-2.0-0.2-0.20-3.20,0,0,0,68,false,stim,false,-1,566.5049999952316,1,1,1,20341,WMM2,522455,false,false,217,image-keyboard-response,21
true,1,1,0,1,true,z,false,true,0.0-2.0-0.2-0.21-3.21,0,0,0,90,false,stim,false,-1,1173.1299999519251,1,0,2,20341,WMM2,525133,false,false,220,image-keyboard-response,22
true,1,2,0,2,true,d,false,true,0.0-2.0-0.2-0.22-3.22,0,0,0,68,false,stim,false,-1,677.0150000229478,1,0,0,20341,WMM2,527313,false,false,223,image-keyboard-response,23
true,1,1,0,2,false,d,true,false,0.0-2.0-0.2-0.23-3.23,0,0,0,90,false,stim,false,-1,491.08499998692423,1,0,0,20341,WMM2,529307,false,false,226,image-keyboard-response,24
true,1,1,0,1,true,z,false,true,0.0-2.0-0.2-0.24-3.24,0,0,0,90,false,stim,false,-1,1925.5499999853782,1,0,2,20341,WMM2,532736,false,false,229,image-keyboard-response,25
true,1,2,0,2,true,d,false,true,0.0-2.0-0.2-0.25-3.25,0,0,0,68,false,stim,false,-1,982.4849999858998,1,1,1,20341,WMM2,535223,false,false,232,image-keyboard-response,26
true,1,1,0,1,true,z,false,true,0.0-2.0-0.2-0.26-3.26,0,0,0,90,false,stim,false,-1,1343.6150000197813,1,0,2,20341,WMM2,538069,false,false,235,image-keyboard-response,27
true,1,2,0,2,true,d,false,true,0.0-2.0-0.3-0.27-3.27,0,0,0,68,false,stim,false,-1,759.4249999965541,1,0,0,20341,WMM2,540333,false,false,238,image-keyboard-response,28
true,1,2,0,2,true,d,false,true,0.0-2.0-0.3-0.28-3.28,0,0,0,68,false,stim,false,-1,1815.2950000367127,1,1,1,20341,WMM2,543652,false,false,241,image-keyboard-response,29
true,1,1,0,1,true,z,false,true,0.0-2.0-0.3-0.29-3.29,0,0,0,90,false,stim,false,-1,2134.604999970179,1,0,2,20341,WMM2,547291,false,false,244,image-keyboard-response,30
true,2,2,1,2,true,d,false,true,0.0-2.0-0.3-0.30-3.30,0,1,0,68,true,stim,false,2,1601.5250000054948,1,1,1,20341,WMM2,550396,false,false,247,image-keyboard-response,1
true,2,2,1,1,false,z,false,false,0.0-2.0-0.3-0.31-3.31,0,1,0,68,false,stim,true,2,1308.740000007674,1,0,0,20341,WMM2,553208,false,false,250,image-keyboard-response,2
true,2,2,1,2,true,d,false,true,0.0-2.0-0.3-0.32-3.32,0,1,0,68,false,stim,false,2,1023.2449999894015,1,1,1,20341,WMM2,555735,false,false,253,image-keyboard-response,3
true,2,2,1,2,true,d,false,true,0.0-2.0-0.3-0.33-3.33,0,1,0,68,false,stim,false,1,842.3299999558367,1,0,2,20341,WMM2,558081,false,false,256,image-keyboard-response,4
true,2,2,1,1,false,z,false,true,0.0-2.0-0.3-0.34-3.34,0,1,0,68,false,stim,true,2,849.274999985937,1,0,0,20341,WMM2,560434,false,true,259,image-keyboard-response,5
true,2,1,1,2,false,d,false,false,0.0-2.0-0.3-0.35-3.35,0,1,0,90,false,stim,true,1,1698.2600000337698,1,0,2,20341,WMM2,563635,false,false,262,image-keyboard-response,6
true,2,2,1,1,false,z,false,false,0.0-2.0-0.4-0.36-3.36,0,1,0,68,false,stim,true,2,2002.634999982547,1,0,0,20341,WMM2,567142,false,false,265,image-keyboard-response,7
true,2,2,1,2,true,d,false,true,0.0-2.0-0.4-0.37-3.37,0,1,0,68,false,stim,false,2,2392.135000030976,1,1,1,20341,WMM2,571038,false,false,268,image-keyboard-response,8
true,2,1,1,2,false,d,false,false,0.0-2.0-0.4-0.38-3.38,0,1,0,90,false,stim,true,1,1166.0300000221469,1,0,2,20341,WMM2,573708,false,false,271,image-keyboard-response,9
true,2,2,1,2,true,d,false,true,0.0-2.0-0.4-0.39-3.39,0,1,0,68,false,stim,false,2,705.2799999946728,1,1,1,20341,WMM2,575917,false,false,274,image-keyboard-response,10
true,2,1,1,2,false,d,false,false,0.0-2.0-0.4-0.40-3.40,0,1,0,90,false,stim,true,1,2361.5099999587983,1,0,2,20341,WMM2,579782,false,false,277,image-keyboard-response,11
true,2,1,1,2,false,d,false,false,0.0-2.0-0.4-0.41-3.41,0,1,0,90,false,stim,true,1,719.3199999746867,1,0,2,20341,WMM2,582005,false,false,280,image-keyboard-response,12
true,2,2,1,2,true,d,false,true,0.0-2.0-0.4-0.42-3.42,0,1,0,68,false,stim,false,2,774.4900000398047,1,1,1,20341,WMM2,584284,false,false,283,image-keyboard-response,13
true,2,0,1,1,false,z,true,true,0.0-2.0-0.4-0.43-3.43,0,1,0,81,false,stim,false,2,871.5350000420585,1,0,0,20341,WMM2,586660,false,true,286,image-keyboard-response,14
true,2,0,1,1,false,z,true,false,0.0-2.0-0.4-0.44-3.44,0,1,0,81,false,stim,false,2,650.0050000031479,1,0,0,20341,WMM2,588814,false,false,289,image-keyboard-response,15
true,2,1,1,2,false,d,true,false,0.0-2.0-0.5-0.45-3.45,0,1,0,90,false,stim,false,2,2379.305000009481,1,1,1,20341,WMM2,592697,false,false,292,image-keyboard-response,16
true,2,0,1,1,false,z,true,false,0.0-2.0-0.5-0.46-3.46,0,1,0,81,false,stim,false,2,744.8950000107288,1,0,0,20341,WMM2,594948,false,false,295,image-keyboard-response,17
true,2,1,1,2,false,d,false,true,0.0-2.0-0.5-0.47-3.47,0,1,0,90,false,stim,true,1,682.9349999898113,1,0,2,20341,WMM2,597134,false,true,298,image-keyboard-response,18
true,2,1,1,2,false,d,false,false,0.0-2.0-0.5-0.48-3.48,0,1,0,90,false,stim,true,1,643.4550000121817,1,0,2,20341,WMM2,599281,false,false,301,image-keyboard-response,19
true,2,0,1,1,false,z,true,false,0.0-2.0-0.5-0.49-3.49,0,1,0,81,false,stim,false,2,1067.4850000068545,1,0,0,20341,WMM2,601852,false,false,304,image-keyboard-response,20
true,2,2,1,2,true,d,false,true,0.0-2.0-0.5-0.50-3.50,0,1,0,68,false,stim,false,1,911.2850000383332,1,0,2,20341,WMM2,604267,false,false,307,image-keyboard-response,21
true,2,0,1,2,false,d,true,false,0.0-2.0-0.5-0.51-3.51,0,1,0,81,false,stim,false,2,977.0700000226498,1,1,1,20341,WMM2,606748,false,false,310,image-keyboard-response,22
true,2,0,1,1,false,z,true,false,0.0-2.0-0.5-0.52-3.52,0,1,0,81,false,stim,false,2,744.8300000396557,1,0,0,20341,WMM2,608998,false,false,313,image-keyboard-response,23
true,2,2,1,2,true,d,false,true,0.0-2.0-0.5-0.53-3.53,0,1,0,68,false,stim,false,2,790.2699999976903,1,1,1,20341,WMM2,611292,false,false,316,image-keyboard-response,24
true,2,2,1,2,true,d,false,true,0.0-2.0-0.6-0.54-3.54,0,1,0,68,false,stim,false,2,631.6700000315905,1,1,1,20341,WMM2,613428,false,false,319,image-keyboard-response,25
true,2,2,1,2,true,d,false,true,0.0-2.0-0.6-0.55-3.55,0,1,0,68,false,stim,false,1,914.5600000047125,1,0,2,20341,WMM2,615846,false,false,322,image-keyboard-response,26
true,2,2,1,2,true,d,false,true,0.0-2.0-0.6-0.56-3.56,0,1,0,68,false,stim,false,2,780.4900000337511,1,1,1,20341,WMM2,618132,false,false,325,image-keyboard-response,27
true,2,2,1,2,true,d,false,true,0.0-2.0-0.6-0.57-3.57,0,1,0,68,false,stim,false,2,459.5299999928102,1,1,1,20341,WMM2,620095,false,false,328,image-keyboard-response,28
true,2,1,1,1,true,z,false,true,0.0-2.0-0.6-0.58-3.58,0,1,0,90,false,stim,false,2,690.1150000048801,1,0,0,20341,WMM2,622289,false,false,331,image-keyboard-response,29
true,2,1,1,1,true,z,false,true,0.0-2.0-0.6-0.59-3.59,0,1,0,90,false,stim,false,2,546.0100000491366,1,0,0,20341,WMM2,624339,false,false,334,image-keyboard-response,30
true,2,1,1,1,true,z,false,true,0.0-2.0-0.6-0.60-3.60,0,1,0,90,false,stim,false,2,610.225000011269,1,1,0,20341,WMM2,626454,false,false,337,image-keyboard-response,31
true,2,2,1,2,true,d,false,true,0.0-2.0-0.6-0.61-3.61,0,1,0,68,false,stim,false,1,745.7000000285916,1,0,2,20341,WMM2,628703,false,false,340,image-keyboard-response,32
true,2,2,1,2,true,d,false,true,0.0-2.0-0.6-0.62-3.62,0,1,0,68,false,stim,false,1,1833.9649999979883,1,0,2,20341,WMM2,632042,false,false,343,image-keyboard-response,33
true,2,2,1,2,true,d,false,true,0.0-2.0-0.7-0.63-3.63,0,1,0,68,false,stim,false,1,780.4449999821372,1,0,2,20341,WMM2,634326,false,false,346,image-keyboard-response,34
true,2,1,1,1,true,z,false,true,0.0-2.0-0.7-0.64-3.64,0,1,0,90,false,stim,false,2,1398.4599999967031,1,1,0,20341,WMM2,637228,false,false,349,image-keyboard-response,35
true,2,2,1,2,true,d,false,true,0.0-2.0-0.7-0.65-3.65,0,1,0,68,false,stim,false,2,1587.7800000016578,1,1,1,20341,WMM2,640321,false,false,352,image-keyboard-response,36
true,2,2,1,2,true,d,false,true,0.0-2.0-0.7-0.66-3.66,0,1,0,68,false,stim,false,1,706.499999971129,1,0,2,20341,WMM2,642531,false,false,355,image-keyboard-response,37
true,2,2,1,2,true,d,false,true,0.0-2.0-0.7-0.67-3.67,0,1,0,68,false,stim,false,1,814.6650000126101,1,0,2,20341,WMM2,644849,false,false,358,image-keyboard-response,38
true,2,2,1,2,true,d,false,false,0.0-2.0-0.7-0.68-3.68,0,1,0,68,false,stim,false,2,747.5850000046194,1,1,1,20341,WMM2,647101,false,true,361,image-keyboard-response,39
true,2,1,1,1,true,z,false,false,0.0-2.0-0.7-0.69-3.69,0,1,0,90,false,stim,false,2,584.2249999986961,1,1,0,20341,WMM2,649189,false,true,364,image-keyboard-response,40
true,3,1,3,1,true,z,false,true,0.0-2.0-0.7-0.70-3.70,1,1,0,90,true,stim,false,1,691.240000014659,1,1,0,20341,WMM2,651384,false,false,367,image-keyboard-response,1
true,3,2,3,2,true,d,false,false,0.0-2.0-0.7-0.71-3.71,1,1,0,68,false,stim,false,2,968.9150000340305,1,1,1,20341,WMM2,653857,false,true,370,image-keyboard-response,2
true,3,2,3,2,true,d,false,true,0.0-2.0-0.8-0.72-3.72,1,1,0,68,false,stim,false,2,803.0799999833107,1,1,1,20341,WMM2,656164,false,false,373,image-keyboard-response,3
true,3,2,3,2,true,d,false,true,0.0-2.0-0.8-0.73-3.73,1,1,0,68,false,stim,false,2,492.0850000344217,1,1,1,20341,WMM2,658159,false,false,376,image-keyboard-response,4
true,3,2,3,0,false,q,false,false,0.0-2.0-0.8-0.74-3.74,1,1,0,68,false,stim,true,2,460.94999997876585,1,0,2,20341,WMM2,660123,false,false,379,image-keyboard-response,5
true,3,2,3,2,true,d,false,true,0.0-2.0-0.8-0.75-3.75,1,1,0,68,false,stim,false,2,648.444999998901,1,1,1,20341,WMM2,662275,false,false,382,image-keyboard-response,6
true,3,2,3,0,false,q,false,false,0.0-2.0-0.8-0.76-3.76,1,1,0,68,false,stim,true,2,524.4899999815971,1,0,2,20341,WMM2,664304,false,false,385,image-keyboard-response,7
true,3,1,3,1,true,z,false,true,0.0-2.0-0.8-0.77-3.77,1,1,0,90,false,stim,false,1,1043.3049999992363,1,1,0,20341,WMM2,666852,false,false,388,image-keyboard-response,8
true,3,0,3,0,true,q,false,true,0.0-2.0-0.8-0.78-3.78,1,1,0,81,false,stim,false,2,827.9949999996461,1,0,2,20341,WMM2,669185,false,false,391,image-keyboard-response,9
true,3,1,3,1,true,z,false,true,0.0-2.0-0.8-0.79-3.79,1,1,0,90,false,stim,false,1,1126.1650000233203,1,1,0,20341,WMM2,671814,false,false,394,image-keyboard-response,10
true,3,1,3,1,true,z,false,false,0.0-2.0-0.8-0.80-3.80,1,1,0,90,false,stim,false,1,436.7199999978766,1,1,0,20341,WMM2,673754,false,true,397,image-keyboard-response,11
true,3,0,3,0,true,q,false,true,0.0-2.0-0.9-0.81-3.81,1,1,0,81,false,stim,false,2,1826.7000000341795,1,0,2,20341,WMM2,677086,false,false,400,image-keyboard-response,12
true,3,1,3,1,true,z,false,true,0.0-2.0-0.9-0.82-3.82,1,1,0,90,false,stim,false,1,855.1900000311434,1,1,0,20341,WMM2,679447,false,false,403,image-keyboard-response,13
true,3,2,3,0,false,q,false,false,0.0-2.0-0.9-0.83-3.83,1,1,0,68,false,stim,true,2,784.4850000110455,1,0,2,20341,WMM2,681736,false,false,406,image-keyboard-response,14
true,3,1,3,1,true,z,false,true,0.0-2.0-0.9-0.84-3.84,1,1,0,90,false,stim,false,1,1225.5200000363402,1,1,0,20341,WMM2,684466,false,false,409,image-keyboard-response,15
true,3,2,3,2,true,d,false,true,0.0-2.0-0.9-0.85-3.85,1,1,0,68,false,stim,false,2,972.1100000315346,1,1,1,20341,WMM2,686942,false,false,412,image-keyboard-response,16
true,3,2,3,2,true,d,false,true,0.0-2.0-0.9-0.86-3.86,1,1,0,68,false,stim,false,2,607.2350000031292,1,1,1,20341,WMM2,689053,false,false,415,image-keyboard-response,17
true,3,0,3,1,false,z,true,true,0.0-2.0-0.9-0.87-3.87,1,1,0,81,false,stim,false,1,701.1499999789521,1,1,0,20341,WMM2,691258,false,true,418,image-keyboard-response,18
true,3,2,3,2,true,d,false,true,0.0-2.0-0.9-0.88-3.88,1,1,0,68,false,stim,false,2,1092.6149999722838,1,1,1,20341,WMM2,693855,false,false,421,image-keyboard-response,19
true,3,1,3,0,false,q,true,false,0.0-2.0-0.9-0.89-3.89,1,1,0,90,false,stim,false,2,369.7050000191666,1,0,2,20341,WMM2,695728,false,false,424,image-keyboard-response,20
true,3,2,3,0,false,q,false,false,0.0-2.0-0.10-0.90-3.90,1,1,0,68,false,stim,true,2,590.3050000197254,1,0,2,20341,WMM2,697824,false,false,427,image-keyboard-response,21
true,3,0,3,1,false,z,true,false,0.0-2.0-0.10-0.91-3.91,1,1,0,81,false,stim,false,1,815.5150000238791,1,1,0,20341,WMM2,700145,false,false,430,image-keyboard-response,22
true,3,2,3,2,true,d,false,false,0.0-2.0-0.10-0.92-3.92,1,1,0,68,false,stim,false,2,971.3449999690056,1,1,1,20341,WMM2,702620,false,true,433,image-keyboard-response,23
true,3,0,3,1,false,z,true,false,0.0-2.0-0.10-0.93-3.93,1,1,0,81,false,stim,false,1,812.789999996312,1,1,0,20341,WMM2,704937,false,false,436,image-keyboard-response,24
true,3,2,3,2,true,d,false,true,0.0-2.0-0.10-0.94-3.94,1,1,0,68,false,stim,false,2,1110.3349999757484,1,1,1,20341,WMM2,707553,false,false,439,image-keyboard-response,25
true,3,2,3,0,false,q,false,false,0.0-2.0-0.10-0.95-3.95,1,1,0,68,false,stim,true,2,1572.5749999983236,1,0,2,20341,WMM2,710631,false,false,442,image-keyboard-response,26
true,3,1,3,1,true,z,false,true,0.0-2.0-0.10-0.96-3.96,1,1,0,90,false,stim,false,1,957.9549999907613,1,1,0,20341,WMM2,713094,false,false,445,image-keyboard-response,27
true,3,2,3,2,true,d,false,false,0.0-2.0-0.10-0.97-3.97,1,1,0,68,false,stim,false,2,942.9649999947287,1,1,1,20341,WMM2,715543,false,true,448,image-keyboard-response,28
true,3,2,3,0,false,q,false,false,0.0-2.0-0.10-0.98-3.98,1,1,0,68,false,stim,true,2,1049.475000007078,1,0,2,20341,WMM2,718097,false,false,451,image-keyboard-response,29
true,3,1,3,1,true,z,false,true,0.0-2.0-0.11-0.99-3.99,1,1,0,90,false,stim,false,1,2003.759999992326,1,1,0,20341,WMM2,721607,false,false,454,image-keyboard-response,30
true,3,1,3,1,true,z,false,true,0.0-2.0-0.11-0.100-3.100,1,1,0,90,false,stim,false,1,632.3400000110269,1,1,0,20341,WMM2,723743,false,false,457,image-keyboard-response,31
true,3,1,3,1,true,z,false,true,0.0-2.0-0.11-0.101-3.101,1,1,0,90,false,stim,false,1,435.5349999968894,1,1,0,20341,WMM2,725684,false,false,460,image-keyboard-response,32
true,3,0,3,2,false,d,true,false,0.0-2.0-0.11-0.102-3.102,1,1,0,81,false,stim,false,2,640.4099999926984,1,1,1,20341,WMM2,727830,false,false,463,image-keyboard-response,33
true,3,0,3,0,true,q,false,true,0.0-2.0-0.11-0.103-3.103,1,1,0,81,false,stim,false,2,1098.8600000273436,1,0,2,20341,WMM2,730434,false,false,466,image-keyboard-response,34
true,3,0,3,0,true,q,false,true,0.0-2.0-0.11-0.104-3.104,1,1,0,81,false,stim,false,2,454.13999998709187,1,0,2,20341,WMM2,732393,false,false,469,image-keyboard-response,35
true,3,1,3,2,false,d,true,false,0.0-2.0-0.11-0.105-3.105,1,1,0,90,false,stim,false,2,933.8899999856949,1,1,1,20341,WMM2,734832,false,false,472,image-keyboard-response,36
true,3,0,3,0,true,q,false,true,0.0-2.0-0.11-0.106-3.106,1,1,0,81,false,stim,false,2,774.1299999761395,1,0,2,20341,WMM2,737112,false,false,475,image-keyboard-response,37
true,3,1,3,2,false,d,true,true,0.0-2.0-0.11-0.107-3.107,1,1,0,90,false,stim,false,2,705.6150000425987,1,1,1,20341,WMM2,739322,false,true,478,image-keyboard-response,38
true,3,1,3,2,false,d,true,false,0.0-2.0-0.12-0.108-3.108,1,1,0,90,false,stim,false,2,501.7099999822676,1,1,1,20341,WMM2,741329,false,false,481,image-keyboard-response,39
true,3,1,3,2,false,d,true,false,0.0-2.0-0.12-0.109-3.109,1,1,0,90,false,stim,false,2,706.3450000132434,1,1,1,20341,WMM2,743541,false,false,484,image-keyboard-response,40
true,3,0,3,0,true,q,false,true,0.0-2.0-0.12-0.110-3.110,1,1,0,81,false,stim,false,2,1281.3000000314787,1,0,2,20341,WMM2,746327,false,false,487,image-keyboard-response,41
true,3,1,3,1,true,z,false,true,0.0-2.0-0.12-0.111-3.111,1,1,0,90,false,stim,false,1,979.4200000469573,1,1,0,20341,WMM2,748811,false,false,490,image-keyboard-response,42
true,3,1,3,1,true,z,false,true,0.0-2.0-0.12-0.112-3.112,1,1,0,90,false,stim,false,1,444.9099999619648,1,1,0,20341,WMM2,750761,false,false,493,image-keyboard-response,43
true,3,0,3,0,true,q,false,true,0.0-2.0-0.12-0.113-3.113,1,1,0,81,false,stim,false,2,2066.0299999872223,1,0,2,20341,WMM2,754331,false,false,496,image-keyboard-response,44
true,3,0,3,0,true,q,false,true,0.0-2.0-0.12-0.114-3.114,1,1,0,81,false,stim,false,2,414.6800000453368,1,0,2,20341,WMM2,756250,false,false,499,image-keyboard-response,45
true,3,2,3,2,true,d,false,true,0.0-2.0-0.12-0.115-3.115,1,1,0,68,false,stim,false,2,630.6050000130199,1,1,1,20341,WMM2,758388,false,false,502,image-keyboard-response,46
true,3,1,3,1,true,z,false,true,0.0-2.0-0.12-0.116-3.116,1,1,0,90,false,stim,false,1,2234.2650000355206,1,1,0,20341,WMM2,762127,false,false,505,image-keyboard-response,47
true,3,2,3,2,true,d,false,true,0.0-2.0-0.13-0.117-3.117,1,1,0,68,false,stim,false,2,1972.6450000307523,1,1,1,20341,WMM2,765605,false,false,508,image-keyboard-response,48
true,3,2,3,2,true,d,false,true,0.0-2.0-0.13-0.118-3.118,1,1,0,68,false,stim,false,2,582.2949999710545,1,0,1,20341,WMM2,767693,false,false,511,image-keyboard-response,49
true,3,0,3,0,true,q,false,false,0.0-2.0-0.13-0.119-3.119,1,1,0,81,false,stim,false,2,1500.9849999914877,1,1,2,20341,WMM2,770698,false,true,514,image-keyboard-response,50
true,3,0,3,0,true,q,false,true,0.0-2.0-0.13-0.120-3.120,1,1,0,81,false,stim,false,2,673.175000003539,1,1,2,20341,WMM2,772876,false,false,517,image-keyboard-response,51
true,3,0,3,0,true,q,false,true,0.0-2.0-0.13-0.121-3.121,1,1,0,81,false,stim,false,2,617.4049999681301,1,1,2,20341,WMM2,774999,false,false,520,image-keyboard-response,52
true,3,1,3,1,true,z,false,true,0.0-2.0-0.13-0.122-3.122,1,1,0,90,false,stim,false,1,849.0200000233017,1,1,0,20341,WMM2,777353,false,false,523,image-keyboard-response,53
true,3,1,3,1,true,z,false,true,0.0-2.0-0.13-0.123-3.123,1,1,0,90,false,stim,false,1,583.0600000335835,1,1,0,20341,WMM2,779440,false,false,526,image-keyboard-response,54
true,3,1,3,1,true,z,false,true,0.0-2.0-0.13-0.124-3.124,1,1,0,90,false,stim,false,1,645.7749999826774,1,1,0,20341,WMM2,781590,false,false,529,image-keyboard-response,55
true,3,2,3,2,true,d,false,true,0.0-2.0-0.13-0.125-3.125,1,1,0,68,false,stim,false,2,1407.7849999885075,1,0,1,20341,WMM2,784502,false,false,532,image-keyboard-response,56
true,3,1,3,1,true,z,false,true,0.0-2.0-0.14-0.126-3.126,1,1,0,90,false,stim,false,1,846.5650000143796,1,1,0,20341,WMM2,786853,false,false,535,image-keyboard-response,57
true,3,1,3,1,true,z,false,true,0.0-2.0-0.14-0.127-3.127,1,1,0,90,false,stim,false,1,500.67999999737367,1,1,0,20341,WMM2,788858,false,false,538,image-keyboard-response,58
true,4,2,2,0,false,q,false,false,0.0-2.0-0.14-0.128-3.128,1,0,1,68,true,stim,true,2,1634.0600000112318,1,0,1,20341,WMM2,791996,false,false,541,image-keyboard-response,1
true,4,2,2,0,false,q,false,false,0.0-2.0-0.14-0.129-3.129,1,0,1,68,false,stim,true,2,1733.6950000026263,1,0,1,20341,WMM2,795234,false,false,544,image-keyboard-response,2
true,4,0,2,0,true,q,false,true,0.0-2.0-0.14-0.130-3.130,1,0,1,81,false,stim,false,0,1054.8649999545887,1,1,2,20341,WMM2,797794,false,false,547,image-keyboard-response,3
true,4,1,2,1,true,z,false,false,0.0-2.0-0.14-0.131-3.131,1,0,1,90,false,stim,false,1,741.8150000157766,1,1,0,20341,WMM2,800040,false,true,550,image-keyboard-response,4
true,4,0,2,0,true,q,false,true,0.0-2.0-0.14-0.132-3.132,1,0,1,81,false,stim,false,0,1453.6250000237487,1,1,2,20341,WMM2,802998,false,false,553,image-keyboard-response,5
true,4,0,2,0,true,q,false,true,0.0-2.0-0.14-0.133-3.133,1,0,1,81,false,stim,false,0,455.07500000530854,1,1,2,20341,WMM2,804957,false,false,556,image-keyboard-response,6
true,4,0,2,0,true,q,false,true,0.0-2.0-0.14-0.134-3.134,1,0,1,81,false,stim,false,2,1784.1649999609217,1,0,1,20341,WMM2,808246,false,false,559,image-keyboard-response,7
true,4,0,2,0,true,q,false,true,0.0-2.0-0.15-0.135-3.135,1,0,1,81,false,stim,false,2,682.375000033062,1,0,1,20341,WMM2,810433,false,false,562,image-keyboard-response,8
true,4,1,2,1,true,z,false,true,0.0-2.0-0.15-0.136-3.136,1,0,1,90,false,stim,false,1,900.4549999954179,1,1,0,20341,WMM2,812838,false,false,565,image-keyboard-response,9
true,4,2,2,0,false,q,true,false,0.0-2.0-0.15-0.137-3.137,1,0,1,68,false,stim,false,0,1722.379999991972,1,1,2,20341,WMM2,816065,false,false,568,image-keyboard-response,10
true,4,2,2,0,false,q,true,false,0.0-2.0-0.15-0.138-3.138,1,0,1,68,false,stim,false,0,578.2799999578856,1,1,2,20341,WMM2,818147,false,false,571,image-keyboard-response,11
true,4,1,2,1,true,z,false,true,0.0-2.0-0.15-0.139-3.139,1,0,1,90,false,stim,false,1,728.4649999928661,1,1,0,20341,WMM2,820380,false,false,574,image-keyboard-response,12
true,4,1,2,1,true,z,false,true,0.0-2.0-0.15-0.140-3.140,1,0,1,90,false,stim,false,1,547.5349999614991,1,1,0,20341,WMM2,822432,false,false,577,image-keyboard-response,13
true,4,1,2,0,false,q,true,false,0.0-2.0-0.15-0.141-3.141,1,0,1,90,false,stim,false,0,453.3850000007078,1,1,2,20341,WMM2,824390,false,false,580,image-keyboard-response,14
true,4,0,2,0,true,q,false,true,0.0-2.0-0.15-0.142-3.142,1,0,1,81,false,stim,false,2,986.4550000056624,1,0,1,20341,WMM2,826880,false,false,583,image-keyboard-response,15
true,4,0,2,0,true,q,false,true,0.0-2.0-0.15-0.143-3.143,1,0,1,81,false,stim,false,2,611.8550000246614,1,0,1,20341,WMM2,828998,false,false,586,image-keyboard-response,16
true,4,1,2,0,false,q,true,false,0.0-2.0-0.16-0.144-3.144,1,0,1,90,false,stim,false,0,1814.6049999631941,1,1,2,20341,WMM2,832317,false,false,589,image-keyboard-response,17
true,4,1,2,1,true,z,false,true,0.0-2.0-0.16-0.145-3.145,1,0,1,90,false,stim,false,1,824.5800000149757,1,1,0,20341,WMM2,834646,false,false,592,image-keyboard-response,18
true,4,1,2,0,false,q,true,false,0.0-2.0-0.16-0.146-3.146,1,0,1,90,false,stim,false,0,1189.4949999987148,1,1,2,20341,WMM2,837340,false,false,595,image-keyboard-response,19
true,4,0,2,0,true,q,false,false,0.0-2.0-0.16-0.147-3.147,1,0,1,81,false,stim,false,0,649.550000031013,1,1,2,20341,WMM2,839494,false,true,598,image-keyboard-response,20
true,4,0,2,0,true,q,false,true,0.0-2.0-0.16-0.148-3.148,1,0,1,81,false,stim,false,2,820.160000002943,1,0,1,20341,WMM2,841821,false,false,601,image-keyboard-response,21
true,4,0,2,0,true,q,false,true,0.0-2.0-0.16-0.149-3.149,1,0,1,81,false,stim,false,2,388.42999999178573,1,0,1,20341,WMM2,843714,false,false,604,image-keyboard-response,22
true,4,1,2,1,true,z,false,true,0.0-2.0-0.16-0.150-3.150,1,0,1,90,false,stim,false,1,1243.1599999545142,1,1,0,20341,WMM2,846462,false,false,607,image-keyboard-response,23
true,4,0,2,0,true,q,false,true,0.0-2.0-0.16-0.151-3.151,1,0,1,81,false,stim,false,2,997.6499999756925,1,0,1,20341,WMM2,848965,false,false,610,image-keyboard-response,24
true,4,1,2,1,true,z,false,true,0.0-2.0-0.16-0.152-3.152,1,0,1,90,false,stim,false,1,986.0500000067987,1,1,0,20341,WMM2,851457,false,false,613,image-keyboard-response,25
true,4,1,2,0,false,q,true,false,0.0-2.0-0.17-0.153-3.153,1,0,1,90,false,stim,false,2,721.4149999781512,1,0,1,20341,WMM2,853683,false,false,616,image-keyboard-response,26
true,4,1,2,1,true,z,false,true,0.0-2.0-0.17-0.154-3.154,1,0,1,90,false,stim,false,1,776.2800000491552,1,1,0,20341,WMM2,855964,false,false,619,image-keyboard-response,27
true,4,2,2,0,false,q,true,false,0.0-2.0-0.17-0.155-3.155,1,0,1,68,false,stim,false,0,1040.0399999925867,1,1,2,20341,WMM2,858509,false,false,622,image-keyboard-response,28
true,4,1,2,0,false,q,true,false,0.0-2.0-0.17-0.156-3.156,1,0,1,90,false,stim,false,0,1415.1699999929406,1,1,2,20341,WMM2,861429,false,false,625,image-keyboard-response,29
true,4,0,2,0,true,q,false,true,0.0-2.0-0.17-0.157-3.157,1,0,1,81,false,stim,false,0,533.2250000210479,1,1,2,20341,WMM2,863468,false,false,628,image-keyboard-response,30
true,4,1,2,1,true,z,false,true,0.0-2.0-0.17-0.158-3.158,1,0,1,90,false,stim,false,1,1499.439999985043,1,1,0,20341,WMM2,866472,false,false,631,image-keyboard-response,31
true,4,0,2,0,true,q,false,true,0.0-2.0-0.17-0.159-3.159,1,0,1,81,false,stim,false,2,745.5049999989569,1,0,1,20341,WMM2,868723,false,false,634,image-keyboard-response,32
true,4,1,2,1,true,z,false,true,0.0-2.0-0.17-0.160-3.160,1,0,1,90,false,stim,false,1,1053.8550000055693,1,1,0,20341,WMM2,871282,false,false,637,image-keyboard-response,33
true,4,0,2,0,true,q,false,true,0.0-2.0-0.17-0.161-3.161,1,0,1,81,false,stim,false,2,1181.815000018105,1,0,1,20341,WMM2,873969,false,false,640,image-keyboard-response,34
true,4,0,2,0,true,q,false,true,0.0-2.0-0.18-0.162-3.162,1,0,1,81,false,stim,false,2,628.2650000066496,1,0,1,20341,WMM2,876103,false,false,643,image-keyboard-response,35
true,4,1,2,0,false,q,true,true,0.0-2.0-0.18-0.163-3.163,1,0,1,90,false,stim,false,0,1134.7999999998137,1,1,2,20341,WMM2,878743,false,true,646,image-keyboard-response,36
true,4,2,2,1,false,z,true,true,0.0-2.0-0.18-0.164-3.164,1,0,1,68,false,stim,false,1,1151.5950000029989,1,1,0,20341,WMM2,881400,false,true,649,image-keyboard-response,37
true,4,1,2,0,false,q,true,false,0.0-2.0-0.18-0.165-3.165,1,0,1,90,false,stim,false,0,1971.0099999792874,1,1,2,20341,WMM2,884877,false,false,652,image-keyboard-response,38
true,4,0,2,0,true,q,false,false,0.0-2.0-0.18-0.166-3.166,1,0,1,81,false,stim,false,2,676.7099999706261,1,0,1,20341,WMM2,887059,false,true,655,image-keyboard-response,39
true,4,0,2,0,true,q,false,true,0.0-2.0-0.18-0.167-3.167,1,0,1,81,false,stim,false,2,388.9049999997951,1,0,1,20341,WMM2,888953,false,false,658,image-keyboard-response,40
true,4,2,2,0,false,q,true,false,0.0-2.0-0.18-0.168-3.168,1,0,1,68,false,stim,false,0,1124.5200000121258,1,1,2,20341,WMM2,891582,false,false,661,image-keyboard-response,41
true,4,1,2,1,true,z,false,true,0.0-2.0-0.18-0.169-3.169,1,0,1,90,false,stim,false,1,927.6900000404567,1,1,0,20341,WMM2,894015,false,false,664,image-keyboard-response,42
true,4,1,2,1,true,z,false,true,0.0-2.0-0.18-0.170-3.170,1,0,1,90,false,stim,false,1,390.5199999571778,1,1,0,20341,WMM2,895912,false,false,667,image-keyboard-response,43
true,4,0,2,0,true,q,false,true,0.0-2.0-0.19-0.171-3.171,1,0,1,81,false,stim,false,2,830.6650000158697,1,0,1,20341,WMM2,898248,false,false,670,image-keyboard-response,44
true,4,2,2,0,false,q,true,false,0.0-2.0-0.19-0.172-3.172,1,0,1,68,false,stim,false,0,754.659999976866,1,1,2,20341,WMM2,900509,false,false,673,image-keyboard-response,45
true,4,0,2,0,true,q,false,true,0.0-2.0-0.19-0.173-3.173,1,0,1,81,false,stim,false,2,588.1250000093132,1,0,1,20341,WMM2,902601,false,false,676,image-keyboard-response,46
true,4,0,2,0,true,q,false,true,0.0-2.0-0.19-0.174-3.174,1,0,1,81,false,stim,false,0,482.8650000272319,1,1,2,20341,WMM2,904589,false,false,679,image-keyboard-response,47
true,4,1,2,1,true,z,false,true,0.0-2.0-0.19-0.175-3.175,1,0,1,90,false,stim,false,1,589.0350000117905,1,1,0,20341,WMM2,906683,false,false,682,image-keyboard-response,48
true,4,1,2,1,true,z,false,true,0.0-2.0-0.19-0.176-3.176,1,0,1,90,false,stim,false,1,646.4799999957904,1,1,0,20341,WMM2,908836,false,false,685,image-keyboard-response,49
true,4,0,2,0,true,q,false,true,0.0-2.0-0.19-0.177-3.177,1,0,1,81,false,stim,false,2,641.4849999709986,1,0,1,20341,WMM2,910983,false,false,688,image-keyboard-response,50
true,4,1,2,0,false,q,true,false,0.0-2.0-0.19-0.178-3.178,1,0,1,90,false,stim,false,0,2364.014999999199,1,0,2,20341,WMM2,914852,false,false,691,image-keyboard-response,51
true,4,1,2,1,true,z,false,true,0.0-2.0-0.19-0.179-3.179,1,0,1,90,false,stim,false,1,1245.5649999901652,1,1,0,20341,WMM2,917602,false,false,694,image-keyboard-response,52
true,4,0,2,0,true,q,false,true,0.0-2.0-0.20-0.180-3.180,1,0,1,81,false,stim,false,2,769.9750000028871,1,1,1,20341,WMM2,919877,false,false,697,image-keyboard-response,53
true,4,1,2,1,true,z,false,false,0.0-2.0-0.20-0.181-3.181,1,0,1,90,false,stim,false,1,717.6249999902211,1,1,0,20341,WMM2,922099,false,true,700,image-keyboard-response,54
true,4,0,2,0,true,q,false,true,0.0-2.0-0.20-0.182-3.182,1,0,1,81,false,stim,false,0,1554.7250000527129,1,0,2,20341,WMM2,925161,false,false,703,image-keyboard-response,55
true,4,1,2,1,true,z,false,true,0.0-2.0-0.20-0.183-3.183,1,0,1,90,false,stim,false,1,840.3249999973923,1,1,0,20341,WMM2,927506,false,false,706,image-keyboard-response,56
true,4,0,2,0,true,q,false,true,0.0-2.0-0.20-0.184-3.184,1,0,1,81,false,stim,false,0,1327.3799999733455,1,0,2,20341,WMM2,930337,false,false,709,image-keyboard-response,57
true,4,0,2,0,true,q,false,true,0.0-2.0-0.20-0.185-3.185,1,0,1,81,false,stim,false,0,445.4000000259839,1,0,2,20341,WMM2,932288,false,false,712,image-keyboard-response,58
true,4,1,2,1,true,z,false,true,0.0-2.0-0.20-0.186-3.186,1,0,1,90,false,stim,false,1,1591.1900000064634,1,1,0,20341,WMM2,935383,false,false,715,image-keyboard-response,59
true,4,0,2,0,true,q,false,true,0.0-2.0-0.20-0.187-3.187,1,0,1,81,false,stim,false,2,712.8000000375323,1,1,1,20341,WMM2,937600,false,false,718,image-keyboard-response,60
true,5,0,3,0,true,q,false,true,0.0-2.0-0.20-0.188-3.188,1,1,0,81,true,stim,false,0,603.6249999888241,1,1,1,20341,WMM2,939708,false,false,721,image-keyboard-response,1
true,5,1,3,1,true,z,false,true,0.0-2.0-0.21-0.189-3.189,1,1,0,90,false,stim,false,1,1107.2100000455976,1,1,0,20341,WMM2,942320,false,false,724,image-keyboard-response,2
true,5,0,3,0,true,q,false,true,0.0-2.0-0.21-0.190-3.190,1,1,0,81,false,stim,false,0,1100.574999989476,1,1,1,20341,WMM2,944925,false,false,727,image-keyboard-response,3
true,5,0,3,2,false,d,false,false,0.0-2.0-0.21-0.191-3.191,1,1,0,81,false,stim,true,0,1412.9500000271946,1,0,2,20341,WMM2,947843,false,false,730,image-keyboard-response,4
true,5,0,3,2,false,d,false,false,0.0-2.0-0.21-0.192-3.192,1,1,0,81,false,stim,true,0,703.1500000157394,1,0,2,20341,WMM2,950051,false,false,733,image-keyboard-response,5
true,5,0,3,0,true,q,false,true,0.0-2.0-0.21-0.193-3.193,1,1,0,81,false,stim,false,0,769.2500000121072,1,1,1,20341,WMM2,952325,false,false,736,image-keyboard-response,6
true,5,0,3,0,true,q,false,true,0.0-2.0-0.21-0.194-3.194,1,1,0,81,false,stim,false,0,926.2299999827519,1,1,1,20341,WMM2,954756,false,false,739,image-keyboard-response,7
true,5,1,3,1,true,z,false,true,0.0-2.0-0.21-0.195-3.195,1,1,0,90,false,stim,false,1,914.3799999728799,1,1,0,20341,WMM2,957177,false,false,742,image-keyboard-response,8
true,5,0,3,2,false,d,false,false,0.0-2.0-0.21-0.196-3.196,1,1,0,81,false,stim,true,0,919.4100000313483,1,0,2,20341,WMM2,959601,false,false,745,image-keyboard-response,9
true,5,1,3,1,true,z,false,false,0.0-2.0-0.21-0.197-3.197,1,1,0,90,false,stim,false,1,791.3449999759905,1,1,0,20341,WMM2,961897,false,true,748,image-keyboard-response,10
true,5,1,3,1,true,z,false,false,0.0-2.0-0.22-0.198-3.198,1,1,0,90,false,stim,false,1,528.4300000057556,1,1,0,20341,WMM2,963929,false,true,751,image-keyboard-response,11
true,5,0,3,0,true,q,false,true,0.0-2.0-0.22-0.199-3.199,1,1,0,81,false,stim,false,0,664.1550000058487,1,1,1,20341,WMM2,966098,false,false,754,image-keyboard-response,12
true,5,0,3,0,true,q,false,true,0.0-2.0-0.22-0.200-3.200,1,1,0,81,false,stim,false,0,454.13500000722706,1,1,1,20341,WMM2,968056,false,false,757,image-keyboard-response,13
true,5,0,3,0,true,q,false,true,0.0-2.0-0.22-0.201-3.201,1,1,0,81,false,stim,false,0,687.1499999542721,1,1,1,20341,WMM2,970247,false,false,760,image-keyboard-response,14
true,5,2,3,2,true,d,false,true,0.0-2.0-0.22-0.202-3.202,1,1,0,68,false,stim,false,0,788.9750000322238,1,0,2,20341,WMM2,972540,false,false,763,image-keyboard-response,15
true,5,1,3,1,true,z,false,true,0.0-2.0-0.22-0.203-3.203,1,1,0,90,false,stim,false,1,1116.7249999707565,1,1,0,20341,WMM2,975161,false,false,766,image-keyboard-response,16
true,5,1,3,1,true,z,false,true,0.0-2.0-0.22-0.204-3.204,1,1,0,90,false,stim,false,1,420.00499996356666,1,1,0,20341,WMM2,977085,false,false,769,image-keyboard-response,17
true,5,2,3,2,true,d,false,true,0.0-2.0-0.22-0.205-3.205,1,1,0,68,false,stim,false,0,1810.1449999958277,1,0,2,20341,WMM2,980399,false,false,772,image-keyboard-response,18
true,5,2,3,2,true,d,false,true,0.0-2.0-0.22-0.206-3.206,1,1,0,68,false,stim,false,0,455.1750000100583,1,0,2,20341,WMM2,982358,false,false,775,image-keyboard-response,19
true,5,0,3,0,true,q,false,true,0.0-2.0-0.23-0.207-3.207,1,1,0,81,false,stim,false,0,721.9399999594316,1,1,1,20341,WMM2,984585,false,false,778,image-keyboard-response,20
true,5,2,3,2,true,d,false,true,0.0-2.0-0.23-0.208-3.208,1,1,0,68,false,stim,false,0,695.7399999955669,1,0,2,20341,WMM2,986786,false,false,781,image-keyboard-response,21
true,5,1,3,1,true,z,false,true,0.0-2.0-0.23-0.209-3.209,1,1,0,90,false,stim,false,1,700.23499999661,1,0,0,20341,WMM2,988991,false,false,784,image-keyboard-response,22
true,5,0,3,0,true,q,false,true,0.0-2.0-0.23-0.210-3.210,1,1,0,81,false,stim,false,0,1655.445000040345,1,1,1,20341,WMM2,992150,false,false,787,image-keyboard-response,23
true,5,2,3,2,true,d,false,true,0.0-2.0-0.23-0.211-3.211,1,1,0,68,false,stim,false,0,1100.2299999818206,1,0,2,20341,WMM2,994755,false,false,790,image-keyboard-response,24
true,5,0,3,0,true,q,false,true,0.0-2.0-0.23-0.212-3.212,1,1,0,81,false,stim,false,0,826.984999992419,1,1,1,20341,WMM2,997087,false,false,793,image-keyboard-response,25
true,5,1,3,1,true,z,false,true,0.0-2.0-0.23-0.213-3.213,1,1,0,90,false,stim,false,1,772.8550000465475,1,0,0,20341,WMM2,999365,false,false,796,image-keyboard-response,26
true,5,2,3,2,true,d,false,true,0.0-2.0-0.23-0.214-3.214,1,1,0,68,false,stim,false,0,749.7800000128336,1,0,2,20341,WMM2,1001620,false,false,799,image-keyboard-response,27
true,5,1,3,1,true,z,false,true,0.0-2.0-0.23-0.215-3.215,1,1,0,90,false,stim,false,1,953.8550000288524,1,0,0,20341,WMM2,1004081,false,false,802,image-keyboard-response,28
true,5,0,3,0,true,q,false,true,0.0-2.0-0.24-0.216-3.216,1,1,0,81,false,stim,false,0,841.4600000251085,1,1,1,20341,WMM2,1006427,false,false,805,image-keyboard-response,29
true,5,2,3,2,true,d,false,false,0.0-2.0-0.24-0.217-3.217,1,1,0,68,false,stim,false,0,942.5900000496767,1,0,2,20341,WMM2,1008874,false,true,808,image-keyboard-response,30
true,6,1,1,0,false,q,false,false,0.0-2.0-0.24-0.218-3.218,0,1,0,90,true,stim,true,1,1549.8549999902025,1,0,0,20341,WMM2,1011928,false,false,811,image-keyboard-response,1
true,6,2,1,1,false,z,false,false,0.0-2.0-0.24-0.219-3.219,0,1,0,68,false,stim,true,2,955.8850000030361,1,0,2,20341,WMM2,1014388,false,false,814,image-keyboard-response,2
true,6,1,1,0,false,q,false,false,0.0-2.0-0.24-0.220-3.220,0,1,0,90,false,stim,true,1,768.3149999938905,1,0,0,20341,WMM2,1016662,false,false,817,image-keyboard-response,3
true,6,2,1,1,false,z,false,false,0.0-2.0-0.24-0.221-3.221,0,1,0,68,false,stim,true,2,960.7800000230782,1,0,2,20341,WMM2,1019128,false,false,820,image-keyboard-response,4
true,6,2,1,0,false,q,true,false,0.0-2.0-0.24-0.222-3.222,0,1,0,68,false,stim,false,1,1220.7800000323914,1,0,0,20341,WMM2,1021853,false,false,823,image-keyboard-response,5
true,6,0,1,0,true,q,false,true,0.0-2.0-0.24-0.223-3.223,0,1,0,81,false,stim,false,0,900.2699999837205,1,1,1,20341,WMM2,1024257,false,false,826,image-keyboard-response,6
true,6,0,1,0,true,q,false,false,0.0-2.0-0.24-0.224-3.224,0,1,0,81,false,stim,false,0,633.2050000200979,1,1,1,20341,WMM2,1026395,false,true,829,image-keyboard-response,7
true,6,1,1,1,true,z,false,true,0.0-2.0-0.25-0.225-3.225,0,1,0,90,false,stim,false,2,868.2050000061281,1,0,2,20341,WMM2,1028768,false,false,832,image-keyboard-response,8
true,6,0,1,0,true,q,false,true,0.0-2.0-0.25-0.226-3.226,0,1,0,81,false,stim,false,0,877.0500000100583,1,1,1,20341,WMM2,1031150,false,false,835,image-keyboard-response,9
true,6,1,1,1,true,z,false,true,0.0-2.0-0.25-0.227-3.227,0,1,0,90,false,stim,false,2,1417.3500000033528,1,0,2,20341,WMM2,1034072,false,false,838,image-keyboard-response,10
true,6,2,1,0,false,q,true,false,0.0-2.0-0.25-0.228-3.228,0,1,0,68,false,stim,false,1,961.5500000072643,1,0,0,20341,WMM2,1036538,false,false,841,image-keyboard-response,11
true,6,1,1,1,true,z,false,true,0.0-2.0-0.25-0.229-3.229,0,1,0,90,false,stim,false,2,1009.9949999712408,1,0,2,20341,WMM2,1039053,false,false,844,image-keyboard-response,12
true,6,1,1,0,false,q,false,false,0.0-2.0-0.25-0.230-3.230,0,1,0,90,false,stim,true,1,2067.28999997722,1,0,0,20341,WMM2,1042624,false,false,847,image-keyboard-response,13
true,6,0,1,0,true,q,false,true,0.0-2.0-0.25-0.231-3.231,0,1,0,81,false,stim,false,0,911.359999969136,1,1,1,20341,WMM2,1045040,false,false,850,image-keyboard-response,14
true,6,0,1,0,true,q,false,false,0.0-2.0-0.25-0.232-3.232,0,1,0,81,false,stim,false,0,524.7749999980442,1,1,1,20341,WMM2,1047069,false,true,853,image-keyboard-response,15
true,6,0,1,0,true,q,false,true,0.0-2.0-0.25-0.233-3.233,0,1,0,81,false,stim,false,1,655.5500000249594,1,0,0,20341,WMM2,1049229,false,false,856,image-keyboard-response,16
true,6,0,1,0,true,q,false,true,0.0-2.0-0.26-0.234-3.234,0,1,0,81,false,stim,false,1,537.5900000217371,1,0,0,20341,WMM2,1051271,false,false,859,image-keyboard-response,17
true,6,1,1,1,true,z,false,true,0.0-2.0-0.26-0.235-3.235,0,1,0,90,false,stim,false,2,1241.5950000286102,1,0,2,20341,WMM2,1054017,false,false,862,image-keyboard-response,18
true,6,1,1,1,true,z,false,true,0.0-2.0-0.26-0.236-3.236,0,1,0,90,false,stim,false,2,550.2749999868684,1,0,2,20341,WMM2,1056071,false,false,865,image-keyboard-response,19
true,6,0,1,0,true,q,false,true,0.0-2.0-0.26-0.237-3.237,0,1,0,81,false,stim,false,0,566.9549999875017,1,1,1,20341,WMM2,1058143,false,false,868,image-keyboard-response,20
true,6,0,1,0,true,q,false,true,0.0-2.0-0.26-0.238-3.238,0,1,0,81,false,stim,false,1,1473.1850000098348,1,1,0,20341,WMM2,1061123,false,false,871,image-keyboard-response,21
true,6,0,1,0,true,q,false,true,0.0-2.0-0.26-0.239-3.239,0,1,0,81,false,stim,false,1,486.86499998439103,1,1,0,20341,WMM2,1063114,false,false,874,image-keyboard-response,22
true,6,0,1,0,true,q,false,true,0.0-2.0-0.26-0.240-3.240,0,1,0,81,false,stim,false,0,737.8500000340864,1,1,1,20341,WMM2,1065356,false,false,877,image-keyboard-response,23
true,6,1,1,1,true,z,false,false,0.0-2.0-0.26-0.241-3.241,0,1,0,90,false,stim,false,2,1570.880000013858,1,0,2,20341,WMM2,1068432,false,true,880,image-keyboard-response,24
true,6,0,1,0,true,q,false,true,0.0-2.0-0.26-0.242-3.242,0,1,0,81,false,stim,false,0,836.3150000222959,1,1,1,20341,WMM2,1070772,false,false,883,image-keyboard-response,25
true,6,0,1,0,true,q,false,true,0.0-2.0-0.27-0.243-3.243,0,1,0,81,false,stim,false,1,961.7849999922328,1,1,0,20341,WMM2,1073239,false,false,886,image-keyboard-response,26
true,6,0,1,0,true,q,false,true,0.0-2.0-0.27-0.244-3.244,0,1,0,81,false,stim,false,1,752.1650000126101,1,1,0,20341,WMM2,1075495,false,false,889,image-keyboard-response,27
true,6,0,1,0,true,q,false,false,0.0-2.0-0.27-0.245-3.245,0,1,0,81,false,stim,false,0,960.1949999923818,1,1,1,20341,WMM2,1077960,false,true,892,image-keyboard-response,28
true,6,0,1,0,true,q,false,true,0.0-2.0-0.27-0.246-3.246,0,1,0,81,false,stim,false,0,822.5699999602512,1,1,1,20341,WMM2,1080287,false,false,895,image-keyboard-response,29
true,6,1,1,1,true,z,false,true,0.0-2.0-0.27-0.247-3.247,0,1,0,90,false,stim,false,2,993.5000000405125,1,0,2,20341,WMM2,1082785,false,false,898,image-keyboard-response,30
true,7,0,2,0,true,q,false,true,0.0-2.0-0.27-0.248-3.248,1,1,0,81,true,stim,false,0,961.6299999761395,1,1,0,20341,WMM2,1085254,false,false,901,image-keyboard-response,1
true,7,1,2,2,false,d,false,false,0.0-2.0-0.27-0.249-3.249,1,1,0,90,false,stim,true,1,1737.0999999693595,1,0,2,20341,WMM2,1088496,false,false,904,image-keyboard-response,2
true,7,1,2,2,false,d,false,true,0.0-2.0-0.27-0.250-3.250,1,1,0,90,false,stim,true,1,482.94000001624227,1,0,2,20341,WMM2,1090483,false,true,907,image-keyboard-response,3
true,7,0,2,0,true,q,false,true,0.0-2.0-0.27-0.251-3.251,1,1,0,81,false,stim,false,0,568.72999999905,1,1,1,20341,WMM2,1092555,false,false,910,image-keyboard-response,4
true,7,1,2,2,false,d,false,false,0.0-2.0-0.28-0.252-3.252,1,1,0,90,false,stim,true,1,744.1400000243448,1,0,2,20341,WMM2,1094804,false,false,913,image-keyboard-response,5
true,7,0,2,0,true,q,false,true,0.0-2.0-0.28-0.253-3.253,1,1,0,81,false,stim,false,0,780.2300000330433,1,1,0,20341,WMM2,1097088,false,false,916,image-keyboard-response,6
true,7,0,2,0,true,q,false,true,0.0-2.0-0.28-0.254-3.254,1,1,0,81,false,stim,false,0,677.6200000313111,1,1,0,20341,WMM2,1099271,false,false,919,image-keyboard-response,7
true,7,0,2,0,true,q,false,true,0.0-2.0-0.28-0.255-3.255,1,1,0,81,false,stim,false,0,570.3449999564327,1,1,0,20341,WMM2,1101345,false,false,922,image-keyboard-response,8
true,7,0,2,0,true,q,false,true,0.0-2.0-0.28-0.256-3.256,1,1,0,81,false,stim,false,0,626.2449999921955,1,1,1,20341,WMM2,1103476,false,false,925,image-keyboard-response,9
true,7,1,2,2,false,d,false,true,0.0-2.0-0.28-0.257-3.257,1,1,0,90,false,stim,true,1,1298.7900000298396,1,0,2,20341,WMM2,1106281,false,true,928,image-keyboard-response,10
true,7,0,2,0,true,q,false,true,0.0-2.0-0.28-0.258-3.258,1,1,0,81,false,stim,false,0,789.8699999786913,1,1,1,20341,WMM2,1108575,false,false,931,image-keyboard-response,11
true,7,0,2,0,true,q,false,true,0.0-2.0-0.28-0.259-3.259,1,1,0,81,false,stim,false,0,964.7000000113621,1,1,1,20341,WMM2,1111044,false,false,934,image-keyboard-response,12
true,7,1,2,2,false,d,false,false,0.0-2.0-0.28-0.260-3.260,1,1,0,90,false,stim,true,1,1308.1349999993108,1,0,2,20341,WMM2,1113857,false,false,937,image-keyboard-response,13
true,7,1,2,2,false,d,false,false,0.0-2.0-0.29-0.261-3.261,1,1,0,90,false,stim,true,1,563.2850000401959,1,0,2,20341,WMM2,1115925,false,false,940,image-keyboard-response,14
true,7,0,2,0,true,q,false,true,0.0-2.0-0.29-0.262-3.262,1,1,0,81,false,stim,false,0,627.3099999525584,1,1,1,20341,WMM2,1118057,false,false,943,image-keyboard-response,15
true,7,0,2,0,true,q,false,true,0.0-2.0-0.29-0.263-3.263,1,1,0,81,false,stim,false,0,867.4549999996088,1,1,0,20341,WMM2,1120429,false,false,946,image-keyboard-response,16
true,7,1,2,2,false,d,false,false,0.0-2.0-0.29-0.264-3.264,1,1,0,90,false,stim,true,1,1036.3049999577925,1,0,2,20341,WMM2,1122970,false,false,949,image-keyboard-response,17
true,7,0,2,0,true,q,false,true,0.0-2.0-0.29-0.265-3.265,1,1,0,81,false,stim,false,0,495.1949999667704,1,1,1,20341,WMM2,1124970,false,false,952,image-keyboard-response,18
true,7,0,2,0,true,q,false,true,0.0-2.0-0.29-0.266-3.266,1,1,0,81,false,stim,false,0,368.57499997131526,1,1,0,20341,WMM2,1126843,false,false,955,image-keyboard-response,19
true,7,0,2,0,true,q,false,true,0.0-2.0-0.29-0.267-3.267,1,1,0,81,false,stim,false,0,444.58499999018386,1,1,0,20341,WMM2,1128792,false,false,958,image-keyboard-response,20
true,7,1,2,2,false,d,false,false,0.0-2.0-0.29-0.268-3.268,1,1,0,90,false,stim,true,1,732.4650000082329,1,0,2,20341,WMM2,1131030,false,false,961,image-keyboard-response,21
true,7,0,2,0,true,q,false,true,0.0-2.0-0.29-0.269-3.269,1,1,0,81,false,stim,false,0,533.5250000352971,1,1,1,20341,WMM2,1133069,false,false,964,image-keyboard-response,22
true,7,2,2,2,true,d,false,false,0.0-2.0-0.30-0.270-3.270,1,1,0,68,false,stim,false,1,606.1300000292249,1,0,2,20341,WMM2,1135180,false,true,967,image-keyboard-response,23
true,7,0,2,0,true,q,false,true,0.0-2.0-0.30-0.271-3.271,1,1,0,81,false,stim,false,0,1556.8399999756366,1,1,0,20341,WMM2,1138245,false,false,970,image-keyboard-response,24
true,7,0,2,0,true,q,false,true,0.0-2.0-0.30-0.272-3.272,1,1,0,81,false,stim,false,0,448.1899999664165,1,1,0,20341,WMM2,1140198,false,false,973,image-keyboard-response,25
true,7,0,2,0,true,q,false,false,0.0-2.0-0.30-0.273-3.273,1,1,0,81,false,stim,false,0,1171.295000007376,1,1,1,20341,WMM2,1142875,false,true,976,image-keyboard-response,26
true,7,0,2,2,false,d,true,false,0.0-2.0-0.30-0.274-3.274,1,1,0,81,false,stim,false,1,706.3850000267848,1,0,2,20341,WMM2,1145088,false,false,979,image-keyboard-response,27
true,7,0,2,0,true,q,false,true,0.0-2.0-0.30-0.275-3.275,1,1,0,81,false,stim,false,0,867.3249999992549,1,1,1,20341,WMM2,1147460,false,false,982,image-keyboard-response,28
true,7,2,2,2,true,d,false,true,0.0-2.0-0.30-0.276-3.276,1,1,0,68,false,stim,false,1,1022.1600000513718,1,0,2,20341,WMM2,1149988,false,false,985,image-keyboard-response,29
true,7,0,2,0,true,q,false,true,0.0-2.0-0.30-0.277-3.277,1,1,0,81,false,stim,false,0,573.0750000220723,1,1,0,20341,WMM2,1152067,false,false,988,image-keyboard-response,30
true,7,0,2,0,true,q,false,true,0.0-2.0-0.30-0.278-3.278,1,1,0,81,false,stim,false,0,1068.1800000020303,1,1,1,20341,WMM2,1154641,false,false,991,image-keyboard-response,31
true,7,0,2,0,true,q,false,true,0.0-2.0-0.31-0.279-3.279,1,1,0,81,false,stim,false,0,1658.7999999755993,1,1,0,20341,WMM2,1157806,false,false,994,image-keyboard-response,32
true,7,0,2,0,true,q,false,false,0.0-2.0-0.31-0.280-3.280,1,1,0,81,false,stim,false,0,613.1600000080653,1,1,0,20341,WMM2,1159926,false,true,997,image-keyboard-response,33
true,7,2,2,2,true,d,false,true,0.0-2.0-0.31-0.281-3.281,1,1,0,68,false,stim,false,1,664.4000000087544,1,0,2,20341,WMM2,1162096,false,false,1000,image-keyboard-response,34
true,7,0,2,0,true,q,false,true,0.0-2.0-0.31-0.282-3.282,1,1,0,81,false,stim,false,0,712.0899999863468,1,1,1,20341,WMM2,1164317,false,false,1003,image-keyboard-response,35
true,7,2,2,2,true,d,false,true,0.0-2.0-0.31-0.283-3.283,1,1,0,68,false,stim,false,1,749.149999988731,1,0,2,20341,WMM2,1166570,false,false,1006,image-keyboard-response,36
true,7,0,2,0,true,q,false,false,0.0-2.0-0.31-0.284-3.284,1,1,0,81,false,stim,false,0,852.8800000203773,1,1,1,20341,WMM2,1168928,false,true,1009,image-keyboard-response,37
true,7,0,2,0,true,q,false,false,0.0-2.0-0.31-0.285-3.285,1,1,0,81,false,stim,false,0,1080.0000000162981,1,1,1,20341,WMM2,1171512,false,true,1012,image-keyboard-response,38
true,7,0,2,0,true,q,false,true,0.0-2.0-0.31-0.286-3.286,1,1,0,81,false,stim,false,0,769.7899999911897,1,1,0,20341,WMM2,1173786,false,false,1015,image-keyboard-response,39
true,7,2,2,2,true,d,false,true,0.0-2.0-0.31-0.287-3.287,1,1,0,68,false,stim,false,1,1753.1249999883585,1,0,2,20341,WMM2,1177043,false,false,1018,image-keyboard-response,40
true,7,2,2,2,true,d,false,true,0.0-2.0-0.32-0.288-3.288,1,1,0,68,false,stim,false,1,994.2500000470318,1,0,2,20341,WMM2,1179543,false,false,1021,image-keyboard-response,41
true,7,0,2,0,true,q,false,false,0.0-2.0-0.32-0.289-3.289,1,1,0,81,false,stim,false,0,1036.324999993667,1,1,1,20341,WMM2,1182083,false,true,1024,image-keyboard-response,42
true,7,2,2,2,true,d,false,true,0.0-2.0-0.32-0.290-3.290,1,1,0,68,false,stim,false,1,2181.1499999603257,1,0,2,20341,WMM2,1185769,false,false,1027,image-keyboard-response,43
true,7,0,2,0,true,q,false,true,0.0-2.0-0.32-0.291-3.291,1,1,0,81,false,stim,false,0,1606.0799999977462,1,1,0,20341,WMM2,1188879,false,false,1030,image-keyboard-response,44
false,8,-1,4,0,false,q,true,false,0.0-2.0-0.32-0.292-3.292,1,1,0,,true,stim,false,0,,1,1,0,20341,WMM2,1193385,false,false,1033,image-keyboard-response,1
true,8,2,4,2,true,d,false,true,0.0-2.0-0.32-0.293-3.293,1,1,0,68,false,stim,false,2,1718.605000001844,1,0,2,20341,WMM2,1196609,false,false,1036,image-keyboard-response,2
true,8,0,4,0,true,q,false,true,0.0-2.0-0.32-0.294-3.294,1,1,0,81,false,stim,false,0,1315.8699999912642,1,1,1,20341,WMM2,1199431,false,false,1039,image-keyboard-response,3
true,8,0,4,0,true,q,false,true,0.0-2.0-0.32-0.295-3.295,1,1,0,81,false,stim,false,0,583.3550000097603,1,1,1,20341,WMM2,1201519,false,false,1042,image-keyboard-response,4
true,8,0,4,0,true,q,false,false,0.0-2.0-0.32-0.296-3.296,1,1,0,81,false,stim,false,0,887.9000000306405,1,1,0,20341,WMM2,1203911,false,true,1045,image-keyboard-response,5
true,8,2,4,2,true,d,false,true,0.0-2.0-0.33-0.297-3.297,1,1,0,68,false,stim,false,2,1050.3649999736808,1,0,2,20341,WMM2,1206466,false,false,1048,image-keyboard-response,6
true,8,1,4,0,false,q,true,false,0.0-2.0-0.33-0.298-3.298,1,1,0,90,false,stim,false,0,1214.3250000081025,1,1,1,20341,WMM2,1209185,false,false,1051,image-keyboard-response,7
true,8,0,4,0,true,q,false,true,0.0-2.0-0.33-0.299-3.299,1,1,0,81,false,stim,false,0,773.8850000314415,1,1,0,20341,WMM2,1211464,false,false,1054,image-keyboard-response,8
true,8,0,4,0,true,q,false,false,0.0-2.0-0.33-0.300-3.300,1,1,0,81,false,stim,false,0,1071.2850000127219,1,1,0,20341,WMM2,1214040,false,true,1057,image-keyboard-response,9
true,8,2,4,2,true,d,false,true,0.0-2.0-0.33-0.301-3.301,1,1,0,68,false,stim,false,2,485.0499999593012,1,0,2,20341,WMM2,1216030,false,false,1060,image-keyboard-response,10
true,8,1,4,0,false,q,true,false,0.0-2.0-0.33-0.302-3.302,1,1,0,90,false,stim,false,0,951.984999992419,1,1,1,20341,WMM2,1218488,false,false,1063,image-keyboard-response,11
true,8,0,4,0,true,q,false,false,0.0-2.0-0.33-0.303-3.303,1,1,0,81,false,stim,false,0,620.5550000304356,1,1,1,20341,WMM2,1220613,false,true,1066,image-keyboard-response,12
true,8,2,4,2,true,d,false,true,0.0-2.0-0.33-0.304-3.304,1,1,0,68,false,stim,false,2,668.4000000241213,1,0,2,20341,WMM2,1222786,false,false,1069,image-keyboard-response,13
true,8,0,4,0,true,q,false,true,0.0-2.0-0.33-0.305-3.305,1,1,0,81,false,stim,false,0,715.2500000083819,1,1,0,20341,WMM2,1225006,false,false,1072,image-keyboard-response,14
true,8,1,4,0,false,q,true,false,0.0-2.0-0.34-0.306-3.306,1,1,0,90,false,stim,false,0,2458.1499999621883,1,1,1,20341,WMM2,1228968,false,false,1075,image-keyboard-response,15
true,8,2,4,2,true,d,false,true,0.0-2.0-0.34-0.307-3.307,1,1,0,68,false,stim,false,2,657.3549999739043,1,0,2,20341,WMM2,1231131,false,false,1078,image-keyboard-response,16
true,8,0,4,0,true,q,false,true,0.0-2.0-0.34-0.308-3.308,1,1,0,81,false,stim,false,0,810.8550000470132,1,1,0,20341,WMM2,1233446,false,false,1081,image-keyboard-response,17
true,8,2,4,2,true,d,false,true,0.0-2.0-0.34-0.309-3.309,1,1,0,68,false,stim,false,2,715.0549999787472,1,0,2,20341,WMM2,1235666,false,false,1084,image-keyboard-response,18
true,8,0,4,0,true,q,false,true,0.0-2.0-0.34-0.310-3.310,1,1,0,81,false,stim,false,0,1031.4150000340305,1,1,0,20341,WMM2,1238202,false,false,1087,image-keyboard-response,19
true,8,2,4,2,true,d,false,true,0.0-2.0-0.34-0.311-3.311,1,1,0,68,false,stim,false,2,650.3800000064075,1,0,2,20341,WMM2,1240357,false,false,1090,image-keyboard-response,20
true,8,0,4,0,true,q,false,true,0.0-2.0-0.34-0.312-3.312,1,1,0,81,false,stim,false,0,624.1349999909289,1,1,0,20341,WMM2,1242487,false,false,1093,image-keyboard-response,21
true,8,0,4,0,true,q,false,true,0.0-2.0-0.34-0.313-3.313,1,1,0,81,false,stim,false,0,2774.3849999969825,1,1,1,20341,WMM2,1246767,false,false,1096,image-keyboard-response,22
true,8,0,4,0,true,q,false,true,0.0-2.0-0.34-0.314-3.314,1,1,0,81,false,stim,false,0,490.54999998770654,1,1,1,20341,WMM2,1248764,false,false,1099,image-keyboard-response,23
true,8,2,4,2,true,d,false,true,0.0-2.0-0.35-0.315-3.315,1,1,0,68,false,stim,false,2,773.7199999974109,1,1,2,20341,WMM2,1251048,false,false,1102,image-keyboard-response,24
true,8,0,4,0,true,q,false,false,0.0-2.0-0.35-0.316-3.316,1,1,0,81,false,stim,false,0,693.1099999928847,1,1,0,20341,WMM2,1253246,false,true,1105,image-keyboard-response,25
true,8,2,4,2,true,d,false,true,0.0-2.0-0.35-0.317-3.317,1,1,0,68,false,stim,false,2,682.2950000059791,1,1,2,20341,WMM2,1255433,false,false,1108,image-keyboard-response,26
true,8,0,4,0,true,q,false,true,0.0-2.0-0.35-0.318-3.318,1,1,0,81,false,stim,false,0,1131.8000000319444,1,0,1,20341,WMM2,1258071,false,false,1111,image-keyboard-response,27
true,8,2,4,2,true,d,false,true,0.0-2.0-0.35-0.319-3.319,1,1,0,68,false,stim,false,2,1289.6750000072643,1,1,2,20341,WMM2,1260865,false,false,1114,image-keyboard-response,28
true,8,0,4,0,true,q,false,true,0.0-2.0-0.35-0.320-3.320,1,1,0,81,false,stim,false,0,1196.8449999694712,1,0,1,20341,WMM2,1263566,false,false,1117,image-keyboard-response,29
true,8,0,4,0,true,q,false,true,0.0-2.0-0.35-0.321-3.321,1,1,0,81,false,stim,false,0,728.9999999920838,1,0,1,20341,WMM2,1265800,false,false,1120,image-keyboard-response,30
true,8,1,4,0,false,q,true,false,0.0-2.0-0.35-0.322-3.322,1,1,0,90,false,stim,false,0,1576.8450000323355,1,1,0,20341,WMM2,1268882,false,false,1123,image-keyboard-response,31
true,8,1,4,0,false,q,true,false,0.0-2.0-0.35-0.323-3.323,1,1,0,90,false,stim,false,0,460.08499996969476,1,1,0,20341,WMM2,1270847,false,false,1126,image-keyboard-response,32
true,8,2,4,2,true,d,false,true,0.0-2.0-0.36-0.324-3.324,1,1,0,68,false,stim,false,2,685.8549999888055,1,1,2,20341,WMM2,1273038,false,false,1129,image-keyboard-response,33
true,9,0,3,2,false,d,false,false,0.0-2.0-0.36-0.325-3.325,1,0,1,81,true,stim,true,0,484.0550000080839,1,0,1,20341,WMM2,1275027,false,false,1132,image-keyboard-response,1
true,9,0,3,0,true,q,false,true,0.0-2.0-0.36-0.326-3.326,1,0,1,81,false,stim,false,0,789.989999961108,1,1,0,20341,WMM2,1277322,false,false,1135,image-keyboard-response,2
true,9,0,3,0,true,q,false,true,0.0-2.0-0.36-0.327-3.327,1,0,1,81,false,stim,false,0,566.9249999918975,1,1,0,20341,WMM2,1279393,false,false,1138,image-keyboard-response,3
true,9,1,3,2,false,d,true,false,0.0-2.0-0.36-0.328-3.328,1,0,1,90,false,stim,false,0,887.7900000079535,1,0,1,20341,WMM2,1281785,false,false,1141,image-keyboard-response,4
true,9,2,3,2,true,d,false,true,0.0-2.0-0.36-0.329-3.329,1,0,1,68,false,stim,false,2,927.5849999976344,1,1,2,20341,WMM2,1284216,false,false,1144,image-keyboard-response,5
true,9,0,3,0,true,q,false,true,0.0-2.0-0.36-0.330-3.330,1,0,1,81,false,stim,false,0,814.1600000089966,1,1,0,20341,WMM2,1286535,false,false,1147,image-keyboard-response,6
true,9,2,3,2,true,d,false,true,0.0-2.0-0.36-0.331-3.331,1,0,1,68,false,stim,false,2,1100.2100000041537,1,1,2,20341,WMM2,1289140,false,false,1150,image-keyboard-response,7
true,9,1,3,2,false,d,true,false,0.0-2.0-0.36-0.332-3.332,1,0,1,90,false,stim,false,0,932.9150000121444,1,0,1,20341,WMM2,1291579,false,false,1153,image-keyboard-response,8
true,9,2,3,2,true,d,false,true,0.0-2.0-0.37-0.333-3.333,1,0,1,68,false,stim,false,2,705.8100000140257,1,1,2,20341,WMM2,1293789,false,false,1156,image-keyboard-response,9
true,9,0,3,0,true,q,false,false,0.0-2.0-0.37-0.334-3.334,1,0,1,81,false,stim,false,0,473.0900000431575,1,1,0,20341,WMM2,1295766,false,true,1159,image-keyboard-response,10
true,9,0,3,2,false,d,false,false,0.0-2.0-0.37-0.335-3.335,1,0,1,81,false,stim,true,0,862.699999997858,1,0,1,20341,WMM2,1298134,false,false,1162,image-keyboard-response,11
true,9,2,3,2,true,d,false,true,0.0-2.0-0.37-0.336-3.336,1,0,1,68,false,stim,false,0,386.44500001100823,1,0,1,20341,WMM2,1300025,false,false,1165,image-keyboard-response,12
true,9,2,3,2,true,d,false,true,0.0-2.0-0.37-0.337-3.337,1,0,1,68,false,stim,false,2,426.5449999948032,1,1,2,20341,WMM2,1301956,false,false,1168,image-keyboard-response,13
true,9,0,3,0,true,q,false,true,0.0-2.0-0.37-0.338-3.338,1,0,1,81,false,stim,false,0,531.189999950584,1,1,0,20341,WMM2,1303992,false,false,1171,image-keyboard-response,14
true,9,2,3,2,true,d,false,true,0.0-2.0-0.37-0.339-3.339,1,0,1,68,false,stim,false,2,978.015000000596,1,1,2,20341,WMM2,1306475,false,false,1174,image-keyboard-response,15
true,9,2,3,2,true,d,false,true,0.0-2.0-0.37-0.340-3.340,1,0,1,68,false,stim,false,0,566.1550000077114,1,0,1,20341,WMM2,1308546,false,false,1177,image-keyboard-response,16
true,9,0,3,0,true,q,false,true,0.0-2.0-0.37-0.341-3.341,1,0,1,81,false,stim,false,0,550.1250000088476,1,1,0,20341,WMM2,1310600,false,false,1180,image-keyboard-response,17
true,9,2,3,2,true,d,false,false,0.0-2.0-0.38-0.342-3.342,1,0,1,68,false,stim,false,2,590.8650000346825,1,1,2,20341,WMM2,1312695,false,true,1183,image-keyboard-response,18
true,9,2,3,2,true,d,false,true,0.0-2.0-0.38-0.343-3.343,1,0,1,68,false,stim,false,2,589.5199999795295,1,1,2,20341,WMM2,1314788,false,false,1186,image-keyboard-response,19
true,9,2,3,2,true,d,false,true,0.0-2.0-0.38-0.344-3.344,1,0,1,68,false,stim,false,0,452.4649999802932,1,0,1,20341,WMM2,1316746,false,false,1189,image-keyboard-response,20
true,9,0,3,0,true,q,false,true,0.0-2.0-0.38-0.345-3.345,1,0,1,81,false,stim,false,0,974.3750000488944,1,0,0,20341,WMM2,1319227,false,false,1192,image-keyboard-response,21
true,9,2,3,2,true,d,false,true,0.0-2.0-0.38-0.346-3.346,1,0,1,68,false,stim,false,0,623.4950000070967,1,0,1,20341,WMM2,1321356,false,false,1195,image-keyboard-response,22
true,9,0,3,0,true,q,false,false,0.0-2.0-0.38-0.347-3.347,1,0,1,81,false,stim,false,0,674.1500000352971,1,0,0,20341,WMM2,1323534,false,true,1198,image-keyboard-response,23
true,9,2,3,2,true,d,false,true,0.0-2.0-0.38-0.348-3.348,1,0,1,68,false,stim,false,2,1012.7799999900162,1,1,2,20341,WMM2,1326056,false,false,1201,image-keyboard-response,24
true,9,0,3,0,true,q,false,true,0.0-2.0-0.38-0.349-3.349,1,0,1,81,false,stim,false,0,757.5350000406615,1,0,0,20341,WMM2,1328318,false,false,1204,image-keyboard-response,25
true,9,2,3,2,true,d,false,true,0.0-2.0-0.38-0.350-3.350,1,0,1,68,false,stim,false,0,1235.6049999943934,1,0,1,20341,WMM2,1331058,false,false,1207,image-keyboard-response,26
true,9,2,3,2,true,d,false,false,0.0-2.0-0.39-0.351-3.351,1,0,1,68,false,stim,false,0,433.0799999879673,1,0,1,20341,WMM2,1332996,false,true,1210,image-keyboard-response,27
true,9,2,3,2,true,d,false,true,0.0-2.0-0.39-0.352-3.352,1,0,1,68,false,stim,false,2,559.1199999907985,1,1,2,20341,WMM2,1335060,false,false,1213,image-keyboard-response,28
true,9,2,3,2,true,d,false,true,0.0-2.0-0.39-0.353-3.353,1,0,1,68,false,stim,false,2,518.9849999733269,1,1,2,20341,WMM2,1337085,false,false,1216,image-keyboard-response,29
true,9,2,3,2,true,d,false,true,0.0-2.0-0.39-0.354-3.354,1,0,1,68,false,stim,false,0,1336.055000021588,1,0,1,20341,WMM2,1339925,false,false,1219,image-keyboard-response,30
true,10,2,1,2,true,d,false,true,0.0-2.0-0.39-0.355-3.355,0,0,1,68,true,stim,false,2,1067.0599999721162,1,1,2,20341,WMM2,1342497,false,false,1222,image-keyboard-response,1
true,10,0,1,2,false,d,false,false,0.0-2.0-0.39-0.356-3.356,0,0,1,81,false,stim,true,0,602.5899999658577,1,0,0,20341,WMM2,1344605,false,false,1225,image-keyboard-response,2
true,10,0,1,2,false,d,false,false,0.0-2.0-0.39-0.357-3.357,0,0,1,81,false,stim,true,0,779.4149999972433,1,0,0,20341,WMM2,1346890,false,false,1228,image-keyboard-response,3
true,10,2,1,0,false,q,false,false,0.0-2.0-0.39-0.358-3.358,0,0,1,68,false,stim,true,2,593.0550000048243,1,0,1,20341,WMM2,1348988,false,false,1231,image-keyboard-response,4
true,10,0,1,2,false,d,false,false,0.0-2.0-0.39-0.359-3.359,0,0,1,81,false,stim,true,0,878.3599999733269,1,0,0,20341,WMM2,1351370,false,false,1234,image-keyboard-response,5
true,10,2,1,0,false,q,false,false,0.0-2.0-0.40-0.360-3.360,0,0,1,68,false,stim,true,2,1076.1150000034831,1,0,1,20341,WMM2,1353951,false,false,1237,image-keyboard-response,6
true,10,1,1,0,false,q,true,false,0.0-2.0-0.40-0.361-3.361,0,0,1,90,false,stim,false,2,888.6350000393577,1,0,1,20341,WMM2,1356345,false,false,1240,image-keyboard-response,7
true,10,0,1,2,false,d,true,false,0.0-2.0-0.40-0.362-3.362,0,0,1,81,false,stim,false,2,900.1600000192411,1,1,2,20341,WMM2,1358750,false,false,1243,image-keyboard-response,8
true,10,2,1,0,false,q,false,true,0.0-2.0-0.40-0.363-3.363,0,0,1,68,false,stim,true,2,692.4550000112504,1,0,1,20341,WMM2,1360947,false,true,1246,image-keyboard-response,9
true,10,1,1,2,false,d,true,true,0.0-2.0-0.40-0.364-3.364,0,0,1,90,false,stim,false,0,1187.4800000223331,1,0,0,20341,WMM2,1363640,false,true,1249,image-keyboard-response,10
true,10,0,1,2,false,d,true,false,0.0-2.0-0.40-0.365-3.365,0,0,1,81,false,stim,false,2,1197.9150000261143,1,1,2,20341,WMM2,1366342,false,false,1252,image-keyboard-response,11
true,10,1,1,2,false,d,true,false,0.0-2.0-0.40-0.366-3.366,0,0,1,90,false,stim,false,0,788.8300000340678,1,0,0,20341,WMM2,1368636,false,false,1255,image-keyboard-response,12
true,10,2,1,2,true,d,false,true,0.0-2.0-0.40-0.367-3.367,0,0,1,68,false,stim,false,2,612.0600000140257,1,1,2,20341,WMM2,1370752,false,false,1258,image-keyboard-response,13
true,10,1,1,2,false,d,true,true,0.0-2.0-0.40-0.368-3.368,0,0,1,90,false,stim,false,0,887.9799999995157,1,0,0,20341,WMM2,1373144,false,true,1261,image-keyboard-response,14
true,10,2,1,2,true,d,false,true,0.0-2.0-0.41-0.369-3.369,0,0,1,68,false,stim,false,2,595.644999993965,1,1,2,20341,WMM2,1375244,false,false,1264,image-keyboard-response,15
true,10,0,1,0,true,q,false,true,0.0-2.0-0.41-0.370-3.370,0,0,1,81,false,stim,false,2,1077.4999999557622,1,0,1,20341,WMM2,1377827,false,false,1267,image-keyboard-response,16
true,10,1,1,2,false,d,true,false,0.0-2.0-0.41-0.371-3.371,0,0,1,90,false,stim,false,0,615.3200000408106,1,0,0,20341,WMM2,1379948,false,false,1270,image-keyboard-response,17
true,10,2,1,2,true,d,false,true,0.0-2.0-0.41-0.372-3.372,0,0,1,68,false,stim,false,2,704.4050000258721,1,1,2,20341,WMM2,1382157,false,false,1273,image-keyboard-response,18
true,10,1,1,2,false,d,true,false,0.0-2.0-0.41-0.373-3.373,0,0,1,90,false,stim,false,0,1002.1149999811314,1,0,0,20341,WMM2,1384664,false,false,1276,image-keyboard-response,19
true,10,1,1,0,false,q,true,false,0.0-2.0-0.41-0.374-3.374,0,0,1,90,false,stim,false,2,1213.0050000268966,1,0,1,20341,WMM2,1387382,false,false,1279,image-keyboard-response,20
true,10,2,1,2,true,d,false,false,0.0-2.0-0.41-0.375-3.375,0,0,1,68,false,stim,false,2,479.66000001179054,1,1,2,20341,WMM2,1389368,false,true,1282,image-keyboard-response,21
true,10,1,1,0,false,q,true,false,0.0-2.0-0.41-0.376-3.376,0,0,1,90,false,stim,false,2,1568.8349999836646,1,0,1,20341,WMM2,1392443,false,false,1285,image-keyboard-response,22
true,10,1,1,2,false,d,true,false,0.0-2.0-0.41-0.377-3.377,0,0,1,90,false,stim,false,0,930.3899999940768,1,0,0,20341,WMM2,1394880,false,false,1288,image-keyboard-response,23
true,10,1,1,2,false,d,true,false,0.0-2.0-0.42-0.378-3.378,0,0,1,90,false,stim,false,0,969.6099999709986,1,0,0,20341,WMM2,1397355,false,false,1291,image-keyboard-response,24
true,10,2,1,2,true,d,false,true,0.0-2.0-0.42-0.379-3.379,0,0,1,68,false,stim,false,2,730.1300000399351,1,1,2,20341,WMM2,1399608,false,false,1294,image-keyboard-response,25
true,10,0,1,0,true,q,false,true,0.0-2.0-0.42-0.380-3.380,0,0,1,81,false,stim,false,2,738.9149999944493,1,0,1,20341,WMM2,1401853,false,false,1297,image-keyboard-response,26
true,10,2,1,2,true,d,false,false,0.0-2.0-0.42-0.381-3.381,0,0,1,68,false,stim,false,2,903.3200000412762,1,1,2,20341,WMM2,1404263,false,true,1300,image-keyboard-response,27
true,10,0,1,0,true,q,false,true,0.0-2.0-0.42-0.382-3.382,0,0,1,81,false,stim,false,2,502.21000000601634,1,0,1,20341,WMM2,1406275,false,false,1303,image-keyboard-response,28
true,10,1,1,2,false,d,true,false,0.0-2.0-0.42-0.383-3.383,0,0,1,90,false,stim,false,0,968.9750000252388,1,0,0,20341,WMM2,1408750,false,false,1306,image-keyboard-response,29
true,10,1,1,2,false,d,true,true,0.0-2.0-0.42-0.384-3.384,0,0,1,90,false,stim,false,0,488.4450000245124,1,0,0,20341,WMM2,1410744,false,true,1309,image-keyboard-response,30
true,10,2,1,2,true,d,false,true,0.0-2.0-0.42-0.385-3.385,0,0,1,68,false,stim,false,2,1200.1349999918602,1,1,2,20341,WMM2,1413450,false,false,1312,image-keyboard-response,31
true,10,0,1,0,true,q,false,true,0.0-2.0-0.42-0.386-3.386,0,0,1,81,false,stim,false,2,749.9199999729171,1,0,1,20341,WMM2,1415706,false,false,1315,image-keyboard-response,32
true,10,0,1,0,true,q,false,true,0.0-2.0-0.43-0.387-3.387,0,0,1,81,false,stim,false,2,564.7200000239536,1,0,1,20341,WMM2,1417778,false,false,1318,image-keyboard-response,33
true,10,1,1,2,false,d,true,false,0.0-2.0-0.43-0.388-3.388,0,0,1,90,false,stim,false,0,878.0550000374205,1,0,0,20341,WMM2,1420162,false,false,1321,image-keyboard-response,34
true,10,2,1,2,true,d,false,true,0.0-2.0-0.43-0.389-3.389,0,0,1,68,false,stim,false,2,740.3250000206754,1,1,2,20341,WMM2,1422408,false,false,1324,image-keyboard-response,35
true,10,2,1,2,true,d,false,true,0.0-2.0-0.43-0.390-3.390,0,0,1,68,false,stim,false,2,556.4400000148453,1,1,2,20341,WMM2,1424471,false,false,1327,image-keyboard-response,36
true,10,0,1,0,true,q,false,true,0.0-2.0-0.43-0.391-3.391,0,0,1,81,false,stim,false,2,979.5450000092387,1,0,1,20341,WMM2,1426956,false,false,1330,image-keyboard-response,37
true,10,2,1,2,true,d,false,true,0.0-2.0-0.43-0.392-3.392,0,0,1,68,false,stim,false,2,650.4600000334904,1,1,2,20341,WMM2,1429113,false,false,1333,image-keyboard-response,38
true,10,0,1,0,true,q,false,false,0.0-2.0-0.43-0.393-3.393,0,0,1,81,false,stim,false,2,1508.1699999864213,1,0,1,20341,WMM2,1432128,false,true,1336,image-keyboard-response,39
true,10,1,1,2,false,d,true,false,0.0-2.0-0.43-0.394-3.394,0,0,1,90,false,stim,false,0,792.7649999619462,1,0,0,20341,WMM2,1434426,false,false,1339,image-keyboard-response,40
true,10,1,1,2,false,d,true,false,0.0-2.0-0.43-0.395-3.395,0,0,1,90,false,stim,false,0,644.0099999890663,1,0,0,20341,WMM2,1436577,false,false,1342,image-keyboard-response,41
true,10,0,1,0,true,q,false,true,0.0-2.0-0.44-0.396-3.396,0,0,1,81,false,stim,false,2,887.7300000167452,1,0,1,20341,WMM2,1438972,false,false,1345,image-keyboard-response,42
true,10,0,1,2,false,d,false,false,0.0-2.0-0.44-0.397-3.397,0,0,1,81,false,stim,true,0,437.0249999919906,1,0,0,20341,WMM2,1440916,false,false,1348,image-keyboard-response,43
true,10,2,1,2,true,d,false,true,0.0-2.0-0.44-0.398-3.398,0,0,1,68,false,stim,false,0,876.285000005737,1,0,0,20341,WMM2,1443299,false,false,1351,image-keyboard-response,44
true,10,2,1,2,true,d,false,true,0.0-2.0-0.44-0.399-3.399,0,0,1,68,false,stim,false,2,1753.8150000036694,1,1,2,20341,WMM2,1446559,false,false,1354,image-keyboard-response,45
true,10,2,1,2,true,d,false,true,0.0-2.0-0.44-0.400-3.400,0,0,1,68,false,stim,false,2,453.8400000310503,1,1,2,20341,WMM2,1448519,false,false,1357,image-keyboard-response,46
true,10,2,1,0,false,q,false,true,0.0-2.0-0.44-0.401-3.401,0,0,1,68,false,stim,true,2,766.3100000354461,1,0,1,20341,WMM2,1450793,false,true,1360,image-keyboard-response,47
true,10,2,1,2,true,d,false,true,0.0-2.0-0.44-0.402-3.402,0,0,1,68,false,stim,false,2,480.9900000109337,1,1,2,20341,WMM2,1452780,false,false,1363,image-keyboard-response,48
true,10,2,1,2,true,d,false,true,0.0-2.0-0.44-0.403-3.403,0,0,1,68,false,stim,false,0,1082.6349999988452,1,0,0,20341,WMM2,1455370,false,false,1366,image-keyboard-response,49
true,10,2,1,0,false,q,false,false,0.0-2.0-0.44-0.404-3.404,0,0,1,68,false,stim,true,2,651.0049999924377,1,0,1,20341,WMM2,1457527,false,false,1369,image-keyboard-response,50
true,10,2,1,2,true,d,false,true,0.0-2.0-0.45-0.405-3.405,0,0,1,68,false,stim,false,0,405.89999995427206,1,1,0,20341,WMM2,1459440,false,false,1372,image-keyboard-response,51
true,10,2,1,2,true,d,false,true,0.0-2.0-0.45-0.406-3.406,0,0,1,68,false,stim,false,2,497.2599999746308,1,1,2,20341,WMM2,1461442,false,false,1375,image-keyboard-response,52
true,10,2,1,2,true,d,false,true,0.0-2.0-0.45-0.407-3.407,0,0,1,68,false,stim,false,2,446.82999997166917,1,1,2,20341,WMM2,1463394,false,false,1378,image-keyboard-response,53
true,10,2,1,2,true,d,false,true,0.0-2.0-0.45-0.408-3.408,0,0,1,68,false,stim,false,0,911.7149999947287,1,1,0,20341,WMM2,1465810,false,false,1381,image-keyboard-response,54
true,10,2,1,2,true,d,false,true,0.0-2.0-0.45-0.409-3.409,0,0,1,68,false,stim,false,0,390.80499997362494,1,1,0,20341,WMM2,1467705,false,false,1384,image-keyboard-response,55
true,10,0,1,0,true,q,false,true,0.0-2.0-0.45-0.410-3.410,0,0,1,81,false,stim,false,2,1432.4550000019372,1,0,1,20341,WMM2,1470642,false,false,1387,image-keyboard-response,56
true,10,0,1,0,true,q,false,true,0.0-2.0-0.45-0.411-3.411,0,0,1,81,false,stim,false,2,446.56499999109656,1,0,1,20341,WMM2,1472593,false,false,1390,image-keyboard-response,57
true,10,2,1,2,true,d,false,true,0.0-2.0-0.45-0.412-3.412,0,0,1,68,false,stim,false,2,762.3450000537559,1,1,2,20341,WMM2,1474860,false,false,1393,image-keyboard-response,58
true,10,0,1,0,true,q,false,true,0.0-2.0-0.45-0.413-3.413,0,0,1,81,false,stim,false,2,1080.0949999829754,1,0,1,20341,WMM2,1477445,false,false,1396,image-keyboard-response,59
true,10,2,1,2,true,d,false,false,0.0-2.0-0.46-0.414-3.414,0,0,1,68,false,stim,false,0,1005.2350000478327,1,1,0,20341,WMM2,1479955,false,true,1399,image-keyboard-response,60
true,11,0,4,0,true,q,false,true,0.0-2.0-0.46-0.415-3.415,1,0,1,81,true,stim,false,0,634.9849999533035,1,0,1,20341,WMM2,1482100,false,false,1402,image-keyboard-response,1
true,11,0,4,0,true,q,false,true,0.0-2.0-0.46-0.416-3.416,1,0,1,81,false,stim,false,0,410.7150000054389,1,0,1,20341,WMM2,1484015,false,false,1405,image-keyboard-response,2
true,11,2,4,2,true,d,false,true,0.0-2.0-0.46-0.417-3.417,1,0,1,68,false,stim,false,2,717.0650000334717,1,1,2,20341,WMM2,1486236,false,false,1408,image-keyboard-response,3
true,11,2,4,2,true,d,false,false,0.0-2.0-0.46-0.418-3.418,1,0,1,68,false,stim,false,2,648.5600000014529,1,1,2,20341,WMM2,1488390,false,true,1411,image-keyboard-response,4
true,11,2,4,2,true,d,false,true,0.0-2.0-0.46-0.419-3.419,1,0,1,68,false,stim,false,2,1116.2350000231527,1,1,0,20341,WMM2,1491010,false,false,1414,image-keyboard-response,5
true,11,2,4,2,true,d,false,false,0.0-2.0-0.46-0.420-3.420,1,0,1,68,false,stim,false,2,1646.0499999811873,1,1,2,20341,WMM2,1494162,false,true,1417,image-keyboard-response,6
true,11,2,4,2,true,d,false,true,0.0-2.0-0.46-0.421-3.421,1,0,1,68,false,stim,false,2,997.7350000408478,1,1,0,20341,WMM2,1496664,false,false,1420,image-keyboard-response,7
true,11,0,4,0,true,q,false,true,0.0-2.0-0.46-0.422-3.422,1,0,1,81,false,stim,false,0,1138.474999985192,1,0,1,20341,WMM2,1499307,false,false,1423,image-keyboard-response,8
true,11,1,4,2,false,d,true,false,0.0-2.0-0.47-0.423-3.423,1,0,1,90,false,stim,false,2,862.2549999854527,1,1,0,20341,WMM2,1501676,false,false,1426,image-keyboard-response,9
true,11,0,4,0,true,q,false,true,0.0-2.0-0.47-0.424-3.424,1,0,1,81,false,stim,false,0,551.2950000120327,1,0,1,20341,WMM2,1503731,false,false,1429,image-keyboard-response,10
true,11,0,4,0,true,q,false,true,0.0-2.0-0.47-0.425-3.425,1,0,1,81,false,stim,false,0,425.47000001650304,1,0,1,20341,WMM2,1505662,false,false,1432,image-keyboard-response,11
true,11,2,4,2,true,d,false,true,0.0-2.0-0.47-0.426-3.426,1,0,1,68,false,stim,false,2,1028.0199999688193,1,1,2,20341,WMM2,1508194,false,false,1435,image-keyboard-response,12
true,11,2,4,2,true,d,false,true,0.0-2.0-0.47-0.427-3.427,1,0,1,68,false,stim,false,2,434.7249999991618,1,1,2,20341,WMM2,1510134,false,false,1438,image-keyboard-response,13
true,11,2,4,2,true,d,false,true,0.0-2.0-0.47-0.428-3.428,1,0,1,68,false,stim,false,2,375.6699999794364,1,1,2,20341,WMM2,1512014,false,false,1441,image-keyboard-response,14
true,11,0,4,0,true,q,false,true,0.0-2.0-0.47-0.429-3.429,1,0,1,81,false,stim,false,0,695.0250000227243,1,0,1,20341,WMM2,1514214,false,false,1444,image-keyboard-response,15
true,11,2,4,2,true,d,false,true,0.0-2.0-0.47-0.430-3.430,1,0,1,68,false,stim,false,2,1483.73499995796,1,1,0,20341,WMM2,1517202,false,false,1447,image-keyboard-response,16
true,11,2,4,2,true,d,false,true,0.0-2.0-0.47-0.431-3.431,1,0,1,68,false,stim,false,2,581.1199999880046,1,1,0,20341,WMM2,1519288,false,false,1450,image-keyboard-response,17
true,11,2,4,2,true,d,false,true,0.0-2.0-0.48-0.432-3.432,1,0,1,68,false,stim,false,2,1421.15000000922,1,1,2,20341,WMM2,1522214,false,false,1453,image-keyboard-response,18
true,11,2,4,2,true,d,false,true,0.0-2.0-0.48-0.433-3.433,1,0,1,68,false,stim,false,2,930.4150000098161,1,1,2,20341,WMM2,1524649,false,false,1456,image-keyboard-response,19
true,11,0,4,0,true,q,false,true,0.0-2.0-0.48-0.434-3.434,1,0,1,81,false,stim,false,0,778.0250000068918,1,0,1,20341,WMM2,1526932,false,false,1459,image-keyboard-response,20
true,11,0,4,0,true,q,false,true,0.0-2.0-0.48-0.435-3.435,1,0,1,81,false,stim,false,0,397.7900000172667,1,1,1,20341,WMM2,1528836,false,false,1462,image-keyboard-response,21
true,11,0,4,0,true,q,false,true,0.0-2.0-0.48-0.436-3.436,1,0,1,81,false,stim,false,0,694.6699999971315,1,1,1,20341,WMM2,1531036,false,false,1465,image-keyboard-response,22
true,11,2,4,2,true,d,false,true,0.0-2.0-0.48-0.437-3.437,1,0,1,68,false,stim,false,2,1064.6249999990687,1,1,0,20341,WMM2,1533605,false,false,1468,image-keyboard-response,23
true,11,2,4,2,true,d,false,true,0.0-2.0-0.48-0.438-3.438,1,0,1,68,false,stim,false,2,512.1149999904446,1,1,0,20341,WMM2,1535621,false,false,1471,image-keyboard-response,24
true,11,2,4,2,true,d,false,true,0.0-2.0-0.48-0.439-3.439,1,0,1,68,false,stim,false,2,1525.8449999964796,1,0,2,20341,WMM2,1538652,false,false,1474,image-keyboard-response,25
true,11,0,4,2,false,d,true,false,0.0-2.0-0.48-0.440-3.440,1,0,1,81,false,stim,false,2,1233.3549999748357,1,1,0,20341,WMM2,1541391,false,false,1477,image-keyboard-response,26
true,11,0,4,2,false,d,true,false,0.0-2.0-0.49-0.441-3.441,1,0,1,81,false,stim,false,2,927.7849999489263,1,1,0,20341,WMM2,1543824,false,false,1480,image-keyboard-response,27
true,11,2,4,2,true,d,false,true,0.0-2.0-0.49-0.442-3.442,1,0,1,68,false,stim,false,2,694.614999985788,1,0,2,20341,WMM2,1546023,false,false,1483,image-keyboard-response,28
true,11,2,4,2,true,d,false,true,0.0-2.0-0.49-0.443-3.443,1,0,1,68,false,stim,false,2,377.54000001586974,1,0,2,20341,WMM2,1547905,false,false,1486,image-keyboard-response,29
true,11,0,4,0,true,q,false,true,0.0-2.0-0.49-0.444-3.444,1,0,1,81,false,stim,false,0,1111.315000045579,1,1,1,20341,WMM2,1550521,false,false,1489,image-keyboard-response,30
true,12,2,2,2,true,d,false,true,0.0-2.0-0.49-0.445-3.445,1,1,0,68,true,stim,false,2,795.4000000027008,1,1,0,20341,WMM2,1552821,false,false,1492,image-keyboard-response,1
true,12,2,2,0,false,q,false,false,0.0-2.0-0.49-0.446-3.446,1,1,0,68,false,stim,true,2,1276.899999997113,1,0,2,20341,WMM2,1555604,false,false,1495,image-keyboard-response,2
true,12,0,2,0,true,q,false,true,0.0-2.0-0.49-0.447-3.447,1,1,0,81,false,stim,false,0,1050.4749999963678,1,1,1,20341,WMM2,1558160,false,false,1498,image-keyboard-response,3
true,12,0,2,0,true,q,false,false,0.0-2.0-0.49-0.448-3.448,1,1,0,81,false,stim,false,0,489.70500001451,1,1,1,20341,WMM2,1560161,false,true,1501,image-keyboard-response,4
true,12,2,2,2,true,d,false,true,0.0-2.0-0.49-0.449-3.449,1,1,0,68,false,stim,false,2,931.4049999811687,1,1,0,20341,WMM2,1562596,false,false,1504,image-keyboard-response,5
true,12,2,2,0,false,q,false,false,0.0-2.0-0.50-0.450-3.450,1,1,0,68,false,stim,true,2,1227.5450000306591,1,0,2,20341,WMM2,1565330,false,false,1507,image-keyboard-response,6
true,12,2,2,0,false,q,true,false,0.0-2.0-0.50-0.451-3.451,1,1,0,68,false,stim,false,0,302.84499999834225,1,1,1,20341,WMM2,1567137,false,false,1510,image-keyboard-response,7
true,12,2,2,0,false,q,false,false,0.0-2.0-0.50-0.452-3.452,1,1,0,68,false,stim,true,2,685.8049999573268,1,0,2,20341,WMM2,1569329,false,false,1513,image-keyboard-response,8
true,12,2,2,2,true,d,false,true,0.0-2.0-0.50-0.453-3.453,1,1,0,68,false,stim,false,2,691.4600000018254,1,1,0,20341,WMM2,1571525,false,false,1516,image-keyboard-response,9
true,12,2,2,0,false,q,false,false,0.0-2.0-0.50-0.454-3.454,1,1,0,68,false,stim,true,2,798.7450000364333,1,0,2,20341,WMM2,1573829,false,false,1519,image-keyboard-response,10
true,12,2,2,2,true,d,false,true,0.0-2.0-0.50-0.455-3.455,1,1,0,68,false,stim,false,2,540.2950000134297,1,1,0,20341,WMM2,1575874,false,false,1522,image-keyboard-response,11
true,12,0,2,0,true,q,false,true,0.0-2.0-0.50-0.456-3.456,1,1,0,81,false,stim,false,0,353.6450000246987,1,1,1,20341,WMM2,1577732,false,false,1525,image-keyboard-response,12
true,12,0,2,0,true,q,false,true,0.0-2.0-0.50-0.457-3.457,1,1,0,81,false,stim,false,0,486.4800000214018,1,1,1,20341,WMM2,1579723,false,false,1528,image-keyboard-response,13
true,12,2,2,2,true,d,false,true,0.0-2.0-0.50-0.458-3.458,1,1,0,68,false,stim,false,2,832.0049999747425,1,1,0,20341,WMM2,1582060,false,false,1531,image-keyboard-response,14
true,12,0,2,0,true,q,false,true,0.0-2.0-0.51-0.459-3.459,1,1,0,81,false,stim,false,0,412.22499997820705,1,1,1,20341,WMM2,1583977,false,false,1534,image-keyboard-response,15
true,12,0,2,0,true,q,false,true,0.0-2.0-0.51-0.460-3.460,1,1,0,81,false,stim,false,0,450.23499999661,1,1,1,20341,WMM2,1585932,false,false,1537,image-keyboard-response,16
true,12,2,2,2,true,d,false,false,0.0-2.0-0.51-0.461-3.461,1,1,0,68,false,stim,false,2,1383.689999987837,1,1,0,20341,WMM2,1588821,false,true,1540,image-keyboard-response,17
true,12,2,2,2,true,d,false,true,0.0-2.0-0.51-0.462-3.462,1,1,0,68,false,stim,false,2,684.1049999929965,1,1,0,20341,WMM2,1591009,false,false,1543,image-keyboard-response,18
true,12,2,2,0,false,q,false,false,0.0-2.0-0.51-0.463-3.463,1,1,0,68,false,stim,true,2,754.0999999619089,1,0,2,20341,WMM2,1593269,false,false,1546,image-keyboard-response,19
true,12,2,2,0,false,q,false,false,0.0-2.0-0.51-0.464-3.464,1,1,0,68,false,stim,true,2,564.4249999895692,1,0,2,20341,WMM2,1595338,false,false,1549,image-keyboard-response,20
true,12,0,2,0,true,q,false,true,0.0-2.0-0.51-0.465-3.465,1,1,0,81,false,stim,false,0,681.5199999837205,1,1,1,20341,WMM2,1597527,false,false,1552,image-keyboard-response,21
true,12,2,2,0,false,q,false,false,0.0-2.0-0.51-0.466-3.466,1,1,0,68,false,stim,true,2,740.2349999756552,1,0,2,20341,WMM2,1599774,false,false,1555,image-keyboard-response,22
true,12,2,2,2,true,d,false,true,0.0-2.0-0.51-0.467-3.467,1,1,0,68,false,stim,false,2,663.0400000140071,1,1,0,20341,WMM2,1601944,false,false,1558,image-keyboard-response,23
true,12,2,2,0,false,q,false,false,0.0-2.0-0.52-0.468-3.468,1,1,0,68,false,stim,true,2,573.934999993071,1,0,2,20341,WMM2,1604024,false,false,1561,image-keyboard-response,24
true,12,2,2,2,true,d,false,true,0.0-2.0-0.52-0.469-3.469,1,1,0,68,false,stim,false,2,797.9999999515712,1,1,0,20341,WMM2,1606330,false,false,1564,image-keyboard-response,25
true,12,0,2,0,true,q,false,true,0.0-2.0-0.52-0.470-3.470,1,1,0,81,false,stim,false,0,878.6800000234507,1,1,1,20341,WMM2,1608714,false,false,1567,image-keyboard-response,26
true,12,0,2,0,true,q,false,true,0.0-2.0-0.52-0.471-3.471,1,1,0,81,false,stim,false,0,390.65999997546896,1,1,1,20341,WMM2,1610612,false,false,1570,image-keyboard-response,27
true,12,2,2,2,true,d,false,true,0.0-2.0-0.52-0.472-3.472,1,1,0,68,false,stim,false,2,1025.5299999844283,1,1,0,20341,WMM2,1613144,false,false,1573,image-keyboard-response,28
true,12,2,2,2,true,d,false,true,0.0-2.0-0.52-0.473-3.473,1,1,0,68,false,stim,false,2,567.8250000346452,1,1,0,20341,WMM2,1615219,false,false,1576,image-keyboard-response,29
true,12,2,2,0,false,q,false,false,0.0-2.0-0.52-0.474-3.474,1,1,0,68,false,stim,true,2,906.9749999907799,1,0,2,20341,WMM2,1617633,false,false,1579,image-keyboard-response,30
true,12,0,2,0,true,q,false,true,0.0-2.0-0.52-0.475-3.475,1,1,0,81,false,stim,false,2,811.9049999513663,1,0,2,20341,WMM2,1619953,false,false,1582,image-keyboard-response,31
true,12,2,2,0,false,q,true,false,0.0-2.0-0.52-0.476-3.476,1,1,0,68,false,stim,false,0,1042.9950000252575,1,1,1,20341,WMM2,1622504,false,false,1585,image-keyboard-response,32
true,12,2,2,2,true,d,false,false,0.0-2.0-0.53-0.477-3.477,1,1,0,68,false,stim,false,2,650.9550000191666,1,1,0,20341,WMM2,1624662,false,true,1588,image-keyboard-response,33
true,12,2,2,2,true,d,false,false,0.0-2.0-0.53-0.478-3.478,1,1,0,68,false,stim,false,2,649.3950000149198,1,1,0,20341,WMM2,1626818,false,true,1591,image-keyboard-response,34
true,12,2,2,0,false,q,false,false,0.0-2.0-0.53-0.479-3.479,1,1,0,68,false,stim,true,2,1564.2249999800697,1,0,2,20341,WMM2,1629889,false,false,1594,image-keyboard-response,35
true,12,0,2,0,true,q,false,false,0.0-2.0-0.53-0.480-3.480,1,1,0,81,false,stim,false,2,581.9500000216067,1,0,2,20341,WMM2,1631978,false,true,1597,image-keyboard-response,36
true,12,1,2,0,false,q,true,false,0.0-2.0-0.53-0.481-3.481,1,1,0,90,false,stim,false,0,646.984999999404,1,1,1,20341,WMM2,1634133,false,false,1600,image-keyboard-response,37
true,12,0,2,0,true,q,false,true,0.0-2.0-0.53-0.482-3.482,1,1,0,81,false,stim,false,0,712.7800000016578,1,1,1,20341,WMM2,1636361,false,false,1603,image-keyboard-response,38
true,12,1,2,0,false,q,true,true,0.0-2.0-0.53-0.483-3.483,1,1,0,90,false,stim,false,2,847.2300000139512,1,0,2,20341,WMM2,1638714,false,true,1606,image-keyboard-response,39
true,12,0,2,0,true,q,false,true,0.0-2.0-0.53-0.484-3.484,1,1,0,81,false,stim,false,0,709.4349999679253,1,1,1,20341,WMM2,1640931,false,false,1609,image-keyboard-response,40
true,12,2,2,2,true,d,false,true,0.0-2.0-0.53-0.485-3.485,1,1,0,68,false,stim,false,2,628.1399999861605,1,1,0,20341,WMM2,1643066,false,false,1612,image-keyboard-response,41
true,12,2,2,2,true,d,false,true,0.0-2.0-0.54-0.486-3.486,1,1,0,68,false,stim,false,2,1066.1899999831803,1,1,0,20341,WMM2,1645639,false,false,1615,image-keyboard-response,42
true,12,2,2,2,true,d,false,true,0.0-2.0-0.54-0.487-3.487,1,1,0,68,false,stim,false,2,1647.3549999645911,1,1,0,20341,WMM2,1648793,false,false,1618,image-keyboard-response,43
true,12,0,2,0,true,q,false,true,0.0-2.0-0.54-0.488-3.488,1,1,0,81,false,stim,false,2,702.7649999945424,1,0,2,20341,WMM2,1651002,false,false,1621,image-keyboard-response,44
true,12,0,2,0,true,q,false,true,0.0-2.0-0.54-0.489-3.489,1,1,0,81,false,stim,false,2,783.800000033807,1,0,2,20341,WMM2,1653294,false,false,1624,image-keyboard-response,45
true,12,1,2,0,false,q,true,false,0.0-2.0-0.54-0.490-3.490,1,1,0,90,false,stim,false,0,740.810000046622,1,1,1,20341,WMM2,1655543,false,false,1627,image-keyboard-response,46
true,12,0,2,0,true,q,false,false,0.0-2.0-0.54-0.491-3.491,1,1,0,81,false,stim,false,0,513.3800000185147,1,1,1,20341,WMM2,1657560,false,true,1630,image-keyboard-response,47
true,12,2,2,0,false,q,true,false,0.0-2.0-0.54-0.492-3.492,1,1,0,68,false,stim,false,0,681.35499994969,1,1,1,20341,WMM2,1659747,false,false,1633,image-keyboard-response,48
true,12,0,2,0,true,q,false,true,0.0-2.0-0.54-0.493-3.493,1,1,0,81,false,stim,false,2,809.1099999728613,1,1,2,20341,WMM2,1662061,false,false,1636,image-keyboard-response,49
true,12,2,2,2,true,d,false,true,0.0-2.0-0.54-0.494-3.494,1,1,0,68,false,stim,false,2,1040.0649999501184,1,0,0,20341,WMM2,1664606,false,false,1639,image-keyboard-response,50
true,12,0,2,0,true,q,false,true,0.0-2.0-0.55-0.495-3.495,1,1,0,81,false,stim,false,2,814.1600000089966,1,1,2,20341,WMM2,1666926,false,false,1642,image-keyboard-response,51
true,12,2,2,2,true,d,false,false,0.0-2.0-0.55-0.496-3.496,1,1,0,68,false,stim,false,2,830.3500000038184,1,0,0,20341,WMM2,1669261,false,true,1645,image-keyboard-response,52
true,12,2,2,2,true,d,false,true,0.0-2.0-0.55-0.497-3.497,1,1,0,68,false,stim,false,2,706.9500000216067,1,0,0,20341,WMM2,1671473,false,false,1648,image-keyboard-response,53
true,12,0,2,0,true,q,false,false,0.0-2.0-0.55-0.498-3.498,1,1,0,81,false,stim,false,0,1339.2150000436231,1,1,1,20341,WMM2,1674319,false,true,1651,image-keyboard-response,54
true,12,2,2,2,true,d,false,false,0.0-2.0-0.55-0.499-3.499,1,1,0,68,false,stim,false,2,1289.374999993015,1,0,0,20341,WMM2,1677113,false,true,1654,image-keyboard-response,55
true,13,0,4,0,true,q,false,true,0.0-2.0-0.55-0.500-3.500,0,1,1,81,true,stim,false,0,475.0099999946542,1,1,2,20341,WMM2,1679093,false,false,1657,image-keyboard-response,1
true,13,1,4,0,false,q,true,false,0.0-2.0-0.55-0.501-3.501,0,1,1,90,false,stim,false,0,1583.9900000137277,1,1,1,20341,WMM2,1682184,false,false,1660,image-keyboard-response,2
true,13,0,4,0,true,q,false,false,0.0-2.0-0.55-0.502-3.502,0,1,1,81,false,stim,false,0,515.4500000062399,1,1,2,20341,WMM2,1684203,false,true,1663,image-keyboard-response,3
true,13,1,4,0,false,q,true,false,0.0-2.0-0.55-0.503-3.503,0,1,1,90,false,stim,false,0,692.7550000254996,1,1,1,20341,WMM2,1686402,false,false,1666,image-keyboard-response,4
true,13,2,4,2,true,d,false,true,0.0-2.0-0.56-0.504-3.504,0,1,1,68,false,stim,false,2,685.6649999972433,1,0,0,20341,WMM2,1688594,false,false,1669,image-keyboard-response,5
true,13,0,4,0,true,q,false,false,0.0-2.0-0.56-0.505-3.505,0,1,1,81,false,stim,false,0,963.370000012219,1,1,2,20341,WMM2,1691062,false,true,1672,image-keyboard-response,6
true,13,2,4,2,true,d,false,true,0.0-2.0-0.56-0.506-3.506,0,1,1,68,false,stim,false,2,712.8800000064075,1,0,0,20341,WMM2,1693279,false,false,1675,image-keyboard-response,7
true,13,1,4,0,false,q,true,false,0.0-2.0-0.56-0.507-3.507,0,1,1,90,false,stim,false,0,1997.620000038296,1,1,1,20341,WMM2,1696782,false,false,1678,image-keyboard-response,8
true,13,2,4,2,true,d,false,true,0.0-2.0-0.56-0.508-3.508,0,1,1,68,false,stim,false,2,1638.1249999976717,1,0,0,20341,WMM2,1699926,false,false,1681,image-keyboard-response,9
true,13,2,4,0,false,q,true,false,0.0-2.0-0.56-0.509-3.509,0,1,1,68,false,stim,false,0,825.1049999962561,1,1,1,20341,WMM2,1702256,false,false,1684,image-keyboard-response,10
true,13,1,4,0,false,q,true,false,0.0-2.0-0.56-0.510-3.510,0,1,1,90,false,stim,false,0,747.4650000222027,1,1,1,20341,WMM2,1704508,false,false,1687,image-keyboard-response,11
true,13,0,4,0,true,q,false,false,0.0-2.0-0.56-0.511-3.511,0,1,1,81,false,stim,false,0,493.17500001052395,1,1,2,20341,WMM2,1706506,false,true,1690,image-keyboard-response,12
true,13,0,4,0,true,q,false,true,0.0-2.0-0.56-0.512-3.512,0,1,1,81,false,stim,false,0,377.1800000104122,1,1,2,20341,WMM2,1708388,false,false,1693,image-keyboard-response,13
true,13,1,4,0,false,q,true,true,0.0-2.0-0.57-0.513-3.513,0,1,1,90,false,stim,false,0,640.7650000182912,1,1,1,20341,WMM2,1710535,false,true,1696,image-keyboard-response,14
true,13,1,4,0,false,q,true,false,0.0-2.0-0.57-0.514-3.514,0,1,1,90,false,stim,false,0,791.8749999953434,1,1,1,20341,WMM2,1712832,false,false,1699,image-keyboard-response,15
true,13,0,4,0,true,q,false,false,0.0-2.0-0.57-0.515-3.515,0,1,1,81,false,stim,false,0,616.6199999861419,1,1,2,20341,WMM2,1714960,false,true,1702,image-keyboard-response,16
true,13,0,4,0,true,q,false,true,0.0-2.0-0.57-0.516-3.516,0,1,1,81,false,stim,false,0,433.164999994915,1,1,2,20341,WMM2,1716898,false,false,1705,image-keyboard-response,17
true,13,2,4,2,true,d,false,true,0.0-2.0-0.57-0.517-3.517,0,1,1,68,false,stim,false,2,866.4600000483915,1,0,0,20341,WMM2,1719269,false,false,1708,image-keyboard-response,18
true,13,1,4,0,false,q,true,true,0.0-2.0-0.57-0.518-3.518,0,1,1,90,false,stim,false,0,953.7049999926239,1,1,1,20341,WMM2,1721728,false,true,1711,image-keyboard-response,19
true,13,0,4,0,true,q,false,true,0.0-2.0-0.57-0.519-3.519,0,1,1,81,false,stim,false,0,605.1900000311434,1,1,2,20341,WMM2,1723838,false,false,1714,image-keyboard-response,20
true,13,2,4,2,true,d,false,true,0.0-2.0-0.57-0.520-3.520,0,1,1,68,false,stim,false,2,846.7199999722652,1,0,0,20341,WMM2,1726191,false,false,1717,image-keyboard-response,21
true,13,2,4,2,true,d,false,true,0.0-2.0-0.57-0.521-3.521,0,1,1,68,false,stim,false,2,596.1699999752454,1,0,0,20341,WMM2,1728296,false,false,1720,image-keyboard-response,22
true,13,0,4,0,true,q,false,false,0.0-2.0-0.58-0.522-3.522,0,1,1,81,false,stim,false,0,861.6650000330992,1,1,2,20341,WMM2,1730665,false,true,1723,image-keyboard-response,23
true,13,1,4,0,false,q,true,false,0.0-2.0-0.58-0.523-3.523,0,1,1,90,false,stim,false,0,2170.6600000034086,1,1,1,20341,WMM2,1734342,false,false,1726,image-keyboard-response,24
true,13,2,4,0,false,q,true,true,0.0-2.0-0.58-0.524-3.524,0,1,1,68,false,stim,false,0,853.9899999741465,1,1,1,20341,WMM2,1736704,false,true,1729,image-keyboard-response,25
true,13,2,4,0,false,q,true,false,0.0-2.0-0.58-0.525-3.525,0,1,1,68,false,stim,false,0,477.3200000054203,1,1,1,20341,WMM2,1738689,false,false,1732,image-keyboard-response,26
true,13,2,4,2,true,d,false,true,0.0-2.0-0.58-0.526-3.526,0,1,1,68,false,stim,false,2,836.2399999750778,1,0,0,20341,WMM2,1741035,false,false,1735,image-keyboard-response,27
true,13,0,4,0,true,q,false,true,0.0-2.0-0.58-0.527-3.527,0,1,1,81,false,stim,false,0,692.4600000493228,1,1,2,20341,WMM2,1743234,false,false,1738,image-keyboard-response,28
true,13,2,4,2,true,d,false,true,0.0-2.0-0.58-0.528-3.528,0,1,1,68,false,stim,false,2,616.0950000048615,1,0,0,20341,WMM2,1745358,false,false,1741,image-keyboard-response,29
true,13,0,4,0,true,q,false,true,0.0-2.0-0.58-0.529-3.529,0,1,1,81,false,stim,false,0,611.6399999591522,1,1,2,20341,WMM2,1747476,false,false,1744,image-keyboard-response,30
true,13,1,4,2,false,d,true,false,0.0-2.0-0.58-0.530-3.530,0,1,1,90,false,stim,false,2,1334.3750000349246,1,0,0,20341,WMM2,1750318,false,false,1747,image-keyboard-response,31
true,13,2,4,2,true,d,false,true,0.0-2.0-0.59-0.531-3.531,0,1,1,68,false,stim,false,2,478.449999995064,1,0,0,20341,WMM2,1752304,false,false,1750,image-keyboard-response,32
true,13,0,4,0,true,q,false,true,0.0-2.0-0.59-0.532-3.532,0,1,1,81,false,stim,false,0,666.1999999778345,1,1,2,20341,WMM2,1754477,false,false,1753,image-keyboard-response,33
true,13,2,4,2,true,d,false,true,0.0-2.0-0.59-0.533-3.533,0,1,1,68,false,stim,false,2,1078.3149999915622,1,0,0,20341,WMM2,1757062,false,false,1756,image-keyboard-response,34
true,13,1,4,0,false,q,true,false,0.0-2.0-0.59-0.534-3.534,0,1,1,90,false,stim,false,0,942.2599999816157,1,1,1,20341,WMM2,1759512,false,false,1759,image-keyboard-response,35
true,13,1,4,0,false,q,true,true,0.0-2.0-0.59-0.535-3.535,0,1,1,90,false,stim,false,0,379.12499997764826,1,1,1,20341,WMM2,1761398,false,true,1762,image-keyboard-response,36
true,13,0,4,0,true,q,false,true,0.0-2.0-0.59-0.536-3.536,0,1,1,81,false,stim,false,0,605.0800000084564,1,1,2,20341,WMM2,1763511,false,false,1765,image-keyboard-response,37
true,13,0,4,0,true,q,false,true,0.0-2.0-0.59-0.537-3.537,0,1,1,81,false,stim,false,0,391.4500000537373,1,1,2,20341,WMM2,1765410,false,false,1768,image-keyboard-response,38
true,13,2,4,0,false,q,true,false,0.0-2.0-0.59-0.538-3.538,0,1,1,68,false,stim,false,0,798.4549999819137,1,1,1,20341,WMM2,1767715,false,false,1771,image-keyboard-response,39
true,13,2,4,2,true,d,false,true,0.0-2.0-0.59-0.539-3.539,0,1,1,68,false,stim,false,2,812.7349999849685,1,0,0,20341,WMM2,1770036,false,false,1774,image-keyboard-response,40
true,13,2,4,2,true,d,false,true,0.0-2.0-0.60-0.540-3.540,0,1,1,68,false,stim,false,2,468.9900000230409,1,0,0,20341,WMM2,1772014,false,false,1777,image-keyboard-response,41
true,13,0,4,0,true,q,false,true,0.0-2.0-0.60-0.541-3.541,0,1,1,81,false,stim,false,0,492.0799999963492,1,1,2,20341,WMM2,1774013,false,false,1780,image-keyboard-response,42
true,13,2,4,0,false,q,true,false,0.0-2.0-0.60-0.542-3.542,0,1,1,68,false,stim,false,0,715.9400000236928,1,1,1,20341,WMM2,1776236,false,false,1783,image-keyboard-response,43
true,13,2,4,0,false,q,true,false,0.0-2.0-0.60-0.543-3.543,0,1,1,68,false,stim,false,0,753.7899999879301,1,1,1,20341,WMM2,1778498,false,false,1786,image-keyboard-response,44
true,13,2,4,2,true,d,false,true,0.0-2.0-0.60-0.544-3.544,0,1,1,68,false,stim,false,2,941.3750000530854,1,0,0,20341,WMM2,1780947,false,false,1789,image-keyboard-response,45
true,13,2,4,2,true,d,false,true,0.0-2.0-0.60-0.545-3.545,0,1,1,68,false,stim,false,2,516.0249999607913,1,0,0,20341,WMM2,1782971,false,false,1792,image-keyboard-response,46
true,13,0,4,0,true,q,false,true,0.0-2.0-0.60-0.546-3.546,0,1,1,81,false,stim,false,0,510.2550000301562,1,1,2,20341,WMM2,1784988,false,false,1795,image-keyboard-response,47
true,13,0,4,0,true,q,false,true,0.0-2.0-0.60-0.547-3.547,0,1,1,81,false,stim,false,0,673.1249999720603,1,1,2,20341,WMM2,1787168,false,false,1798,image-keyboard-response,48
true,13,2,4,0,false,q,true,false,0.0-2.0-0.60-0.548-3.548,0,1,1,68,false,stim,false,0,945.6800000043586,1,1,1,20341,WMM2,1789628,false,false,1801,image-keyboard-response,49
true,13,0,4,0,true,q,false,true,0.0-2.0-0.61-0.549-3.549,0,1,1,81,false,stim,false,0,737.7599999890663,1,1,2,20341,WMM2,1791874,false,false,1804,image-keyboard-response,50
true,13,0,4,0,true,q,false,true,0.0-2.0-0.61-0.550-3.550,0,1,1,81,false,stim,false,0,1156.9199999794364,1,1,2,20341,WMM2,1794538,false,false,1807,image-keyboard-response,51
true,13,2,4,2,true,d,false,true,0.0-2.0-0.61-0.551-3.551,0,1,1,68,false,stim,false,2,845.4400000046007,1,0,0,20341,WMM2,1796889,false,false,1810,image-keyboard-response,52
true,13,2,4,0,false,q,true,true,0.0-2.0-0.61-0.552-3.552,0,1,1,68,false,stim,false,0,883.5050000343472,1,1,1,20341,WMM2,1799277,false,true,1813,image-keyboard-response,53
true,13,2,4,0,false,q,true,false,0.0-2.0-0.61-0.553-3.553,0,1,1,68,false,stim,false,0,568.9549999660812,1,1,1,20341,WMM2,1801352,false,false,1816,image-keyboard-response,54
true,13,2,4,2,true,d,false,true,0.0-2.0-0.61-0.554-3.554,0,1,1,68,false,stim,false,2,1114.6150000276975,1,0,0,20341,WMM2,1803972,false,false,1819,image-keyboard-response,55
true,13,2,4,0,false,q,true,false,0.0-2.0-0.61-0.555-3.555,0,1,1,68,false,stim,false,0,1321.8899999628775,1,1,1,20341,WMM2,1806799,false,false,1822,image-keyboard-response,56
true,13,2,4,2,true,d,false,true,0.0-2.0-0.61-0.556-3.556,0,1,1,68,false,stim,false,2,679.9750000354834,1,0,0,20341,WMM2,1808984,false,false,1825,image-keyboard-response,57
true,13,0,4,0,true,q,false,true,0.0-2.0-0.61-0.557-3.557,0,1,1,81,false,stim,false,0,541.1650000023656,1,1,2,20341,WMM2,1811032,false,false,1828,image-keyboard-response,58
true,13,2,4,0,false,q,true,false,0.0-2.0-0.62-0.558-3.558,0,1,1,68,false,stim,false,0,762.6000000163913,1,1,1,20341,WMM2,1813299,false,false,1831,image-keyboard-response,59
true,13,2,4,0,false,q,true,true,0.0-2.0-0.62-0.559-3.559,0,1,1,68,false,stim,false,0,570.2750000054948,1,1,1,20341,WMM2,1815374,false,true,1834,image-keyboard-response,60
true,14,0,0,2,false,d,true,false,0.0-2.0-0.62-0.560-3.560,0,1,1,81,true,stim,false,2,2601.2200000113808,1,0,0,20341,WMM2,1879824,false,false,1898,image-keyboard-response,1
true,14,0,0,0,true,q,false,false,0.0-2.0-0.62-0.561-3.561,0,1,1,81,false,stim,false,0,1955.1349999965169,1,1,2,20341,WMM2,1883291,false,true,1901,image-keyboard-response,2
false,14,-1,0,0,false,q,true,false,0.0-2.0-0.62-0.562-3.562,0,1,1,,false,stim,false,0,,1,1,2,20341,WMM2,1887797,false,false,1904,image-keyboard-response,3
true,14,0,0,0,true,q,false,true,0.0-2.0-0.62-0.563-3.563,0,1,1,81,false,stim,false,0,1721.0150000173599,1,1,1,20341,WMM2,1891024,false,false,1907,image-keyboard-response,4
true,14,1,0,2,false,d,true,false,0.0-2.0-0.62-0.564-3.564,0,1,1,90,false,stim,false,2,798.3150000218302,1,0,0,20341,WMM2,1893327,false,false,1910,image-keyboard-response,5
true,14,2,0,2,true,d,false,true,0.0-2.0-0.62-0.565-3.565,0,1,1,68,false,stim,false,2,614.7249999921769,1,0,0,20341,WMM2,1895448,false,false,1913,image-keyboard-response,6
true,14,1,0,0,false,q,true,false,0.0-2.0-0.62-0.566-3.566,0,1,1,90,false,stim,false,0,500.94500003615394,1,1,2,20341,WMM2,1897455,false,false,1916,image-keyboard-response,7
true,14,1,0,0,false,q,true,false,0.0-2.0-0.63-0.567-3.567,0,1,1,90,false,stim,false,0,484.33499998645857,1,1,2,20341,WMM2,1899446,false,false,1919,image-keyboard-response,8
true,14,2,0,2,true,d,false,true,0.0-2.0-0.63-0.568-3.568,0,1,1,68,false,stim,false,2,952.9099999926984,1,0,0,20341,WMM2,1901905,false,false,1922,image-keyboard-response,9
true,14,2,0,2,true,d,false,true,0.0-2.0-0.63-0.569-3.569,0,1,1,68,false,stim,false,2,630.1050000474788,1,0,0,20341,WMM2,1904040,false,false,1925,image-keyboard-response,10
true,14,0,0,0,true,q,false,true,0.0-2.0-0.63-0.570-3.570,0,1,1,81,false,stim,false,0,663.1550000165589,1,1,1,20341,WMM2,1906209,false,false,1928,image-keyboard-response,11
true,14,2,0,0,false,q,true,false,0.0-2.0-0.63-0.571-3.571,0,1,1,68,false,stim,false,0,882.1950000128709,1,1,2,20341,WMM2,1908597,false,false,1931,image-keyboard-response,12
true,14,2,0,2,true,d,false,true,0.0-2.0-0.63-0.572-3.572,0,1,1,68,false,stim,false,2,1892.8799999994226,1,0,0,20341,WMM2,1911996,false,false,1934,image-keyboard-response,13
true,14,0,0,0,true,q,false,true,0.0-2.0-0.63-0.573-3.573,0,1,1,81,false,stim,false,0,842.2849999624304,1,1,1,20341,WMM2,1914344,false,false,1937,image-keyboard-response,14
true,14,0,0,0,true,q,false,true,0.0-2.0-0.63-0.574-3.574,0,1,1,81,false,stim,false,0,682.8349999850616,1,1,2,20341,WMM2,1916533,false,false,1940,image-keyboard-response,15
true,14,0,0,0,true,q,false,true,0.0-2.0-0.63-0.575-3.575,0,1,1,81,false,stim,false,0,572.9350000037812,1,1,1,20341,WMM2,1918612,false,false,1943,image-keyboard-response,16
true,14,2,0,2,true,d,false,true,0.0-2.0-0.64-0.576-3.576,0,1,1,68,false,stim,false,2,1173.079999978654,1,0,0,20341,WMM2,1921293,false,false,1946,image-keyboard-response,17
true,14,2,0,2,true,d,false,true,0.0-2.0-0.64-0.577-3.577,0,1,1,68,false,stim,false,2,1105.954999977257,1,0,0,20341,WMM2,1923904,false,false,1949,image-keyboard-response,18
true,14,2,0,2,true,d,false,true,0.0-2.0-0.64-0.578-3.578,0,1,1,68,false,stim,false,2,501.2950000236742,1,0,0,20341,WMM2,1925910,false,false,1952,image-keyboard-response,19
true,14,0,0,0,true,q,false,true,0.0-2.0-0.64-0.579-3.579,0,1,1,81,false,stim,false,0,631.2799999723211,1,1,2,20341,WMM2,1928047,false,false,1955,image-keyboard-response,20
true,14,0,0,0,true,q,false,true,0.0-2.0-0.64-0.580-3.580,0,1,1,81,false,stim,false,0,613.8000000501052,1,1,1,20341,WMM2,1930167,false,false,1958,image-keyboard-response,21
true,14,0,0,0,true,q,false,true,0.0-2.0-0.64-0.581-3.581,0,1,1,81,false,stim,false,0,390.5450000311248,1,1,1,20341,WMM2,1932063,false,false,1961,image-keyboard-response,22
true,14,0,0,0,true,q,false,true,0.0-2.0-0.64-0.582-3.582,0,1,1,81,false,stim,false,0,1253.5449999850243,1,0,2,20341,WMM2,1934822,false,false,1964,image-keyboard-response,23
true,14,0,0,0,true,q,false,true,0.0-2.0-0.64-0.583-3.583,0,1,1,81,false,stim,false,0,462.4800000456162,1,0,2,20341,WMM2,1936789,false,false,1967,image-keyboard-response,24
true,14,0,0,0,true,q,false,true,0.0-2.0-0.64-0.584-3.584,0,1,1,81,false,stim,false,0,774.3449999834411,1,1,1,20341,WMM2,1939069,false,false,1970,image-keyboard-response,25
