answered,blockNum,choice,condition,corResp,correct,correct_response,explo,fb,internal_node_id,isStable_1,isStable_2,isStable_3,key_press,newBlock,part,persev,persevResp,rt,sessNum,stableAS,stimulus,subject,task,time_elapsed,training,trap,trial_index,trial_type,trialsInBlock
true,1,1,0,0,false,q,true,false,0.0-2.0-0.0-0.0-3.0,0,0,0,90,true,stim,false,-1,701.9999999999854,2,0,0,22685,WMM1,80961,false,false,85,image-keyboard-response,1
true,1,1,0,1,true,z,false,true,0.0-2.0-0.0-0.1-3.1,0,0,0,90,false,stim,false,-1,410.00000000001455,2,0,2,22685,WMM1,82880,false,false,88,image-keyboard-response,2
true,1,1,0,0,false,q,true,false,0.0-2.0-0.0-0.2-3.2,0,0,0,90,false,stim,false,-1,541.0,2,0,1,22685,WMM1,84929,false,false,91,image-keyboard-response,3
true,1,0,0,0,true,q,false,false,0.0-2.0-0.0-0.3-3.3,0,0,0,81,false,stim,false,-1,836.0,2,0,1,22685,WMM1,87273,false,true,94,image-keyboard-response,4
true,1,1,0,1,true,z,false,false,0.0-2.0-0.0-0.4-3.4,0,0,0,90,false,stim,false,-1,957.0000000000146,2,0,2,22685,WMM1,89736,false,true,97,image-keyboard-response,5
true,1,0,0,0,true,q,false,true,0.0-2.0-0.0-0.5-3.5,0,0,0,81,false,stim,false,-1,1067.0,2,0,1,22685,WMM1,92313,false,false,100,image-keyboard-response,6
true,1,0,0,0,true,q,false,false,0.0-2.0-0.0-0.6-3.6,0,0,0,81,false,stim,false,-1,820.0,2,0,0,22685,WMM1,94640,false,true,103,image-keyboard-response,7
true,1,2,0,0,false,q,true,false,0.0-2.0-0.0-0.7-3.7,0,0,0,68,false,stim,false,-1,1484.0000000000146,2,0,0,22685,WMM1,97632,false,false,106,image-keyboard-response,8
true,1,0,0,1,false,z,true,false,0.0-2.0-0.0-0.8-3.8,0,0,0,81,false,stim,false,-1,972.0,2,0,2,22685,WMM1,100112,false,false,109,image-keyboard-response,9
true,1,1,0,1,true,z,false,true,0.0-2.0-0.1-0.9-3.9,0,0,0,90,false,stim,false,-1,492.00000000001455,2,0,2,22685,WMM1,102112,false,false,112,image-keyboard-response,10
true,1,0,0,0,true,q,false,true,0.0-2.0-0.1-0.10-3.10,0,0,0,81,false,stim,false,-1,762.9999999999854,2,0,1,22685,WMM1,104384,false,false,115,image-keyboard-response,11
true,1,1,0,1,true,z,false,true,0.0-2.0-0.1-0.11-3.11,0,0,0,90,false,stim,false,-1,820.9999999999854,2,0,2,22685,WMM1,106712,false,false,118,image-keyboard-response,12
true,1,1,0,0,false,q,true,false,0.0-2.0-0.1-0.12-3.12,0,0,0,90,false,stim,false,-1,691.0,2,0,0,22685,WMM1,108912,false,false,121,image-keyboard-response,13
true,1,0,0,0,true,q,false,true,0.0-2.0-0.1-0.13-3.13,0,0,0,81,false,stim,false,-1,635.0,2,0,0,22685,WMM1,111056,false,false,124,image-keyboard-response,14
true,1,0,0,0,true,q,false,true,0.0-2.0-0.1-0.14-3.14,0,0,0,81,false,stim,false,-1,460.0,2,0,0,22685,WMM1,113023,false,false,127,image-keyboard-response,15
true,1,1,0,0,false,q,true,false,0.0-2.0-0.1-0.15-3.15,0,0,0,90,false,stim,false,-1,1348.0,2,0,1,22685,WMM1,115880,false,false,130,image-keyboard-response,16
true,1,1,0,1,true,z,false,true,0.0-2.0-0.1-0.16-3.16,0,0,0,90,false,stim,false,-1,668.0,2,0,2,22685,WMM1,118056,false,false,133,image-keyboard-response,17
true,1,0,0,0,true,q,false,true,0.0-2.0-0.1-0.17-3.17,0,0,0,81,false,stim,false,-1,620.0,2,0,1,22685,WMM1,120184,false,false,136,image-keyboard-response,18
true,1,0,0,0,true,q,false,true,0.0-2.0-0.2-0.18-3.18,0,0,0,81,false,stim,false,-1,499.0,2,0,1,22685,WMM1,122191,false,false,139,image-keyboard-response,19
true,1,1,0,0,false,q,true,false,0.0-2.0-0.2-0.19-3.19,0,0,0,90,false,stim,false,-1,756.0,2,0,0,22685,WMM1,124455,false,false,142,image-keyboard-response,20
true,1,0,0,0,true,q,false,true,0.0-2.0-0.2-0.20-3.20,0,0,0,81,false,stim,false,-1,838.0,2,0,1,22685,WMM1,126799,false,false,145,image-keyboard-response,21
true,1,0,0,0,true,q,false,true,0.0-2.0-0.2-0.21-3.21,0,0,0,81,false,stim,false,-1,500.0,2,0,1,22685,WMM1,128807,false,false,148,image-keyboard-response,22
true,1,0,0,1,false,z,true,false,0.0-2.0-0.2-0.22-3.22,0,0,0,81,false,stim,false,-1,565.0,2,0,2,22685,WMM1,130879,false,false,151,image-keyboard-response,23
true,1,1,0,1,true,z,false,true,0.0-2.0-0.2-0.23-3.23,0,0,0,90,false,stim,false,-1,421.0,2,0,2,22685,WMM1,132807,false,false,154,image-keyboard-response,24
true,1,0,0,0,true,q,false,true,0.0-2.0-0.2-0.24-3.24,0,0,0,81,false,stim,false,-1,523.0,2,0,0,22685,WMM1,134839,false,false,157,image-keyboard-response,25
true,1,0,0,0,true,q,false,false,0.0-2.0-0.2-0.25-3.25,0,0,0,81,false,stim,false,-1,514.0,2,0,0,22685,WMM1,136863,false,true,160,image-keyboard-response,26
true,1,1,0,1,true,z,false,true,0.0-2.0-0.2-0.26-3.26,0,0,0,90,false,stim,false,-1,1123.0,2,0,2,22685,WMM1,139494,false,false,163,image-keyboard-response,27
true,1,1,0,0,false,q,true,false,0.0-2.0-0.3-0.27-3.27,0,0,0,90,false,stim,false,-1,525.0,2,0,0,22685,WMM1,141527,false,false,166,image-keyboard-response,28
true,1,0,0,0,true,q,false,true,0.0-2.0-0.3-0.28-3.28,0,0,0,81,false,stim,false,-1,1053.0,2,0,1,22685,WMM1,144087,false,false,169,image-keyboard-response,29
true,1,1,0,1,true,z,false,true,0.0-2.0-0.3-0.29-3.29,0,0,0,90,false,stim,false,-1,707.0,2,0,2,22685,WMM1,146303,false,false,172,image-keyboard-response,30
true,1,0,0,0,true,q,false,true,0.0-2.0-0.3-0.30-3.30,0,0,0,81,false,stim,false,-1,908.0,2,0,0,22685,WMM1,148719,false,false,175,image-keyboard-response,31
true,1,0,0,0,true,q,false,true,0.0-2.0-0.3-0.31-3.31,0,0,0,81,false,stim,false,-1,555.0,2,0,0,22685,WMM1,150783,false,false,178,image-keyboard-response,32
true,1,0,0,0,true,q,false,true,0.0-2.0-0.3-0.32-3.32,0,0,0,81,false,stim,false,-1,1829.0,2,0,1,22685,WMM1,154119,false,false,181,image-keyboard-response,33
true,1,1,0,1,true,z,false,true,0.0-2.0-0.3-0.33-3.33,0,0,0,90,false,stim,false,-1,700.0,2,0,2,22685,WMM1,156326,false,false,184,image-keyboard-response,34
true,1,0,0,0,true,q,false,true,0.0-2.0-0.3-0.34-3.34,0,0,0,81,false,stim,false,-1,707.9999999999709,2,0,1,22685,WMM1,158542,false,false,187,image-keyboard-response,35
true,1,0,0,1,false,z,true,false,0.0-2.0-0.3-0.35-3.35,0,0,0,81,false,stim,false,-1,557.0,2,0,2,22685,WMM1,160606,false,false,190,image-keyboard-response,36
true,1,1,0,1,true,z,false,true,0.0-2.0-0.4-0.36-3.36,0,0,0,90,false,stim,false,-1,466.9999999999709,2,0,2,22685,WMM1,162582,false,false,193,image-keyboard-response,37
true,2,1,1,0,false,q,false,false,0.0-2.0-0.4-0.37-3.37,0,0,0,90,true,stim,true,1,461.0,2,0,2,22685,WMM1,164550,false,false,196,image-keyboard-response,1
true,2,0,1,2,false,d,false,false,0.0-2.0-0.4-0.38-3.38,0,0,0,81,false,stim,true,0,835.0,2,0,1,22685,WMM1,166894,false,false,199,image-keyboard-response,2
true,2,0,1,1,false,z,false,false,0.0-2.0-0.4-0.39-3.39,0,0,0,81,false,stim,true,0,755.0,2,0,0,22685,WMM1,169158,false,false,202,image-keyboard-response,3
true,2,0,1,2,false,d,false,false,0.0-2.0-0.4-0.40-3.40,0,0,0,81,false,stim,true,0,876.0,2,0,1,22685,WMM1,171542,false,false,205,image-keyboard-response,4
true,2,0,1,1,false,z,false,false,0.0-2.0-0.4-0.41-3.41,0,0,0,81,false,stim,true,0,716.0,2,0,0,22685,WMM1,173766,false,false,208,image-keyboard-response,5
true,2,2,1,0,false,q,true,false,0.0-2.0-0.4-0.42-3.42,0,0,0,68,false,stim,false,1,1292.000000000029,2,0,2,22685,WMM1,176566,false,false,211,image-keyboard-response,6
true,2,2,1,1,false,z,true,false,0.0-2.0-0.4-0.43-3.43,0,0,0,68,false,stim,false,0,741.0,2,0,0,22685,WMM1,178814,false,false,214,image-keyboard-response,7
true,2,2,1,2,true,d,false,true,0.0-2.0-0.4-0.44-3.44,0,0,0,68,false,stim,false,0,588.0,2,0,1,22685,WMM1,180910,false,false,217,image-keyboard-response,8
true,2,1,1,1,true,z,false,true,0.0-2.0-0.5-0.45-3.45,0,0,0,90,false,stim,false,0,636.0,2,0,0,22685,WMM1,183053,false,false,220,image-keyboard-response,9
true,2,2,1,2,true,d,false,true,0.0-2.0-0.5-0.46-3.46,0,0,0,68,false,stim,false,0,612.0,2,0,1,22685,WMM1,185173,false,false,223,image-keyboard-response,10
true,2,1,1,2,false,d,true,true,0.0-2.0-0.5-0.47-3.47,0,0,0,90,false,stim,false,0,492.0000000000291,2,0,1,22685,WMM1,187173,false,true,226,image-keyboard-response,11
true,2,0,1,0,true,q,false,true,0.0-2.0-0.5-0.48-3.48,0,0,0,81,false,stim,false,1,1581.0,2,0,2,22685,WMM1,190261,false,false,229,image-keyboard-response,12
true,2,2,1,1,false,z,true,false,0.0-2.0-0.5-0.49-3.49,0,0,0,68,false,stim,false,0,2248.0,2,0,0,22685,WMM1,194018,false,false,232,image-keyboard-response,13
true,2,2,1,2,true,d,false,true,0.0-2.0-0.5-0.50-3.50,0,0,0,68,false,stim,false,0,651.0,2,0,1,22685,WMM1,196178,false,false,235,image-keyboard-response,14
true,2,0,1,0,true,q,false,true,0.0-2.0-0.5-0.51-3.51,0,0,0,81,false,stim,false,1,700.0,2,0,2,22685,WMM1,198385,false,false,238,image-keyboard-response,15
true,2,0,1,0,true,q,false,true,0.0-2.0-0.5-0.52-3.52,0,0,0,81,false,stim,false,1,556.0,2,0,2,22685,WMM1,200450,false,false,241,image-keyboard-response,16
true,2,1,1,1,true,z,false,true,0.0-2.0-0.5-0.53-3.53,0,0,0,90,false,stim,false,0,435.0,2,0,0,22685,WMM1,202394,false,false,244,image-keyboard-response,17
true,2,0,1,0,true,q,false,true,0.0-2.0-0.6-0.54-3.54,0,0,0,81,false,stim,false,1,724.0000000000291,2,0,2,22685,WMM1,204626,false,false,247,image-keyboard-response,18
true,2,0,1,0,true,q,false,true,0.0-2.0-0.6-0.55-3.55,0,0,0,81,false,stim,false,1,524.0,2,0,2,22685,WMM1,206657,false,false,250,image-keyboard-response,19
true,2,1,1,1,true,z,false,true,0.0-2.0-0.6-0.56-3.56,0,0,0,90,false,stim,false,0,836.0,2,0,0,22685,WMM1,209001,false,false,253,image-keyboard-response,20
true,2,1,1,1,true,z,false,true,0.0-2.0-0.6-0.57-3.57,0,0,0,90,false,stim,false,0,475.0,2,0,0,22685,WMM1,210985,false,false,256,image-keyboard-response,21
true,2,2,1,2,true,d,false,true,0.0-2.0-0.6-0.58-3.58,0,0,0,68,false,stim,false,0,516.0,2,0,1,22685,WMM1,213009,false,false,259,image-keyboard-response,22
true,2,0,1,0,true,q,false,true,0.0-2.0-0.6-0.59-3.59,0,0,0,81,false,stim,false,1,2156.0,2,0,2,22685,WMM1,216673,false,false,262,image-keyboard-response,23
true,2,2,1,2,true,d,false,true,0.0-2.0-0.6-0.60-3.60,0,0,0,68,false,stim,false,0,2132.0,2,0,1,22685,WMM1,220313,false,false,265,image-keyboard-response,24
true,2,2,1,2,true,d,false,false,0.0-2.0-0.6-0.61-3.61,0,0,0,68,false,stim,false,0,532.0,2,0,1,22685,WMM1,222353,false,true,268,image-keyboard-response,25
true,2,1,1,1,true,z,false,true,0.0-2.0-0.6-0.62-3.62,0,0,0,90,false,stim,false,0,628.0,2,1,0,22685,WMM1,224489,false,false,271,image-keyboard-response,26
true,2,0,1,0,true,q,false,true,0.0-2.0-0.7-0.63-3.63,0,0,0,81,false,stim,false,1,684.0,2,0,2,22685,WMM1,226681,false,false,274,image-keyboard-response,27
true,2,0,1,0,true,q,false,true,0.0-2.0-0.7-0.64-3.64,0,0,0,81,false,stim,false,1,387.9999999999709,2,0,2,22685,WMM1,228577,false,false,277,image-keyboard-response,28
true,2,2,1,2,true,d,false,true,0.0-2.0-0.7-0.65-3.65,0,0,0,68,false,stim,false,0,741.0,2,0,1,22685,WMM1,230825,false,false,280,image-keyboard-response,29
true,2,1,1,1,true,z,false,true,0.0-2.0-0.7-0.66-3.66,0,0,0,90,false,stim,false,0,692.0,2,1,0,22685,WMM1,233025,false,false,283,image-keyboard-response,30
true,2,1,1,1,true,z,false,true,0.0-2.0-0.7-0.67-3.67,0,0,0,90,false,stim,false,0,484.0000000000291,2,1,0,22685,WMM1,235017,false,false,286,image-keyboard-response,31
true,2,2,1,2,true,d,false,true,0.0-2.0-0.7-0.68-3.68,0,0,0,68,false,stim,false,0,1052.0,2,0,1,22685,WMM1,237577,false,false,289,image-keyboard-response,32
true,3,0,3,1,false,z,false,false,0.0-2.0-0.7-0.69-3.69,1,0,0,81,true,stim,true,0,1172.0,2,0,2,22685,WMM1,240257,false,false,292,image-keyboard-response,1
true,3,1,3,1,true,z,false,true,0.0-2.0-0.7-0.70-3.70,1,0,0,90,false,stim,false,1,1453.0,2,1,0,22685,WMM1,243217,false,false,295,image-keyboard-response,2
true,3,2,3,0,false,q,false,false,0.0-2.0-0.7-0.71-3.71,1,0,0,68,false,stim,true,2,1571.999999999971,2,0,1,22685,WMM1,246297,false,false,298,image-keyboard-response,3
true,3,0,3,1,false,z,false,false,0.0-2.0-0.8-0.72-3.72,1,0,0,81,false,stim,true,0,1522.0,2,0,2,22685,WMM1,249329,false,false,301,image-keyboard-response,4
true,3,2,3,0,false,q,false,false,0.0-2.0-0.8-0.73-3.73,1,0,0,68,false,stim,true,2,1453.0,2,0,1,22685,WMM1,252288,false,false,304,image-keyboard-response,5
true,3,1,3,0,false,q,true,true,0.0-2.0-0.8-0.74-3.74,1,0,0,90,false,stim,false,2,723.0,2,0,1,22685,WMM1,254520,false,true,307,image-keyboard-response,6
true,3,1,3,1,true,z,false,true,0.0-2.0-0.8-0.75-3.75,1,0,0,90,false,stim,false,1,581.0000000000291,2,1,0,22685,WMM1,256608,false,false,310,image-keyboard-response,7
true,3,1,3,1,true,z,false,true,0.0-2.0-0.8-0.76-3.76,1,0,0,90,false,stim,false,1,500.0,2,1,0,22685,WMM1,258616,false,false,313,image-keyboard-response,8
true,3,0,3,1,false,z,false,false,0.0-2.0-0.8-0.77-3.77,1,0,0,81,false,stim,true,0,1692.999999999971,2,0,2,22685,WMM1,261816,false,false,316,image-keyboard-response,9
true,3,1,3,0,false,q,true,false,0.0-2.0-0.8-0.78-3.78,1,0,0,90,false,stim,false,2,1332.0000000000582,2,0,1,22685,WMM1,264656,false,false,319,image-keyboard-response,10
true,3,1,3,1,true,z,false,true,0.0-2.0-0.8-0.79-3.79,1,0,0,90,false,stim,false,0,508.0,2,0,2,22685,WMM1,266672,false,false,322,image-keyboard-response,11
true,3,1,3,1,true,z,false,true,0.0-2.0-0.8-0.80-3.80,1,0,0,90,false,stim,false,1,484.0,2,1,0,22685,WMM1,268664,false,false,325,image-keyboard-response,12
true,3,2,3,0,false,q,false,false,0.0-2.0-0.9-0.81-3.81,1,0,0,68,false,stim,true,2,731.0,2,0,1,22685,WMM1,270904,false,false,328,image-keyboard-response,13
true,3,1,3,1,true,z,false,true,0.0-2.0-0.9-0.82-3.82,1,0,0,90,false,stim,false,0,612.0,2,0,2,22685,WMM1,273024,false,false,331,image-keyboard-response,14
true,3,1,3,1,true,z,false,true,0.0-2.0-0.9-0.83-3.83,1,0,0,90,false,stim,false,1,380.0,2,1,0,22685,WMM1,274911,false,false,334,image-keyboard-response,15
true,3,1,3,1,true,z,false,true,0.0-2.0-0.9-0.84-3.84,1,0,0,90,false,stim,false,1,469.0,2,1,0,22685,WMM1,276888,false,false,337,image-keyboard-response,16
true,3,1,3,1,true,z,false,true,0.0-2.0-0.9-0.85-3.85,1,0,0,90,false,stim,false,1,476.0,2,1,0,22685,WMM1,278872,false,false,340,image-keyboard-response,17
true,3,1,3,1,true,z,false,true,0.0-2.0-0.9-0.86-3.86,1,0,0,90,false,stim,false,0,468.0,2,0,2,22685,WMM1,280847,false,false,343,image-keyboard-response,18
true,3,1,3,0,false,q,true,false,0.0-2.0-0.9-0.87-3.87,1,0,0,90,false,stim,false,2,516.0,2,0,1,22685,WMM1,282871,false,false,346,image-keyboard-response,19
true,3,0,3,0,true,q,false,true,0.0-2.0-0.9-0.88-3.88,1,0,0,81,false,stim,false,2,724.0,2,0,1,22685,WMM1,285103,false,false,349,image-keyboard-response,20
true,3,1,3,1,true,z,false,true,0.0-2.0-0.9-0.89-3.89,1,0,0,90,false,stim,false,0,613.0,2,0,2,22685,WMM1,287223,false,false,352,image-keyboard-response,21
true,3,1,3,1,true,z,false,true,0.0-2.0-0.10-0.90-3.90,1,0,0,90,false,stim,false,1,1364.0000000000582,2,1,0,22685,WMM1,290096,false,false,355,image-keyboard-response,22
true,3,1,3,1,true,z,false,true,0.0-2.0-0.10-0.91-3.91,1,0,0,90,false,stim,false,0,900.0,2,0,2,22685,WMM1,292503,false,false,358,image-keyboard-response,23
true,3,1,3,1,true,z,false,true,0.0-2.0-0.10-0.92-3.92,1,0,0,90,false,stim,false,0,381.0,2,0,2,22685,WMM1,294390,false,false,361,image-keyboard-response,24
true,3,0,3,0,true,q,false,true,0.0-2.0-0.10-0.93-3.93,1,0,0,81,false,stim,false,2,620.0000000000582,2,0,1,22685,WMM1,296519,false,false,364,image-keyboard-response,25
true,3,1,3,1,true,z,false,true,0.0-2.0-0.10-0.94-3.94,1,0,0,90,false,stim,false,0,596.0,2,0,2,22685,WMM1,298623,false,false,367,image-keyboard-response,26
true,3,1,3,1,true,z,false,true,0.0-2.0-0.10-0.95-3.95,1,0,0,90,false,stim,false,1,964.0,2,0,0,22685,WMM1,301095,false,false,370,image-keyboard-response,27
true,3,1,3,1,true,z,false,true,0.0-2.0-0.10-0.96-3.96,1,0,0,90,false,stim,false,1,492.0000000000582,2,0,0,22685,WMM1,303095,false,false,373,image-keyboard-response,28
true,3,0,3,0,true,q,false,true,0.0-2.0-0.10-0.97-3.97,1,0,0,81,false,stim,false,2,2251.0,2,0,1,22685,WMM1,306855,false,false,376,image-keyboard-response,29
true,3,0,3,0,true,q,false,true,0.0-2.0-0.10-0.98-3.98,1,0,0,81,false,stim,false,2,635.0,2,0,1,22685,WMM1,308998,false,false,379,image-keyboard-response,30
true,3,1,3,1,true,z,false,true,0.0-2.0-0.11-0.99-3.99,1,0,0,90,false,stim,false,0,563.0,2,0,2,22685,WMM1,311070,false,false,382,image-keyboard-response,31
true,3,1,3,1,true,z,false,false,0.0-2.0-0.11-0.100-3.100,1,0,0,90,false,stim,false,0,468.0,2,0,2,22685,WMM1,313046,false,true,385,image-keyboard-response,32
true,3,1,3,0,false,q,true,false,0.0-2.0-0.11-0.101-3.101,1,0,0,90,false,stim,false,2,419.9999999999418,2,0,1,22685,WMM1,314974,false,false,388,image-keyboard-response,33
true,3,0,3,0,true,q,false,true,0.0-2.0-0.11-0.102-3.102,1,0,0,81,false,stim,false,2,523.0000000000582,2,0,1,22685,WMM1,317006,false,false,391,image-keyboard-response,34
true,3,1,3,1,true,z,false,true,0.0-2.0-0.11-0.103-3.103,1,0,0,90,false,stim,false,1,459.0,2,0,0,22685,WMM1,318974,false,false,394,image-keyboard-response,35
true,4,1,4,2,false,d,false,false,0.0-2.0-0.11-0.104-3.104,0,0,0,90,true,stim,true,1,379.9999999999418,2,0,0,22685,WMM1,320861,false,false,397,image-keyboard-response,1
true,4,0,4,1,false,z,false,false,0.0-2.0-0.11-0.105-3.105,0,0,0,81,false,stim,true,0,685.0,2,0,1,22685,WMM1,323054,false,false,400,image-keyboard-response,2
true,4,2,4,2,true,d,false,true,0.0-2.0-0.11-0.106-3.106,0,0,0,68,false,stim,false,1,1033.0,2,0,0,22685,WMM1,325598,false,false,403,image-keyboard-response,3
true,4,2,4,2,true,d,false,true,0.0-2.0-0.11-0.107-3.107,0,0,0,68,false,stim,false,1,716.0,2,0,2,22685,WMM1,327822,false,false,406,image-keyboard-response,4
true,4,2,4,1,false,z,true,false,0.0-2.0-0.12-0.108-3.108,0,0,0,68,false,stim,false,0,524.0,2,0,1,22685,WMM1,329853,false,false,409,image-keyboard-response,5
true,4,1,4,1,true,z,false,false,0.0-2.0-0.12-0.109-3.109,0,0,0,90,false,stim,false,0,1060.0,2,0,1,22685,WMM1,332422,false,true,412,image-keyboard-response,6
true,4,2,4,2,true,d,false,false,0.0-2.0-0.12-0.110-3.110,0,0,0,68,false,stim,false,1,819.0,2,0,2,22685,WMM1,334750,false,true,415,image-keyboard-response,7
true,4,2,4,2,true,d,false,false,0.0-2.0-0.12-0.111-3.111,0,0,0,68,false,stim,false,1,1251.0,2,0,2,22685,WMM1,337510,false,true,418,image-keyboard-response,8
true,4,2,4,2,true,d,false,true,0.0-2.0-0.12-0.112-3.112,0,0,0,68,false,stim,false,1,851.0,2,0,0,22685,WMM1,339869,false,false,421,image-keyboard-response,9
true,4,1,4,2,false,d,false,false,0.0-2.0-0.12-0.113-3.113,0,0,0,90,false,stim,true,1,659.0,2,0,2,22685,WMM1,342037,false,false,424,image-keyboard-response,10
true,4,0,4,1,false,z,false,false,0.0-2.0-0.12-0.114-3.114,0,0,0,81,false,stim,true,0,491.0,2,0,1,22685,WMM1,344037,false,false,427,image-keyboard-response,11
true,4,2,4,2,true,d,false,true,0.0-2.0-0.12-0.115-3.115,0,0,0,68,false,stim,false,1,683.0,2,0,0,22685,WMM1,346229,false,false,430,image-keyboard-response,12
true,4,2,4,2,true,d,false,true,0.0-2.0-0.12-0.116-3.116,0,0,0,68,false,stim,false,1,651.0,2,0,0,22685,WMM1,348389,false,false,433,image-keyboard-response,13
true,4,2,4,1,false,z,true,false,0.0-2.0-0.13-0.117-3.117,0,0,0,68,false,stim,false,0,867.0,2,0,1,22685,WMM1,350765,false,false,436,image-keyboard-response,14
true,4,2,4,2,true,d,false,true,0.0-2.0-0.13-0.118-3.118,0,0,0,68,false,stim,false,1,979.0,2,0,0,22685,WMM1,353253,false,false,439,image-keyboard-response,15
true,4,1,4,2,false,d,false,false,0.0-2.0-0.13-0.119-3.119,0,0,0,90,false,stim,true,1,1523.0,2,0,2,22685,WMM1,356285,false,false,442,image-keyboard-response,16
true,4,2,4,2,true,d,false,true,0.0-2.0-0.13-0.120-3.120,0,0,0,68,false,stim,false,1,547.0,2,0,2,22685,WMM1,358341,false,false,445,image-keyboard-response,17
true,4,2,4,2,true,d,false,true,0.0-2.0-0.13-0.121-3.121,0,0,0,68,false,stim,false,1,443.0,2,0,0,22685,WMM1,360293,false,false,448,image-keyboard-response,18
true,4,2,4,2,true,d,false,true,0.0-2.0-0.13-0.122-3.122,0,0,0,68,false,stim,false,1,491.0,2,0,0,22685,WMM1,362293,false,false,451,image-keyboard-response,19
true,4,2,4,2,true,d,false,true,0.0-2.0-0.13-0.123-3.123,0,0,0,68,false,stim,false,1,492.0,2,0,2,22685,WMM1,364293,false,false,454,image-keyboard-response,20
true,4,0,4,1,false,z,false,false,0.0-2.0-0.13-0.124-3.124,0,0,0,81,false,stim,true,0,652.0,2,0,1,22685,WMM1,366453,false,false,457,image-keyboard-response,21
true,4,0,4,1,false,z,false,false,0.0-2.0-0.13-0.125-3.125,0,0,0,81,false,stim,true,0,1155.0,2,0,1,22685,WMM1,369116,false,false,460,image-keyboard-response,22
true,4,2,4,2,true,d,false,true,0.0-2.0-0.14-0.126-3.126,0,0,0,68,false,stim,false,1,436.0,2,0,2,22685,WMM1,371060,false,false,463,image-keyboard-response,23
true,4,1,4,1,true,z,false,true,0.0-2.0-0.14-0.127-3.127,0,0,0,90,false,stim,false,0,875.0,2,0,1,22685,WMM1,373444,false,false,466,image-keyboard-response,24
true,4,2,4,2,true,d,false,true,0.0-2.0-0.14-0.128-3.128,0,0,0,68,false,stim,false,1,435.0,2,0,2,22685,WMM1,375388,false,false,469,image-keyboard-response,25
true,4,2,4,2,true,d,false,true,0.0-2.0-0.14-0.129-3.129,0,0,0,68,false,stim,false,1,499.0,2,0,2,22685,WMM1,377396,false,false,472,image-keyboard-response,26
true,4,1,4,1,true,z,false,true,0.0-2.0-0.14-0.130-3.130,0,0,0,90,false,stim,false,0,699.0,2,0,1,22685,WMM1,379604,false,false,475,image-keyboard-response,27
true,4,2,4,2,true,d,false,true,0.0-2.0-0.14-0.131-3.131,0,0,0,68,false,stim,false,1,627.0,2,0,0,22685,WMM1,381740,false,false,478,image-keyboard-response,28
true,4,1,4,1,true,z,false,true,0.0-2.0-0.14-0.132-3.132,0,0,0,90,false,stim,false,0,868.0,2,0,1,22685,WMM1,384116,false,false,481,image-keyboard-response,29
true,4,2,4,2,true,d,false,false,0.0-2.0-0.14-0.133-3.133,0,0,0,68,false,stim,false,1,875.0,2,0,0,22685,WMM1,386500,false,true,484,image-keyboard-response,30
true,4,2,4,2,true,d,false,true,0.0-2.0-0.14-0.134-3.134,0,0,0,68,false,stim,false,1,411.0,2,0,0,22685,WMM1,388420,false,false,487,image-keyboard-response,31
true,4,1,4,1,true,z,false,true,0.0-2.0-0.15-0.135-3.135,0,0,0,90,false,stim,false,0,1339.0,2,0,1,22685,WMM1,391268,false,false,490,image-keyboard-response,32
true,4,1,4,1,true,z,false,true,0.0-2.0-0.15-0.136-3.136,0,0,0,90,false,stim,false,0,500.0,2,0,1,22685,WMM1,393276,false,false,493,image-keyboard-response,33
true,4,2,4,2,true,d,false,true,0.0-2.0-0.15-0.137-3.137,0,0,0,68,false,stim,false,1,580.0,2,0,2,22685,WMM1,395364,false,false,496,image-keyboard-response,34
true,4,2,4,2,true,d,false,true,0.0-2.0-0.15-0.138-3.138,0,0,0,68,false,stim,false,1,435.0,2,0,2,22685,WMM1,397308,false,false,499,image-keyboard-response,35
true,4,2,4,2,true,d,false,true,0.0-2.0-0.15-0.139-3.139,0,0,0,68,false,stim,false,1,704.9999999999418,2,0,0,22685,WMM1,399524,false,false,502,image-keyboard-response,36
true,4,2,4,2,true,d,false,false,0.0-2.0-0.15-0.140-3.140,0,0,0,68,false,stim,false,1,396.0,2,0,0,22685,WMM1,401428,false,true,505,image-keyboard-response,37
true,5,1,2,2,false,d,false,false,0.0-2.0-0.15-0.141-3.141,0,0,0,90,true,stim,true,1,1187.0000000000582,2,0,1,22685,WMM1,404123,false,false,508,image-keyboard-response,1
true,5,2,2,1,false,z,false,false,0.0-2.0-0.15-0.142-3.142,0,0,0,68,false,stim,true,2,588.0,2,0,0,22685,WMM1,406219,false,false,511,image-keyboard-response,2
true,5,2,2,0,false,q,false,true,0.0-2.0-0.15-0.143-3.143,0,0,0,68,false,stim,true,2,371.0000000000582,2,0,2,22685,WMM1,408099,false,true,514,image-keyboard-response,3
true,5,1,2,1,true,z,false,true,0.0-2.0-0.16-0.144-3.144,0,0,0,90,false,stim,false,2,428.0,2,0,0,22685,WMM1,410035,false,false,517,image-keyboard-response,4
true,5,2,2,0,false,q,false,false,0.0-2.0-0.16-0.145-3.145,0,0,0,68,false,stim,true,2,668.0,2,0,2,22685,WMM1,412211,false,false,520,image-keyboard-response,5
true,5,1,2,2,false,d,false,false,0.0-2.0-0.16-0.146-3.146,0,0,0,90,false,stim,true,1,1500.0,2,0,1,22685,WMM1,415219,false,false,523,image-keyboard-response,6
true,5,0,2,2,false,d,true,false,0.0-2.0-0.16-0.147-3.147,0,0,0,81,false,stim,false,1,571.0,2,0,1,22685,WMM1,417299,false,false,526,image-keyboard-response,7
true,5,1,2,1,true,z,false,true,0.0-2.0-0.16-0.148-3.148,0,0,0,90,false,stim,false,2,1091.0,2,0,0,22685,WMM1,419899,false,false,529,image-keyboard-response,8
true,5,2,2,0,false,q,false,false,0.0-2.0-0.16-0.149-3.149,0,0,0,68,false,stim,true,2,364.0,2,0,2,22685,WMM1,421770,false,false,532,image-keyboard-response,9
true,5,1,2,0,false,q,true,true,0.0-2.0-0.16-0.150-3.150,0,0,0,90,false,stim,false,2,940.0,2,0,2,22685,WMM1,424219,false,true,535,image-keyboard-response,10
true,5,1,2,2,false,d,false,false,0.0-2.0-0.16-0.151-3.151,0,0,0,90,false,stim,true,1,1204.0000000000582,2,0,1,22685,WMM1,426930,false,false,538,image-keyboard-response,11
true,5,1,2,1,true,z,false,true,0.0-2.0-0.16-0.152-3.152,0,0,0,90,false,stim,false,2,651.0,2,0,0,22685,WMM1,429091,false,false,541,image-keyboard-response,12
true,5,1,2,1,true,z,false,true,0.0-2.0-0.17-0.153-3.153,0,0,0,90,false,stim,false,2,747.0,2,0,0,22685,WMM1,431347,false,false,544,image-keyboard-response,13
true,5,2,2,2,true,d,false,true,0.0-2.0-0.17-0.154-3.154,0,0,0,68,false,stim,false,1,987.0,2,0,1,22685,WMM1,433843,false,false,547,image-keyboard-response,14
true,5,1,2,1,true,z,false,true,0.0-2.0-0.17-0.155-3.155,0,0,0,90,false,stim,false,2,579.0000000000582,2,0,0,22685,WMM1,435930,false,false,550,image-keyboard-response,15
true,5,1,2,2,false,d,false,false,0.0-2.0-0.17-0.156-3.156,0,0,0,90,false,stim,true,1,500.0,2,0,1,22685,WMM1,437938,false,false,553,image-keyboard-response,16
true,5,2,2,2,true,d,false,true,0.0-2.0-0.17-0.157-3.157,0,0,0,68,false,stim,false,1,707.0,2,0,1,22685,WMM1,440154,false,false,556,image-keyboard-response,17
true,5,1,2,0,false,q,true,false,0.0-2.0-0.17-0.158-3.158,0,0,0,90,false,stim,false,2,570.9999999999418,2,0,2,22685,WMM1,442234,false,false,559,image-keyboard-response,18
true,5,1,2,0,false,q,true,false,0.0-2.0-0.17-0.159-3.159,0,0,0,90,false,stim,false,2,580.0,2,0,2,22685,WMM1,444322,false,false,562,image-keyboard-response,19
true,5,1,2,1,true,z,false,true,0.0-2.0-0.17-0.160-3.160,0,0,0,90,false,stim,false,2,875.0,2,0,0,22685,WMM1,446706,false,false,565,image-keyboard-response,20
true,5,2,2,0,false,q,false,false,0.0-2.0-0.17-0.161-3.161,0,0,0,68,false,stim,true,2,651.0,2,0,2,22685,WMM1,448866,false,false,568,image-keyboard-response,21
true,5,1,2,2,false,d,false,false,0.0-2.0-0.18-0.162-3.162,0,0,0,90,false,stim,true,1,803.0,2,0,1,22685,WMM1,451178,false,false,571,image-keyboard-response,22
true,5,1,2,1,true,z,false,true,0.0-2.0-0.18-0.163-3.163,0,0,0,90,false,stim,false,2,419.9999999999418,2,0,0,22685,WMM1,453106,false,false,574,image-keyboard-response,23
true,5,1,2,1,true,z,false,true,0.0-2.0-0.18-0.164-3.164,0,0,0,90,false,stim,false,2,738.9999999999418,2,0,0,22685,WMM1,455354,false,false,577,image-keyboard-response,24
true,5,2,2,0,false,q,false,false,0.0-2.0-0.18-0.165-3.165,0,0,0,68,false,stim,true,2,979.0,2,0,2,22685,WMM1,457842,false,false,580,image-keyboard-response,25
true,5,0,2,0,true,q,false,true,0.0-2.0-0.18-0.166-3.166,0,0,0,81,false,stim,false,2,683.0,2,0,2,22685,WMM1,460034,false,false,583,image-keyboard-response,26
true,5,0,2,2,false,d,true,true,0.0-2.0-0.18-0.167-3.167,0,0,0,81,false,stim,false,1,1395.0,2,0,1,22685,WMM1,462938,false,true,586,image-keyboard-response,27
true,5,0,2,0,true,q,false,true,0.0-2.0-0.18-0.168-3.168,0,0,0,81,false,stim,false,2,763.0,2,0,2,22685,WMM1,465209,false,false,589,image-keyboard-response,28
true,5,0,2,2,false,d,true,false,0.0-2.0-0.18-0.169-3.169,0,0,0,81,false,stim,false,1,388.0,2,0,1,22685,WMM1,467105,false,false,592,image-keyboard-response,29
true,5,1,2,1,true,z,false,true,0.0-2.0-0.18-0.170-3.170,0,0,0,90,false,stim,false,2,810.9999999999418,2,0,0,22685,WMM1,469425,false,false,595,image-keyboard-response,30
true,5,0,2,0,true,q,false,true,0.0-2.0-0.19-0.171-3.171,0,0,0,81,false,stim,false,2,499.0,2,0,2,22685,WMM1,471433,false,false,598,image-keyboard-response,31
true,5,1,2,1,true,z,false,true,0.0-2.0-0.19-0.172-3.172,0,0,0,90,false,stim,false,2,623.0,2,0,0,22685,WMM1,473569,false,false,601,image-keyboard-response,32
true,5,0,2,2,false,d,true,false,0.0-2.0-0.19-0.173-3.173,0,0,0,81,false,stim,false,1,442.9999999999418,2,0,1,22685,WMM1,475521,false,false,604,image-keyboard-response,33
true,5,1,2,1,true,z,false,true,0.0-2.0-0.19-0.174-3.174,0,0,0,90,false,stim,false,2,660.0,2,0,0,22685,WMM1,477689,false,false,607,image-keyboard-response,34
true,5,0,2,0,true,q,false,true,0.0-2.0-0.19-0.175-3.175,0,0,0,81,false,stim,false,2,1218.9999999999418,2,0,2,22685,WMM1,480417,false,false,610,image-keyboard-response,35
true,5,2,2,2,true,d,false,true,0.0-2.0-0.19-0.176-3.176,0,0,0,68,false,stim,false,1,771.0,2,0,1,22685,WMM1,482697,false,false,613,image-keyboard-response,36
true,5,0,2,0,true,q,false,false,0.0-2.0-0.19-0.177-3.177,0,0,0,81,false,stim,false,2,739.0,2,0,2,22685,WMM1,484945,false,true,616,image-keyboard-response,37
true,5,1,2,1,true,z,false,true,0.0-2.0-0.19-0.178-3.178,0,0,0,90,false,stim,false,2,555.0,2,0,0,22685,WMM1,487009,false,false,619,image-keyboard-response,38
true,5,0,2,2,false,d,true,false,0.0-2.0-0.19-0.179-3.179,0,0,0,81,false,stim,false,1,2371.0,2,0,1,22685,WMM1,490889,false,false,622,image-keyboard-response,39
true,5,1,2,1,true,z,false,true,0.0-2.0-0.20-0.180-3.180,0,0,0,90,false,stim,false,2,851.0,2,0,0,22685,WMM1,493249,false,false,625,image-keyboard-response,40
true,5,0,2,0,true,q,false,true,0.0-2.0-0.20-0.181-3.181,0,0,0,81,false,stim,false,2,1114.9999999999418,2,0,2,22685,WMM1,495872,false,false,628,image-keyboard-response,41
true,5,2,2,2,true,d,false,true,0.0-2.0-0.20-0.182-3.182,0,0,0,68,false,stim,false,1,492.0,2,0,1,22685,WMM1,497873,false,false,631,image-keyboard-response,42
true,5,2,2,2,true,d,false,true,0.0-2.0-0.20-0.183-3.183,0,0,0,68,false,stim,false,1,995.0,2,0,1,22685,WMM1,500376,false,false,634,image-keyboard-response,43
true,5,1,2,1,true,z,false,true,0.0-2.0-0.20-0.184-3.184,0,0,0,90,false,stim,false,2,723.0000000000582,2,0,0,22685,WMM1,502608,false,false,637,image-keyboard-response,44
true,5,2,2,2,true,d,false,true,0.0-2.0-0.20-0.185-3.185,0,0,0,68,false,stim,false,1,732.0,2,1,1,22685,WMM1,504848,false,false,640,image-keyboard-response,45
true,5,0,2,0,true,q,false,true,0.0-2.0-0.20-0.186-3.186,0,0,0,81,false,stim,false,2,932.0,2,0,2,22685,WMM1,507288,false,false,643,image-keyboard-response,46
true,5,2,2,0,false,q,false,true,0.0-2.0-0.20-0.187-3.187,0,0,0,68,false,stim,true,2,1076.0,2,0,2,22685,WMM1,509872,false,true,646,image-keyboard-response,47
true,5,1,2,1,true,z,false,true,0.0-2.0-0.20-0.188-3.188,0,0,0,90,false,stim,false,2,1690.9999999999418,2,0,0,22685,WMM1,513072,false,false,649,image-keyboard-response,48
true,5,0,2,2,false,d,true,false,0.0-2.0-0.21-0.189-3.189,0,0,0,81,false,stim,false,1,1124.0000000000582,2,1,1,22685,WMM1,515704,false,false,652,image-keyboard-response,49
true,5,2,2,0,false,q,false,false,0.0-2.0-0.21-0.190-3.190,0,0,0,68,false,stim,true,2,467.0,2,0,2,22685,WMM1,517680,false,false,655,image-keyboard-response,50
true,5,2,2,2,true,d,false,true,0.0-2.0-0.21-0.191-3.191,0,0,0,68,false,stim,false,1,1275.0,2,1,1,22685,WMM1,520463,false,false,658,image-keyboard-response,51
true,5,0,2,0,true,q,false,true,0.0-2.0-0.21-0.192-3.192,0,0,0,81,false,stim,false,2,460.0000000000582,2,0,2,22685,WMM1,522432,false,false,661,image-keyboard-response,52
true,5,1,2,1,true,z,false,true,0.0-2.0-0.21-0.193-3.193,0,0,0,90,false,stim,false,2,548.0,2,0,0,22685,WMM1,524488,false,false,664,image-keyboard-response,53
true,6,0,3,1,false,z,false,false,0.0-2.0-0.21-0.194-3.194,0,1,0,81,true,stim,true,0,1316.0,2,0,2,22685,WMM1,527311,false,false,667,image-keyboard-response,1
true,6,0,3,2,false,d,true,false,0.0-2.0-0.21-0.195-3.195,0,1,0,81,false,stim,false,2,1539.0,2,1,1,22685,WMM1,530359,false,false,670,image-keyboard-response,2
true,6,1,3,0,false,q,false,false,0.0-2.0-0.21-0.196-3.196,0,1,0,90,false,stim,true,1,939.0,2,0,0,22685,WMM1,532807,false,false,673,image-keyboard-response,3
true,6,2,3,0,false,q,true,false,0.0-2.0-0.21-0.197-3.197,0,1,0,68,false,stim,false,1,843.0,2,0,0,22685,WMM1,535159,false,false,676,image-keyboard-response,4
true,6,2,3,2,true,d,false,false,0.0-2.0-0.22-0.198-3.198,0,1,0,68,false,stim,false,2,2171.0,2,1,1,22685,WMM1,538839,false,true,679,image-keyboard-response,5
true,6,2,3,1,false,z,true,true,0.0-2.0-0.22-0.199-3.199,0,1,0,68,false,stim,false,0,1019.0,2,0,2,22685,WMM1,541367,false,true,682,image-keyboard-response,6
true,6,2,3,1,false,z,true,false,0.0-2.0-0.22-0.200-3.200,0,1,0,68,false,stim,false,0,507.0,2,0,2,22685,WMM1,543383,false,false,685,image-keyboard-response,7
true,6,0,3,1,false,z,false,false,0.0-2.0-0.22-0.201-3.201,0,1,0,81,false,stim,true,0,515.0,2,0,2,22685,WMM1,545407,false,false,688,image-keyboard-response,8
true,6,0,3,2,false,d,true,false,0.0-2.0-0.22-0.202-3.202,0,1,0,81,false,stim,false,2,988.0,2,1,1,22685,WMM1,547903,false,false,691,image-keyboard-response,9
true,6,2,3,0,false,q,true,false,0.0-2.0-0.22-0.203-3.203,0,1,0,68,false,stim,false,1,1252.0,2,0,0,22685,WMM1,550663,false,false,694,image-keyboard-response,10
true,6,2,3,0,false,q,true,false,0.0-2.0-0.22-0.204-3.204,0,1,0,68,false,stim,false,1,491.0,2,0,0,22685,WMM1,552663,false,false,697,image-keyboard-response,11
true,6,1,3,0,false,q,false,false,0.0-2.0-0.22-0.205-3.205,0,1,0,90,false,stim,true,1,691.0,2,0,0,22685,WMM1,554862,false,false,700,image-keyboard-response,12
true,6,2,3,2,true,d,false,true,0.0-2.0-0.22-0.206-3.206,0,1,0,68,false,stim,false,2,833.0000000001164,2,1,1,22685,WMM1,557206,false,false,703,image-keyboard-response,13
true,6,2,3,1,false,z,true,true,0.0-2.0-0.23-0.207-3.207,0,1,0,68,false,stim,false,0,988.0,2,0,2,22685,WMM1,559703,false,true,706,image-keyboard-response,14
true,6,0,3,0,true,q,false,true,0.0-2.0-0.23-0.208-3.208,0,1,0,81,false,stim,false,1,1179.0,2,0,0,22685,WMM1,562390,false,false,709,image-keyboard-response,15
true,6,2,3,2,true,d,false,true,0.0-2.0-0.23-0.209-3.209,0,1,0,68,false,stim,false,2,629.0,2,1,1,22685,WMM1,564526,false,false,712,image-keyboard-response,16
true,6,2,3,1,false,z,true,false,0.0-2.0-0.23-0.210-3.210,0,1,0,68,false,stim,false,0,595.0,2,0,2,22685,WMM1,566630,false,false,715,image-keyboard-response,17
true,6,0,3,0,true,q,false,true,0.0-2.0-0.23-0.211-3.211,0,1,0,81,false,stim,false,1,643.0,2,0,0,22685,WMM1,568782,false,false,718,image-keyboard-response,18
true,6,0,3,0,true,q,false,true,0.0-2.0-0.23-0.212-3.212,0,1,0,81,false,stim,false,1,804.0,2,0,0,22685,WMM1,571094,false,false,721,image-keyboard-response,19
true,6,2,3,1,false,z,true,false,0.0-2.0-0.23-0.213-3.213,0,1,0,68,false,stim,false,0,1108.0,2,0,2,22685,WMM1,573710,false,false,724,image-keyboard-response,20
true,6,2,3,2,true,d,false,true,0.0-2.0-0.23-0.214-3.214,0,1,0,68,false,stim,false,2,426.0,2,1,1,22685,WMM1,575646,false,false,727,image-keyboard-response,21
true,6,2,3,2,true,d,false,true,0.0-2.0-0.23-0.215-3.215,0,1,0,68,false,stim,false,2,588.0,2,1,1,22685,WMM1,577742,false,false,730,image-keyboard-response,22
true,6,0,3,0,true,q,false,true,0.0-2.0-0.24-0.216-3.216,0,1,0,81,false,stim,false,1,610.0,2,0,0,22685,WMM1,579862,false,false,733,image-keyboard-response,23
true,6,1,3,1,true,z,false,false,0.0-2.0-0.24-0.217-3.217,0,1,0,90,false,stim,false,0,866.0,2,0,2,22685,WMM1,582238,false,true,736,image-keyboard-response,24
true,6,0,3,1,false,z,false,false,0.0-2.0-0.24-0.218-3.218,0,1,0,81,false,stim,true,0,763.0,2,0,2,22685,WMM1,584510,false,false,739,image-keyboard-response,25
true,6,2,3,2,true,d,false,true,0.0-2.0-0.24-0.219-3.219,0,1,0,68,false,stim,false,2,1251.0,2,1,1,22685,WMM1,587270,false,false,742,image-keyboard-response,26
true,6,2,3,1,false,z,true,false,0.0-2.0-0.24-0.220-3.220,0,1,0,68,false,stim,false,0,1867.0,2,0,2,22685,WMM1,590646,false,false,745,image-keyboard-response,27
true,6,2,3,2,true,d,false,true,0.0-2.0-0.24-0.221-3.221,0,1,0,68,false,stim,false,2,652.0,2,1,1,22685,WMM1,592805,false,false,748,image-keyboard-response,28
true,6,2,3,2,true,d,false,true,0.0-2.0-0.24-0.222-3.222,0,1,0,68,false,stim,false,2,586.0,2,1,1,22685,WMM1,594902,false,false,751,image-keyboard-response,29
true,6,0,3,0,true,q,false,true,0.0-2.0-0.24-0.223-3.223,0,1,0,81,false,stim,false,1,594.0,2,0,0,22685,WMM1,597005,false,false,754,image-keyboard-response,30
true,6,0,3,0,true,q,false,true,0.0-2.0-0.24-0.224-3.224,0,1,0,81,false,stim,false,1,442.0,2,0,0,22685,WMM1,598957,false,false,757,image-keyboard-response,31
true,6,0,3,0,true,q,false,true,0.0-2.0-0.25-0.225-3.225,0,1,0,81,false,stim,false,1,506.0,2,0,0,22685,WMM1,600973,false,false,760,image-keyboard-response,32
true,6,2,3,1,false,z,true,false,0.0-2.0-0.25-0.226-3.226,0,1,0,68,false,stim,false,0,1555.0,2,0,2,22685,WMM1,604037,false,false,763,image-keyboard-response,33
true,6,1,3,1,true,z,false,true,0.0-2.0-0.25-0.227-3.227,0,1,0,90,false,stim,false,0,1314.9999999998836,2,0,2,22685,WMM1,606861,false,false,766,image-keyboard-response,34
true,6,2,3,2,true,d,false,true,0.0-2.0-0.25-0.228-3.228,0,1,0,68,false,stim,false,2,683.0,2,1,1,22685,WMM1,609053,false,false,769,image-keyboard-response,35
true,6,2,3,2,true,d,false,true,0.0-2.0-0.25-0.229-3.229,0,1,0,68,false,stim,false,2,531.0,2,1,1,22685,WMM1,611093,false,false,772,image-keyboard-response,36
true,6,2,3,2,true,d,false,true,0.0-2.0-0.25-0.230-3.230,0,1,0,68,false,stim,false,2,483.0,2,1,1,22685,WMM1,613085,false,false,775,image-keyboard-response,37
true,6,1,3,1,true,z,false,false,0.0-2.0-0.25-0.231-3.231,0,1,0,90,false,stim,false,0,786.0,2,0,2,22685,WMM1,615381,false,true,778,image-keyboard-response,38
true,6,0,3,0,true,q,false,true,0.0-2.0-0.25-0.232-3.232,0,1,0,81,false,stim,false,1,931.0,2,0,0,22685,WMM1,617821,false,false,781,image-keyboard-response,39
true,6,0,3,0,true,q,false,true,0.0-2.0-0.25-0.233-3.233,0,1,0,81,false,stim,false,1,522.9999999998836,2,0,0,22685,WMM1,619853,false,false,784,image-keyboard-response,40
true,6,0,3,0,true,q,false,true,0.0-2.0-0.26-0.234-3.234,0,1,0,81,false,stim,false,1,403.0,2,0,0,22685,WMM1,621765,false,false,787,image-keyboard-response,41
true,6,0,3,0,true,q,false,false,0.0-2.0-0.26-0.235-3.235,0,1,0,81,false,stim,false,1,419.0,2,0,0,22685,WMM1,623692,false,true,790,image-keyboard-response,42
true,6,0,3,1,false,z,false,false,0.0-2.0-0.26-0.236-3.236,0,1,0,81,false,stim,true,0,1588.0,2,1,2,22685,WMM1,626788,false,false,793,image-keyboard-response,43
true,6,1,3,1,true,z,false,true,0.0-2.0-0.26-0.237-3.237,0,1,0,90,false,stim,false,0,867.0,2,1,2,22685,WMM1,629164,false,false,796,image-keyboard-response,44
true,6,2,3,2,true,d,false,true,0.0-2.0-0.26-0.238-3.238,0,1,0,68,false,stim,false,2,891.0,2,0,1,22685,WMM1,631564,false,false,799,image-keyboard-response,45
true,6,2,3,2,true,d,false,true,0.0-2.0-0.26-0.239-3.239,0,1,0,68,false,stim,false,2,454.0,2,0,1,22685,WMM1,633532,false,false,802,image-keyboard-response,46
true,6,1,3,1,true,z,false,true,0.0-2.0-0.26-0.240-3.240,0,1,0,90,false,stim,false,0,867.0,2,1,2,22685,WMM1,635908,false,false,805,image-keyboard-response,47
true,6,2,3,2,true,d,false,true,0.0-2.0-0.26-0.241-3.241,0,1,0,68,false,stim,false,2,611.0,2,0,1,22685,WMM1,638028,false,false,808,image-keyboard-response,48
true,7,0,3,2,false,d,false,false,0.0-2.0-0.26-0.242-3.242,0,0,1,81,true,stim,true,0,555.0,2,0,0,22685,WMM1,640092,false,false,811,image-keyboard-response,1
true,7,2,3,0,false,q,false,false,0.0-2.0-0.27-0.243-3.243,0,0,1,68,false,stim,true,2,915.0,2,0,1,22685,WMM1,642516,false,false,814,image-keyboard-response,2
true,7,1,3,1,true,z,false,true,0.0-2.0-0.27-0.244-3.244,0,0,1,90,false,stim,false,1,676.0,2,1,2,22685,WMM1,644700,false,false,817,image-keyboard-response,3
true,7,2,3,0,false,q,false,false,0.0-2.0-0.27-0.245-3.245,0,0,1,68,false,stim,true,2,659.0,2,0,1,22685,WMM1,646868,false,false,820,image-keyboard-response,4
true,7,1,3,1,true,z,false,true,0.0-2.0-0.27-0.246-3.246,0,0,1,90,false,stim,false,1,690.9999999998836,2,1,2,22685,WMM1,649068,false,false,823,image-keyboard-response,5
true,7,1,3,0,false,q,true,false,0.0-2.0-0.27-0.247-3.247,0,0,1,90,false,stim,false,2,1332.0,2,0,1,22685,WMM1,651908,false,false,826,image-keyboard-response,6
true,7,1,3,1,true,z,false,true,0.0-2.0-0.27-0.248-3.248,0,0,1,90,false,stim,false,1,1187.0,2,1,2,22685,WMM1,654604,false,false,829,image-keyboard-response,7
true,7,1,3,2,false,d,true,true,0.0-2.0-0.27-0.249-3.249,0,0,1,90,false,stim,false,0,612.0,2,0,0,22685,WMM1,656723,false,true,832,image-keyboard-response,8
true,7,1,3,2,false,d,true,false,0.0-2.0-0.27-0.250-3.250,0,0,1,90,false,stim,false,0,427.0,2,0,0,22685,WMM1,658659,false,false,835,image-keyboard-response,9
true,7,1,3,2,false,d,true,true,0.0-2.0-0.27-0.251-3.251,0,0,1,90,false,stim,false,0,476.0,2,0,0,22685,WMM1,660643,false,true,838,image-keyboard-response,10
true,7,1,3,1,true,z,false,true,0.0-2.0-0.28-0.252-3.252,0,0,1,90,false,stim,false,1,522.0,2,1,2,22685,WMM1,662675,false,false,841,image-keyboard-response,11
true,7,1,3,1,true,z,false,true,0.0-2.0-0.28-0.253-3.253,0,0,1,90,false,stim,false,1,803.0,2,1,2,22685,WMM1,664987,false,false,844,image-keyboard-response,12
true,7,1,3,2,false,d,true,false,0.0-2.0-0.28-0.254-3.254,0,0,1,90,false,stim,false,0,602.0,2,0,0,22685,WMM1,667099,false,false,847,image-keyboard-response,13
true,7,1,3,2,false,d,true,false,0.0-2.0-0.28-0.255-3.255,0,0,1,90,false,stim,false,0,460.0,2,0,0,22685,WMM1,669067,false,false,850,image-keyboard-response,14
true,7,0,3,0,true,q,false,false,0.0-2.0-0.28-0.256-3.256,0,0,1,81,false,stim,false,2,867.0000000001164,2,0,1,22685,WMM1,671443,false,true,853,image-keyboard-response,15
true,7,0,3,2,false,d,false,false,0.0-2.0-0.28-0.257-3.257,0,0,1,81,false,stim,true,0,1243.0,2,0,0,22685,WMM1,674195,false,false,856,image-keyboard-response,16
true,7,1,3,1,true,z,false,true,0.0-2.0-0.28-0.258-3.258,0,0,1,90,false,stim,false,1,947.0,2,1,2,22685,WMM1,676651,false,false,859,image-keyboard-response,17
true,7,0,3,0,true,q,false,true,0.0-2.0-0.28-0.259-3.259,0,0,1,81,false,stim,false,2,1916.0,2,0,1,22685,WMM1,680075,false,false,862,image-keyboard-response,18
true,7,0,3,0,true,q,false,true,0.0-2.0-0.28-0.260-3.260,0,0,1,81,false,stim,false,2,698.0,2,0,1,22685,WMM1,682283,false,false,865,image-keyboard-response,19
true,7,2,3,2,true,d,false,true,0.0-2.0-0.29-0.261-3.261,0,0,1,68,false,stim,false,0,1339.0,2,0,0,22685,WMM1,685131,false,false,868,image-keyboard-response,20
true,7,1,3,1,true,z,false,true,0.0-2.0-0.29-0.262-3.262,0,0,1,90,false,stim,false,1,2298.0,2,1,2,22685,WMM1,688939,false,false,871,image-keyboard-response,21
true,7,0,3,0,true,q,false,false,0.0-2.0-0.29-0.263-3.263,0,0,1,81,false,stim,false,2,562.0,2,0,1,22685,WMM1,691010,false,true,874,image-keyboard-response,22
true,7,1,3,1,true,z,false,true,0.0-2.0-0.29-0.264-3.264,0,0,1,90,false,stim,false,1,962.9999999998836,2,1,2,22685,WMM1,693482,false,false,877,image-keyboard-response,23
true,7,2,3,2,true,d,false,true,0.0-2.0-0.29-0.265-3.265,0,0,1,68,false,stim,false,0,787.0,2,0,0,22685,WMM1,695778,false,false,880,image-keyboard-response,24
true,7,0,3,1,false,z,true,false,0.0-2.0-0.29-0.266-3.266,0,0,1,81,false,stim,false,1,1082.0000000001164,2,0,2,22685,WMM1,698370,false,false,883,image-keyboard-response,25
true,7,2,3,2,true,d,false,true,0.0-2.0-0.29-0.267-3.267,0,0,1,68,false,stim,false,0,1267.0,2,0,0,22685,WMM1,701146,false,false,886,image-keyboard-response,26
true,7,0,3,0,true,q,false,true,0.0-2.0-0.29-0.268-3.268,0,0,1,81,false,stim,false,2,1075.0,2,0,1,22685,WMM1,703730,false,false,889,image-keyboard-response,27
true,7,0,3,0,true,q,false,false,0.0-2.0-0.29-0.269-3.269,0,0,1,81,false,stim,false,2,563.0,2,0,1,22685,WMM1,705802,false,true,892,image-keyboard-response,28
true,7,2,3,2,true,d,false,true,0.0-2.0-0.30-0.270-3.270,0,0,1,68,false,stim,false,0,1563.0,2,0,0,22685,WMM1,708874,false,false,895,image-keyboard-response,29
true,7,1,3,1,true,z,false,true,0.0-2.0-0.30-0.271-3.271,0,0,1,90,false,stim,false,1,1003.0,2,0,2,22685,WMM1,711385,false,false,898,image-keyboard-response,30
true,7,0,3,0,true,q,false,true,0.0-2.0-0.30-0.272-3.272,0,0,1,81,false,stim,false,2,1062.9999999998836,2,0,1,22685,WMM1,713961,false,false,901,image-keyboard-response,31
true,7,1,3,1,true,z,false,false,0.0-2.0-0.30-0.273-3.273,0,0,1,90,false,stim,false,1,794.9999999998836,2,0,2,22685,WMM1,716266,false,true,904,image-keyboard-response,32
true,7,2,3,2,true,d,false,true,0.0-2.0-0.30-0.274-3.274,0,0,1,68,false,stim,false,0,1259.0,2,0,0,22685,WMM1,719034,false,false,907,image-keyboard-response,33
true,7,1,3,0,false,q,true,true,0.0-2.0-0.30-0.275-3.275,0,0,1,90,false,stim,false,2,971.0,2,0,1,22685,WMM1,721513,false,true,910,image-keyboard-response,34
true,8,1,2,0,false,q,false,false,0.0-2.0-0.30-0.276-3.276,0,0,0,90,true,stim,true,1,1635.0,2,0,2,22685,WMM1,724657,false,false,913,image-keyboard-response,1
true,8,0,2,2,false,d,false,false,0.0-2.0-0.30-0.277-3.277,0,0,0,81,false,stim,true,0,1275.0000000001164,2,0,1,22685,WMM1,727441,false,false,916,image-keyboard-response,2
true,8,2,2,1,false,z,false,false,0.0-2.0-0.30-0.278-3.278,0,0,0,68,false,stim,true,2,779.0,2,0,0,22685,WMM1,729729,false,false,919,image-keyboard-response,3
true,8,1,2,0,false,q,false,false,0.0-2.0-0.31-0.279-3.279,0,0,0,90,false,stim,true,1,893.0,2,0,2,22685,WMM1,732169,false,false,922,image-keyboard-response,4
true,8,0,2,1,false,z,true,false,0.0-2.0-0.31-0.280-3.280,0,0,0,81,false,stim,false,2,1011.0,2,0,0,22685,WMM1,734689,false,false,925,image-keyboard-response,5
true,8,1,2,0,false,q,false,false,0.0-2.0-0.31-0.281-3.281,0,0,0,90,false,stim,true,1,1212.0,2,0,2,22685,WMM1,737409,false,false,928,image-keyboard-response,6
true,8,2,2,1,false,z,false,false,0.0-2.0-0.31-0.282-3.282,0,0,0,68,false,stim,true,2,1274.0,2,0,0,22685,WMM1,740193,false,false,931,image-keyboard-response,7
true,8,2,2,2,true,d,false,true,0.0-2.0-0.31-0.283-3.283,0,0,0,68,false,stim,false,0,915.0,2,0,1,22685,WMM1,742617,false,false,934,image-keyboard-response,8
true,8,2,2,2,true,d,false,true,0.0-2.0-0.31-0.284-3.284,0,0,0,68,false,stim,false,0,427.0,2,0,1,22685,WMM1,744553,false,false,937,image-keyboard-response,9
true,8,1,2,0,false,q,false,false,0.0-2.0-0.31-0.285-3.285,0,0,0,90,false,stim,true,1,748.0,2,0,2,22685,WMM1,746809,false,false,940,image-keyboard-response,10
true,8,2,2,2,true,d,false,true,0.0-2.0-0.31-0.286-3.286,0,0,0,68,false,stim,false,0,601.0,2,0,1,22685,WMM1,748921,false,false,943,image-keyboard-response,11
true,8,1,2,1,true,z,false,true,0.0-2.0-0.31-0.287-3.287,0,0,0,90,false,stim,false,2,1387.0,2,0,0,22685,WMM1,751817,false,false,946,image-keyboard-response,12
true,8,2,2,2,true,d,false,true,0.0-2.0-0.32-0.288-3.288,0,0,0,68,false,stim,false,0,866.9999999998836,2,0,1,22685,WMM1,754192,false,false,949,image-keyboard-response,13
true,8,2,2,0,false,q,true,false,0.0-2.0-0.32-0.289-3.289,0,0,0,68,false,stim,false,1,691.0000000001164,2,0,2,22685,WMM1,756392,false,false,952,image-keyboard-response,14
true,8,1,2,1,true,z,false,true,0.0-2.0-0.32-0.290-3.290,0,0,0,90,false,stim,false,2,866.0,2,0,0,22685,WMM1,758768,false,false,955,image-keyboard-response,15
true,8,0,2,0,true,q,false,true,0.0-2.0-0.32-0.291-3.291,0,0,0,81,false,stim,false,1,1091.0000000001164,2,0,2,22685,WMM1,761368,false,false,958,image-keyboard-response,16
true,8,1,2,1,true,z,false,false,0.0-2.0-0.32-0.292-3.292,0,0,0,90,false,stim,false,2,1386.0,2,0,0,22685,WMM1,764264,false,true,961,image-keyboard-response,17
true,8,2,2,2,true,d,false,true,0.0-2.0-0.32-0.293-3.293,0,0,0,68,false,stim,false,0,1114.0,2,0,1,22685,WMM1,766888,false,false,964,image-keyboard-response,18
true,8,2,2,2,true,d,false,true,0.0-2.0-0.32-0.294-3.294,0,0,0,68,false,stim,false,0,508.0,2,0,1,22685,WMM1,768904,false,false,967,image-keyboard-response,19
true,8,0,2,0,true,q,false,true,0.0-2.0-0.32-0.295-3.295,0,0,0,81,false,stim,false,1,481.0,2,0,2,22685,WMM1,770896,false,false,970,image-keyboard-response,20
true,8,0,2,1,false,z,true,false,0.0-2.0-0.32-0.296-3.296,0,0,0,81,false,stim,false,2,522.0,2,0,0,22685,WMM1,772928,false,false,973,image-keyboard-response,21
true,8,1,2,1,true,z,false,true,0.0-2.0-0.33-0.297-3.297,0,0,0,90,false,stim,false,2,619.0,2,0,0,22685,WMM1,775056,false,false,976,image-keyboard-response,22
true,8,1,2,1,true,z,false,true,0.0-2.0-0.33-0.298-3.298,0,0,0,90,false,stim,false,2,514.9999999998836,2,0,0,22685,WMM1,777080,false,false,979,image-keyboard-response,23
true,8,0,2,0,true,q,false,true,0.0-2.0-0.33-0.299-3.299,0,0,0,81,false,stim,false,1,1108.0,2,0,2,22685,WMM1,779696,false,false,982,image-keyboard-response,24
true,8,1,2,1,true,z,false,true,0.0-2.0-0.33-0.300-3.300,0,0,0,90,false,stim,false,2,737.0,2,0,0,22685,WMM1,781944,false,false,985,image-keyboard-response,25
true,8,2,2,2,true,d,false,true,0.0-2.0-0.33-0.301-3.301,0,0,0,68,false,stim,false,0,651.0,2,0,1,22685,WMM1,784104,false,false,988,image-keyboard-response,26
true,8,1,2,0,false,q,false,true,0.0-2.0-0.33-0.302-3.302,0,0,0,90,false,stim,true,1,827.0,2,0,2,22685,WMM1,786439,false,true,991,image-keyboard-response,27
true,8,0,2,0,true,q,false,true,0.0-2.0-0.33-0.303-3.303,0,0,0,81,false,stim,false,1,827.0,2,0,2,22685,WMM1,788775,false,false,994,image-keyboard-response,28
true,8,2,2,2,true,d,false,true,0.0-2.0-0.33-0.304-3.304,0,0,0,68,false,stim,false,0,1857.0,2,0,1,22685,WMM1,792143,false,false,997,image-keyboard-response,29
true,8,2,2,2,true,d,false,true,0.0-2.0-0.33-0.305-3.305,0,0,0,68,false,stim,false,0,548.0,2,0,1,22685,WMM1,794200,false,false,1000,image-keyboard-response,30
true,9,2,1,0,false,q,false,false,0.0-2.0-0.34-0.306-3.306,0,0,0,68,true,stim,true,2,492.0,2,0,1,22685,WMM1,796207,false,false,1003,image-keyboard-response,1
true,9,0,1,2,false,d,false,false,0.0-2.0-0.34-0.307-3.307,0,0,0,81,false,stim,true,0,1811.0,2,0,2,22685,WMM1,799527,false,false,1006,image-keyboard-response,2
true,9,0,1,2,false,d,false,false,0.0-2.0-0.34-0.308-3.308,0,0,0,81,false,stim,true,0,404.0,2,0,2,22685,WMM1,801439,false,false,1009,image-keyboard-response,3
true,9,1,1,0,false,q,false,false,0.0-2.0-0.34-0.309-3.309,0,0,0,90,false,stim,true,1,713.9999999998836,2,0,0,22685,WMM1,803663,false,false,1012,image-keyboard-response,4
true,9,1,1,0,false,q,false,false,0.0-2.0-0.34-0.310-3.310,0,0,0,90,false,stim,true,1,451.0,2,0,0,22685,WMM1,805623,false,false,1015,image-keyboard-response,5
true,9,2,1,2,true,d,false,true,0.0-2.0-0.34-0.311-3.311,0,0,0,68,false,stim,false,0,2051.0,2,0,2,22685,WMM1,809183,false,false,1018,image-keyboard-response,6
true,9,2,1,0,false,q,false,false,0.0-2.0-0.34-0.312-3.312,0,0,0,68,false,stim,true,2,531.0000000001164,2,0,1,22685,WMM1,811223,false,false,1021,image-keyboard-response,7
true,9,1,1,0,false,q,true,false,0.0-2.0-0.34-0.313-3.313,0,0,0,90,false,stim,false,2,643.0,2,0,1,22685,WMM1,813375,false,false,1024,image-keyboard-response,8
true,9,2,1,0,false,q,true,false,0.0-2.0-0.34-0.314-3.314,0,0,0,68,false,stim,false,1,1010.0,2,0,0,22685,WMM1,815895,false,false,1027,image-keyboard-response,9
true,9,1,1,0,false,q,false,false,0.0-2.0-0.35-0.315-3.315,0,0,0,90,false,stim,true,1,707.0,2,0,0,22685,WMM1,818111,false,false,1030,image-keyboard-response,10
true,9,0,1,0,true,q,false,true,0.0-2.0-0.35-0.316-3.316,0,0,0,81,false,stim,false,2,1451.0,2,0,1,22685,WMM1,821070,false,false,1033,image-keyboard-response,11
true,9,2,1,2,true,d,false,true,0.0-2.0-0.35-0.317-3.317,0,0,0,68,false,stim,false,0,668.0,2,0,2,22685,WMM1,823247,false,false,1036,image-keyboard-response,12
true,9,2,1,2,true,d,false,true,0.0-2.0-0.35-0.318-3.318,0,0,0,68,false,stim,false,0,724.0,2,0,2,22685,WMM1,825478,false,false,1039,image-keyboard-response,13
true,9,0,1,0,true,q,false,false,0.0-2.0-0.35-0.319-3.319,0,0,0,81,false,stim,false,2,787.0,2,0,1,22685,WMM1,827774,false,true,1042,image-keyboard-response,14
true,9,0,1,0,true,q,false,true,0.0-2.0-0.35-0.320-3.320,0,0,0,81,false,stim,false,1,771.0,2,0,0,22685,WMM1,830054,false,false,1045,image-keyboard-response,15
true,9,0,1,0,true,q,false,true,0.0-2.0-0.35-0.321-3.321,0,0,0,81,false,stim,false,2,1226.0,2,0,1,22685,WMM1,832790,false,false,1048,image-keyboard-response,16
true,9,2,1,2,true,d,false,true,0.0-2.0-0.35-0.322-3.322,0,0,0,68,false,stim,false,0,603.0,2,0,2,22685,WMM1,834902,false,false,1051,image-keyboard-response,17
true,9,0,1,0,true,q,false,true,0.0-2.0-0.35-0.323-3.323,0,0,0,81,false,stim,false,1,531.0,2,0,0,22685,WMM1,836942,false,false,1054,image-keyboard-response,18
true,9,0,1,2,false,d,false,false,0.0-2.0-0.36-0.324-3.324,0,0,0,81,false,stim,true,0,602.0,2,0,2,22685,WMM1,839054,false,false,1057,image-keyboard-response,19
true,9,0,1,0,true,q,false,true,0.0-2.0-0.36-0.325-3.325,0,0,0,81,false,stim,false,2,585.0,2,0,1,22685,WMM1,841150,false,false,1060,image-keyboard-response,20
true,9,2,1,0,false,q,false,false,0.0-2.0-0.36-0.326-3.326,0,0,0,68,false,stim,true,2,562.0000000001164,2,0,1,22685,WMM1,843222,false,false,1063,image-keyboard-response,21
true,9,0,1,0,true,q,false,true,0.0-2.0-0.36-0.327-3.327,0,0,0,81,false,stim,false,2,474.0,2,0,1,22685,WMM1,845205,false,false,1066,image-keyboard-response,22
true,9,0,1,0,true,q,false,false,0.0-2.0-0.36-0.328-3.328,0,0,0,81,false,stim,false,1,2464.9999999998836,2,0,0,22685,WMM1,849181,false,true,1069,image-keyboard-response,23
true,9,2,1,2,true,d,false,true,0.0-2.0-0.36-0.329-3.329,0,0,0,68,false,stim,false,0,826.0,2,0,2,22685,WMM1,851517,false,false,1072,image-keyboard-response,24
true,9,0,1,0,true,q,false,true,0.0-2.0-0.36-0.330-3.330,0,0,0,81,false,stim,false,1,707.0,2,0,0,22685,WMM1,853733,false,false,1075,image-keyboard-response,25
true,9,2,1,2,true,d,false,true,0.0-2.0-0.36-0.331-3.331,0,0,0,68,false,stim,false,0,1087.9999999998836,2,0,2,22685,WMM1,856333,false,false,1078,image-keyboard-response,26
true,9,0,1,0,true,q,false,true,0.0-2.0-0.36-0.332-3.332,0,0,0,81,false,stim,false,1,562.0,2,0,0,22685,WMM1,858405,false,false,1081,image-keyboard-response,27
true,9,0,1,0,true,q,false,true,0.0-2.0-0.37-0.333-3.333,0,0,0,81,false,stim,false,1,521.0000000001164,2,0,0,22685,WMM1,860437,false,false,1084,image-keyboard-response,28
true,9,0,1,0,true,q,false,false,0.0-2.0-0.37-0.334-3.334,0,0,0,81,false,stim,false,2,593.9999999998836,2,0,1,22685,WMM1,862541,false,true,1087,image-keyboard-response,29
true,9,0,1,0,true,q,false,true,0.0-2.0-0.37-0.335-3.335,0,0,0,81,false,stim,false,1,1226.0,2,0,0,22685,WMM1,865277,false,false,1090,image-keyboard-response,30
true,9,2,1,2,true,d,false,true,0.0-2.0-0.37-0.336-3.336,0,0,0,68,false,stim,false,0,675.0000000001164,2,0,2,22685,WMM1,867461,false,false,1093,image-keyboard-response,31
true,9,0,1,0,true,q,false,true,0.0-2.0-0.37-0.337-3.337,0,0,0,81,false,stim,false,1,787.0,2,0,0,22685,WMM1,869757,false,false,1096,image-keyboard-response,32
true,9,2,1,2,true,d,false,true,0.0-2.0-0.37-0.338-3.338,0,0,0,68,false,stim,false,0,787.0,2,0,2,22685,WMM1,872053,false,false,1099,image-keyboard-response,33
true,9,0,1,0,true,q,false,true,0.0-2.0-0.37-0.339-3.339,0,0,0,81,false,stim,false,2,678.0,2,0,1,22685,WMM1,874245,false,false,1102,image-keyboard-response,34
true,9,2,1,2,true,d,false,true,0.0-2.0-0.37-0.340-3.340,0,0,0,68,false,stim,false,0,851.0000000001164,2,0,2,22685,WMM1,876604,false,false,1105,image-keyboard-response,35
true,9,0,1,0,true,q,false,true,0.0-2.0-0.37-0.341-3.341,0,0,0,81,false,stim,false,2,859.0,2,0,1,22685,WMM1,878973,false,false,1108,image-keyboard-response,36
true,9,2,1,2,true,d,false,true,0.0-2.0-0.38-0.342-3.342,0,0,0,68,false,stim,false,0,811.0000000001164,2,0,2,22685,WMM1,881292,false,false,1111,image-keyboard-response,37
true,9,0,1,0,true,q,false,true,0.0-2.0-0.38-0.343-3.343,0,0,0,81,false,stim,false,2,874.0,2,0,1,22685,WMM1,883677,false,false,1114,image-keyboard-response,38
true,9,0,1,0,true,q,false,false,0.0-2.0-0.38-0.344-3.344,0,0,0,81,false,stim,false,1,1956.0,2,0,0,22685,WMM1,887140,false,true,1117,image-keyboard-response,39
true,10,2,2,0,false,q,false,false,0.0-2.0-0.38-0.345-3.345,0,0,0,68,true,stim,true,2,812.0000000001164,2,0,2,22685,WMM1,889460,false,false,1120,image-keyboard-response,1
true,10,0,2,1,false,z,false,false,0.0-2.0-0.38-0.346-3.346,0,0,0,81,false,stim,true,0,692.0,2,0,0,22685,WMM1,891660,false,false,1123,image-keyboard-response,2
true,10,0,2,2,false,d,false,false,0.0-2.0-0.38-0.347-3.347,0,0,0,81,false,stim,true,0,756.0,2,0,1,22685,WMM1,893924,false,false,1126,image-keyboard-response,3
true,10,1,2,0,false,q,true,false,0.0-2.0-0.38-0.348-3.348,0,0,0,90,false,stim,false,2,1009.0,2,0,2,22685,WMM1,896443,false,false,1129,image-keyboard-response,4
true,10,1,2,1,true,z,false,true,0.0-2.0-0.38-0.349-3.349,0,0,0,90,false,stim,false,0,701.0,2,0,0,22685,WMM1,898652,false,false,1132,image-keyboard-response,5
true,10,1,2,2,false,d,true,false,0.0-2.0-0.38-0.350-3.350,0,0,0,90,false,stim,false,0,1844.0,2,0,1,22685,WMM1,902003,false,false,1135,image-keyboard-response,6
true,10,1,2,0,false,q,true,false,0.0-2.0-0.39-0.351-3.351,0,0,0,90,false,stim,false,2,1314.9999999998836,2,0,2,22685,WMM1,904828,false,false,1138,image-keyboard-response,7
true,10,0,2,0,true,q,false,true,0.0-2.0-0.39-0.352-3.352,0,0,0,81,false,stim,false,2,547.0,2,0,2,22685,WMM1,906884,false,false,1141,image-keyboard-response,8
true,10,1,2,1,true,z,false,true,0.0-2.0-0.39-0.353-3.353,0,0,0,90,false,stim,false,0,546.9999999998836,2,0,0,22685,WMM1,908939,false,false,1144,image-keyboard-response,9
true,10,0,2,0,true,q,false,true,0.0-2.0-0.39-0.354-3.354,0,0,0,81,false,stim,false,2,452.0,2,0,2,22685,WMM1,910899,false,false,1147,image-keyboard-response,10
true,10,2,2,2,true,d,false,true,0.0-2.0-0.39-0.355-3.355,0,0,0,68,false,stim,false,0,570.0,2,0,1,22685,WMM1,912979,false,false,1150,image-keyboard-response,11
true,10,0,2,1,false,z,false,false,0.0-2.0-0.39-0.356-3.356,0,0,0,81,false,stim,true,0,1652.0,2,0,0,22685,WMM1,916139,false,false,1153,image-keyboard-response,12
true,10,0,2,2,false,d,false,false,0.0-2.0-0.39-0.357-3.357,0,0,0,81,false,stim,true,0,979.0000000001164,2,0,1,22685,WMM1,918627,false,false,1156,image-keyboard-response,13
true,10,1,2,1,true,z,false,true,0.0-2.0-0.39-0.358-3.358,0,0,0,90,false,stim,false,0,1020.0,2,0,0,22685,WMM1,921155,false,false,1159,image-keyboard-response,14
true,10,2,2,2,true,d,false,true,0.0-2.0-0.39-0.359-3.359,0,0,0,68,false,stim,false,0,779.0,2,0,1,22685,WMM1,923443,false,false,1162,image-keyboard-response,15
true,10,2,2,2,true,d,false,true,0.0-2.0-0.40-0.360-3.360,0,0,0,68,false,stim,false,0,539.0,2,0,1,22685,WMM1,925491,false,false,1165,image-keyboard-response,16
true,10,1,2,1,true,z,false,true,0.0-2.0-0.40-0.361-3.361,0,0,0,90,false,stim,false,0,692.0,2,0,0,22685,WMM1,927691,false,false,1168,image-keyboard-response,17
true,10,2,2,2,true,d,false,true,0.0-2.0-0.40-0.362-3.362,0,0,0,68,false,stim,false,0,849.0,2,0,1,22685,WMM1,930051,false,false,1171,image-keyboard-response,18
true,10,2,2,2,true,d,false,true,0.0-2.0-0.40-0.363-3.363,0,0,0,68,false,stim,false,0,578.9999999998836,2,0,1,22685,WMM1,932139,false,false,1174,image-keyboard-response,19
true,10,0,2,0,true,q,false,true,0.0-2.0-0.40-0.364-3.364,0,0,0,81,false,stim,false,2,963.0,2,0,2,22685,WMM1,934611,false,false,1177,image-keyboard-response,20
true,10,2,2,1,false,z,true,false,0.0-2.0-0.40-0.365-3.365,0,0,0,68,false,stim,false,0,1521.0,2,0,0,22685,WMM1,937643,false,false,1180,image-keyboard-response,21
true,10,1,2,0,false,q,true,false,0.0-2.0-0.40-0.366-3.366,0,0,0,90,false,stim,false,2,2258.0000000001164,2,0,2,22685,WMM1,941411,false,false,1183,image-keyboard-response,22
true,10,0,2,0,true,q,false,true,0.0-2.0-0.40-0.367-3.367,0,0,0,81,false,stim,false,2,563.0000000001164,2,0,2,22685,WMM1,943482,false,false,1186,image-keyboard-response,23
true,10,1,2,1,true,z,false,true,0.0-2.0-0.40-0.368-3.368,0,0,0,90,false,stim,false,0,1281.9999999998836,2,0,0,22685,WMM1,946275,false,false,1189,image-keyboard-response,24
true,10,1,2,1,true,z,false,true,0.0-2.0-0.41-0.369-3.369,0,0,0,90,false,stim,false,0,387.0,2,0,0,22685,WMM1,948170,false,false,1192,image-keyboard-response,25
true,10,0,2,0,true,q,false,true,0.0-2.0-0.41-0.370-3.370,0,0,0,81,false,stim,false,2,1244.0,2,0,2,22685,WMM1,950923,false,false,1195,image-keyboard-response,26
true,10,1,2,1,true,z,false,true,0.0-2.0-0.41-0.371-3.371,0,0,0,90,false,stim,false,0,771.0,2,0,0,22685,WMM1,953202,false,false,1198,image-keyboard-response,27
true,10,0,2,0,true,q,false,true,0.0-2.0-0.41-0.372-3.372,0,0,0,81,false,stim,false,2,774.0,2,0,2,22685,WMM1,955490,false,false,1201,image-keyboard-response,28
true,10,2,2,2,true,d,false,true,0.0-2.0-0.41-0.373-3.373,0,0,0,68,false,stim,false,0,560.9999999998836,2,0,1,22685,WMM1,957562,false,false,1204,image-keyboard-response,29
true,10,0,2,0,true,q,false,true,0.0-2.0-0.41-0.374-3.374,0,0,0,81,false,stim,false,2,1643.0,2,0,2,22685,WMM1,960714,false,false,1207,image-keyboard-response,30
true,11,1,1,0,false,q,false,false,0.0-2.0-0.41-0.375-3.375,0,0,0,90,true,stim,true,1,1178.0,2,0,0,22685,WMM1,963402,false,false,1210,image-keyboard-response,1
true,11,1,1,1,true,z,false,true,0.0-2.0-0.41-0.376-3.376,0,0,0,90,false,stim,false,2,475.0000000001164,2,0,1,22685,WMM1,965386,false,false,1213,image-keyboard-response,2
true,11,1,1,1,true,z,false,true,0.0-2.0-0.41-0.377-3.377,0,0,0,90,false,stim,false,2,611.0000000001164,2,0,1,22685,WMM1,967506,false,false,1216,image-keyboard-response,3
true,11,2,1,2,true,d,false,true,0.0-2.0-0.42-0.378-3.378,0,0,0,68,false,stim,false,0,1019.0,2,0,2,22685,WMM1,970034,false,false,1219,image-keyboard-response,4
true,11,0,1,0,true,q,false,true,0.0-2.0-0.42-0.379-3.379,0,0,0,81,false,stim,false,1,893.0000000001164,2,0,0,22685,WMM1,972433,false,false,1222,image-keyboard-response,5
true,11,0,1,0,true,q,false,true,0.0-2.0-0.42-0.380-3.380,0,0,0,81,false,stim,false,1,569.0,2,0,0,22685,WMM1,974513,false,false,1225,image-keyboard-response,6
true,11,2,1,1,false,z,false,false,0.0-2.0-0.42-0.381-3.381,0,0,0,68,false,stim,true,2,1908.0,2,0,1,22685,WMM1,977929,false,false,1228,image-keyboard-response,7
true,11,2,1,2,true,d,false,true,0.0-2.0-0.42-0.382-3.382,0,0,0,68,false,stim,false,0,755.0,2,0,2,22685,WMM1,980193,false,false,1231,image-keyboard-response,8
true,11,1,1,1,true,z,false,true,0.0-2.0-0.42-0.383-3.383,0,0,0,90,false,stim,false,2,413.0,2,0,1,22685,WMM1,982113,false,false,1234,image-keyboard-response,9
true,11,1,1,1,true,z,false,true,0.0-2.0-0.42-0.384-3.384,0,0,0,90,false,stim,false,2,473.0,2,0,1,22685,WMM1,984097,false,false,1237,image-keyboard-response,10
true,11,0,1,0,true,q,false,true,0.0-2.0-0.42-0.385-3.385,0,0,0,81,false,stim,false,1,538.9999999998836,2,0,0,22685,WMM1,986145,false,false,1240,image-keyboard-response,11
true,11,2,1,2,true,d,false,true,0.0-2.0-0.42-0.386-3.386,0,0,0,68,false,stim,false,0,714.9999999998836,2,0,2,22685,WMM1,988369,false,false,1243,image-keyboard-response,12
true,11,1,1,0,false,q,false,false,0.0-2.0-0.43-0.387-3.387,0,0,0,90,false,stim,true,1,1035.0,2,0,0,22685,WMM1,990913,false,false,1246,image-keyboard-response,13
true,11,2,1,1,false,z,false,false,0.0-2.0-0.43-0.388-3.388,0,0,0,68,false,stim,true,2,1345.9999999998836,2,0,1,22685,WMM1,993769,false,false,1249,image-keyboard-response,14
true,11,2,1,2,true,d,false,true,0.0-2.0-0.43-0.389-3.389,0,0,0,68,false,stim,false,0,1323.0000000001164,2,0,2,22685,WMM1,996601,false,false,1252,image-keyboard-response,15
true,11,1,1,0,false,q,false,false,0.0-2.0-0.43-0.390-3.390,0,0,0,90,false,stim,true,1,1033.9999999998836,2,0,0,22685,WMM1,999145,false,false,1255,image-keyboard-response,16
true,11,2,1,2,true,d,false,true,0.0-2.0-0.43-0.391-3.391,0,0,0,68,false,stim,false,0,650.9999999998836,2,0,2,22685,WMM1,1001305,false,false,1258,image-keyboard-response,17
true,11,0,1,1,false,z,true,false,0.0-2.0-0.43-0.392-3.392,0,0,0,81,false,stim,false,2,747.0,2,0,1,22685,WMM1,1003561,false,false,1261,image-keyboard-response,18
true,11,1,1,1,true,z,false,false,0.0-2.0-0.43-0.393-3.393,0,0,0,90,false,stim,false,2,884.0,2,0,1,22685,WMM1,1005952,false,true,1264,image-keyboard-response,19
true,11,0,1,0,true,q,false,true,0.0-2.0-0.43-0.394-3.394,0,0,0,81,false,stim,false,1,1043.0,2,0,0,22685,WMM1,1008504,false,false,1267,image-keyboard-response,20
true,11,2,1,2,true,d,false,true,0.0-2.0-0.43-0.395-3.395,0,0,0,68,false,stim,false,0,864.0,2,0,2,22685,WMM1,1010881,false,false,1270,image-keyboard-response,21
false,11,-1,1,1,false,z,true,false,0.0-2.0-0.44-0.396-3.396,0,0,0,,false,stim,false,2,,2,0,1,22685,WMM1,1015392,false,false,1273,image-keyboard-response,22
true,11,2,1,2,true,d,false,false,0.0-2.0-0.44-0.397-3.397,0,0,0,68,false,stim,false,0,784.9999999998836,2,0,2,22685,WMM1,1017688,false,true,1276,image-keyboard-response,23
true,11,1,1,2,false,d,true,false,0.0-2.0-0.44-0.398-3.398,0,0,0,90,false,stim,false,0,730.0,2,0,2,22685,WMM1,1019928,false,false,1279,image-keyboard-response,24
true,11,0,1,0,true,q,false,true,0.0-2.0-0.44-0.399-3.399,0,0,0,81,false,stim,false,1,746.0,2,0,0,22685,WMM1,1022184,false,false,1282,image-keyboard-response,25
true,11,0,1,0,true,q,false,true,0.0-2.0-0.44-0.400-3.400,0,0,0,81,false,stim,false,1,465.9999999998836,2,0,0,22685,WMM1,1024160,false,false,1285,image-keyboard-response,26
true,11,0,1,2,false,d,false,false,0.0-2.0-0.44-0.401-3.401,0,0,0,81,false,stim,true,0,938.0000000001164,2,0,2,22685,WMM1,1026608,false,false,1288,image-keyboard-response,27
true,11,0,1,1,false,z,true,false,0.0-2.0-0.44-0.402-3.402,0,0,0,81,false,stim,false,2,896.9999999998836,2,0,1,22685,WMM1,1029016,false,false,1291,image-keyboard-response,28
true,11,1,1,1,true,z,false,true,0.0-2.0-0.44-0.403-3.403,0,0,0,90,false,stim,false,2,762.0,2,0,1,22685,WMM1,1031288,false,false,1294,image-keyboard-response,29
true,11,0,1,0,true,q,false,true,0.0-2.0-0.44-0.404-3.404,0,0,0,81,false,stim,false,1,689.0000000001164,2,0,0,22685,WMM1,1033488,false,false,1297,image-keyboard-response,30
true,11,1,1,2,false,d,true,false,0.0-2.0-0.45-0.405-3.405,0,0,0,90,false,stim,false,0,1450.0,2,0,2,22685,WMM1,1036448,false,false,1300,image-keyboard-response,31
true,11,1,1,1,true,z,false,true,0.0-2.0-0.45-0.406-3.406,0,0,0,90,false,stim,false,2,1340.9999999998836,2,0,1,22685,WMM1,1039303,false,false,1303,image-keyboard-response,32
true,11,1,1,1,true,z,false,true,0.0-2.0-0.45-0.407-3.407,0,0,0,90,false,stim,false,2,443.0,2,0,1,22685,WMM1,1041255,false,false,1306,image-keyboard-response,33
true,11,0,1,2,false,d,false,false,0.0-2.0-0.45-0.408-3.408,0,0,0,81,false,stim,true,0,593.0000000001164,2,0,2,22685,WMM1,1043359,false,false,1309,image-keyboard-response,34
true,11,0,1,0,true,q,false,true,0.0-2.0-0.45-0.409-3.409,0,0,0,81,false,stim,false,1,386.9999999998836,2,0,0,22685,WMM1,1045255,false,false,1312,image-keyboard-response,35
true,11,0,1,0,true,q,false,true,0.0-2.0-0.45-0.410-3.410,0,0,0,81,false,stim,false,1,826.0,2,0,0,22685,WMM1,1047591,false,false,1315,image-keyboard-response,36
true,11,2,1,2,true,d,false,true,0.0-2.0-0.45-0.411-3.411,0,0,0,68,false,stim,false,0,520.0,2,0,2,22685,WMM1,1049623,false,false,1318,image-keyboard-response,37
true,11,1,1,1,true,z,false,true,0.0-2.0-0.45-0.412-3.412,0,0,0,90,false,stim,false,2,819.0,2,0,1,22685,WMM1,1051951,false,false,1321,image-keyboard-response,38
true,11,0,1,0,true,q,false,true,0.0-2.0-0.45-0.413-3.413,0,0,0,81,false,stim,false,1,824.9999999997672,2,0,0,22685,WMM1,1054287,false,false,1324,image-keyboard-response,39
true,11,2,1,2,true,d,false,true,0.0-2.0-0.46-0.414-3.414,0,0,0,68,false,stim,false,0,834.0,2,0,2,22685,WMM1,1056631,false,false,1327,image-keyboard-response,40
true,11,0,1,0,true,q,false,true,0.0-2.0-0.46-0.415-3.415,0,0,0,81,false,stim,false,1,1026.0,2,0,0,22685,WMM1,1059167,false,false,1330,image-keyboard-response,41
true,11,2,1,2,true,d,false,true,0.0-2.0-0.46-0.416-3.416,0,0,0,68,false,stim,false,0,1105.0,2,0,2,22685,WMM1,1061783,false,false,1333,image-keyboard-response,42
true,11,0,1,0,true,q,false,false,0.0-2.0-0.46-0.417-3.417,0,0,0,81,false,stim,false,1,779.0,2,0,0,22685,WMM1,1064071,false,true,1336,image-keyboard-response,43
true,11,1,1,1,true,z,false,true,0.0-2.0-0.46-0.418-3.418,0,0,0,90,false,stim,false,2,995.0,2,0,1,22685,WMM1,1066575,false,false,1339,image-keyboard-response,44
true,11,0,1,0,true,q,false,true,0.0-2.0-0.46-0.419-3.419,0,0,0,81,false,stim,false,1,899.0,2,0,0,22685,WMM1,1068983,false,false,1342,image-keyboard-response,45
true,11,1,1,1,true,z,false,true,0.0-2.0-0.46-0.420-3.420,0,0,0,90,false,stim,false,2,682.0,2,0,1,22685,WMM1,1071175,false,false,1345,image-keyboard-response,46
true,11,2,1,2,true,d,false,true,0.0-2.0-0.46-0.421-3.421,0,0,0,68,false,stim,false,0,987.0,2,0,2,22685,WMM1,1073671,false,false,1348,image-keyboard-response,47
true,11,1,1,1,true,z,false,true,0.0-2.0-0.46-0.422-3.422,0,0,0,90,false,stim,false,2,2019.0,2,0,1,22685,WMM1,1077198,false,false,1351,image-keyboard-response,48
true,11,2,1,2,true,d,false,true,0.0-2.0-0.47-0.423-3.423,0,0,0,68,false,stim,false,0,736.0,2,0,2,22685,WMM1,1079445,false,false,1354,image-keyboard-response,49
true,11,0,1,0,true,q,false,true,0.0-2.0-0.47-0.424-3.424,0,0,0,81,false,stim,false,1,643.0,2,0,0,22685,WMM1,1081598,false,false,1357,image-keyboard-response,50
true,12,2,2,0,false,q,false,false,0.0-2.0-0.47-0.425-3.425,0,0,0,68,true,stim,true,2,827.0,2,0,2,22685,WMM1,1083934,false,false,1360,image-keyboard-response,1
true,12,0,2,1,false,z,false,false,0.0-2.0-0.47-0.426-3.426,0,0,0,81,false,stim,true,0,1011.9999999997672,2,0,0,22685,WMM1,1086454,false,false,1363,image-keyboard-response,2
true,12,1,2,2,false,d,false,false,0.0-2.0-0.47-0.427-3.427,0,0,0,90,false,stim,true,1,576.0,2,0,1,22685,WMM1,1088542,false,false,1366,image-keyboard-response,3
true,12,1,2,2,false,d,false,false,0.0-2.0-0.47-0.428-3.428,0,0,0,90,false,stim,true,1,555.0,2,0,1,22685,WMM1,1090606,false,false,1369,image-keyboard-response,4
true,12,2,2,2,true,d,false,true,0.0-2.0-0.47-0.429-3.429,0,0,0,68,false,stim,false,1,530.9999999997672,2,0,1,22685,WMM1,1092646,false,false,1372,image-keyboard-response,5
true,12,2,2,1,false,z,true,false,0.0-2.0-0.47-0.430-3.430,0,0,0,68,false,stim,false,0,787.0000000002328,2,0,0,22685,WMM1,1094942,false,false,1375,image-keyboard-response,6
true,12,2,2,0,false,q,false,false,0.0-2.0-0.47-0.431-3.431,0,0,0,68,false,stim,true,2,866.0,2,0,2,22685,WMM1,1097318,false,false,1378,image-keyboard-response,7
true,12,2,2,2,true,d,false,true,0.0-2.0-0.48-0.432-3.432,0,0,0,68,false,stim,false,1,450.0,2,0,1,22685,WMM1,1099278,false,false,1381,image-keyboard-response,8
true,12,2,2,2,true,d,false,true,0.0-2.0-0.48-0.433-3.433,0,0,0,68,false,stim,false,1,587.0,2,0,1,22685,WMM1,1101374,false,false,1384,image-keyboard-response,9
true,12,1,2,0,false,q,true,false,0.0-2.0-0.48-0.434-3.434,0,0,0,90,false,stim,false,2,553.9999999997672,2,0,2,22685,WMM1,1103438,false,false,1387,image-keyboard-response,10
true,12,2,2,2,true,d,false,true,0.0-2.0-0.48-0.435-3.435,0,0,0,68,false,stim,false,1,595.0,2,0,1,22685,WMM1,1105542,false,false,1390,image-keyboard-response,11
true,12,1,2,1,true,z,false,true,0.0-2.0-0.48-0.436-3.436,0,0,0,90,false,stim,false,0,970.0,2,0,0,22685,WMM1,1108022,false,false,1393,image-keyboard-response,12
true,12,2,2,0,false,q,false,false,0.0-2.0-0.48-0.437-3.437,0,0,0,68,false,stim,true,2,923.0,2,0,2,22685,WMM1,1110453,false,false,1396,image-keyboard-response,13
true,12,1,2,1,true,z,false,true,0.0-2.0-0.48-0.438-3.438,0,0,0,90,false,stim,false,0,745.0,2,0,0,22685,WMM1,1112709,false,false,1399,image-keyboard-response,14
true,12,0,2,0,true,q,false,true,0.0-2.0-0.48-0.439-3.439,0,0,0,81,false,stim,false,2,774.0,2,0,2,22685,WMM1,1114998,false,false,1402,image-keyboard-response,15
true,12,1,2,1,true,z,false,true,0.0-2.0-0.48-0.440-3.440,0,0,0,90,false,stim,false,0,979.0,2,0,0,22685,WMM1,1117485,false,false,1405,image-keyboard-response,16
true,12,1,2,1,true,z,false,true,0.0-2.0-0.49-0.441-3.441,0,0,0,90,false,stim,false,0,634.0,2,0,0,22685,WMM1,1119629,false,false,1408,image-keyboard-response,17
true,12,2,2,2,true,d,false,true,0.0-2.0-0.49-0.442-3.442,0,0,0,68,false,stim,false,1,449.0,2,0,1,22685,WMM1,1121589,false,false,1411,image-keyboard-response,18
true,12,2,2,2,true,d,false,true,0.0-2.0-0.49-0.443-3.443,0,0,0,68,false,stim,false,1,539.0,2,0,1,22685,WMM1,1123637,false,false,1414,image-keyboard-response,19
true,12,0,2,1,false,z,false,true,0.0-2.0-0.49-0.444-3.444,0,0,0,81,false,stim,true,0,675.0,2,0,0,22685,WMM1,1125821,false,true,1417,image-keyboard-response,20
true,12,0,2,0,true,q,false,true,0.0-2.0-0.49-0.445-3.445,0,0,0,81,false,stim,false,2,1033.0,2,0,2,22685,WMM1,1128365,false,false,1420,image-keyboard-response,21
true,12,0,2,0,true,q,false,false,0.0-2.0-0.49-0.446-3.446,0,0,0,81,false,stim,false,2,626.0,2,0,2,22685,WMM1,1130500,false,true,1423,image-keyboard-response,22
true,12,2,2,2,true,d,false,true,0.0-2.0-0.49-0.447-3.447,0,0,0,68,false,stim,false,1,2388.0,2,0,1,22685,WMM1,1134397,false,false,1426,image-keyboard-response,23
true,12,0,2,0,true,q,false,true,0.0-2.0-0.49-0.448-3.448,0,0,0,81,false,stim,false,2,2105.0,2,0,2,22685,WMM1,1138013,false,false,1429,image-keyboard-response,24
true,12,1,2,1,true,z,false,true,0.0-2.0-0.49-0.449-3.449,0,0,0,90,false,stim,false,0,874.0,2,0,0,22685,WMM1,1140397,false,false,1432,image-keyboard-response,25
true,12,0,2,0,true,q,false,true,0.0-2.0-0.50-0.450-3.450,0,0,0,81,false,stim,false,2,1048.0,2,0,2,22685,WMM1,1142957,false,false,1435,image-keyboard-response,26
true,12,2,2,2,true,d,false,true,0.0-2.0-0.50-0.451-3.451,0,0,0,68,false,stim,false,1,665.0000000002328,2,0,1,22685,WMM1,1145132,false,false,1438,image-keyboard-response,27
true,12,0,2,0,true,q,false,true,0.0-2.0-0.50-0.452-3.452,0,0,0,81,false,stim,false,2,1018.0000000002328,2,0,2,22685,WMM1,1147661,false,false,1441,image-keyboard-response,28
true,12,2,2,2,true,d,false,true,0.0-2.0-0.50-0.453-3.453,0,0,0,68,false,stim,false,1,657.0,2,0,1,22685,WMM1,1149829,false,false,1444,image-keyboard-response,29
true,12,2,2,2,true,d,false,true,0.0-2.0-0.50-0.454-3.454,0,0,0,68,false,stim,false,1,457.0,2,0,1,22685,WMM1,1151797,false,false,1447,image-keyboard-response,30
true,12,0,2,0,true,q,false,true,0.0-2.0-0.50-0.455-3.455,0,0,0,81,false,stim,false,2,755.0,2,0,2,22685,WMM1,1154062,false,false,1450,image-keyboard-response,31
true,12,1,2,1,true,z,false,true,0.0-2.0-0.50-0.456-3.456,0,0,0,90,false,stim,false,0,545.0,2,0,0,22685,WMM1,1156116,false,false,1453,image-keyboard-response,32
true,12,1,2,1,true,z,false,true,0.0-2.0-0.50-0.457-3.457,0,0,0,90,false,stim,false,0,450.0,2,0,0,22685,WMM1,1158076,false,false,1456,image-keyboard-response,33
true,12,1,2,1,true,z,false,true,0.0-2.0-0.50-0.458-3.458,0,0,0,90,false,stim,false,0,378.0,2,0,0,22685,WMM1,1159964,false,false,1459,image-keyboard-response,34
true,12,1,2,1,true,z,false,true,0.0-2.0-0.51-0.459-3.459,0,0,0,90,false,stim,false,0,395.0,2,0,0,22685,WMM1,1161868,false,false,1462,image-keyboard-response,35
true,12,1,2,1,true,z,false,true,0.0-2.0-0.51-0.460-3.460,0,0,0,90,false,stim,false,0,403.0,2,0,0,22685,WMM1,1163780,false,false,1465,image-keyboard-response,36
true,12,0,2,2,false,d,true,false,0.0-2.0-0.51-0.461-3.461,0,0,0,81,false,stim,false,1,2162.0,2,0,1,22685,WMM1,1167452,false,false,1468,image-keyboard-response,37
true,12,0,2,0,true,q,false,true,0.0-2.0-0.51-0.462-3.462,0,0,0,81,false,stim,false,2,683.0,2,0,2,22685,WMM1,1169644,false,false,1471,image-keyboard-response,38
true,12,1,2,1,true,z,false,true,0.0-2.0-0.51-0.463-3.463,0,0,0,90,false,stim,false,0,779.0,2,0,0,22685,WMM1,1171932,false,false,1474,image-keyboard-response,39
true,12,2,2,2,true,d,false,true,0.0-2.0-0.51-0.464-3.464,0,0,0,68,false,stim,false,1,1553.0,2,0,1,22685,WMM1,1174996,false,false,1477,image-keyboard-response,40
true,12,0,2,0,true,q,false,true,0.0-2.0-0.51-0.465-3.465,0,0,0,81,false,stim,false,2,699.0,2,0,2,22685,WMM1,1177204,false,false,1480,image-keyboard-response,41
true,12,2,2,2,true,d,false,true,0.0-2.0-0.51-0.466-3.466,0,0,0,68,false,stim,false,1,755.0000000002328,2,0,1,22685,WMM1,1179468,false,false,1483,image-keyboard-response,42
true,13,0,1,2,false,d,false,false,0.0-2.0-0.51-0.467-3.467,0,0,0,81,true,stim,true,0,1105.0,2,0,2,22685,WMM1,1182084,false,false,1486,image-keyboard-response,1
true,13,1,1,2,false,d,false,true,0.0-2.0-0.52-0.468-3.468,0,0,0,90,false,stim,true,1,634.0,2,0,0,22685,WMM1,1184228,false,true,1489,image-keyboard-response,2
true,13,1,1,2,false,d,false,false,0.0-2.0-0.52-0.469-3.469,0,0,0,90,false,stim,true,1,444.0,2,0,0,22685,WMM1,1186180,false,false,1492,image-keyboard-response,3
true,13,2,1,0,false,q,false,false,0.0-2.0-0.52-0.470-3.470,0,0,0,68,false,stim,true,2,698.0,2,0,1,22685,WMM1,1188387,false,false,1495,image-keyboard-response,4
true,13,2,1,2,true,d,false,true,0.0-2.0-0.52-0.471-3.471,0,0,0,68,false,stim,false,0,1051.0,2,0,2,22685,WMM1,1190948,false,false,1498,image-keyboard-response,5
true,13,2,1,2,true,d,false,true,0.0-2.0-0.52-0.472-3.472,0,0,0,68,false,stim,false,0,789.0,2,0,2,22685,WMM1,1193251,false,false,1501,image-keyboard-response,6
true,13,2,1,2,true,d,false,true,0.0-2.0-0.52-0.473-3.473,0,0,0,68,false,stim,false,0,459.0,2,0,2,22685,WMM1,1195219,false,false,1504,image-keyboard-response,7
true,13,1,1,0,false,q,true,false,0.0-2.0-0.52-0.474-3.474,0,0,0,90,false,stim,false,2,738.0000000002328,2,0,1,22685,WMM1,1197467,false,false,1507,image-keyboard-response,8
true,13,1,1,0,false,q,true,false,0.0-2.0-0.52-0.475-3.475,0,0,0,90,false,stim,false,2,434.0,2,0,1,22685,WMM1,1199411,false,false,1510,image-keyboard-response,9
true,13,1,1,2,false,d,false,false,0.0-2.0-0.52-0.476-3.476,0,0,0,90,false,stim,true,1,899.0,2,0,0,22685,WMM1,1201819,false,false,1513,image-keyboard-response,10
true,13,0,1,2,false,d,true,false,0.0-2.0-0.53-0.477-3.477,0,0,0,81,false,stim,false,1,643.0,2,0,0,22685,WMM1,1203971,false,false,1516,image-keyboard-response,11
true,13,2,1,2,true,d,false,true,0.0-2.0-0.53-0.478-3.478,0,0,0,68,false,stim,false,1,634.0,2,0,0,22685,WMM1,1206115,false,false,1519,image-keyboard-response,12
true,13,0,1,0,true,q,false,true,0.0-2.0-0.53-0.479-3.479,0,0,0,81,false,stim,false,2,1324.0,2,0,1,22685,WMM1,1208947,false,false,1522,image-keyboard-response,13
true,13,2,1,2,true,d,false,false,0.0-2.0-0.53-0.480-3.480,0,0,0,68,false,stim,false,1,636.0,2,0,0,22685,WMM1,1211091,false,true,1525,image-keyboard-response,14
true,13,0,1,0,true,q,false,true,0.0-2.0-0.53-0.481-3.481,0,0,0,81,false,stim,false,2,818.0,2,0,1,22685,WMM1,1213419,false,false,1528,image-keyboard-response,15
true,13,2,1,2,true,d,false,true,0.0-2.0-0.53-0.482-3.482,0,0,0,68,false,stim,false,0,731.0,2,0,2,22685,WMM1,1215659,false,false,1531,image-keyboard-response,16
true,13,2,1,2,true,d,false,false,0.0-2.0-0.53-0.483-3.483,0,0,0,68,false,stim,false,0,419.0,2,0,2,22685,WMM1,1217587,false,true,1534,image-keyboard-response,17
true,13,0,1,0,true,q,false,true,0.0-2.0-0.53-0.484-3.484,0,0,0,81,false,stim,false,2,978.0,2,0,1,22685,WMM1,1220074,false,false,1537,image-keyboard-response,18
true,13,2,1,2,true,d,false,true,0.0-2.0-0.53-0.485-3.485,0,0,0,68,false,stim,false,0,740.0,2,0,2,22685,WMM1,1222322,false,false,1540,image-keyboard-response,19
true,13,2,1,2,true,d,false,true,0.0-2.0-0.54-0.486-3.486,0,0,0,68,false,stim,false,0,410.99999999976717,2,0,2,22685,WMM1,1224242,false,false,1543,image-keyboard-response,20
true,13,0,1,0,true,q,false,false,0.0-2.0-0.54-0.487-3.487,0,0,0,81,false,stim,false,2,730.0,2,1,1,22685,WMM1,1226482,false,true,1546,image-keyboard-response,21
true,13,0,1,0,true,q,false,true,0.0-2.0-0.54-0.488-3.488,0,0,0,81,false,stim,false,2,428.00000000023283,2,1,1,22685,WMM1,1228418,false,false,1549,image-keyboard-response,22
true,13,1,1,2,false,d,false,true,0.0-2.0-0.54-0.489-3.489,0,0,0,90,false,stim,true,1,914.0,2,1,0,22685,WMM1,1230842,false,true,1552,image-keyboard-response,23
true,13,0,1,0,true,q,false,true,0.0-2.0-0.54-0.490-3.490,0,0,0,81,false,stim,false,2,818.0,2,1,1,22685,WMM1,1233170,false,false,1555,image-keyboard-response,24
true,13,1,1,2,false,d,false,false,0.0-2.0-0.54-0.491-3.491,0,0,0,90,false,stim,true,1,755.0,2,1,0,22685,WMM1,1235434,false,false,1558,image-keyboard-response,25
true,13,2,1,2,true,d,false,false,0.0-2.0-0.54-0.492-3.492,0,0,0,68,false,stim,false,0,867.0,2,1,2,22685,WMM1,1237810,false,true,1561,image-keyboard-response,26
true,13,1,1,2,false,d,false,false,0.0-2.0-0.54-0.493-3.493,0,0,0,90,false,stim,true,1,1355.0,2,1,0,22685,WMM1,1240674,false,false,1564,image-keyboard-response,27
true,13,2,1,2,true,d,false,true,0.0-2.0-0.54-0.494-3.494,0,0,0,68,false,stim,false,0,579.0,2,1,2,22685,WMM1,1242762,false,false,1567,image-keyboard-response,28
true,13,2,1,2,true,d,false,true,0.0-2.0-0.55-0.495-3.495,0,0,0,68,false,stim,false,0,483.00000000023283,2,1,2,22685,WMM1,1244754,false,false,1570,image-keyboard-response,29
true,13,0,1,0,true,q,false,true,0.0-2.0-0.55-0.496-3.496,0,0,0,81,false,stim,false,2,417.99999999976717,2,1,1,22685,WMM1,1246682,false,false,1573,image-keyboard-response,30
true,14,2,0,0,false,q,true,false,0.0-2.0-0.55-0.497-3.497,1,1,1,68,true,stim,false,0,663.0,2,1,1,22685,WMM1,1353439,false,false,1681,image-keyboard-response,1
true,14,2,0,2,true,d,false,true,0.0-2.0-0.55-0.498-3.498,1,1,1,68,false,stim,false,2,411.0,2,1,2,22685,WMM1,1355360,false,false,1684,image-keyboard-response,2
true,14,2,0,2,true,d,false,true,0.0-2.0-0.55-0.499-3.499,1,1,1,68,false,stim,false,2,650.0000000002328,2,1,0,22685,WMM1,1357520,false,false,1687,image-keyboard-response,3
true,14,2,0,2,true,d,false,true,0.0-2.0-0.55-0.500-3.500,1,1,1,68,false,stim,false,2,729.9999999997672,2,1,2,22685,WMM1,1359760,false,false,1690,image-keyboard-response,4
true,14,1,0,0,false,q,true,false,0.0-2.0-0.55-0.501-3.501,1,1,1,90,false,stim,false,0,785.9999999997672,2,1,1,22685,WMM1,1362056,false,false,1693,image-keyboard-response,5
true,14,2,0,2,true,d,false,true,0.0-2.0-0.55-0.502-3.502,1,1,1,68,false,stim,false,2,753.0,2,1,0,22685,WMM1,1364319,false,false,1696,image-keyboard-response,6
true,14,2,0,2,true,d,false,true,0.0-2.0-0.55-0.503-3.503,1,1,1,68,false,stim,false,2,435.0,2,1,0,22685,WMM1,1366264,false,false,1699,image-keyboard-response,7
true,14,2,0,2,true,d,false,true,0.0-2.0-0.56-0.504-3.504,1,1,1,68,false,stim,false,2,474.0,2,1,0,22685,WMM1,1368255,false,false,1702,image-keyboard-response,8
true,14,2,0,2,true,d,false,true,0.0-2.0-0.56-0.505-3.505,1,1,1,68,false,stim,false,2,802.0000000002328,2,1,2,22685,WMM1,1370567,false,false,1705,image-keyboard-response,9
true,14,2,0,2,true,d,false,true,0.0-2.0-0.56-0.506-3.506,1,1,1,68,false,stim,false,2,409.99999999976717,2,1,2,22685,WMM1,1372487,false,false,1708,image-keyboard-response,10
true,14,2,0,2,true,d,false,true,0.0-2.0-0.56-0.507-3.507,1,1,1,68,false,stim,false,2,490.0,2,1,2,22685,WMM1,1374487,false,false,1711,image-keyboard-response,11
true,14,2,0,2,true,d,false,true,0.0-2.0-0.56-0.508-3.508,1,1,1,68,false,stim,false,2,410.0,2,1,0,22685,WMM1,1376407,false,false,1714,image-keyboard-response,12
true,14,2,0,2,true,d,false,true,0.0-2.0-0.56-0.509-3.509,1,1,1,68,false,stim,false,2,354.0,2,1,0,22685,WMM1,1378270,false,false,1717,image-keyboard-response,13
true,14,0,0,0,true,q,false,false,0.0-2.0-0.56-0.510-3.510,1,1,1,81,false,stim,false,0,714.0,2,1,1,22685,WMM1,1380495,false,true,1720,image-keyboard-response,14
true,14,1,0,0,false,q,true,false,0.0-2.0-0.56-0.511-3.511,1,1,1,90,false,stim,false,0,683.0,2,1,1,22685,WMM1,1382687,false,false,1723,image-keyboard-response,15
true,14,2,0,0,false,q,true,false,0.0-2.0-0.56-0.512-3.512,1,1,1,68,false,stim,false,0,610.0,2,1,1,22685,WMM1,1384806,false,false,1726,image-keyboard-response,16
true,14,2,0,2,true,d,false,true,0.0-2.0-0.57-0.513-3.513,1,1,1,68,false,stim,false,2,785.0,2,1,2,22685,WMM1,1387103,false,false,1729,image-keyboard-response,17
true,14,2,0,0,false,q,true,false,0.0-2.0-0.57-0.514-3.514,1,1,1,68,false,stim,false,0,530.0,2,1,1,22685,WMM1,1389143,false,false,1732,image-keyboard-response,18
true,14,2,0,2,true,d,false,true,0.0-2.0-0.57-0.515-3.515,1,1,1,68,false,stim,false,2,539.0,2,1,2,22685,WMM1,1391191,false,false,1735,image-keyboard-response,19
true,14,2,0,2,true,d,false,false,0.0-2.0-0.57-0.516-3.516,1,1,1,68,false,stim,false,2,456.99999999976717,2,1,0,22685,WMM1,1393159,false,true,1738,image-keyboard-response,20
true,14,2,0,0,false,q,true,false,0.0-2.0-0.57-0.517-3.517,1,1,1,68,false,stim,false,0,1314.0,2,1,1,22685,WMM1,1395983,false,false,1741,image-keyboard-response,21
true,14,1,0,0,false,q,true,false,0.0-2.0-0.57-0.518-3.518,1,1,1,90,false,stim,false,0,751.0,2,1,1,22685,WMM1,1398246,false,false,1744,image-keyboard-response,22
true,14,2,0,2,true,d,false,false,0.0-2.0-0.57-0.519-3.519,1,1,1,68,false,stim,false,2,873.0,2,1,2,22685,WMM1,1400631,false,true,1747,image-keyboard-response,23
true,14,2,0,2,true,d,false,true,0.0-2.0-0.57-0.520-3.520,1,1,1,68,false,stim,false,2,832.0,2,1,0,22685,WMM1,1402974,false,false,1750,image-keyboard-response,24
true,14,2,0,2,true,d,false,true,0.0-2.0-0.57-0.521-3.521,1,1,1,68,false,stim,false,2,410.0,2,1,0,22685,WMM1,1404894,false,false,1753,image-keyboard-response,25
true,14,2,0,2,true,d,false,true,0.0-2.0-0.58-0.522-3.522,1,1,1,68,false,stim,false,2,391.0,2,1,0,22685,WMM1,1406797,false,false,1756,image-keyboard-response,26
true,14,2,0,2,true,d,false,true,0.0-2.0-0.58-0.523-3.523,1,1,1,68,false,stim,false,2,561.0,2,1,2,22685,WMM1,1408870,false,false,1759,image-keyboard-response,27
true,14,0,0,0,true,q,false,true,0.0-2.0-0.58-0.524-3.524,1,1,1,81,false,stim,false,0,687.0,2,1,1,22685,WMM1,1411070,false,false,1762,image-keyboard-response,28
true,14,2,0,0,false,q,true,false,0.0-2.0-0.58-0.525-3.525,1,1,1,68,false,stim,false,0,393.0,2,1,1,22685,WMM1,1412974,false,false,1765,image-keyboard-response,29
true,14,2,0,2,true,d,false,true,0.0-2.0-0.58-0.526-3.526,1,1,1,68,false,stim,false,2,633.0,2,1,2,22685,WMM1,1415119,false,false,1768,image-keyboard-response,30
true,14,0,0,0,true,q,false,true,0.0-2.0-0.58-0.527-3.527,1,1,1,81,false,stim,false,0,728.0,2,1,1,22685,WMM1,1417358,false,false,1771,image-keyboard-response,31
true,14,2,0,2,true,d,false,true,0.0-2.0-0.58-0.528-3.528,1,1,1,68,false,stim,false,2,714.0,2,1,0,22685,WMM1,1419582,false,false,1774,image-keyboard-response,32
true,14,2,0,2,true,d,false,true,0.0-2.0-0.58-0.529-3.529,1,1,1,68,false,stim,false,2,768.0,2,1,2,22685,WMM1,1421862,false,false,1777,image-keyboard-response,33
true,14,2,0,2,true,d,false,true,0.0-2.0-0.58-0.530-3.530,1,1,1,68,false,stim,false,2,2233.0,2,1,0,22685,WMM1,1425606,false,false,1780,image-keyboard-response,34
true,14,2,0,2,true,d,false,true,0.0-2.0-0.59-0.531-3.531,1,1,1,68,false,stim,false,2,391.0,2,1,0,22685,WMM1,1427509,false,false,1783,image-keyboard-response,35
true,14,2,0,2,true,d,false,true,0.0-2.0-0.59-0.532-3.532,1,1,1,68,false,stim,false,2,467.0,2,1,0,22685,WMM1,1429486,false,false,1786,image-keyboard-response,36
true,14,2,0,2,true,d,false,true,0.0-2.0-0.59-0.533-3.533,1,1,1,68,false,stim,false,2,841.0,2,1,2,22685,WMM1,1431837,false,false,1789,image-keyboard-response,37
true,14,0,0,0,true,q,false,true,0.0-2.0-0.59-0.534-3.534,1,1,1,81,false,stim,false,0,432.0,2,1,1,22685,WMM1,1433781,false,false,1792,image-keyboard-response,38
true,14,2,0,2,true,d,false,true,0.0-2.0-0.59-0.535-3.535,1,1,1,68,false,stim,false,2,456.0,2,0,0,22685,WMM1,1435749,false,false,1795,image-keyboard-response,39
true,14,0,0,0,true,q,false,true,0.0-2.0-0.59-0.536-3.536,1,1,1,81,false,stim,false,0,690.0,2,0,1,22685,WMM1,1437949,false,false,1798,image-keyboard-response,40
true,14,2,0,2,true,d,false,true,0.0-2.0-0.59-0.537-3.537,1,1,1,68,false,stim,false,2,506.0,2,0,2,22685,WMM1,1439973,false,false,1801,image-keyboard-response,41
true,14,2,0,2,true,d,false,true,0.0-2.0-0.59-0.538-3.538,1,1,1,68,false,stim,false,2,474.0,2,0,2,22685,WMM1,1441957,false,false,1804,image-keyboard-response,42
true,14,0,0,0,true,q,false,true,0.0-2.0-0.59-0.539-3.539,1,1,1,81,false,stim,false,0,1065.0,2,0,1,22685,WMM1,1444533,false,false,1807,image-keyboard-response,43
true,14,2,0,2,true,d,false,true,0.0-2.0-0.60-0.540-3.540,1,1,1,68,false,stim,false,2,666.0,2,0,0,22685,WMM1,1446709,false,false,1810,image-keyboard-response,44
true,14,2,0,2,true,d,false,true,0.0-2.0-0.60-0.541-3.541,1,1,1,68,false,stim,false,2,369.99999999976717,2,0,2,22685,WMM1,1448588,false,false,1813,image-keyboard-response,45
true,14,2,0,2,true,d,false,true,0.0-2.0-0.60-0.542-3.542,1,1,1,68,false,stim,false,2,434.0,2,0,2,22685,WMM1,1450533,false,false,1816,image-keyboard-response,46
true,14,2,0,2,true,d,false,true,0.0-2.0-0.60-0.543-3.543,1,1,1,68,false,stim,false,2,970.0,2,0,0,22685,WMM1,1453012,false,false,1819,image-keyboard-response,47
true,14,0,0,0,true,q,false,true,0.0-2.0-0.60-0.544-3.544,1,1,1,81,false,stim,false,0,988.0,2,0,1,22685,WMM1,1455509,false,false,1822,image-keyboard-response,48
true,15,0,2,2,false,d,false,false,0.0-2.0-0.60-0.545-3.545,0,0,0,81,true,stim,true,0,562.0,2,0,1,22685,WMM1,1457581,false,false,1825,image-keyboard-response,1
true,15,2,2,1,false,z,false,false,0.0-2.0-0.60-0.546-3.546,0,0,0,68,false,stim,true,2,1842.0,2,0,0,22685,WMM1,1460932,false,false,1828,image-keyboard-response,2
true,15,0,2,2,false,d,false,false,0.0-2.0-0.60-0.547-3.547,0,0,0,81,false,stim,true,0,491.0,2,0,1,22685,WMM1,1462932,false,false,1831,image-keyboard-response,3
true,15,2,2,0,false,q,false,false,0.0-2.0-0.60-0.548-3.548,0,0,0,68,false,stim,true,2,449.0,2,0,2,22685,WMM1,1464892,false,false,1834,image-keyboard-response,4
true,15,1,2,0,false,q,true,true,0.0-2.0-0.61-0.549-3.549,0,0,0,90,false,stim,false,2,690.0,2,0,2,22685,WMM1,1467092,false,true,1837,image-keyboard-response,5
true,15,1,2,2,false,d,true,false,0.0-2.0-0.61-0.550-3.550,0,0,0,90,false,stim,false,0,642.0,2,0,1,22685,WMM1,1469244,false,false,1840,image-keyboard-response,6
true,15,1,2,1,true,z,false,false,0.0-2.0-0.61-0.551-3.551,0,0,0,90,false,stim,false,2,498.0,2,0,0,22685,WMM1,1471252,false,true,1843,image-keyboard-response,7
true,15,0,2,1,false,z,true,false,0.0-2.0-0.61-0.552-3.552,0,0,0,81,false,stim,false,2,748.0,2,0,0,22685,WMM1,1473508,false,false,1846,image-keyboard-response,8
true,15,1,2,0,false,q,true,true,0.0-2.0-0.61-0.553-3.553,0,0,0,90,false,stim,false,2,738.0,2,0,2,22685,WMM1,1475756,false,true,1849,image-keyboard-response,9
true,15,1,2,0,false,q,true,false,0.0-2.0-0.61-0.554-3.554,0,0,0,90,false,stim,false,2,513.0,2,0,2,22685,WMM1,1477780,false,false,1852,image-keyboard-response,10
true,15,0,2,2,false,d,false,false,0.0-2.0-0.61-0.555-3.555,0,0,0,81,false,stim,true,0,1579.0,2,0,1,22685,WMM1,1480868,false,false,1855,image-keyboard-response,11
true,15,0,2,1,false,z,true,false,0.0-2.0-0.61-0.556-3.556,0,0,0,81,false,stim,false,2,666.0,2,0,0,22685,WMM1,1483044,false,false,1858,image-keyboard-response,12
true,15,2,2,2,true,d,false,true,0.0-2.0-0.61-0.557-3.557,0,0,0,68,false,stim,false,0,978.0,2,0,1,22685,WMM1,1485532,false,false,1861,image-keyboard-response,13
true,15,1,2,0,false,q,true,true,0.0-2.0-0.62-0.558-3.558,0,0,0,90,false,stim,false,2,450.0,2,0,2,22685,WMM1,1487492,false,true,1864,image-keyboard-response,14
true,15,1,2,0,false,q,true,false,0.0-2.0-0.62-0.559-3.559,0,0,0,90,false,stim,false,2,500.0,2,0,2,22685,WMM1,1489500,false,false,1867,image-keyboard-response,15
true,15,2,2,2,true,d,false,true,0.0-2.0-0.62-0.560-3.560,0,0,0,68,false,stim,false,0,417.0,2,0,1,22685,WMM1,1491428,false,false,1870,image-keyboard-response,16
true,15,1,2,1,true,z,false,true,0.0-2.0-0.62-0.561-3.561,0,0,0,90,false,stim,false,2,922.0,2,0,0,22685,WMM1,1493860,false,false,1873,image-keyboard-response,17
true,15,1,2,0,false,q,true,true,0.0-2.0-0.62-0.562-3.562,0,0,0,90,false,stim,false,2,474.0,2,0,2,22685,WMM1,1495843,false,true,1876,image-keyboard-response,18
true,15,1,2,1,true,z,false,true,0.0-2.0-0.62-0.563-3.563,0,0,0,90,false,stim,false,2,642.0,2,0,0,22685,WMM1,1497995,false,false,1879,image-keyboard-response,19
true,15,2,2,2,true,d,false,true,0.0-2.0-0.62-0.564-3.564,0,0,0,68,false,stim,false,0,499.0,2,0,1,22685,WMM1,1500003,false,false,1882,image-keyboard-response,20
true,15,2,2,2,true,d,false,true,0.0-2.0-0.62-0.565-3.565,0,0,0,68,false,stim,false,0,599.0,2,0,1,22685,WMM1,1502115,false,false,1885,image-keyboard-response,21
true,15,1,2,1,true,z,false,true,0.0-2.0-0.62-0.566-3.566,0,0,0,90,false,stim,false,2,841.0000000002328,2,0,0,22685,WMM1,1504467,false,false,1888,image-keyboard-response,22
true,15,1,2,1,true,z,false,true,0.0-2.0-0.63-0.567-3.567,0,0,0,90,false,stim,false,2,407.0,2,0,0,22685,WMM1,1506387,false,false,1891,image-keyboard-response,23
true,15,1,2,1,true,z,false,true,0.0-2.0-0.63-0.568-3.568,0,0,0,90,false,stim,false,2,424.00000000023283,2,0,0,22685,WMM1,1508323,false,false,1894,image-keyboard-response,24
true,15,1,2,0,false,q,true,false,0.0-2.0-0.63-0.569-3.569,0,0,0,90,false,stim,false,2,399.0,2,0,2,22685,WMM1,1510235,false,false,1897,image-keyboard-response,25
true,15,1,2,0,false,q,true,false,0.0-2.0-0.63-0.570-3.570,0,0,0,90,false,stim,false,2,408.99999999976717,2,0,2,22685,WMM1,1512154,false,false,1900,image-keyboard-response,26
true,15,1,2,1,true,z,false,true,0.0-2.0-0.63-0.571-3.571,0,0,0,90,false,stim,false,2,564.0,2,0,0,22685,WMM1,1514235,false,false,1903,image-keyboard-response,27
true,15,2,2,2,true,d,false,true,0.0-2.0-0.63-0.572-3.572,0,0,0,68,false,stim,false,0,632.9999999997672,2,0,1,22685,WMM1,1516379,false,false,1906,image-keyboard-response,28
true,15,2,2,2,true,d,false,true,0.0-2.0-0.63-0.573-3.573,0,0,0,68,false,stim,false,0,399.0,2,0,1,22685,WMM1,1518291,false,false,1909,image-keyboard-response,29
true,15,0,2,0,true,q,false,true,0.0-2.0-0.63-0.574-3.574,0,0,0,81,false,stim,false,2,521.0000000002328,2,0,2,22685,WMM1,1520323,false,false,1912,image-keyboard-response,30
true,15,2,2,2,true,d,false,false,0.0-2.0-0.63-0.575-3.575,0,0,0,68,false,stim,false,0,1041.0,2,0,1,22685,WMM1,1522875,false,true,1915,image-keyboard-response,31
true,15,1,2,1,true,z,false,false,0.0-2.0-0.64-0.576-3.576,0,0,0,90,false,stim,false,2,631.0,2,0,0,22685,WMM1,1525018,false,true,1918,image-keyboard-response,32
true,15,2,2,1,false,z,false,false,0.0-2.0-0.64-0.577-3.577,0,0,0,68,false,stim,true,2,1712.0,2,0,0,22685,WMM1,1528242,false,false,1921,image-keyboard-response,33
true,15,0,2,2,false,d,false,false,0.0-2.0-0.64-0.578-3.578,0,0,0,81,false,stim,true,0,849.0,2,0,1,22685,WMM1,1530602,false,false,1924,image-keyboard-response,34
true,15,2,2,2,true,d,false,true,0.0-2.0-0.64-0.579-3.579,0,0,0,68,false,stim,false,0,1343.0,2,0,1,22685,WMM1,1533458,false,false,1927,image-keyboard-response,35
true,15,2,2,1,false,z,false,false,0.0-2.0-0.64-0.580-3.580,0,0,0,68,false,stim,true,2,1016.0000000002328,2,0,0,22685,WMM1,1535986,false,false,1930,image-keyboard-response,36
true,15,0,2,0,true,q,false,true,0.0-2.0-0.64-0.581-3.581,0,0,0,81,false,stim,false,2,759.0,2,0,2,22685,WMM1,1538258,false,false,1933,image-keyboard-response,37
true,15,0,2,0,true,q,false,true,0.0-2.0-0.64-0.582-3.582,0,0,0,81,false,stim,false,2,570.0,2,0,2,22685,WMM1,1540338,false,false,1936,image-keyboard-response,38
true,15,2,2,2,true,d,false,true,0.0-2.0-0.64-0.583-3.583,0,0,0,68,false,stim,false,0,697.0,2,0,1,22685,WMM1,1542546,false,false,1939,image-keyboard-response,39
true,15,2,2,0,false,q,false,true,0.0-2.0-0.64-0.584-3.584,0,0,0,68,false,stim,true,2,634.0,2,0,2,22685,WMM1,1544690,false,true,1942,image-keyboard-response,40
true,15,0,2,1,false,z,true,false,0.0-2.0-0.65-0.585-3.585,0,0,0,81,false,stim,false,2,1423.0,2,0,0,22685,WMM1,1547626,false,false,1945,image-keyboard-response,41
true,15,0,2,2,false,d,false,false,0.0-2.0-0.65-0.586-3.586,0,0,0,81,false,stim,true,0,1545.0,2,0,1,22685,WMM1,1550682,false,false,1948,image-keyboard-response,42
true,15,0,2,0,true,q,false,true,0.0-2.0-0.65-0.587-3.587,0,0,0,81,false,stim,false,2,640.0,2,0,2,22685,WMM1,1552834,false,false,1951,image-keyboard-response,43
true,15,2,2,1,false,z,false,false,0.0-2.0-0.65-0.588-3.588,0,0,0,68,false,stim,true,2,1346.0,2,0,0,22685,WMM1,1555689,false,false,1954,image-keyboard-response,44
true,15,0,2,0,true,q,false,true,0.0-2.0-0.65-0.589-3.589,0,0,0,81,false,stim,false,2,901.0,2,0,2,22685,WMM1,1558106,false,false,1957,image-keyboard-response,45
true,15,2,2,2,true,d,false,true,0.0-2.0-0.65-0.590-3.590,0,0,0,68,false,stim,false,0,600.0,2,0,1,22685,WMM1,1560218,false,false,1960,image-keyboard-response,46
true,15,0,2,0,true,q,false,true,0.0-2.0-0.65-0.591-3.591,0,0,0,81,false,stim,false,2,624.0,2,0,2,22685,WMM1,1562353,false,false,1963,image-keyboard-response,47
true,15,2,2,2,true,d,false,true,0.0-2.0-0.65-0.592-3.592,0,0,0,68,false,stim,false,0,626.0,2,0,1,22685,WMM1,1564490,false,false,1966,image-keyboard-response,48
true,15,2,2,1,false,z,false,false,0.0-2.0-0.65-0.593-3.593,0,0,0,68,false,stim,true,2,1055.0,2,0,0,22685,WMM1,1567057,false,false,1969,image-keyboard-response,49
true,15,0,2,0,true,q,false,true,0.0-2.0-0.66-0.594-3.594,0,0,0,81,false,stim,false,2,992.0000000002328,2,0,2,22685,WMM1,1569561,false,false,1972,image-keyboard-response,50
true,15,2,2,1,false,z,false,false,0.0-2.0-0.66-0.595-3.595,0,0,0,68,false,stim,true,2,968.0,2,1,0,22685,WMM1,1572041,false,false,1975,image-keyboard-response,51
true,15,1,2,1,true,z,false,true,0.0-2.0-0.66-0.596-3.596,0,0,0,90,false,stim,false,2,744.9999999997672,2,1,0,22685,WMM1,1574297,false,false,1978,image-keyboard-response,52
true,15,2,2,2,true,d,false,true,0.0-2.0-0.66-0.597-3.597,0,0,0,68,false,stim,false,0,1273.0000000002328,2,0,1,22685,WMM1,1577081,false,false,1981,image-keyboard-response,53
true,15,1,2,0,false,q,true,false,0.0-2.0-0.66-0.598-3.598,0,0,0,90,false,stim,false,2,722.0,2,0,2,22685,WMM1,1579313,false,false,1984,image-keyboard-response,54
true,15,1,2,1,true,z,false,true,0.0-2.0-0.66-0.599-3.599,0,0,0,90,false,stim,false,2,1147.0,2,1,0,22685,WMM1,1581969,false,false,1987,image-keyboard-response,55
true,15,0,2,0,true,q,false,true,0.0-2.0-0.66-0.600-3.600,0,0,0,81,false,stim,false,2,1147.0,2,0,2,22685,WMM1,1584625,false,false,1990,image-keyboard-response,56
true,15,2,2,2,true,d,false,true,0.0-2.0-0.66-0.601-3.601,0,0,0,68,false,stim,false,0,634.0,2,0,1,22685,WMM1,1586769,false,false,1993,image-keyboard-response,57
true,15,0,2,2,false,d,false,true,0.0-2.0-0.66-0.602-3.602,0,0,0,81,false,stim,true,0,1146.0,2,0,1,22685,WMM1,1589425,false,true,1996,image-keyboard-response,58
true,15,0,2,2,false,d,false,true,0.0-2.0-0.67-0.603-3.603,0,0,0,81,false,stim,true,0,450.0,2,0,1,22685,WMM1,1591385,false,true,1999,image-keyboard-response,59
true,15,2,2,0,false,q,false,false,0.0-2.0-0.67-0.604-3.604,0,0,0,68,false,stim,true,2,562.0000000002328,2,0,2,22685,WMM1,1593464,false,false,2002,image-keyboard-response,60
true,16,0,3,0,true,q,false,true,0.0-2.0-0.67-0.605-3.605,1,0,0,81,true,stim,false,2,555.0,2,0,1,22685,WMM1,1595528,false,false,2005,image-keyboard-response,1
true,16,1,3,1,true,z,false,true,0.0-2.0-0.67-0.606-3.606,1,0,0,90,false,stim,false,1,681.0,2,1,0,22685,WMM1,1597720,false,false,2008,image-keyboard-response,2
true,16,1,3,1,true,z,false,true,0.0-2.0-0.67-0.607-3.607,1,0,0,90,false,stim,false,1,394.0,2,1,0,22685,WMM1,1599624,false,false,2011,image-keyboard-response,3
true,16,0,3,2,false,d,false,false,0.0-2.0-0.67-0.608-3.608,1,0,0,81,false,stim,true,0,826.0,2,0,2,22685,WMM1,1601960,false,false,2014,image-keyboard-response,4
true,16,0,3,2,false,d,false,false,0.0-2.0-0.67-0.609-3.609,1,0,0,81,false,stim,true,0,579.0,2,0,2,22685,WMM1,1604048,false,false,2017,image-keyboard-response,5
true,16,0,3,0,true,q,false,true,0.0-2.0-0.67-0.610-3.610,1,0,0,81,false,stim,false,2,1209.0,2,0,1,22685,WMM1,1606768,false,false,2020,image-keyboard-response,6
true,16,1,3,1,true,z,false,false,0.0-2.0-0.67-0.611-3.611,1,0,0,90,false,stim,false,1,1258.0,2,1,0,22685,WMM1,1609536,false,true,2023,image-keyboard-response,7
true,16,1,3,1,true,z,false,true,0.0-2.0-0.68-0.612-3.612,1,0,0,90,false,stim,false,1,537.0,2,1,0,22685,WMM1,1611584,false,false,2026,image-keyboard-response,8
true,16,0,3,0,true,q,false,true,0.0-2.0-0.68-0.613-3.613,1,0,0,81,false,stim,false,2,827.0,2,0,1,22685,WMM1,1613920,false,false,2029,image-keyboard-response,9
true,16,0,3,0,true,q,false,true,0.0-2.0-0.68-0.614-3.614,1,0,0,81,false,stim,false,2,554.0000000002328,2,0,1,22685,WMM1,1615984,false,false,2032,image-keyboard-response,10
true,16,1,3,2,false,d,true,false,0.0-2.0-0.68-0.615-3.615,1,0,0,90,false,stim,false,0,545.0,2,0,2,22685,WMM1,1618040,false,false,2035,image-keyboard-response,11
true,16,0,3,0,true,q,false,true,0.0-2.0-0.68-0.616-3.616,1,0,0,81,false,stim,false,2,738.0,2,0,1,22685,WMM1,1620287,false,false,2038,image-keyboard-response,12
true,16,0,3,2,false,d,false,false,0.0-2.0-0.68-0.617-3.617,1,0,0,81,false,stim,true,0,994.0,2,0,2,22685,WMM1,1622792,false,false,2041,image-keyboard-response,13
true,16,2,3,2,true,d,false,true,0.0-2.0-0.68-0.618-3.618,1,0,0,68,false,stim,false,0,890.0,2,0,2,22685,WMM1,1625191,false,false,2044,image-keyboard-response,14
true,16,1,3,1,true,z,false,true,0.0-2.0-0.68-0.619-3.619,1,0,0,90,false,stim,false,1,538.0,2,1,0,22685,WMM1,1627239,false,false,2047,image-keyboard-response,15
true,16,1,3,1,true,z,false,false,0.0-2.0-0.68-0.620-3.620,1,0,0,90,false,stim,false,1,466.0,2,1,0,22685,WMM1,1629215,false,true,2050,image-keyboard-response,16
