answered,blockNum,choice,condition,corResp,correct,correct_response,explo,fb,internal_node_id,isStable_1,isStable_2,isStable_3,key_press,newBlock,part,persev,persevResp,rt,sessNum,stableAS,stimulus,subject,task,time_elapsed,training,trap,trial_index,trial_type,trialsInBlock
true,1,1,0,0,false,q,true,false,0.0-2.0-0.0-0.0-3.0,0,0,0,90,true,stim,false,-1,567.0000000000582,3,0,1,22685,WMM1,562966,false,false,79,image-keyboard-response,1
true,1,1,0,1,true,z,false,true,0.0-2.0-0.0-0.1-3.1,0,0,0,90,false,stim,false,-1,428.0,3,0,2,22685,WMM1,564902,false,false,82,image-keyboard-response,2
true,1,1,0,1,true,z,false,true,0.0-2.0-0.0-0.2-3.2,0,0,0,90,false,stim,false,-1,598.0,3,0,2,22685,WMM1,567006,false,false,85,image-keyboard-response,3
true,1,0,0,0,true,q,false,true,0.0-2.0-0.0-0.3-3.3,0,0,0,81,false,stim,false,-1,948.0,3,0,1,22685,WMM1,569462,false,false,88,image-keyboard-response,4
true,1,1,0,0,false,q,true,false,0.0-2.0-0.0-0.4-3.4,0,0,0,90,false,stim,false,-1,1164.0,3,0,0,22685,WMM1,572134,false,false,91,image-keyboard-response,5
true,1,2,0,0,false,q,true,false,0.0-2.0-0.0-0.5-3.5,0,0,0,68,false,stim,false,-1,805.0,3,0,0,22685,WMM1,574446,false,false,94,image-keyboard-response,6
true,1,0,0,0,true,q,false,true,0.0-2.0-0.0-0.6-3.6,0,0,0,81,false,stim,false,-1,526.0000000000582,3,0,0,22685,WMM1,576478,false,false,97,image-keyboard-response,7
true,1,0,0,0,true,q,false,true,0.0-2.0-0.0-0.7-3.7,0,0,0,81,false,stim,false,-1,581.0,3,0,1,22685,WMM1,578566,false,false,100,image-keyboard-response,8
true,1,1,0,1,true,z,false,true,0.0-2.0-0.0-0.8-3.8,0,0,0,90,false,stim,false,-1,732.0,3,0,2,22685,WMM1,580806,false,false,103,image-keyboard-response,9
true,1,0,0,0,true,q,false,true,0.0-2.0-0.1-0.9-3.9,0,0,0,81,false,stim,false,-1,492.0,3,0,0,22685,WMM1,582806,false,false,106,image-keyboard-response,10
true,1,0,0,0,true,q,false,true,0.0-2.0-0.1-0.10-3.10,0,0,0,81,false,stim,false,-1,508.0,3,0,1,22685,WMM1,584821,false,false,109,image-keyboard-response,11
true,1,1,0,1,true,z,false,true,0.0-2.0-0.1-0.11-3.11,0,0,0,90,false,stim,false,-1,556.9999999999418,3,0,2,22685,WMM1,586885,false,false,112,image-keyboard-response,12
true,1,0,0,0,true,q,false,true,0.0-2.0-0.1-0.12-3.12,0,0,0,81,false,stim,false,-1,461.0,3,0,0,22685,WMM1,588853,false,false,115,image-keyboard-response,13
true,1,1,0,1,true,z,false,true,0.0-2.0-0.1-0.13-3.13,0,0,0,90,false,stim,false,-1,773.0,3,0,2,22685,WMM1,591133,false,false,118,image-keyboard-response,14
true,1,0,0,0,true,q,false,true,0.0-2.0-0.1-0.14-3.14,0,0,0,81,false,stim,false,-1,718.0,3,0,0,22685,WMM1,593357,false,false,121,image-keyboard-response,15
true,1,0,0,0,true,q,false,false,0.0-2.0-0.1-0.15-3.15,0,0,0,81,false,stim,false,-1,852.0,3,0,1,22685,WMM1,595717,false,true,124,image-keyboard-response,16
true,1,1,0,1,true,z,false,true,0.0-2.0-0.1-0.16-3.16,0,0,0,90,false,stim,false,-1,637.0,3,0,2,22685,WMM1,597861,false,false,127,image-keyboard-response,17
true,1,0,0,0,true,q,false,true,0.0-2.0-0.1-0.17-3.17,0,0,0,81,false,stim,false,-1,509.0,3,0,1,22685,WMM1,599877,false,false,130,image-keyboard-response,18
true,1,1,0,1,true,z,false,true,0.0-2.0-0.2-0.18-3.18,0,0,0,90,false,stim,false,-1,644.0,3,0,2,22685,WMM1,602029,false,false,133,image-keyboard-response,19
true,1,1,0,1,true,z,false,true,0.0-2.0-0.2-0.19-3.19,0,0,0,90,false,stim,false,-1,796.0,3,0,2,22685,WMM1,604333,false,false,136,image-keyboard-response,20
true,1,0,0,0,true,q,false,false,0.0-2.0-0.2-0.20-3.20,0,0,0,81,false,stim,false,-1,1516.0,3,0,1,22685,WMM1,607357,false,true,139,image-keyboard-response,21
true,1,0,0,0,true,q,false,true,0.0-2.0-0.2-0.21-3.21,0,0,0,81,false,stim,false,-1,708.9999999999418,3,0,0,22685,WMM1,609573,false,false,142,image-keyboard-response,22
true,1,1,0,1,true,z,false,true,0.0-2.0-0.2-0.22-3.22,0,0,0,90,false,stim,false,-1,533.0,3,0,2,22685,WMM1,611612,false,false,145,image-keyboard-response,23
true,1,0,0,0,true,q,false,true,0.0-2.0-0.2-0.23-3.23,0,0,0,81,false,stim,false,-1,757.0,3,0,0,22685,WMM1,613877,false,false,148,image-keyboard-response,24
true,1,0,0,0,true,q,false,true,0.0-2.0-0.2-0.24-3.24,0,0,0,81,false,stim,false,-1,638.0,3,0,1,22685,WMM1,616020,false,false,151,image-keyboard-response,25
true,1,0,0,0,true,q,false,true,0.0-2.0-0.2-0.25-3.25,0,0,0,81,false,stim,false,-1,822.0,3,0,1,22685,WMM1,618349,false,false,154,image-keyboard-response,26
true,1,0,0,0,true,q,false,true,0.0-2.0-0.2-0.26-3.26,0,0,0,81,false,stim,false,-1,1588.0,3,0,0,22685,WMM1,621444,false,false,157,image-keyboard-response,27
true,1,1,0,1,true,z,false,true,0.0-2.0-0.3-0.27-3.27,0,0,0,90,false,stim,false,-1,605.0,3,0,2,22685,WMM1,623556,false,false,160,image-keyboard-response,28
true,1,0,0,0,true,q,false,true,0.0-2.0-0.3-0.28-3.28,0,0,0,81,false,stim,false,-1,709.0,3,0,1,22685,WMM1,625772,false,false,163,image-keyboard-response,29
true,1,0,0,0,true,q,false,true,0.0-2.0-0.3-0.29-3.29,0,0,0,81,false,stim,false,-1,932.9999999999418,3,0,1,22685,WMM1,628212,false,false,166,image-keyboard-response,30
true,2,1,1,0,false,q,false,false,0.0-2.0-0.3-0.30-3.30,0,0,0,90,true,stim,true,1,676.0,3,0,2,22685,WMM1,630396,false,false,169,image-keyboard-response,1
true,2,0,1,1,false,z,false,false,0.0-2.0-0.3-0.31-3.31,0,0,0,81,false,stim,true,0,917.0,3,0,0,22685,WMM1,632820,false,false,172,image-keyboard-response,2
true,2,1,1,0,false,q,false,false,0.0-2.0-0.3-0.32-3.32,0,0,0,90,false,stim,true,1,620.9999999999418,3,0,2,22685,WMM1,634948,false,false,175,image-keyboard-response,3
true,2,0,1,2,false,d,false,false,0.0-2.0-0.3-0.33-3.33,0,0,0,81,false,stim,true,0,662.0,3,0,1,22685,WMM1,637116,false,false,178,image-keyboard-response,4
true,2,0,1,1,false,z,false,false,0.0-2.0-0.3-0.34-3.34,0,0,0,81,false,stim,true,0,916.0,3,0,0,22685,WMM1,639540,false,false,181,image-keyboard-response,5
true,2,2,1,1,false,z,true,false,0.0-2.0-0.3-0.35-3.35,0,0,0,68,false,stim,false,0,701.0,3,0,0,22685,WMM1,641748,false,false,184,image-keyboard-response,6
true,2,1,1,1,true,z,false,true,0.0-2.0-0.4-0.36-3.36,0,0,0,90,false,stim,false,0,740.9999999999418,3,0,0,22685,WMM1,643996,false,false,187,image-keyboard-response,7
true,2,2,1,2,true,d,false,true,0.0-2.0-0.4-0.37-3.37,0,0,0,68,false,stim,false,0,1885.0,3,0,1,22685,WMM1,647388,false,false,190,image-keyboard-response,8
true,2,2,1,0,false,q,true,false,0.0-2.0-0.4-0.38-3.38,0,0,0,68,false,stim,false,1,911.0,3,0,2,22685,WMM1,649805,false,false,193,image-keyboard-response,9
true,2,1,1,0,false,q,false,false,0.0-2.0-0.4-0.39-3.39,0,0,0,90,false,stim,true,1,956.0,3,0,2,22685,WMM1,652267,false,false,196,image-keyboard-response,10
true,2,2,1,2,true,d,false,true,0.0-2.0-0.4-0.40-3.40,0,0,0,68,false,stim,false,0,1197.9999999999418,3,0,1,22685,WMM1,654971,false,false,199,image-keyboard-response,11
true,2,2,1,2,true,d,false,true,0.0-2.0-0.4-0.41-3.41,0,0,0,68,false,stim,false,0,683.0,3,0,1,22685,WMM1,657163,false,false,202,image-keyboard-response,12
true,2,1,1,1,true,z,false,true,0.0-2.0-0.4-0.42-3.42,0,0,0,90,false,stim,false,0,1749.0,3,0,0,22685,WMM1,660419,false,false,205,image-keyboard-response,13
true,2,1,1,1,true,z,false,true,0.0-2.0-0.4-0.43-3.43,0,0,0,90,false,stim,false,0,469.0,3,0,0,22685,WMM1,662395,false,false,208,image-keyboard-response,14
true,2,0,1,0,true,q,false,true,0.0-2.0-0.4-0.44-3.44,0,0,0,81,false,stim,false,1,533.0,3,0,2,22685,WMM1,664435,false,false,211,image-keyboard-response,15
true,2,1,1,1,true,z,false,true,0.0-2.0-0.5-0.45-3.45,0,0,0,90,false,stim,false,0,781.0,3,0,0,22685,WMM1,666723,false,false,214,image-keyboard-response,16
true,2,0,1,0,true,q,false,true,0.0-2.0-0.5-0.46-3.46,0,0,0,81,false,stim,false,1,701.0,3,0,2,22685,WMM1,668931,false,false,217,image-keyboard-response,17
true,2,1,1,1,true,z,false,true,0.0-2.0-0.5-0.47-3.47,0,0,0,90,false,stim,false,0,797.0,3,0,0,22685,WMM1,671235,false,false,220,image-keyboard-response,18
true,2,2,1,2,true,d,false,true,0.0-2.0-0.5-0.48-3.48,0,0,0,68,false,stim,false,0,702.0,3,0,1,22685,WMM1,673444,false,false,223,image-keyboard-response,19
true,2,2,1,2,true,d,false,true,0.0-2.0-0.5-0.49-3.49,0,0,0,68,false,stim,false,0,467.9999999999418,3,0,1,22685,WMM1,675419,false,false,226,image-keyboard-response,20
true,2,0,1,0,true,q,false,true,0.0-2.0-0.5-0.50-3.50,0,0,0,81,false,stim,false,1,1452.0,3,0,2,22685,WMM1,678379,false,false,229,image-keyboard-response,21
true,2,2,1,2,true,d,false,true,0.0-2.0-0.5-0.51-3.51,0,0,0,68,false,stim,false,0,860.9999999999418,3,0,1,22685,WMM1,680747,false,false,232,image-keyboard-response,22
true,2,0,1,0,true,q,false,true,0.0-2.0-0.5-0.52-3.52,0,0,0,81,false,stim,false,1,868.9999999999418,3,0,2,22685,WMM1,683122,false,false,235,image-keyboard-response,23
true,2,1,1,1,true,z,false,true,0.0-2.0-0.5-0.53-3.53,0,0,0,90,false,stim,false,0,773.0000000000582,3,1,0,22685,WMM1,685403,false,false,238,image-keyboard-response,24
true,2,2,1,2,true,d,false,true,0.0-2.0-0.6-0.54-3.54,0,0,0,68,false,stim,false,0,1524.9999999999418,3,0,1,22685,WMM1,688434,false,false,241,image-keyboard-response,25
true,2,2,1,2,true,d,false,true,0.0-2.0-0.6-0.55-3.55,0,0,0,68,false,stim,false,0,494.0,3,0,1,22685,WMM1,690434,false,false,244,image-keyboard-response,26
true,2,0,1,0,true,q,false,true,0.0-2.0-0.6-0.56-3.56,0,0,0,81,false,stim,false,1,541.0,3,0,2,22685,WMM1,692482,false,false,247,image-keyboard-response,27
true,2,1,1,1,true,z,false,true,0.0-2.0-0.6-0.57-3.57,0,0,0,90,false,stim,false,0,525.0,3,1,0,22685,WMM1,694514,false,false,250,image-keyboard-response,28
true,2,0,1,0,true,q,false,true,0.0-2.0-0.6-0.58-3.58,0,0,0,81,false,stim,false,1,1143.0,3,0,2,22685,WMM1,697162,false,false,253,image-keyboard-response,29
true,2,1,1,1,true,z,false,true,0.0-2.0-0.6-0.59-3.59,0,0,0,90,false,stim,false,0,702.0,3,1,0,22685,WMM1,699370,false,false,256,image-keyboard-response,30
true,3,2,3,0,false,q,false,false,0.0-2.0-0.6-0.60-3.60,1,0,0,68,true,stim,true,2,695.0000000000582,3,0,1,22685,WMM1,701570,false,false,259,image-keyboard-response,1
true,3,0,3,1,false,z,false,false,0.0-2.0-0.6-0.61-3.61,1,0,0,81,false,stim,true,0,886.0000000000582,3,0,2,22685,WMM1,703962,false,false,262,image-keyboard-response,2
true,3,1,3,1,true,z,false,true,0.0-2.0-0.6-0.62-3.62,1,0,0,90,false,stim,false,1,749.0,3,1,0,22685,WMM1,706218,false,false,265,image-keyboard-response,3
true,3,1,3,1,true,z,false,true,0.0-2.0-0.7-0.63-3.63,1,0,0,90,false,stim,false,1,677.0000000000582,3,1,0,22685,WMM1,708402,false,false,268,image-keyboard-response,4
true,3,2,3,0,false,q,false,false,0.0-2.0-0.7-0.64-3.64,1,0,0,68,false,stim,true,2,1140.9999999999418,3,0,1,22685,WMM1,711049,false,false,271,image-keyboard-response,5
true,3,1,3,1,true,z,false,true,0.0-2.0-0.7-0.65-3.65,1,0,0,90,false,stim,false,1,606.0,3,1,0,22685,WMM1,713161,false,false,274,image-keyboard-response,6
true,3,0,3,1,false,z,false,false,0.0-2.0-0.7-0.66-3.66,1,0,0,81,false,stim,true,0,805.0000000000582,3,0,2,22685,WMM1,715473,false,false,277,image-keyboard-response,7
true,3,1,3,1,true,z,false,true,0.0-2.0-0.7-0.67-3.67,1,0,0,90,false,stim,false,0,813.0,3,0,2,22685,WMM1,717793,false,false,280,image-keyboard-response,8
true,3,1,3,1,true,z,false,true,0.0-2.0-0.7-0.68-3.68,1,0,0,90,false,stim,false,0,566.0,3,0,2,22685,WMM1,719865,false,false,283,image-keyboard-response,9
true,3,1,3,0,false,q,true,false,0.0-2.0-0.7-0.69-3.69,1,0,0,90,false,stim,false,2,1260.9999999999418,3,0,1,22685,WMM1,722633,false,false,286,image-keyboard-response,10
true,3,0,3,0,true,q,false,true,0.0-2.0-0.7-0.70-3.70,1,0,0,81,false,stim,false,2,693.9999999999418,3,0,1,22685,WMM1,724833,false,false,289,image-keyboard-response,11
true,3,1,3,1,true,z,false,true,0.0-2.0-0.7-0.71-3.71,1,0,0,90,false,stim,false,1,782.0,3,1,0,22685,WMM1,727121,false,false,292,image-keyboard-response,12
true,3,1,3,1,true,z,false,true,0.0-2.0-0.8-0.72-3.72,1,0,0,90,false,stim,false,1,605.0,3,1,0,22685,WMM1,729233,false,false,295,image-keyboard-response,13
true,3,0,3,1,false,z,false,false,0.0-2.0-0.8-0.73-3.73,1,0,0,81,false,stim,true,0,1917.0,3,0,2,22685,WMM1,732657,false,false,298,image-keyboard-response,14
true,3,1,3,1,true,z,false,true,0.0-2.0-0.8-0.74-3.74,1,0,0,90,false,stim,false,1,756.0,3,1,0,22685,WMM1,734921,false,false,301,image-keyboard-response,15
true,3,1,3,1,true,z,false,true,0.0-2.0-0.8-0.75-3.75,1,0,0,90,false,stim,false,0,549.0,3,0,2,22685,WMM1,736977,false,false,304,image-keyboard-response,16
true,3,0,3,0,true,q,false,false,0.0-2.0-0.8-0.76-3.76,1,0,0,81,false,stim,false,2,461.0,3,0,1,22685,WMM1,738945,false,true,307,image-keyboard-response,17
true,3,1,3,1,true,z,false,true,0.0-2.0-0.8-0.77-3.77,1,0,0,90,false,stim,false,0,710.0,3,0,2,22685,WMM1,741161,false,false,310,image-keyboard-response,18
true,3,1,3,0,false,q,true,false,0.0-2.0-0.8-0.78-3.78,1,0,0,90,false,stim,false,2,414.0000000000582,3,0,1,22685,WMM1,743081,false,false,313,image-keyboard-response,19
true,3,0,3,0,true,q,false,true,0.0-2.0-0.8-0.79-3.79,1,0,0,81,false,stim,false,2,589.0,3,0,1,22685,WMM1,745177,false,false,316,image-keyboard-response,20
true,3,1,3,1,true,z,false,false,0.0-2.0-0.8-0.80-3.80,1,0,0,90,false,stim,false,1,877.0,3,1,0,22685,WMM1,747560,false,true,319,image-keyboard-response,21
true,3,1,3,1,true,z,false,true,0.0-2.0-0.9-0.81-3.81,1,0,0,90,false,stim,false,0,1165.0,3,0,2,22685,WMM1,750233,false,false,322,image-keyboard-response,22
true,3,1,3,1,true,z,false,true,0.0-2.0-0.9-0.82-3.82,1,0,0,90,false,stim,false,0,534.0,3,0,2,22685,WMM1,752273,false,false,325,image-keyboard-response,23
true,3,1,3,1,true,z,false,true,0.0-2.0-0.9-0.83-3.83,1,0,0,90,false,stim,false,1,543.0,3,1,0,22685,WMM1,754328,false,false,328,image-keyboard-response,24
true,3,0,3,0,true,q,false,true,0.0-2.0-0.9-0.84-3.84,1,0,0,81,false,stim,false,2,620.0,3,0,1,22685,WMM1,756456,false,false,331,image-keyboard-response,25
true,3,1,3,1,true,z,false,true,0.0-2.0-0.9-0.85-3.85,1,0,0,90,false,stim,false,1,723.0,3,0,0,22685,WMM1,758689,false,false,334,image-keyboard-response,26
true,3,1,3,1,true,z,false,true,0.0-2.0-0.9-0.86-3.86,1,0,0,90,false,stim,false,1,469.0,3,0,0,22685,WMM1,760664,false,false,337,image-keyboard-response,27
true,3,1,3,1,true,z,false,true,0.0-2.0-0.9-0.87-3.87,1,0,0,90,false,stim,false,0,621.0,3,0,2,22685,WMM1,762792,false,false,340,image-keyboard-response,28
true,3,0,3,0,true,q,false,false,0.0-2.0-0.9-0.88-3.88,1,0,0,81,false,stim,false,2,692.9999999999418,3,0,1,22685,WMM1,764992,false,true,343,image-keyboard-response,29
true,3,0,3,0,true,q,false,true,0.0-2.0-0.9-0.89-3.89,1,0,0,81,false,stim,false,2,460.0000000000582,3,0,1,22685,WMM1,766960,false,false,346,image-keyboard-response,30
true,3,1,3,1,true,z,false,true,0.0-2.0-0.10-0.90-3.90,1,0,0,90,false,stim,false,0,604.9999999999418,3,0,2,22685,WMM1,769072,false,false,349,image-keyboard-response,31
true,3,1,3,1,true,z,false,true,0.0-2.0-0.10-0.91-3.91,1,0,0,90,false,stim,false,0,524.0,3,0,2,22685,WMM1,771104,false,false,352,image-keyboard-response,32
true,3,0,3,0,true,q,false,true,0.0-2.0-0.10-0.92-3.92,1,0,0,81,false,stim,false,2,1213.0,3,0,1,22685,WMM1,773824,false,false,355,image-keyboard-response,33
true,3,0,3,0,true,q,false,true,0.0-2.0-0.10-0.93-3.93,1,0,0,81,false,stim,false,2,533.0,3,0,1,22685,WMM1,775864,false,false,358,image-keyboard-response,34
true,3,1,3,1,true,z,false,true,0.0-2.0-0.10-0.94-3.94,1,0,0,90,false,stim,false,1,933.0,3,0,0,22685,WMM1,778304,false,false,361,image-keyboard-response,35
true,4,0,4,1,false,z,false,false,0.0-2.0-0.10-0.95-3.95,0,0,0,81,true,stim,true,0,1348.0,3,0,1,22685,WMM1,781160,false,false,364,image-keyboard-response,1
true,4,1,4,2,false,d,false,false,0.0-2.0-0.10-0.96-3.96,0,0,0,90,false,stim,true,1,603.9999999999418,3,0,0,22685,WMM1,783272,false,false,367,image-keyboard-response,2
true,4,1,4,2,false,d,false,false,0.0-2.0-0.10-0.97-3.97,0,0,0,90,false,stim,true,1,524.0,3,0,0,22685,WMM1,785304,false,false,370,image-keyboard-response,3
true,4,1,4,2,false,d,false,true,0.0-2.0-0.10-0.98-3.98,0,0,0,90,false,stim,true,1,476.0,3,0,2,22685,WMM1,787288,false,true,373,image-keyboard-response,4
true,4,1,4,2,false,d,false,false,0.0-2.0-0.11-0.99-3.99,0,0,0,90,false,stim,true,1,819.9999999999418,3,0,2,22685,WMM1,789616,false,false,376,image-keyboard-response,5
true,4,1,4,2,false,d,false,false,0.0-2.0-0.11-0.100-3.100,0,0,0,90,false,stim,true,1,491.9999999999418,3,0,2,22685,WMM1,791616,false,false,379,image-keyboard-response,6
true,4,2,4,2,true,d,false,true,0.0-2.0-0.11-0.101-3.101,0,0,0,68,false,stim,false,1,1061.0000000000582,3,0,2,22685,WMM1,794184,false,false,382,image-keyboard-response,7
true,4,0,4,1,false,z,false,false,0.0-2.0-0.11-0.102-3.102,0,0,0,81,false,stim,true,0,1164.9999999999418,3,0,1,22685,WMM1,796856,false,false,385,image-keyboard-response,8
true,4,0,4,1,false,z,false,false,0.0-2.0-0.11-0.103-3.103,0,0,0,81,false,stim,true,0,780.0,3,0,1,22685,WMM1,799144,false,false,388,image-keyboard-response,9
true,4,2,4,2,true,d,false,true,0.0-2.0-0.11-0.104-3.104,0,0,0,68,false,stim,false,1,892.0,3,0,0,22685,WMM1,801544,false,false,391,image-keyboard-response,10
true,4,1,4,1,true,z,false,true,0.0-2.0-0.11-0.105-3.105,0,0,0,90,false,stim,false,0,1732.0,3,0,1,22685,WMM1,804783,false,false,394,image-keyboard-response,11
true,4,2,4,2,true,d,false,true,0.0-2.0-0.11-0.106-3.106,0,0,0,68,false,stim,false,1,747.0,3,0,0,22685,WMM1,807039,false,false,397,image-keyboard-response,12
true,4,2,4,2,true,d,false,true,0.0-2.0-0.11-0.107-3.107,0,0,0,68,false,stim,false,1,420.0,3,0,0,22685,WMM1,808967,false,false,400,image-keyboard-response,13
true,4,1,4,1,true,z,false,true,0.0-2.0-0.12-0.108-3.108,0,0,0,90,false,stim,false,0,713.0,3,0,1,22685,WMM1,811191,false,false,403,image-keyboard-response,14
true,4,1,4,1,true,z,false,true,0.0-2.0-0.12-0.109-3.109,0,0,0,90,false,stim,false,0,475.0,3,0,1,22685,WMM1,813175,false,false,406,image-keyboard-response,15
true,4,1,4,1,true,z,false,true,0.0-2.0-0.12-0.110-3.110,0,0,0,90,false,stim,false,0,555.0,3,0,1,22685,WMM1,815239,false,false,409,image-keyboard-response,16
true,4,2,4,2,true,d,false,true,0.0-2.0-0.12-0.111-3.111,0,0,0,68,false,stim,false,1,973.0,3,0,2,22685,WMM1,817719,false,false,412,image-keyboard-response,17
true,4,2,4,2,true,d,false,true,0.0-2.0-0.12-0.112-3.112,0,0,0,68,false,stim,false,1,524.0,3,0,2,22685,WMM1,819751,false,false,415,image-keyboard-response,18
true,4,1,4,2,false,d,false,true,0.0-2.0-0.12-0.113-3.113,0,0,0,90,false,stim,true,1,491.0000000001164,3,0,0,22685,WMM1,821751,false,true,418,image-keyboard-response,19
true,4,2,4,2,true,d,false,true,0.0-2.0-0.12-0.114-3.114,0,0,0,68,false,stim,false,1,1205.0,3,0,2,22685,WMM1,824463,false,false,421,image-keyboard-response,20
true,4,2,4,2,true,d,false,true,0.0-2.0-0.12-0.115-3.115,0,0,0,68,false,stim,false,1,762.9999999998836,3,0,0,22685,WMM1,826735,false,false,424,image-keyboard-response,21
true,4,2,4,2,true,d,false,true,0.0-2.0-0.12-0.116-3.116,0,0,0,68,false,stim,false,1,740.0,3,0,0,22685,WMM1,828983,false,false,427,image-keyboard-response,22
true,4,2,4,2,true,d,false,true,0.0-2.0-0.13-0.117-3.117,0,0,0,68,false,stim,false,1,514.0,3,0,0,22685,WMM1,831007,false,false,430,image-keyboard-response,23
true,4,1,4,1,true,z,false,true,0.0-2.0-0.13-0.118-3.118,0,0,0,90,false,stim,false,0,501.0,3,0,1,22685,WMM1,833015,false,false,433,image-keyboard-response,24
true,4,2,4,2,true,d,false,true,0.0-2.0-0.13-0.119-3.119,0,0,0,68,false,stim,false,1,612.0,3,0,2,22685,WMM1,835135,false,false,436,image-keyboard-response,25
true,4,2,4,2,true,d,false,true,0.0-2.0-0.13-0.120-3.120,0,0,0,68,false,stim,false,1,452.0,3,0,2,22685,WMM1,837095,false,false,439,image-keyboard-response,26
true,4,2,4,2,true,d,false,true,0.0-2.0-0.13-0.121-3.121,0,0,0,68,false,stim,false,1,1453.0,3,0,0,22685,WMM1,840054,false,false,442,image-keyboard-response,27
true,4,2,4,2,true,d,false,true,0.0-2.0-0.13-0.122-3.122,0,0,0,68,false,stim,false,1,780.0,3,0,2,22685,WMM1,842342,false,false,445,image-keyboard-response,28
true,4,2,4,1,false,z,true,false,0.0-2.0-0.13-0.123-3.123,0,0,0,68,false,stim,false,0,1581.0,3,0,1,22685,WMM1,845430,false,false,448,image-keyboard-response,29
true,4,1,4,1,true,z,false,true,0.0-2.0-0.13-0.124-3.124,0,0,0,90,false,stim,false,0,19.0,3,0,1,22685,WMM1,846957,false,false,451,image-keyboard-response,30
true,4,2,4,2,true,d,false,true,0.0-2.0-0.13-0.125-3.125,0,0,0,68,false,stim,false,1,974.0,3,0,0,22685,WMM1,849438,false,false,454,image-keyboard-response,31
true,4,2,4,2,true,d,false,true,0.0-2.0-0.14-0.126-3.126,0,0,0,68,false,stim,false,1,691.9999999998836,3,0,0,22685,WMM1,851638,false,false,457,image-keyboard-response,32
true,5,2,2,0,false,q,false,false,0.0-2.0-0.14-0.127-3.127,0,0,0,68,true,stim,true,2,851.0,3,0,2,22685,WMM1,853998,false,false,460,image-keyboard-response,1
true,5,2,2,2,true,d,false,true,0.0-2.0-0.14-0.128-3.128,0,0,0,68,false,stim,false,1,1628.0,3,0,1,22685,WMM1,857134,false,false,463,image-keyboard-response,2
true,5,2,2,2,true,d,false,false,0.0-2.0-0.14-0.129-3.129,0,0,0,68,false,stim,false,1,572.0,3,0,1,22685,WMM1,859214,false,true,466,image-keyboard-response,3
true,5,2,2,1,false,z,false,false,0.0-2.0-0.14-0.130-3.130,0,0,0,68,false,stim,true,2,877.0,3,0,0,22685,WMM1,861598,false,false,469,image-keyboard-response,4
true,5,1,2,2,false,d,false,false,0.0-2.0-0.14-0.131-3.131,0,0,0,90,false,stim,true,1,772.0,3,0,1,22685,WMM1,863878,false,false,472,image-keyboard-response,5
true,5,2,2,0,false,q,false,false,0.0-2.0-0.14-0.132-3.132,0,0,0,68,false,stim,true,2,756.0,3,0,2,22685,WMM1,866142,false,false,475,image-keyboard-response,6
true,5,0,2,1,false,z,true,false,0.0-2.0-0.14-0.133-3.133,0,0,0,81,false,stim,false,2,740.0,3,0,0,22685,WMM1,868390,false,false,478,image-keyboard-response,7
true,5,0,2,0,true,q,false,true,0.0-2.0-0.14-0.134-3.134,0,0,0,81,false,stim,false,2,931.9999999998836,3,0,2,22685,WMM1,870830,false,false,481,image-keyboard-response,8
true,5,1,2,1,true,z,false,false,0.0-2.0-0.15-0.135-3.135,0,0,0,90,false,stim,false,2,1099.0,3,0,0,22685,WMM1,873437,false,true,484,image-keyboard-response,9
true,5,0,2,0,true,q,false,false,0.0-2.0-0.15-0.136-3.136,0,0,0,81,false,stim,false,2,725.0,3,0,2,22685,WMM1,875669,false,true,487,image-keyboard-response,10
true,5,0,2,2,false,d,true,false,0.0-2.0-0.15-0.137-3.137,0,0,0,81,false,stim,false,1,796.0,3,0,1,22685,WMM1,877973,false,false,490,image-keyboard-response,11
true,5,1,2,2,false,d,false,false,0.0-2.0-0.15-0.138-3.138,0,0,0,90,false,stim,true,1,852.0,3,0,1,22685,WMM1,880333,false,false,493,image-keyboard-response,12
true,5,1,2,1,true,z,false,true,0.0-2.0-0.15-0.139-3.139,0,0,0,90,false,stim,false,2,1236.0,3,0,0,22685,WMM1,883077,false,false,496,image-keyboard-response,13
true,5,1,2,1,true,z,false,true,0.0-2.0-0.15-0.140-3.140,0,0,0,90,false,stim,false,2,565.0,3,0,0,22685,WMM1,885149,false,false,499,image-keyboard-response,14
true,5,2,2,2,true,d,false,true,0.0-2.0-0.15-0.141-3.141,0,0,0,68,false,stim,false,1,1176.0,3,0,1,22685,WMM1,887837,false,false,502,image-keyboard-response,15
true,5,0,2,0,true,q,false,true,0.0-2.0-0.15-0.142-3.142,0,0,0,81,false,stim,false,2,700.9999999998836,3,0,2,22685,WMM1,890045,false,false,505,image-keyboard-response,16
true,5,0,2,0,true,q,false,false,0.0-2.0-0.15-0.143-3.143,0,0,0,81,false,stim,false,2,572.0,3,0,2,22685,WMM1,892125,false,true,508,image-keyboard-response,17
true,5,2,2,2,true,d,false,true,0.0-2.0-0.16-0.144-3.144,0,0,0,68,false,stim,false,1,757.0,3,0,1,22685,WMM1,894389,false,false,511,image-keyboard-response,18
true,5,2,2,2,true,d,false,true,0.0-2.0-0.16-0.145-3.145,0,0,0,68,false,stim,false,1,691.9999999998836,3,0,1,22685,WMM1,896589,false,false,514,image-keyboard-response,19
true,5,0,2,0,true,q,false,true,0.0-2.0-0.16-0.146-3.146,0,0,0,81,false,stim,false,2,1116.0,3,0,2,22685,WMM1,899213,false,false,517,image-keyboard-response,20
true,5,2,2,2,true,d,false,true,0.0-2.0-0.16-0.147-3.147,0,0,0,68,false,stim,false,1,683.0,3,1,1,22685,WMM1,901404,false,false,520,image-keyboard-response,21
true,5,0,2,0,true,q,false,true,0.0-2.0-0.16-0.148-3.148,0,0,0,81,false,stim,false,2,613.0,3,0,2,22685,WMM1,903524,false,false,523,image-keyboard-response,22
true,5,1,2,1,true,z,false,true,0.0-2.0-0.16-0.149-3.149,0,0,0,90,false,stim,false,2,781.0,3,0,0,22685,WMM1,905813,false,false,526,image-keyboard-response,23
true,5,0,2,0,true,q,false,true,0.0-2.0-0.16-0.150-3.150,0,0,0,81,false,stim,false,2,1228.0,3,0,2,22685,WMM1,908548,false,false,529,image-keyboard-response,24
true,5,2,2,1,false,z,false,false,0.0-2.0-0.16-0.151-3.151,0,0,0,68,false,stim,true,2,683.0,3,0,0,22685,WMM1,910740,false,false,532,image-keyboard-response,25
true,5,1,2,1,true,z,false,true,0.0-2.0-0.16-0.152-3.152,0,0,0,90,false,stim,false,2,451.0,3,0,0,22685,WMM1,912700,false,false,535,image-keyboard-response,26
true,5,1,2,1,true,z,false,true,0.0-2.0-0.17-0.153-3.153,0,0,0,90,false,stim,false,2,459.0,3,0,0,22685,WMM1,914668,false,false,538,image-keyboard-response,27
true,5,0,2,0,true,q,false,true,0.0-2.0-0.17-0.154-3.154,0,0,0,81,false,stim,false,2,1419.0,3,0,2,22685,WMM1,917596,false,false,541,image-keyboard-response,28
true,5,1,2,1,true,z,false,true,0.0-2.0-0.17-0.155-3.155,0,0,0,90,false,stim,false,2,852.0,3,0,0,22685,WMM1,919956,false,false,544,image-keyboard-response,29
true,5,1,2,1,true,z,false,true,0.0-2.0-0.17-0.156-3.156,0,0,0,90,false,stim,false,2,459.0,3,0,0,22685,WMM1,921924,false,false,547,image-keyboard-response,30
true,6,0,3,1,false,z,false,false,0.0-2.0-0.17-0.157-3.157,0,1,0,81,true,stim,true,0,892.0000000001164,3,0,2,22685,WMM1,924324,false,false,550,image-keyboard-response,1
true,6,2,3,2,true,d,false,true,0.0-2.0-0.17-0.158-3.158,0,1,0,68,false,stim,false,2,772.0,3,1,1,22685,WMM1,926604,false,false,553,image-keyboard-response,2
true,6,2,3,2,true,d,false,true,0.0-2.0-0.17-0.159-3.159,0,1,0,68,false,stim,false,2,516.0,3,1,1,22685,WMM1,928628,false,false,556,image-keyboard-response,3
true,6,0,3,1,false,z,false,false,0.0-2.0-0.17-0.160-3.160,0,1,0,81,false,stim,true,0,531.0,3,0,2,22685,WMM1,930668,false,false,559,image-keyboard-response,4
true,6,2,3,2,true,d,false,true,0.0-2.0-0.17-0.161-3.161,0,1,0,68,false,stim,false,2,788.0,3,1,1,22685,WMM1,932964,false,false,562,image-keyboard-response,5
true,6,2,3,2,true,d,false,true,0.0-2.0-0.18-0.162-3.162,0,1,0,68,false,stim,false,2,507.0,3,1,1,22685,WMM1,934980,false,false,565,image-keyboard-response,6
true,6,0,3,1,false,z,false,false,0.0-2.0-0.18-0.163-3.163,0,1,0,81,false,stim,true,0,828.0,3,0,2,22685,WMM1,937316,false,false,568,image-keyboard-response,7
true,6,1,3,1,true,z,false,false,0.0-2.0-0.18-0.164-3.164,0,1,0,90,false,stim,false,0,603.9999999998836,3,0,2,22685,WMM1,939427,false,true,571,image-keyboard-response,8
true,6,1,3,0,false,q,false,false,0.0-2.0-0.18-0.165-3.165,0,1,0,90,false,stim,true,1,580.0000000001164,3,0,0,22685,WMM1,941516,false,false,574,image-keyboard-response,9
true,6,2,3,2,true,d,false,true,0.0-2.0-0.18-0.166-3.166,0,1,0,68,false,stim,false,2,603.0,3,1,1,22685,WMM1,943627,false,false,577,image-keyboard-response,10
true,6,1,3,0,false,q,false,true,0.0-2.0-0.18-0.167-3.167,0,1,0,90,false,stim,true,1,675.0,3,0,0,22685,WMM1,945811,false,true,580,image-keyboard-response,11
true,6,1,3,0,false,q,false,false,0.0-2.0-0.18-0.168-3.168,0,1,0,90,false,stim,true,1,452.0,3,0,0,22685,WMM1,947771,false,false,583,image-keyboard-response,12
true,6,2,3,1,false,z,true,false,0.0-2.0-0.18-0.169-3.169,0,1,0,68,false,stim,false,0,1396.0,3,0,2,22685,WMM1,950675,false,false,586,image-keyboard-response,13
true,6,2,3,2,true,d,false,true,0.0-2.0-0.18-0.170-3.170,0,1,0,68,false,stim,false,2,645.0,3,1,1,22685,WMM1,952827,false,false,589,image-keyboard-response,14
true,6,0,3,1,false,z,false,false,0.0-2.0-0.19-0.171-3.171,0,1,0,81,false,stim,true,0,965.0000000001164,3,0,2,22685,WMM1,955299,false,false,592,image-keyboard-response,15
true,6,1,3,0,false,q,false,false,0.0-2.0-0.19-0.172-3.172,0,1,0,90,false,stim,true,1,716.0,3,0,0,22685,WMM1,957523,false,false,595,image-keyboard-response,16
true,6,2,3,1,false,z,true,false,0.0-2.0-0.19-0.173-3.173,0,1,0,68,false,stim,false,0,964.0,3,0,2,22685,WMM1,959995,false,false,598,image-keyboard-response,17
true,6,1,3,1,true,z,false,true,0.0-2.0-0.19-0.174-3.174,0,1,0,90,false,stim,false,0,511.0,3,0,2,22685,WMM1,962019,false,false,601,image-keyboard-response,18
true,6,1,3,0,false,q,false,false,0.0-2.0-0.19-0.175-3.175,0,1,0,90,false,stim,true,1,1421.0,3,0,0,22685,WMM1,964947,false,false,604,image-keyboard-response,19
true,6,2,3,2,true,d,false,true,0.0-2.0-0.19-0.176-3.176,0,1,0,68,false,stim,false,2,548.0,3,1,1,22685,WMM1,967003,false,false,607,image-keyboard-response,20
true,6,2,3,2,true,d,false,true,0.0-2.0-0.19-0.177-3.177,0,1,0,68,false,stim,false,2,652.0,3,1,1,22685,WMM1,969163,false,false,610,image-keyboard-response,21
true,6,2,3,2,true,d,false,true,0.0-2.0-0.19-0.178-3.178,0,1,0,68,false,stim,false,2,476.0,3,1,1,22685,WMM1,971147,false,false,613,image-keyboard-response,22
true,6,0,3,0,true,q,false,true,0.0-2.0-0.19-0.179-3.179,0,1,0,81,false,stim,false,1,916.0,3,0,0,22685,WMM1,973571,false,false,616,image-keyboard-response,23
true,6,2,3,2,true,d,false,true,0.0-2.0-0.20-0.180-3.180,0,1,0,68,false,stim,false,2,858.0000000001164,3,1,1,22685,WMM1,975939,false,false,619,image-keyboard-response,24
true,6,2,3,2,true,d,false,false,0.0-2.0-0.20-0.181-3.181,0,1,0,68,false,stim,false,2,586.9999999998836,3,1,1,22685,WMM1,978034,false,true,622,image-keyboard-response,25
true,6,0,3,0,true,q,false,true,0.0-2.0-0.20-0.182-3.182,0,1,0,81,false,stim,false,1,877.0000000001164,3,0,0,22685,WMM1,980418,false,false,625,image-keyboard-response,26
true,6,0,3,0,true,q,false,true,0.0-2.0-0.20-0.183-3.183,0,1,0,81,false,stim,false,1,515.0000000001164,3,0,0,22685,WMM1,982442,false,false,628,image-keyboard-response,27
true,6,1,3,1,true,z,false,false,0.0-2.0-0.20-0.184-3.184,0,1,0,90,false,stim,false,0,1371.0000000001164,3,0,2,22685,WMM1,985322,false,true,631,image-keyboard-response,28
true,6,2,3,0,false,q,true,false,0.0-2.0-0.20-0.185-3.185,0,1,0,68,false,stim,false,1,1082.0000000001164,3,0,0,22685,WMM1,987914,false,false,634,image-keyboard-response,29
true,6,0,3,1,false,z,false,false,0.0-2.0-0.20-0.186-3.186,0,1,0,81,false,stim,true,0,2037.0,3,1,2,22685,WMM1,991458,false,false,637,image-keyboard-response,30
true,6,1,3,2,false,d,true,false,0.0-2.0-0.20-0.187-3.187,0,1,0,90,false,stim,false,2,1629.0,3,0,1,22685,WMM1,994594,false,false,640,image-keyboard-response,31
true,6,0,3,1,false,z,false,false,0.0-2.0-0.20-0.188-3.188,0,1,0,81,false,stim,true,0,2156.0,3,1,2,22685,WMM1,998258,false,false,643,image-keyboard-response,32
true,6,0,3,2,false,d,true,false,0.0-2.0-0.21-0.189-3.189,0,1,0,81,false,stim,false,2,1459.0,3,0,1,22685,WMM1,1001226,false,false,646,image-keyboard-response,33
true,6,1,3,1,true,z,false,true,0.0-2.0-0.21-0.190-3.190,0,1,0,90,false,stim,false,0,1292.0,3,1,2,22685,WMM1,1004026,false,false,649,image-keyboard-response,34
true,6,2,3,2,true,d,false,true,0.0-2.0-0.21-0.191-3.191,0,1,0,68,false,stim,false,2,644.0,3,0,1,22685,WMM1,1006178,false,false,652,image-keyboard-response,35
true,6,1,3,1,true,z,false,true,0.0-2.0-0.21-0.192-3.192,0,1,0,90,false,stim,false,0,507.0,3,1,2,22685,WMM1,1008193,false,false,655,image-keyboard-response,36
true,6,0,3,0,true,q,false,false,0.0-2.0-0.21-0.193-3.193,0,1,0,81,false,stim,false,1,1092.0,3,0,0,22685,WMM1,1010793,false,true,658,image-keyboard-response,37
true,6,2,3,2,true,d,false,true,0.0-2.0-0.21-0.194-3.194,0,1,0,68,false,stim,false,2,1228.0,3,0,1,22685,WMM1,1013529,false,false,661,image-keyboard-response,38
true,7,1,3,2,false,d,true,true,0.0-2.0-0.21-0.195-3.195,0,0,1,90,true,stim,false,0,957.0,3,0,0,22685,WMM1,1015993,false,true,664,image-keyboard-response,1
true,7,1,3,1,true,z,false,true,0.0-2.0-0.21-0.196-3.196,0,0,1,90,false,stim,false,1,451.0,3,1,2,22685,WMM1,1017953,false,false,667,image-keyboard-response,2
true,7,1,3,2,false,d,true,true,0.0-2.0-0.21-0.197-3.197,0,0,1,90,false,stim,false,0,467.0,3,0,0,22685,WMM1,1019929,false,true,670,image-keyboard-response,3
true,7,1,3,1,true,z,false,false,0.0-2.0-0.22-0.198-3.198,0,0,1,90,false,stim,false,1,426.0000000001164,3,1,2,22685,WMM1,1021865,false,true,673,image-keyboard-response,4
true,7,2,3,0,false,q,false,false,0.0-2.0-0.22-0.199-3.199,0,0,1,68,false,stim,true,2,669.0,3,0,1,22685,WMM1,1024041,false,false,676,image-keyboard-response,5
true,7,2,3,0,false,q,false,false,0.0-2.0-0.22-0.200-3.200,0,0,1,68,false,stim,true,2,498.0,3,0,1,22685,WMM1,1026048,false,false,679,image-keyboard-response,6
true,7,1,3,2,false,d,true,false,0.0-2.0-0.22-0.201-3.201,0,0,1,90,false,stim,false,0,1187.0000000001164,3,0,0,22685,WMM1,1028745,false,false,682,image-keyboard-response,7
true,7,1,3,1,true,z,false,true,0.0-2.0-0.22-0.202-3.202,0,0,1,90,false,stim,false,1,780.0,3,1,2,22685,WMM1,1031033,false,false,685,image-keyboard-response,8
true,7,1,3,1,true,z,false,true,0.0-2.0-0.22-0.203-3.203,0,0,1,90,false,stim,false,1,581.0,3,1,2,22685,WMM1,1033121,false,false,688,image-keyboard-response,9
true,7,1,3,2,false,d,true,false,0.0-2.0-0.22-0.204-3.204,0,0,1,90,false,stim,false,0,866.0,3,0,0,22685,WMM1,1035496,false,false,691,image-keyboard-response,10
true,7,0,3,0,true,q,false,true,0.0-2.0-0.22-0.205-3.205,0,0,1,81,false,stim,false,2,995.0,3,0,1,22685,WMM1,1038001,false,false,694,image-keyboard-response,11
true,7,0,3,2,false,d,false,false,0.0-2.0-0.22-0.206-3.206,0,0,1,81,false,stim,true,0,1492.0,3,0,0,22685,WMM1,1041001,false,false,697,image-keyboard-response,12
true,7,0,3,0,true,q,false,true,0.0-2.0-0.23-0.207-3.207,0,0,1,81,false,stim,false,2,1306.0000000001164,3,0,1,22685,WMM1,1043816,false,false,700,image-keyboard-response,13
true,7,1,3,1,true,z,false,true,0.0-2.0-0.23-0.208-3.208,0,0,1,90,false,stim,false,1,496.0,3,1,2,22685,WMM1,1045824,false,false,703,image-keyboard-response,14
true,7,2,3,2,true,d,false,true,0.0-2.0-0.23-0.209-3.209,0,0,1,68,false,stim,false,0,788.0,3,0,0,22685,WMM1,1048120,false,false,706,image-keyboard-response,15
true,7,2,3,2,true,d,false,false,0.0-2.0-0.23-0.210-3.210,0,0,1,68,false,stim,false,0,532.0,3,0,0,22685,WMM1,1050160,false,true,709,image-keyboard-response,16
true,7,1,3,1,true,z,false,true,0.0-2.0-0.23-0.211-3.211,0,0,1,90,false,stim,false,1,1180.0,3,1,2,22685,WMM1,1052848,false,false,712,image-keyboard-response,17
true,7,0,3,0,true,q,false,true,0.0-2.0-0.23-0.212-3.212,0,0,1,81,false,stim,false,2,548.0,3,0,1,22685,WMM1,1054904,false,false,715,image-keyboard-response,18
true,7,2,3,2,true,d,false,true,0.0-2.0-0.23-0.213-3.213,0,0,1,68,false,stim,false,0,907.0000000001164,3,0,0,22685,WMM1,1057320,false,false,718,image-keyboard-response,19
true,7,1,3,1,true,z,false,false,0.0-2.0-0.23-0.214-3.214,0,0,1,90,false,stim,false,1,1652.0,3,1,2,22685,WMM1,1060480,false,true,721,image-keyboard-response,20
true,7,0,3,0,true,q,false,true,0.0-2.0-0.23-0.215-3.215,0,0,1,81,false,stim,false,2,699.9999999998836,3,0,1,22685,WMM1,1062688,false,false,724,image-keyboard-response,21
true,7,1,3,1,true,z,false,true,0.0-2.0-0.24-0.216-3.216,0,0,1,90,false,stim,false,1,610.0,3,0,2,22685,WMM1,1064808,false,false,727,image-keyboard-response,22
true,7,0,3,0,true,q,false,true,0.0-2.0-0.24-0.217-3.217,0,0,1,81,false,stim,false,2,1235.0,3,0,1,22685,WMM1,1067552,false,false,730,image-keyboard-response,23
true,7,2,3,2,true,d,false,true,0.0-2.0-0.24-0.218-3.218,0,0,1,68,false,stim,false,0,435.9999999998836,3,0,0,22685,WMM1,1069496,false,false,733,image-keyboard-response,24
true,7,1,3,1,true,z,false,true,0.0-2.0-0.24-0.219-3.219,0,0,1,90,false,stim,false,1,1275.0,3,0,2,22685,WMM1,1072279,false,false,736,image-keyboard-response,25
true,7,1,3,1,true,z,false,false,0.0-2.0-0.24-0.220-3.220,0,0,1,90,false,stim,false,1,477.0,3,0,2,22685,WMM1,1074264,false,true,739,image-keyboard-response,26
true,7,0,3,0,true,q,false,true,0.0-2.0-0.24-0.221-3.221,0,0,1,81,false,stim,false,2,1227.9999999998836,3,0,1,22685,WMM1,1076999,false,false,742,image-keyboard-response,27
true,7,0,3,0,true,q,false,false,0.0-2.0-0.24-0.222-3.222,0,0,1,81,false,stim,false,2,435.0,3,0,1,22685,WMM1,1078943,false,true,745,image-keyboard-response,28
true,7,2,3,2,true,d,false,true,0.0-2.0-0.24-0.223-3.223,0,0,1,68,false,stim,false,0,805.0,3,0,0,22685,WMM1,1081255,false,false,748,image-keyboard-response,29
true,7,2,3,2,true,d,false,true,0.0-2.0-0.24-0.224-3.224,0,0,1,68,false,stim,false,0,468.0,3,0,0,22685,WMM1,1083231,false,false,751,image-keyboard-response,30
true,8,0,2,2,false,d,false,false,0.0-2.0-0.25-0.225-3.225,0,0,0,81,true,stim,true,0,837.0,3,0,1,22685,WMM1,1085575,false,false,754,image-keyboard-response,1
true,8,1,2,1,true,z,false,true,0.0-2.0-0.25-0.226-3.226,0,0,0,90,false,stim,false,2,795.9999999998836,3,0,0,22685,WMM1,1087879,false,false,757,image-keyboard-response,2
true,8,0,2,0,true,q,false,true,0.0-2.0-0.25-0.227-3.227,0,0,0,81,false,stim,false,1,1164.9999999998836,3,0,2,22685,WMM1,1090551,false,false,760,image-keyboard-response,3
true,8,0,2,0,true,q,false,true,0.0-2.0-0.25-0.228-3.228,0,0,0,81,false,stim,false,1,685.0,3,0,2,22685,WMM1,1092743,false,false,763,image-keyboard-response,4
true,8,0,2,0,true,q,false,true,0.0-2.0-0.25-0.229-3.229,0,0,0,81,false,stim,false,1,468.0,3,0,2,22685,WMM1,1094719,false,false,766,image-keyboard-response,5
true,8,2,2,2,true,d,false,true,0.0-2.0-0.25-0.230-3.230,0,0,0,68,false,stim,false,0,532.0,3,0,1,22685,WMM1,1096759,false,false,769,image-keyboard-response,6
true,8,1,2,1,true,z,false,true,0.0-2.0-0.25-0.231-3.231,0,0,0,90,false,stim,false,2,652.9999999998836,3,0,0,22685,WMM1,1098919,false,false,772,image-keyboard-response,7
true,8,1,2,1,true,z,false,true,0.0-2.0-0.25-0.232-3.232,0,0,0,90,false,stim,false,2,1019.0,3,0,0,22685,WMM1,1101447,false,false,775,image-keyboard-response,8
false,8,-1,2,2,false,d,true,false,0.0-2.0-0.25-0.233-3.233,0,0,0,,false,stim,false,0,,3,0,1,22685,WMM1,1105956,false,false,778,image-keyboard-response,9
true,8,0,2,2,false,d,false,false,0.0-2.0-0.26-0.234-3.234,0,0,0,81,false,stim,true,0,613.0,3,0,1,22685,WMM1,1108079,false,false,781,image-keyboard-response,10
true,8,2,2,0,false,q,true,false,0.0-2.0-0.26-0.235-3.235,0,0,0,68,false,stim,false,1,995.0,3,0,2,22685,WMM1,1110582,false,false,784,image-keyboard-response,11
true,8,1,2,1,true,z,false,false,0.0-2.0-0.26-0.236-3.236,0,0,0,90,false,stim,false,2,675.0000000001164,3,0,0,22685,WMM1,1112766,false,true,787,image-keyboard-response,12
true,8,0,2,2,false,d,false,false,0.0-2.0-0.26-0.237-3.237,0,0,0,81,false,stim,true,0,1187.0,3,0,1,22685,WMM1,1115462,false,false,790,image-keyboard-response,13
true,8,0,2,0,true,q,false,false,0.0-2.0-0.26-0.238-3.238,0,0,0,81,false,stim,false,1,1149.0,3,0,2,22685,WMM1,1118118,false,true,793,image-keyboard-response,14
true,8,1,2,1,true,z,false,true,0.0-2.0-0.26-0.239-3.239,0,0,0,90,false,stim,false,2,1044.0,3,0,0,22685,WMM1,1120670,false,false,796,image-keyboard-response,15
true,8,1,2,2,false,d,true,false,0.0-2.0-0.26-0.240-3.240,0,0,0,90,false,stim,false,0,1108.0,3,0,1,22685,WMM1,1123286,false,false,799,image-keyboard-response,16
true,8,1,2,1,true,z,false,true,0.0-2.0-0.26-0.241-3.241,0,0,0,90,false,stim,false,2,846.0000000001164,3,0,0,22685,WMM1,1125646,false,false,802,image-keyboard-response,17
true,8,1,2,0,false,q,false,false,0.0-2.0-0.26-0.242-3.242,0,0,0,90,false,stim,true,1,1116.0,3,0,2,22685,WMM1,1128270,false,false,805,image-keyboard-response,18
true,8,2,2,2,true,d,false,true,0.0-2.0-0.27-0.243-3.243,0,0,0,68,false,stim,false,0,529.9999999998836,3,0,1,22685,WMM1,1130310,false,false,808,image-keyboard-response,19
true,8,2,2,0,false,q,true,false,0.0-2.0-0.27-0.244-3.244,0,0,0,68,false,stim,false,1,451.0000000001164,3,0,2,22685,WMM1,1132270,false,false,811,image-keyboard-response,20
true,8,1,2,1,true,z,false,true,0.0-2.0-0.27-0.245-3.245,0,0,0,90,false,stim,false,2,833.9999999998836,3,0,0,22685,WMM1,1134613,false,false,814,image-keyboard-response,21
true,8,2,2,2,true,d,false,true,0.0-2.0-0.27-0.246-3.246,0,0,0,68,false,stim,false,0,958.0,3,0,1,22685,WMM1,1137078,false,false,817,image-keyboard-response,22
true,8,1,2,0,false,q,false,false,0.0-2.0-0.27-0.247-3.247,0,0,0,90,false,stim,true,1,1361.9999999998836,3,0,2,22685,WMM1,1139949,false,false,820,image-keyboard-response,23
true,8,1,2,0,false,q,false,false,0.0-2.0-0.27-0.248-3.248,0,0,0,90,false,stim,true,1,596.0,3,0,2,22685,WMM1,1142054,false,false,823,image-keyboard-response,24
true,8,1,2,1,true,z,false,true,0.0-2.0-0.27-0.249-3.249,0,0,0,90,false,stim,false,2,938.9999999998836,3,0,0,22685,WMM1,1144502,false,false,826,image-keyboard-response,25
true,8,1,2,1,true,z,false,true,0.0-2.0-0.27-0.250-3.250,0,0,0,90,false,stim,false,2,795.0,3,0,0,22685,WMM1,1146805,false,false,829,image-keyboard-response,26
true,8,2,2,2,true,d,false,true,0.0-2.0-0.27-0.251-3.251,0,0,0,68,false,stim,false,0,1051.0000000001164,3,0,1,22685,WMM1,1149365,false,false,832,image-keyboard-response,27
true,8,2,2,2,true,d,false,true,0.0-2.0-0.28-0.252-3.252,0,0,0,68,false,stim,false,0,539.0000000001164,3,0,1,22685,WMM1,1151413,false,false,835,image-keyboard-response,28
true,8,0,2,0,true,q,false,true,0.0-2.0-0.28-0.253-3.253,0,0,0,81,false,stim,false,1,1619.0,3,0,2,22685,WMM1,1154541,false,false,838,image-keyboard-response,29
true,8,1,2,1,true,z,false,true,0.0-2.0-0.28-0.254-3.254,0,0,0,90,false,stim,false,2,788.0,3,0,0,22685,WMM1,1156837,false,false,841,image-keyboard-response,30
true,8,2,2,2,true,d,false,true,0.0-2.0-0.28-0.255-3.255,0,0,0,68,false,stim,false,0,900.0,3,0,1,22685,WMM1,1159245,false,false,844,image-keyboard-response,31
true,8,1,2,1,true,z,false,true,0.0-2.0-0.28-0.256-3.256,0,0,0,90,false,stim,false,2,837.0,3,0,0,22685,WMM1,1161589,false,false,847,image-keyboard-response,32
true,8,1,2,1,true,z,false,true,0.0-2.0-0.28-0.257-3.257,0,0,0,90,false,stim,false,2,539.0,3,0,0,22685,WMM1,1163637,false,false,850,image-keyboard-response,33
true,8,0,2,0,true,q,false,true,0.0-2.0-0.28-0.258-3.258,0,0,0,81,false,stim,false,1,1707.0,3,0,2,22685,WMM1,1166853,false,false,853,image-keyboard-response,34
true,8,0,2,0,true,q,false,true,0.0-2.0-0.28-0.259-3.259,0,0,0,81,false,stim,false,1,607.0,3,0,2,22685,WMM1,1168973,false,false,856,image-keyboard-response,35
true,8,2,2,2,true,d,false,true,0.0-2.0-0.28-0.260-3.260,0,0,0,68,false,stim,false,0,770.0,3,0,1,22685,WMM1,1171252,false,false,859,image-keyboard-response,36
true,8,2,2,2,true,d,false,true,0.0-2.0-0.29-0.261-3.261,0,0,0,68,false,stim,false,0,451.0,3,0,1,22685,WMM1,1173213,false,false,862,image-keyboard-response,37
true,8,1,2,1,true,z,false,true,0.0-2.0-0.29-0.262-3.262,0,0,0,90,false,stim,false,2,603.0,3,0,0,22685,WMM1,1175325,false,false,865,image-keyboard-response,38
true,8,0,2,0,true,q,false,true,0.0-2.0-0.29-0.263-3.263,0,0,0,81,false,stim,false,1,1587.0,3,0,2,22685,WMM1,1178420,false,false,868,image-keyboard-response,39
true,8,2,2,1,false,z,false,true,0.0-2.0-0.29-0.264-3.264,0,0,0,68,false,stim,true,2,1252.0,3,0,0,22685,WMM1,1181180,false,true,871,image-keyboard-response,40
true,8,1,2,1,true,z,false,true,0.0-2.0-0.29-0.265-3.265,0,0,0,90,false,stim,false,2,428.0,3,0,0,22685,WMM1,1183116,false,false,874,image-keyboard-response,41
true,8,0,2,0,true,q,false,true,0.0-2.0-0.29-0.266-3.266,0,0,0,81,false,stim,false,1,1242.0,3,0,2,22685,WMM1,1185868,false,false,877,image-keyboard-response,42
true,8,0,2,0,true,q,false,true,0.0-2.0-0.29-0.267-3.267,0,0,0,81,false,stim,false,1,468.0,3,0,2,22685,WMM1,1187844,false,false,880,image-keyboard-response,43
true,8,2,2,2,true,d,false,true,0.0-2.0-0.29-0.268-3.268,0,0,0,68,false,stim,false,0,589.0,3,0,1,22685,WMM1,1189940,false,false,883,image-keyboard-response,44
true,9,2,1,0,false,q,false,false,0.0-2.0-0.29-0.269-3.269,0,0,0,68,true,stim,true,2,563.0,3,0,1,22685,WMM1,1192012,false,false,886,image-keyboard-response,1
true,9,2,1,0,false,q,false,false,0.0-2.0-0.30-0.270-3.270,0,0,0,68,false,stim,true,2,771.0,3,0,1,22685,WMM1,1194292,false,false,889,image-keyboard-response,2
true,9,1,1,0,false,q,false,false,0.0-2.0-0.30-0.271-3.271,0,0,0,90,false,stim,true,1,835.0,3,0,0,22685,WMM1,1196636,false,false,892,image-keyboard-response,3
true,9,1,1,0,false,q,false,false,0.0-2.0-0.30-0.272-3.272,0,0,0,90,false,stim,true,1,715.0000000001164,3,0,0,22685,WMM1,1198860,false,false,895,image-keyboard-response,4
true,9,0,1,2,false,d,false,false,0.0-2.0-0.30-0.273-3.273,0,0,0,81,false,stim,true,0,916.0,3,0,2,22685,WMM1,1201284,false,false,898,image-keyboard-response,5
true,9,0,1,0,true,q,false,true,0.0-2.0-0.30-0.274-3.274,0,0,0,81,false,stim,false,2,998.0,3,0,1,22685,WMM1,1203796,false,false,901,image-keyboard-response,6
true,9,0,1,2,false,d,false,false,0.0-2.0-0.30-0.275-3.275,0,0,0,81,false,stim,true,0,708.0,3,0,2,22685,WMM1,1206012,false,false,904,image-keyboard-response,7
true,9,0,1,0,true,q,false,true,0.0-2.0-0.30-0.276-3.276,0,0,0,81,false,stim,false,2,717.0,3,0,1,22685,WMM1,1208236,false,false,907,image-keyboard-response,8
true,9,2,1,0,false,q,true,false,0.0-2.0-0.30-0.277-3.277,0,0,0,68,false,stim,false,1,1452.0,3,0,0,22685,WMM1,1211196,false,false,910,image-keyboard-response,9
true,9,2,1,2,true,d,false,true,0.0-2.0-0.30-0.278-3.278,0,0,0,68,false,stim,false,0,2933.0,3,0,2,22685,WMM1,1215637,false,false,913,image-keyboard-response,10
true,9,1,1,0,false,q,false,false,0.0-2.0-0.31-0.279-3.279,0,0,0,90,false,stim,true,1,1747.0000000001164,3,0,0,22685,WMM1,1218893,false,false,916,image-keyboard-response,11
true,9,0,1,0,true,q,false,true,0.0-2.0-0.31-0.280-3.280,0,0,0,81,false,stim,false,1,626.9999999998836,3,0,0,22685,WMM1,1221029,false,false,919,image-keyboard-response,12
true,9,0,1,0,true,q,false,true,0.0-2.0-0.31-0.281-3.281,0,0,0,81,false,stim,false,1,476.0,3,0,0,22685,WMM1,1223013,false,false,922,image-keyboard-response,13
true,9,2,1,2,true,d,false,true,0.0-2.0-0.31-0.282-3.282,0,0,0,68,false,stim,false,0,755.0000000001164,3,0,2,22685,WMM1,1225277,false,false,925,image-keyboard-response,14
true,9,0,1,0,true,q,false,true,0.0-2.0-0.31-0.283-3.283,0,0,0,81,false,stim,false,2,491.0000000001164,3,0,1,22685,WMM1,1227277,false,false,928,image-keyboard-response,15
true,9,2,1,2,true,d,false,true,0.0-2.0-0.31-0.284-3.284,0,0,0,68,false,stim,false,0,660.0,3,0,2,22685,WMM1,1229445,false,false,931,image-keyboard-response,16
true,9,2,1,2,true,d,false,true,0.0-2.0-0.31-0.285-3.285,0,0,0,68,false,stim,false,0,459.0,3,0,2,22685,WMM1,1231413,false,false,934,image-keyboard-response,17
true,9,0,1,0,true,q,false,true,0.0-2.0-0.31-0.286-3.286,0,0,0,81,false,stim,false,2,659.0,3,0,1,22685,WMM1,1233580,false,false,937,image-keyboard-response,18
true,9,0,1,0,true,q,false,true,0.0-2.0-0.31-0.287-3.287,0,0,0,81,false,stim,false,2,522.9999999998836,3,0,1,22685,WMM1,1235612,false,false,940,image-keyboard-response,19
true,9,0,1,0,true,q,false,false,0.0-2.0-0.32-0.288-3.288,0,0,0,81,false,stim,false,2,436.0,3,0,1,22685,WMM1,1237557,false,true,943,image-keyboard-response,20
true,9,2,1,0,false,q,true,false,0.0-2.0-0.32-0.289-3.289,0,0,0,68,false,stim,false,1,778.9999999998836,3,0,0,22685,WMM1,1239844,false,false,946,image-keyboard-response,21
true,9,1,1,0,false,q,false,false,0.0-2.0-0.32-0.290-3.290,0,0,0,90,false,stim,true,1,428.0,3,0,0,22685,WMM1,1241780,false,false,949,image-keyboard-response,22
true,9,2,1,0,false,q,false,false,0.0-2.0-0.32-0.291-3.291,0,0,0,68,false,stim,true,2,1171.0,3,0,1,22685,WMM1,1244460,false,false,952,image-keyboard-response,23
true,9,0,1,0,true,q,false,true,0.0-2.0-0.32-0.292-3.292,0,0,0,81,false,stim,false,1,1060.0,3,0,0,22685,WMM1,1247028,false,false,955,image-keyboard-response,24
true,9,2,1,2,true,d,false,false,0.0-2.0-0.32-0.293-3.293,0,0,0,68,false,stim,false,0,779.9999999998836,3,0,2,22685,WMM1,1249316,false,true,958,image-keyboard-response,25
true,9,2,1,2,true,d,false,true,0.0-2.0-0.32-0.294-3.294,0,0,0,68,false,stim,false,0,811.0,3,0,2,22685,WMM1,1251636,false,false,961,image-keyboard-response,26
true,9,0,1,0,true,q,false,true,0.0-2.0-0.32-0.295-3.295,0,0,0,81,false,stim,false,2,644.0,3,0,1,22685,WMM1,1253788,false,false,964,image-keyboard-response,27
true,9,2,1,2,true,d,false,true,0.0-2.0-0.32-0.296-3.296,0,0,0,68,false,stim,false,0,810.0,3,0,2,22685,WMM1,1256108,false,false,967,image-keyboard-response,28
true,9,2,1,2,true,d,false,true,0.0-2.0-0.33-0.297-3.297,0,0,0,68,false,stim,false,0,473.0,3,0,2,22685,WMM1,1258092,false,false,970,image-keyboard-response,29
true,9,0,1,0,true,q,false,true,0.0-2.0-0.33-0.298-3.298,0,0,0,81,false,stim,false,2,522.0,3,0,1,22685,WMM1,1260124,false,false,973,image-keyboard-response,30
true,10,0,2,1,false,z,false,false,0.0-2.0-0.33-0.299-3.299,0,0,0,81,true,stim,true,0,689.0000000001164,3,0,0,22685,WMM1,1262324,false,false,976,image-keyboard-response,1
true,10,2,2,0,false,q,false,false,0.0-2.0-0.33-0.300-3.300,0,0,0,68,false,stim,true,2,915.0,3,0,2,22685,WMM1,1264748,false,false,979,image-keyboard-response,2
true,10,0,2,2,false,d,false,false,0.0-2.0-0.33-0.301-3.301,0,0,0,81,false,stim,true,0,1019.0,3,0,1,22685,WMM1,1267276,false,false,982,image-keyboard-response,3
true,10,2,2,0,false,q,false,false,0.0-2.0-0.33-0.302-3.302,0,0,0,68,false,stim,true,2,939.0,3,0,2,22685,WMM1,1269724,false,false,985,image-keyboard-response,4
true,10,1,2,2,false,d,true,true,0.0-2.0-0.33-0.303-3.303,0,0,0,90,false,stim,false,0,1412.0,3,0,1,22685,WMM1,1272643,false,true,988,image-keyboard-response,5
true,10,1,2,1,true,z,false,false,0.0-2.0-0.33-0.304-3.304,0,0,0,90,false,stim,false,0,1073.0000000001164,3,0,0,22685,WMM1,1275228,false,true,991,image-keyboard-response,6
true,10,2,2,1,false,z,true,false,0.0-2.0-0.33-0.305-3.305,0,0,0,68,false,stim,false,0,977.0,3,0,0,22685,WMM1,1277715,false,false,994,image-keyboard-response,7
true,10,2,2,0,false,q,false,false,0.0-2.0-0.34-0.306-3.306,0,0,0,68,false,stim,true,2,1322.0,3,0,2,22685,WMM1,1280547,false,false,997,image-keyboard-response,8
true,10,0,2,1,false,z,false,false,0.0-2.0-0.34-0.307-3.307,0,0,0,81,false,stim,true,0,987.0,3,0,0,22685,WMM1,1283043,false,false,1000,image-keyboard-response,9
true,10,1,2,1,true,z,false,true,0.0-2.0-0.34-0.308-3.308,0,0,0,90,false,stim,false,0,725.0,3,0,0,22685,WMM1,1285283,false,false,1003,image-keyboard-response,10
true,10,2,2,2,true,d,false,true,0.0-2.0-0.34-0.309-3.309,0,0,0,68,false,stim,false,0,763.0,3,0,1,22685,WMM1,1287555,false,false,1006,image-keyboard-response,11
true,10,2,2,2,true,d,false,false,0.0-2.0-0.34-0.310-3.310,0,0,0,68,false,stim,false,0,762.9999999998836,3,0,1,22685,WMM1,1289827,false,true,1009,image-keyboard-response,12
true,10,1,2,1,true,z,false,true,0.0-2.0-0.34-0.311-3.311,0,0,0,90,false,stim,false,0,826.0,3,0,0,22685,WMM1,1292163,false,false,1012,image-keyboard-response,13
true,10,1,2,0,false,q,true,false,0.0-2.0-0.34-0.312-3.312,0,0,0,90,false,stim,false,2,498.0,3,0,2,22685,WMM1,1294171,false,false,1015,image-keyboard-response,14
true,10,0,2,0,true,q,false,true,0.0-2.0-0.34-0.313-3.313,0,0,0,81,false,stim,false,2,660.0,3,0,2,22685,WMM1,1296339,false,false,1018,image-keyboard-response,15
true,10,2,2,2,true,d,false,true,0.0-2.0-0.34-0.314-3.314,0,0,0,68,false,stim,false,0,780.0,3,0,1,22685,WMM1,1298627,false,false,1021,image-keyboard-response,16
true,10,2,2,2,true,d,false,true,0.0-2.0-0.35-0.315-3.315,0,0,0,68,false,stim,false,0,496.0000000001164,3,0,1,22685,WMM1,1300635,false,false,1024,image-keyboard-response,17
true,10,2,2,2,true,d,false,true,0.0-2.0-0.35-0.316-3.316,0,0,0,68,false,stim,false,0,547.0,3,0,1,22685,WMM1,1302691,false,false,1027,image-keyboard-response,18
true,10,0,2,0,true,q,false,true,0.0-2.0-0.35-0.317-3.317,0,0,0,81,false,stim,false,2,1587.0000000002328,3,0,2,22685,WMM1,1305787,false,false,1030,image-keyboard-response,19
true,10,0,2,0,true,q,false,true,0.0-2.0-0.35-0.318-3.318,0,0,0,81,false,stim,false,2,403.0,3,0,2,22685,WMM1,1307699,false,false,1033,image-keyboard-response,20
true,10,2,2,2,true,d,false,true,0.0-2.0-0.35-0.319-3.319,0,0,0,68,false,stim,false,0,683.0,3,0,1,22685,WMM1,1309890,false,false,1036,image-keyboard-response,21
true,10,1,2,1,true,z,false,true,0.0-2.0-0.35-0.320-3.320,0,0,0,90,false,stim,false,0,522.0000000002328,3,0,0,22685,WMM1,1311923,false,false,1039,image-keyboard-response,22
true,10,2,2,0,false,q,false,false,0.0-2.0-0.35-0.321-3.321,0,0,0,68,false,stim,true,2,1018.0,3,0,2,22685,WMM1,1314450,false,false,1042,image-keyboard-response,23
true,10,1,2,1,true,z,false,true,0.0-2.0-0.35-0.322-3.322,0,0,0,90,false,stim,false,0,716.0000000001164,3,0,0,22685,WMM1,1316674,false,false,1045,image-keyboard-response,24
true,10,1,2,1,true,z,false,true,0.0-2.0-0.35-0.323-3.323,0,0,0,90,false,stim,false,0,609.0,3,0,0,22685,WMM1,1318794,false,false,1048,image-keyboard-response,25
true,10,2,2,2,true,d,false,true,0.0-2.0-0.36-0.324-3.324,0,0,0,68,false,stim,false,0,658.0000000002328,3,0,1,22685,WMM1,1320962,false,false,1051,image-keyboard-response,26
true,10,1,2,1,true,z,false,false,0.0-2.0-0.36-0.325-3.325,0,0,0,90,false,stim,false,0,851.9999999998836,3,0,0,22685,WMM1,1323322,false,true,1054,image-keyboard-response,27
true,10,1,2,1,true,z,false,true,0.0-2.0-0.36-0.326-3.326,0,0,0,90,false,stim,false,0,411.0,3,0,0,22685,WMM1,1325242,false,false,1057,image-keyboard-response,28
true,10,2,2,2,true,d,false,true,0.0-2.0-0.36-0.327-3.327,0,0,0,68,false,stim,false,0,2099.0,3,0,1,22685,WMM1,1328850,false,false,1060,image-keyboard-response,29
true,10,2,2,2,true,d,false,true,0.0-2.0-0.36-0.328-3.328,0,0,0,68,false,stim,false,0,467.0,3,0,1,22685,WMM1,1330826,false,false,1063,image-keyboard-response,30
true,11,1,1,0,false,q,false,false,0.0-2.0-0.36-0.329-3.329,0,0,0,90,true,stim,true,1,1035.0,3,0,0,22685,WMM1,1333370,false,false,1066,image-keyboard-response,1
true,11,0,1,2,false,d,false,false,0.0-2.0-0.36-0.330-3.330,0,0,0,81,false,stim,true,0,705.0,3,0,2,22685,WMM1,1335586,false,false,1069,image-keyboard-response,2
true,11,0,1,2,false,d,false,false,0.0-2.0-0.36-0.331-3.331,0,0,0,81,false,stim,true,0,435.99999999976717,3,0,2,22685,WMM1,1337529,false,false,1072,image-keyboard-response,3
true,11,1,1,2,false,d,true,false,0.0-2.0-0.36-0.332-3.332,0,0,0,90,false,stim,false,0,492.0,3,0,2,22685,WMM1,1339530,false,false,1075,image-keyboard-response,4
true,11,1,1,2,false,d,true,false,0.0-2.0-0.37-0.333-3.333,0,0,0,90,false,stim,false,0,490.0,3,0,2,22685,WMM1,1341529,false,false,1078,image-keyboard-response,5
true,11,2,1,1,false,z,false,false,0.0-2.0-0.37-0.334-3.334,0,0,0,68,false,stim,true,2,889.0,3,0,1,22685,WMM1,1343929,false,false,1081,image-keyboard-response,6
true,11,2,1,1,false,z,false,false,0.0-2.0-0.37-0.335-3.335,0,0,0,68,false,stim,true,2,1307.0,3,0,1,22685,WMM1,1346745,false,false,1084,image-keyboard-response,7
true,11,2,1,2,true,d,false,true,0.0-2.0-0.37-0.336-3.336,0,0,0,68,false,stim,false,0,747.0,3,0,2,22685,WMM1,1349001,false,false,1087,image-keyboard-response,8
true,11,2,1,2,true,d,false,true,0.0-2.0-0.37-0.337-3.337,0,0,0,68,false,stim,false,0,738.0,3,0,2,22685,WMM1,1351249,false,false,1090,image-keyboard-response,9
true,11,1,1,0,false,q,false,false,0.0-2.0-0.37-0.338-3.338,0,0,0,90,false,stim,true,1,1067.0,3,0,0,22685,WMM1,1353825,false,false,1093,image-keyboard-response,10
true,11,1,1,0,false,q,false,false,0.0-2.0-0.37-0.339-3.339,0,0,0,90,false,stim,true,1,435.0,3,0,0,22685,WMM1,1355769,false,false,1096,image-keyboard-response,11
true,11,1,1,1,true,z,false,true,0.0-2.0-0.37-0.340-3.340,0,0,0,90,false,stim,false,2,1555.0000000002328,3,0,1,22685,WMM1,1358833,false,false,1099,image-keyboard-response,12
true,11,0,1,0,true,q,false,true,0.0-2.0-0.37-0.341-3.341,0,0,0,81,false,stim,false,1,1212.0,3,0,0,22685,WMM1,1361561,false,false,1102,image-keyboard-response,13
true,11,1,1,1,true,z,false,true,0.0-2.0-0.38-0.342-3.342,0,0,0,90,false,stim,false,2,779.0,3,0,1,22685,WMM1,1363849,false,false,1105,image-keyboard-response,14
true,11,0,1,0,true,q,false,false,0.0-2.0-0.38-0.343-3.343,0,0,0,81,false,stim,false,1,436.0,3,0,0,22685,WMM1,1365793,false,true,1108,image-keyboard-response,15
true,11,0,1,0,true,q,false,true,0.0-2.0-0.38-0.344-3.344,0,0,0,81,false,stim,false,1,522.0,3,0,0,22685,WMM1,1367825,false,false,1111,image-keyboard-response,16
true,11,2,1,2,true,d,false,true,0.0-2.0-0.38-0.345-3.345,0,0,0,68,false,stim,false,0,531.0,3,0,2,22685,WMM1,1369865,false,false,1114,image-keyboard-response,17
true,11,0,1,0,true,q,false,true,0.0-2.0-0.38-0.346-3.346,0,0,0,81,false,stim,false,1,595.0,3,0,0,22685,WMM1,1371969,false,false,1117,image-keyboard-response,18
true,11,1,1,1,true,z,false,true,0.0-2.0-0.38-0.347-3.347,0,0,0,90,false,stim,false,2,651.0,3,0,1,22685,WMM1,1374128,false,false,1120,image-keyboard-response,19
true,11,2,1,2,true,d,false,false,0.0-2.0-0.38-0.348-3.348,0,0,0,68,false,stim,false,0,2050.000000000233,3,0,2,22685,WMM1,1377688,false,true,1123,image-keyboard-response,20
true,11,0,1,2,false,d,false,false,0.0-2.0-0.38-0.349-3.349,0,0,0,81,false,stim,true,0,634.0,3,0,2,22685,WMM1,1379832,false,false,1126,image-keyboard-response,21
true,11,0,1,1,false,z,true,false,0.0-2.0-0.38-0.350-3.350,0,0,0,81,false,stim,false,2,1459.0,3,0,1,22685,WMM1,1382800,false,false,1129,image-keyboard-response,22
true,11,2,1,1,false,z,false,false,0.0-2.0-0.39-0.351-3.351,0,0,0,68,false,stim,true,2,738.0,3,0,1,22685,WMM1,1385048,false,false,1132,image-keyboard-response,23
true,11,2,1,2,true,d,false,true,0.0-2.0-0.39-0.352-3.352,0,0,0,68,false,stim,false,0,1122.0,3,0,2,22685,WMM1,1387680,false,false,1135,image-keyboard-response,24
true,11,1,1,0,false,q,false,false,0.0-2.0-0.39-0.353-3.353,0,0,0,90,false,stim,true,1,579.0,3,0,0,22685,WMM1,1389768,false,false,1138,image-keyboard-response,25
true,11,0,1,1,false,z,true,false,0.0-2.0-0.39-0.354-3.354,0,0,0,81,false,stim,false,2,691.0,3,0,1,22685,WMM1,1391968,false,false,1141,image-keyboard-response,26
true,11,1,1,0,false,q,false,false,0.0-2.0-0.39-0.355-3.355,0,0,0,90,false,stim,true,1,922.0,3,0,0,22685,WMM1,1394400,false,false,1144,image-keyboard-response,27
true,11,2,1,0,false,q,true,true,0.0-2.0-0.39-0.356-3.356,0,0,0,68,false,stim,false,1,564.0,3,0,0,22685,WMM1,1396472,false,true,1147,image-keyboard-response,28
true,11,2,1,2,true,d,false,true,0.0-2.0-0.39-0.357-3.357,0,0,0,68,false,stim,false,0,763.0,3,0,2,22685,WMM1,1398744,false,false,1150,image-keyboard-response,29
true,11,2,1,2,true,d,false,true,0.0-2.0-0.39-0.358-3.358,0,0,0,68,false,stim,false,0,460.0,3,0,2,22685,WMM1,1400712,false,false,1153,image-keyboard-response,30
true,12,0,2,2,false,d,true,false,0.0-2.0-0.39-0.359-3.359,0,0,0,81,true,stim,false,1,851.0,3,0,1,22685,WMM1,1403072,false,false,1156,image-keyboard-response,1
true,12,1,2,2,false,d,false,false,0.0-2.0-0.40-0.360-3.360,0,0,0,90,false,stim,true,1,611.0,3,0,1,22685,WMM1,1405191,false,false,1159,image-keyboard-response,2
true,12,2,2,0,false,q,false,true,0.0-2.0-0.40-0.361-3.361,0,0,0,68,false,stim,true,2,716.0,3,0,2,22685,WMM1,1407416,false,true,1162,image-keyboard-response,3
true,12,2,2,0,false,q,false,false,0.0-2.0-0.40-0.362-3.362,0,0,0,68,false,stim,true,2,562.0,3,0,2,22685,WMM1,1409488,false,false,1165,image-keyboard-response,4
true,12,2,2,2,true,d,false,true,0.0-2.0-0.40-0.363-3.363,0,0,0,68,false,stim,false,1,922.0,3,0,1,22685,WMM1,1411919,false,false,1168,image-keyboard-response,5
true,12,2,2,1,false,z,true,false,0.0-2.0-0.40-0.364-3.364,0,0,0,68,false,stim,false,0,883.9999999997672,3,0,0,22685,WMM1,1414311,false,false,1171,image-keyboard-response,6
true,12,2,2,1,false,z,true,false,0.0-2.0-0.40-0.365-3.365,0,0,0,68,false,stim,false,0,482.0,3,0,0,22685,WMM1,1416303,false,false,1174,image-keyboard-response,7
true,12,2,2,2,true,d,false,false,0.0-2.0-0.40-0.366-3.366,0,0,0,68,false,stim,false,1,586.0,3,0,1,22685,WMM1,1418399,false,true,1177,image-keyboard-response,8
true,12,2,2,0,false,q,false,false,0.0-2.0-0.40-0.367-3.367,0,0,0,68,false,stim,true,2,650.9999999997672,3,0,2,22685,WMM1,1420559,false,false,1180,image-keyboard-response,9
true,12,2,2,1,false,z,true,false,0.0-2.0-0.40-0.368-3.368,0,0,0,68,false,stim,false,0,899.0,3,0,0,22685,WMM1,1422967,false,false,1183,image-keyboard-response,10
true,12,2,2,0,false,q,false,false,0.0-2.0-0.41-0.369-3.369,0,0,0,68,false,stim,true,2,1329.0,3,0,2,22685,WMM1,1425806,false,false,1186,image-keyboard-response,11
true,12,1,2,1,true,z,false,false,0.0-2.0-0.41-0.370-3.370,0,0,0,90,false,stim,false,0,828.0,3,0,0,22685,WMM1,1428143,false,true,1189,image-keyboard-response,12
true,12,1,2,2,false,d,false,false,0.0-2.0-0.41-0.371-3.371,0,0,0,90,false,stim,true,1,786.0,3,0,1,22685,WMM1,1430439,false,false,1192,image-keyboard-response,13
true,12,1,2,0,false,q,true,false,0.0-2.0-0.41-0.372-3.372,0,0,0,90,false,stim,false,2,923.9999999997672,3,0,2,22685,WMM1,1476604,false,false,1195,image-keyboard-response,14
true,12,0,2,0,true,q,false,true,0.0-2.0-0.41-0.373-3.373,0,0,0,81,false,stim,false,2,650.0,3,0,2,22685,WMM1,1478764,false,false,1198,image-keyboard-response,15
true,12,0,2,1,false,z,false,false,0.0-2.0-0.41-0.374-3.374,0,0,0,81,false,stim,true,0,446.0,3,0,0,22685,WMM1,1480724,false,false,1201,image-keyboard-response,16
true,12,0,2,1,false,z,false,false,0.0-2.0-0.41-0.375-3.375,0,0,0,81,false,stim,true,0,403.0,3,0,0,22685,WMM1,1482636,false,false,1204,image-keyboard-response,17
true,12,0,2,2,false,d,true,false,0.0-2.0-0.41-0.376-3.376,0,0,0,81,false,stim,false,1,667.0,3,0,1,22685,WMM1,1484812,false,false,1207,image-keyboard-response,18
true,12,1,2,2,false,d,false,false,0.0-2.0-0.41-0.377-3.377,0,0,0,90,false,stim,true,1,587.0,3,0,1,22685,WMM1,1486908,false,false,1210,image-keyboard-response,19
true,12,0,2,0,true,q,false,true,0.0-2.0-0.42-0.378-3.378,0,0,0,81,false,stim,false,2,738.0,3,0,2,22685,WMM1,1489156,false,false,1213,image-keyboard-response,20
true,12,0,2,0,true,q,false,true,0.0-2.0-0.42-0.379-3.379,0,0,0,81,false,stim,false,2,498.0,3,0,2,22685,WMM1,1491164,false,false,1216,image-keyboard-response,21
true,12,2,2,2,true,d,false,true,0.0-2.0-0.42-0.380-3.380,0,0,0,68,false,stim,false,1,1010.0,3,0,1,22685,WMM1,1493684,false,false,1219,image-keyboard-response,22
true,12,2,2,1,false,z,true,false,0.0-2.0-0.42-0.381-3.381,0,0,0,68,false,stim,false,0,1016.0,3,0,0,22685,WMM1,1496211,false,false,1222,image-keyboard-response,23
true,12,2,2,2,true,d,false,true,0.0-2.0-0.42-0.382-3.382,0,0,0,68,false,stim,false,1,1777.0,3,0,1,22685,WMM1,1499500,false,false,1225,image-keyboard-response,24
true,12,0,2,0,true,q,false,true,0.0-2.0-0.42-0.383-3.383,0,0,0,81,false,stim,false,2,489.0,3,0,2,22685,WMM1,1501500,false,false,1228,image-keyboard-response,25
true,12,2,2,2,true,d,false,true,0.0-2.0-0.42-0.384-3.384,0,0,0,68,false,stim,false,1,498.0,3,0,1,22685,WMM1,1503508,false,false,1231,image-keyboard-response,26
true,12,2,2,1,false,z,true,true,0.0-2.0-0.42-0.385-3.385,0,0,0,68,false,stim,false,0,1057.0,3,0,0,22685,WMM1,1506076,false,true,1234,image-keyboard-response,27
true,12,2,2,1,false,z,true,false,0.0-2.0-0.42-0.386-3.386,0,0,0,68,false,stim,false,0,474.0,3,0,0,22685,WMM1,1508059,false,false,1237,image-keyboard-response,28
true,12,2,2,0,false,q,false,false,0.0-2.0-0.43-0.387-3.387,0,0,0,68,false,stim,true,2,785.0,3,0,2,22685,WMM1,1510355,false,false,1240,image-keyboard-response,29
true,12,2,2,1,false,z,true,false,0.0-2.0-0.43-0.388-3.388,0,0,0,68,false,stim,false,0,1136.0,3,0,0,22685,WMM1,1513003,false,false,1243,image-keyboard-response,30
true,12,0,2,0,true,q,false,true,0.0-2.0-0.43-0.389-3.389,0,0,0,81,false,stim,false,2,986.0,3,0,2,22685,WMM1,1515499,false,false,1246,image-keyboard-response,31
true,12,2,2,2,true,d,false,true,0.0-2.0-0.43-0.390-3.390,0,0,0,68,false,stim,false,1,1538.0,3,0,1,22685,WMM1,1518547,false,false,1249,image-keyboard-response,32
true,12,0,2,1,false,z,false,false,0.0-2.0-0.43-0.391-3.391,0,0,0,81,false,stim,true,0,1081.0,3,0,0,22685,WMM1,1521139,false,false,1252,image-keyboard-response,33
true,12,1,2,1,true,z,false,true,0.0-2.0-0.43-0.392-3.392,0,0,0,90,false,stim,false,0,778.0,3,0,0,22685,WMM1,1523427,false,false,1255,image-keyboard-response,34
true,12,0,2,0,true,q,false,true,0.0-2.0-0.43-0.393-3.393,0,0,0,81,false,stim,false,2,904.9999999997672,3,0,2,22685,WMM1,1525843,false,false,1258,image-keyboard-response,35
true,12,2,2,2,true,d,false,false,0.0-2.0-0.43-0.394-3.394,0,0,0,68,false,stim,false,1,602.0,3,0,1,22685,WMM1,1527955,false,true,1261,image-keyboard-response,36
true,12,2,2,2,true,d,false,true,0.0-2.0-0.43-0.395-3.395,0,0,0,68,false,stim,false,1,619.0,3,0,1,22685,WMM1,1530083,false,false,1264,image-keyboard-response,37
true,12,2,2,2,true,d,false,true,0.0-2.0-0.44-0.396-3.396,0,0,0,68,false,stim,false,1,554.0,3,0,1,22685,WMM1,1532146,false,false,1267,image-keyboard-response,38
true,12,0,2,0,true,q,false,true,0.0-2.0-0.44-0.397-3.397,0,0,0,81,false,stim,false,2,602.0,3,0,2,22685,WMM1,1534259,false,false,1270,image-keyboard-response,39
true,12,0,2,0,true,q,false,true,0.0-2.0-0.44-0.398-3.398,0,0,0,81,false,stim,false,2,529.0,3,0,2,22685,WMM1,1536299,false,false,1273,image-keyboard-response,40
true,12,1,2,1,true,z,false,true,0.0-2.0-0.44-0.399-3.399,0,0,0,90,false,stim,false,0,834.0,3,0,0,22685,WMM1,1538642,false,false,1276,image-keyboard-response,41
true,12,2,2,2,true,d,false,true,0.0-2.0-0.44-0.400-3.400,0,0,0,68,false,stim,false,1,1570.0,3,0,1,22685,WMM1,1541722,false,false,1279,image-keyboard-response,42
true,12,2,2,2,true,d,false,true,0.0-2.0-0.44-0.401-3.401,0,0,0,68,false,stim,false,1,609.0,3,0,1,22685,WMM1,1543842,false,false,1282,image-keyboard-response,43
true,12,1,2,1,true,z,false,false,0.0-2.0-0.44-0.402-3.402,0,0,0,90,false,stim,false,0,802.0,3,0,0,22685,WMM1,1546154,false,true,1285,image-keyboard-response,44
true,12,0,2,0,true,q,false,true,0.0-2.0-0.44-0.403-3.403,0,0,0,81,false,stim,false,2,699.0,3,0,2,22685,WMM1,1548362,false,false,1288,image-keyboard-response,45
true,12,1,2,1,true,z,false,true,0.0-2.0-0.44-0.404-3.404,0,0,0,90,false,stim,false,0,986.0,3,0,0,22685,WMM1,1550858,false,false,1291,image-keyboard-response,46
true,12,1,2,1,true,z,false,true,0.0-2.0-0.45-0.405-3.405,0,0,0,90,false,stim,false,0,555.0,3,0,0,22685,WMM1,1552922,false,false,1294,image-keyboard-response,47
true,12,1,2,1,true,z,false,true,0.0-2.0-0.45-0.406-3.406,0,0,0,90,false,stim,false,0,539.0,3,0,0,22685,WMM1,1554970,false,false,1297,image-keyboard-response,48
true,12,0,2,0,true,q,false,true,0.0-2.0-0.45-0.407-3.407,0,0,0,81,false,stim,false,2,1235.0,3,0,2,22685,WMM1,1557714,false,false,1300,image-keyboard-response,49
true,12,2,2,0,false,q,false,false,0.0-2.0-0.45-0.408-3.408,0,0,0,68,false,stim,true,2,764.0,3,0,2,22685,WMM1,1559994,false,false,1303,image-keyboard-response,50
true,12,0,2,0,true,q,false,true,0.0-2.0-0.45-0.409-3.409,0,0,0,81,false,stim,false,2,697.0,3,0,2,22685,WMM1,1562202,false,false,1306,image-keyboard-response,51
true,13,2,1,0,false,q,false,false,0.0-2.0-0.45-0.410-3.410,0,0,0,68,true,stim,true,2,722.0,3,0,1,22685,WMM1,1564433,false,false,1309,image-keyboard-response,1
true,13,2,1,0,false,q,false,true,0.0-2.0-0.45-0.411-3.411,0,0,0,68,false,stim,true,2,426.00000000023283,3,0,1,22685,WMM1,1566370,false,true,1312,image-keyboard-response,2
true,13,2,1,0,false,q,false,false,0.0-2.0-0.45-0.412-3.412,0,0,0,68,false,stim,true,2,411.0,3,0,1,22685,WMM1,1568290,false,false,1315,image-keyboard-response,3
true,13,1,1,2,false,d,false,false,0.0-2.0-0.45-0.413-3.413,0,0,0,90,false,stim,true,1,1347.0,3,0,0,22685,WMM1,1571146,false,false,1318,image-keyboard-response,4
true,13,1,1,2,false,d,false,false,0.0-2.0-0.46-0.414-3.414,0,0,0,90,false,stim,true,1,370.0,3,0,0,22685,WMM1,1573025,false,false,1321,image-keyboard-response,5
true,13,2,1,0,false,q,false,false,0.0-2.0-0.46-0.415-3.415,0,0,0,68,false,stim,true,2,1202.0,3,0,1,22685,WMM1,1575737,false,false,1324,image-keyboard-response,6
true,13,1,1,0,false,q,true,false,0.0-2.0-0.46-0.416-3.416,0,0,0,90,false,stim,false,2,771.0,3,0,1,22685,WMM1,1578017,false,false,1327,image-keyboard-response,7
true,13,0,1,0,true,q,false,true,0.0-2.0-0.46-0.417-3.417,0,0,0,81,false,stim,false,2,547.0,3,0,1,22685,WMM1,1580073,false,false,1330,image-keyboard-response,8
true,13,1,1,2,false,d,false,false,0.0-2.0-0.46-0.418-3.418,0,0,0,90,false,stim,true,1,1185.0,3,0,0,22685,WMM1,1582769,false,false,1333,image-keyboard-response,9
true,13,0,1,2,false,d,false,false,0.0-2.0-0.46-0.419-3.419,0,0,0,81,false,stim,true,0,842.0,3,0,2,22685,WMM1,1585121,false,false,1336,image-keyboard-response,10
true,13,2,1,2,true,d,false,true,0.0-2.0-0.46-0.420-3.420,0,0,0,68,false,stim,false,1,1028.0000000002328,3,0,0,22685,WMM1,1587657,false,false,1339,image-keyboard-response,11
true,13,1,1,2,false,d,true,true,0.0-2.0-0.46-0.421-3.421,0,0,0,90,false,stim,false,0,1523.0,3,0,2,22685,WMM1,1590689,false,true,1342,image-keyboard-response,12
true,13,1,1,2,false,d,true,false,0.0-2.0-0.46-0.422-3.422,0,0,0,90,false,stim,false,0,802.0,3,0,2,22685,WMM1,1593001,false,false,1345,image-keyboard-response,13
true,13,2,1,2,true,d,false,true,0.0-2.0-0.47-0.423-3.423,0,0,0,68,false,stim,false,1,883.0,3,0,0,22685,WMM1,1595393,false,false,1348,image-keyboard-response,14
true,13,0,1,0,true,q,false,true,0.0-2.0-0.47-0.424-3.424,0,0,0,81,false,stim,false,2,475.0,3,0,1,22685,WMM1,1597377,false,false,1351,image-keyboard-response,15
true,13,1,1,2,false,d,true,false,0.0-2.0-0.47-0.425-3.425,0,0,0,90,false,stim,false,0,802.0,3,0,2,22685,WMM1,1599689,false,false,1354,image-keyboard-response,16
true,13,2,1,2,true,d,false,true,0.0-2.0-0.47-0.426-3.426,0,0,0,68,false,stim,false,1,1155.0,3,0,0,22685,WMM1,1602353,false,false,1357,image-keyboard-response,17
true,13,2,1,2,true,d,false,true,0.0-2.0-0.47-0.427-3.427,0,0,0,68,false,stim,false,1,611.0,3,0,0,22685,WMM1,1604473,false,false,1360,image-keyboard-response,18
true,13,0,1,2,false,d,false,false,0.0-2.0-0.47-0.428-3.428,0,0,0,81,false,stim,true,0,1139.0,3,0,2,22685,WMM1,1607121,false,false,1363,image-keyboard-response,19
true,13,2,1,0,false,q,false,false,0.0-2.0-0.47-0.429-3.429,0,0,0,68,false,stim,true,2,1017.0,3,0,1,22685,WMM1,1609648,false,false,1366,image-keyboard-response,20
false,13,-1,1,2,false,d,true,true,0.0-2.0-0.47-0.430-3.430,0,0,0,,false,stim,false,0,,3,0,2,22685,WMM1,1614160,false,true,1369,image-keyboard-response,21
true,13,2,1,0,false,q,false,false,0.0-2.0-0.47-0.431-3.431,0,0,0,68,false,stim,true,2,1032.0,3,0,1,22685,WMM1,1616703,false,false,1372,image-keyboard-response,22
true,13,1,1,2,false,d,false,true,0.0-2.0-0.48-0.432-3.432,0,0,0,90,false,stim,true,1,1666.0,3,0,0,22685,WMM1,1619879,false,true,1375,image-keyboard-response,23
true,13,0,1,0,true,q,false,true,0.0-2.0-0.48-0.433-3.433,0,0,0,81,false,stim,false,2,1057.0,3,0,1,22685,WMM1,1622447,false,false,1378,image-keyboard-response,24
true,13,0,1,0,true,q,false,true,0.0-2.0-0.48-0.434-3.434,0,0,0,81,false,stim,false,2,459.0,3,0,1,22685,WMM1,1624415,false,false,1381,image-keyboard-response,25
true,13,2,1,2,true,d,false,true,0.0-2.0-0.48-0.435-3.435,0,0,0,68,false,stim,false,0,586.0,3,0,2,22685,WMM1,1626511,false,false,1384,image-keyboard-response,26
true,13,0,1,0,true,q,false,true,0.0-2.0-0.48-0.436-3.436,0,0,0,81,false,stim,false,2,584.9999999997672,3,0,1,22685,WMM1,1628607,false,false,1387,image-keyboard-response,27
true,13,1,1,2,false,d,false,false,0.0-2.0-0.48-0.437-3.437,0,0,0,90,false,stim,true,1,722.0000000002328,3,0,0,22685,WMM1,1630839,false,false,1390,image-keyboard-response,28
true,13,2,1,2,true,d,false,true,0.0-2.0-0.48-0.438-3.438,0,0,0,68,false,stim,false,0,1057.0,3,0,2,22685,WMM1,1633406,false,false,1393,image-keyboard-response,29
true,13,1,1,2,false,d,false,false,0.0-2.0-0.48-0.439-3.439,0,0,0,90,false,stim,true,1,1930.0,3,0,0,22685,WMM1,1636846,false,false,1396,image-keyboard-response,30
true,13,2,1,2,true,d,false,false,0.0-2.0-0.48-0.440-3.440,0,0,0,68,false,stim,false,0,930.0,3,0,2,22685,WMM1,1639286,false,true,1399,image-keyboard-response,31
true,13,0,1,2,false,d,false,false,0.0-2.0-0.49-0.441-3.441,0,0,0,81,false,stim,true,0,898.0,3,0,2,22685,WMM1,1641702,false,false,1402,image-keyboard-response,32
true,13,1,1,2,false,d,false,false,0.0-2.0-0.49-0.442-3.442,0,0,0,90,false,stim,true,1,1264.0,3,0,0,22685,WMM1,1644478,false,false,1405,image-keyboard-response,33
true,13,2,1,2,true,d,false,true,0.0-2.0-0.49-0.443-3.443,0,0,0,68,false,stim,false,0,955.0,3,0,2,22685,WMM1,1646942,false,false,1408,image-keyboard-response,34
true,13,0,1,0,true,q,false,true,0.0-2.0-0.49-0.444-3.444,0,0,0,81,false,stim,false,2,736.9999999997672,3,0,1,22685,WMM1,1649190,false,false,1411,image-keyboard-response,35
true,13,2,1,2,true,d,false,true,0.0-2.0-0.49-0.445-3.445,0,0,0,68,false,stim,false,0,730.0,3,0,2,22685,WMM1,1651430,false,false,1414,image-keyboard-response,36
true,13,2,1,0,false,q,false,false,0.0-2.0-0.49-0.446-3.446,0,0,0,68,false,stim,true,2,2257.0,3,0,1,22685,WMM1,1655198,false,false,1417,image-keyboard-response,37
true,13,1,1,2,false,d,false,false,0.0-2.0-0.49-0.447-3.447,0,0,0,90,false,stim,true,1,690.0,3,0,0,22685,WMM1,1657398,false,false,1420,image-keyboard-response,38
true,13,1,1,2,false,d,false,false,0.0-2.0-0.49-0.448-3.448,0,0,0,90,false,stim,true,1,529.0,3,0,0,22685,WMM1,1659438,false,false,1423,image-keyboard-response,39
true,13,0,1,0,true,q,false,true,0.0-2.0-0.49-0.449-3.449,0,0,0,81,false,stim,false,2,1026.0,3,0,1,22685,WMM1,1661974,false,false,1426,image-keyboard-response,40
true,13,0,1,2,false,d,false,true,0.0-2.0-0.50-0.450-3.450,0,0,0,81,false,stim,true,0,567.0,3,0,2,22685,WMM1,1664053,false,true,1429,image-keyboard-response,41
true,13,0,1,2,false,d,false,false,0.0-2.0-0.50-0.451-3.451,0,0,0,81,false,stim,true,0,578.0,3,0,2,22685,WMM1,1666141,false,false,1432,image-keyboard-response,42
true,13,2,1,2,true,d,false,true,0.0-2.0-0.50-0.452-3.452,0,0,0,68,false,stim,false,0,538.0,3,0,2,22685,WMM1,1668189,false,false,1435,image-keyboard-response,43
true,13,0,1,0,true,q,false,false,0.0-2.0-0.50-0.453-3.453,0,0,0,81,false,stim,false,2,712.0,3,0,1,22685,WMM1,1670413,false,true,1438,image-keyboard-response,44
true,13,2,1,2,true,d,false,true,0.0-2.0-0.50-0.454-3.454,0,0,0,68,false,stim,false,1,954.0,3,0,0,22685,WMM1,1672877,false,false,1441,image-keyboard-response,45
true,13,2,1,2,true,d,false,false,0.0-2.0-0.50-0.455-3.455,0,0,0,68,false,stim,false,1,569.0,3,0,0,22685,WMM1,1674957,false,true,1444,image-keyboard-response,46
true,13,2,1,2,true,d,false,true,0.0-2.0-0.50-0.456-3.456,0,0,0,68,false,stim,false,1,490.0,3,0,0,22685,WMM1,1676957,false,false,1447,image-keyboard-response,47
true,13,0,1,0,true,q,false,true,0.0-2.0-0.50-0.457-3.457,0,0,0,81,false,stim,false,2,1177.0000000002328,3,0,1,22685,WMM1,1679645,false,false,1450,image-keyboard-response,48
true,13,0,1,0,true,q,false,true,0.0-2.0-0.50-0.458-3.458,0,0,0,81,false,stim,false,2,538.0000000002328,3,0,1,22685,WMM1,1681693,false,false,1453,image-keyboard-response,49
true,13,0,1,0,true,q,false,true,0.0-2.0-0.51-0.459-3.459,0,0,0,81,false,stim,false,2,641.0,3,0,1,22685,WMM1,1683845,false,false,1456,image-keyboard-response,50
true,13,1,1,2,false,d,false,false,0.0-2.0-0.51-0.460-3.460,0,0,0,90,false,stim,true,1,552.9999999997672,3,1,0,22685,WMM1,1685909,false,false,1459,image-keyboard-response,51
true,13,2,1,2,true,d,false,true,0.0-2.0-0.51-0.461-3.461,0,0,0,68,false,stim,false,1,715.0,3,1,0,22685,WMM1,1688133,false,false,1462,image-keyboard-response,52
true,13,1,1,2,false,d,true,false,0.0-2.0-0.51-0.462-3.462,0,0,0,90,false,stim,false,0,1002.0000000002328,3,1,2,22685,WMM1,1690645,false,false,1465,image-keyboard-response,53
true,13,2,1,2,true,d,false,true,0.0-2.0-0.51-0.463-3.463,0,0,0,68,false,stim,false,0,650.9999999997672,3,1,2,22685,WMM1,1692805,false,false,1468,image-keyboard-response,54
true,13,0,1,0,true,q,false,true,0.0-2.0-0.51-0.464-3.464,0,0,0,81,false,stim,false,2,723.0,3,1,1,22685,WMM1,1695037,false,false,1471,image-keyboard-response,55
true,13,2,1,2,true,d,false,true,0.0-2.0-0.51-0.465-3.465,0,0,0,68,false,stim,false,1,768.9999999997672,3,1,0,22685,WMM1,1697317,false,false,1474,image-keyboard-response,56
true,13,2,1,2,true,d,false,true,0.0-2.0-0.51-0.466-3.466,0,0,0,68,false,stim,false,0,1987.0,3,1,2,22685,WMM1,1700812,false,false,1477,image-keyboard-response,57
true,13,0,1,0,true,q,false,true,0.0-2.0-0.51-0.467-3.467,0,0,0,81,false,stim,false,2,1587.0,3,1,1,22685,WMM1,1703908,false,false,1480,image-keyboard-response,58
true,13,0,1,0,true,q,false,true,0.0-2.0-0.52-0.468-3.468,0,0,0,81,false,stim,false,2,482.0,3,1,1,22685,WMM1,1705900,false,false,1483,image-keyboard-response,59
true,13,0,1,0,true,q,false,true,0.0-2.0-0.52-0.469-3.469,0,0,0,81,false,stim,false,2,475.00000000023283,3,1,1,22685,WMM1,1707884,false,false,1486,image-keyboard-response,60
false,14,-1,0,2,false,d,true,false,0.0-2.0-0.52-0.470-3.470,1,1,1,,true,stim,false,2,,3,1,2,22685,WMM1,1832777,false,false,1609,image-keyboard-response,1
true,14,0,0,0,true,q,false,true,0.0-2.0-0.52-0.471-3.471,1,1,1,81,false,stim,false,0,1126.0,3,1,1,22685,WMM1,1835413,false,false,1612,image-keyboard-response,2
true,14,0,0,2,false,d,true,false,0.0-2.0-0.52-0.472-3.472,1,1,1,81,false,stim,false,2,634.0,3,1,2,22685,WMM1,1837556,false,false,1615,image-keyboard-response,3
true,14,0,0,2,false,d,true,false,0.0-2.0-0.52-0.473-3.473,1,1,1,81,false,stim,false,2,627.0,3,1,0,22685,WMM1,1839692,false,false,1618,image-keyboard-response,4
true,14,1,0,2,false,d,true,false,0.0-2.0-0.52-0.474-3.474,1,1,1,90,false,stim,false,2,724.0,3,1,0,22685,WMM1,1841924,false,false,1621,image-keyboard-response,5
true,14,1,0,2,false,d,true,true,0.0-2.0-0.52-0.475-3.475,1,1,1,90,false,stim,false,2,690.0,3,1,2,22685,WMM1,1844124,false,true,1624,image-keyboard-response,6
true,14,2,0,2,true,d,false,false,0.0-2.0-0.52-0.476-3.476,1,1,1,68,false,stim,false,2,1122.0,3,1,0,22685,WMM1,1846756,false,true,1627,image-keyboard-response,7
true,14,1,0,2,false,d,true,false,0.0-2.0-0.53-0.477-3.477,1,1,1,90,false,stim,false,2,562.0,3,1,2,22685,WMM1,1848828,false,false,1630,image-keyboard-response,8
true,14,0,0,0,true,q,false,true,0.0-2.0-0.53-0.478-3.478,1,1,1,81,false,stim,false,0,515.0,3,1,1,22685,WMM1,1850852,false,false,1633,image-keyboard-response,9
true,14,0,0,0,true,q,false,false,0.0-2.0-0.53-0.479-3.479,1,1,1,81,false,stim,false,0,690.0,3,1,1,22685,WMM1,1853052,false,true,1636,image-keyboard-response,10
true,14,2,0,2,true,d,false,true,0.0-2.0-0.53-0.480-3.480,1,1,1,68,false,stim,false,2,891.0,3,1,0,22685,WMM1,1855452,false,false,1639,image-keyboard-response,11
true,14,2,0,2,true,d,false,true,0.0-2.0-0.53-0.481-3.481,1,1,1,68,false,stim,false,2,435.0,3,1,0,22685,WMM1,1857396,false,false,1642,image-keyboard-response,12
true,14,0,0,0,true,q,false,true,0.0-2.0-0.53-0.482-3.482,1,1,1,81,false,stim,false,0,1393.0,3,1,1,22685,WMM1,1860299,false,false,1645,image-keyboard-response,13
true,14,2,0,2,true,d,false,true,0.0-2.0-0.53-0.483-3.483,1,1,1,68,false,stim,false,2,755.0,3,1,0,22685,WMM1,1862563,false,false,1648,image-keyboard-response,14
true,14,1,0,2,false,d,true,false,0.0-2.0-0.53-0.484-3.484,1,1,1,90,false,stim,false,2,1035.0,3,1,2,22685,WMM1,1865108,false,false,1651,image-keyboard-response,15
true,14,1,0,2,false,d,true,false,0.0-2.0-0.53-0.485-3.485,1,1,1,90,false,stim,false,2,771.0,3,1,2,22685,WMM1,1867387,false,false,1654,image-keyboard-response,16
true,14,1,0,2,false,d,true,false,0.0-2.0-0.54-0.486-3.486,1,1,1,90,false,stim,false,2,616.9999999997672,3,1,2,22685,WMM1,1869515,false,false,1657,image-keyboard-response,17
true,14,0,0,2,false,d,true,false,0.0-2.0-0.54-0.487-3.487,1,1,1,81,false,stim,false,2,937.0,3,1,2,22685,WMM1,1871963,false,false,1660,image-keyboard-response,18
true,14,0,0,0,true,q,false,true,0.0-2.0-0.54-0.488-3.488,1,1,1,81,false,stim,false,0,963.0,3,1,1,22685,WMM1,1874435,false,false,1663,image-keyboard-response,19
true,14,2,0,2,true,d,false,true,0.0-2.0-0.54-0.489-3.489,1,1,1,68,false,stim,false,2,755.0,3,1,0,22685,WMM1,1876699,false,false,1666,image-keyboard-response,20
true,14,0,0,0,true,q,false,true,0.0-2.0-0.54-0.490-3.490,1,1,1,81,false,stim,false,0,840.0,3,1,1,22685,WMM1,1879051,false,false,1669,image-keyboard-response,21
true,14,2,0,2,true,d,false,false,0.0-2.0-0.54-0.491-3.491,1,1,1,68,false,stim,false,2,1032.9999999997672,3,1,0,22685,WMM1,1881595,false,true,1672,image-keyboard-response,22
true,14,2,0,2,true,d,false,true,0.0-2.0-0.54-0.492-3.492,1,1,1,68,false,stim,false,2,544.0,3,1,0,22685,WMM1,1883651,false,false,1675,image-keyboard-response,23
true,14,0,0,0,true,q,false,true,0.0-2.0-0.54-0.493-3.493,1,1,1,81,false,stim,false,0,1353.0,3,1,1,22685,WMM1,1886515,false,false,1678,image-keyboard-response,24
true,14,2,0,2,true,d,false,true,0.0-2.0-0.54-0.494-3.494,1,1,1,68,false,stim,false,2,1177.0,3,1,2,22685,WMM1,1889203,false,false,1681,image-keyboard-response,25
true,14,2,0,2,true,d,false,true,0.0-2.0-0.55-0.495-3.495,1,1,1,68,false,stim,false,2,402.0,3,1,0,22685,WMM1,1891115,false,false,1684,image-keyboard-response,26
true,14,0,0,0,true,q,false,true,0.0-2.0-0.55-0.496-3.496,1,1,1,81,false,stim,false,0,1064.0,3,1,1,22685,WMM1,1893690,false,false,1687,image-keyboard-response,27
true,14,2,0,2,true,d,false,true,0.0-2.0-0.55-0.497-3.497,1,1,1,68,false,stim,false,2,995.0,3,1,0,22685,WMM1,1896194,false,false,1690,image-keyboard-response,28
true,14,2,0,2,true,d,false,true,0.0-2.0-0.55-0.498-3.498,1,1,1,68,false,stim,false,2,978.0,3,1,0,22685,WMM1,1898682,false,false,1693,image-keyboard-response,29
true,14,0,0,0,true,q,false,true,0.0-2.0-0.55-0.499-3.499,1,1,1,81,false,stim,false,0,1889.0,3,1,1,22685,WMM1,1902082,false,false,1696,image-keyboard-response,30
true,14,2,0,2,true,d,false,false,0.0-2.0-0.55-0.500-3.500,1,1,1,68,false,stim,false,2,1744.0,3,1,2,22685,WMM1,1905338,false,true,1699,image-keyboard-response,31
true,14,0,0,0,true,q,false,false,0.0-2.0-0.55-0.501-3.501,1,1,1,81,false,stim,false,0,1123.0,3,0,1,22685,WMM1,1907978,false,true,1702,image-keyboard-response,32
true,14,2,0,2,true,d,false,true,0.0-2.0-0.55-0.502-3.502,1,1,1,68,false,stim,false,2,1331.0,3,0,2,22685,WMM1,1910818,false,false,1705,image-keyboard-response,33
true,14,2,0,2,true,d,false,true,0.0-2.0-0.55-0.503-3.503,1,1,1,68,false,stim,false,2,650.0,3,0,2,22685,WMM1,1912978,false,false,1708,image-keyboard-response,34
true,14,2,0,2,true,d,false,true,0.0-2.0-0.56-0.504-3.504,1,1,1,68,false,stim,false,2,506.0,3,0,2,22685,WMM1,1914994,false,false,1711,image-keyboard-response,35
true,14,0,0,2,false,d,true,false,0.0-2.0-0.56-0.505-3.505,1,1,1,81,false,stim,false,2,738.9999999997672,3,0,0,22685,WMM1,1917242,false,false,1714,image-keyboard-response,36
true,14,2,0,2,true,d,false,true,0.0-2.0-0.56-0.506-3.506,1,1,1,68,false,stim,false,2,379.0,3,0,0,22685,WMM1,1919129,false,false,1717,image-keyboard-response,37
true,14,0,0,0,true,q,false,true,0.0-2.0-0.56-0.507-3.507,1,1,1,81,false,stim,false,0,675.9999999997672,3,0,1,22685,WMM1,1921314,false,false,1720,image-keyboard-response,38
true,14,2,0,2,true,d,false,true,0.0-2.0-0.56-0.508-3.508,1,1,1,68,false,stim,false,2,570.0,3,0,2,22685,WMM1,1923394,false,false,1723,image-keyboard-response,39
true,14,0,0,0,true,q,false,true,0.0-2.0-0.56-0.509-3.509,1,1,1,81,false,stim,false,0,699.0,3,0,1,22685,WMM1,1925602,false,false,1726,image-keyboard-response,40
true,14,2,0,2,true,d,false,true,0.0-2.0-0.56-0.510-3.510,1,1,1,68,false,stim,false,2,635.0,3,0,2,22685,WMM1,1927746,false,false,1729,image-keyboard-response,41
true,15,0,2,2,false,d,false,false,0.0-2.0-0.56-0.511-3.511,0,0,0,81,true,stim,true,0,793.0,3,0,1,22685,WMM1,1930049,false,false,1732,image-keyboard-response,1
true,15,2,2,1,false,z,false,false,0.0-2.0-0.56-0.512-3.512,0,0,0,68,false,stim,true,2,788.0,3,0,0,22685,WMM1,1932345,false,false,1735,image-keyboard-response,2
true,15,2,2,0,false,q,false,false,0.0-2.0-0.57-0.513-3.513,0,0,0,68,false,stim,true,2,515.0,3,0,2,22685,WMM1,1934369,false,false,1738,image-keyboard-response,3
true,15,0,2,1,false,z,true,false,0.0-2.0-0.57-0.514-3.514,0,0,0,81,false,stim,false,2,1497.0000000002328,3,0,0,22685,WMM1,1937377,false,false,1741,image-keyboard-response,4
true,15,0,2,0,true,q,false,true,0.0-2.0-0.57-0.515-3.515,0,0,0,81,false,stim,false,2,1234.9999999997672,3,0,2,22685,WMM1,1940121,false,false,1744,image-keyboard-response,5
true,15,1,2,1,true,z,false,true,0.0-2.0-0.57-0.516-3.516,0,0,0,90,false,stim,false,2,1123.0,3,0,0,22685,WMM1,1942753,false,false,1747,image-keyboard-response,6
true,15,1,2,1,true,z,false,true,0.0-2.0-0.57-0.517-3.517,0,0,0,90,false,stim,false,2,570.0,3,0,0,22685,WMM1,1944833,false,false,1750,image-keyboard-response,7
true,15,0,2,0,true,q,false,true,0.0-2.0-0.57-0.518-3.518,0,0,0,81,false,stim,false,2,611.0,3,0,2,22685,WMM1,1946953,false,false,1753,image-keyboard-response,8
true,15,2,2,2,true,d,false,true,0.0-2.0-0.57-0.519-3.519,0,0,0,68,false,stim,false,0,715.0,3,0,1,22685,WMM1,1949177,false,false,1756,image-keyboard-response,9
true,15,2,2,2,true,d,false,true,0.0-2.0-0.57-0.520-3.520,0,0,0,68,false,stim,false,0,562.0,3,0,1,22685,WMM1,1951249,false,false,1759,image-keyboard-response,10
true,15,2,2,2,true,d,false,true,0.0-2.0-0.57-0.521-3.521,0,0,0,68,false,stim,false,0,588.0,3,0,1,22685,WMM1,1953345,false,false,1762,image-keyboard-response,11
true,15,2,2,2,true,d,false,true,0.0-2.0-0.58-0.522-3.522,0,0,0,68,false,stim,false,0,466.0,3,0,1,22685,WMM1,1955321,false,false,1765,image-keyboard-response,12
true,15,0,2,0,true,q,false,false,0.0-2.0-0.58-0.523-3.523,0,0,0,81,false,stim,false,2,675.0,3,0,2,22685,WMM1,1957505,false,true,1768,image-keyboard-response,13
true,15,1,2,1,true,z,false,true,0.0-2.0-0.58-0.524-3.524,0,0,0,90,false,stim,false,2,627.0,3,0,0,22685,WMM1,1959641,false,false,1771,image-keyboard-response,14
true,15,2,2,2,true,d,false,true,0.0-2.0-0.58-0.525-3.525,0,0,0,68,false,stim,false,0,931.0,3,0,1,22685,WMM1,1962080,false,false,1774,image-keyboard-response,15
true,15,2,2,0,false,q,false,false,0.0-2.0-0.58-0.526-3.526,0,0,0,68,false,stim,true,2,458.0,3,0,2,22685,WMM1,1964048,false,false,1777,image-keyboard-response,16
true,15,1,2,1,true,z,false,true,0.0-2.0-0.58-0.527-3.527,0,0,0,90,false,stim,false,2,747.0,3,0,0,22685,WMM1,1966304,false,false,1780,image-keyboard-response,17
true,15,0,2,0,true,q,false,true,0.0-2.0-0.58-0.528-3.528,0,0,0,81,false,stim,false,2,820.0,3,0,2,22685,WMM1,1968632,false,false,1783,image-keyboard-response,18
true,15,2,2,2,true,d,false,true,0.0-2.0-0.58-0.529-3.529,0,0,0,68,false,stim,false,0,802.0,3,0,1,22685,WMM1,1970944,false,false,1786,image-keyboard-response,19
true,15,1,2,1,true,z,false,true,0.0-2.0-0.58-0.530-3.530,0,0,0,90,false,stim,false,2,820.0,3,0,0,22685,WMM1,1973272,false,false,1789,image-keyboard-response,20
true,15,2,2,2,true,d,false,true,0.0-2.0-0.59-0.531-3.531,0,0,0,68,false,stim,false,0,1633.0,3,0,1,22685,WMM1,1976416,false,false,1792,image-keyboard-response,21
true,15,0,2,0,true,q,false,true,0.0-2.0-0.59-0.532-3.532,0,0,0,81,false,stim,false,2,562.0,3,0,2,22685,WMM1,1978488,false,false,1795,image-keyboard-response,22
true,15,0,2,0,true,q,false,true,0.0-2.0-0.59-0.533-3.533,0,0,0,81,false,stim,false,2,561.0,3,0,2,22685,WMM1,1980560,false,false,1798,image-keyboard-response,23
true,15,2,2,2,true,d,false,true,0.0-2.0-0.59-0.534-3.534,0,0,0,68,false,stim,false,0,988.0,3,0,1,22685,WMM1,1983064,false,false,1801,image-keyboard-response,24
true,15,0,2,0,true,q,false,false,0.0-2.0-0.59-0.535-3.535,0,0,0,81,false,stim,false,2,1450.0,3,0,2,22685,WMM1,1986024,false,true,1804,image-keyboard-response,25
true,15,1,2,1,true,z,false,true,0.0-2.0-0.59-0.536-3.536,0,0,0,90,false,stim,false,2,1011.0,3,1,0,22685,WMM1,1988544,false,false,1807,image-keyboard-response,26
true,15,1,2,1,true,z,false,true,0.0-2.0-0.59-0.537-3.537,0,0,0,90,false,stim,false,2,474.0,3,1,0,22685,WMM1,1990528,false,false,1810,image-keyboard-response,27
true,15,1,2,1,true,z,false,true,0.0-2.0-0.59-0.538-3.538,0,0,0,90,false,stim,false,2,619.0,3,1,0,22685,WMM1,1992656,false,false,1813,image-keyboard-response,28
true,15,2,2,2,true,d,false,true,0.0-2.0-0.59-0.539-3.539,0,0,0,68,false,stim,false,0,1474.9999999997672,3,0,1,22685,WMM1,1995640,false,false,1816,image-keyboard-response,29
true,15,1,2,1,true,z,false,false,0.0-2.0-0.60-0.540-3.540,0,0,0,90,false,stim,false,2,985.0000000002328,3,1,0,22685,WMM1,1998135,false,true,1819,image-keyboard-response,30
true,15,1,2,1,true,z,false,false,0.0-2.0-0.60-0.541-3.541,0,0,0,90,false,stim,false,2,444.00000000023283,3,1,0,22685,WMM1,2000087,false,true,1822,image-keyboard-response,31
true,15,0,2,2,false,d,false,false,0.0-2.0-0.60-0.542-3.542,0,0,0,81,false,stim,true,0,1138.0,3,0,1,22685,WMM1,2002735,false,false,1825,image-keyboard-response,32
true,16,2,3,0,false,q,false,false,0.0-2.0-0.60-0.543-3.543,1,0,0,68,true,stim,true,2,404.0,3,0,1,22685,WMM1,2004647,false,false,1828,image-keyboard-response,1
true,16,0,3,2,false,d,false,false,0.0-2.0-0.60-0.544-3.544,1,0,0,81,false,stim,true,0,802.0,3,0,2,22685,WMM1,2006959,false,false,1831,image-keyboard-response,2
true,16,1,3,2,false,d,true,false,0.0-2.0-0.60-0.545-3.545,1,0,0,90,false,stim,false,0,499.0,3,0,2,22685,WMM1,2008967,false,false,1834,image-keyboard-response,3
true,16,0,3,2,false,d,false,false,0.0-2.0-0.60-0.546-3.546,1,0,0,81,false,stim,true,0,554.0,3,0,2,22685,WMM1,2011031,false,false,1837,image-keyboard-response,4
true,16,1,3,1,true,z,false,true,0.0-2.0-0.60-0.547-3.547,1,0,0,90,false,stim,false,1,899.0,3,1,0,22685,WMM1,2013439,false,false,1840,image-keyboard-response,5
true,16,1,3,0,false,q,true,false,0.0-2.0-0.60-0.548-3.548,1,0,0,90,false,stim,false,2,1156.0,3,0,1,22685,WMM1,2016103,false,false,1843,image-keyboard-response,6
true,16,1,3,1,true,z,false,true,0.0-2.0-0.61-0.549-3.549,1,0,0,90,false,stim,false,1,802.0,3,1,0,22685,WMM1,2018415,false,false,1846,image-keyboard-response,7
true,16,1,3,1,true,z,false,true,0.0-2.0-0.61-0.550-3.550,1,0,0,90,false,stim,false,1,692.0,3,1,0,22685,WMM1,2020615,false,false,1849,image-keyboard-response,8
true,16,1,3,2,false,d,true,false,0.0-2.0-0.61-0.551-3.551,1,0,0,90,false,stim,false,0,1929.0,3,0,2,22685,WMM1,2024055,false,false,1852,image-keyboard-response,9
true,16,2,3,0,false,q,false,false,0.0-2.0-0.61-0.552-3.552,1,0,0,68,false,stim,true,2,652.0,3,0,1,22685,WMM1,2026215,false,false,1855,image-keyboard-response,10
true,16,2,3,2,true,d,false,true,0.0-2.0-0.61-0.553-3.553,1,0,0,68,false,stim,false,0,707.0000000002328,3,0,2,22685,WMM1,2028431,false,false,1858,image-keyboard-response,11
true,16,2,3,2,true,d,false,false,0.0-2.0-0.61-0.554-3.554,1,0,0,68,false,stim,false,0,481.99999999976717,3,0,2,22685,WMM1,2030423,false,true,1861,image-keyboard-response,12
true,16,1,3,1,true,z,false,true,0.0-2.0-0.61-0.555-3.555,1,0,0,90,false,stim,false,1,683.0,3,1,0,22685,WMM1,2032615,false,false,1864,image-keyboard-response,13
true,16,0,3,0,true,q,false,true,0.0-2.0-0.61-0.556-3.556,1,0,0,81,false,stim,false,2,690.9999999997672,3,0,1,22685,WMM1,2034815,false,false,1867,image-keyboard-response,14
true,16,0,3,0,true,q,false,true,0.0-2.0-0.61-0.557-3.557,1,0,0,81,false,stim,false,2,538.0,3,0,1,22685,WMM1,2036863,false,false,1870,image-keyboard-response,15
true,16,0,3,0,true,q,false,true,0.0-2.0-0.62-0.558-3.558,1,0,0,81,false,stim,false,2,463.99999999976717,3,0,1,22685,WMM1,2038839,false,false,1873,image-keyboard-response,16
true,16,1,3,1,true,z,false,true,0.0-2.0-0.62-0.559-3.559,1,0,0,90,false,stim,false,1,1235.0,3,1,0,22685,WMM1,2041583,false,false,1876,image-keyboard-response,17
true,16,0,3,2,false,d,false,false,0.0-2.0-0.62-0.560-3.560,1,0,0,81,false,stim,true,0,1579.0,3,0,2,22685,WMM1,2044671,false,false,1879,image-keyboard-response,18
true,16,0,3,0,true,q,false,true,0.0-2.0-0.62-0.561-3.561,1,0,0,81,false,stim,false,2,828.0,3,0,1,22685,WMM1,2047007,false,false,1882,image-keyboard-response,19
true,16,2,3,2,true,d,false,true,0.0-2.0-0.62-0.562-3.562,1,0,0,68,false,stim,false,0,425.0,3,0,2,22685,WMM1,2048943,false,false,1885,image-keyboard-response,20
true,16,2,3,2,true,d,false,true,0.0-2.0-0.62-0.563-3.563,1,0,0,68,false,stim,false,0,441.0,3,0,2,22685,WMM1,2050895,false,false,1888,image-keyboard-response,21
true,16,1,3,1,true,z,false,true,0.0-2.0-0.62-0.564-3.564,1,0,0,90,false,stim,false,1,858.0,3,0,0,22685,WMM1,2053263,false,false,1891,image-keyboard-response,22
true,16,0,3,0,true,q,false,false,0.0-2.0-0.62-0.565-3.565,1,0,0,81,false,stim,false,2,938.0000000002328,3,0,1,22685,WMM1,2055710,false,true,1894,image-keyboard-response,23
true,16,1,3,1,true,z,false,true,0.0-2.0-0.62-0.566-3.566,1,0,0,90,false,stim,false,1,866.0,3,0,0,22685,WMM1,2058086,false,false,1897,image-keyboard-response,24
true,16,0,3,0,true,q,false,true,0.0-2.0-0.63-0.567-3.567,1,0,0,81,false,stim,false,2,1482.0,3,0,1,22685,WMM1,2061078,false,false,1900,image-keyboard-response,25
true,16,1,3,1,true,z,false,true,0.0-2.0-0.63-0.568-3.568,1,0,0,90,false,stim,false,1,1299.0,3,0,0,22685,WMM1,2063894,false,false,1903,image-keyboard-response,26
true,16,2,3,2,true,d,false,true,0.0-2.0-0.63-0.569-3.569,1,0,0,68,false,stim,false,0,659.0,3,0,2,22685,WMM1,2066062,false,false,1906,image-keyboard-response,27
true,16,1,3,1,true,z,false,true,0.0-2.0-0.63-0.570-3.570,1,0,0,90,false,stim,false,1,651.0,3,0,0,22685,WMM1,2068222,false,false,1909,image-keyboard-response,28
true,16,2,3,2,true,d,false,true,0.0-2.0-0.63-0.571-3.571,1,0,0,68,false,stim,false,0,707.0,3,0,2,22685,WMM1,2070438,false,false,1912,image-keyboard-response,29
true,16,0,3,0,true,q,false,true,0.0-2.0-0.63-0.572-3.572,1,0,0,81,false,stim,false,2,1674.0,3,0,1,22685,WMM1,2073622,false,false,1915,image-keyboard-response,30
true,16,2,3,2,true,d,false,true,0.0-2.0-0.63-0.573-3.573,1,0,0,68,false,stim,false,0,810.0,3,0,2,22685,WMM1,2075942,false,false,1918,image-keyboard-response,31
true,17,1,4,0,false,q,false,false,0.0-2.0-0.63-0.574-3.574,0,0,0,90,true,stim,true,1,1187.0,3,0,0,22685,WMM1,2078638,false,false,1921,image-keyboard-response,1
true,17,0,4,1,false,z,false,false,0.0-2.0-0.63-0.575-3.575,0,0,0,81,false,stim,true,0,1105.0,3,0,1,22685,WMM1,2081254,false,false,1924,image-keyboard-response,2
true,17,1,4,0,false,q,false,false,0.0-2.0-0.64-0.576-3.576,0,0,0,90,false,stim,true,1,1392.0,3,0,0,22685,WMM1,2084157,false,false,1927,image-keyboard-response,3
true,17,2,4,1,false,z,false,false,0.0-2.0-0.64-0.577-3.577,0,0,0,68,false,stim,true,2,930.0,3,0,2,22685,WMM1,2086598,false,false,1930,image-keyboard-response,4
true,17,0,4,1,false,z,true,true,0.0-2.0-0.64-0.578-3.578,0,0,0,81,false,stim,false,2,955.0,3,0,2,22685,WMM1,2089062,false,true,1933,image-keyboard-response,5
true,17,0,4,1,false,z,true,false,0.0-2.0-0.64-0.579-3.579,0,0,0,81,false,stim,false,2,611.0,3,0,2,22685,WMM1,2091181,false,false,1936,image-keyboard-response,6
true,17,0,4,1,false,z,false,true,0.0-2.0-0.64-0.580-3.580,0,0,0,81,false,stim,true,0,698.0,3,0,1,22685,WMM1,2093389,false,true,1939,image-keyboard-response,7
true,17,0,4,1,false,z,false,false,0.0-2.0-0.64-0.581-3.581,0,0,0,81,false,stim,true,0,682.0,3,0,1,22685,WMM1,2095581,false,false,1942,image-keyboard-response,8
true,17,0,4,0,true,q,false,true,0.0-2.0-0.64-0.582-3.582,0,0,0,81,false,stim,false,1,1346.0,3,0,0,22685,WMM1,2098437,false,false,1945,image-keyboard-response,9
true,17,0,4,0,true,q,false,true,0.0-2.0-0.64-0.583-3.583,0,0,0,81,false,stim,false,1,498.0,3,0,0,22685,WMM1,2100445,false,false,1948,image-keyboard-response,10
true,17,0,4,1,false,z,false,false,0.0-2.0-0.64-0.584-3.584,0,0,0,81,false,stim,true,0,779.0,3,0,1,22685,WMM1,2102733,false,false,1951,image-keyboard-response,11
true,17,0,4,1,false,z,false,false,0.0-2.0-0.65-0.585-3.585,0,0,0,81,false,stim,true,0,480.0,3,0,1,22685,WMM1,2104725,false,false,1954,image-keyboard-response,12
true,17,1,4,1,true,z,false,true,0.0-2.0-0.65-0.586-3.586,0,0,0,90,false,stim,false,0,789.0,3,0,1,22685,WMM1,2107021,false,false,1957,image-keyboard-response,13
true,17,1,4,1,true,z,false,true,0.0-2.0-0.65-0.587-3.587,0,0,0,90,false,stim,false,0,844.0,3,0,1,22685,WMM1,2109373,false,false,1960,image-keyboard-response,14
true,17,0,4,0,true,q,false,true,0.0-2.0-0.65-0.588-3.588,0,0,0,81,false,stim,false,1,1610.0,3,0,0,22685,WMM1,2112493,false,false,1963,image-keyboard-response,15
true,17,0,4,1,false,z,true,false,0.0-2.0-0.65-0.589-3.589,0,0,0,81,false,stim,false,2,643.0,3,0,2,22685,WMM1,2114645,false,false,1966,image-keyboard-response,16
true,17,0,4,1,false,z,true,false,0.0-2.0-0.65-0.590-3.590,0,0,0,81,false,stim,false,2,450.0,3,0,2,22685,WMM1,2116605,false,false,1969,image-keyboard-response,17
true,17,2,4,1,false,z,false,false,0.0-2.0-0.65-0.591-3.591,0,0,0,68,false,stim,true,2,480.0,3,0,2,22685,WMM1,2118597,false,false,1972,image-keyboard-response,18
true,17,0,4,0,true,q,false,true,0.0-2.0-0.65-0.592-3.592,0,0,0,81,false,stim,false,1,1018.0,3,0,0,22685,WMM1,2121125,false,false,1975,image-keyboard-response,19
true,17,0,4,0,true,q,false,false,0.0-2.0-0.65-0.593-3.593,0,0,0,81,false,stim,false,1,425.0,3,0,0,22685,WMM1,2123060,false,true,1978,image-keyboard-response,20
true,17,1,4,1,true,z,false,true,0.0-2.0-0.66-0.594-3.594,0,0,0,90,false,stim,false,0,585.0,3,0,1,22685,WMM1,2125157,false,false,1981,image-keyboard-response,21
true,17,1,4,1,true,z,false,true,0.0-2.0-0.66-0.595-3.595,0,0,0,90,false,stim,false,2,504.0,3,0,2,22685,WMM1,2127172,false,false,1984,image-keyboard-response,22
true,17,1,4,1,true,z,false,true,0.0-2.0-0.66-0.596-3.596,0,0,0,90,false,stim,false,0,488.0,3,0,1,22685,WMM1,2129172,false,false,1987,image-keyboard-response,23
true,17,0,4,0,true,q,false,true,0.0-2.0-0.66-0.597-3.597,0,0,0,81,false,stim,false,1,705.0,3,0,0,22685,WMM1,2131388,false,false,1990,image-keyboard-response,24
true,17,1,4,1,true,z,false,true,0.0-2.0-0.66-0.598-3.598,0,0,0,90,false,stim,false,2,503.99999999976717,3,0,2,22685,WMM1,2133404,false,false,1993,image-keyboard-response,25
true,17,0,4,0,true,q,false,true,0.0-2.0-0.66-0.599-3.599,0,0,0,81,false,stim,false,1,664.0,3,0,0,22685,WMM1,2135580,false,false,1996,image-keyboard-response,26
true,17,1,4,1,true,z,false,true,0.0-2.0-0.66-0.600-3.600,0,0,0,90,false,stim,false,0,706.0,3,0,1,22685,WMM1,2137796,false,false,1999,image-keyboard-response,27
true,17,1,4,1,true,z,false,true,0.0-2.0-0.66-0.601-3.601,0,0,0,90,false,stim,false,2,497.99999999976717,3,0,2,22685,WMM1,2139812,false,false,2002,image-keyboard-response,28
true,17,0,4,0,true,q,false,true,0.0-2.0-0.66-0.602-3.602,0,0,0,81,false,stim,false,1,650.0,3,0,0,22685,WMM1,2141972,false,false,2005,image-keyboard-response,29
true,17,1,4,1,true,z,false,false,0.0-2.0-0.67-0.603-3.603,0,0,0,90,false,stim,false,2,937.0000000002328,3,0,2,22685,WMM1,2144420,false,true,2008,image-keyboard-response,30
true,17,1,4,1,true,z,false,true,0.0-2.0-0.67-0.604-3.604,0,0,0,90,false,stim,false,0,473.99999999976717,3,0,1,22685,WMM1,2146404,false,false,2011,image-keyboard-response,31
true,17,1,4,1,true,z,false,true,0.0-2.0-0.67-0.605-3.605,0,0,0,90,false,stim,false,2,531.0,3,0,2,22685,WMM1,2148444,false,false,2014,image-keyboard-response,32
true,17,1,4,1,true,z,false,true,0.0-2.0-0.67-0.606-3.606,0,0,0,90,false,stim,false,0,545.0,3,0,1,22685,WMM1,2150500,false,false,2017,image-keyboard-response,33
true,17,1,4,1,true,z,false,true,0.0-2.0-0.67-0.607-3.607,0,0,0,90,false,stim,false,0,539.0,3,0,1,22685,WMM1,2152548,false,false,2020,image-keyboard-response,34
true,17,0,4,0,true,q,false,true,0.0-2.0-0.67-0.608-3.608,0,0,0,81,false,stim,false,1,650.0000000002328,3,0,0,22685,WMM1,2154707,false,false,2023,image-keyboard-response,35
true,18,0,2,1,false,z,false,false,0.0-2.0-0.67-0.609-3.609,0,0,0,81,true,stim,true,0,428.0,3,0,0,22685,WMM1,2156644,false,false,2026,image-keyboard-response,1
true,18,0,2,1,false,z,false,false,0.0-2.0-0.67-0.610-3.610,0,0,0,81,false,stim,true,0,443.0,3,0,0,22685,WMM1,2158595,false,false,2029,image-keyboard-response,2
true,18,1,2,0,false,q,false,false,0.0-2.0-0.67-0.611-3.611,0,0,0,90,false,stim,true,1,1337.0,3,0,2,22685,WMM1,2161443,false,false,2032,image-keyboard-response,3
true,18,1,2,0,false,q,false,false,0.0-2.0-0.68-0.612-3.612,0,0,0,90,false,stim,true,1,673.0,3,0,2,22685,WMM1,2163627,false,false,2035,image-keyboard-response,4
true,18,2,2,0,false,q,true,false,0.0-2.0-0.68-0.613-3.613,0,0,0,68,false,stim,false,1,850.0,3,0,2,22685,WMM1,2165987,false,false,2038,image-keyboard-response,5
true,18,2,2,0,false,q,true,false,0.0-2.0-0.68-0.614-3.614,0,0,0,68,false,stim,false,1,698.0,3,0,2,22685,WMM1,2168195,false,false,2041,image-keyboard-response,6
true,18,1,2,2,false,d,false,false,0.0-2.0-0.68-0.615-3.615,0,0,0,90,false,stim,true,1,1186.0,3,0,1,22685,WMM1,2170891,false,false,2044,image-keyboard-response,7
true,18,0,2,1,false,z,false,false,0.0-2.0-0.68-0.616-3.616,0,0,0,81,false,stim,true,0,731.0,3,0,0,22685,WMM1,2173131,false,false,2047,image-keyboard-response,8
true,18,1,2,1,true,z,false,true,0.0-2.0-0.68-0.617-3.617,0,0,0,90,false,stim,false,0,586.0000000002328,3,0,0,22685,WMM1,2175227,false,false,2050,image-keyboard-response,9
true,18,1,2,1,true,z,false,true,0.0-2.0-0.68-0.618-3.618,0,0,0,90,false,stim,false,0,570.0,3,0,0,22685,WMM1,2177307,false,false,2053,image-keyboard-response,10
true,18,0,2,2,false,d,true,false,0.0-2.0-0.68-0.619-3.619,0,0,0,81,false,stim,false,1,1706.0,3,0,1,22685,WMM1,2180522,false,false,2056,image-keyboard-response,11
