answered,blockNum,choice,condition,corResp,correct,correct_response,explo,fb,internal_node_id,isStable_1,isStable_2,isStable_3,key_press,newBlock,part,persev,persevResp,rt,sessNum,stableAS,stimulus,subject,task,time_elapsed,training,trap,trial_index,trial_type,trialsInBlock
true,1,1,0,1,true,z,false,true,0.0-2.0-0.0-0.0-3.0,0,0,0,90,true,stim,false,-1,1492.300000011921,1,0,1,27109,WMM2,194115,false,false,112,image-keyboard-response,1
true,1,1,0,1,true,z,false,true,0.0-2.0-0.0-0.1-3.1,0,0,0,90,false,stim,false,-1,1093.199999988079,1,0,0,27109,WMM2,196730,false,false,115,image-keyboard-response,2
true,1,1,0,2,false,d,true,true,0.0-2.0-0.0-0.2-3.2,0,0,0,90,false,stim,false,-1,447.19999998807907,1,0,2,27109,WMM2,198690,false,true,118,image-keyboard-response,3
true,1,1,0,1,true,z,false,true,0.0-2.0-0.0-0.3-3.3,0,0,0,90,false,stim,false,-1,327.9000000357628,1,0,1,27109,WMM2,200549,false,false,121,image-keyboard-response,4
true,1,1,0,2,false,d,true,false,0.0-2.0-0.0-0.4-3.4,0,0,0,90,false,stim,false,-1,309.9000000357628,1,0,2,27109,WMM2,202386,false,false,124,image-keyboard-response,5
true,1,0,0,1,false,z,true,false,0.0-2.0-0.0-0.5-3.5,0,0,0,81,false,stim,false,-1,846.6000000238419,1,0,0,27109,WMM2,204759,false,false,127,image-keyboard-response,6
true,1,1,0,1,true,z,false,true,0.0-2.0-0.0-0.6-3.6,0,0,0,90,false,stim,false,-1,498.19999998807907,1,0,1,27109,WMM2,206777,false,false,130,image-keyboard-response,7
true,1,2,0,2,true,d,false,true,0.0-2.0-0.0-0.7-3.7,0,0,0,68,false,stim,false,-1,933.3000000119209,1,0,2,27109,WMM2,209232,false,false,133,image-keyboard-response,8
true,1,1,0,1,true,z,false,false,0.0-2.0-0.0-0.8-3.8,0,0,0,90,false,stim,false,-1,416.69999998807907,1,0,0,27109,WMM2,211168,false,true,136,image-keyboard-response,9
true,1,2,0,2,true,d,false,true,0.0-2.0-0.1-0.9-3.9,0,0,0,68,false,stim,false,-1,873.9000000357628,1,0,2,27109,WMM2,213558,false,false,139,image-keyboard-response,10
true,1,0,0,1,false,z,true,false,0.0-2.0-0.1-0.10-3.10,0,0,0,81,false,stim,false,-1,682.6999999880791,1,0,1,27109,WMM2,215768,false,false,142,image-keyboard-response,11
true,1,2,0,1,false,z,true,false,0.0-2.0-0.1-0.11-3.11,0,0,0,68,false,stim,false,-1,697.3999999761581,1,0,1,27109,WMM2,217983,false,false,145,image-keyboard-response,12
true,1,1,0,1,true,z,false,true,0.0-2.0-0.1-0.12-3.12,0,0,0,90,false,stim,false,-1,351.89999997615814,1,0,0,27109,WMM2,219854,false,false,148,image-keyboard-response,13
true,1,1,0,1,true,z,false,true,0.0-2.0-0.1-0.13-3.13,0,0,0,90,false,stim,false,-1,458.30000001192093,1,0,0,27109,WMM2,221846,false,false,151,image-keyboard-response,14
true,1,2,0,2,true,d,false,true,0.0-2.0-0.1-0.14-3.14,0,0,0,68,false,stim,false,-1,1400.0,1,0,2,27109,WMM2,224775,false,false,154,image-keyboard-response,15
true,1,1,0,1,true,z,false,true,0.0-2.0-0.1-0.15-3.15,0,0,0,90,false,stim,false,-1,605.6000000238419,1,0,1,27109,WMM2,226911,false,false,157,image-keyboard-response,16
true,1,2,0,2,true,d,false,true,0.0-2.0-0.1-0.16-3.16,0,0,0,68,false,stim,false,-1,475.39999997615814,1,0,2,27109,WMM2,228916,false,false,160,image-keyboard-response,17
true,1,1,0,1,true,z,false,true,0.0-2.0-0.1-0.17-3.17,0,0,0,90,false,stim,false,-1,412.30000001192093,1,0,0,27109,WMM2,230840,false,false,163,image-keyboard-response,18
true,1,2,0,2,true,d,false,true,0.0-2.0-0.2-0.18-3.18,0,0,0,68,false,stim,false,-1,464.69999998807907,1,0,2,27109,WMM2,232828,false,false,166,image-keyboard-response,19
true,1,1,0,1,true,z,false,true,0.0-2.0-0.2-0.19-3.19,0,0,0,90,false,stim,false,-1,398.10000002384186,1,0,0,27109,WMM2,234739,false,false,169,image-keyboard-response,20
true,1,2,0,2,true,d,false,false,0.0-2.0-0.2-0.20-3.20,0,0,0,68,false,stim,false,-1,437.60000002384186,1,0,2,27109,WMM2,236706,false,true,172,image-keyboard-response,21
true,1,1,0,1,true,z,false,true,0.0-2.0-0.2-0.21-3.21,0,0,0,90,false,stim,false,-1,564.5,1,0,1,27109,WMM2,238786,false,false,175,image-keyboard-response,22
true,1,1,0,1,true,z,false,false,0.0-2.0-0.2-0.22-3.22,0,0,0,90,false,stim,false,-1,498.5,1,1,0,27109,WMM2,240806,false,true,178,image-keyboard-response,23
true,1,1,0,1,true,z,false,true,0.0-2.0-0.2-0.23-3.23,0,0,0,90,false,stim,false,-1,449.10000002384186,1,0,1,27109,WMM2,242790,false,false,181,image-keyboard-response,24
true,1,1,0,1,true,z,false,true,0.0-2.0-0.2-0.24-3.24,0,0,0,90,false,stim,false,-1,860.3000000119209,1,0,1,27109,WMM2,245171,false,false,184,image-keyboard-response,25
true,1,1,0,1,true,z,false,true,0.0-2.0-0.2-0.25-3.25,0,0,0,90,false,stim,false,-1,1394.8999999761581,1,1,0,27109,WMM2,248095,false,false,187,image-keyboard-response,26
true,1,1,0,2,false,d,true,false,0.0-2.0-0.2-0.26-3.26,0,0,0,90,false,stim,false,-1,1713.8999999761581,1,0,2,27109,WMM2,251327,false,false,190,image-keyboard-response,27
true,1,1,0,2,false,d,true,false,0.0-2.0-0.3-0.27-3.27,0,0,0,90,false,stim,false,-1,1090.199999988079,1,0,2,27109,WMM2,253942,false,false,193,image-keyboard-response,28
true,1,1,0,1,true,z,false,true,0.0-2.0-0.3-0.28-3.28,0,0,0,90,false,stim,false,-1,648.0,1,1,0,27109,WMM2,256106,false,false,196,image-keyboard-response,29
true,1,1,0,1,true,z,false,true,0.0-2.0-0.3-0.29-3.29,0,0,0,90,false,stim,false,-1,981.8000000119209,1,0,1,27109,WMM2,258617,false,false,199,image-keyboard-response,30
true,1,1,0,1,true,z,false,true,0.0-2.0-0.3-0.30-3.30,0,0,0,90,false,stim,false,-1,854.7000000476837,1,1,0,27109,WMM2,261004,false,false,202,image-keyboard-response,31
true,1,1,0,1,true,z,false,true,0.0-2.0-0.3-0.31-3.31,0,0,0,90,false,stim,false,-1,1313.199999988079,1,0,1,27109,WMM2,263836,false,false,205,image-keyboard-response,32
true,2,1,1,1,true,z,false,true,0.0-2.0-0.3-0.32-3.32,1,0,0,90,true,stim,false,1,566.1999999880791,1,1,0,27109,WMM2,265921,false,false,208,image-keyboard-response,1
true,2,1,1,2,false,d,false,true,0.0-2.0-0.3-0.33-3.33,1,0,0,90,false,stim,true,1,450.4000000357628,1,0,1,27109,WMM2,267900,false,true,211,image-keyboard-response,2
true,2,1,1,0,false,q,true,false,0.0-2.0-0.3-0.34-3.34,1,0,0,90,false,stim,false,2,669.5999999642372,1,0,2,27109,WMM2,270094,false,false,214,image-keyboard-response,3
true,2,1,1,0,false,q,true,false,0.0-2.0-0.3-0.35-3.35,1,0,0,90,false,stim,false,2,579.4000000357628,1,0,2,27109,WMM2,272212,false,false,217,image-keyboard-response,4
true,2,1,1,0,false,q,true,false,0.0-2.0-0.4-0.36-3.36,1,0,0,90,false,stim,false,2,901.8000000119209,1,0,2,27109,WMM2,274635,false,false,220,image-keyboard-response,5
true,2,1,1,1,true,z,false,true,0.0-2.0-0.4-0.37-3.37,1,0,0,90,false,stim,false,1,827.3999999761581,1,1,0,27109,WMM2,276980,false,false,223,image-keyboard-response,6
true,2,1,1,2,false,d,false,false,0.0-2.0-0.4-0.38-3.38,1,0,0,90,false,stim,true,1,907.8999999761581,1,0,1,27109,WMM2,279411,false,false,226,image-keyboard-response,7
true,2,1,1,2,false,d,false,false,0.0-2.0-0.4-0.39-3.39,1,0,0,90,false,stim,true,1,675.1000000238419,1,0,1,27109,WMM2,281621,false,false,229,image-keyboard-response,8
true,2,1,1,0,false,q,true,false,0.0-2.0-0.4-0.40-3.40,1,0,0,90,false,stim,false,2,1321.8999999761581,1,0,2,27109,WMM2,284464,false,false,232,image-keyboard-response,9
true,2,1,1,1,true,z,false,true,0.0-2.0-0.4-0.41-3.41,1,0,0,90,false,stim,false,1,569.6999999880791,1,1,0,27109,WMM2,286556,false,false,235,image-keyboard-response,10
true,2,0,1,2,false,d,true,false,0.0-2.0-0.4-0.42-3.42,1,0,0,81,false,stim,false,1,995.5,1,0,1,27109,WMM2,289067,false,false,238,image-keyboard-response,11
true,2,1,1,0,false,q,true,false,0.0-2.0-0.4-0.43-3.43,1,0,0,90,false,stim,false,2,1572.300000011921,1,0,2,27109,WMM2,292158,false,false,241,image-keyboard-response,12
true,2,2,1,1,false,z,true,false,0.0-2.0-0.4-0.44-3.44,1,0,0,68,false,stim,false,1,806.6000000238419,1,1,0,27109,WMM2,294485,false,false,244,image-keyboard-response,13
true,2,1,1,2,false,d,false,false,0.0-2.0-0.5-0.45-3.45,1,0,0,90,false,stim,true,1,479.80000001192093,1,0,1,27109,WMM2,296484,false,false,247,image-keyboard-response,14
false,2,-1,1,2,false,d,true,false,0.0-2.0-0.5-0.46-3.46,1,0,0,,false,stim,false,1,,1,0,1,27109,WMM2,301014,false,false,250,image-keyboard-response,15
true,2,2,1,0,false,q,false,false,0.0-2.0-0.5-0.47-3.47,1,0,0,68,false,stim,true,2,1544.1000000238419,1,0,2,27109,WMM2,304098,false,false,253,image-keyboard-response,16
true,2,1,1,1,true,z,false,true,0.0-2.0-0.5-0.48-3.48,1,0,0,90,false,stim,false,1,1348.1000000238419,1,1,0,27109,WMM2,306965,false,false,256,image-keyboard-response,17
true,2,1,1,2,false,d,false,true,0.0-2.0-0.5-0.49-3.49,1,0,0,90,false,stim,true,1,490.39999997615814,1,0,1,27109,WMM2,308966,false,true,259,image-keyboard-response,18
true,2,1,1,0,false,q,true,false,0.0-2.0-0.5-0.50-3.50,1,0,0,90,false,stim,false,2,552.8999999761581,1,0,2,27109,WMM2,311035,false,false,262,image-keyboard-response,19
true,2,0,1,1,false,z,true,false,0.0-2.0-0.5-0.51-3.51,1,0,0,81,false,stim,false,1,902.3000000119209,1,1,0,27109,WMM2,313452,false,false,265,image-keyboard-response,20
true,2,0,1,1,false,z,true,false,0.0-2.0-0.5-0.52-3.52,1,0,0,81,false,stim,false,1,380.10000002384186,1,1,0,27109,WMM2,315346,false,false,268,image-keyboard-response,21
true,2,0,1,0,true,q,false,true,0.0-2.0-0.5-0.53-3.53,1,0,0,81,false,stim,false,2,419.80000001192093,1,0,2,27109,WMM2,317290,false,false,271,image-keyboard-response,22
true,2,1,1,2,false,d,false,false,0.0-2.0-0.6-0.54-3.54,1,0,0,90,false,stim,true,1,894.5,1,0,1,27109,WMM2,319700,false,false,274,image-keyboard-response,23
true,2,0,1,0,true,q,false,true,0.0-2.0-0.6-0.55-3.55,1,0,0,81,false,stim,false,2,360.0,1,0,2,27109,WMM2,321582,false,false,277,image-keyboard-response,24
true,2,2,1,1,false,z,true,false,0.0-2.0-0.6-0.56-3.56,1,0,0,68,false,stim,false,1,399.60000002384186,1,1,0,27109,WMM2,323496,false,false,280,image-keyboard-response,25
true,2,2,1,2,true,d,false,true,0.0-2.0-0.6-0.57-3.57,1,0,0,68,false,stim,false,1,292.19999998807907,1,0,1,27109,WMM2,325304,false,false,283,image-keyboard-response,26
true,2,2,1,0,false,q,false,false,0.0-2.0-0.6-0.58-3.58,1,0,0,68,false,stim,true,2,300.69999998807907,1,0,2,27109,WMM2,327134,false,false,286,image-keyboard-response,27
true,2,1,1,2,false,d,false,false,0.0-2.0-0.6-0.59-3.59,1,0,0,90,false,stim,true,1,410.5,1,0,1,27109,WMM2,329063,false,false,289,image-keyboard-response,28
true,2,1,1,1,true,z,false,true,0.0-2.0-0.6-0.60-3.60,1,0,0,90,false,stim,false,1,466.0,1,1,0,27109,WMM2,331056,false,false,292,image-keyboard-response,29
true,2,2,1,0,false,q,false,false,0.0-2.0-0.6-0.61-3.61,1,0,0,68,false,stim,true,2,653.1999999880791,1,0,2,27109,WMM2,333229,false,false,295,image-keyboard-response,30
true,2,1,1,1,true,z,false,true,0.0-2.0-0.6-0.62-3.62,1,0,0,90,false,stim,false,1,406.9000000357628,1,1,0,27109,WMM2,335152,false,false,298,image-keyboard-response,31
true,2,1,1,0,false,q,true,false,0.0-2.0-0.7-0.63-3.63,1,0,0,90,false,stim,false,2,1184.4000000357628,1,0,2,27109,WMM2,337857,false,false,301,image-keyboard-response,32
true,2,0,1,1,false,z,true,false,0.0-2.0-0.7-0.64-3.64,1,0,0,81,false,stim,false,1,629.8000000119209,1,1,0,27109,WMM2,340009,false,false,304,image-keyboard-response,33
true,2,0,1,1,false,z,true,false,0.0-2.0-0.7-0.65-3.65,1,0,0,81,false,stim,false,1,289.39999997615814,1,1,0,27109,WMM2,341819,false,false,307,image-keyboard-response,34
true,2,2,1,1,false,z,true,false,0.0-2.0-0.7-0.66-3.66,1,0,0,68,false,stim,false,1,407.19999998807907,1,1,0,27109,WMM2,343749,false,false,310,image-keyboard-response,35
true,2,1,1,2,false,d,false,false,0.0-2.0-0.7-0.67-3.67,1,0,0,90,false,stim,true,1,491.10000002384186,1,0,1,27109,WMM2,345762,false,false,313,image-keyboard-response,36
true,2,1,1,0,false,q,true,true,0.0-2.0-0.7-0.68-3.68,1,0,0,90,false,stim,false,2,758.0,1,0,2,27109,WMM2,348033,false,true,316,image-keyboard-response,37
true,2,1,1,2,false,d,false,false,0.0-2.0-0.7-0.69-3.69,1,0,0,90,false,stim,true,1,344.89999997615814,1,0,1,27109,WMM2,349902,false,false,319,image-keyboard-response,38
true,2,1,1,0,false,q,true,false,0.0-2.0-0.7-0.70-3.70,1,0,0,90,false,stim,false,2,824.8000000119209,1,0,2,27109,WMM2,352237,false,false,322,image-keyboard-response,39
true,2,2,1,2,true,d,false,true,0.0-2.0-0.7-0.71-3.71,1,0,0,68,false,stim,false,1,316.60000002384186,1,0,1,27109,WMM2,354078,false,false,325,image-keyboard-response,40
true,2,2,1,1,false,z,true,false,0.0-2.0-0.8-0.72-3.72,1,0,0,68,false,stim,false,1,822.5,1,1,0,27109,WMM2,356428,false,false,328,image-keyboard-response,41
true,2,0,1,2,false,d,true,false,0.0-2.0-0.8-0.73-3.73,1,0,0,81,false,stim,false,1,335.69999998807907,1,0,1,27109,WMM2,358291,false,false,331,image-keyboard-response,42
true,2,1,1,0,false,q,true,false,0.0-2.0-0.8-0.74-3.74,1,0,0,90,false,stim,false,2,685.6999999880791,1,0,2,27109,WMM2,360504,false,false,334,image-keyboard-response,43
true,2,0,1,2,false,d,true,false,0.0-2.0-0.8-0.75-3.75,1,0,0,81,false,stim,false,1,346.19999998807907,1,0,1,27109,WMM2,362361,false,false,337,image-keyboard-response,44
true,2,1,1,0,false,q,true,false,0.0-2.0-0.8-0.76-3.76,1,0,0,90,false,stim,false,2,324.30000001192093,1,0,2,27109,WMM2,364208,false,false,340,image-keyboard-response,45
true,2,2,1,0,false,q,false,false,0.0-2.0-0.8-0.77-3.77,1,0,0,68,false,stim,true,2,246.89999997615814,1,0,2,27109,WMM2,365968,false,false,343,image-keyboard-response,46
true,2,2,1,1,false,z,true,false,0.0-2.0-0.8-0.78-3.78,1,0,0,68,false,stim,false,1,319.10000002384186,1,1,0,27109,WMM2,367812,false,false,346,image-keyboard-response,47
true,2,1,1,2,false,d,false,false,0.0-2.0-0.8-0.79-3.79,1,0,0,90,false,stim,true,1,409.9000000357628,1,0,1,27109,WMM2,369738,false,false,349,image-keyboard-response,48
true,2,1,1,1,true,z,false,true,0.0-2.0-0.8-0.80-3.80,1,0,0,90,false,stim,false,1,346.60000002384186,1,1,0,27109,WMM2,371603,false,false,352,image-keyboard-response,49
true,2,1,1,2,false,d,false,false,0.0-2.0-0.9-0.81-3.81,1,0,0,90,false,stim,true,1,436.9000000357628,1,0,1,27109,WMM2,373555,false,false,355,image-keyboard-response,50
true,2,0,1,1,false,z,true,false,0.0-2.0-0.9-0.82-3.82,1,0,0,81,false,stim,false,1,255.79999995231628,1,1,0,27109,WMM2,375329,false,false,358,image-keyboard-response,51
true,2,2,1,2,true,d,false,false,0.0-2.0-0.9-0.83-3.83,1,0,0,68,false,stim,false,1,315.39999997615814,1,1,1,27109,WMM2,377165,false,true,361,image-keyboard-response,52
true,2,1,1,1,true,z,false,true,0.0-2.0-0.9-0.84-3.84,1,0,0,90,false,stim,false,1,283.0,1,1,0,27109,WMM2,378964,false,false,364,image-keyboard-response,53
true,2,1,1,1,true,z,false,false,0.0-2.0-0.9-0.85-3.85,1,0,0,90,false,stim,false,1,340.5,1,1,0,27109,WMM2,380825,false,true,367,image-keyboard-response,54
true,2,2,1,2,true,d,false,false,0.0-2.0-0.9-0.86-3.86,1,0,0,68,false,stim,false,1,266.30000001192093,1,1,1,27109,WMM2,382611,false,true,370,image-keyboard-response,55
true,2,2,1,0,false,q,false,false,0.0-2.0-0.9-0.87-3.87,1,0,0,68,false,stim,true,2,456.80000001192093,1,0,2,27109,WMM2,384596,false,false,373,image-keyboard-response,56
true,2,0,1,0,true,q,false,true,0.0-2.0-0.9-0.88-3.88,1,0,0,81,false,stim,false,2,463.69999998807907,1,0,2,27109,WMM2,386576,false,false,376,image-keyboard-response,57
true,2,1,1,0,false,q,true,false,0.0-2.0-0.9-0.89-3.89,1,0,0,90,false,stim,false,2,2252.699999988079,1,0,2,27109,WMM2,390350,false,false,379,image-keyboard-response,58
true,2,0,1,2,false,d,true,true,0.0-2.0-0.10-0.90-3.90,1,0,0,81,false,stim,false,1,1220.699999988079,1,1,1,27109,WMM2,393100,false,true,382,image-keyboard-response,59
true,2,2,1,1,false,z,true,true,0.0-2.0-0.10-0.91-3.91,1,0,0,68,false,stim,false,1,318.19999998807907,1,1,0,27109,WMM2,394953,false,true,385,image-keyboard-response,60
true,3,1,4,1,true,z,false,true,0.0-2.0-0.10-0.92-3.92,1,1,0,90,true,stim,false,1,262.89999997615814,1,1,0,27109,WMM2,396742,false,false,388,image-keyboard-response,1
true,3,2,4,1,false,z,true,true,0.0-2.0-0.10-0.93-3.93,1,1,0,68,false,stim,false,1,358.69999998807907,1,1,0,27109,WMM2,398618,false,true,391,image-keyboard-response,2
true,3,0,4,0,true,q,false,true,0.0-2.0-0.10-0.94-3.94,1,1,0,81,false,stim,false,0,282.69999998807907,1,0,2,27109,WMM2,400419,false,false,394,image-keyboard-response,3
true,3,1,4,0,false,q,true,false,0.0-2.0-0.10-0.95-3.95,1,1,0,90,false,stim,false,0,422.80000001192093,1,0,2,27109,WMM2,402358,false,false,397,image-keyboard-response,4
true,3,2,4,0,false,q,true,true,0.0-2.0-0.10-0.96-3.96,1,1,0,68,false,stim,false,0,606.1000000238419,1,0,2,27109,WMM2,404483,false,true,400,image-keyboard-response,5
true,3,1,4,2,false,d,true,false,0.0-2.0-0.10-0.97-3.97,1,1,0,90,false,stim,false,2,361.30000001192093,1,1,1,27109,WMM2,406372,false,false,403,image-keyboard-response,6
true,3,1,4,2,false,d,true,true,0.0-2.0-0.10-0.98-3.98,1,1,0,90,false,stim,false,2,630.2000000476837,1,1,1,27109,WMM2,408523,false,true,406,image-keyboard-response,7
true,3,2,4,2,true,d,false,true,0.0-2.0-0.11-0.99-3.99,1,1,0,68,false,stim,false,2,514.2999999523163,1,1,1,27109,WMM2,410558,false,false,409,image-keyboard-response,8
true,3,2,4,2,true,d,false,true,0.0-2.0-0.11-0.100-3.100,1,1,0,68,false,stim,false,2,433.30000001192093,1,1,1,27109,WMM2,412525,false,false,412,image-keyboard-response,9
true,3,2,4,2,true,d,false,true,0.0-2.0-0.11-0.101-3.101,1,1,0,68,false,stim,false,2,280.19999998807907,1,1,1,27109,WMM2,414329,false,false,415,image-keyboard-response,10
true,3,1,4,1,true,z,false,true,0.0-2.0-0.11-0.102-3.102,1,1,0,90,false,stim,false,1,548.0,1,1,0,27109,WMM2,416401,false,false,418,image-keyboard-response,11
true,3,2,4,0,false,q,true,false,0.0-2.0-0.11-0.103-3.103,1,1,0,68,false,stim,false,0,346.19999998807907,1,0,2,27109,WMM2,418268,false,false,421,image-keyboard-response,12
true,3,0,4,0,true,q,false,false,0.0-2.0-0.11-0.104-3.104,1,1,0,81,false,stim,false,0,220.60000002384186,1,0,2,27109,WMM2,420020,false,true,424,image-keyboard-response,13
true,3,0,4,1,false,z,true,false,0.0-2.0-0.11-0.105-3.105,1,1,0,81,false,stim,false,1,348.4000000357628,1,1,0,27109,WMM2,421880,false,false,427,image-keyboard-response,14
true,3,1,4,1,true,z,false,true,0.0-2.0-0.11-0.106-3.106,1,1,0,90,false,stim,false,1,540.6999999880791,1,1,0,27109,WMM2,423948,false,false,430,image-keyboard-response,15
true,3,1,4,0,false,q,true,true,0.0-2.0-0.11-0.107-3.107,1,1,0,90,false,stim,false,0,472.10000002384186,1,0,2,27109,WMM2,425931,false,true,433,image-keyboard-response,16
true,3,2,4,1,false,z,true,true,0.0-2.0-0.12-0.108-3.108,1,1,0,68,false,stim,false,1,431.0,1,1,0,27109,WMM2,427884,false,true,436,image-keyboard-response,17
true,3,0,4,2,false,d,true,false,0.0-2.0-0.12-0.109-3.109,1,1,0,81,false,stim,false,2,322.5,1,1,1,27109,WMM2,429737,false,false,439,image-keyboard-response,18
true,3,0,4,0,true,q,false,true,0.0-2.0-0.12-0.110-3.110,1,1,0,81,false,stim,false,0,343.0999999642372,1,0,2,27109,WMM2,431595,false,false,442,image-keyboard-response,19
true,3,2,4,1,false,z,true,false,0.0-2.0-0.12-0.111-3.111,1,1,0,68,false,stim,false,1,452.10000002384186,1,1,0,27109,WMM2,433559,false,false,445,image-keyboard-response,20
true,3,1,4,2,false,d,true,false,0.0-2.0-0.12-0.112-3.112,1,1,0,90,false,stim,false,2,89.89999997615814,1,1,1,27109,WMM2,435182,false,false,448,image-keyboard-response,21
true,3,0,4,0,true,q,false,true,0.0-2.0-0.12-0.113-3.113,1,1,0,81,false,stim,false,0,144.39999997615814,1,0,2,27109,WMM2,436848,false,false,451,image-keyboard-response,22
true,3,2,4,1,false,z,true,false,0.0-2.0-0.12-0.114-3.114,1,1,0,68,false,stim,false,1,130.10000002384186,1,1,0,27109,WMM2,438516,false,false,454,image-keyboard-response,23
true,3,2,4,2,true,d,false,true,0.0-2.0-0.12-0.115-3.115,1,1,0,68,false,stim,false,2,300.19999998807907,1,1,1,27109,WMM2,440342,false,false,457,image-keyboard-response,24
true,3,0,4,0,true,q,false,false,0.0-2.0-0.12-0.116-3.116,1,1,0,81,false,stim,false,0,111.80000001192093,1,0,2,27109,WMM2,441974,false,true,460,image-keyboard-response,25
true,3,2,4,2,true,d,false,true,0.0-2.0-0.13-0.117-3.117,1,1,0,68,false,stim,false,2,194.89999997615814,1,1,1,27109,WMM2,443702,false,false,463,image-keyboard-response,26
true,3,1,4,0,false,q,true,false,0.0-2.0-0.13-0.118-3.118,1,1,0,90,false,stim,false,0,229.30000001192093,1,0,2,27109,WMM2,445449,false,false,466,image-keyboard-response,27
true,3,2,4,0,false,q,true,false,0.0-2.0-0.13-0.119-3.119,1,1,0,68,false,stim,false,0,127.10000002384186,1,0,2,27109,WMM2,447103,false,false,469,image-keyboard-response,28
true,3,1,4,1,true,z,false,true,0.0-2.0-0.13-0.120-3.120,1,1,0,90,false,stim,false,1,595.1000000238419,1,1,0,27109,WMM2,449225,false,false,472,image-keyboard-response,29
true,3,1,4,1,true,z,false,true,0.0-2.0-0.13-0.121-3.121,1,1,0,90,false,stim,false,1,1029.3999999761581,1,1,0,27109,WMM2,451787,false,false,475,image-keyboard-response,30
true,3,1,4,1,true,z,false,false,0.0-2.0-0.13-0.122-3.122,1,1,0,90,false,stim,false,1,404.5999999642372,1,1,0,27109,WMM2,453719,false,true,478,image-keyboard-response,31
true,3,2,4,2,true,d,false,true,0.0-2.0-0.13-0.123-3.123,1,1,0,68,false,stim,false,2,304.30000001192093,1,1,1,27109,WMM2,455546,false,false,481,image-keyboard-response,32
true,3,0,4,2,false,d,true,false,0.0-2.0-0.13-0.124-3.124,1,1,0,81,false,stim,false,2,124.20000004768372,1,1,1,27109,WMM2,457180,false,false,484,image-keyboard-response,33
true,3,1,4,0,false,q,true,false,0.0-2.0-0.13-0.125-3.125,1,1,0,90,false,stim,false,0,551.4000000357628,1,0,2,27109,WMM2,459252,false,false,487,image-keyboard-response,34
true,3,2,4,2,true,d,false,true,0.0-2.0-0.14-0.126-3.126,1,1,0,68,false,stim,false,2,669.1000000238419,1,1,1,27109,WMM2,461438,false,false,490,image-keyboard-response,35
true,3,2,4,2,true,d,false,true,0.0-2.0-0.14-0.127-3.127,1,1,0,68,false,stim,false,2,112.5,1,1,1,27109,WMM2,463075,false,false,493,image-keyboard-response,36
true,3,2,4,2,true,d,false,true,0.0-2.0-0.14-0.128-3.128,1,1,0,68,false,stim,false,2,181.20000004768372,1,1,1,27109,WMM2,464777,false,false,496,image-keyboard-response,37
true,3,2,4,0,false,q,true,false,0.0-2.0-0.14-0.129-3.129,1,1,0,68,false,stim,false,0,148.19999998807907,1,0,2,27109,WMM2,466440,false,false,499,image-keyboard-response,38
true,3,1,4,1,true,z,false,true,0.0-2.0-0.14-0.130-3.130,1,1,0,90,false,stim,false,1,231.5,1,1,0,27109,WMM2,468193,false,false,502,image-keyboard-response,39
true,3,1,4,0,false,q,true,false,0.0-2.0-0.14-0.131-3.131,1,1,0,90,false,stim,false,0,238.80000001192093,1,0,2,27109,WMM2,469955,false,false,505,image-keyboard-response,40
true,3,1,4,1,true,z,false,true,0.0-2.0-0.14-0.132-3.132,1,1,0,90,false,stim,false,1,660.5,1,1,0,27109,WMM2,472132,false,false,508,image-keyboard-response,41
true,3,0,4,1,false,z,true,false,0.0-2.0-0.14-0.133-3.133,1,1,0,81,false,stim,false,1,210.9000000357628,1,1,0,27109,WMM2,473866,false,false,511,image-keyboard-response,42
true,3,2,4,0,false,q,true,false,0.0-2.0-0.14-0.134-3.134,1,1,0,68,false,stim,false,0,141.19999998807907,1,0,2,27109,WMM2,475534,false,false,514,image-keyboard-response,43
true,3,1,4,2,false,d,true,false,0.0-2.0-0.15-0.135-3.135,1,1,0,90,false,stim,false,2,565.5,1,1,1,27109,WMM2,477630,false,false,517,image-keyboard-response,44
true,3,1,4,2,false,d,true,false,0.0-2.0-0.15-0.136-3.136,1,1,0,90,false,stim,false,2,339.69999998807907,1,1,1,27109,WMM2,479489,false,false,520,image-keyboard-response,45
true,3,2,4,2,true,d,false,true,0.0-2.0-0.15-0.137-3.137,1,1,0,68,false,stim,false,2,378.4000000357628,1,1,1,27109,WMM2,481398,false,false,523,image-keyboard-response,46
true,3,1,4,0,false,q,true,false,0.0-2.0-0.15-0.138-3.138,1,1,0,90,false,stim,false,0,591.1000000238419,1,0,2,27109,WMM2,483514,false,false,526,image-keyboard-response,47
true,3,0,4,0,true,q,false,true,0.0-2.0-0.15-0.139-3.139,1,1,0,81,false,stim,false,0,868.8000000119209,1,0,2,27109,WMM2,485894,false,false,529,image-keyboard-response,48
true,3,1,4,1,true,z,false,true,0.0-2.0-0.15-0.140-3.140,1,1,0,90,false,stim,false,1,633.6999999880791,1,1,0,27109,WMM2,488042,false,false,532,image-keyboard-response,49
true,3,1,4,1,true,z,false,true,0.0-2.0-0.15-0.141-3.141,1,1,0,90,false,stim,false,1,540.5,1,1,0,27109,WMM2,490107,false,false,535,image-keyboard-response,50
true,3,2,4,0,false,q,true,false,0.0-2.0-0.15-0.142-3.142,1,1,0,68,false,stim,false,0,885.8000000119209,1,0,2,27109,WMM2,492530,false,false,538,image-keyboard-response,51
true,3,0,4,1,false,z,true,false,0.0-2.0-0.15-0.143-3.143,1,1,0,81,false,stim,false,1,386.0,1,1,0,27109,WMM2,494449,false,false,541,image-keyboard-response,52
true,3,1,4,1,true,z,false,true,0.0-2.0-0.16-0.144-3.144,1,1,0,90,false,stim,false,1,426.0,1,1,0,27109,WMM2,496393,false,false,544,image-keyboard-response,53
true,3,1,4,0,false,q,true,false,0.0-2.0-0.16-0.145-3.145,1,1,0,90,false,stim,false,0,638.8000000119209,1,0,2,27109,WMM2,498542,false,false,547,image-keyboard-response,54
true,3,1,4,1,true,z,false,false,0.0-2.0-0.16-0.146-3.146,1,1,0,90,false,stim,false,1,1287.800000011921,1,1,0,27109,WMM2,501347,false,true,550,image-keyboard-response,55
true,3,1,4,2,false,d,true,false,0.0-2.0-0.16-0.147-3.147,1,1,0,90,false,stim,false,2,963.5,1,1,1,27109,WMM2,503832,false,false,553,image-keyboard-response,56
true,3,2,4,1,false,z,true,true,0.0-2.0-0.16-0.148-3.148,1,1,0,68,false,stim,false,1,2143.699999988079,1,1,0,27109,WMM2,507495,false,true,556,image-keyboard-response,57
true,3,0,4,0,true,q,false,false,0.0-2.0-0.16-0.149-3.149,1,1,0,81,false,stim,false,0,1309.0999999642372,1,0,2,27109,WMM2,510333,false,true,559,image-keyboard-response,58
true,3,2,4,0,false,q,true,false,0.0-2.0-0.16-0.150-3.150,1,1,0,68,false,stim,false,0,146.0,1,0,2,27109,WMM2,512006,false,false,562,image-keyboard-response,59
true,3,1,4,2,false,d,true,false,0.0-2.0-0.16-0.151-3.151,1,1,0,90,false,stim,false,2,1451.2000000476837,1,1,1,27109,WMM2,514984,false,false,565,image-keyboard-response,60
true,4,1,3,2,false,d,true,false,0.0-2.0-0.16-0.152-3.152,1,1,0,90,true,stim,false,2,493.30000001192093,1,1,1,27109,WMM2,517000,false,false,568,image-keyboard-response,1
true,4,1,3,1,true,z,false,false,0.0-2.0-0.17-0.153-3.153,1,1,0,90,false,stim,false,1,654.5,1,1,0,27109,WMM2,519178,false,true,571,image-keyboard-response,2
true,4,0,3,2,false,d,true,false,0.0-2.0-0.17-0.154-3.154,1,1,0,81,false,stim,false,2,363.30000001192093,1,1,1,27109,WMM2,521072,false,false,574,image-keyboard-response,3
true,4,1,3,1,true,z,false,true,0.0-2.0-0.17-0.155-3.155,1,1,0,90,false,stim,false,1,256.0,1,1,0,27109,WMM2,522851,false,false,577,image-keyboard-response,4
true,4,2,3,1,false,z,true,false,0.0-2.0-0.17-0.156-3.156,1,1,0,68,false,stim,false,1,321.69999998807907,1,1,0,27109,WMM2,524695,false,false,580,image-keyboard-response,5
true,4,1,3,2,false,d,true,true,0.0-2.0-0.17-0.157-3.157,1,1,0,90,false,stim,false,2,633.5,1,1,1,27109,WMM2,526853,false,true,583,image-keyboard-response,6
true,4,1,3,2,false,d,true,false,0.0-2.0-0.17-0.158-3.158,1,1,0,90,false,stim,false,2,543.3999999761581,1,1,1,27109,WMM2,528916,false,false,586,image-keyboard-response,7
true,4,0,3,1,false,z,false,false,0.0-2.0-0.17-0.159-3.159,1,1,0,81,false,stim,true,0,605.3000000119209,1,0,2,27109,WMM2,531031,false,false,589,image-keyboard-response,8
true,4,2,3,1,false,z,true,false,0.0-2.0-0.17-0.160-3.160,1,1,0,68,false,stim,false,0,816.5,1,0,2,27109,WMM2,533375,false,false,592,image-keyboard-response,9
true,4,1,3,1,true,z,false,true,0.0-2.0-0.17-0.161-3.161,1,1,0,90,false,stim,false,0,319.0999999642372,1,0,2,27109,WMM2,535212,false,false,595,image-keyboard-response,10
true,4,1,3,1,true,z,false,true,0.0-2.0-0.18-0.162-3.162,1,1,0,90,false,stim,false,0,1166.3999999761581,1,0,2,27109,WMM2,537898,false,false,598,image-keyboard-response,11
true,4,0,3,1,false,z,false,false,0.0-2.0-0.18-0.163-3.163,1,1,0,81,false,stim,true,0,1146.0,1,0,2,27109,WMM2,540566,false,false,601,image-keyboard-response,12
true,4,2,3,1,false,z,true,false,0.0-2.0-0.18-0.164-3.164,1,1,0,68,false,stim,false,0,607.1999999880791,1,0,2,27109,WMM2,542701,false,false,604,image-keyboard-response,13
true,4,1,3,1,true,z,false,false,0.0-2.0-0.18-0.165-3.165,1,1,0,90,false,stim,false,1,206.0999999642372,1,1,0,27109,WMM2,544419,false,true,607,image-keyboard-response,14
true,4,2,3,2,true,d,false,false,0.0-2.0-0.18-0.166-3.166,1,1,0,68,false,stim,false,2,842.5,1,1,1,27109,WMM2,546774,false,true,610,image-keyboard-response,15
false,4,-1,3,1,false,z,true,true,0.0-2.0-0.18-0.167-3.167,1,1,0,,false,stim,false,1,,1,1,0,27109,WMM2,551311,false,true,613,image-keyboard-response,16
true,4,1,3,2,false,d,true,false,0.0-2.0-0.18-0.168-3.168,1,1,0,90,false,stim,false,2,1121.0,1,1,1,27109,WMM2,553963,false,false,616,image-keyboard-response,17
true,4,2,3,2,true,d,false,true,0.0-2.0-0.18-0.169-3.169,1,1,0,68,false,stim,false,2,1471.300000011921,1,1,1,27109,WMM2,556954,false,false,619,image-keyboard-response,18
true,4,0,3,1,false,z,true,false,0.0-2.0-0.18-0.170-3.170,1,1,0,81,false,stim,false,1,327.80000001192093,1,1,0,27109,WMM2,558807,false,false,622,image-keyboard-response,19
true,4,0,3,1,false,z,true,false,0.0-2.0-0.19-0.171-3.171,1,1,0,81,false,stim,false,1,506.30000001192093,1,1,0,27109,WMM2,560845,false,false,625,image-keyboard-response,20
true,4,1,3,2,false,d,true,false,0.0-2.0-0.19-0.172-3.172,1,1,0,90,false,stim,false,2,309.80000001192093,1,1,1,27109,WMM2,562682,false,false,628,image-keyboard-response,21
true,4,2,3,1,false,z,true,false,0.0-2.0-0.19-0.173-3.173,1,1,0,68,false,stim,false,1,1321.3999999761581,1,1,0,27109,WMM2,565526,false,false,631,image-keyboard-response,22
true,4,1,3,1,true,z,false,true,0.0-2.0-0.19-0.174-3.174,1,1,0,90,false,stim,false,1,1248.2999999523163,1,1,0,27109,WMM2,568306,false,false,634,image-keyboard-response,23
true,4,1,3,2,false,d,true,false,0.0-2.0-0.19-0.175-3.175,1,1,0,90,false,stim,false,2,812.8999999761581,1,1,1,27109,WMM2,570644,false,false,637,image-keyboard-response,24
true,4,1,3,2,false,d,true,false,0.0-2.0-0.19-0.176-3.176,1,1,0,90,false,stim,false,2,1092.0,1,1,1,27109,WMM2,573266,false,false,640,image-keyboard-response,25
true,4,0,3,1,false,z,false,false,0.0-2.0-0.19-0.177-3.177,1,1,0,81,false,stim,true,0,798.3999999761581,1,0,2,27109,WMM2,575597,false,false,643,image-keyboard-response,26
true,4,2,3,1,false,z,true,false,0.0-2.0-0.19-0.178-3.178,1,1,0,68,false,stim,false,0,307.39999997615814,1,0,2,27109,WMM2,577422,false,false,646,image-keyboard-response,27
true,4,1,3,1,true,z,false,true,0.0-2.0-0.19-0.179-3.179,1,1,0,90,false,stim,false,0,579.4000000357628,1,0,2,27109,WMM2,579518,false,false,649,image-keyboard-response,28
true,4,1,3,2,false,d,true,false,0.0-2.0-0.20-0.180-3.180,1,1,0,90,false,stim,false,2,563.6000000238419,1,1,1,27109,WMM2,581606,false,false,652,image-keyboard-response,29
true,4,2,3,2,true,d,false,true,0.0-2.0-0.20-0.181-3.181,1,1,0,68,false,stim,false,2,337.69999998807907,1,1,1,27109,WMM2,583460,false,false,655,image-keyboard-response,30
true,4,0,3,1,false,z,true,false,0.0-2.0-0.20-0.182-3.182,1,1,0,81,false,stim,false,1,325.5999999642372,1,1,0,27109,WMM2,585302,false,false,658,image-keyboard-response,31
true,4,2,3,1,false,z,true,false,0.0-2.0-0.20-0.183-3.183,1,1,0,68,false,stim,false,0,360.5999999642372,1,0,2,27109,WMM2,587175,false,false,661,image-keyboard-response,32
true,4,1,3,2,false,d,true,false,0.0-2.0-0.20-0.184-3.184,1,1,0,90,false,stim,false,2,674.4000000357628,1,1,1,27109,WMM2,589374,false,false,664,image-keyboard-response,33
true,4,1,3,1,true,z,false,true,0.0-2.0-0.20-0.185-3.185,1,1,0,90,false,stim,false,1,532.9000000357628,1,1,0,27109,WMM2,591440,false,false,667,image-keyboard-response,34
true,4,2,3,1,false,z,true,false,0.0-2.0-0.20-0.186-3.186,1,1,0,68,false,stim,false,0,944.4000000357628,1,0,2,27109,WMM2,593921,false,false,670,image-keyboard-response,35
true,4,1,3,1,true,z,false,true,0.0-2.0-0.20-0.187-3.187,1,1,0,90,false,stim,false,1,1035.699999988079,1,1,0,27109,WMM2,596487,false,false,673,image-keyboard-response,36
true,4,1,3,1,true,z,false,true,0.0-2.0-0.20-0.188-3.188,1,1,0,90,false,stim,false,0,1958.3999999761581,1,0,2,27109,WMM2,599981,false,false,676,image-keyboard-response,37
true,4,1,3,2,false,d,true,false,0.0-2.0-0.21-0.189-3.189,1,1,0,90,false,stim,false,2,1791.800000011921,1,1,1,27109,WMM2,603293,false,false,679,image-keyboard-response,38
true,4,1,3,1,true,z,false,true,0.0-2.0-0.21-0.190-3.190,1,1,0,90,false,stim,false,1,462.9000000357628,1,1,0,27109,WMM2,605276,false,false,682,image-keyboard-response,39
true,4,0,3,1,false,z,false,false,0.0-2.0-0.21-0.191-3.191,1,1,0,81,false,stim,true,0,260.10000002384186,1,0,2,27109,WMM2,607073,false,false,685,image-keyboard-response,40
true,4,0,3,1,false,z,false,false,0.0-2.0-0.21-0.192-3.192,1,1,0,81,false,stim,true,0,307.69999998807907,1,0,2,27109,WMM2,608902,false,false,688,image-keyboard-response,41
true,4,2,3,1,false,z,true,true,0.0-2.0-0.21-0.193-3.193,1,1,0,68,false,stim,false,1,556.9000000357628,1,1,0,27109,WMM2,610995,false,true,691,image-keyboard-response,42
true,4,2,3,2,true,d,false,true,0.0-2.0-0.21-0.194-3.194,1,1,0,68,false,stim,false,2,1802.5999999642372,1,1,1,27109,WMM2,614318,false,false,694,image-keyboard-response,43
true,4,1,3,1,true,z,false,true,0.0-2.0-0.21-0.195-3.195,1,1,0,90,false,stim,false,0,2221.399999976158,1,0,2,27109,WMM2,618071,false,false,697,image-keyboard-response,44
true,4,1,3,2,false,d,true,false,0.0-2.0-0.21-0.196-3.196,1,1,0,90,false,stim,false,2,824.1999999880791,1,1,1,27109,WMM2,620415,false,false,700,image-keyboard-response,45
true,4,1,3,1,true,z,false,true,0.0-2.0-0.21-0.197-3.197,1,1,0,90,false,stim,false,1,778.8000000119209,1,1,0,27109,WMM2,622712,false,false,703,image-keyboard-response,46
true,4,2,3,1,false,z,true,false,0.0-2.0-0.22-0.198-3.198,1,1,0,68,false,stim,false,0,641.6999999880791,1,0,2,27109,WMM2,624880,false,false,706,image-keyboard-response,47
true,4,2,3,1,false,z,true,false,0.0-2.0-0.22-0.199-3.199,1,1,0,68,false,stim,false,1,726.1999999880791,1,1,0,27109,WMM2,627128,false,false,709,image-keyboard-response,48
true,4,2,3,1,false,z,true,false,0.0-2.0-0.22-0.200-3.200,1,1,0,68,false,stim,false,1,231.19999998807907,1,1,0,27109,WMM2,628884,false,false,712,image-keyboard-response,49
true,4,0,3,1,false,z,false,false,0.0-2.0-0.22-0.201-3.201,1,1,0,81,false,stim,true,0,409.4000000357628,1,0,2,27109,WMM2,630816,false,false,715,image-keyboard-response,50
true,4,1,3,1,true,z,false,true,0.0-2.0-0.22-0.202-3.202,1,1,0,90,false,stim,false,1,520.8999999761581,1,0,0,27109,WMM2,632870,false,false,718,image-keyboard-response,51
true,4,1,3,2,false,d,true,true,0.0-2.0-0.22-0.203-3.203,1,1,0,90,false,stim,false,2,847.6000000238419,1,1,1,27109,WMM2,635244,false,true,721,image-keyboard-response,52
true,4,1,3,1,true,z,false,true,0.0-2.0-0.22-0.204-3.204,1,1,0,90,false,stim,false,0,1123.5,1,1,2,27109,WMM2,637886,false,false,724,image-keyboard-response,53
true,4,1,3,2,false,d,true,false,0.0-2.0-0.22-0.205-3.205,1,1,0,90,false,stim,false,2,446.5999999642372,1,1,1,27109,WMM2,639857,false,false,727,image-keyboard-response,54
true,4,1,3,2,false,d,true,false,0.0-2.0-0.22-0.206-3.206,1,1,0,90,false,stim,false,2,476.9000000357628,1,1,1,27109,WMM2,641858,false,false,730,image-keyboard-response,55
true,4,0,3,1,false,z,false,false,0.0-2.0-0.23-0.207-3.207,1,1,0,81,false,stim,true,0,476.80000001192093,1,1,2,27109,WMM2,643844,false,false,733,image-keyboard-response,56
true,4,2,3,1,false,z,true,false,0.0-2.0-0.23-0.208-3.208,1,1,0,68,false,stim,false,1,1119.5999999642372,1,0,0,27109,WMM2,646495,false,false,736,image-keyboard-response,57
true,4,1,3,2,false,d,true,false,0.0-2.0-0.23-0.209-3.209,1,1,0,90,false,stim,false,2,842.2999999523163,1,1,1,27109,WMM2,648859,false,false,739,image-keyboard-response,58
true,4,1,3,2,false,d,true,false,0.0-2.0-0.23-0.210-3.210,1,1,0,90,false,stim,false,2,1827.199999988079,1,1,1,27109,WMM2,652194,false,false,742,image-keyboard-response,59
true,4,0,3,1,false,z,true,false,0.0-2.0-0.23-0.211-3.211,1,1,0,81,false,stim,false,1,1891.1000000238419,1,0,0,27109,WMM2,655601,false,false,745,image-keyboard-response,60
true,5,2,3,1,false,z,true,true,0.0-2.0-0.23-0.212-3.212,0,1,1,68,true,stim,false,1,1842.5,1,1,2,27109,WMM2,658970,false,true,748,image-keyboard-response,1
true,5,2,3,1,false,z,true,false,0.0-2.0-0.23-0.213-3.213,0,1,1,68,false,stim,false,1,651.1000000238419,1,1,2,27109,WMM2,661154,false,false,751,image-keyboard-response,2
true,5,1,3,2,false,d,false,false,0.0-2.0-0.23-0.214-3.214,0,1,1,90,false,stim,true,1,455.39999997615814,1,0,0,27109,WMM2,663138,false,false,754,image-keyboard-response,3
true,5,0,3,2,false,d,true,false,0.0-2.0-0.23-0.215-3.215,0,1,1,81,false,stim,false,2,651.3000000119209,1,1,1,27109,WMM2,665318,false,false,757,image-keyboard-response,4
true,5,1,3,2,false,d,false,false,0.0-2.0-0.24-0.216-3.216,0,1,1,90,false,stim,true,1,678.3999999761581,1,0,0,27109,WMM2,667529,false,false,760,image-keyboard-response,5
true,5,2,3,2,true,d,false,true,0.0-2.0-0.24-0.217-3.217,0,1,1,68,false,stim,false,1,459.10000002384186,1,0,0,27109,WMM2,669511,false,false,763,image-keyboard-response,6
true,5,1,3,2,false,d,true,true,0.0-2.0-0.24-0.218-3.218,0,1,1,90,false,stim,false,2,299.5999999642372,1,1,1,27109,WMM2,671324,false,true,766,image-keyboard-response,7
true,5,1,3,2,false,d,true,true,0.0-2.0-0.24-0.219-3.219,0,1,1,90,false,stim,false,2,1371.8999999761581,1,1,1,27109,WMM2,674215,false,true,769,image-keyboard-response,8
true,5,1,3,2,false,d,false,false,0.0-2.0-0.24-0.220-3.220,0,1,1,90,false,stim,true,1,1380.699999988079,1,0,0,27109,WMM2,677121,false,false,772,image-keyboard-response,9
true,5,2,3,1,false,z,true,false,0.0-2.0-0.24-0.221-3.221,0,1,1,68,false,stim,false,1,1390.0999999642372,1,1,2,27109,WMM2,680026,false,false,775,image-keyboard-response,10
false,5,-1,3,1,false,z,true,false,0.0-2.0-0.24-0.222-3.222,0,1,1,,false,stim,false,1,,1,1,2,27109,WMM2,684578,false,false,778,image-keyboard-response,11
false,5,-1,3,2,false,d,true,false,0.0-2.0-0.24-0.223-3.223,0,1,1,,false,stim,false,2,,1,1,1,27109,WMM2,689108,false,false,781,image-keyboard-response,12
true,5,2,3,1,false,z,true,false,0.0-2.0-0.24-0.224-3.224,0,1,1,68,false,stim,false,1,604.9000000357628,1,1,2,27109,WMM2,691233,false,false,784,image-keyboard-response,13
true,5,0,3,2,false,d,true,false,0.0-2.0-0.25-0.225-3.225,0,1,1,81,false,stim,false,1,2986.2000000476837,1,0,0,27109,WMM2,695739,false,false,787,image-keyboard-response,14
true,5,1,3,2,false,d,false,false,0.0-2.0-0.25-0.226-3.226,0,1,1,90,false,stim,true,1,1019.3000000119209,1,0,0,27109,WMM2,698283,false,false,790,image-keyboard-response,15
true,5,2,3,2,true,d,false,true,0.0-2.0-0.25-0.227-3.227,0,1,1,68,false,stim,false,2,1304.0,1,1,1,27109,WMM2,701115,false,false,793,image-keyboard-response,16
true,5,1,3,1,true,z,false,true,0.0-2.0-0.25-0.228-3.228,0,1,1,90,false,stim,false,1,1707.9000000357628,1,1,2,27109,WMM2,704346,false,false,796,image-keyboard-response,17
true,5,1,3,2,false,d,true,true,0.0-2.0-0.25-0.229-3.229,0,1,1,90,false,stim,false,2,2359.0,1,1,1,27109,WMM2,708221,false,true,799,image-keyboard-response,18
true,5,1,3,1,true,z,false,true,0.0-2.0-0.25-0.230-3.230,0,1,1,90,false,stim,false,1,939.4000000357628,1,1,2,27109,WMM2,710692,false,false,802,image-keyboard-response,19
true,5,0,3,2,false,d,true,false,0.0-2.0-0.25-0.231-3.231,0,1,1,81,false,stim,false,2,2851.300000011921,1,1,1,27109,WMM2,715075,false,false,805,image-keyboard-response,20
true,5,2,3,1,false,z,true,false,0.0-2.0-0.25-0.232-3.232,0,1,1,68,false,stim,false,1,1245.8999999761581,1,1,2,27109,WMM2,717857,false,false,808,image-keyboard-response,21
true,5,2,3,2,true,d,false,true,0.0-2.0-0.25-0.233-3.233,0,1,1,68,false,stim,false,1,362.9000000357628,1,0,0,27109,WMM2,719747,false,false,811,image-keyboard-response,22
true,5,1,3,2,false,d,false,false,0.0-2.0-0.26-0.234-3.234,0,1,1,90,false,stim,true,1,2113.5,1,0,0,27109,WMM2,723384,false,false,814,image-keyboard-response,23
true,5,0,3,2,false,d,true,false,0.0-2.0-0.26-0.235-3.235,0,1,1,81,false,stim,false,2,2172.400000035763,1,1,1,27109,WMM2,727086,false,false,817,image-keyboard-response,24
true,5,1,3,1,true,z,false,false,0.0-2.0-0.26-0.236-3.236,0,1,1,90,false,stim,false,1,881.6999999880791,1,1,2,27109,WMM2,729500,false,true,820,image-keyboard-response,25
true,5,1,3,1,true,z,false,true,0.0-2.0-0.26-0.237-3.237,0,1,1,90,false,stim,false,1,460.39999997615814,1,1,2,27109,WMM2,731484,false,false,823,image-keyboard-response,26
true,5,2,3,1,false,z,true,false,0.0-2.0-0.26-0.238-3.238,0,1,1,68,false,stim,false,1,766.1999999880791,1,1,2,27109,WMM2,733771,false,false,826,image-keyboard-response,27
true,5,1,3,2,false,d,true,false,0.0-2.0-0.26-0.239-3.239,0,1,1,90,false,stim,false,2,1441.8999999761581,1,1,1,27109,WMM2,736731,false,false,829,image-keyboard-response,28
true,5,0,3,2,false,d,true,false,0.0-2.0-0.26-0.240-3.240,0,1,1,81,false,stim,false,1,461.0,1,0,0,27109,WMM2,738731,false,false,832,image-keyboard-response,29
true,5,2,3,2,true,d,false,true,0.0-2.0-0.26-0.241-3.241,0,1,1,68,false,stim,false,2,280.69999998807907,1,1,1,27109,WMM2,740542,false,false,835,image-keyboard-response,30
true,5,1,3,2,false,d,false,false,0.0-2.0-0.26-0.242-3.242,0,1,1,90,false,stim,true,1,633.0,1,0,0,27109,WMM2,742692,false,false,838,image-keyboard-response,31
true,5,2,3,2,true,d,false,false,0.0-2.0-0.27-0.243-3.243,0,1,1,68,false,stim,false,1,371.4000000357628,1,0,0,27109,WMM2,744597,false,true,841,image-keyboard-response,32
true,5,0,3,1,false,z,true,false,0.0-2.0-0.27-0.244-3.244,0,1,1,81,false,stim,false,1,1161.5,1,1,2,27109,WMM2,747291,false,false,844,image-keyboard-response,33
true,5,1,3,1,true,z,false,true,0.0-2.0-0.27-0.245-3.245,0,1,1,90,false,stim,false,1,525.1000000238419,1,1,2,27109,WMM2,749337,false,false,847,image-keyboard-response,34
true,5,1,3,2,false,d,false,false,0.0-2.0-0.27-0.246-3.246,0,1,1,90,false,stim,true,1,543.3999999761581,1,0,0,27109,WMM2,751406,false,false,850,image-keyboard-response,35
true,5,2,3,2,true,d,false,true,0.0-2.0-0.27-0.247-3.247,0,1,1,68,false,stim,false,2,339.7999999523163,1,1,1,27109,WMM2,753273,false,false,853,image-keyboard-response,36
true,5,1,3,1,true,z,false,true,0.0-2.0-0.27-0.248-3.248,0,1,1,90,false,stim,false,1,356.19999998807907,1,1,2,27109,WMM2,755149,false,false,856,image-keyboard-response,37
true,5,1,3,2,false,d,true,true,0.0-2.0-0.27-0.249-3.249,0,1,1,90,false,stim,false,2,207.5,1,1,1,27109,WMM2,756888,false,true,859,image-keyboard-response,38
true,5,1,3,2,false,d,true,false,0.0-2.0-0.27-0.250-3.250,0,1,1,90,false,stim,false,2,323.2000000476837,1,1,1,27109,WMM2,758736,false,false,862,image-keyboard-response,39
true,5,2,3,2,true,d,false,true,0.0-2.0-0.27-0.251-3.251,0,1,1,68,false,stim,false,1,304.0,1,0,0,27109,WMM2,760569,false,false,865,image-keyboard-response,40
true,5,2,3,2,true,d,false,true,0.0-2.0-0.28-0.252-3.252,0,1,1,68,false,stim,false,1,415.10000002384186,1,0,0,27109,WMM2,762500,false,false,868,image-keyboard-response,41
true,5,2,3,1,false,z,true,false,0.0-2.0-0.28-0.253-3.253,0,1,1,68,false,stim,false,1,269.19999998807907,1,1,2,27109,WMM2,764290,false,false,871,image-keyboard-response,42
true,5,1,3,1,true,z,false,true,0.0-2.0-0.28-0.254-3.254,0,1,1,90,false,stim,false,1,564.6999999880791,1,1,2,27109,WMM2,766378,false,false,874,image-keyboard-response,43
true,5,1,3,2,false,d,false,true,0.0-2.0-0.28-0.255-3.255,0,1,1,90,false,stim,true,1,373.89999997615814,1,0,0,27109,WMM2,768268,false,true,877,image-keyboard-response,44
true,5,2,3,2,true,d,false,true,0.0-2.0-0.28-0.256-3.256,0,1,1,68,false,stim,false,1,390.7000000476837,1,0,0,27109,WMM2,770188,false,false,880,image-keyboard-response,45
true,5,1,3,2,false,d,true,false,0.0-2.0-0.28-0.257-3.257,0,1,1,90,false,stim,false,2,362.69999998807907,1,1,1,27109,WMM2,772080,false,false,883,image-keyboard-response,46
true,5,2,3,2,true,d,false,true,0.0-2.0-0.28-0.258-3.258,0,1,1,68,false,stim,false,2,265.39999997615814,1,1,1,27109,WMM2,773877,false,false,886,image-keyboard-response,47
true,5,2,3,1,false,z,true,false,0.0-2.0-0.28-0.259-3.259,0,1,1,68,false,stim,false,1,328.39999997615814,1,1,2,27109,WMM2,775728,false,false,889,image-keyboard-response,48
true,5,0,3,2,false,d,true,false,0.0-2.0-0.28-0.260-3.260,0,1,1,81,false,stim,false,2,844.6999999880791,1,1,1,27109,WMM2,778096,false,false,892,image-keyboard-response,49
true,5,0,3,1,false,z,true,false,0.0-2.0-0.29-0.261-3.261,0,1,1,81,false,stim,false,1,897.6999999880791,1,1,2,27109,WMM2,780510,false,false,895,image-keyboard-response,50
true,5,1,3,2,false,d,false,true,0.0-2.0-0.29-0.262-3.262,0,1,1,90,false,stim,true,1,147.19999998807907,1,1,0,27109,WMM2,782176,false,true,898,image-keyboard-response,51
true,5,1,3,1,true,z,false,true,0.0-2.0-0.29-0.263-3.263,0,1,1,90,false,stim,false,1,1225.800000011921,1,1,2,27109,WMM2,784933,false,false,901,image-keyboard-response,52
true,5,1,3,1,true,z,false,false,0.0-2.0-0.29-0.264-3.264,0,1,1,90,false,stim,false,1,98.0,1,1,2,27109,WMM2,786546,false,true,904,image-keyboard-response,53
true,5,2,3,2,true,d,false,false,0.0-2.0-0.29-0.265-3.265,0,1,1,68,false,stim,false,1,415.60000002384186,1,1,0,27109,WMM2,788485,false,true,907,image-keyboard-response,54
true,5,1,3,2,false,d,true,false,0.0-2.0-0.29-0.266-3.266,0,1,1,90,false,stim,false,2,604.7999999523163,1,0,1,27109,WMM2,790612,false,false,910,image-keyboard-response,55
true,5,1,3,2,false,d,true,false,0.0-2.0-0.29-0.267-3.267,0,1,1,90,false,stim,false,2,239.5,1,0,1,27109,WMM2,792365,false,false,913,image-keyboard-response,56
true,5,0,3,2,false,d,true,false,0.0-2.0-0.29-0.268-3.268,0,1,1,81,false,stim,false,2,990.0,1,0,1,27109,WMM2,794871,false,false,916,image-keyboard-response,57
true,5,2,3,2,true,d,false,true,0.0-2.0-0.29-0.269-3.269,0,1,1,68,false,stim,false,1,520.6999999880791,1,1,0,27109,WMM2,796923,false,false,919,image-keyboard-response,58
true,5,1,3,1,true,z,false,true,0.0-2.0-0.30-0.270-3.270,0,1,1,90,false,stim,false,1,427.30000001192093,1,1,2,27109,WMM2,798881,false,false,922,image-keyboard-response,59
true,5,1,3,2,false,d,true,false,0.0-2.0-0.30-0.271-3.271,0,1,1,90,false,stim,false,2,217.19999998807907,1,0,1,27109,WMM2,800617,false,false,925,image-keyboard-response,60
true,6,1,3,2,false,d,true,false,0.0-2.0-0.30-0.272-3.272,1,0,1,90,true,stim,false,2,2707.300000011921,1,1,0,27109,WMM2,804842,false,false,928,image-keyboard-response,1
true,6,2,3,1,false,z,true,true,0.0-2.0-0.30-0.273-3.273,1,0,1,68,false,stim,false,1,512.5,1,1,2,27109,WMM2,806873,false,true,931,image-keyboard-response,2
true,6,0,3,2,false,d,true,false,0.0-2.0-0.30-0.274-3.274,1,0,1,81,false,stim,false,2,529.8000000119209,1,1,0,27109,WMM2,808923,false,false,934,image-keyboard-response,3
true,6,1,3,1,true,z,false,true,0.0-2.0-0.30-0.275-3.275,1,0,1,90,false,stim,false,2,352.30000001192093,1,0,1,27109,WMM2,810805,false,false,937,image-keyboard-response,4
true,6,1,3,1,true,z,false,true,0.0-2.0-0.30-0.276-3.276,1,0,1,90,false,stim,false,1,183.0999999642372,1,1,2,27109,WMM2,812523,false,false,940,image-keyboard-response,5
true,6,1,3,2,false,d,true,true,0.0-2.0-0.30-0.277-3.277,1,0,1,90,false,stim,false,2,434.60000002384186,1,1,0,27109,WMM2,814479,false,true,943,image-keyboard-response,6
true,6,1,3,1,true,z,false,false,0.0-2.0-0.30-0.278-3.278,1,0,1,90,false,stim,false,2,328.19999998807907,1,0,1,27109,WMM2,816321,false,true,946,image-keyboard-response,7
true,6,2,3,1,false,z,true,false,0.0-2.0-0.31-0.279-3.279,1,0,1,68,false,stim,false,1,292.2000000476837,1,1,2,27109,WMM2,818137,false,false,949,image-keyboard-response,8
true,6,1,3,2,false,d,true,false,0.0-2.0-0.31-0.280-3.280,1,0,1,90,false,stim,false,2,243.60000002384186,1,1,0,27109,WMM2,819892,false,false,952,image-keyboard-response,9
true,6,0,3,1,false,z,true,false,0.0-2.0-0.31-0.281-3.281,1,0,1,81,false,stim,false,1,852.9000000357628,1,1,2,27109,WMM2,822263,false,false,955,image-keyboard-response,10
true,6,1,3,1,true,z,false,true,0.0-2.0-0.31-0.282-3.282,1,0,1,90,false,stim,false,2,363.5,1,0,1,27109,WMM2,824150,false,false,958,image-keyboard-response,11
true,6,1,3,2,false,d,true,false,0.0-2.0-0.31-0.283-3.283,1,0,1,90,false,stim,false,2,379.7000000476837,1,1,0,27109,WMM2,826053,false,false,961,image-keyboard-response,12
true,6,2,3,2,true,d,false,true,0.0-2.0-0.31-0.284-3.284,1,0,1,68,false,stim,false,2,445.0999999642372,1,1,0,27109,WMM2,828021,false,false,964,image-keyboard-response,13
true,6,2,3,1,false,z,false,false,0.0-2.0-0.31-0.285-3.285,1,0,1,68,false,stim,true,2,465.0,1,0,1,27109,WMM2,830011,false,false,967,image-keyboard-response,14
true,6,1,3,1,true,z,false,true,0.0-2.0-0.31-0.286-3.286,1,0,1,90,false,stim,false,2,271.39999997615814,1,0,1,27109,WMM2,831804,false,false,970,image-keyboard-response,15
true,6,1,3,1,true,z,false,true,0.0-2.0-0.31-0.287-3.287,1,0,1,90,false,stim,false,1,534.0,1,1,2,27109,WMM2,833854,false,false,973,image-keyboard-response,16
true,6,1,3,1,true,z,false,true,0.0-2.0-0.32-0.288-3.288,1,0,1,90,false,stim,false,2,919.1999999880791,1,0,1,27109,WMM2,836292,false,false,976,image-keyboard-response,17
true,6,1,3,1,true,z,false,true,0.0-2.0-0.32-0.289-3.289,1,0,1,90,false,stim,false,1,721.6000000238419,1,1,2,27109,WMM2,838527,false,false,979,image-keyboard-response,18
true,6,1,3,1,true,z,false,true,0.0-2.0-0.32-0.290-3.290,1,0,1,90,false,stim,false,1,183.80000001192093,1,1,2,27109,WMM2,840224,false,false,982,image-keyboard-response,19
true,6,1,3,2,false,d,true,false,0.0-2.0-0.32-0.291-3.291,1,0,1,90,false,stim,false,2,385.0,1,1,0,27109,WMM2,842130,false,false,985,image-keyboard-response,20
true,6,0,3,2,false,d,true,false,0.0-2.0-0.32-0.292-3.292,1,0,1,81,false,stim,false,2,727.5,1,1,0,27109,WMM2,844381,false,false,988,image-keyboard-response,21
true,6,2,3,1,false,z,false,false,0.0-2.0-0.32-0.293-3.293,1,0,1,68,false,stim,true,2,408.2999999523163,1,0,1,27109,WMM2,846313,false,false,991,image-keyboard-response,22
true,6,2,3,2,true,d,false,true,0.0-2.0-0.32-0.294-3.294,1,0,1,68,false,stim,false,2,228.10000002384186,1,1,0,27109,WMM2,848066,false,false,994,image-keyboard-response,23
true,6,2,3,1,false,z,true,false,0.0-2.0-0.32-0.295-3.295,1,0,1,68,false,stim,false,1,351.2999999523163,1,1,2,27109,WMM2,849947,false,false,997,image-keyboard-response,24
true,6,1,3,1,true,z,false,true,0.0-2.0-0.32-0.296-3.296,1,0,1,90,false,stim,false,2,287.5999999642372,1,0,1,27109,WMM2,851748,false,false,1000,image-keyboard-response,25
true,6,1,3,2,false,d,true,false,0.0-2.0-0.33-0.297-3.297,1,0,1,90,false,stim,false,2,325.0,1,1,0,27109,WMM2,853605,false,false,1003,image-keyboard-response,26
true,6,2,3,1,false,z,false,false,0.0-2.0-0.33-0.298-3.298,1,0,1,68,false,stim,true,2,190.10000002384186,1,0,1,27109,WMM2,855341,false,false,1006,image-keyboard-response,27
true,6,1,3,2,false,d,true,true,0.0-2.0-0.33-0.299-3.299,1,0,1,90,false,stim,false,2,405.0,1,1,0,27109,WMM2,857259,false,true,1009,image-keyboard-response,28
true,6,1,3,2,false,d,true,false,0.0-2.0-0.33-0.300-3.300,1,0,1,90,false,stim,false,2,498.30000001192093,1,1,0,27109,WMM2,859290,false,false,1012,image-keyboard-response,29
true,6,0,3,1,false,z,true,false,0.0-2.0-0.33-0.301-3.301,1,0,1,81,false,stim,false,2,361.0999999642372,1,0,1,27109,WMM2,861171,false,false,1015,image-keyboard-response,30
true,6,2,3,1,false,z,true,false,0.0-2.0-0.33-0.302-3.302,1,0,1,68,false,stim,false,1,345.0,1,1,2,27109,WMM2,863038,false,false,1018,image-keyboard-response,31
true,6,1,3,1,true,z,false,true,0.0-2.0-0.33-0.303-3.303,1,0,1,90,false,stim,false,2,116.0,1,0,1,27109,WMM2,864683,false,false,1021,image-keyboard-response,32
true,6,1,3,1,true,z,false,true,0.0-2.0-0.33-0.304-3.304,1,0,1,90,false,stim,false,1,540.3999999761581,1,1,2,27109,WMM2,866746,false,false,1024,image-keyboard-response,33
true,6,2,3,1,false,z,true,false,0.0-2.0-0.33-0.305-3.305,1,0,1,68,false,stim,false,1,379.0,1,1,2,27109,WMM2,868655,false,false,1027,image-keyboard-response,34
true,6,0,3,1,false,z,true,false,0.0-2.0-0.34-0.306-3.306,1,0,1,81,false,stim,false,1,504.69999998807907,1,1,2,27109,WMM2,870682,false,false,1030,image-keyboard-response,35
true,6,1,3,1,true,z,false,true,0.0-2.0-0.34-0.307-3.307,1,0,1,90,false,stim,false,2,141.4000000357628,1,0,1,27109,WMM2,872345,false,false,1033,image-keyboard-response,36
true,6,1,3,2,false,d,true,false,0.0-2.0-0.34-0.308-3.308,1,0,1,90,false,stim,false,2,16.099999964237213,1,1,0,27109,WMM2,873892,false,false,1036,image-keyboard-response,37
true,6,2,3,2,true,d,false,true,0.0-2.0-0.34-0.309-3.309,1,0,1,68,false,stim,false,2,406.0999999642372,1,1,0,27109,WMM2,875830,false,false,1039,image-keyboard-response,38
true,6,2,3,1,false,z,false,false,0.0-2.0-0.34-0.310-3.310,1,0,1,68,false,stim,true,2,204.0,1,0,1,27109,WMM2,877548,false,false,1042,image-keyboard-response,39
true,6,1,3,1,true,z,false,true,0.0-2.0-0.34-0.311-3.311,1,0,1,90,false,stim,false,1,302.5,1,1,2,27109,WMM2,879372,false,false,1045,image-keyboard-response,40
true,6,1,3,2,false,d,true,false,0.0-2.0-0.34-0.312-3.312,1,0,1,90,false,stim,false,2,328.4000000357628,1,1,0,27109,WMM2,881231,false,false,1048,image-keyboard-response,41
true,6,0,3,1,false,z,true,false,0.0-2.0-0.34-0.313-3.313,1,0,1,81,false,stim,false,2,692.0,1,0,1,27109,WMM2,883448,false,false,1051,image-keyboard-response,42
true,6,2,3,1,false,z,true,false,0.0-2.0-0.34-0.314-3.314,1,0,1,68,false,stim,false,1,403.5,1,1,2,27109,WMM2,885378,false,false,1054,image-keyboard-response,43
true,6,2,3,1,false,z,false,false,0.0-2.0-0.35-0.315-3.315,1,0,1,68,false,stim,true,2,1034.0,1,0,1,27109,WMM2,887935,false,false,1057,image-keyboard-response,44
true,6,2,3,2,true,d,false,true,0.0-2.0-0.35-0.316-3.316,1,0,1,68,false,stim,false,2,410.2000000476837,1,1,0,27109,WMM2,889871,false,false,1060,image-keyboard-response,45
true,6,1,3,2,false,d,true,false,0.0-2.0-0.35-0.317-3.317,1,0,1,90,false,stim,false,2,284.69999998807907,1,1,0,27109,WMM2,891680,false,false,1063,image-keyboard-response,46
true,6,1,3,1,true,z,false,true,0.0-2.0-0.35-0.318-3.318,1,0,1,90,false,stim,false,1,291.9000000357628,1,1,2,27109,WMM2,893493,false,false,1066,image-keyboard-response,47
true,6,0,3,1,false,z,true,false,0.0-2.0-0.35-0.319-3.319,1,0,1,81,false,stim,false,2,491.0,1,0,1,27109,WMM2,895512,false,false,1069,image-keyboard-response,48
true,6,0,3,1,false,z,true,false,0.0-2.0-0.35-0.320-3.320,1,0,1,81,false,stim,false,1,336.2999999523163,1,1,2,27109,WMM2,897383,false,false,1072,image-keyboard-response,49
true,6,2,3,1,false,z,false,false,0.0-2.0-0.35-0.321-3.321,1,0,1,68,false,stim,true,2,386.5,1,0,1,27109,WMM2,899297,false,false,1075,image-keyboard-response,50
true,6,1,3,1,true,z,false,false,0.0-2.0-0.35-0.322-3.322,1,0,1,90,false,stim,false,1,453.30000001192093,1,1,2,27109,WMM2,901267,false,true,1078,image-keyboard-response,51
true,6,1,3,2,false,d,true,false,0.0-2.0-0.35-0.323-3.323,1,0,1,90,false,stim,false,2,379.39999997615814,1,0,0,27109,WMM2,903169,false,false,1081,image-keyboard-response,52
true,6,2,3,1,false,z,false,false,0.0-2.0-0.36-0.324-3.324,1,0,1,68,false,stim,true,2,360.9000000357628,1,0,1,27109,WMM2,905054,false,false,1084,image-keyboard-response,53
true,6,1,3,1,true,z,false,true,0.0-2.0-0.36-0.325-3.325,1,0,1,90,false,stim,false,2,347.80000001192093,1,0,1,27109,WMM2,906938,false,false,1087,image-keyboard-response,54
true,6,0,3,1,false,z,true,false,0.0-2.0-0.36-0.326-3.326,1,0,1,81,false,stim,false,2,553.1000000238419,1,0,1,27109,WMM2,909013,false,false,1090,image-keyboard-response,55
true,6,2,3,1,false,z,true,false,0.0-2.0-0.36-0.327-3.327,1,0,1,68,false,stim,false,1,1536.8999999761581,1,1,2,27109,WMM2,912067,false,false,1093,image-keyboard-response,56
true,6,2,3,2,true,d,false,true,0.0-2.0-0.36-0.328-3.328,1,0,1,68,false,stim,false,2,704.3999999761581,1,0,0,27109,WMM2,914295,false,false,1096,image-keyboard-response,57
true,6,1,3,1,true,z,false,true,0.0-2.0-0.36-0.329-3.329,1,0,1,90,false,stim,false,1,1140.8999999761581,1,1,2,27109,WMM2,916950,false,false,1099,image-keyboard-response,58
true,6,1,3,1,true,z,false,false,0.0-2.0-0.36-0.330-3.330,1,0,1,90,false,stim,false,1,1990.199999988079,1,1,2,27109,WMM2,920479,false,true,1102,image-keyboard-response,59
true,6,1,3,2,false,d,true,false,0.0-2.0-0.36-0.331-3.331,1,0,1,90,false,stim,false,2,528.3999999761581,1,0,0,27109,WMM2,922527,false,false,1105,image-keyboard-response,60
true,7,1,1,0,false,q,true,false,0.0-2.0-0.36-0.332-3.332,0,0,1,90,true,stim,false,2,487.19999998807907,1,0,0,27109,WMM2,924535,false,false,1108,image-keyboard-response,1
true,7,0,1,1,false,z,true,true,0.0-2.0-0.37-0.333-3.333,0,0,1,81,false,stim,false,1,697.6999999880791,1,1,2,27109,WMM2,926751,false,true,1111,image-keyboard-response,2
true,7,1,1,0,false,q,true,true,0.0-2.0-0.37-0.334-3.334,0,0,1,90,false,stim,false,2,731.0999999642372,1,0,0,27109,WMM2,929018,false,true,1114,image-keyboard-response,3
true,7,2,1,1,false,z,true,false,0.0-2.0-0.37-0.335-3.335,0,0,1,68,false,stim,false,1,936.6000000238419,1,1,2,27109,WMM2,931474,false,false,1117,image-keyboard-response,4
true,7,2,1,0,false,q,true,false,0.0-2.0-0.37-0.336-3.336,0,0,1,68,false,stim,false,1,1335.300000011921,1,0,1,27109,WMM2,934323,false,false,1120,image-keyboard-response,5
true,7,0,1,0,true,q,false,true,0.0-2.0-0.37-0.337-3.337,0,0,1,81,false,stim,false,2,221.19999998807907,1,0,0,27109,WMM2,936080,false,false,1123,image-keyboard-response,6
true,7,0,1,1,false,z,true,false,0.0-2.0-0.37-0.338-3.338,0,0,1,81,false,stim,false,1,90.19999998807907,1,1,2,27109,WMM2,937702,false,false,1126,image-keyboard-response,7
true,7,1,1,0,false,q,false,true,0.0-2.0-0.37-0.339-3.339,0,0,1,90,false,stim,true,1,230.79999995231628,1,0,1,27109,WMM2,939458,false,true,1129,image-keyboard-response,8
true,7,1,1,0,false,q,true,false,0.0-2.0-0.37-0.340-3.340,0,0,1,90,false,stim,false,2,268.5,1,0,0,27109,WMM2,941250,false,false,1132,image-keyboard-response,9
true,7,1,1,0,false,q,false,false,0.0-2.0-0.37-0.341-3.341,0,0,1,90,false,stim,true,1,238.80000001192093,1,0,1,27109,WMM2,943007,false,false,1135,image-keyboard-response,10
true,7,1,1,0,false,q,true,false,0.0-2.0-0.38-0.342-3.342,0,0,1,90,false,stim,false,2,280.0,1,0,0,27109,WMM2,944804,false,false,1138,image-keyboard-response,11
true,7,1,1,1,true,z,false,true,0.0-2.0-0.38-0.343-3.343,0,0,1,90,false,stim,false,1,422.69999998807907,1,1,2,27109,WMM2,946750,false,false,1141,image-keyboard-response,12
true,7,0,1,0,true,q,false,true,0.0-2.0-0.38-0.344-3.344,0,0,1,81,false,stim,false,1,306.2000000476837,1,0,1,27109,WMM2,948571,false,false,1144,image-keyboard-response,13
true,7,2,1,0,false,q,false,false,0.0-2.0-0.38-0.345-3.345,0,0,1,68,false,stim,true,2,383.9000000357628,1,0,0,27109,WMM2,950475,false,false,1147,image-keyboard-response,14
true,7,1,1,1,true,z,false,true,0.0-2.0-0.38-0.346-3.346,0,0,1,90,false,stim,false,1,315.0999999642372,1,1,2,27109,WMM2,952303,false,false,1150,image-keyboard-response,15
true,7,1,1,1,true,z,false,true,0.0-2.0-0.38-0.347-3.347,0,0,1,90,false,stim,false,1,88.80000001192093,1,1,2,27109,WMM2,953914,false,false,1153,image-keyboard-response,16
true,7,2,1,0,false,q,false,false,0.0-2.0-0.38-0.348-3.348,0,0,1,68,false,stim,true,2,1189.199999988079,1,0,0,27109,WMM2,956620,false,false,1156,image-keyboard-response,17
true,7,2,1,0,false,q,true,false,0.0-2.0-0.38-0.349-3.349,0,0,1,68,false,stim,false,1,1578.0,1,0,1,27109,WMM2,959730,false,false,1159,image-keyboard-response,18
true,7,0,1,0,true,q,false,true,0.0-2.0-0.38-0.350-3.350,0,0,1,81,false,stim,false,1,931.8000000119209,1,0,1,27109,WMM2,962195,false,false,1162,image-keyboard-response,19
true,7,1,1,1,true,z,false,true,0.0-2.0-0.39-0.351-3.351,0,0,1,90,false,stim,false,1,1616.199999988079,1,1,2,27109,WMM2,965339,false,false,1165,image-keyboard-response,20
true,7,0,1,0,true,q,false,true,0.0-2.0-0.39-0.352-3.352,0,0,1,81,false,stim,false,2,2394.699999988079,1,0,0,27109,WMM2,969270,false,false,1168,image-keyboard-response,21
true,7,2,1,0,false,q,true,false,0.0-2.0-0.39-0.353-3.353,0,0,1,68,false,stim,false,1,1310.5,1,0,1,27109,WMM2,972100,false,false,1171,image-keyboard-response,22
true,7,1,1,0,false,q,true,true,0.0-2.0-0.39-0.354-3.354,0,0,1,90,false,stim,false,2,461.19999998807907,1,0,0,27109,WMM2,974081,false,true,1174,image-keyboard-response,23
true,7,2,1,1,false,z,true,false,0.0-2.0-0.39-0.355-3.355,0,0,1,68,false,stim,false,1,1542.5,1,1,2,27109,WMM2,977145,false,false,1177,image-keyboard-response,24
true,7,1,1,1,true,z,false,true,0.0-2.0-0.39-0.356-3.356,0,0,1,90,false,stim,false,1,2607.800000011921,1,1,2,27109,WMM2,981283,false,false,1180,image-keyboard-response,25
true,7,1,1,0,false,q,false,false,0.0-2.0-0.39-0.357-3.357,0,0,1,90,false,stim,true,1,1559.7000000476837,1,0,1,27109,WMM2,984372,false,false,1183,image-keyboard-response,26
true,7,0,1,0,true,q,false,true,0.0-2.0-0.39-0.358-3.358,0,0,1,81,false,stim,false,1,1728.1000000238419,1,0,1,27109,WMM2,987629,false,false,1186,image-keyboard-response,27
true,7,2,1,0,false,q,false,false,0.0-2.0-0.39-0.359-3.359,0,0,1,68,false,stim,true,2,2197.800000011921,1,0,0,27109,WMM2,991351,false,false,1189,image-keyboard-response,28
true,7,0,1,1,false,z,true,false,0.0-2.0-0.40-0.360-3.360,0,0,1,81,false,stim,false,1,1542.199999988079,1,1,2,27109,WMM2,994434,false,false,1192,image-keyboard-response,29
true,7,1,1,0,false,q,true,false,0.0-2.0-0.40-0.361-3.361,0,0,1,90,false,stim,false,2,2319.399999976158,1,0,0,27109,WMM2,998283,false,false,1195,image-keyboard-response,30
true,7,2,1,1,false,z,true,true,0.0-2.0-0.40-0.362-3.362,0,0,1,68,false,stim,false,1,626.1000000238419,1,1,2,27109,WMM2,1000431,false,true,1198,image-keyboard-response,31
true,7,1,1,0,false,q,false,false,0.0-2.0-0.40-0.363-3.363,0,0,1,90,false,stim,true,1,541.0,1,0,1,27109,WMM2,1002509,false,false,1201,image-keyboard-response,32
true,7,1,1,0,false,q,true,false,0.0-2.0-0.40-0.364-3.364,0,0,1,90,false,stim,false,2,226.5,1,0,0,27109,WMM2,1004258,false,false,1204,image-keyboard-response,33
true,7,2,1,0,false,q,false,false,0.0-2.0-0.40-0.365-3.365,0,0,1,68,false,stim,true,2,117.39999997615814,1,0,0,27109,WMM2,1005895,false,false,1207,image-keyboard-response,34
true,7,0,1,0,true,q,false,true,0.0-2.0-0.40-0.366-3.366,0,0,1,81,false,stim,false,1,165.0,1,0,1,27109,WMM2,1007588,false,false,1210,image-keyboard-response,35
true,7,1,1,0,false,q,false,false,0.0-2.0-0.40-0.367-3.367,0,0,1,90,false,stim,true,1,1252.8999999761581,1,0,1,27109,WMM2,1010358,false,false,1213,image-keyboard-response,36
true,7,2,1,1,false,z,true,false,0.0-2.0-0.40-0.368-3.368,0,0,1,68,false,stim,false,1,233.80000001192093,1,1,2,27109,WMM2,1012121,false,false,1216,image-keyboard-response,37
true,7,0,1,0,true,q,false,true,0.0-2.0-0.41-0.369-3.369,0,0,1,81,false,stim,false,1,415.69999998807907,1,0,1,27109,WMM2,1014072,false,false,1219,image-keyboard-response,38
false,7,-1,1,0,false,q,true,false,0.0-2.0-0.41-0.370-3.370,0,0,1,,false,stim,false,1,,1,0,1,27109,WMM2,1018621,false,false,1222,image-keyboard-response,39
true,7,1,1,1,true,z,false,true,0.0-2.0-0.41-0.371-3.371,0,0,1,90,false,stim,false,1,521.5,1,1,2,27109,WMM2,1020667,false,false,1225,image-keyboard-response,40
true,7,1,1,0,false,q,true,false,0.0-2.0-0.41-0.372-3.372,0,0,1,90,false,stim,false,2,1652.800000011921,1,0,0,27109,WMM2,1023849,false,false,1228,image-keyboard-response,41
true,7,0,1,1,false,z,true,false,0.0-2.0-0.41-0.373-3.373,0,0,1,81,false,stim,false,1,1149.5,1,1,2,27109,WMM2,1026515,false,false,1231,image-keyboard-response,42
true,7,2,1,0,false,q,false,true,0.0-2.0-0.41-0.374-3.374,0,0,1,68,false,stim,true,2,731.6999999880791,1,0,0,27109,WMM2,1028787,false,true,1234,image-keyboard-response,43
true,7,2,1,1,false,z,true,false,0.0-2.0-0.41-0.375-3.375,0,0,1,68,false,stim,false,1,1401.3999999761581,1,1,2,27109,WMM2,1031715,false,false,1237,image-keyboard-response,44
true,7,1,1,0,false,q,false,false,0.0-2.0-0.41-0.376-3.376,0,0,1,90,false,stim,true,1,671.8999999761581,1,0,1,27109,WMM2,1033921,false,false,1240,image-keyboard-response,45
true,7,0,1,0,true,q,false,false,0.0-2.0-0.41-0.377-3.377,0,0,1,81,false,stim,false,2,1011.0,1,0,0,27109,WMM2,1036462,false,true,1243,image-keyboard-response,46
true,7,1,1,0,false,q,true,false,0.0-2.0-0.42-0.378-3.378,0,0,1,90,false,stim,false,2,1908.5,1,0,0,27109,WMM2,1039910,false,false,1246,image-keyboard-response,47
false,7,-1,1,0,false,q,true,false,0.0-2.0-0.42-0.379-3.379,0,0,1,,false,stim,false,1,,1,0,1,27109,WMM2,1044443,false,false,1249,image-keyboard-response,48
true,7,2,1,1,false,z,true,false,0.0-2.0-0.42-0.380-3.380,0,0,1,68,false,stim,false,1,604.8000000119209,1,1,2,27109,WMM2,1046576,false,false,1252,image-keyboard-response,49
true,7,1,1,0,false,q,false,false,0.0-2.0-0.42-0.381-3.381,0,0,1,90,false,stim,true,1,458.19999998807907,1,0,1,27109,WMM2,1048564,false,false,1255,image-keyboard-response,50
true,7,1,1,0,false,q,false,true,0.0-2.0-0.42-0.382-3.382,0,0,1,90,false,stim,true,1,1373.300000011921,1,0,1,27109,WMM2,1051468,false,true,1258,image-keyboard-response,51
true,7,0,1,1,false,z,true,false,0.0-2.0-0.42-0.383-3.383,0,0,1,81,false,stim,false,1,358.30000001192093,1,0,2,27109,WMM2,1053364,false,false,1261,image-keyboard-response,52
true,7,2,1,1,false,z,true,true,0.0-2.0-0.42-0.384-3.384,0,0,1,68,false,stim,false,1,159.60000002384186,1,0,2,27109,WMM2,1055052,false,true,1264,image-keyboard-response,53
true,7,2,1,0,false,q,false,false,0.0-2.0-0.42-0.385-3.385,0,0,1,68,false,stim,true,2,914.6000000238419,1,1,0,27109,WMM2,1057477,false,false,1267,image-keyboard-response,54
true,7,2,1,0,false,q,false,true,0.0-2.0-0.42-0.386-3.386,0,0,1,68,false,stim,true,2,2171.199999988079,1,1,0,27109,WMM2,1061173,false,true,1270,image-keyboard-response,55
true,7,2,1,0,false,q,true,false,0.0-2.0-0.43-0.387-3.387,0,0,1,68,false,stim,false,1,176.70000004768372,1,0,1,27109,WMM2,1062887,false,false,1273,image-keyboard-response,56
true,7,2,1,0,false,q,true,false,0.0-2.0-0.43-0.388-3.388,0,0,1,68,false,stim,false,1,42.30000001192093,1,0,1,27109,WMM2,1064451,false,false,1276,image-keyboard-response,57
true,7,2,1,0,false,q,false,false,0.0-2.0-0.43-0.389-3.389,0,0,1,68,false,stim,true,2,1243.5,1,1,0,27109,WMM2,1067208,false,false,1279,image-keyboard-response,58
true,7,0,1,1,false,z,true,false,0.0-2.0-0.43-0.390-3.390,0,0,1,81,false,stim,false,1,267.19999998807907,1,0,2,27109,WMM2,1069002,false,false,1282,image-keyboard-response,59
true,7,1,1,1,true,z,false,true,0.0-2.0-0.43-0.391-3.391,0,0,1,90,false,stim,false,1,197.0,1,0,2,27109,WMM2,1070729,false,false,1285,image-keyboard-response,60
true,8,1,1,0,false,q,true,false,0.0-2.0-0.43-0.392-3.392,1,0,0,90,true,stim,false,0,555.8000000119209,1,1,0,27109,WMM2,1072809,false,false,1288,image-keyboard-response,1
true,8,2,1,1,false,z,true,false,0.0-2.0-0.43-0.393-3.393,1,0,0,68,false,stim,false,0,1350.4000000357628,1,0,1,27109,WMM2,1075673,false,false,1291,image-keyboard-response,2
true,8,1,1,2,false,d,false,false,0.0-2.0-0.43-0.394-3.394,1,0,0,90,false,stim,true,1,541.5999999642372,1,0,2,27109,WMM2,1077745,false,false,1294,image-keyboard-response,3
true,8,1,1,0,false,q,true,false,0.0-2.0-0.43-0.395-3.395,1,0,0,90,false,stim,false,0,934.1999999880791,1,1,0,27109,WMM2,1080205,false,false,1297,image-keyboard-response,4
true,8,1,1,2,false,d,false,true,0.0-2.0-0.44-0.396-3.396,1,0,0,90,false,stim,true,1,324.5,1,0,2,27109,WMM2,1082049,false,true,1300,image-keyboard-response,5
true,8,1,1,2,false,d,false,false,0.0-2.0-0.44-0.397-3.397,1,0,0,90,false,stim,true,1,1456.699999988079,1,0,2,27109,WMM2,1085036,false,false,1303,image-keyboard-response,6
true,8,0,1,0,true,q,false,true,0.0-2.0-0.44-0.398-3.398,1,0,0,81,false,stim,false,0,160.80000001192093,1,1,0,27109,WMM2,1086724,false,false,1306,image-keyboard-response,7
true,8,2,1,0,false,q,true,false,0.0-2.0-0.44-0.399-3.399,1,0,0,68,false,stim,false,0,570.1000000238419,1,1,0,27109,WMM2,1088821,false,false,1309,image-keyboard-response,8
true,8,0,1,2,false,d,true,false,0.0-2.0-0.44-0.400-3.400,1,0,0,81,false,stim,false,1,864.1999999880791,1,0,2,27109,WMM2,1091200,false,false,1312,image-keyboard-response,9
true,8,1,1,1,true,z,false,true,0.0-2.0-0.44-0.401-3.401,1,0,0,90,false,stim,false,0,446.60000002384186,1,0,1,27109,WMM2,1093166,false,false,1315,image-keyboard-response,10
true,8,1,1,1,true,z,false,true,0.0-2.0-0.44-0.402-3.402,1,0,0,90,false,stim,false,0,977.5,1,0,1,27109,WMM2,1095666,false,false,1318,image-keyboard-response,11
true,8,1,1,1,true,z,false,true,0.0-2.0-0.44-0.403-3.403,1,0,0,90,false,stim,false,0,282.2000000476837,1,0,1,27109,WMM2,1097470,false,false,1321,image-keyboard-response,12
true,8,1,1,0,false,q,true,false,0.0-2.0-0.44-0.404-3.404,1,0,0,90,false,stim,false,0,556.9000000357628,1,1,0,27109,WMM2,1099553,false,false,1324,image-keyboard-response,13
true,8,2,1,1,false,z,true,false,0.0-2.0-0.45-0.405-3.405,1,0,0,68,false,stim,false,0,382.69999998807907,1,0,1,27109,WMM2,1101460,false,false,1327,image-keyboard-response,14
true,8,2,1,1,false,z,true,false,0.0-2.0-0.45-0.406-3.406,1,0,0,68,false,stim,false,0,1634.300000011921,1,0,1,27109,WMM2,1104619,false,false,1330,image-keyboard-response,15
true,8,2,1,2,true,d,false,true,0.0-2.0-0.45-0.407-3.407,1,0,0,68,false,stim,false,1,448.19999998807907,1,0,2,27109,WMM2,1106591,false,false,1333,image-keyboard-response,16
true,8,0,1,0,true,q,false,true,0.0-2.0-0.45-0.408-3.408,1,0,0,81,false,stim,false,0,796.8999999761581,1,1,0,27109,WMM2,1108916,false,false,1336,image-keyboard-response,17
true,8,0,1,1,false,z,false,false,0.0-2.0-0.45-0.409-3.409,1,0,0,81,false,stim,true,0,487.7000000476837,1,0,1,27109,WMM2,1110934,false,false,1339,image-keyboard-response,18
true,8,0,1,2,false,d,true,true,0.0-2.0-0.45-0.410-3.410,1,0,0,81,false,stim,false,1,1444.300000011921,1,0,2,27109,WMM2,1113892,false,true,1342,image-keyboard-response,19
true,8,1,1,2,false,d,false,false,0.0-2.0-0.45-0.411-3.411,1,0,0,90,false,stim,true,1,450.39999997615814,1,0,2,27109,WMM2,1115877,false,false,1345,image-keyboard-response,20
true,8,1,1,0,false,q,true,true,0.0-2.0-0.45-0.412-3.412,1,0,0,90,false,stim,false,0,630.7999999523163,1,1,0,27109,WMM2,1118032,false,true,1348,image-keyboard-response,21
true,8,1,1,0,false,q,true,false,0.0-2.0-0.45-0.413-3.413,1,0,0,90,false,stim,false,0,784.3000000119209,1,1,0,27109,WMM2,1120338,false,false,1351,image-keyboard-response,22
true,8,2,1,2,true,d,false,true,0.0-2.0-0.46-0.414-3.414,1,0,0,68,false,stim,false,1,1961.4000000357628,1,0,2,27109,WMM2,1123826,false,false,1354,image-keyboard-response,23
true,8,0,1,0,true,q,false,true,0.0-2.0-0.46-0.415-3.415,1,0,0,81,false,stim,false,0,813.1000000238419,1,1,0,27109,WMM2,1126172,false,false,1357,image-keyboard-response,24
true,8,1,1,2,false,d,false,false,0.0-2.0-0.46-0.416-3.416,1,0,0,90,false,stim,true,1,733.5,1,0,2,27109,WMM2,1128425,false,false,1360,image-keyboard-response,25
true,8,1,1,1,true,z,false,true,0.0-2.0-0.46-0.417-3.417,1,0,0,90,false,stim,false,0,511.7999999523163,1,0,1,27109,WMM2,1130453,false,false,1363,image-keyboard-response,26
true,8,0,1,0,true,q,false,true,0.0-2.0-0.46-0.418-3.418,1,0,0,81,false,stim,false,0,380.5,1,1,0,27109,WMM2,1132360,false,false,1366,image-keyboard-response,27
true,8,2,1,0,false,q,true,false,0.0-2.0-0.46-0.419-3.419,1,0,0,68,false,stim,false,0,691.3999999761581,1,1,0,27109,WMM2,1134592,false,false,1369,image-keyboard-response,28
true,8,2,1,2,true,d,false,true,0.0-2.0-0.46-0.420-3.420,1,0,0,68,false,stim,false,1,374.19999998807907,1,0,2,27109,WMM2,1136505,false,false,1372,image-keyboard-response,29
true,8,2,1,1,false,z,true,false,0.0-2.0-0.46-0.421-3.421,1,0,0,68,false,stim,false,0,477.19999998807907,1,0,1,27109,WMM2,1138500,false,false,1375,image-keyboard-response,30
true,8,1,1,1,true,z,false,true,0.0-2.0-0.46-0.422-3.422,1,0,0,90,false,stim,false,0,281.19999998807907,1,0,1,27109,WMM2,1140310,false,false,1378,image-keyboard-response,31
true,8,2,1,0,false,q,true,false,0.0-2.0-0.47-0.423-3.423,1,0,0,68,false,stim,false,0,848.1999999880791,1,1,0,27109,WMM2,1142690,false,false,1381,image-keyboard-response,32
true,8,1,1,2,false,d,false,false,0.0-2.0-0.47-0.424-3.424,1,0,0,90,false,stim,true,1,116.5,1,0,2,27109,WMM2,1144325,false,false,1384,image-keyboard-response,33
true,8,1,1,1,true,z,false,true,0.0-2.0-0.47-0.425-3.425,1,0,0,90,false,stim,false,0,365.0,1,0,1,27109,WMM2,1146220,false,false,1387,image-keyboard-response,34
true,8,1,1,0,false,q,true,false,0.0-2.0-0.47-0.426-3.426,1,0,0,90,false,stim,false,0,380.10000002384186,1,1,0,27109,WMM2,1148121,false,false,1390,image-keyboard-response,35
true,8,1,1,1,true,z,false,true,0.0-2.0-0.47-0.427-3.427,1,0,0,90,false,stim,false,0,556.3999999761581,1,0,1,27109,WMM2,1150198,false,false,1393,image-keyboard-response,36
true,8,1,1,0,false,q,true,false,0.0-2.0-0.47-0.428-3.428,1,0,0,90,false,stim,false,0,1155.0999999642372,1,1,0,27109,WMM2,1152878,false,false,1396,image-keyboard-response,37
true,8,1,1,1,true,z,false,true,0.0-2.0-0.47-0.429-3.429,1,0,0,90,false,stim,false,0,383.2000000476837,1,0,1,27109,WMM2,1154788,false,false,1399,image-keyboard-response,38
true,8,1,1,2,false,d,false,false,0.0-2.0-0.47-0.430-3.430,1,0,0,90,false,stim,true,1,491.5,1,0,2,27109,WMM2,1156819,false,false,1402,image-keyboard-response,39
true,8,1,1,2,false,d,false,false,0.0-2.0-0.47-0.431-3.431,1,0,0,90,false,stim,true,1,257.5999999642372,1,0,2,27109,WMM2,1158605,false,false,1405,image-keyboard-response,40
true,8,0,1,1,false,z,false,false,0.0-2.0-0.48-0.432-3.432,1,0,0,81,false,stim,true,0,697.6000000238419,1,0,1,27109,WMM2,1160837,false,false,1408,image-keyboard-response,41
true,8,2,1,0,false,q,true,false,0.0-2.0-0.48-0.433-3.433,1,0,0,68,false,stim,false,0,616.8999999761581,1,1,0,27109,WMM2,1162980,false,false,1411,image-keyboard-response,42
true,8,2,1,0,false,q,true,false,0.0-2.0-0.48-0.434-3.434,1,0,0,68,false,stim,false,0,1131.1000000238419,1,1,0,27109,WMM2,1165650,false,false,1414,image-keyboard-response,43
true,8,2,1,0,false,q,true,true,0.0-2.0-0.48-0.435-3.435,1,0,0,68,false,stim,false,0,520.3999999761581,1,1,0,27109,WMM2,1167685,false,true,1417,image-keyboard-response,44
true,8,2,1,1,false,z,true,false,0.0-2.0-0.48-0.436-3.436,1,0,0,68,false,stim,false,0,676.6000000238419,1,0,1,27109,WMM2,1169883,false,false,1420,image-keyboard-response,45
true,8,2,1,2,true,d,false,true,0.0-2.0-0.48-0.437-3.437,1,0,0,68,false,stim,false,1,677.5,1,0,2,27109,WMM2,1172080,false,false,1423,image-keyboard-response,46
true,8,1,1,1,true,z,false,true,0.0-2.0-0.48-0.438-3.438,1,0,0,90,false,stim,false,0,1709.7999999523163,1,0,1,27109,WMM2,1175312,false,false,1426,image-keyboard-response,47
true,8,1,1,2,false,d,false,false,0.0-2.0-0.48-0.439-3.439,1,0,0,90,false,stim,true,1,521.2000000476837,1,0,2,27109,WMM2,1177370,false,false,1429,image-keyboard-response,48
true,8,1,1,2,false,d,false,false,0.0-2.0-0.48-0.440-3.440,1,0,0,90,false,stim,true,1,1454.199999988079,1,0,2,27109,WMM2,1180338,false,false,1432,image-keyboard-response,49
true,8,1,1,2,false,d,false,false,0.0-2.0-0.49-0.441-3.441,1,0,0,90,false,stim,true,1,290.7999999523163,1,0,2,27109,WMM2,1182152,false,false,1435,image-keyboard-response,50
true,8,0,1,0,true,q,false,true,0.0-2.0-0.49-0.442-3.442,1,0,0,81,false,stim,false,0,331.80000001192093,1,1,0,27109,WMM2,1183998,false,false,1438,image-keyboard-response,51
true,8,0,1,2,false,d,true,false,0.0-2.0-0.49-0.443-3.443,1,0,0,81,false,stim,false,1,717.6999999880791,1,0,2,27109,WMM2,1186241,false,false,1441,image-keyboard-response,52
true,8,0,1,0,true,q,false,false,0.0-2.0-0.49-0.444-3.444,1,0,0,81,false,stim,false,0,275.30000001192093,1,1,0,27109,WMM2,1188047,false,true,1444,image-keyboard-response,53
true,8,1,1,1,true,z,false,true,0.0-2.0-0.49-0.445-3.445,1,0,0,90,false,stim,false,0,279.39999997615814,1,1,1,27109,WMM2,1189846,false,false,1447,image-keyboard-response,54
true,8,1,1,1,true,z,false,false,0.0-2.0-0.49-0.446-3.446,1,0,0,90,false,stim,false,0,390.0,1,1,1,27109,WMM2,1191759,false,true,1450,image-keyboard-response,55
true,8,2,1,1,false,z,true,false,0.0-2.0-0.49-0.447-3.447,1,0,0,68,false,stim,false,0,285.69999998807907,1,1,1,27109,WMM2,1193572,false,false,1453,image-keyboard-response,56
true,8,2,1,0,false,q,true,false,0.0-2.0-0.49-0.448-3.448,1,0,0,68,false,stim,false,0,406.5,1,1,0,27109,WMM2,1195497,false,false,1456,image-keyboard-response,57
true,8,1,1,2,false,d,false,false,0.0-2.0-0.49-0.449-3.449,1,0,0,90,false,stim,true,1,599.3000000119209,1,0,2,27109,WMM2,1197622,false,false,1459,image-keyboard-response,58
true,8,1,1,2,false,d,false,true,0.0-2.0-0.50-0.450-3.450,1,0,0,90,false,stim,true,1,275.30000001192093,1,0,2,27109,WMM2,1199416,false,true,1462,image-keyboard-response,59
true,8,1,1,2,false,d,false,false,0.0-2.0-0.50-0.451-3.451,1,0,0,90,false,stim,true,1,269.80000001192093,1,0,2,27109,WMM2,1201214,false,false,1465,image-keyboard-response,60
true,9,1,4,0,false,q,true,true,0.0-2.0-0.50-0.452-3.452,1,1,0,90,true,stim,false,0,287.89999997615814,1,1,0,27109,WMM2,1203020,false,true,1468,image-keyboard-response,1
true,9,2,4,0,false,q,true,false,0.0-2.0-0.50-0.453-3.453,1,1,0,68,false,stim,false,0,273.39999997615814,1,1,0,27109,WMM2,1204814,false,false,1471,image-keyboard-response,2
true,9,2,4,0,false,q,true,true,0.0-2.0-0.50-0.454-3.454,1,1,0,68,false,stim,false,0,372.80000001192093,1,1,0,27109,WMM2,1206701,false,true,1474,image-keyboard-response,3
true,9,0,4,2,false,d,true,false,0.0-2.0-0.50-0.455-3.455,1,1,0,81,false,stim,false,2,315.9000000357628,1,0,2,27109,WMM2,1208543,false,false,1477,image-keyboard-response,4
true,9,0,4,1,false,z,true,false,0.0-2.0-0.50-0.456-3.456,1,1,0,81,false,stim,false,1,269.89999997615814,1,1,1,27109,WMM2,1210339,false,false,1480,image-keyboard-response,5
true,9,1,4,1,true,z,false,true,0.0-2.0-0.50-0.457-3.457,1,1,0,90,false,stim,false,1,833.8000000119209,1,1,1,27109,WMM2,1212702,false,false,1483,image-keyboard-response,6
true,9,1,4,1,true,z,false,true,0.0-2.0-0.50-0.458-3.458,1,1,0,90,false,stim,false,1,2057.400000035763,1,1,1,27109,WMM2,1216276,false,false,1486,image-keyboard-response,7
true,9,1,4,1,true,z,false,true,0.0-2.0-0.51-0.459-3.459,1,1,0,90,false,stim,false,1,809.8000000119209,1,1,1,27109,WMM2,1218605,false,false,1489,image-keyboard-response,8
true,9,2,4,2,true,d,false,false,0.0-2.0-0.51-0.460-3.460,1,1,0,68,false,stim,false,2,1630.5,1,0,2,27109,WMM2,1221757,false,true,1492,image-keyboard-response,9
true,9,0,4,2,false,d,true,false,0.0-2.0-0.51-0.461-3.461,1,1,0,81,false,stim,false,2,875.6999999880791,1,0,2,27109,WMM2,1224168,false,false,1495,image-keyboard-response,10
true,9,1,4,0,false,q,true,false,0.0-2.0-0.51-0.462-3.462,1,1,0,90,false,stim,false,0,833.0,1,1,0,27109,WMM2,1226529,false,false,1498,image-keyboard-response,11
true,9,2,4,0,false,q,true,false,0.0-2.0-0.51-0.463-3.463,1,1,0,68,false,stim,false,0,723.8999999761581,1,1,0,27109,WMM2,1228793,false,false,1501,image-keyboard-response,12
true,9,1,4,2,false,d,true,false,0.0-2.0-0.51-0.464-3.464,1,1,0,90,false,stim,false,2,489.19999998807907,1,0,2,27109,WMM2,1230795,false,false,1504,image-keyboard-response,13
true,9,0,4,0,true,q,false,true,0.0-2.0-0.51-0.465-3.465,1,1,0,81,false,stim,false,0,2129.100000023842,1,1,0,27109,WMM2,1234436,false,false,1507,image-keyboard-response,14
true,9,1,4,1,true,z,false,false,0.0-2.0-0.51-0.466-3.466,1,1,0,90,false,stim,false,1,1915.300000011921,1,1,1,27109,WMM2,1237889,false,true,1510,image-keyboard-response,15
true,9,1,4,1,true,z,false,true,0.0-2.0-0.51-0.467-3.467,1,1,0,90,false,stim,false,1,461.5999999642372,1,1,1,27109,WMM2,1239871,false,false,1513,image-keyboard-response,16
true,9,2,4,0,false,q,true,true,0.0-2.0-0.52-0.468-3.468,1,1,0,68,false,stim,false,0,571.6999999880791,1,1,0,27109,WMM2,1241974,false,true,1516,image-keyboard-response,17
true,9,0,4,1,false,z,true,false,0.0-2.0-0.52-0.469-3.469,1,1,0,81,false,stim,false,1,679.0999999642372,1,1,1,27109,WMM2,1244183,false,false,1519,image-keyboard-response,18
true,9,0,4,1,false,z,true,false,0.0-2.0-0.52-0.470-3.470,1,1,0,81,false,stim,false,1,425.80000001192093,1,1,1,27109,WMM2,1246124,false,false,1522,image-keyboard-response,19
true,9,0,4,1,false,z,true,false,0.0-2.0-0.52-0.471-3.471,1,1,0,81,false,stim,false,1,261.10000002384186,1,1,1,27109,WMM2,1247913,false,false,1525,image-keyboard-response,20
true,9,1,4,0,false,q,true,false,0.0-2.0-0.52-0.472-3.472,1,1,0,90,false,stim,false,0,1089.5,1,1,0,27109,WMM2,1250528,false,false,1528,image-keyboard-response,21
true,9,1,4,0,false,q,true,false,0.0-2.0-0.52-0.473-3.473,1,1,0,90,false,stim,false,0,553.0,1,1,0,27109,WMM2,1252607,false,false,1531,image-keyboard-response,22
true,9,2,4,2,true,d,false,true,0.0-2.0-0.52-0.474-3.474,1,1,0,68,false,stim,false,2,55.69999998807907,1,0,2,27109,WMM2,1254195,false,false,1534,image-keyboard-response,23
true,9,1,4,2,false,d,true,false,0.0-2.0-0.52-0.475-3.475,1,1,0,90,false,stim,false,2,1436.8999999761581,1,0,2,27109,WMM2,1257165,false,false,1537,image-keyboard-response,24
true,9,1,4,2,false,d,true,false,0.0-2.0-0.52-0.476-3.476,1,1,0,90,false,stim,false,2,562.1000000238419,1,0,2,27109,WMM2,1259260,false,false,1540,image-keyboard-response,25
true,9,0,4,0,true,q,false,true,0.0-2.0-0.53-0.477-3.477,1,1,0,81,false,stim,false,0,284.10000002384186,1,1,0,27109,WMM2,1261084,false,false,1543,image-keyboard-response,26
true,9,0,4,2,false,d,true,false,0.0-2.0-0.53-0.478-3.478,1,1,0,81,false,stim,false,2,250.69999998807907,1,0,2,27109,WMM2,1262849,false,false,1546,image-keyboard-response,27
true,9,0,4,2,false,d,true,true,0.0-2.0-0.53-0.479-3.479,1,1,0,81,false,stim,false,2,227.5,1,0,2,27109,WMM2,1264603,false,true,1549,image-keyboard-response,28
true,9,2,4,1,false,z,true,false,0.0-2.0-0.53-0.480-3.480,1,1,0,68,false,stim,false,1,689.8000000119209,1,1,1,27109,WMM2,1266812,false,false,1552,image-keyboard-response,29
true,9,2,4,0,false,q,true,false,0.0-2.0-0.53-0.481-3.481,1,1,0,68,false,stim,false,0,392.0999999642372,1,1,0,27109,WMM2,1268738,false,false,1555,image-keyboard-response,30
true,9,1,4,1,true,z,false,true,0.0-2.0-0.53-0.482-3.482,1,1,0,90,false,stim,false,1,368.0,1,1,1,27109,WMM2,1270627,false,false,1558,image-keyboard-response,31
true,9,1,4,2,false,d,true,false,0.0-2.0-0.53-0.483-3.483,1,1,0,90,false,stim,false,2,10.600000023841858,1,0,2,27109,WMM2,1272157,false,false,1561,image-keyboard-response,32
true,9,1,4,1,true,z,false,true,0.0-2.0-0.53-0.484-3.484,1,1,0,90,false,stim,false,1,192.0,1,1,1,27109,WMM2,1273877,false,false,1564,image-keyboard-response,33
true,9,1,4,0,false,q,true,false,0.0-2.0-0.53-0.485-3.485,1,1,0,90,false,stim,false,0,1111.800000011921,1,1,0,27109,WMM2,1276518,false,false,1567,image-keyboard-response,34
true,9,1,4,0,false,q,true,false,0.0-2.0-0.54-0.486-3.486,1,1,0,90,false,stim,false,0,1594.199999988079,1,1,0,27109,WMM2,1279639,false,false,1570,image-keyboard-response,35
true,9,2,4,2,true,d,false,true,0.0-2.0-0.54-0.487-3.487,1,1,0,68,false,stim,false,2,561.1999999880791,1,0,2,27109,WMM2,1281728,false,false,1573,image-keyboard-response,36
true,9,0,4,2,false,d,true,true,0.0-2.0-0.54-0.488-3.488,1,1,0,81,false,stim,false,2,358.2999999523163,1,0,2,27109,WMM2,1283612,false,true,1576,image-keyboard-response,37
true,9,0,4,1,false,z,true,false,0.0-2.0-0.54-0.489-3.489,1,1,0,81,false,stim,false,1,459.0999999642372,1,1,1,27109,WMM2,1285597,false,false,1579,image-keyboard-response,38
true,9,0,4,1,false,z,true,false,0.0-2.0-0.54-0.490-3.490,1,1,0,81,false,stim,false,1,851.6999999880791,1,1,1,27109,WMM2,1287976,false,false,1582,image-keyboard-response,39
true,9,1,4,1,true,z,false,false,0.0-2.0-0.54-0.491-3.491,1,1,0,90,false,stim,false,1,733.7999999523163,1,1,1,27109,WMM2,1290247,false,true,1585,image-keyboard-response,40
true,9,1,4,0,false,q,true,false,0.0-2.0-0.54-0.492-3.492,1,1,0,90,false,stim,false,0,737.2999999523163,1,1,0,27109,WMM2,1292514,false,false,1588,image-keyboard-response,41
true,9,2,4,0,false,q,true,false,0.0-2.0-0.54-0.493-3.493,1,1,0,68,false,stim,false,0,113.0,1,1,0,27109,WMM2,1294156,false,false,1591,image-keyboard-response,42
true,9,2,4,2,true,d,false,true,0.0-2.0-0.54-0.494-3.494,1,1,0,68,false,stim,false,2,82.10000002384186,1,0,2,27109,WMM2,1295763,false,false,1594,image-keyboard-response,43
true,9,1,4,1,true,z,false,true,0.0-2.0-0.55-0.495-3.495,1,1,0,90,false,stim,false,1,732.6999999880791,1,1,1,27109,WMM2,1298025,false,false,1597,image-keyboard-response,44
true,9,1,4,2,false,d,true,false,0.0-2.0-0.55-0.496-3.496,1,1,0,90,false,stim,false,2,1418.5999999642372,1,0,2,27109,WMM2,1300973,false,false,1600,image-keyboard-response,45
true,9,1,4,1,true,z,false,true,0.0-2.0-0.55-0.497-3.497,1,1,0,90,false,stim,false,1,508.30000001192093,1,1,1,27109,WMM2,1303024,false,false,1603,image-keyboard-response,46
true,9,0,4,0,true,q,false,true,0.0-2.0-0.55-0.498-3.498,1,1,0,81,false,stim,false,0,2264.5,1,1,0,27109,WMM2,1306818,false,false,1606,image-keyboard-response,47
true,9,0,4,2,false,d,true,false,0.0-2.0-0.55-0.499-3.499,1,1,0,81,false,stim,false,2,298.30000001192093,1,0,2,27109,WMM2,1308645,false,false,1609,image-keyboard-response,48
true,9,0,4,2,false,d,true,false,0.0-2.0-0.55-0.500-3.500,1,1,0,81,false,stim,false,2,749.9000000357628,1,0,2,27109,WMM2,1310921,false,false,1612,image-keyboard-response,49
true,9,2,4,0,false,q,true,false,0.0-2.0-0.55-0.501-3.501,1,1,0,68,false,stim,false,0,355.5999999642372,1,1,0,27109,WMM2,1312803,false,false,1615,image-keyboard-response,50
true,9,2,4,0,false,q,true,false,0.0-2.0-0.55-0.502-3.502,1,1,0,68,false,stim,false,0,223.39999997615814,1,0,0,27109,WMM2,1314548,false,false,1618,image-keyboard-response,51
true,9,1,4,1,true,z,false,true,0.0-2.0-0.55-0.503-3.503,1,1,0,90,false,stim,false,1,495.0,1,1,1,27109,WMM2,1316567,false,false,1621,image-keyboard-response,52
true,9,1,4,2,false,d,true,false,0.0-2.0-0.56-0.504-3.504,1,1,0,90,false,stim,false,2,356.30000001192093,1,1,2,27109,WMM2,1318448,false,false,1624,image-keyboard-response,53
true,9,1,4,0,false,q,true,false,0.0-2.0-0.56-0.505-3.505,1,1,0,90,false,stim,false,0,413.69999998807907,1,0,0,27109,WMM2,1320391,false,false,1627,image-keyboard-response,54
true,9,1,4,2,false,d,true,true,0.0-2.0-0.56-0.506-3.506,1,1,0,90,false,stim,false,2,82.10000002384186,1,1,2,27109,WMM2,1321997,false,true,1630,image-keyboard-response,55
true,9,2,4,1,false,z,true,true,0.0-2.0-0.56-0.507-3.507,1,1,0,68,false,stim,false,1,298.69999998807907,1,1,1,27109,WMM2,1323820,false,true,1633,image-keyboard-response,56
true,9,0,4,0,true,q,false,true,0.0-2.0-0.56-0.508-3.508,1,1,0,81,false,stim,false,0,299.5999999642372,1,0,0,27109,WMM2,1325647,false,false,1636,image-keyboard-response,57
true,9,2,4,2,true,d,false,true,0.0-2.0-0.56-0.509-3.509,1,1,0,68,false,stim,false,2,72.5,1,1,2,27109,WMM2,1327252,false,false,1639,image-keyboard-response,58
true,9,0,4,1,false,z,true,false,0.0-2.0-0.56-0.510-3.510,1,1,0,81,false,stim,false,1,415.30000001192093,1,1,1,27109,WMM2,1329188,false,false,1642,image-keyboard-response,59
true,9,0,4,0,true,q,false,false,0.0-2.0-0.56-0.511-3.511,1,1,0,81,false,stim,false,0,513.6000000238419,1,0,0,27109,WMM2,1331225,false,true,1645,image-keyboard-response,60
true,10,1,2,1,true,z,false,true,0.0-2.0-0.56-0.512-3.512,0,1,1,90,true,stim,false,1,796.1000000238419,1,1,1,27109,WMM2,1333540,false,false,1648,image-keyboard-response,1
true,10,2,2,1,false,z,true,false,0.0-2.0-0.57-0.513-3.513,0,1,1,68,false,stim,false,1,592.8000000119209,1,1,1,27109,WMM2,1335657,false,false,1651,image-keyboard-response,2
true,10,2,2,2,true,d,false,false,0.0-2.0-0.57-0.514-3.514,0,1,1,68,false,stim,false,0,263.5,1,0,0,27109,WMM2,1337438,false,true,1654,image-keyboard-response,3
true,10,2,2,2,true,d,false,true,0.0-2.0-0.57-0.515-3.515,0,1,1,68,false,stim,false,0,335.4000000357628,1,0,0,27109,WMM2,1339296,false,false,1657,image-keyboard-response,4
true,10,1,2,2,false,d,true,false,0.0-2.0-0.57-0.516-3.516,0,1,1,90,false,stim,false,2,151.5999999642372,1,1,2,27109,WMM2,1340965,false,false,1660,image-keyboard-response,5
true,10,1,2,2,false,d,true,false,0.0-2.0-0.57-0.517-3.517,0,1,1,90,false,stim,false,0,376.5999999642372,1,0,0,27109,WMM2,1342865,false,false,1663,image-keyboard-response,6
true,10,1,2,1,true,z,false,false,0.0-2.0-0.57-0.518-3.518,0,1,1,90,false,stim,false,1,664.1000000238419,1,1,1,27109,WMM2,1345039,false,true,1666,image-keyboard-response,7
true,10,0,2,2,false,d,true,false,0.0-2.0-0.57-0.519-3.519,0,1,1,81,false,stim,false,2,416.30000001192093,1,1,2,27109,WMM2,1346974,false,false,1669,image-keyboard-response,8
true,10,0,2,1,false,z,true,false,0.0-2.0-0.57-0.520-3.520,0,1,1,81,false,stim,false,1,659.3999999761581,1,1,1,27109,WMM2,1349154,false,false,1672,image-keyboard-response,9
true,10,1,2,2,false,d,true,false,0.0-2.0-0.57-0.521-3.521,0,1,1,90,false,stim,false,2,1142.1000000238419,1,1,2,27109,WMM2,1351822,false,false,1675,image-keyboard-response,10
true,10,1,2,2,false,d,true,false,0.0-2.0-0.58-0.522-3.522,0,1,1,90,false,stim,false,2,375.30000001192093,1,1,2,27109,WMM2,1353720,false,false,1678,image-keyboard-response,11
true,10,2,2,1,false,z,true,false,0.0-2.0-0.58-0.523-3.523,0,1,1,68,false,stim,false,1,202.60000002384186,1,1,1,27109,WMM2,1355440,false,false,1681,image-keyboard-response,12
true,10,2,2,2,true,d,false,true,0.0-2.0-0.58-0.524-3.524,0,1,1,68,false,stim,false,0,415.4000000357628,1,0,0,27109,WMM2,1357368,false,false,1684,image-keyboard-response,13
true,10,2,2,2,true,d,false,true,0.0-2.0-0.58-0.525-3.525,0,1,1,68,false,stim,false,2,253.30000001192093,1,1,2,27109,WMM2,1359142,false,false,1687,image-keyboard-response,14
true,10,1,2,1,true,z,false,true,0.0-2.0-0.58-0.526-3.526,0,1,1,90,false,stim,false,1,439.7999999523163,1,1,1,27109,WMM2,1361103,false,false,1690,image-keyboard-response,15
true,10,2,2,2,true,d,false,true,0.0-2.0-0.58-0.527-3.527,0,1,1,68,false,stim,false,0,344.30000001192093,1,0,0,27109,WMM2,1362958,false,false,1693,image-keyboard-response,16
true,10,2,2,1,false,z,true,false,0.0-2.0-0.58-0.528-3.528,0,1,1,68,false,stim,false,1,157.5999999642372,1,1,1,27109,WMM2,1364641,false,false,1696,image-keyboard-response,17
true,10,2,2,2,true,d,false,true,0.0-2.0-0.58-0.529-3.529,0,1,1,68,false,stim,false,0,222.89999997615814,1,0,0,27109,WMM2,1366394,false,false,1699,image-keyboard-response,18
true,10,2,2,2,true,d,false,true,0.0-2.0-0.58-0.530-3.530,0,1,1,68,false,stim,false,2,271.60000002384186,1,1,2,27109,WMM2,1368198,false,false,1702,image-keyboard-response,19
true,10,1,2,2,false,d,true,false,0.0-2.0-0.59-0.531-3.531,0,1,1,90,false,stim,false,2,251.80000001192093,1,1,2,27109,WMM2,1369967,false,false,1705,image-keyboard-response,20
true,10,1,2,2,false,d,true,false,0.0-2.0-0.59-0.532-3.532,0,1,1,90,false,stim,false,2,237.19999998807907,1,1,2,27109,WMM2,1371721,false,false,1708,image-keyboard-response,21
true,10,2,2,2,true,d,false,true,0.0-2.0-0.59-0.533-3.533,0,1,1,68,false,stim,false,2,344.10000002384186,1,1,2,27109,WMM2,1373599,false,false,1711,image-keyboard-response,22
true,10,1,2,1,true,z,false,true,0.0-2.0-0.59-0.534-3.534,0,1,1,90,false,stim,false,1,322.2999999523163,1,1,1,27109,WMM2,1375455,false,false,1714,image-keyboard-response,23
true,10,1,2,1,true,z,false,true,0.0-2.0-0.59-0.535-3.535,0,1,1,90,false,stim,false,1,322.69999998807907,1,1,1,27109,WMM2,1377309,false,false,1717,image-keyboard-response,24
true,10,1,2,2,false,d,true,false,0.0-2.0-0.59-0.536-3.536,0,1,1,90,false,stim,false,0,336.2999999523163,1,0,0,27109,WMM2,1379169,false,false,1720,image-keyboard-response,25
true,10,1,2,2,false,d,true,false,0.0-2.0-0.59-0.537-3.537,0,1,1,90,false,stim,false,0,410.0,1,0,0,27109,WMM2,1381098,false,false,1723,image-keyboard-response,26
true,10,2,2,2,true,d,false,true,0.0-2.0-0.59-0.538-3.538,0,1,1,68,false,stim,false,0,356.30000001192093,1,0,0,27109,WMM2,1382978,false,false,1726,image-keyboard-response,27
true,10,2,2,1,false,z,true,false,0.0-2.0-0.59-0.539-3.539,0,1,1,68,false,stim,false,1,563.5,1,1,1,27109,WMM2,1385072,false,false,1729,image-keyboard-response,28
true,10,1,2,2,false,d,true,false,0.0-2.0-0.60-0.540-3.540,0,1,1,90,false,stim,false,2,131.0,1,1,2,27109,WMM2,1386733,false,false,1732,image-keyboard-response,29
true,10,1,2,1,true,z,false,true,0.0-2.0-0.60-0.541-3.541,0,1,1,90,false,stim,false,1,293.0,1,1,1,27109,WMM2,1388550,false,false,1735,image-keyboard-response,30
true,10,0,2,1,false,z,true,true,0.0-2.0-0.60-0.542-3.542,0,1,1,81,false,stim,false,1,572.9000000357628,1,1,1,27109,WMM2,1390644,false,true,1738,image-keyboard-response,31
true,10,2,2,2,true,d,false,true,0.0-2.0-0.60-0.543-3.543,0,1,1,68,false,stim,false,0,326.0,1,0,0,27109,WMM2,1392499,false,false,1741,image-keyboard-response,32
true,10,2,2,2,true,d,false,false,0.0-2.0-0.60-0.544-3.544,0,1,1,68,false,stim,false,2,646.9000000357628,1,1,2,27109,WMM2,1394673,false,true,1744,image-keyboard-response,33
true,10,1,2,1,true,z,false,true,0.0-2.0-0.60-0.545-3.545,0,1,1,90,false,stim,false,1,253.0,1,1,1,27109,WMM2,1396454,false,false,1747,image-keyboard-response,34
true,10,0,2,2,false,d,false,false,0.0-2.0-0.60-0.546-3.546,0,1,1,81,false,stim,true,0,1009.6000000238419,1,0,0,27109,WMM2,1398999,false,false,1750,image-keyboard-response,35
true,10,0,2,2,false,d,false,false,0.0-2.0-0.60-0.547-3.547,0,1,1,81,false,stim,true,0,5.0,1,0,0,27109,WMM2,1400537,false,false,1753,image-keyboard-response,36
true,10,0,2,2,false,d,true,false,0.0-2.0-0.60-0.548-3.548,0,1,1,81,false,stim,false,2,807.3999999761581,1,1,2,27109,WMM2,1402883,false,false,1756,image-keyboard-response,37
true,10,2,2,2,true,d,false,false,0.0-2.0-0.61-0.549-3.549,0,1,1,68,false,stim,false,2,200.60000002384186,1,1,2,27109,WMM2,1404605,false,true,1759,image-keyboard-response,38
true,10,1,2,1,true,z,false,true,0.0-2.0-0.61-0.550-3.550,0,1,1,90,false,stim,false,1,867.2000000476837,1,1,1,27109,WMM2,1406998,false,false,1762,image-keyboard-response,39
true,10,1,2,2,false,d,true,false,0.0-2.0-0.61-0.551-3.551,0,1,1,90,false,stim,false,2,643.1000000238419,1,1,2,27109,WMM2,1409168,false,false,1765,image-keyboard-response,40
true,10,2,2,1,false,z,true,true,0.0-2.0-0.61-0.552-3.552,0,1,1,68,false,stim,false,1,290.0,1,1,1,27109,WMM2,1410983,false,true,1768,image-keyboard-response,41
true,10,0,2,1,false,z,true,false,0.0-2.0-0.61-0.553-3.553,0,1,1,81,false,stim,false,1,441.80000001192093,1,1,1,27109,WMM2,1412955,false,false,1771,image-keyboard-response,42
true,10,0,2,2,false,d,true,false,0.0-2.0-0.61-0.554-3.554,0,1,1,81,false,stim,false,2,254.0,1,1,2,27109,WMM2,1414738,false,false,1774,image-keyboard-response,43
true,10,1,2,2,false,d,true,false,0.0-2.0-0.61-0.555-3.555,0,1,1,90,false,stim,false,0,694.3000000119209,1,0,0,27109,WMM2,1416948,false,false,1777,image-keyboard-response,44
true,10,1,2,2,false,d,true,false,0.0-2.0-0.61-0.556-3.556,0,1,1,90,false,stim,false,0,441.39999997615814,1,0,0,27109,WMM2,1418913,false,false,1780,image-keyboard-response,45
true,10,1,2,2,false,d,true,false,0.0-2.0-0.61-0.557-3.557,0,1,1,90,false,stim,false,0,1265.800000011921,1,0,0,27109,WMM2,1421707,false,false,1783,image-keyboard-response,46
true,10,0,2,2,false,d,true,false,0.0-2.0-0.62-0.558-3.558,0,1,1,81,false,stim,false,2,1030.7000000476837,1,1,2,27109,WMM2,1424276,false,false,1786,image-keyboard-response,47
true,10,2,2,1,false,z,true,false,0.0-2.0-0.62-0.559-3.559,0,1,1,68,false,stim,false,1,923.0,1,1,1,27109,WMM2,1426727,false,false,1789,image-keyboard-response,48
true,10,2,2,2,true,d,false,true,0.0-2.0-0.62-0.560-3.560,0,1,1,68,false,stim,false,0,266.69999998807907,1,0,0,27109,WMM2,1428520,false,false,1792,image-keyboard-response,49
true,10,2,2,2,true,d,false,false,0.0-2.0-0.62-0.561-3.561,0,1,1,68,false,stim,false,2,268.30000001192093,1,1,2,27109,WMM2,1430309,false,true,1795,image-keyboard-response,50
true,10,2,2,2,true,d,false,true,0.0-2.0-0.62-0.562-3.562,0,1,1,68,false,stim,false,0,221.69999998807907,1,1,0,27109,WMM2,1432070,false,false,1798,image-keyboard-response,51
true,10,0,2,2,false,d,false,false,0.0-2.0-0.62-0.563-3.563,0,1,1,81,false,stim,true,0,314.69999998807907,1,1,0,27109,WMM2,1433939,false,false,1801,image-keyboard-response,52
true,10,2,2,1,false,z,true,false,0.0-2.0-0.62-0.564-3.564,0,1,1,68,false,stim,false,1,195.0,1,0,1,27109,WMM2,1435664,false,false,1804,image-keyboard-response,53
true,10,1,2,1,true,z,false,true,0.0-2.0-0.62-0.565-3.565,0,1,1,90,false,stim,false,1,1900.199999988079,1,0,1,27109,WMM2,1439090,false,false,1807,image-keyboard-response,54
true,10,2,2,2,true,d,false,true,0.0-2.0-0.62-0.566-3.566,0,1,1,68,false,stim,false,2,486.0999999642372,1,1,2,27109,WMM2,1441111,false,false,1810,image-keyboard-response,55
true,10,2,2,2,true,d,false,true,0.0-2.0-0.63-0.567-3.567,0,1,1,68,false,stim,false,0,310.69999998807907,1,1,0,27109,WMM2,1442946,false,false,1813,image-keyboard-response,56
true,10,2,2,1,false,z,true,false,0.0-2.0-0.63-0.568-3.568,0,1,1,68,false,stim,false,1,172.69999998807907,1,0,1,27109,WMM2,1444630,false,false,1816,image-keyboard-response,57
true,10,1,2,2,false,d,true,false,0.0-2.0-0.63-0.569-3.569,0,1,1,90,false,stim,false,2,1039.5,1,1,2,27109,WMM2,1447185,false,false,1819,image-keyboard-response,58
true,10,1,2,2,false,d,true,false,0.0-2.0-0.63-0.570-3.570,0,1,1,90,false,stim,false,2,593.1000000238419,1,1,2,27109,WMM2,1449303,false,false,1822,image-keyboard-response,59
true,10,0,2,2,false,d,false,false,0.0-2.0-0.63-0.571-3.571,0,1,1,81,false,stim,true,0,1524.3999999761581,1,1,0,27109,WMM2,1452337,false,false,1825,image-keyboard-response,60
true,11,2,2,2,true,d,false,true,0.0-2.0-0.63-0.572-3.572,1,0,1,68,true,stim,false,2,2211.5,1,1,0,27109,WMM2,1456076,false,false,1828,image-keyboard-response,1
true,11,1,2,2,false,d,true,false,0.0-2.0-0.63-0.573-3.573,1,0,1,90,false,stim,false,2,520.8999999761581,1,1,2,27109,WMM2,1458119,false,false,1831,image-keyboard-response,2
false,11,-1,2,0,false,q,true,false,0.0-2.0-0.63-0.574-3.574,1,0,1,,false,stim,false,1,,1,0,1,27109,WMM2,1462648,false,false,1834,image-keyboard-response,3
true,11,1,2,0,false,q,false,false,0.0-2.0-0.63-0.575-3.575,1,0,1,90,false,stim,true,1,1560.3999999761581,1,0,1,27109,WMM2,1465730,false,false,1837,image-keyboard-response,4
true,11,2,2,2,true,d,false,true,0.0-2.0-0.64-0.576-3.576,1,0,1,68,false,stim,false,2,470.69999998807907,1,1,0,27109,WMM2,1467734,false,false,1840,image-keyboard-response,5
true,11,2,2,2,true,d,false,true,0.0-2.0-0.64-0.577-3.577,1,0,1,68,false,stim,false,2,1086.1000000238419,1,1,0,27109,WMM2,1470342,false,false,1843,image-keyboard-response,6
true,11,2,2,0,false,q,true,false,0.0-2.0-0.64-0.578-3.578,1,0,1,68,false,stim,false,1,358.2000000476837,1,0,1,27109,WMM2,1472225,false,false,1846,image-keyboard-response,7
true,11,1,2,2,false,d,true,true,0.0-2.0-0.64-0.579-3.579,1,0,1,90,false,stim,false,2,670.0,1,1,2,27109,WMM2,1474405,false,true,1849,image-keyboard-response,8
true,11,1,2,0,false,q,false,false,0.0-2.0-0.64-0.580-3.580,1,0,1,90,false,stim,true,1,940.8999999761581,1,0,1,27109,WMM2,1476877,false,false,1852,image-keyboard-response,9
true,11,1,2,0,false,q,false,false,0.0-2.0-0.64-0.581-3.581,1,0,1,90,false,stim,true,1,18.899999976158142,1,0,1,27109,WMM2,1478421,false,false,1855,image-keyboard-response,10
true,11,1,2,2,false,d,true,false,0.0-2.0-0.64-0.582-3.582,1,0,1,90,false,stim,false,2,442.89999997615814,1,1,2,27109,WMM2,1480385,false,false,1858,image-keyboard-response,11
true,11,0,2,2,false,d,true,false,0.0-2.0-0.64-0.583-3.583,1,0,1,81,false,stim,false,2,890.1999999880791,1,1,2,27109,WMM2,1482798,false,false,1861,image-keyboard-response,12
true,11,0,2,2,false,d,true,false,0.0-2.0-0.64-0.584-3.584,1,0,1,81,false,stim,false,2,536.8000000119209,1,1,0,27109,WMM2,1484863,false,false,1864,image-keyboard-response,13
true,11,2,2,0,false,q,true,false,0.0-2.0-0.65-0.585-3.585,1,0,1,68,false,stim,false,1,904.6999999880791,1,0,1,27109,WMM2,1487285,false,false,1867,image-keyboard-response,14
true,11,2,2,0,false,q,true,false,0.0-2.0-0.65-0.586-3.586,1,0,1,68,false,stim,false,1,536.3999999761581,1,0,1,27109,WMM2,1489349,false,false,1870,image-keyboard-response,15
true,11,2,2,2,true,d,false,true,0.0-2.0-0.65-0.587-3.587,1,0,1,68,false,stim,false,2,1900.0999999642372,1,1,2,27109,WMM2,1492766,false,false,1873,image-keyboard-response,16
true,11,1,2,2,false,d,true,false,0.0-2.0-0.65-0.588-3.588,1,0,1,90,false,stim,false,2,471.5999999642372,1,1,0,27109,WMM2,1494770,false,false,1876,image-keyboard-response,17
true,11,1,2,2,false,d,true,false,0.0-2.0-0.65-0.589-3.589,1,0,1,90,false,stim,false,2,743.3000000119209,1,1,0,27109,WMM2,1497037,false,false,1879,image-keyboard-response,18
true,11,1,2,2,false,d,true,false,0.0-2.0-0.65-0.590-3.590,1,0,1,90,false,stim,false,2,406.19999998807907,1,1,0,27109,WMM2,1498967,false,false,1882,image-keyboard-response,19
true,11,1,2,2,false,d,true,false,0.0-2.0-0.65-0.591-3.591,1,0,1,90,false,stim,false,2,452.0,1,1,2,27109,WMM2,1500933,false,false,1885,image-keyboard-response,20
true,11,1,2,2,false,d,true,false,0.0-2.0-0.65-0.592-3.592,1,0,1,90,false,stim,false,2,543.0,1,1,2,27109,WMM2,1502993,false,false,1888,image-keyboard-response,21
true,11,0,2,0,true,q,false,true,0.0-2.0-0.65-0.593-3.593,1,0,1,81,false,stim,false,1,288.39999997615814,1,0,1,27109,WMM2,1504815,false,false,1891,image-keyboard-response,22
