answered,blockNum,choice,condition,corResp,correct,correct_response,explo,fb,internal_node_id,isStable_1,isStable_2,isStable_3,key_press,newBlock,part,persev,persevResp,rt,sessNum,stableAS,stimulus,subject,task,time_elapsed,training,trap,trial_index,trial_type,trialsInBlock
true,1,1,0,2,false,d,true,false,0.0-2.0-0.0-0.0-3.0,0,0,0,90,true,stim,false,-1,2069.600000023842,0,0,2,27109,WMM2,224536,false,false,114,image-keyboard-response,1
true,1,0,0,1,false,z,true,false,0.0-2.0-0.0-0.1-3.1,0,0,0,81,false,stim,false,-1,651.6000000238419,0,0,1,27109,WMM2,226715,false,false,117,image-keyboard-response,2
true,1,2,0,2,true,d,false,true,0.0-2.0-0.0-0.2-3.2,0,0,0,68,false,stim,false,-1,618.0,0,0,2,27109,WMM2,228840,false,false,120,image-keyboard-response,3
true,1,1,0,1,true,z,false,true,0.0-2.0-0.0-0.3-3.3,0,0,0,90,false,stim,false,-1,569.2000000476837,0,0,0,27109,WMM2,230940,false,false,123,image-keyboard-response,4
true,1,2,0,2,true,d,false,true,0.0-2.0-0.0-0.4-3.4,0,0,0,68,false,stim,false,-1,801.7999999523163,0,0,2,27109,WMM2,233267,false,false,126,image-keyboard-response,5
true,1,1,0,1,true,z,false,true,0.0-2.0-0.0-0.5-3.5,0,0,0,90,false,stim,false,-1,1037.6000000238419,0,0,1,27109,WMM2,235821,false,false,129,image-keyboard-response,6
true,1,1,0,1,true,z,false,true,0.0-2.0-0.0-0.6-3.6,0,0,0,90,false,stim,false,-1,509.59999990463257,0,0,1,27109,WMM2,237859,false,false,132,image-keyboard-response,7
true,1,0,0,1,false,z,true,false,0.0-2.0-0.0-0.7-3.7,0,0,0,81,false,stim,false,-1,559.8000000715256,0,0,0,27109,WMM2,239931,false,false,135,image-keyboard-response,8
true,1,1,0,1,true,z,false,true,0.0-2.0-0.0-0.8-3.8,0,0,0,90,false,stim,false,-1,579.7000000476837,0,0,0,27109,WMM2,242036,false,false,138,image-keyboard-response,9
true,1,2,0,2,true,d,false,true,0.0-2.0-0.1-0.9-3.9,0,0,0,68,false,stim,false,-1,426.10000002384186,0,0,2,27109,WMM2,243977,false,false,141,image-keyboard-response,10
true,1,2,0,2,true,d,false,false,0.0-2.0-0.1-0.10-3.10,0,0,0,68,false,stim,false,-1,1970.7999999523163,0,0,2,27109,WMM2,247463,false,true,144,image-keyboard-response,11
true,1,1,0,1,true,z,false,true,0.0-2.0-0.1-0.11-3.11,0,0,0,90,false,stim,false,-1,788.6999999284744,0,0,0,27109,WMM2,249770,false,false,147,image-keyboard-response,12
true,1,1,0,1,true,z,false,true,0.0-2.0-0.1-0.12-3.12,0,0,0,90,false,stim,false,-1,703.2000000476837,0,0,1,27109,WMM2,251995,false,false,150,image-keyboard-response,13
true,1,1,0,1,true,z,false,true,0.0-2.0-0.1-0.13-3.13,0,0,0,90,false,stim,false,-1,790.7000000476837,0,0,0,27109,WMM2,254298,false,false,153,image-keyboard-response,14
true,1,1,0,1,true,z,false,true,0.0-2.0-0.1-0.14-3.14,0,0,0,90,false,stim,false,-1,1234.5,0,0,1,27109,WMM2,257066,false,false,156,image-keyboard-response,15
true,1,1,0,1,true,z,false,false,0.0-2.0-0.1-0.15-3.15,0,0,0,90,false,stim,false,-1,904.0,0,0,0,27109,WMM2,259482,false,true,159,image-keyboard-response,16
true,1,1,0,2,false,d,true,true,0.0-2.0-0.1-0.16-3.16,0,0,0,90,false,stim,false,-1,488.09999990463257,0,0,2,27109,WMM2,261506,false,true,162,image-keyboard-response,17
true,1,1,0,1,true,z,false,true,0.0-2.0-0.1-0.17-3.17,0,0,0,90,false,stim,false,-1,850.8000000715256,0,0,1,27109,WMM2,263881,false,false,165,image-keyboard-response,18
true,1,1,0,1,true,z,false,true,0.0-2.0-0.2-0.18-3.18,0,0,0,90,false,stim,false,-1,1396.8999999761581,0,0,0,27109,WMM2,266791,false,false,168,image-keyboard-response,19
true,1,1,0,2,false,d,true,false,0.0-2.0-0.2-0.19-3.19,0,0,0,90,false,stim,false,-1,1334.6999999284744,0,0,2,27109,WMM2,269655,false,false,171,image-keyboard-response,20
true,1,1,0,1,true,z,false,true,0.0-2.0-0.2-0.20-3.20,0,0,0,90,false,stim,false,-1,651.6000000238419,0,0,0,27109,WMM2,271820,false,false,174,image-keyboard-response,21
true,1,1,0,1,true,z,false,true,0.0-2.0-0.2-0.21-3.21,0,0,0,90,false,stim,false,-1,1903.5,0,0,1,27109,WMM2,275235,false,false,177,image-keyboard-response,22
true,1,2,0,2,true,d,false,true,0.0-2.0-0.2-0.22-3.22,0,0,0,68,false,stim,false,-1,604.6000000238419,0,0,2,27109,WMM2,277353,false,false,180,image-keyboard-response,23
true,1,1,0,1,true,z,false,true,0.0-2.0-0.2-0.23-3.23,0,0,0,90,false,stim,false,-1,719.4000000953674,0,0,1,27109,WMM2,279607,false,false,183,image-keyboard-response,24
true,1,1,0,1,true,z,false,true,0.0-2.0-0.2-0.24-3.24,0,0,0,90,false,stim,false,-1,559.5,0,0,1,27109,WMM2,281692,false,false,186,image-keyboard-response,25
true,1,1,0,1,true,z,false,true,0.0-2.0-0.2-0.25-3.25,0,0,0,90,false,stim,false,-1,916.5,0,0,0,27109,WMM2,284126,false,false,189,image-keyboard-response,26
true,1,2,0,2,true,d,false,true,0.0-2.0-0.2-0.26-3.26,0,0,0,68,false,stim,false,-1,902.2000000476837,0,0,2,27109,WMM2,286543,false,false,192,image-keyboard-response,27
true,1,1,0,1,true,z,false,true,0.0-2.0-0.3-0.27-3.27,0,0,0,90,false,stim,false,-1,409.1999999284744,0,1,0,27109,WMM2,288469,false,false,195,image-keyboard-response,28
true,1,2,0,2,true,d,false,true,0.0-2.0-0.3-0.28-3.28,0,0,0,68,false,stim,false,-1,750.7000000476837,0,0,2,27109,WMM2,290726,false,false,198,image-keyboard-response,29
true,1,2,0,2,true,d,false,true,0.0-2.0-0.3-0.29-3.29,0,0,0,68,false,stim,false,-1,2633.0,0,0,2,27109,WMM2,294879,false,false,201,image-keyboard-response,30
true,1,1,0,1,true,z,false,true,0.0-2.0-0.3-0.30-3.30,0,0,0,90,false,stim,false,-1,931.0999999046326,0,1,0,27109,WMM2,297333,false,false,204,image-keyboard-response,31
true,1,1,0,1,true,z,false,true,0.0-2.0-0.3-0.31-3.31,0,0,0,90,false,stim,false,-1,2217.899999976158,0,0,1,27109,WMM2,301083,false,false,207,image-keyboard-response,32
false,1,-1,0,1,false,z,false,false,0.0-2.0-0.3-0.32-3.32,0,0,0,,false,stim,true,-1,,0,1,0,27109,WMM2,305634,false,false,210,image-keyboard-response,33
false,1,-1,0,1,false,z,false,false,0.0-2.0-0.3-0.33-3.33,0,0,0,,false,stim,true,-1,,0,0,1,27109,WMM2,310162,false,false,213,image-keyboard-response,34
true,1,2,0,2,true,d,false,false,0.0-2.0-0.3-0.34-3.34,0,0,0,68,false,stim,false,-1,2926.7999999523163,0,0,2,27109,WMM2,314597,false,true,216,image-keyboard-response,35
false,1,-1,0,1,false,z,false,false,0.0-2.0-0.3-0.35-3.35,0,0,0,,false,stim,true,-1,,0,0,1,27109,WMM2,319120,false,false,219,image-keyboard-response,36
true,1,2,0,2,true,d,false,true,0.0-2.0-0.4-0.36-3.36,0,0,0,68,false,stim,false,-1,2544.7999999523163,0,0,2,27109,WMM2,323173,false,false,222,image-keyboard-response,37
true,2,1,1,1,true,z,false,true,0.0-2.0-0.4-0.37-3.37,1,0,0,90,true,stim,false,1,1281.7000000476837,0,1,0,27109,WMM2,325972,false,false,225,image-keyboard-response,1
true,2,1,1,2,false,d,false,false,0.0-2.0-0.4-0.38-3.38,1,0,0,90,false,stim,true,1,1070.3000000715256,0,0,1,27109,WMM2,328551,false,false,228,image-keyboard-response,2
true,2,1,1,2,false,d,false,false,0.0-2.0-0.4-0.39-3.39,1,0,0,90,false,stim,true,1,1354.1000000238419,0,0,1,27109,WMM2,331439,false,false,231,image-keyboard-response,3
true,2,0,1,1,false,z,true,false,0.0-2.0-0.4-0.40-3.40,1,0,0,81,false,stim,false,1,372.60000002384186,0,1,0,27109,WMM2,333333,false,false,234,image-keyboard-response,4
true,2,2,1,0,false,q,false,false,0.0-2.0-0.4-0.41-3.41,1,0,0,68,false,stim,true,2,640.2999999523163,0,0,2,27109,WMM2,335481,false,false,237,image-keyboard-response,5
true,2,1,1,1,true,z,false,true,0.0-2.0-0.4-0.42-3.42,1,0,0,90,false,stim,false,1,637.7999999523163,0,1,0,27109,WMM2,337631,false,false,240,image-keyboard-response,6
true,2,1,1,0,false,q,true,false,0.0-2.0-0.4-0.43-3.43,1,0,0,90,false,stim,false,2,829.0,0,0,2,27109,WMM2,339991,false,false,243,image-keyboard-response,7
true,2,1,1,2,false,d,false,false,0.0-2.0-0.4-0.44-3.44,1,0,0,90,false,stim,true,1,711.5,0,0,1,27109,WMM2,342218,false,false,246,image-keyboard-response,8
true,2,2,1,0,false,q,false,false,0.0-2.0-0.5-0.45-3.45,1,0,0,68,false,stim,true,2,624.7999999523163,0,0,2,27109,WMM2,344360,false,false,249,image-keyboard-response,9
true,2,0,1,2,false,d,true,false,0.0-2.0-0.5-0.46-3.46,1,0,0,81,false,stim,false,1,518.3999999761581,0,0,1,27109,WMM2,346398,false,false,252,image-keyboard-response,10
true,2,0,1,2,false,d,true,false,0.0-2.0-0.5-0.47-3.47,1,0,0,81,false,stim,false,1,395.5,0,0,1,27109,WMM2,348307,false,false,255,image-keyboard-response,11
true,2,0,1,1,false,z,true,false,0.0-2.0-0.5-0.48-3.48,1,0,0,81,false,stim,false,1,556.0,0,1,0,27109,WMM2,350382,false,false,258,image-keyboard-response,12
true,2,2,1,0,false,q,false,false,0.0-2.0-0.5-0.49-3.49,1,0,0,68,false,stim,true,2,729.0,0,0,2,27109,WMM2,352620,false,false,261,image-keyboard-response,13
true,2,1,1,0,false,q,true,false,0.0-2.0-0.5-0.50-3.50,1,0,0,90,false,stim,false,2,500.5,0,0,2,27109,WMM2,354628,false,false,264,image-keyboard-response,14
true,2,1,1,2,false,d,false,false,0.0-2.0-0.5-0.51-3.51,1,0,0,90,false,stim,true,1,720.9000000953674,0,0,1,27109,WMM2,356873,false,false,267,image-keyboard-response,15
true,2,2,1,1,false,z,true,false,0.0-2.0-0.5-0.52-3.52,1,0,0,68,false,stim,false,1,278.2999999523163,0,1,0,27109,WMM2,358673,false,false,270,image-keyboard-response,16
true,2,1,1,1,true,z,false,true,0.0-2.0-0.5-0.53-3.53,1,0,0,90,false,stim,false,1,571.4000000953674,0,1,0,27109,WMM2,360764,false,false,273,image-keyboard-response,17
true,2,2,1,2,true,d,false,false,0.0-2.0-0.6-0.54-3.54,1,0,0,68,false,stim,false,1,638.7999999523163,0,0,1,27109,WMM2,362923,false,true,276,image-keyboard-response,18
true,2,1,1,1,true,z,false,true,0.0-2.0-0.6-0.55-3.55,1,0,0,90,false,stim,false,1,464.39999997615814,0,1,0,27109,WMM2,364898,false,false,279,image-keyboard-response,19
true,2,0,1,2,false,d,true,false,0.0-2.0-0.6-0.56-3.56,1,0,0,81,false,stim,false,1,567.3999999761581,0,0,1,27109,WMM2,366978,false,false,282,image-keyboard-response,20
true,2,2,1,2,true,d,false,false,0.0-2.0-0.6-0.57-3.57,1,0,0,68,false,stim,false,1,660.0,0,0,1,27109,WMM2,369159,false,true,285,image-keyboard-response,21
true,2,1,1,1,true,z,false,true,0.0-2.0-0.6-0.58-3.58,1,0,0,90,false,stim,false,1,529.5,0,1,0,27109,WMM2,371206,false,false,288,image-keyboard-response,22
true,2,1,1,1,true,z,false,false,0.0-2.0-0.6-0.59-3.59,1,0,0,90,false,stim,false,1,551.0999999046326,0,1,0,27109,WMM2,373263,false,true,291,image-keyboard-response,23
true,2,1,1,0,false,q,true,true,0.0-2.0-0.6-0.60-3.60,1,0,0,90,false,stim,false,2,298.2999999523163,0,0,2,27109,WMM2,375104,false,true,294,image-keyboard-response,24
true,2,1,1,0,false,q,true,false,0.0-2.0-0.6-0.61-3.61,1,0,0,90,false,stim,false,2,434.39999997615814,0,0,2,27109,WMM2,377062,false,false,297,image-keyboard-response,25
true,2,1,1,0,false,q,true,false,0.0-2.0-0.6-0.62-3.62,1,0,0,90,false,stim,false,2,460.09999990463257,0,0,2,27109,WMM2,379036,false,false,300,image-keyboard-response,26
true,2,0,1,0,true,q,false,true,0.0-2.0-0.7-0.63-3.63,1,0,0,81,false,stim,false,2,479.60000002384186,0,0,2,27109,WMM2,381041,false,false,303,image-keyboard-response,27
true,2,0,1,1,false,z,true,false,0.0-2.0-0.7-0.64-3.64,1,0,0,81,false,stim,false,1,493.89999997615814,0,1,0,27109,WMM2,383069,false,false,306,image-keyboard-response,28
true,2,0,1,0,true,q,false,true,0.0-2.0-0.7-0.65-3.65,1,0,0,81,false,stim,false,2,513.1000000238419,0,0,2,27109,WMM2,385101,false,false,309,image-keyboard-response,29
true,2,0,1,1,false,z,true,false,0.0-2.0-0.7-0.66-3.66,1,0,0,81,false,stim,false,1,654.3999999761581,0,1,0,27109,WMM2,387262,false,false,312,image-keyboard-response,30
true,2,0,1,0,true,q,false,true,0.0-2.0-0.7-0.67-3.67,1,0,0,81,false,stim,false,2,658.7000000476837,0,0,2,27109,WMM2,389435,false,false,315,image-keyboard-response,31
true,2,1,1,2,false,d,false,false,0.0-2.0-0.7-0.68-3.68,1,0,0,90,false,stim,true,1,226.59999990463257,0,0,1,27109,WMM2,391177,false,false,318,image-keyboard-response,32
true,2,2,1,2,true,d,false,false,0.0-2.0-0.7-0.69-3.69,1,0,0,68,false,stim,false,1,500.2999999523163,0,0,1,27109,WMM2,393198,false,true,321,image-keyboard-response,33
true,2,0,1,2,false,d,true,false,0.0-2.0-0.7-0.70-3.70,1,0,0,81,false,stim,false,1,384.10000002384186,0,0,1,27109,WMM2,395100,false,false,324,image-keyboard-response,34
true,2,1,1,1,true,z,false,true,0.0-2.0-0.7-0.71-3.71,1,0,0,90,false,stim,false,1,554.8999999761581,0,1,0,27109,WMM2,397180,false,false,327,image-keyboard-response,35
true,2,1,1,2,false,d,false,false,0.0-2.0-0.8-0.72-3.72,1,0,0,90,false,stim,true,1,329.2999999523163,0,0,1,27109,WMM2,399031,false,false,330,image-keyboard-response,36
true,2,0,1,1,false,z,true,false,0.0-2.0-0.8-0.73-3.73,1,0,0,81,false,stim,false,1,129.69999992847443,0,1,0,27109,WMM2,400691,false,false,333,image-keyboard-response,37
true,2,2,1,0,false,q,false,false,0.0-2.0-0.8-0.74-3.74,1,0,0,68,false,stim,true,2,544.0,0,0,2,27109,WMM2,402753,false,false,336,image-keyboard-response,38
true,2,2,1,1,false,z,true,false,0.0-2.0-0.8-0.75-3.75,1,0,0,68,false,stim,false,1,1213.5,0,1,0,27109,WMM2,405482,false,false,339,image-keyboard-response,39
true,2,1,1,2,false,d,false,false,0.0-2.0-0.8-0.76-3.76,1,0,0,90,false,stim,true,1,516.1999999284744,0,0,1,27109,WMM2,407524,false,false,342,image-keyboard-response,40
true,2,0,1,2,false,d,true,false,0.0-2.0-0.8-0.77-3.77,1,0,0,81,false,stim,false,1,434.7000000476837,0,0,1,27109,WMM2,409484,false,false,345,image-keyboard-response,41
true,2,0,1,1,false,z,true,false,0.0-2.0-0.8-0.78-3.78,1,0,0,81,false,stim,false,1,828.6999999284744,0,1,0,27109,WMM2,411838,false,false,348,image-keyboard-response,42
true,2,0,1,0,true,q,false,false,0.0-2.0-0.8-0.79-3.79,1,0,0,81,false,stim,false,2,1071.1000000238419,0,0,2,27109,WMM2,414430,false,true,351,image-keyboard-response,43
true,2,2,1,0,false,q,false,false,0.0-2.0-0.8-0.80-3.80,1,0,0,68,false,stim,true,2,334.5,0,0,2,27109,WMM2,416293,false,false,354,image-keyboard-response,44
true,2,1,1,0,false,q,true,true,0.0-2.0-0.9-0.81-3.81,1,0,0,90,false,stim,false,2,1006.1999999284744,0,0,2,27109,WMM2,418825,false,true,357,image-keyboard-response,45
true,2,1,1,1,true,z,false,true,0.0-2.0-0.9-0.82-3.82,1,0,0,90,false,stim,false,1,908.3000000715256,0,1,0,27109,WMM2,421267,false,false,360,image-keyboard-response,46
true,2,2,1,2,true,d,false,true,0.0-2.0-0.9-0.83-3.83,1,0,0,68,false,stim,false,1,703.6999999284744,0,0,1,27109,WMM2,423513,false,false,363,image-keyboard-response,47
true,2,2,1,1,false,z,true,false,0.0-2.0-0.9-0.84-3.84,1,0,0,68,false,stim,false,1,470.6999999284744,0,1,0,27109,WMM2,425528,false,false,366,image-keyboard-response,48
true,2,1,1,2,false,d,false,false,0.0-2.0-0.9-0.85-3.85,1,0,0,90,false,stim,true,1,719.4000000953674,0,0,1,27109,WMM2,427775,false,false,369,image-keyboard-response,49
true,2,2,1,2,true,d,false,true,0.0-2.0-0.9-0.86-3.86,1,0,0,68,false,stim,false,1,536.2999999523163,0,0,1,27109,WMM2,429846,false,false,372,image-keyboard-response,50
true,2,0,1,1,false,z,true,false,0.0-2.0-0.9-0.87-3.87,1,0,0,81,false,stim,false,1,1294.1999999284744,0,1,0,27109,WMM2,432655,false,false,375,image-keyboard-response,51
true,2,2,1,0,false,q,false,false,0.0-2.0-0.9-0.88-3.88,1,0,0,68,false,stim,true,2,626.8000000715256,0,0,2,27109,WMM2,434798,false,false,378,image-keyboard-response,52
true,2,1,1,0,false,q,true,false,0.0-2.0-0.9-0.89-3.89,1,0,0,90,false,stim,false,2,259.6999999284744,0,0,2,27109,WMM2,436573,false,false,381,image-keyboard-response,53
true,2,0,1,1,false,z,true,false,0.0-2.0-0.10-0.90-3.90,1,0,0,81,false,stim,false,1,177.39999997615814,0,1,0,27109,WMM2,438272,false,false,384,image-keyboard-response,54
true,2,2,1,2,true,d,false,false,0.0-2.0-0.10-0.91-3.91,1,0,0,68,false,stim,false,1,253.79999995231628,0,1,1,27109,WMM2,440043,false,true,387,image-keyboard-response,55
true,2,1,1,0,false,q,true,false,0.0-2.0-0.10-0.92-3.92,1,0,0,90,false,stim,false,2,231.29999995231628,0,0,2,27109,WMM2,441791,false,false,390,image-keyboard-response,56
true,2,1,1,2,false,d,false,false,0.0-2.0-0.10-0.93-3.93,1,0,0,90,false,stim,true,1,502.10000002384186,0,1,1,27109,WMM2,443821,false,false,393,image-keyboard-response,57
true,2,1,1,0,false,q,true,false,0.0-2.0-0.10-0.94-3.94,1,0,0,90,false,stim,false,2,259.5,0,0,2,27109,WMM2,445597,false,false,396,image-keyboard-response,58
true,2,0,1,1,false,z,true,false,0.0-2.0-0.10-0.95-3.95,1,0,0,81,false,stim,false,1,322.60000002384186,0,1,0,27109,WMM2,447448,false,false,399,image-keyboard-response,59
true,2,2,1,1,false,z,true,false,0.0-2.0-0.10-0.96-3.96,1,0,0,68,false,stim,false,1,187.40000009536743,0,1,0,27109,WMM2,449159,false,false,402,image-keyboard-response,60
true,3,1,4,0,false,q,true,false,0.0-2.0-0.10-0.97-3.97,1,1,0,90,true,stim,false,0,301.6999999284744,0,0,2,27109,WMM2,450993,false,false,405,image-keyboard-response,1
true,3,1,4,2,false,d,true,false,0.0-2.0-0.10-0.98-3.98,1,1,0,90,false,stim,false,2,841.5,0,1,1,27109,WMM2,453358,false,false,408,image-keyboard-response,2
true,3,1,4,1,true,z,false,true,0.0-2.0-0.11-0.99-3.99,1,1,0,90,false,stim,false,1,398.0,0,1,0,27109,WMM2,455270,false,false,411,image-keyboard-response,3
true,3,1,4,1,true,z,false,true,0.0-2.0-0.11-0.100-3.100,1,1,0,90,false,stim,false,1,781.2999999523163,0,1,0,27109,WMM2,457586,false,false,414,image-keyboard-response,4
true,3,1,4,2,false,d,true,false,0.0-2.0-0.11-0.101-3.101,1,1,0,90,false,stim,false,2,517.1999999284744,0,1,1,27109,WMM2,459624,false,false,417,image-keyboard-response,5
true,3,2,4,0,false,q,true,false,0.0-2.0-0.11-0.102-3.102,1,1,0,68,false,stim,false,0,561.2999999523163,0,0,2,27109,WMM2,461711,false,false,420,image-keyboard-response,6
true,3,0,4,0,true,q,false,true,0.0-2.0-0.11-0.103-3.103,1,1,0,81,false,stim,false,0,920.1999999284744,0,0,2,27109,WMM2,464163,false,false,423,image-keyboard-response,7
true,3,1,4,1,true,z,false,false,0.0-2.0-0.11-0.104-3.104,1,1,0,90,false,stim,false,1,429.8000000715256,0,1,0,27109,WMM2,466119,false,true,426,image-keyboard-response,8
true,3,2,4,2,true,d,false,true,0.0-2.0-0.11-0.105-3.105,1,1,0,68,false,stim,false,2,1829.1000000238419,0,1,1,27109,WMM2,469464,false,false,429,image-keyboard-response,9
true,3,2,4,0,false,q,true,false,0.0-2.0-0.11-0.106-3.106,1,1,0,68,false,stim,false,0,623.7999999523163,0,0,2,27109,WMM2,471601,false,false,432,image-keyboard-response,10
true,3,1,4,2,false,d,true,false,0.0-2.0-0.11-0.107-3.107,1,1,0,90,false,stim,false,2,806.5,0,1,1,27109,WMM2,473917,false,false,435,image-keyboard-response,11
true,3,0,4,1,false,z,true,false,0.0-2.0-0.12-0.108-3.108,1,1,0,81,false,stim,false,1,526.6000000238419,0,1,0,27109,WMM2,475957,false,false,438,image-keyboard-response,12
true,3,0,4,0,true,q,false,true,0.0-2.0-0.12-0.109-3.109,1,1,0,81,false,stim,false,0,359.5,0,0,2,27109,WMM2,477847,false,false,441,image-keyboard-response,13
true,3,2,4,2,true,d,false,false,0.0-2.0-0.12-0.110-3.110,1,1,0,68,false,stim,false,2,995.0,0,1,1,27109,WMM2,480353,false,true,444,image-keyboard-response,14
true,3,2,4,1,false,z,true,false,0.0-2.0-0.12-0.111-3.111,1,1,0,68,false,stim,false,1,1322.7999999523163,0,1,0,27109,WMM2,483199,false,false,447,image-keyboard-response,15
true,3,1,4,2,false,d,true,false,0.0-2.0-0.12-0.112-3.112,1,1,0,90,false,stim,false,2,652.0,0,1,1,27109,WMM2,485358,false,false,450,image-keyboard-response,16
true,3,0,4,2,false,d,true,false,0.0-2.0-0.12-0.113-3.113,1,1,0,81,false,stim,false,2,451.6999999284744,0,1,1,27109,WMM2,487338,false,false,453,image-keyboard-response,17
true,3,2,4,0,false,q,true,false,0.0-2.0-0.12-0.114-3.114,1,1,0,68,false,stim,false,0,472.39999997615814,0,0,2,27109,WMM2,489350,false,false,456,image-keyboard-response,18
true,3,1,4,1,true,z,false,true,0.0-2.0-0.12-0.115-3.115,1,1,0,90,false,stim,false,1,826.5999999046326,0,1,0,27109,WMM2,491697,false,false,459,image-keyboard-response,19
true,3,1,4,0,false,q,true,false,0.0-2.0-0.12-0.116-3.116,1,1,0,90,false,stim,false,0,567.2000000476837,0,0,2,27109,WMM2,493789,false,false,462,image-keyboard-response,20
true,3,0,4,1,false,z,true,false,0.0-2.0-0.13-0.117-3.117,1,1,0,81,false,stim,false,1,471.59999990463257,0,1,0,27109,WMM2,495798,false,false,465,image-keyboard-response,21
true,3,1,4,1,true,z,false,true,0.0-2.0-0.13-0.118-3.118,1,1,0,90,false,stim,false,1,483.8000000715256,0,1,0,27109,WMM2,497794,false,false,468,image-keyboard-response,22
true,3,2,4,0,false,q,true,true,0.0-2.0-0.13-0.119-3.119,1,1,0,68,false,stim,false,0,907.3999999761581,0,0,2,27109,WMM2,500219,false,true,471,image-keyboard-response,23
true,3,2,4,2,true,d,false,true,0.0-2.0-0.13-0.120-3.120,1,1,0,68,false,stim,false,2,787.8999999761581,0,1,1,27109,WMM2,502523,false,false,474,image-keyboard-response,24
true,3,0,4,0,true,q,false,true,0.0-2.0-0.13-0.121-3.121,1,1,0,81,false,stim,false,0,1607.3000000715256,0,0,2,27109,WMM2,505645,false,false,477,image-keyboard-response,25
true,3,1,4,1,true,z,false,true,0.0-2.0-0.13-0.122-3.122,1,1,0,90,false,stim,false,1,1866.6000000238419,0,1,0,27109,WMM2,509037,false,false,480,image-keyboard-response,26
true,3,0,4,2,false,d,true,false,0.0-2.0-0.13-0.123-3.123,1,1,0,81,false,stim,false,2,573.6000000238419,0,1,1,27109,WMM2,511132,false,false,483,image-keyboard-response,27
true,3,2,4,2,true,d,false,true,0.0-2.0-0.13-0.124-3.124,1,1,0,68,false,stim,false,2,252.29999995231628,0,1,1,27109,WMM2,512906,false,false,486,image-keyboard-response,28
true,3,0,4,0,true,q,false,true,0.0-2.0-0.13-0.125-3.125,1,1,0,81,false,stim,false,0,462.89999997615814,0,0,2,27109,WMM2,514885,false,false,489,image-keyboard-response,29
true,3,0,4,0,true,q,false,true,0.0-2.0-0.14-0.126-3.126,1,1,0,81,false,stim,false,0,708.0,0,0,2,27109,WMM2,517131,false,false,492,image-keyboard-response,30
true,3,2,4,1,false,z,true,false,0.0-2.0-0.14-0.127-3.127,1,1,0,68,false,stim,false,1,609.7000000476837,0,1,0,27109,WMM2,519265,false,false,495,image-keyboard-response,31
true,3,1,4,1,true,z,false,true,0.0-2.0-0.14-0.128-3.128,1,1,0,90,false,stim,false,1,1163.6000000238419,0,1,0,27109,WMM2,521953,false,false,498,image-keyboard-response,32
true,3,0,4,2,false,d,true,false,0.0-2.0-0.14-0.129-3.129,1,1,0,81,false,stim,false,2,1559.8999999761581,0,1,1,27109,WMM2,525060,false,false,501,image-keyboard-response,33
true,3,0,4,0,true,q,false,true,0.0-2.0-0.14-0.130-3.130,1,1,0,81,false,stim,false,0,608.7000000476837,0,0,2,27109,WMM2,527190,false,false,504,image-keyboard-response,34
true,3,2,4,2,true,d,false,true,0.0-2.0-0.14-0.131-3.131,1,1,0,68,false,stim,false,2,372.39999997615814,0,1,1,27109,WMM2,529104,false,false,507,image-keyboard-response,35
true,3,1,4,2,false,d,true,false,0.0-2.0-0.14-0.132-3.132,1,1,0,90,false,stim,false,2,1485.3000000715256,0,1,1,27109,WMM2,532114,false,false,510,image-keyboard-response,36
true,3,2,4,1,false,z,true,false,0.0-2.0-0.14-0.133-3.133,1,1,0,68,false,stim,false,1,666.6000000238419,0,1,0,27109,WMM2,534312,false,false,513,image-keyboard-response,37
true,3,0,4,0,true,q,false,true,0.0-2.0-0.14-0.134-3.134,1,1,0,81,false,stim,false,0,581.6000000238419,0,0,2,27109,WMM2,536421,false,false,516,image-keyboard-response,38
true,3,1,4,1,true,z,false,true,0.0-2.0-0.15-0.135-3.135,1,1,0,90,false,stim,false,1,189.29999995231628,0,1,0,27109,WMM2,538130,false,false,519,image-keyboard-response,39
true,3,1,4,0,false,q,true,false,0.0-2.0-0.15-0.136-3.136,1,1,0,90,false,stim,false,0,113.39999997615814,0,0,2,27109,WMM2,539780,false,false,522,image-keyboard-response,40
true,3,2,4,1,false,z,true,false,0.0-2.0-0.15-0.137-3.137,1,1,0,68,false,stim,false,1,25.700000047683716,0,1,0,27109,WMM2,541332,false,false,525,image-keyboard-response,41
true,3,0,4,0,true,q,false,true,0.0-2.0-0.15-0.138-3.138,1,1,0,81,false,stim,false,0,373.2999999523163,0,0,2,27109,WMM2,543228,false,false,528,image-keyboard-response,42
true,3,0,4,1,false,z,true,false,0.0-2.0-0.15-0.139-3.139,1,1,0,81,false,stim,false,1,308.2999999523163,0,1,0,27109,WMM2,545053,false,false,531,image-keyboard-response,43
true,3,2,4,2,true,d,false,true,0.0-2.0-0.15-0.140-3.140,1,1,0,68,false,stim,false,2,252.60000002384186,0,1,1,27109,WMM2,546830,false,false,534,image-keyboard-response,44
true,3,2,4,2,true,d,false,true,0.0-2.0-0.15-0.141-3.141,1,1,0,68,false,stim,false,2,807.6000000238419,0,1,1,27109,WMM2,549160,false,false,537,image-keyboard-response,45
true,3,2,4,0,false,q,true,false,0.0-2.0-0.15-0.142-3.142,1,1,0,68,false,stim,false,0,2059.3000000715256,0,0,2,27109,WMM2,552740,false,false,540,image-keyboard-response,46
true,3,0,4,2,false,d,true,false,0.0-2.0-0.15-0.143-3.143,1,1,0,81,false,stim,false,2,934.6000000238419,0,1,1,27109,WMM2,555208,false,false,543,image-keyboard-response,47
true,3,0,4,1,false,z,true,false,0.0-2.0-0.16-0.144-3.144,1,1,0,81,false,stim,false,1,308.5,0,1,0,27109,WMM2,557053,false,false,546,image-keyboard-response,48
true,3,2,4,0,false,q,true,false,0.0-2.0-0.16-0.145-3.145,1,1,0,68,false,stim,false,0,295.0,0,0,2,27109,WMM2,558875,false,false,549,image-keyboard-response,49
true,3,1,4,2,false,d,true,false,0.0-2.0-0.16-0.146-3.146,1,1,0,90,false,stim,false,2,301.7999999523163,0,1,1,27109,WMM2,560702,false,false,552,image-keyboard-response,50
true,3,2,4,0,false,q,true,false,0.0-2.0-0.16-0.147-3.147,1,1,0,68,false,stim,false,0,386.5,0,0,2,27109,WMM2,562616,false,false,555,image-keyboard-response,51
true,3,0,4,2,false,d,true,true,0.0-2.0-0.16-0.148-3.148,1,1,0,81,false,stim,false,2,327.5,0,1,1,27109,WMM2,564463,false,true,558,image-keyboard-response,52
true,3,2,4,1,false,z,true,false,0.0-2.0-0.16-0.149-3.149,1,1,0,68,false,stim,false,1,353.59999990463257,0,1,0,27109,WMM2,566336,false,false,561,image-keyboard-response,53
true,3,1,4,1,true,z,false,true,0.0-2.0-0.16-0.150-3.150,1,1,0,90,false,stim,false,1,209.0,0,1,0,27109,WMM2,568060,false,false,564,image-keyboard-response,54
true,3,0,4,0,true,q,false,true,0.0-2.0-0.16-0.151-3.151,1,1,0,81,false,stim,false,0,576.3000000715256,0,0,2,27109,WMM2,570174,false,false,567,image-keyboard-response,55
true,3,2,4,2,true,d,false,true,0.0-2.0-0.16-0.152-3.152,1,1,0,68,false,stim,false,2,839.6000000238419,0,1,1,27109,WMM2,572537,false,false,570,image-keyboard-response,56
true,3,2,4,1,false,z,true,false,0.0-2.0-0.17-0.153-3.153,1,1,0,68,false,stim,false,1,597.0,0,1,0,27109,WMM2,574654,false,false,573,image-keyboard-response,57
true,3,0,4,2,false,d,true,false,0.0-2.0-0.17-0.154-3.154,1,1,0,81,false,stim,false,2,777.5,0,1,1,27109,WMM2,576939,false,false,576,image-keyboard-response,58
true,3,1,4,2,false,d,true,true,0.0-2.0-0.17-0.155-3.155,1,1,0,90,false,stim,false,2,1391.2999999523163,0,1,1,27109,WMM2,579853,false,true,579,image-keyboard-response,59
true,3,2,4,2,true,d,false,false,0.0-2.0-0.17-0.156-3.156,1,1,0,68,false,stim,false,2,274.3000000715256,0,1,1,27109,WMM2,581659,false,true,582,image-keyboard-response,60
true,4,0,3,1,false,z,false,true,0.0-2.0-0.17-0.157-3.157,1,1,0,81,true,stim,true,0,292.0,0,0,2,27109,WMM2,583459,false,true,585,image-keyboard-response,1
false,4,-1,3,1,false,z,true,true,0.0-2.0-0.17-0.158-3.158,1,1,0,,false,stim,false,1,,0,1,0,27109,WMM2,587976,false,true,588,image-keyboard-response,2
true,4,2,3,1,false,z,true,false,0.0-2.0-0.17-0.159-3.159,1,1,0,68,false,stim,false,0,884.7999999523163,0,0,2,27109,WMM2,590393,false,false,591,image-keyboard-response,3
false,4,-1,3,1,false,z,true,false,0.0-2.0-0.17-0.160-3.160,1,1,0,,false,stim,false,1,,0,1,0,27109,WMM2,594938,false,false,594,image-keyboard-response,4
false,4,-1,3,1,false,z,true,true,0.0-2.0-0.17-0.161-3.161,1,1,0,,false,stim,false,0,,0,0,2,27109,WMM2,599477,false,true,597,image-keyboard-response,5
true,4,2,3,1,false,z,true,false,0.0-2.0-0.18-0.162-3.162,1,1,0,68,false,stim,false,0,291.5,0,0,2,27109,WMM2,601306,false,false,600,image-keyboard-response,6
true,4,0,3,1,false,z,true,false,0.0-2.0-0.18-0.163-3.163,1,1,0,81,false,stim,false,1,594.0,0,1,0,27109,WMM2,603421,false,false,603,image-keyboard-response,7
true,4,2,3,2,true,d,false,true,0.0-2.0-0.18-0.164-3.164,1,1,0,68,false,stim,false,2,717.7000000476837,0,1,1,27109,WMM2,605665,false,false,606,image-keyboard-response,8
true,4,1,3,2,false,d,true,false,0.0-2.0-0.18-0.165-3.165,1,1,0,90,false,stim,false,2,2697.2000000476837,0,1,1,27109,WMM2,609891,false,false,609,image-keyboard-response,9
true,4,0,3,1,false,z,true,false,0.0-2.0-0.18-0.166-3.166,1,1,0,81,false,stim,false,1,2652.6999999284744,0,1,0,27109,WMM2,614060,false,false,612,image-keyboard-response,10
true,4,2,3,2,true,d,false,true,0.0-2.0-0.18-0.167-3.167,1,1,0,68,false,stim,false,2,290.0,0,1,1,27109,WMM2,615871,false,false,615,image-keyboard-response,11
true,4,1,3,1,true,z,false,true,0.0-2.0-0.18-0.168-3.168,1,1,0,90,false,stim,false,0,362.5,0,0,2,27109,WMM2,617766,false,false,618,image-keyboard-response,12
true,4,1,3,1,true,z,false,true,0.0-2.0-0.18-0.169-3.169,1,1,0,90,false,stim,false,1,1786.5999999046326,0,1,0,27109,WMM2,621078,false,false,621,image-keyboard-response,13
true,4,1,3,1,true,z,false,true,0.0-2.0-0.18-0.170-3.170,1,1,0,90,false,stim,false,0,417.3000000715256,0,0,2,27109,WMM2,623028,false,false,624,image-keyboard-response,14
true,4,1,3,2,false,d,true,false,0.0-2.0-0.19-0.171-3.171,1,1,0,90,false,stim,false,2,766.0,0,1,1,27109,WMM2,625312,false,false,627,image-keyboard-response,15
true,4,0,3,1,false,z,false,false,0.0-2.0-0.19-0.172-3.172,1,1,0,81,false,stim,true,0,1141.5,0,0,2,27109,WMM2,627967,false,false,630,image-keyboard-response,16
true,4,2,3,2,true,d,false,true,0.0-2.0-0.19-0.173-3.173,1,1,0,68,false,stim,false,2,865.5,0,1,1,27109,WMM2,630363,false,false,633,image-keyboard-response,17
false,4,-1,3,1,false,z,true,false,0.0-2.0-0.19-0.174-3.174,1,1,0,,false,stim,false,1,,0,1,0,27109,WMM2,634899,false,false,636,image-keyboard-response,18
true,4,0,3,1,false,z,true,false,0.0-2.0-0.19-0.175-3.175,1,1,0,81,false,stim,false,1,776.6000000238419,0,1,0,27109,WMM2,637200,false,false,639,image-keyboard-response,19
true,4,0,3,1,false,z,false,false,0.0-2.0-0.19-0.176-3.176,1,1,0,81,false,stim,true,0,1443.8999999761581,0,0,2,27109,WMM2,640154,false,false,642,image-keyboard-response,20
true,4,2,3,1,false,z,true,true,0.0-2.0-0.19-0.177-3.177,1,1,0,68,false,stim,false,0,2137.100000023842,0,0,2,27109,WMM2,643815,false,true,645,image-keyboard-response,21
true,4,2,3,2,true,d,false,false,0.0-2.0-0.19-0.178-3.178,1,1,0,68,false,stim,false,2,1109.6999999284744,0,1,1,27109,WMM2,646459,false,true,648,image-keyboard-response,22
true,4,2,3,1,false,z,true,false,0.0-2.0-0.19-0.179-3.179,1,1,0,68,false,stim,false,1,580.0,0,1,0,27109,WMM2,648565,false,false,651,image-keyboard-response,23
true,4,1,3,1,true,z,false,true,0.0-2.0-0.20-0.180-3.180,1,1,0,90,false,stim,false,0,1936.6000000238419,0,0,2,27109,WMM2,652027,false,false,654,image-keyboard-response,24
true,4,1,3,1,true,z,false,true,0.0-2.0-0.20-0.181-3.181,1,1,0,90,false,stim,false,0,451.2999999523163,0,0,2,27109,WMM2,654016,false,false,657,image-keyboard-response,25
true,4,1,3,1,true,z,false,false,0.0-2.0-0.20-0.182-3.182,1,1,0,90,false,stim,false,0,491.10000002384186,0,0,2,27109,WMM2,656031,false,true,660,image-keyboard-response,26
true,4,0,3,1,false,z,true,false,0.0-2.0-0.20-0.183-3.183,1,1,0,81,false,stim,false,1,1775.5999999046326,0,1,0,27109,WMM2,659327,false,false,663,image-keyboard-response,27
true,4,2,3,1,false,z,true,false,0.0-2.0-0.20-0.184-3.184,1,1,0,68,false,stim,false,1,1682.5999999046326,0,1,0,27109,WMM2,662520,false,false,666,image-keyboard-response,28
true,4,1,3,1,true,z,false,true,0.0-2.0-0.20-0.185-3.185,1,1,0,90,false,stim,false,1,703.2999999523163,0,1,0,27109,WMM2,664749,false,false,669,image-keyboard-response,29
true,4,2,3,2,true,d,false,true,0.0-2.0-0.20-0.186-3.186,1,1,0,68,false,stim,false,2,1626.4000000953674,0,1,1,27109,WMM2,667909,false,false,672,image-keyboard-response,30
true,4,1,3,2,false,d,true,false,0.0-2.0-0.20-0.187-3.187,1,1,0,90,false,stim,false,2,659.2999999523163,0,1,1,27109,WMM2,670083,false,false,675,image-keyboard-response,31
true,4,2,3,2,true,d,false,true,0.0-2.0-0.20-0.188-3.188,1,1,0,68,false,stim,false,2,429.7999999523163,0,1,1,27109,WMM2,672044,false,false,678,image-keyboard-response,32
true,4,0,3,1,false,z,true,false,0.0-2.0-0.21-0.189-3.189,1,1,0,81,false,stim,false,1,760.2000000476837,0,1,0,27109,WMM2,674322,false,false,681,image-keyboard-response,33
true,4,2,3,2,true,d,false,true,0.0-2.0-0.21-0.190-3.190,1,1,0,68,false,stim,false,2,447.5,0,1,1,27109,WMM2,676282,false,false,684,image-keyboard-response,34
true,4,1,3,1,true,z,false,true,0.0-2.0-0.21-0.191-3.191,1,1,0,90,false,stim,false,1,326.10000002384186,0,1,0,27109,WMM2,678130,false,false,687,image-keyboard-response,35
true,4,0,3,2,false,d,true,false,0.0-2.0-0.21-0.192-3.192,1,1,0,81,false,stim,false,2,1042.2999999523163,0,1,1,27109,WMM2,680693,false,false,690,image-keyboard-response,36
true,4,1,3,2,false,d,true,false,0.0-2.0-0.21-0.193-3.193,1,1,0,90,false,stim,false,2,278.3000000715256,0,1,1,27109,WMM2,682492,false,false,693,image-keyboard-response,37
true,4,2,3,1,false,z,true,false,0.0-2.0-0.21-0.194-3.194,1,1,0,68,false,stim,false,0,289.8000000715256,0,0,2,27109,WMM2,684300,false,false,696,image-keyboard-response,38
true,4,1,3,1,true,z,false,true,0.0-2.0-0.21-0.195-3.195,1,1,0,90,false,stim,false,0,897.6999999284744,0,0,2,27109,WMM2,686731,false,false,699,image-keyboard-response,39
true,4,1,3,1,true,z,false,true,0.0-2.0-0.21-0.196-3.196,1,1,0,90,false,stim,false,0,435.89999997615814,0,0,2,27109,WMM2,688688,false,false,702,image-keyboard-response,40
true,4,1,3,1,true,z,false,true,0.0-2.0-0.21-0.197-3.197,1,1,0,90,false,stim,false,1,462.7000000476837,0,1,0,27109,WMM2,690684,false,false,705,image-keyboard-response,41
true,4,1,3,2,false,d,true,false,0.0-2.0-0.22-0.198-3.198,1,1,0,90,false,stim,false,2,575.0,0,1,1,27109,WMM2,692778,false,false,708,image-keyboard-response,42
true,4,0,3,2,false,d,true,false,0.0-2.0-0.22-0.199-3.199,1,1,0,81,false,stim,false,2,674.4000000953674,0,1,1,27109,WMM2,694972,false,false,711,image-keyboard-response,43
true,4,0,3,1,false,z,true,false,0.0-2.0-0.22-0.200-3.200,1,1,0,81,false,stim,false,1,1889.5,0,1,0,27109,WMM2,698396,false,false,714,image-keyboard-response,44
true,4,1,3,1,true,z,false,true,0.0-2.0-0.22-0.201-3.201,1,1,0,90,false,stim,false,0,411.0,0,0,2,27109,WMM2,700336,false,false,717,image-keyboard-response,45
true,4,1,3,1,true,z,false,true,0.0-2.0-0.22-0.202-3.202,1,1,0,90,false,stim,false,0,431.10000002384186,0,0,2,27109,WMM2,702290,false,false,720,image-keyboard-response,46
true,4,1,3,1,true,z,false,true,0.0-2.0-0.22-0.203-3.203,1,1,0,90,false,stim,false,0,380.89999997615814,0,0,2,27109,WMM2,704191,false,false,723,image-keyboard-response,47
true,4,2,3,2,true,d,false,true,0.0-2.0-0.22-0.204-3.204,1,1,0,68,false,stim,false,2,319.0,0,1,1,27109,WMM2,706036,false,false,726,image-keyboard-response,48
true,4,2,3,1,false,z,true,true,0.0-2.0-0.22-0.205-3.205,1,1,0,68,false,stim,false,1,433.5,0,1,0,27109,WMM2,707986,false,true,729,image-keyboard-response,49
true,4,0,3,1,false,z,true,false,0.0-2.0-0.22-0.206-3.206,1,1,0,81,false,stim,false,1,247.29999995231628,0,1,0,27109,WMM2,709755,false,false,732,image-keyboard-response,50
true,4,1,3,2,false,d,true,true,0.0-2.0-0.23-0.207-3.207,1,1,0,90,false,stim,false,2,125.0,0,1,1,27109,WMM2,711387,false,true,735,image-keyboard-response,51
true,4,1,3,1,true,z,false,true,0.0-2.0-0.23-0.208-3.208,1,1,0,90,false,stim,false,1,217.5,0,0,0,27109,WMM2,713133,false,false,738,image-keyboard-response,52
true,4,2,3,1,false,z,true,false,0.0-2.0-0.23-0.209-3.209,1,1,0,68,false,stim,false,0,148.0,0,1,2,27109,WMM2,714813,false,false,741,image-keyboard-response,53
true,4,2,3,1,false,z,true,false,0.0-2.0-0.23-0.210-3.210,1,1,0,68,false,stim,false,1,517.6000000238419,0,0,0,27109,WMM2,716845,false,false,744,image-keyboard-response,54
true,4,2,3,1,false,z,true,false,0.0-2.0-0.23-0.211-3.211,1,1,0,68,false,stim,false,1,292.5,0,0,0,27109,WMM2,718653,false,false,747,image-keyboard-response,55
true,4,1,3,2,false,d,true,true,0.0-2.0-0.23-0.212-3.212,1,1,0,90,false,stim,false,2,174.39999997615814,0,1,1,27109,WMM2,720339,false,true,750,image-keyboard-response,56
true,4,1,3,2,false,d,true,false,0.0-2.0-0.23-0.213-3.213,1,1,0,90,false,stim,false,2,342.1999999284744,0,1,1,27109,WMM2,722235,false,false,753,image-keyboard-response,57
true,4,0,3,1,false,z,false,false,0.0-2.0-0.23-0.214-3.214,1,1,0,81,false,stim,true,0,426.5,0,1,2,27109,WMM2,724191,false,false,756,image-keyboard-response,58
true,4,0,3,1,false,z,false,false,0.0-2.0-0.23-0.215-3.215,1,1,0,81,false,stim,true,0,243.80000007152557,0,1,2,27109,WMM2,725956,false,false,759,image-keyboard-response,59
true,4,1,3,2,false,d,true,false,0.0-2.0-0.24-0.216-3.216,1,1,0,90,false,stim,false,2,160.69999992847443,0,1,1,27109,WMM2,727627,false,false,762,image-keyboard-response,60
true,5,0,3,2,false,d,true,false,0.0-2.0-0.24-0.217-3.217,0,1,1,81,true,stim,false,2,273.5,0,1,1,27109,WMM2,729436,false,false,765,image-keyboard-response,1
true,5,2,3,1,false,z,true,true,0.0-2.0-0.24-0.218-3.218,0,1,1,68,false,stim,false,1,172.29999995231628,0,1,2,27109,WMM2,731121,false,true,768,image-keyboard-response,2
true,5,2,3,2,true,d,false,false,0.0-2.0-0.24-0.219-3.219,0,1,1,68,false,stim,false,1,244.60000002384186,0,0,0,27109,WMM2,732893,false,true,771,image-keyboard-response,3
true,5,2,3,2,true,d,false,true,0.0-2.0-0.24-0.220-3.220,0,1,1,68,false,stim,false,1,277.7000000476837,0,0,0,27109,WMM2,734680,false,false,774,image-keyboard-response,4
true,5,0,3,2,false,d,true,false,0.0-2.0-0.24-0.221-3.221,0,1,1,81,false,stim,false,2,291.7000000476837,0,1,1,27109,WMM2,736513,false,false,777,image-keyboard-response,5
true,5,2,3,2,true,d,false,true,0.0-2.0-0.24-0.222-3.222,0,1,1,68,false,stim,false,1,157.60000002384186,0,0,0,27109,WMM2,738180,false,false,780,image-keyboard-response,6
true,5,1,3,1,true,z,false,true,0.0-2.0-0.24-0.223-3.223,0,1,1,90,false,stim,false,1,30.200000047683716,0,1,2,27109,WMM2,739731,false,false,783,image-keyboard-response,7
true,5,2,3,1,false,z,true,false,0.0-2.0-0.24-0.224-3.224,0,1,1,68,false,stim,false,1,2.399999976158142,0,1,2,27109,WMM2,741266,false,false,786,image-keyboard-response,8
true,5,0,3,1,false,z,true,false,0.0-2.0-0.25-0.225-3.225,0,1,1,81,false,stim,false,1,118.70000004768372,0,1,2,27109,WMM2,742908,false,false,789,image-keyboard-response,9
true,5,1,3,1,true,z,false,true,0.0-2.0-0.25-0.226-3.226,0,1,1,90,false,stim,false,1,559.1999999284744,0,1,2,27109,WMM2,744985,false,false,792,image-keyboard-response,10
true,5,1,3,2,false,d,true,false,0.0-2.0-0.25-0.227-3.227,0,1,1,90,false,stim,false,2,259.5,0,1,1,27109,WMM2,746777,false,false,795,image-keyboard-response,11
true,5,1,3,2,false,d,false,false,0.0-2.0-0.25-0.228-3.228,0,1,1,90,false,stim,true,1,1509.3999999761581,0,0,0,27109,WMM2,749834,false,false,798,image-keyboard-response,12
true,5,2,3,2,true,d,false,true,0.0-2.0-0.25-0.229-3.229,0,1,1,68,false,stim,false,1,251.29999995231628,0,0,0,27109,WMM2,751606,false,false,801,image-keyboard-response,13
true,5,2,3,2,true,d,false,true,0.0-2.0-0.25-0.230-3.230,0,1,1,68,false,stim,false,1,691.7000000476837,0,0,0,27109,WMM2,753830,false,false,804,image-keyboard-response,14
true,5,1,3,2,false,d,true,false,0.0-2.0-0.25-0.231-3.231,0,1,1,90,false,stim,false,2,245.0,0,1,1,27109,WMM2,755608,false,false,807,image-keyboard-response,15
true,5,0,3,2,false,d,true,true,0.0-2.0-0.25-0.232-3.232,0,1,1,81,false,stim,false,2,966.1999999284744,0,1,1,27109,WMM2,758089,false,true,810,image-keyboard-response,16
true,5,2,3,1,false,z,true,false,0.0-2.0-0.25-0.233-3.233,0,1,1,68,false,stim,false,1,617.8999999761581,0,1,2,27109,WMM2,760219,false,false,813,image-keyboard-response,17
true,5,0,3,2,false,d,true,false,0.0-2.0-0.26-0.234-3.234,0,1,1,81,false,stim,false,2,274.2000000476837,0,1,1,27109,WMM2,762012,false,false,816,image-keyboard-response,18
true,5,1,3,1,true,z,false,true,0.0-2.0-0.26-0.235-3.235,0,1,1,90,false,stim,false,1,503.7000000476837,0,1,2,27109,WMM2,764045,false,false,819,image-keyboard-response,19
true,5,1,3,2,false,d,true,false,0.0-2.0-0.26-0.236-3.236,0,1,1,90,false,stim,false,2,915.2000000476837,0,1,1,27109,WMM2,766476,false,false,822,image-keyboard-response,20
true,5,1,3,2,false,d,false,false,0.0-2.0-0.26-0.237-3.237,0,1,1,90,false,stim,true,1,1887.8999999761581,0,0,0,27109,WMM2,769899,false,false,825,image-keyboard-response,21
true,5,0,3,1,false,z,true,false,0.0-2.0-0.26-0.238-3.238,0,1,1,81,false,stim,false,1,1040.3999999761581,0,1,2,27109,WMM2,772464,false,false,828,image-keyboard-response,22
true,5,1,3,2,false,d,false,false,0.0-2.0-0.26-0.239-3.239,0,1,1,90,false,stim,true,1,240.59999990463257,0,0,0,27109,WMM2,774226,false,false,831,image-keyboard-response,23
true,5,1,3,2,false,d,false,false,0.0-2.0-0.26-0.240-3.240,0,1,1,90,false,stim,true,1,837.5,0,0,0,27109,WMM2,776572,false,false,834,image-keyboard-response,24
true,5,2,3,1,false,z,true,false,0.0-2.0-0.26-0.241-3.241,0,1,1,68,false,stim,false,1,1687.0999999046326,0,1,2,27109,WMM2,779769,false,false,837,image-keyboard-response,25
true,5,1,3,2,false,d,true,false,0.0-2.0-0.26-0.242-3.242,0,1,1,90,false,stim,false,2,234.0,0,1,1,27109,WMM2,781525,false,false,840,image-keyboard-response,26
true,5,0,3,2,false,d,true,false,0.0-2.0-0.27-0.243-3.243,0,1,1,81,false,stim,false,1,1102.3999999761581,0,0,0,27109,WMM2,784144,false,false,843,image-keyboard-response,27
true,5,2,3,2,true,d,false,true,0.0-2.0-0.27-0.244-3.244,0,1,1,68,false,stim,false,1,187.89999997615814,0,0,0,27109,WMM2,785857,false,false,846,image-keyboard-response,28
true,5,1,3,1,true,z,false,true,0.0-2.0-0.27-0.245-3.245,0,1,1,90,false,stim,false,1,284.6999999284744,0,1,2,27109,WMM2,787661,false,false,849,image-keyboard-response,29
true,5,2,3,1,false,z,true,false,0.0-2.0-0.27-0.246-3.246,0,1,1,68,false,stim,false,1,247.0,0,1,2,27109,WMM2,789430,false,false,852,image-keyboard-response,30
true,5,2,3,2,true,d,false,true,0.0-2.0-0.27-0.247-3.247,0,1,1,68,false,stim,false,1,232.69999992847443,0,0,0,27109,WMM2,791188,false,false,855,image-keyboard-response,31
true,5,0,3,2,false,d,true,false,0.0-2.0-0.27-0.248-3.248,0,1,1,81,false,stim,false,2,355.10000002384186,0,1,1,27109,WMM2,793062,false,false,858,image-keyboard-response,32
true,5,0,3,2,false,d,true,false,0.0-2.0-0.27-0.249-3.249,0,1,1,81,false,stim,false,2,217.89999997615814,0,1,1,27109,WMM2,794811,false,false,861,image-keyboard-response,33
true,5,0,3,1,false,z,true,false,0.0-2.0-0.27-0.250-3.250,0,1,1,81,false,stim,false,1,535.0,0,1,2,27109,WMM2,796878,false,false,864,image-keyboard-response,34
true,5,0,3,2,false,d,true,false,0.0-2.0-0.27-0.251-3.251,0,1,1,81,false,stim,false,2,277.6999999284744,0,1,1,27109,WMM2,798681,false,false,867,image-keyboard-response,35
true,5,1,3,2,false,d,false,false,0.0-2.0-0.28-0.252-3.252,0,1,1,90,false,stim,true,1,171.80000007152557,0,0,0,27109,WMM2,800365,false,false,870,image-keyboard-response,36
true,5,2,3,2,true,d,false,true,0.0-2.0-0.28-0.253-3.253,0,1,1,68,false,stim,false,1,342.60000002384186,0,0,0,27109,WMM2,802225,false,false,873,image-keyboard-response,37
true,5,1,3,1,true,z,false,true,0.0-2.0-0.28-0.254-3.254,0,1,1,90,false,stim,false,1,214.0,0,1,2,27109,WMM2,803954,false,false,876,image-keyboard-response,38
true,5,2,3,2,true,d,false,true,0.0-2.0-0.28-0.255-3.255,0,1,1,68,false,stim,false,2,68.90000009536743,0,1,1,27109,WMM2,805544,false,false,879,image-keyboard-response,39
true,5,1,3,1,true,z,false,true,0.0-2.0-0.28-0.256-3.256,0,1,1,90,false,stim,false,1,423.7999999523163,0,1,2,27109,WMM2,807485,false,false,882,image-keyboard-response,40
true,5,0,3,1,false,z,true,false,0.0-2.0-0.28-0.257-3.257,0,1,1,81,false,stim,false,1,231.60000002384186,0,1,2,27109,WMM2,809251,false,false,885,image-keyboard-response,41
true,5,0,3,2,false,d,true,false,0.0-2.0-0.28-0.258-3.258,0,1,1,81,false,stim,false,2,247.0,0,1,1,27109,WMM2,811029,false,false,888,image-keyboard-response,42
true,5,0,3,2,false,d,true,false,0.0-2.0-0.28-0.259-3.259,0,1,1,81,false,stim,false,1,343.2000000476837,0,0,0,27109,WMM2,812901,false,false,891,image-keyboard-response,43
true,5,0,3,2,false,d,true,true,0.0-2.0-0.28-0.260-3.260,0,1,1,81,false,stim,false,2,219.39999997615814,0,1,1,27109,WMM2,814655,false,true,894,image-keyboard-response,44
true,5,1,3,2,false,d,true,false,0.0-2.0-0.29-0.261-3.261,0,1,1,90,false,stim,false,2,229.60000002384186,0,1,1,27109,WMM2,816406,false,false,897,image-keyboard-response,45
true,5,2,3,1,false,z,true,false,0.0-2.0-0.29-0.262-3.262,0,1,1,68,false,stim,false,1,206.40000009536743,0,1,2,27109,WMM2,818139,false,false,900,image-keyboard-response,46
true,5,2,3,2,true,d,false,true,0.0-2.0-0.29-0.263-3.263,0,1,1,68,false,stim,false,1,221.80000007152557,0,0,0,27109,WMM2,819903,false,false,903,image-keyboard-response,47
true,5,1,3,1,true,z,false,true,0.0-2.0-0.29-0.264-3.264,0,1,1,90,false,stim,false,1,273.2999999523163,0,1,2,27109,WMM2,821713,false,false,906,image-keyboard-response,48
true,5,1,3,2,false,d,false,false,0.0-2.0-0.29-0.265-3.265,0,1,1,90,false,stim,true,1,249.80000007152557,0,0,0,27109,WMM2,823481,false,false,909,image-keyboard-response,49
true,5,1,3,2,false,d,true,false,0.0-2.0-0.29-0.266-3.266,0,1,1,90,false,stim,false,2,251.0,0,1,1,27109,WMM2,825244,false,false,912,image-keyboard-response,50
true,5,0,3,2,false,d,true,false,0.0-2.0-0.29-0.267-3.267,0,1,1,81,false,stim,false,2,191.69999992847443,0,0,1,27109,WMM2,826950,false,false,915,image-keyboard-response,51
true,5,2,3,2,true,d,false,true,0.0-2.0-0.29-0.268-3.268,0,1,1,68,false,stim,false,1,218.10000002384186,0,1,0,27109,WMM2,828690,false,false,918,image-keyboard-response,52
true,5,1,3,1,true,z,false,false,0.0-2.0-0.29-0.269-3.269,0,1,1,90,false,stim,false,1,308.0,0,1,2,27109,WMM2,830531,false,true,921,image-keyboard-response,53
true,5,2,3,1,false,z,true,false,0.0-2.0-0.30-0.270-3.270,0,1,1,68,false,stim,false,1,66.19999992847443,0,1,2,27109,WMM2,832141,false,false,924,image-keyboard-response,54
true,5,2,3,2,true,d,false,false,0.0-2.0-0.30-0.271-3.271,0,1,1,68,false,stim,false,1,242.59999990463257,0,1,0,27109,WMM2,833922,false,true,927,image-keyboard-response,55
true,5,0,3,2,false,d,true,false,0.0-2.0-0.30-0.272-3.272,0,1,1,81,false,stim,false,1,208.69999992847443,0,1,0,27109,WMM2,835658,false,false,930,image-keyboard-response,56
true,5,1,3,2,false,d,false,false,0.0-2.0-0.30-0.273-3.273,0,1,1,90,false,stim,true,1,135.20000004768372,0,1,0,27109,WMM2,837315,false,false,933,image-keyboard-response,57
true,5,2,3,1,false,z,true,false,0.0-2.0-0.30-0.274-3.274,0,1,1,68,false,stim,false,1,409.7999999523163,0,1,2,27109,WMM2,839247,false,false,936,image-keyboard-response,58
true,5,1,3,2,false,d,true,true,0.0-2.0-0.30-0.275-3.275,0,1,1,90,false,stim,false,2,69.20000004768372,0,0,1,27109,WMM2,840853,false,true,939,image-keyboard-response,59
true,5,2,3,2,true,d,false,true,0.0-2.0-0.30-0.276-3.276,0,1,1,68,false,stim,false,2,222.69999992847443,0,0,1,27109,WMM2,842607,false,false,942,image-keyboard-response,60
true,6,2,3,1,false,z,true,false,0.0-2.0-0.30-0.277-3.277,1,0,1,68,true,stim,false,1,241.5,0,1,2,27109,WMM2,844370,false,false,945,image-keyboard-response,1
true,6,2,3,1,false,z,false,false,0.0-2.0-0.30-0.278-3.278,1,0,1,68,false,stim,true,2,254.89999997615814,0,0,1,27109,WMM2,846154,false,false,948,image-keyboard-response,2
true,6,2,3,1,false,z,false,false,0.0-2.0-0.31-0.279-3.279,1,0,1,68,false,stim,true,2,173.89999997615814,0,0,1,27109,WMM2,847879,false,false,951,image-keyboard-response,3
true,6,1,3,2,false,d,true,false,0.0-2.0-0.31-0.280-3.280,1,0,1,90,false,stim,false,2,83.19999992847443,0,1,0,27109,WMM2,849479,false,false,954,image-keyboard-response,4
true,6,0,3,1,false,z,true,true,0.0-2.0-0.31-0.281-3.281,1,0,1,81,false,stim,false,1,781.8999999761581,0,1,2,27109,WMM2,851777,false,true,957,image-keyboard-response,5
true,6,1,3,2,false,d,true,false,0.0-2.0-0.31-0.282-3.282,1,0,1,90,false,stim,false,2,314.0,0,1,0,27109,WMM2,853614,false,false,960,image-keyboard-response,6
true,6,0,3,1,false,z,true,false,0.0-2.0-0.31-0.283-3.283,1,0,1,81,false,stim,false,1,143.69999992847443,0,1,2,27109,WMM2,855284,false,false,963,image-keyboard-response,7
true,6,2,3,1,false,z,false,false,0.0-2.0-0.31-0.284-3.284,1,0,1,68,false,stim,true,2,352.39999997615814,0,0,1,27109,WMM2,857162,false,false,966,image-keyboard-response,8
true,6,2,3,1,false,z,true,true,0.0-2.0-0.31-0.285-3.285,1,0,1,68,false,stim,false,1,455.0,0,1,2,27109,WMM2,859146,false,true,969,image-keyboard-response,9
true,6,2,3,2,true,d,false,true,0.0-2.0-0.31-0.286-3.286,1,0,1,68,false,stim,false,2,727.7000000476837,0,1,0,27109,WMM2,861396,false,false,972,image-keyboard-response,10
true,6,2,3,1,false,z,false,false,0.0-2.0-0.31-0.287-3.287,1,0,1,68,false,stim,true,2,64.60000002384186,0,0,1,27109,WMM2,862980,false,false,975,image-keyboard-response,11
true,6,1,3,1,true,z,false,true,0.0-2.0-0.32-0.288-3.288,1,0,1,90,false,stim,false,1,264.3000000715256,0,1,2,27109,WMM2,864772,false,false,978,image-keyboard-response,12
true,6,1,3,2,false,d,true,false,0.0-2.0-0.32-0.289-3.289,1,0,1,90,false,stim,false,2,248.90000009536743,0,1,0,27109,WMM2,866554,false,false,981,image-keyboard-response,13
true,6,0,3,1,false,z,true,true,0.0-2.0-0.32-0.290-3.290,1,0,1,81,false,stim,false,2,207.89999997615814,0,0,1,27109,WMM2,868282,false,true,984,image-keyboard-response,14
true,6,2,3,1,false,z,true,true,0.0-2.0-0.32-0.291-3.291,1,0,1,68,false,stim,false,1,165.29999995231628,0,1,2,27109,WMM2,869974,false,true,987,image-keyboard-response,15
true,6,2,3,1,false,z,false,false,0.0-2.0-0.32-0.292-3.292,1,0,1,68,false,stim,true,2,513.0,0,0,1,27109,WMM2,872015,false,false,990,image-keyboard-response,16
true,6,1,3,2,false,d,true,false,0.0-2.0-0.32-0.293-3.293,1,0,1,90,false,stim,false,2,517.2999999523163,0,1,0,27109,WMM2,874050,false,false,993,image-keyboard-response,17
true,6,1,3,2,false,d,true,false,0.0-2.0-0.32-0.294-3.294,1,0,1,90,false,stim,false,2,483.2000000476837,0,1,0,27109,WMM2,876068,false,false,996,image-keyboard-response,18
true,6,0,3,1,false,z,true,false,0.0-2.0-0.32-0.295-3.295,1,0,1,81,false,stim,false,2,827.7000000476837,0,0,1,27109,WMM2,878412,false,false,999,image-keyboard-response,19
true,6,2,3,1,false,z,true,false,0.0-2.0-0.32-0.296-3.296,1,0,1,68,false,stim,false,1,1099.0,0,1,2,27109,WMM2,881048,false,false,1002,image-keyboard-response,20
true,6,2,3,1,false,z,false,false,0.0-2.0-0.33-0.297-3.297,1,0,1,68,false,stim,true,2,669.6000000238419,0,0,1,27109,WMM2,883239,false,false,1005,image-keyboard-response,21
true,6,1,3,2,false,d,true,false,0.0-2.0-0.33-0.298-3.298,1,0,1,90,false,stim,false,2,838.6999999284744,0,1,0,27109,WMM2,885607,false,false,1008,image-keyboard-response,22
true,6,1,3,1,true,z,false,true,0.0-2.0-0.33-0.299-3.299,1,0,1,90,false,stim,false,2,967.9000000953674,0,0,1,27109,WMM2,888091,false,false,1011,image-keyboard-response,23
true,6,1,3,2,false,d,true,true,0.0-2.0-0.33-0.300-3.300,1,0,1,90,false,stim,false,2,2471.399999976158,0,1,0,27109,WMM2,892092,false,true,1014,image-keyboard-response,24
true,6,2,3,2,true,d,false,true,0.0-2.0-0.33-0.301-3.301,1,0,1,68,false,stim,false,2,994.8999999761581,0,1,0,27109,WMM2,894607,false,false,1017,image-keyboard-response,25
true,6,0,3,1,false,z,true,false,0.0-2.0-0.33-0.302-3.302,1,0,1,81,false,stim,false,2,1876.1000000238419,0,0,1,27109,WMM2,898006,false,false,1020,image-keyboard-response,26
true,6,1,3,1,true,z,false,true,0.0-2.0-0.33-0.303-3.303,1,0,1,90,false,stim,false,1,223.90000009536743,0,1,2,27109,WMM2,899755,false,false,1023,image-keyboard-response,27
true,6,1,3,1,true,z,false,true,0.0-2.0-0.33-0.304-3.304,1,0,1,90,false,stim,false,1,90.39999997615814,0,1,2,27109,WMM2,901367,false,false,1026,image-keyboard-response,28
true,6,2,3,1,false,z,true,false,0.0-2.0-0.33-0.305-3.305,1,0,1,68,false,stim,false,1,120.5,0,1,2,27109,WMM2,903018,false,false,1029,image-keyboard-response,29
true,6,1,3,2,false,d,true,false,0.0-2.0-0.34-0.306-3.306,1,0,1,90,false,stim,false,2,56.39999997615814,0,1,0,27109,WMM2,904597,false,false,1032,image-keyboard-response,30
true,6,0,3,2,false,d,true,false,0.0-2.0-0.34-0.307-3.307,1,0,1,81,false,stim,false,2,74.59999990463257,0,1,0,27109,WMM2,906203,false,false,1035,image-keyboard-response,31
true,6,2,3,1,false,z,false,false,0.0-2.0-0.34-0.308-3.308,1,0,1,68,false,stim,true,2,140.70000004768372,0,0,1,27109,WMM2,907876,false,false,1038,image-keyboard-response,32
true,6,1,3,1,true,z,false,true,0.0-2.0-0.34-0.309-3.309,1,0,1,90,false,stim,false,1,1396.0,0,1,2,27109,WMM2,910808,false,false,1041,image-keyboard-response,33
true,6,2,3,1,false,z,false,false,0.0-2.0-0.34-0.310-3.310,1,0,1,68,false,stim,true,2,330.2000000476837,0,0,1,27109,WMM2,912653,false,false,1044,image-keyboard-response,34
true,6,1,3,1,true,z,false,true,0.0-2.0-0.34-0.311-3.311,1,0,1,90,false,stim,false,1,582.8999999761581,0,1,2,27109,WMM2,914778,false,false,1047,image-keyboard-response,35
true,6,1,3,1,true,z,false,true,0.0-2.0-0.34-0.312-3.312,1,0,1,90,false,stim,false,2,484.10000002384186,0,0,1,27109,WMM2,916786,false,false,1050,image-keyboard-response,36
true,6,1,3,1,true,z,false,true,0.0-2.0-0.34-0.313-3.313,1,0,1,90,false,stim,false,1,204.19999992847443,0,1,2,27109,WMM2,918523,false,false,1053,image-keyboard-response,37
true,6,2,3,2,true,d,false,true,0.0-2.0-0.34-0.314-3.314,1,0,1,68,false,stim,false,2,896.8999999761581,0,1,0,27109,WMM2,920959,false,false,1056,image-keyboard-response,38
true,6,1,3,1,true,z,false,true,0.0-2.0-0.35-0.315-3.315,1,0,1,90,false,stim,false,2,398.60000002384186,0,0,1,27109,WMM2,922885,false,false,1059,image-keyboard-response,39
true,6,1,3,2,false,d,true,false,0.0-2.0-0.35-0.316-3.316,1,0,1,90,false,stim,false,2,332.39999997615814,0,1,0,27109,WMM2,924754,false,false,1062,image-keyboard-response,40
true,6,0,3,1,false,z,true,false,0.0-2.0-0.35-0.317-3.317,1,0,1,81,false,stim,false,2,444.8000000715256,0,0,1,27109,WMM2,926722,false,false,1065,image-keyboard-response,41
true,6,0,3,1,false,z,true,true,0.0-2.0-0.35-0.318-3.318,1,0,1,81,false,stim,false,2,47.40000009536743,0,0,1,27109,WMM2,928279,false,true,1068,image-keyboard-response,42
true,6,1,3,2,false,d,true,false,0.0-2.0-0.35-0.319-3.319,1,0,1,90,false,stim,false,2,426.0,0,1,0,27109,WMM2,930224,false,false,1071,image-keyboard-response,43
true,6,2,3,1,false,z,true,false,0.0-2.0-0.35-0.320-3.320,1,0,1,68,false,stim,false,1,231.89999997615814,0,1,2,27109,WMM2,931998,false,false,1074,image-keyboard-response,44
true,6,1,3,1,true,z,false,false,0.0-2.0-0.35-0.321-3.321,1,0,1,90,false,stim,false,1,989.0999999046326,0,1,2,27109,WMM2,934506,false,true,1077,image-keyboard-response,45
true,6,0,3,2,false,d,true,false,0.0-2.0-0.35-0.322-3.322,1,0,1,81,false,stim,false,2,412.3000000715256,0,1,0,27109,WMM2,936442,false,false,1080,image-keyboard-response,46
true,6,1,3,1,true,z,false,true,0.0-2.0-0.35-0.323-3.323,1,0,1,90,false,stim,false,1,213.60000002384186,0,1,2,27109,WMM2,938192,false,false,1083,image-keyboard-response,47
true,6,2,3,2,true,d,false,true,0.0-2.0-0.36-0.324-3.324,1,0,1,68,false,stim,false,2,124.0,0,1,0,27109,WMM2,939847,false,false,1086,image-keyboard-response,48
true,6,1,3,1,true,z,false,false,0.0-2.0-0.36-0.325-3.325,1,0,1,90,false,stim,false,1,315.3000000715256,0,1,2,27109,WMM2,941681,false,true,1089,image-keyboard-response,49
true,6,1,3,1,true,z,false,true,0.0-2.0-0.36-0.326-3.326,1,0,1,90,false,stim,false,2,423.7000000476837,0,0,1,27109,WMM2,943625,false,false,1092,image-keyboard-response,50
true,6,2,3,1,false,z,true,false,0.0-2.0-0.36-0.327-3.327,1,0,1,68,false,stim,false,1,214.5,0,1,2,27109,WMM2,945349,false,false,1095,image-keyboard-response,51
true,6,2,3,1,false,z,false,false,0.0-2.0-0.36-0.328-3.328,1,0,1,68,false,stim,true,2,526.8000000715256,0,0,1,27109,WMM2,947398,false,false,1098,image-keyboard-response,52
true,6,0,3,1,false,z,true,false,0.0-2.0-0.36-0.329-3.329,1,0,1,81,false,stim,false,2,1379.6999999284744,0,0,1,27109,WMM2,950300,false,false,1101,image-keyboard-response,53
true,6,0,3,2,false,d,true,false,0.0-2.0-0.36-0.330-3.330,1,0,1,81,false,stim,false,2,235.60000002384186,0,0,0,27109,WMM2,952052,false,false,1104,image-keyboard-response,54
true,6,1,3,1,true,z,false,false,0.0-2.0-0.36-0.331-3.331,1,0,1,90,false,stim,false,1,235.20000004768372,0,1,2,27109,WMM2,953819,false,true,1107,image-keyboard-response,55
true,6,1,3,2,false,d,true,false,0.0-2.0-0.36-0.332-3.332,1,0,1,90,false,stim,false,2,108.39999997615814,0,0,0,27109,WMM2,955459,false,false,1110,image-keyboard-response,56
true,6,2,3,2,true,d,false,false,0.0-2.0-0.37-0.333-3.333,1,0,1,68,false,stim,false,2,757.1000000238419,0,0,0,27109,WMM2,957740,false,true,1113,image-keyboard-response,57
true,6,1,3,1,true,z,false,true,0.0-2.0-0.37-0.334-3.334,1,0,1,90,false,stim,false,1,725.3999999761581,0,1,2,27109,WMM2,960001,false,false,1116,image-keyboard-response,58
true,6,1,3,1,true,z,false,true,0.0-2.0-0.37-0.335-3.335,1,0,1,90,false,stim,false,2,328.89999997615814,0,0,1,27109,WMM2,961863,false,false,1119,image-keyboard-response,59
true,6,0,3,1,false,z,true,false,0.0-2.0-0.37-0.336-3.336,1,0,1,81,false,stim,false,1,101.59999990463257,0,1,2,27109,WMM2,963495,false,false,1122,image-keyboard-response,60
true,7,0,1,0,true,q,false,true,0.0-2.0-0.37-0.337-3.337,0,0,1,81,true,stim,false,2,624.2999999523163,0,0,0,27109,WMM2,965659,false,false,1125,image-keyboard-response,1
true,7,2,1,0,false,q,false,false,0.0-2.0-0.37-0.338-3.338,0,0,1,68,false,stim,true,2,965.5999999046326,0,0,0,27109,WMM2,968145,false,false,1128,image-keyboard-response,2
true,7,2,1,1,false,z,true,false,0.0-2.0-0.37-0.339-3.339,0,0,1,68,false,stim,false,1,411.2000000476837,0,1,2,27109,WMM2,970074,false,false,1131,image-keyboard-response,3
true,7,1,1,0,false,q,false,false,0.0-2.0-0.37-0.340-3.340,0,0,1,90,false,stim,true,1,823.8999999761581,0,0,1,27109,WMM2,972419,false,false,1134,image-keyboard-response,4
true,7,1,1,0,false,q,false,false,0.0-2.0-0.37-0.341-3.341,0,0,1,90,false,stim,true,1,573.7000000476837,0,0,1,27109,WMM2,974515,false,false,1137,image-keyboard-response,5
true,7,2,1,0,false,q,false,false,0.0-2.0-0.38-0.342-3.342,0,0,1,68,false,stim,true,2,442.89999997615814,0,0,0,27109,WMM2,976476,false,false,1140,image-keyboard-response,6
true,7,1,1,1,true,z,false,true,0.0-2.0-0.38-0.343-3.343,0,0,1,90,false,stim,false,1,520.4000000953674,0,1,2,27109,WMM2,978531,false,false,1143,image-keyboard-response,7
true,7,1,1,1,true,z,false,true,0.0-2.0-0.38-0.344-3.344,0,0,1,90,false,stim,false,1,547.5,0,1,2,27109,WMM2,980614,false,false,1146,image-keyboard-response,8
true,7,2,1,0,false,q,false,false,0.0-2.0-0.38-0.345-3.345,0,0,1,68,false,stim,true,2,544.6999999284744,0,0,0,27109,WMM2,982674,false,false,1149,image-keyboard-response,9
true,7,2,1,1,false,z,true,false,0.0-2.0-0.38-0.346-3.346,0,0,1,68,false,stim,false,1,2169.7999999523163,0,1,2,27109,WMM2,986373,false,false,1152,image-keyboard-response,10
false,7,-1,1,0,false,q,true,false,0.0-2.0-0.38-0.347-3.347,0,0,1,,false,stim,false,1,,0,0,1,27109,WMM2,990899,false,false,1155,image-keyboard-response,11
true,7,1,1,0,false,q,true,false,0.0-2.0-0.38-0.348-3.348,0,0,1,90,false,stim,false,2,707.3999999761581,0,0,0,27109,WMM2,993133,false,false,1158,image-keyboard-response,12
true,7,0,1,0,true,q,false,true,0.0-2.0-0.38-0.349-3.349,0,0,1,81,false,stim,false,1,1091.6000000238419,0,0,1,27109,WMM2,995759,false,false,1161,image-keyboard-response,13
true,7,1,1,0,false,q,false,false,0.0-2.0-0.38-0.350-3.350,0,0,1,90,false,stim,true,1,520.6000000238419,0,0,1,27109,WMM2,997805,false,false,1164,image-keyboard-response,14
true,7,1,1,1,true,z,false,true,0.0-2.0-0.39-0.351-3.351,0,0,1,90,false,stim,false,1,600.7999999523163,0,1,2,27109,WMM2,999932,false,false,1167,image-keyboard-response,15
true,7,2,1,0,false,q,false,false,0.0-2.0-0.39-0.352-3.352,0,0,1,68,false,stim,true,2,740.8000000715256,0,0,0,27109,WMM2,1002194,false,false,1170,image-keyboard-response,16
true,7,2,1,0,false,q,true,false,0.0-2.0-0.39-0.353-3.353,0,0,1,68,false,stim,false,1,678.5,0,0,1,27109,WMM2,1004390,false,false,1173,image-keyboard-response,17
true,7,1,1,0,false,q,true,false,0.0-2.0-0.39-0.354-3.354,0,0,1,90,false,stim,false,2,572.3999999761581,0,0,0,27109,WMM2,1006486,false,false,1176,image-keyboard-response,18
true,7,1,1,1,true,z,false,true,0.0-2.0-0.39-0.355-3.355,0,0,1,90,false,stim,false,1,497.5,0,1,2,27109,WMM2,1008508,false,false,1179,image-keyboard-response,19
true,7,2,1,0,false,q,true,false,0.0-2.0-0.39-0.356-3.356,0,0,1,68,false,stim,false,1,399.10000002384186,0,0,1,27109,WMM2,1010434,false,false,1182,image-keyboard-response,20
true,7,0,1,0,true,q,false,true,0.0-2.0-0.39-0.357-3.357,0,0,1,81,false,stim,false,1,835.2999999523163,0,0,1,27109,WMM2,1012804,false,false,1185,image-keyboard-response,21
true,7,1,1,1,true,z,false,true,0.0-2.0-0.39-0.358-3.358,0,0,1,90,false,stim,false,1,816.2000000476837,0,1,2,27109,WMM2,1015145,false,false,1188,image-keyboard-response,22
true,7,1,1,0,false,q,true,false,0.0-2.0-0.39-0.359-3.359,0,0,1,90,false,stim,false,2,322.89999997615814,0,0,0,27109,WMM2,1016986,false,false,1191,image-keyboard-response,23
true,7,1,1,0,false,q,false,false,0.0-2.0-0.40-0.360-3.360,0,0,1,90,false,stim,true,1,295.2000000476837,0,0,1,27109,WMM2,1018816,false,false,1194,image-keyboard-response,24
true,7,2,1,1,false,z,true,false,0.0-2.0-0.40-0.361-3.361,0,0,1,68,false,stim,false,1,1005.8999999761581,0,1,2,27109,WMM2,1021337,false,false,1197,image-keyboard-response,25
true,7,2,1,0,false,q,false,true,0.0-2.0-0.40-0.362-3.362,0,0,1,68,false,stim,true,2,1796.6999999284744,0,0,0,27109,WMM2,1024669,false,true,1200,image-keyboard-response,26
true,7,1,1,1,true,z,false,true,0.0-2.0-0.40-0.363-3.363,0,0,1,90,false,stim,false,1,2550.399999976158,0,1,2,27109,WMM2,1028759,false,false,1203,image-keyboard-response,27
true,7,0,1,0,true,q,false,true,0.0-2.0-0.40-0.364-3.364,0,0,1,81,false,stim,false,1,485.6999999284744,0,0,1,27109,WMM2,1030781,false,false,1206,image-keyboard-response,28
true,7,1,1,0,false,q,true,false,0.0-2.0-0.40-0.365-3.365,0,0,1,90,false,stim,false,2,290.10000002384186,0,0,0,27109,WMM2,1032603,false,false,1209,image-keyboard-response,29
true,7,2,1,1,false,z,true,false,0.0-2.0-0.40-0.366-3.366,0,0,1,68,false,stim,false,1,310.1999999284744,0,1,2,27109,WMM2,1034449,false,false,1212,image-keyboard-response,30
true,7,2,1,0,false,q,true,false,0.0-2.0-0.40-0.367-3.367,0,0,1,68,false,stim,false,1,482.5,0,0,1,27109,WMM2,1036447,false,false,1215,image-keyboard-response,31
true,7,1,1,0,false,q,true,false,0.0-2.0-0.40-0.368-3.368,0,0,1,90,false,stim,false,2,2344.399999976158,0,0,0,27109,WMM2,1040332,false,false,1218,image-keyboard-response,32
true,7,1,1,0,false,q,true,true,0.0-2.0-0.41-0.369-3.369,0,0,1,90,false,stim,false,2,454.0,0,0,0,27109,WMM2,1042298,false,true,1221,image-keyboard-response,33
true,7,2,1,0,false,q,true,false,0.0-2.0-0.41-0.370-3.370,0,0,1,68,false,stim,false,1,559.7000000476837,0,0,1,27109,WMM2,1044386,false,false,1224,image-keyboard-response,34
true,7,1,1,1,true,z,false,true,0.0-2.0-0.41-0.371-3.371,0,0,1,90,false,stim,false,1,764.1000000238419,0,1,2,27109,WMM2,1046684,false,false,1227,image-keyboard-response,35
true,7,0,1,1,false,z,true,false,0.0-2.0-0.41-0.372-3.372,0,0,1,81,false,stim,false,1,351.89999997615814,0,1,2,27109,WMM2,1048566,false,false,1230,image-keyboard-response,36
true,7,0,1,1,false,z,true,false,0.0-2.0-0.41-0.373-3.373,0,0,1,81,false,stim,false,1,542.8000000715256,0,1,2,27109,WMM2,1050631,false,false,1233,image-keyboard-response,37
true,7,2,1,0,false,q,true,false,0.0-2.0-0.41-0.374-3.374,0,0,1,68,false,stim,false,1,418.89999997615814,0,0,1,27109,WMM2,1052587,false,false,1236,image-keyboard-response,38
true,7,1,1,0,false,q,true,false,0.0-2.0-0.41-0.375-3.375,0,0,1,90,false,stim,false,2,333.59999990463257,0,0,0,27109,WMM2,1054461,false,false,1239,image-keyboard-response,39
true,7,1,1,0,false,q,false,false,0.0-2.0-0.41-0.376-3.376,0,0,1,90,false,stim,true,1,675.0,0,0,1,27109,WMM2,1056651,false,false,1242,image-keyboard-response,40
true,7,2,1,0,false,q,false,false,0.0-2.0-0.41-0.377-3.377,0,0,1,68,false,stim,true,2,459.7999999523163,0,0,0,27109,WMM2,1058643,false,false,1245,image-keyboard-response,41
true,7,0,1,1,false,z,true,false,0.0-2.0-0.42-0.378-3.378,0,0,1,81,false,stim,false,1,311.7999999523163,0,1,2,27109,WMM2,1060487,false,false,1248,image-keyboard-response,42
true,7,0,1,0,true,q,false,true,0.0-2.0-0.42-0.379-3.379,0,0,1,81,false,stim,false,2,573.0,0,0,0,27109,WMM2,1062574,false,false,1251,image-keyboard-response,43
true,7,1,1,0,false,q,true,false,0.0-2.0-0.42-0.380-3.380,0,0,1,90,false,stim,false,2,1547.2999999523163,0,0,0,27109,WMM2,1065650,false,false,1254,image-keyboard-response,44
true,7,1,1,1,true,z,false,true,0.0-2.0-0.42-0.381-3.381,0,0,1,90,false,stim,false,1,10.399999976158142,0,1,2,27109,WMM2,1067191,false,false,1257,image-keyboard-response,45
true,7,2,1,1,false,z,true,false,0.0-2.0-0.42-0.382-3.382,0,0,1,68,false,stim,false,1,225.79999995231628,0,1,2,27109,WMM2,1068941,false,false,1260,image-keyboard-response,46
true,7,1,1,0,false,q,false,false,0.0-2.0-0.42-0.383-3.383,0,0,1,90,false,stim,true,1,204.89999997615814,0,0,1,27109,WMM2,1070669,false,false,1263,image-keyboard-response,47
true,7,2,1,0,false,q,false,false,0.0-2.0-0.42-0.384-3.384,0,0,1,68,false,stim,true,2,314.10000002384186,0,0,0,27109,WMM2,1072520,false,false,1266,image-keyboard-response,48
true,7,2,1,0,false,q,true,false,0.0-2.0-0.42-0.385-3.385,0,0,1,68,false,stim,false,1,850.7999999523163,0,0,1,27109,WMM2,1074900,false,false,1269,image-keyboard-response,49
true,7,2,1,0,false,q,true,false,0.0-2.0-0.42-0.386-3.386,0,0,1,68,false,stim,false,1,61.5,0,0,1,27109,WMM2,1076499,false,false,1272,image-keyboard-response,50
true,7,2,1,0,false,q,true,false,0.0-2.0-0.43-0.387-3.387,0,0,1,68,false,stim,false,1,384.6999999284744,0,0,1,27109,WMM2,1078413,false,false,1275,image-keyboard-response,51
true,7,1,1,1,true,z,false,true,0.0-2.0-0.43-0.388-3.388,0,0,1,90,false,stim,false,1,529.8999999761581,0,0,2,27109,WMM2,1080465,false,false,1278,image-keyboard-response,52
true,7,0,1,1,false,z,true,false,0.0-2.0-0.43-0.389-3.389,0,0,1,81,false,stim,false,1,868.5,0,0,2,27109,WMM2,1082865,false,false,1281,image-keyboard-response,53
true,7,0,1,0,true,q,false,true,0.0-2.0-0.43-0.390-3.390,0,0,1,81,false,stim,false,1,1105.2999999523163,0,0,1,27109,WMM2,1085503,false,false,1284,image-keyboard-response,54
true,7,1,1,0,false,q,true,false,0.0-2.0-0.43-0.391-3.391,0,0,1,90,false,stim,false,2,542.3000000715256,0,1,0,27109,WMM2,1087576,false,false,1287,image-keyboard-response,55
true,7,1,1,0,false,q,false,false,0.0-2.0-0.43-0.392-3.392,0,0,1,90,false,stim,true,1,994.1000000238419,0,0,1,27109,WMM2,1090100,false,false,1290,image-keyboard-response,56
true,7,1,1,1,true,z,false,true,0.0-2.0-0.43-0.393-3.393,0,0,1,90,false,stim,false,1,508.0,0,0,2,27109,WMM2,1092142,false,false,1293,image-keyboard-response,57
true,7,2,1,0,false,q,false,false,0.0-2.0-0.43-0.394-3.394,0,0,1,68,false,stim,true,2,267.5,0,1,0,27109,WMM2,1093922,false,false,1296,image-keyboard-response,58
true,7,2,1,0,false,q,false,true,0.0-2.0-0.43-0.395-3.395,0,0,1,68,false,stim,true,2,259.7999999523163,0,1,0,27109,WMM2,1095702,false,true,1299,image-keyboard-response,59
true,7,1,1,1,true,z,false,true,0.0-2.0-0.44-0.396-3.396,0,0,1,90,false,stim,false,1,363.60000002384186,0,0,2,27109,WMM2,1097604,false,false,1302,image-keyboard-response,60
true,8,0,1,2,false,d,true,false,0.0-2.0-0.44-0.397-3.397,1,0,0,81,true,stim,false,1,277.40000009536743,0,0,2,27109,WMM2,1099405,false,false,1305,image-keyboard-response,1
true,8,0,1,1,false,z,false,false,0.0-2.0-0.44-0.398-3.398,1,0,0,81,false,stim,true,0,480.2000000476837,0,0,1,27109,WMM2,1101409,false,false,1308,image-keyboard-response,2
true,8,1,1,2,false,d,false,false,0.0-2.0-0.44-0.399-3.399,1,0,0,90,false,stim,true,1,159.39999997615814,0,0,2,27109,WMM2,1103100,false,false,1311,image-keyboard-response,3
true,8,1,1,1,true,z,false,true,0.0-2.0-0.44-0.400-3.400,1,0,0,90,false,stim,false,0,335.0,0,0,1,27109,WMM2,1104950,false,false,1314,image-keyboard-response,4
true,8,2,1,0,false,q,true,false,0.0-2.0-0.44-0.401-3.401,1,0,0,68,false,stim,false,0,324.40000009536743,0,1,0,27109,WMM2,1106796,false,false,1317,image-keyboard-response,5
true,8,2,1,0,false,q,true,false,0.0-2.0-0.44-0.402-3.402,1,0,0,68,false,stim,false,0,356.0,0,1,0,27109,WMM2,1108665,false,false,1320,image-keyboard-response,6
true,8,0,1,1,false,z,false,false,0.0-2.0-0.44-0.403-3.403,1,0,0,81,false,stim,true,0,2285.5,0,0,1,27109,WMM2,1112468,false,false,1323,image-keyboard-response,7
true,8,1,1,0,false,q,true,false,0.0-2.0-0.44-0.404-3.404,1,0,0,90,false,stim,false,0,741.2999999523163,0,1,0,27109,WMM2,1114738,false,false,1326,image-keyboard-response,8
true,8,1,1,0,false,q,true,true,0.0-2.0-0.45-0.405-3.405,1,0,0,90,false,stim,false,0,203.79999995231628,0,1,0,27109,WMM2,1116462,false,true,1329,image-keyboard-response,9
true,8,0,1,1,false,z,false,false,0.0-2.0-0.45-0.406-3.406,1,0,0,81,false,stim,true,0,308.0,0,0,1,27109,WMM2,1118302,false,false,1332,image-keyboard-response,10
true,8,2,1,2,true,d,false,true,0.0-2.0-0.45-0.407-3.407,1,0,0,68,false,stim,false,1,303.89999997615814,0,0,2,27109,WMM2,1120135,false,false,1335,image-keyboard-response,11
false,8,-1,1,0,false,q,true,false,0.0-2.0-0.45-0.408-3.408,1,0,0,,false,stim,false,0,,0,1,0,27109,WMM2,1124669,false,false,1338,image-keyboard-response,12
true,8,0,1,2,false,d,true,false,0.0-2.0-0.45-0.409-3.409,1,0,0,81,false,stim,false,1,339.5,0,0,2,27109,WMM2,1126545,false,false,1341,image-keyboard-response,13
true,8,1,1,0,false,q,true,false,0.0-2.0-0.45-0.410-3.410,1,0,0,90,false,stim,false,0,961.0,0,1,0,27109,WMM2,1129024,false,false,1344,image-keyboard-response,14
true,8,2,1,1,false,z,true,false,0.0-2.0-0.45-0.411-3.411,1,0,0,68,false,stim,false,0,1710.0,0,0,1,27109,WMM2,1132250,false,false,1347,image-keyboard-response,15
true,8,1,1,1,true,z,false,true,0.0-2.0-0.45-0.412-3.412,1,0,0,90,false,stim,false,0,179.60000002384186,0,0,1,27109,WMM2,1133970,false,false,1350,image-keyboard-response,16
true,8,2,1,2,true,d,false,true,0.0-2.0-0.45-0.413-3.413,1,0,0,68,false,stim,false,1,300.7999999523163,0,0,2,27109,WMM2,1135798,false,false,1353,image-keyboard-response,17
true,8,0,1,2,false,d,true,false,0.0-2.0-0.46-0.414-3.414,1,0,0,81,false,stim,false,1,694.7000000476837,0,0,2,27109,WMM2,1138030,false,false,1356,image-keyboard-response,18
true,8,1,1,0,false,q,true,false,0.0-2.0-0.46-0.415-3.415,1,0,0,90,false,stim,false,0,229.39999997615814,0,1,0,27109,WMM2,1139778,false,false,1359,image-keyboard-response,19
true,8,1,1,0,false,q,true,false,0.0-2.0-0.46-0.416-3.416,1,0,0,90,false,stim,false,0,88.90000009536743,0,1,0,27109,WMM2,1141391,false,false,1362,image-keyboard-response,20
false,8,-1,1,0,false,q,true,false,0.0-2.0-0.46-0.417-3.417,1,0,0,,false,stim,false,0,,0,1,0,27109,WMM2,1145918,false,false,1365,image-keyboard-response,21
true,8,2,1,1,false,z,true,false,0.0-2.0-0.46-0.418-3.418,1,0,0,68,false,stim,false,0,631.0,0,0,1,27109,WMM2,1148080,false,false,1368,image-keyboard-response,22
true,8,0,1,2,false,d,true,false,0.0-2.0-0.46-0.419-3.419,1,0,0,81,false,stim,false,1,571.6000000238419,0,0,2,27109,WMM2,1150193,false,false,1371,image-keyboard-response,23
true,8,1,1,1,true,z,false,true,0.0-2.0-0.46-0.420-3.420,1,0,0,90,false,stim,false,0,1032.0,0,0,1,27109,WMM2,1152752,false,false,1374,image-keyboard-response,24
true,8,1,1,2,false,d,false,false,0.0-2.0-0.46-0.421-3.421,1,0,0,90,false,stim,true,1,1587.2999999523163,0,0,2,27109,WMM2,1155867,false,false,1377,image-keyboard-response,25
true,8,2,1,1,false,z,true,false,0.0-2.0-0.46-0.422-3.422,1,0,0,68,false,stim,false,0,573.1000000238419,0,0,1,27109,WMM2,1157962,false,false,1380,image-keyboard-response,26
true,8,0,1,1,false,z,false,false,0.0-2.0-0.47-0.423-3.423,1,0,0,81,false,stim,true,0,1229.0999999046326,0,0,1,27109,WMM2,1160734,false,false,1383,image-keyboard-response,27
true,8,0,1,1,false,z,false,false,0.0-2.0-0.47-0.424-3.424,1,0,0,81,false,stim,true,0,979.3000000715256,0,0,1,27109,WMM2,1163245,false,false,1386,image-keyboard-response,28
true,8,2,1,1,false,z,true,false,0.0-2.0-0.47-0.425-3.425,1,0,0,68,false,stim,false,0,1566.6000000238419,0,0,1,27109,WMM2,1166329,false,false,1389,image-keyboard-response,29
true,8,1,1,2,false,d,false,false,0.0-2.0-0.47-0.426-3.426,1,0,0,90,false,stim,true,1,1372.5999999046326,0,0,2,27109,WMM2,1169224,false,false,1392,image-keyboard-response,30
true,8,0,1,0,true,q,false,true,0.0-2.0-0.47-0.427-3.427,1,0,0,81,false,stim,false,0,1135.8999999761581,0,1,0,27109,WMM2,1171898,false,false,1395,image-keyboard-response,31
false,8,-1,1,2,false,d,true,false,0.0-2.0-0.47-0.428-3.428,1,0,0,,false,stim,false,1,,0,0,2,27109,WMM2,1176432,false,false,1398,image-keyboard-response,32
true,8,0,1,2,false,d,true,false,0.0-2.0-0.47-0.429-3.429,1,0,0,81,false,stim,false,1,865.0,0,0,2,27109,WMM2,1178827,false,false,1401,image-keyboard-response,33
false,8,-1,1,0,false,q,true,false,0.0-2.0-0.47-0.430-3.430,1,0,0,,false,stim,false,0,,0,1,0,27109,WMM2,1183357,false,false,1404,image-keyboard-response,34
true,8,1,1,0,false,q,true,false,0.0-2.0-0.47-0.431-3.431,1,0,0,90,false,stim,false,0,1020.5,0,1,0,27109,WMM2,1185916,false,false,1407,image-keyboard-response,35
false,8,-1,1,0,false,q,true,false,0.0-2.0-0.48-0.432-3.432,1,0,0,,false,stim,false,0,,0,1,0,27109,WMM2,1190450,false,false,1410,image-keyboard-response,36
true,8,2,1,2,true,d,false,true,0.0-2.0-0.48-0.433-3.433,1,0,0,68,false,stim,false,1,1456.1000000238419,0,0,2,27109,WMM2,1193419,false,false,1413,image-keyboard-response,37
true,8,1,1,1,true,z,false,true,0.0-2.0-0.48-0.434-3.434,1,0,0,90,false,stim,false,0,1450.6999999284744,0,0,1,27109,WMM2,1196405,false,false,1416,image-keyboard-response,38
false,8,-1,1,0,false,q,true,false,0.0-2.0-0.48-0.435-3.435,1,0,0,,false,stim,false,0,,0,1,0,27109,WMM2,1200961,false,false,1419,image-keyboard-response,39
true,8,1,1,1,true,z,false,true,0.0-2.0-0.48-0.436-3.436,1,0,0,90,false,stim,false,0,198.70000004768372,0,0,1,27109,WMM2,1202704,false,false,1422,image-keyboard-response,40
true,8,1,1,2,false,d,false,false,0.0-2.0-0.48-0.437-3.437,1,0,0,90,false,stim,true,1,2115.2999999523163,0,0,2,27109,WMM2,1206358,false,false,1425,image-keyboard-response,41
true,8,1,1,1,true,z,false,true,0.0-2.0-0.48-0.438-3.438,1,0,0,90,false,stim,false,0,2104.2000000476837,0,0,1,27109,WMM2,1209990,false,false,1428,image-keyboard-response,42
true,8,0,1,2,false,d,true,true,0.0-2.0-0.48-0.439-3.439,1,0,0,81,false,stim,false,1,844.3000000715256,0,0,2,27109,WMM2,1212353,false,true,1431,image-keyboard-response,43
true,8,2,1,0,false,q,true,false,0.0-2.0-0.48-0.440-3.440,1,0,0,68,false,stim,false,0,215.60000002384186,0,1,0,27109,WMM2,1214089,false,false,1434,image-keyboard-response,44
true,8,1,1,1,true,z,false,true,0.0-2.0-0.49-0.441-3.441,1,0,0,90,false,stim,false,0,312.7000000476837,0,0,1,27109,WMM2,1215937,false,false,1437,image-keyboard-response,45
true,8,2,1,0,false,q,true,false,0.0-2.0-0.49-0.442-3.442,1,0,0,68,false,stim,false,0,328.89999997615814,0,1,0,27109,WMM2,1217801,false,false,1440,image-keyboard-response,46
true,8,1,1,2,false,d,false,false,0.0-2.0-0.49-0.443-3.443,1,0,0,90,false,stim,true,1,396.0,0,0,2,27109,WMM2,1219724,false,false,1443,image-keyboard-response,47
true,8,1,1,2,false,d,false,false,0.0-2.0-0.49-0.444-3.444,1,0,0,90,false,stim,true,1,353.39999997615814,0,0,2,27109,WMM2,1221596,false,false,1446,image-keyboard-response,48
true,8,1,1,0,false,q,true,false,0.0-2.0-0.49-0.445-3.445,1,0,0,90,false,stim,false,0,1392.1999999284744,0,1,0,27109,WMM2,1224511,false,false,1449,image-keyboard-response,49
true,8,1,1,0,false,q,true,false,0.0-2.0-0.49-0.446-3.446,1,0,0,90,false,stim,false,0,2881.0,0,1,0,27109,WMM2,1228931,false,false,1452,image-keyboard-response,50
true,8,0,1,2,false,d,true,false,0.0-2.0-0.49-0.447-3.447,1,0,0,81,false,stim,false,1,198.90000009536743,0,0,2,27109,WMM2,1230656,false,false,1455,image-keyboard-response,51
true,8,1,1,1,true,z,false,true,0.0-2.0-0.49-0.448-3.448,1,0,0,90,false,stim,false,0,372.3000000715256,0,1,1,27109,WMM2,1232555,false,false,1458,image-keyboard-response,52
true,8,1,1,1,true,z,false,true,0.0-2.0-0.49-0.449-3.449,1,0,0,90,false,stim,false,0,543.5,0,1,1,27109,WMM2,1234625,false,false,1461,image-keyboard-response,53
true,8,1,1,2,false,d,false,false,0.0-2.0-0.50-0.450-3.450,1,0,0,90,false,stim,true,1,2705.100000023842,0,0,2,27109,WMM2,1238863,false,false,1464,image-keyboard-response,54
true,8,1,1,2,false,d,false,false,0.0-2.0-0.50-0.451-3.451,1,0,0,90,false,stim,true,1,1067.0,0,0,2,27109,WMM2,1241458,false,false,1467,image-keyboard-response,55
true,8,1,1,1,true,z,false,true,0.0-2.0-0.50-0.452-3.452,1,0,0,90,false,stim,false,0,1652.1000000238419,0,1,1,27109,WMM2,1244653,false,false,1470,image-keyboard-response,56
true,8,1,1,1,true,z,false,true,0.0-2.0-0.50-0.453-3.453,1,0,0,90,false,stim,false,0,2509.2999999523163,0,1,1,27109,WMM2,1248691,false,false,1473,image-keyboard-response,57
true,8,0,1,1,false,z,false,false,0.0-2.0-0.50-0.454-3.454,1,0,0,81,false,stim,true,0,347.09999990463257,0,1,1,27109,WMM2,1250550,false,false,1476,image-keyboard-response,58
true,8,2,1,0,false,q,true,false,0.0-2.0-0.50-0.455-3.455,1,0,0,68,false,stim,false,0,136.89999997615814,0,1,0,27109,WMM2,1252203,false,false,1479,image-keyboard-response,59
true,8,2,1,0,false,q,true,false,0.0-2.0-0.50-0.456-3.456,1,0,0,68,false,stim,false,0,1674.7000000476837,0,1,0,27109,WMM2,1255399,false,false,1482,image-keyboard-response,60
true,9,1,4,2,false,d,true,false,0.0-2.0-0.50-0.457-3.457,1,1,0,90,true,stim,false,2,392.3000000715256,0,0,2,27109,WMM2,1257309,false,false,1485,image-keyboard-response,1
true,9,2,4,0,false,q,true,false,0.0-2.0-0.50-0.458-3.458,1,1,0,68,false,stim,false,0,303.6999999284744,0,1,0,27109,WMM2,1259135,false,false,1488,image-keyboard-response,2
true,9,1,4,2,false,d,true,false,0.0-2.0-0.51-0.459-3.459,1,1,0,90,false,stim,false,2,1105.1000000238419,0,0,2,27109,WMM2,1261780,false,false,1491,image-keyboard-response,3
true,9,0,4,1,false,z,true,true,0.0-2.0-0.51-0.460-3.460,1,1,0,81,false,stim,false,1,448.60000002384186,0,1,1,27109,WMM2,1263743,false,true,1494,image-keyboard-response,4
true,9,1,4,1,true,z,false,true,0.0-2.0-0.51-0.461-3.461,1,1,0,90,false,stim,false,1,1533.7000000476837,0,1,1,27109,WMM2,1266810,false,false,1497,image-keyboard-response,5
true,9,1,4,0,false,q,true,false,0.0-2.0-0.51-0.462-3.462,1,1,0,90,false,stim,false,0,909.8999999761581,0,1,0,27109,WMM2,1269253,false,false,1500,image-keyboard-response,6
true,9,1,4,0,false,q,true,false,0.0-2.0-0.51-0.463-3.463,1,1,0,90,false,stim,false,0,805.7999999523163,0,1,0,27109,WMM2,1271588,false,false,1503,image-keyboard-response,7
true,9,2,4,2,true,d,false,true,0.0-2.0-0.51-0.464-3.464,1,1,0,68,false,stim,false,2,1057.8999999761581,0,0,2,27109,WMM2,1274177,false,false,1506,image-keyboard-response,8
true,9,0,4,1,false,z,true,false,0.0-2.0-0.51-0.465-3.465,1,1,0,81,false,stim,false,1,870.8999999761581,0,1,1,27109,WMM2,1276584,false,false,1509,image-keyboard-response,9
true,9,1,4,2,false,d,true,false,0.0-2.0-0.51-0.466-3.466,1,1,0,90,false,stim,false,2,286.90000009536743,0,0,2,27109,WMM2,1278392,false,false,1512,image-keyboard-response,10
true,9,1,4,0,false,q,true,false,0.0-2.0-0.51-0.467-3.467,1,1,0,90,false,stim,false,0,600.8000000715256,0,1,0,27109,WMM2,1280516,false,false,1515,image-keyboard-response,11
true,9,2,4,0,false,q,true,false,0.0-2.0-0.52-0.468-3.468,1,1,0,68,false,stim,false,0,584.9000000953674,0,1,0,27109,WMM2,1282615,false,false,1518,image-keyboard-response,12
true,9,1,4,1,true,z,false,true,0.0-2.0-0.52-0.469-3.469,1,1,0,90,false,stim,false,1,1293.0,0,1,1,27109,WMM2,1285420,false,false,1521,image-keyboard-response,13
true,9,1,4,1,true,z,false,true,0.0-2.0-0.52-0.470-3.470,1,1,0,90,false,stim,false,1,891.0,0,1,1,27109,WMM2,1287826,false,false,1524,image-keyboard-response,14
true,9,1,4,2,false,d,true,true,0.0-2.0-0.52-0.471-3.471,1,1,0,90,false,stim,false,2,2247.399999976158,0,0,2,27109,WMM2,1291594,false,true,1527,image-keyboard-response,15
true,9,2,4,1,false,z,true,false,0.0-2.0-0.52-0.472-3.472,1,1,0,68,false,stim,false,1,2093.7999999523163,0,1,1,27109,WMM2,1295221,false,false,1530,image-keyboard-response,16
true,9,0,4,2,false,d,true,false,0.0-2.0-0.52-0.473-3.473,1,1,0,81,false,stim,false,2,1034.8000000715256,0,0,2,27109,WMM2,1297779,false,false,1533,image-keyboard-response,17
true,9,1,4,2,false,d,true,false,0.0-2.0-0.52-0.474-3.474,1,1,0,90,false,stim,false,2,2886.7000000476837,0,0,2,27109,WMM2,1302192,false,false,1536,image-keyboard-response,18
true,9,0,4,0,true,q,false,false,0.0-2.0-0.52-0.475-3.475,1,1,0,81,false,stim,false,0,1063.3000000715256,0,1,0,27109,WMM2,1304766,false,true,1539,image-keyboard-response,19
false,9,-1,4,0,false,q,true,false,0.0-2.0-0.52-0.476-3.476,1,1,0,,false,stim,false,0,,0,1,0,27109,WMM2,1309311,false,false,1542,image-keyboard-response,20
true,9,2,4,2,true,d,false,true,0.0-2.0-0.53-0.477-3.477,1,1,0,68,false,stim,false,2,2609.899999976158,0,0,2,27109,WMM2,1313447,false,false,1545,image-keyboard-response,21
true,9,2,4,2,true,d,false,true,0.0-2.0-0.53-0.478-3.478,1,1,0,68,false,stim,false,2,773.5,0,0,2,27109,WMM2,1315741,false,false,1548,image-keyboard-response,22
true,9,1,4,1,true,z,false,true,0.0-2.0-0.53-0.479-3.479,1,1,0,90,false,stim,false,1,826.0,0,1,1,27109,WMM2,1318096,false,false,1551,image-keyboard-response,23
true,9,0,4,1,false,z,true,false,0.0-2.0-0.53-0.480-3.480,1,1,0,81,false,stim,false,1,486.5,0,1,1,27109,WMM2,1320114,false,false,1554,image-keyboard-response,24
true,9,1,4,0,false,q,true,false,0.0-2.0-0.53-0.481-3.481,1,1,0,90,false,stim,false,0,1773.5,0,1,0,27109,WMM2,1323404,false,false,1557,image-keyboard-response,25
true,9,2,4,1,false,z,true,false,0.0-2.0-0.53-0.482-3.482,1,1,0,68,false,stim,false,1,337.3000000715256,0,1,1,27109,WMM2,1325261,false,false,1560,image-keyboard-response,26
true,9,2,4,0,false,q,true,false,0.0-2.0-0.53-0.483-3.483,1,1,0,68,false,stim,false,0,2839.2000000476837,0,1,0,27109,WMM2,1329631,false,false,1563,image-keyboard-response,27
true,9,2,4,2,true,d,false,true,0.0-2.0-0.53-0.484-3.484,1,1,0,68,false,stim,false,2,2036.7999999523163,0,0,2,27109,WMM2,1333208,false,false,1566,image-keyboard-response,28
true,9,1,4,0,false,q,true,false,0.0-2.0-0.53-0.485-3.485,1,1,0,90,false,stim,false,0,2946.3000000715256,0,1,0,27109,WMM2,1337693,false,false,1569,image-keyboard-response,29
true,9,1,4,0,false,q,true,false,0.0-2.0-0.54-0.486-3.486,1,1,0,90,false,stim,false,0,238.90000009536743,0,1,0,27109,WMM2,1339471,false,false,1572,image-keyboard-response,30
false,9,-1,4,2,false,d,true,false,0.0-2.0-0.54-0.487-3.487,1,1,0,,false,stim,false,2,,0,0,2,27109,WMM2,1344015,false,false,1575,image-keyboard-response,31
true,9,1,4,0,false,q,true,false,0.0-2.0-0.54-0.488-3.488,1,1,0,90,false,stim,false,0,614.0,0,1,0,27109,WMM2,1346147,false,false,1578,image-keyboard-response,32
true,9,1,4,2,false,d,true,false,0.0-2.0-0.54-0.489-3.489,1,1,0,90,false,stim,false,2,1442.8999999761581,0,0,2,27109,WMM2,1349115,false,false,1581,image-keyboard-response,33
true,9,2,4,0,false,q,true,false,0.0-2.0-0.54-0.490-3.490,1,1,0,68,false,stim,false,0,301.5,0,1,0,27109,WMM2,1350942,false,false,1584,image-keyboard-response,34
true,9,0,4,1,false,z,true,false,0.0-2.0-0.54-0.491-3.491,1,1,0,81,false,stim,false,1,2636.0,0,1,1,27109,WMM2,1355092,false,false,1587,image-keyboard-response,35
true,9,1,4,2,false,d,true,false,0.0-2.0-0.54-0.492-3.492,1,1,0,90,false,stim,false,2,774.1000000238419,0,0,2,27109,WMM2,1357380,false,false,1590,image-keyboard-response,36
false,9,-1,4,1,false,z,true,true,0.0-2.0-0.54-0.493-3.493,1,1,0,,false,stim,false,1,,0,1,1,27109,WMM2,1361915,false,true,1593,image-keyboard-response,37
true,9,1,4,1,true,z,false,false,0.0-2.0-0.54-0.494-3.494,1,1,0,90,false,stim,false,1,1332.1000000238419,0,1,1,27109,WMM2,1364789,false,true,1596,image-keyboard-response,38
true,9,2,4,1,false,z,true,false,0.0-2.0-0.55-0.495-3.495,1,1,0,68,false,stim,false,1,978.8999999761581,0,1,1,27109,WMM2,1367289,false,false,1599,image-keyboard-response,39
true,9,1,4,1,true,z,false,false,0.0-2.0-0.55-0.496-3.496,1,1,0,90,false,stim,false,1,268.3000000715256,0,1,1,27109,WMM2,1369085,false,true,1602,image-keyboard-response,40
true,9,1,4,2,false,d,true,false,0.0-2.0-0.55-0.497-3.497,1,1,0,90,false,stim,false,2,1291.1000000238419,0,0,2,27109,WMM2,1371909,false,false,1605,image-keyboard-response,41
true,9,0,4,0,true,q,false,true,0.0-2.0-0.55-0.498-3.498,1,1,0,81,false,stim,false,0,452.5,0,1,0,27109,WMM2,1373886,false,false,1608,image-keyboard-response,42
true,9,2,4,2,true,d,false,true,0.0-2.0-0.55-0.499-3.499,1,1,0,68,false,stim,false,2,1958.5,0,0,2,27109,WMM2,1377379,false,false,1611,image-keyboard-response,43
true,9,0,4,0,true,q,false,true,0.0-2.0-0.55-0.500-3.500,1,1,0,81,false,stim,false,0,1253.5,0,1,0,27109,WMM2,1380158,false,false,1614,image-keyboard-response,44
false,9,-1,4,0,false,q,true,false,0.0-2.0-0.55-0.501-3.501,1,1,0,,false,stim,false,0,,0,1,0,27109,WMM2,1384703,false,false,1617,image-keyboard-response,45
false,9,-1,4,1,false,z,true,false,0.0-2.0-0.55-0.502-3.502,1,1,0,,false,stim,false,1,,0,1,1,27109,WMM2,1389253,false,false,1620,image-keyboard-response,46
false,9,-1,4,2,false,d,true,false,0.0-2.0-0.55-0.503-3.503,1,1,0,,false,stim,false,2,,0,0,2,27109,WMM2,1393794,false,false,1623,image-keyboard-response,47
true,9,2,4,1,false,z,true,false,0.0-2.0-0.56-0.504-3.504,1,1,0,68,false,stim,false,1,395.89999997615814,0,1,1,27109,WMM2,1395724,false,false,1626,image-keyboard-response,48
true,9,1,4,1,true,z,false,true,0.0-2.0-0.56-0.505-3.505,1,1,0,90,false,stim,false,1,175.19999992847443,0,1,1,27109,WMM2,1397419,false,false,1629,image-keyboard-response,49
true,9,0,4,2,false,d,true,false,0.0-2.0-0.56-0.506-3.506,1,1,0,81,false,stim,false,2,408.60000002384186,0,0,2,27109,WMM2,1399353,false,false,1632,image-keyboard-response,50
true,9,2,4,2,true,d,false,true,0.0-2.0-0.56-0.507-3.507,1,1,0,68,false,stim,false,2,1953.8999999761581,0,1,2,27109,WMM2,1402838,false,false,1635,image-keyboard-response,51
true,9,1,4,0,false,q,true,false,0.0-2.0-0.56-0.508-3.508,1,1,0,90,false,stim,false,0,674.5,0,0,0,27109,WMM2,1405038,false,false,1638,image-keyboard-response,52
true,9,1,4,1,true,z,false,true,0.0-2.0-0.56-0.509-3.509,1,1,0,90,false,stim,false,1,1638.7999999523163,0,1,1,27109,WMM2,1408195,false,false,1641,image-keyboard-response,53
true,9,1,4,0,false,q,true,false,0.0-2.0-0.56-0.510-3.510,1,1,0,90,false,stim,false,0,1319.5,0,0,0,27109,WMM2,1411029,false,false,1644,image-keyboard-response,54
true,9,2,4,2,true,d,false,true,0.0-2.0-0.56-0.511-3.511,1,1,0,68,false,stim,false,2,321.2000000476837,0,1,2,27109,WMM2,1412874,false,false,1647,image-keyboard-response,55
true,9,0,4,0,true,q,false,true,0.0-2.0-0.56-0.512-3.512,1,1,0,81,false,stim,false,0,193.10000002384186,0,0,0,27109,WMM2,1414592,false,false,1650,image-keyboard-response,56
true,9,2,4,0,false,q,true,false,0.0-2.0-0.57-0.513-3.513,1,1,0,68,false,stim,false,0,1214.8999999761581,0,0,0,27109,WMM2,1417326,false,false,1653,image-keyboard-response,57
true,9,2,4,2,true,d,false,true,0.0-2.0-0.57-0.514-3.514,1,1,0,68,false,stim,false,2,527.5999999046326,0,1,2,27109,WMM2,1419367,false,false,1656,image-keyboard-response,58
true,9,1,4,1,true,z,false,true,0.0-2.0-0.57-0.515-3.515,1,1,0,90,false,stim,false,1,564.1000000238419,0,1,1,27109,WMM2,1421446,false,false,1659,image-keyboard-response,59
true,9,2,4,0,false,q,true,false,0.0-2.0-0.57-0.516-3.516,1,1,0,68,false,stim,false,0,128.5,0,0,0,27109,WMM2,1423112,false,false,1662,image-keyboard-response,60
true,10,1,2,1,true,z,false,true,0.0-2.0-0.57-0.517-3.517,0,1,1,90,true,stim,false,1,1662.1000000238419,0,1,1,27109,WMM2,1426307,false,false,1665,image-keyboard-response,1
true,10,0,2,2,false,d,true,false,0.0-2.0-0.57-0.518-3.518,0,1,1,81,false,stim,false,2,261.0,0,1,2,27109,WMM2,1428100,false,false,1668,image-keyboard-response,2
true,10,2,2,2,true,d,false,true,0.0-2.0-0.57-0.519-3.519,0,1,1,68,false,stim,false,0,748.6999999284744,0,0,0,27109,WMM2,1430385,false,false,1671,image-keyboard-response,3
false,10,-1,2,2,false,d,true,true,0.0-2.0-0.57-0.520-3.520,0,1,1,,false,stim,false,2,,0,1,2,27109,WMM2,1434929,false,true,1674,image-keyboard-response,4
true,10,2,2,1,false,z,true,false,0.0-2.0-0.57-0.521-3.521,0,1,1,68,false,stim,false,1,527.0,0,1,1,27109,WMM2,1436985,false,false,1677,image-keyboard-response,5
true,10,1,2,1,true,z,false,true,0.0-2.0-0.58-0.522-3.522,0,1,1,90,false,stim,false,1,869.8999999761581,0,1,1,27109,WMM2,1439388,false,false,1680,image-keyboard-response,6
true,10,1,2,1,true,z,false,true,0.0-2.0-0.58-0.523-3.523,0,1,1,90,false,stim,false,1,302.2999999523163,0,1,1,27109,WMM2,1441222,false,false,1683,image-keyboard-response,7
true,10,2,2,2,true,d,false,true,0.0-2.0-0.58-0.524-3.524,0,1,1,68,false,stim,false,2,378.90000009536743,0,1,2,27109,WMM2,1443131,false,false,1686,image-keyboard-response,8
true,10,1,2,2,false,d,true,false,0.0-2.0-0.58-0.525-3.525,0,1,1,90,false,stim,false,2,521.5999999046326,0,1,2,27109,WMM2,1445183,false,false,1689,image-keyboard-response,9
true,10,1,2,2,false,d,true,false,0.0-2.0-0.58-0.526-3.526,0,1,1,90,false,stim,false,0,24.100000023841858,0,0,0,27109,WMM2,1446726,false,false,1692,image-keyboard-response,10
true,10,0,2,2,false,d,false,false,0.0-2.0-0.58-0.527-3.527,0,1,1,81,false,stim,true,0,1139.7999999523163,0,0,0,27109,WMM2,1449386,false,false,1695,image-keyboard-response,11
true,10,0,2,1,false,z,true,false,0.0-2.0-0.58-0.528-3.528,0,1,1,81,false,stim,false,1,127.79999995231628,0,1,1,27109,WMM2,1451027,false,false,1698,image-keyboard-response,12
true,10,2,2,2,true,d,false,true,0.0-2.0-0.58-0.529-3.529,0,1,1,68,false,stim,false,0,264.10000002384186,0,0,0,27109,WMM2,1452817,false,false,1701,image-keyboard-response,13
true,10,1,2,2,false,d,true,false,0.0-2.0-0.58-0.530-3.530,0,1,1,90,false,stim,false,2,387.89999997615814,0,1,2,27109,WMM2,1454739,false,false,1704,image-keyboard-response,14
true,10,1,2,2,false,d,true,false,0.0-2.0-0.59-0.531-3.531,0,1,1,90,false,stim,false,2,63.89999997615814,0,1,2,27109,WMM2,1456326,false,false,1707,image-keyboard-response,15
true,10,0,2,1,false,z,true,false,0.0-2.0-0.59-0.532-3.532,0,1,1,81,false,stim,false,1,1024.3999999761581,0,1,1,27109,WMM2,1458860,false,false,1710,image-keyboard-response,16
true,10,2,2,1,false,z,true,false,0.0-2.0-0.59-0.533-3.533,0,1,1,68,false,stim,false,1,296.2999999523163,0,1,1,27109,WMM2,1460684,false,false,1713,image-keyboard-response,17
true,10,2,2,2,true,d,false,true,0.0-2.0-0.59-0.534-3.534,0,1,1,68,false,stim,false,2,373.5,0,1,2,27109,WMM2,1462577,false,false,1716,image-keyboard-response,18
true,10,1,2,2,false,d,true,false,0.0-2.0-0.59-0.535-3.535,0,1,1,90,false,stim,false,0,307.0,0,0,0,27109,WMM2,1464403,false,false,1719,image-keyboard-response,19
true,10,1,2,2,false,d,true,false,0.0-2.0-0.59-0.536-3.536,0,1,1,90,false,stim,false,0,468.0,0,0,0,27109,WMM2,1466406,false,false,1722,image-keyboard-response,20
true,10,1,2,2,false,d,true,false,0.0-2.0-0.59-0.537-3.537,0,1,1,90,false,stim,false,2,496.10000002384186,0,1,2,27109,WMM2,1468442,false,false,1725,image-keyboard-response,21
true,10,2,2,2,true,d,false,true,0.0-2.0-0.59-0.538-3.538,0,1,1,68,false,stim,false,0,185.0,0,0,0,27109,WMM2,1470153,false,false,1728,image-keyboard-response,22
true,10,2,2,1,false,z,true,false,0.0-2.0-0.59-0.539-3.539,0,1,1,68,false,stim,false,1,2363.899999976158,0,1,1,27109,WMM2,1474050,false,false,1731,image-keyboard-response,23
true,10,0,2,2,false,d,false,false,0.0-2.0-0.60-0.540-3.540,0,1,1,81,false,stim,true,0,1083.3999999761581,0,0,0,27109,WMM2,1476652,false,false,1734,image-keyboard-response,24
true,10,1,2,1,true,z,false,false,0.0-2.0-0.60-0.541-3.541,0,1,1,90,false,stim,false,1,1008.7999999523163,0,1,1,27109,WMM2,1479192,false,true,1737,image-keyboard-response,25
true,10,2,2,2,true,d,false,false,0.0-2.0-0.60-0.542-3.542,0,1,1,68,false,stim,false,2,174.89999997615814,0,1,2,27109,WMM2,1480889,false,true,1740,image-keyboard-response,26
true,10,2,2,2,true,d,false,true,0.0-2.0-0.60-0.543-3.543,0,1,1,68,false,stim,false,2,205.70000004768372,0,1,2,27109,WMM2,1482617,false,false,1743,image-keyboard-response,27
true,10,1,2,2,false,d,true,false,0.0-2.0-0.60-0.544-3.544,0,1,1,90,false,stim,false,0,536.0,0,0,0,27109,WMM2,1484685,false,false,1746,image-keyboard-response,28
true,10,1,2,2,false,d,true,false,0.0-2.0-0.60-0.545-3.545,0,1,1,90,false,stim,false,2,2259.100000023842,0,1,2,27109,WMM2,1488469,false,false,1749,image-keyboard-response,29
true,10,0,2,2,false,d,false,false,0.0-2.0-0.60-0.546-3.546,0,1,1,81,false,stim,true,0,170.20000004768372,0,0,0,27109,WMM2,1490160,false,false,1752,image-keyboard-response,30
true,10,2,2,1,false,z,true,false,0.0-2.0-0.60-0.547-3.547,0,1,1,68,false,stim,false,1,373.39999997615814,0,1,1,27109,WMM2,1492069,false,false,1755,image-keyboard-response,31
true,10,2,2,1,false,z,true,false,0.0-2.0-0.60-0.548-3.548,0,1,1,68,false,stim,false,1,1127.0,0,1,1,27109,WMM2,1494723,false,false,1758,image-keyboard-response,32
true,10,0,2,1,false,z,true,false,0.0-2.0-0.61-0.549-3.549,0,1,1,81,false,stim,false,1,442.39999997615814,0,1,1,27109,WMM2,1496697,false,false,1761,image-keyboard-response,33
true,10,0,2,1,false,z,true,true,0.0-2.0-0.61-0.550-3.550,0,1,1,81,false,stim,false,1,463.2999999523163,0,1,1,27109,WMM2,1498691,false,true,1764,image-keyboard-response,34
true,10,0,2,1,false,z,true,false,0.0-2.0-0.61-0.551-3.551,0,1,1,81,false,stim,false,1,584.6000000238419,0,1,1,27109,WMM2,1500800,false,false,1767,image-keyboard-response,35
true,10,2,2,2,true,d,false,true,0.0-2.0-0.61-0.552-3.552,0,1,1,68,false,stim,false,0,1959.6000000238419,0,0,0,27109,WMM2,1504292,false,false,1770,image-keyboard-response,36
true,10,1,2,2,false,d,true,false,0.0-2.0-0.61-0.553-3.553,0,1,1,90,false,stim,false,2,224.20000004768372,0,1,2,27109,WMM2,1506045,false,false,1773,image-keyboard-response,37
true,10,1,2,2,false,d,true,true,0.0-2.0-0.61-0.554-3.554,0,1,1,90,false,stim,false,0,794.4000000953674,0,0,0,27109,WMM2,1508356,false,true,1776,image-keyboard-response,38
true,10,2,2,2,true,d,false,true,0.0-2.0-0.61-0.555-3.555,0,1,1,68,false,stim,false,2,448.89999997615814,0,1,2,27109,WMM2,1510338,false,false,1779,image-keyboard-response,39
true,10,2,2,2,true,d,false,true,0.0-2.0-0.61-0.556-3.556,0,1,1,68,false,stim,false,0,291.2000000476837,0,0,0,27109,WMM2,1512147,false,false,1782,image-keyboard-response,40
true,10,2,2,2,true,d,false,true,0.0-2.0-0.61-0.557-3.557,0,1,1,68,false,stim,false,2,440.2000000476837,0,1,2,27109,WMM2,1514106,false,false,1785,image-keyboard-response,41
true,10,2,2,1,false,z,true,false,0.0-2.0-0.62-0.558-3.558,0,1,1,68,false,stim,false,1,300.7000000476837,0,1,1,27109,WMM2,1515927,false,false,1788,image-keyboard-response,42
true,10,2,2,2,true,d,false,true,0.0-2.0-0.62-0.559-3.559,0,1,1,68,false,stim,false,2,215.59999990463257,0,1,2,27109,WMM2,1517680,false,false,1791,image-keyboard-response,43
true,10,2,2,1,false,z,true,false,0.0-2.0-0.62-0.560-3.560,0,1,1,68,false,stim,false,1,260.5,0,1,1,27109,WMM2,1519464,false,false,1794,image-keyboard-response,44
true,10,2,2,2,true,d,false,true,0.0-2.0-0.62-0.561-3.561,0,1,1,68,false,stim,false,0,280.0,0,0,0,27109,WMM2,1521274,false,false,1797,image-keyboard-response,45
true,10,0,2,2,false,d,false,false,0.0-2.0-0.62-0.562-3.562,0,1,1,81,false,stim,true,0,1010.6000000238419,0,0,0,27109,WMM2,1523813,false,false,1800,image-keyboard-response,46
true,10,1,2,1,true,z,false,true,0.0-2.0-0.62-0.563-3.563,0,1,1,90,false,stim,false,1,85.30000007152557,0,1,1,27109,WMM2,1525453,false,false,1803,image-keyboard-response,47
true,10,1,2,2,false,d,true,false,0.0-2.0-0.62-0.564-3.564,0,1,1,90,false,stim,false,2,384.6999999284744,0,1,2,27109,WMM2,1527356,false,false,1806,image-keyboard-response,48
true,10,1,2,2,false,d,true,false,0.0-2.0-0.62-0.565-3.565,0,1,1,90,false,stim,false,2,279.39999997615814,0,1,2,27109,WMM2,1529171,false,false,1809,image-keyboard-response,49
true,10,2,2,2,true,d,false,true,0.0-2.0-0.62-0.566-3.566,0,1,1,68,false,stim,false,0,325.10000002384186,0,0,0,27109,WMM2,1531031,false,false,1812,image-keyboard-response,50
true,10,2,2,2,true,d,false,true,0.0-2.0-0.63-0.567-3.567,0,1,1,68,false,stim,false,0,427.2999999523163,0,1,0,27109,WMM2,1532986,false,false,1815,image-keyboard-response,51
true,10,2,2,2,true,d,false,true,0.0-2.0-0.63-0.568-3.568,0,1,1,68,false,stim,false,0,157.19999992847443,0,1,0,27109,WMM2,1534673,false,false,1818,image-keyboard-response,52
true,10,1,2,2,false,d,true,false,0.0-2.0-0.63-0.569-3.569,0,1,1,90,false,stim,false,2,204.69999992847443,0,1,2,27109,WMM2,1536392,false,false,1821,image-keyboard-response,53
true,10,1,2,2,false,d,true,true,0.0-2.0-0.63-0.570-3.570,0,1,1,90,false,stim,false,2,530.5,0,1,2,27109,WMM2,1538454,false,true,1824,image-keyboard-response,54
true,10,1,2,2,false,d,true,false,0.0-2.0-0.63-0.571-3.571,0,1,1,90,false,stim,false,0,300.60000002384186,0,1,0,27109,WMM2,1540274,false,false,1827,image-keyboard-response,55
true,10,1,2,1,true,z,false,true,0.0-2.0-0.63-0.572-3.572,0,1,1,90,false,stim,false,1,406.39999997615814,0,0,1,27109,WMM2,1542202,false,false,1830,image-keyboard-response,56
true,10,2,2,2,true,d,false,true,0.0-2.0-0.63-0.573-3.573,0,1,1,68,false,stim,false,2,202.60000002384186,0,1,2,27109,WMM2,1543924,false,false,1833,image-keyboard-response,57
true,10,1,2,1,true,z,false,true,0.0-2.0-0.63-0.574-3.574,0,1,1,90,false,stim,false,1,366.10000002384186,0,0,1,27109,WMM2,1545821,false,false,1836,image-keyboard-response,58
true,10,2,2,1,false,z,true,false,0.0-2.0-0.63-0.575-3.575,0,1,1,68,false,stim,false,1,389.7000000476837,0,0,1,27109,WMM2,1547739,false,false,1839,image-keyboard-response,59
true,10,1,2,1,true,z,false,true,0.0-2.0-0.64-0.576-3.576,0,1,1,90,false,stim,false,1,100.10000002384186,0,0,1,27109,WMM2,1549371,false,false,1842,image-keyboard-response,60
true,11,1,2,0,false,q,false,false,0.0-2.0-0.64-0.577-3.577,1,0,1,90,true,stim,true,1,323.10000002384186,0,0,1,27109,WMM2,1551206,false,false,1845,image-keyboard-response,1
true,11,2,2,2,true,d,false,true,0.0-2.0-0.64-0.578-3.578,1,0,1,68,false,stim,false,2,244.0,0,1,0,27109,WMM2,1552986,false,false,1848,image-keyboard-response,2
true,11,1,2,2,false,d,true,false,0.0-2.0-0.64-0.579-3.579,1,0,1,90,false,stim,false,2,71.60000002384186,0,1,2,27109,WMM2,1554573,false,false,1851,image-keyboard-response,3
true,11,2,2,2,true,d,false,true,0.0-2.0-0.64-0.580-3.580,1,0,1,68,false,stim,false,2,97.5,0,1,2,27109,WMM2,1556184,false,false,1854,image-keyboard-response,4
true,11,0,2,2,false,d,true,false,0.0-2.0-0.64-0.581-3.581,1,0,1,81,false,stim,false,2,1660.6000000238419,0,1,0,27109,WMM2,1559369,false,false,1857,image-keyboard-response,5
true,11,0,2,2,false,d,true,false,0.0-2.0-0.64-0.582-3.582,1,0,1,81,false,stim,false,2,122.40000009536743,0,1,0,27109,WMM2,1561011,false,false,1860,image-keyboard-response,6
true,11,0,2,0,true,q,false,true,0.0-2.0-0.64-0.583-3.583,1,0,1,81,false,stim,false,1,182.0,0,0,1,27109,WMM2,1562723,false,false,1863,image-keyboard-response,7
true,11,0,2,2,false,d,true,false,0.0-2.0-0.64-0.584-3.584,1,0,1,81,false,stim,false,2,168.89999997615814,0,1,2,27109,WMM2,1564422,false,false,1866,image-keyboard-response,8
true,11,0,2,0,true,q,false,true,0.0-2.0-0.65-0.585-3.585,1,0,1,81,false,stim,false,1,123.70000004768372,0,0,1,27109,WMM2,1566069,false,false,1869,image-keyboard-response,9
true,11,0,2,0,true,q,false,true,0.0-2.0-0.65-0.586-3.586,1,0,1,81,false,stim,false,1,272.0,0,0,1,27109,WMM2,1567861,false,false,1872,image-keyboard-response,10
true,11,0,2,0,true,q,false,true,0.0-2.0-0.65-0.587-3.587,1,0,1,81,false,stim,false,1,385.7000000476837,0,0,1,27109,WMM2,1569770,false,false,1875,image-keyboard-response,11
true,11,1,2,2,false,d,true,false,0.0-2.0-0.65-0.588-3.588,1,0,1,90,false,stim,false,2,653.6000000238419,0,1,0,27109,WMM2,1571943,false,false,1878,image-keyboard-response,12
true,11,1,2,2,false,d,true,false,0.0-2.0-0.65-0.589-3.589,1,0,1,90,false,stim,false,2,893.3999999761581,0,1,2,27109,WMM2,1574364,false,false,1881,image-keyboard-response,13
true,11,2,2,2,true,d,false,false,0.0-2.0-0.65-0.590-3.590,1,0,1,68,false,stim,false,2,847.6000000238419,0,1,2,27109,WMM2,1576737,false,true,1884,image-keyboard-response,14
true,11,0,2,2,false,d,true,false,0.0-2.0-0.65-0.591-3.591,1,0,1,81,false,stim,false,2,953.8000000715256,0,1,2,27109,WMM2,1579233,false,false,1887,image-keyboard-response,15
true,11,1,2,2,false,d,true,false,0.0-2.0-0.65-0.592-3.592,1,0,1,90,false,stim,false,2,825.5,0,1,0,27109,WMM2,1581599,false,false,1890,image-keyboard-response,16
true,11,2,2,2,true,d,false,false,0.0-2.0-0.65-0.593-3.593,1,0,1,68,false,stim,false,2,782.7000000476837,0,1,0,27109,WMM2,1583908,false,true,1893,image-keyboard-response,17
true,11,0,2,2,false,d,true,false,0.0-2.0-0.66-0.594-3.594,1,0,1,81,false,stim,false,2,1085.3000000715256,0,1,0,27109,WMM2,1586519,false,false,1896,image-keyboard-response,18
true,11,0,2,0,true,q,false,true,0.0-2.0-0.66-0.595-3.595,1,0,1,81,false,stim,false,1,528.3000000715256,0,0,1,27109,WMM2,1588592,false,false,1899,image-keyboard-response,19
