answered,blockNum,choice,condition,corResp,correct,correct_response,explo,fb,internal_node_id,isStable_1,isStable_2,isStable_3,key_press,newBlock,part,persev,persevResp,rt,sessNum,stableAS,stimulus,subject,task,time_elapsed,training,trap,trial_index,trial_type,trialsInBlock
true,1,1,0,0,false,q,true,false,0.0-2.0-0.0-0.0-3.0,0,0,0,90,true,stim,false,-1,2166.7000000476837,1,0,1,27857,WMM2,239143,false,false,81,image-keyboard-response,1
true,1,1,0,1,true,z,false,true,0.0-2.0-0.0-0.1-3.1,0,0,0,90,false,stim,false,-1,1172.5,1,0,2,27857,WMM2,241832,false,false,84,image-keyboard-response,2
true,1,1,0,1,true,z,false,true,0.0-2.0-0.0-0.2-3.2,0,0,0,90,false,stim,false,-1,754.1000000238419,1,0,2,27857,WMM2,244112,false,false,87,image-keyboard-response,3
true,1,1,0,1,true,z,false,true,0.0-2.0-0.0-0.3-3.3,0,0,0,90,false,stim,false,-1,1296.5,1,0,2,27857,WMM2,246922,false,false,90,image-keyboard-response,4
true,1,0,0,2,false,d,true,false,0.0-2.0-0.0-0.4-3.4,0,0,0,81,false,stim,false,-1,1444.5,1,0,0,27857,WMM2,249875,false,false,93,image-keyboard-response,5
true,1,2,0,2,true,d,false,true,0.0-2.0-0.0-0.5-3.5,0,0,0,68,false,stim,false,-1,709.1000000238419,1,0,0,27857,WMM2,252105,false,false,96,image-keyboard-response,6
true,1,1,0,0,false,q,true,false,0.0-2.0-0.0-0.6-3.6,0,0,0,90,false,stim,false,-1,2427.0999999046326,1,0,1,27857,WMM2,256052,false,false,99,image-keyboard-response,7
true,1,0,0,0,true,q,false,true,0.0-2.0-0.0-0.7-3.7,0,0,0,81,false,stim,false,-1,769.1000000238419,1,0,1,27857,WMM2,258340,false,false,102,image-keyboard-response,8
false,1,-1,0,2,false,d,false,false,0.0-2.0-0.0-0.8-3.8,0,0,0,,false,stim,true,-1,,1,0,0,27857,WMM2,262865,false,false,105,image-keyboard-response,9
true,1,2,0,2,true,d,false,true,0.0-2.0-0.1-0.9-3.9,0,0,0,68,false,stim,false,-1,1835.9000000953674,1,0,0,27857,WMM2,266212,false,false,108,image-keyboard-response,10
true,1,1,0,1,true,z,false,true,0.0-2.0-0.1-0.10-3.10,0,0,0,90,false,stim,false,-1,1648.5,1,0,2,27857,WMM2,269374,false,false,111,image-keyboard-response,11
true,1,0,0,0,true,q,false,true,0.0-2.0-0.1-0.11-3.11,0,0,0,81,false,stim,false,-1,991.2000000476837,1,0,1,27857,WMM2,271884,false,false,114,image-keyboard-response,12
true,1,1,0,1,true,z,false,true,0.0-2.0-0.1-0.12-3.12,0,0,0,90,false,stim,false,-1,1766.8999999761581,1,0,2,27857,WMM2,275161,false,false,117,image-keyboard-response,13
true,1,2,0,2,true,d,false,true,0.0-2.0-0.1-0.13-3.13,0,0,0,68,false,stim,false,-1,715.2000000476837,1,0,0,27857,WMM2,277396,false,false,120,image-keyboard-response,14
true,1,1,0,1,true,z,false,false,0.0-2.0-0.1-0.14-3.14,0,0,0,90,false,stim,false,-1,663.2000000476837,1,0,2,27857,WMM2,279593,false,true,123,image-keyboard-response,15
true,1,2,0,2,true,d,false,true,0.0-2.0-0.1-0.15-3.15,0,0,0,68,false,stim,false,-1,779.4000000953674,1,0,0,27857,WMM2,281898,false,false,126,image-keyboard-response,16
true,1,0,0,0,true,q,false,true,0.0-2.0-0.1-0.16-3.16,0,0,0,81,false,stim,false,-1,2038.3000000715256,1,0,1,27857,WMM2,285455,false,false,129,image-keyboard-response,17
true,1,0,0,0,true,q,false,true,0.0-2.0-0.1-0.17-3.17,0,0,0,81,false,stim,false,-1,860.0999999046326,1,0,1,27857,WMM2,287835,false,false,132,image-keyboard-response,18
true,1,2,0,2,true,d,false,true,0.0-2.0-0.2-0.18-3.18,0,0,0,68,false,stim,false,-1,893.0,1,0,0,27857,WMM2,290236,false,false,135,image-keyboard-response,19
true,1,0,0,0,true,q,false,true,0.0-2.0-0.2-0.19-3.19,0,0,0,81,false,stim,false,-1,983.1000000238419,1,0,1,27857,WMM2,292744,false,false,138,image-keyboard-response,20
true,1,2,0,2,true,d,false,true,0.0-2.0-0.2-0.20-3.20,0,0,0,68,false,stim,false,-1,1216.5,1,1,0,27857,WMM2,295474,false,false,141,image-keyboard-response,21
true,1,0,0,0,true,q,false,true,0.0-2.0-0.2-0.21-3.21,0,0,0,81,false,stim,false,-1,1356.1000000238419,1,0,1,27857,WMM2,298342,false,false,144,image-keyboard-response,22
true,1,1,0,1,true,z,false,true,0.0-2.0-0.2-0.22-3.22,0,0,0,90,false,stim,false,-1,713.7999999523163,1,0,2,27857,WMM2,300563,false,false,147,image-keyboard-response,23
true,1,1,0,1,true,z,false,true,0.0-2.0-0.2-0.23-3.23,0,0,0,90,false,stim,false,-1,1179.3000000715256,1,0,2,27857,WMM2,303263,false,false,150,image-keyboard-response,24
true,1,0,0,0,true,q,false,true,0.0-2.0-0.2-0.24-3.24,0,0,0,81,false,stim,false,-1,1758.7000000476837,1,0,1,27857,WMM2,306544,false,false,153,image-keyboard-response,25
true,1,2,0,2,true,d,false,true,0.0-2.0-0.2-0.25-3.25,0,0,0,68,false,stim,false,-1,1557.6000000238419,1,1,0,27857,WMM2,309625,false,false,156,image-keyboard-response,26
true,1,1,0,1,true,z,false,true,0.0-2.0-0.2-0.26-3.26,0,0,0,90,false,stim,false,-1,810.8999999761581,1,0,2,27857,WMM2,311954,false,false,159,image-keyboard-response,27
true,1,1,0,1,true,z,false,false,0.0-2.0-0.3-0.27-3.27,0,0,0,90,false,stim,false,-1,1047.2000000476837,1,0,2,27857,WMM2,314516,false,true,162,image-keyboard-response,28
true,1,1,0,1,true,z,false,true,0.0-2.0-0.3-0.28-3.28,0,0,0,90,false,stim,false,-1,817.6000000238419,1,0,2,27857,WMM2,316857,false,false,165,image-keyboard-response,29
true,1,1,0,1,true,z,false,true,0.0-2.0-0.3-0.29-3.29,0,0,0,90,false,stim,false,-1,831.5999999046326,1,0,2,27857,WMM2,319211,false,false,168,image-keyboard-response,30
true,2,0,1,1,false,z,false,true,0.0-2.0-0.3-0.30-3.30,1,0,0,81,true,stim,true,0,1469.5,1,0,1,27857,WMM2,322208,false,true,171,image-keyboard-response,1
true,2,0,1,1,false,z,false,false,0.0-2.0-0.3-0.31-3.31,1,0,0,81,false,stim,true,0,1444.6000000238419,1,0,1,27857,WMM2,325183,false,false,174,image-keyboard-response,2
true,2,2,1,2,true,d,false,true,0.0-2.0-0.3-0.32-3.32,1,0,0,68,false,stim,false,2,563.6000000238419,1,1,0,27857,WMM2,327266,false,false,177,image-keyboard-response,3
true,2,2,1,2,true,d,false,true,0.0-2.0-0.3-0.33-3.33,1,0,0,68,false,stim,false,2,639.2999999523163,1,1,0,27857,WMM2,329436,false,false,180,image-keyboard-response,4
true,2,0,1,1,false,z,false,false,0.0-2.0-0.3-0.34-3.34,1,0,0,81,false,stim,true,0,804.6000000238419,1,0,1,27857,WMM2,331775,false,false,183,image-keyboard-response,5
true,2,2,1,2,true,d,false,true,0.0-2.0-0.3-0.35-3.35,1,0,0,68,false,stim,false,2,741.7999999523163,1,1,0,27857,WMM2,334031,false,false,186,image-keyboard-response,6
true,2,1,1,0,false,q,false,true,0.0-2.0-0.4-0.36-3.36,1,0,0,90,false,stim,true,1,809.7999999523163,1,0,2,27857,WMM2,336366,false,true,189,image-keyboard-response,7
true,2,2,1,2,true,d,false,true,0.0-2.0-0.4-0.37-3.37,1,0,0,68,false,stim,false,2,976.5999999046326,1,1,0,27857,WMM2,338869,false,false,192,image-keyboard-response,8
true,2,1,1,1,true,z,false,true,0.0-2.0-0.4-0.38-3.38,1,0,0,90,false,stim,false,0,686.2000000476837,1,0,1,27857,WMM2,341081,false,false,195,image-keyboard-response,9
true,2,1,1,0,false,q,false,false,0.0-2.0-0.4-0.39-3.39,1,0,0,90,false,stim,true,1,1086.5,1,0,2,27857,WMM2,343692,false,false,198,image-keyboard-response,10
true,2,1,1,1,true,z,false,true,0.0-2.0-0.4-0.40-3.40,1,0,0,90,false,stim,false,0,863.5,1,0,1,27857,WMM2,346072,false,false,201,image-keyboard-response,11
true,2,1,1,0,false,q,false,false,0.0-2.0-0.4-0.41-3.41,1,0,0,90,false,stim,true,1,688.3999999761581,1,0,2,27857,WMM2,348283,false,false,204,image-keyboard-response,12
true,2,2,1,2,true,d,false,true,0.0-2.0-0.4-0.42-3.42,1,0,0,68,false,stim,false,2,1051.7000000476837,1,1,0,27857,WMM2,350843,false,false,207,image-keyboard-response,13
true,2,2,1,2,true,d,false,true,0.0-2.0-0.4-0.43-3.43,1,0,0,68,false,stim,false,2,1071.0,1,1,0,27857,WMM2,353443,false,false,210,image-keyboard-response,14
true,2,0,1,1,false,z,false,false,0.0-2.0-0.4-0.44-3.44,1,0,0,81,false,stim,true,0,2080.2999999523163,1,0,1,27857,WMM2,357046,false,false,213,image-keyboard-response,15
true,2,1,1,1,true,z,false,true,0.0-2.0-0.5-0.45-3.45,1,0,0,90,false,stim,false,0,732.6000000238419,1,0,1,27857,WMM2,359301,false,false,216,image-keyboard-response,16
false,2,-1,1,2,false,d,true,false,0.0-2.0-0.5-0.46-3.46,1,0,0,,false,stim,false,2,,1,1,0,27857,WMM2,363818,false,false,219,image-keyboard-response,17
true,2,1,1,2,false,d,true,false,0.0-2.0-0.5-0.47-3.47,1,0,0,90,false,stim,false,2,611.8999999761581,1,1,0,27857,WMM2,365955,false,false,222,image-keyboard-response,18
true,2,1,1,0,false,q,false,false,0.0-2.0-0.5-0.48-3.48,1,0,0,90,false,stim,true,1,1689.3000000715256,1,0,2,27857,WMM2,369161,false,false,225,image-keyboard-response,19
true,2,2,1,2,true,d,false,true,0.0-2.0-0.5-0.49-3.49,1,0,0,68,false,stim,false,2,899.2999999523163,1,1,0,27857,WMM2,371588,false,false,228,image-keyboard-response,20
true,2,1,1,1,true,z,false,true,0.0-2.0-0.5-0.50-3.50,1,0,0,90,false,stim,false,0,1003.6000000238419,1,0,1,27857,WMM2,374104,false,false,231,image-keyboard-response,21
true,2,1,1,1,true,z,false,true,0.0-2.0-0.5-0.51-3.51,1,0,0,90,false,stim,false,0,1042.6000000238419,1,0,1,27857,WMM2,376670,false,false,234,image-keyboard-response,22
true,2,1,1,0,false,q,false,false,0.0-2.0-0.5-0.52-3.52,1,0,0,90,false,stim,true,1,758.8000000715256,1,0,2,27857,WMM2,378948,false,false,237,image-keyboard-response,23
true,2,1,1,0,false,q,false,false,0.0-2.0-0.5-0.53-3.53,1,0,0,90,false,stim,true,1,628.6000000238419,1,0,2,27857,WMM2,381107,false,false,240,image-keyboard-response,24
true,2,1,1,1,true,z,false,true,0.0-2.0-0.6-0.54-3.54,1,0,0,90,false,stim,false,0,678.5,1,0,1,27857,WMM2,383301,false,false,243,image-keyboard-response,25
true,2,2,1,0,false,q,true,false,0.0-2.0-0.6-0.55-3.55,1,0,0,68,false,stim,false,1,961.1999999284744,1,0,2,27857,WMM2,385795,false,false,246,image-keyboard-response,26
true,2,2,1,2,true,d,false,true,0.0-2.0-0.6-0.56-3.56,1,0,0,68,false,stim,false,2,1077.8000000715256,1,1,0,27857,WMM2,388388,false,false,249,image-keyboard-response,27
true,2,2,1,2,true,d,false,true,0.0-2.0-0.6-0.57-3.57,1,0,0,68,false,stim,false,2,1267.1000000238419,1,1,0,27857,WMM2,391191,false,false,252,image-keyboard-response,28
true,2,0,1,0,true,q,false,true,0.0-2.0-0.6-0.58-3.58,1,0,0,81,false,stim,false,1,885.3000000715256,1,0,2,27857,WMM2,393616,false,false,255,image-keyboard-response,29
true,2,1,1,1,true,z,false,true,0.0-2.0-0.6-0.59-3.59,1,0,0,90,false,stim,false,0,752.0,1,0,1,27857,WMM2,395893,false,false,258,image-keyboard-response,30
true,2,1,1,1,true,z,false,true,0.0-2.0-0.6-0.60-3.60,1,0,0,90,false,stim,false,0,1475.4000000953674,1,0,1,27857,WMM2,398892,false,false,261,image-keyboard-response,31
true,2,0,1,0,true,q,false,true,0.0-2.0-0.6-0.61-3.61,1,0,0,81,false,stim,false,1,813.8999999761581,1,0,2,27857,WMM2,401234,false,false,264,image-keyboard-response,32
true,2,2,1,2,true,d,false,true,0.0-2.0-0.6-0.62-3.62,1,0,0,68,false,stim,false,2,1562.0,1,1,0,27857,WMM2,404320,false,false,267,image-keyboard-response,33
true,2,0,1,0,true,q,false,true,0.0-2.0-0.7-0.63-3.63,1,0,0,81,false,stim,false,1,1145.8000000715256,1,0,2,27857,WMM2,406978,false,false,270,image-keyboard-response,34
true,2,2,1,2,true,d,false,false,0.0-2.0-0.7-0.64-3.64,1,0,0,68,false,stim,false,2,1218.2999999523163,1,1,0,27857,WMM2,409719,false,true,273,image-keyboard-response,35
true,2,0,1,0,true,q,false,true,0.0-2.0-0.7-0.65-3.65,1,0,0,81,false,stim,false,1,1649.0,1,0,2,27857,WMM2,412889,false,false,276,image-keyboard-response,36
true,2,1,1,1,true,z,false,false,0.0-2.0-0.7-0.66-3.66,1,0,0,90,false,stim,false,0,1011.3999999761581,1,1,1,27857,WMM2,415409,false,true,279,image-keyboard-response,37
true,2,1,1,1,true,z,false,true,0.0-2.0-0.7-0.67-3.67,1,0,0,90,false,stim,false,0,731.7000000476837,1,1,1,27857,WMM2,417663,false,false,282,image-keyboard-response,38
true,2,2,1,2,true,d,false,true,0.0-2.0-0.7-0.68-3.68,1,0,0,68,false,stim,false,2,826.6000000238419,1,1,0,27857,WMM2,420002,false,false,285,image-keyboard-response,39
true,2,0,1,0,true,q,false,false,0.0-2.0-0.7-0.69-3.69,1,0,0,81,false,stim,false,1,969.3999999761581,1,0,2,27857,WMM2,422483,false,true,288,image-keyboard-response,40
true,2,2,1,2,true,d,false,true,0.0-2.0-0.7-0.70-3.70,1,0,0,68,false,stim,false,2,769.0,1,1,0,27857,WMM2,424771,false,false,291,image-keyboard-response,41
true,2,1,1,1,true,z,false,false,0.0-2.0-0.7-0.71-3.71,1,0,0,90,false,stim,false,0,734.8000000715256,1,1,1,27857,WMM2,427032,false,true,294,image-keyboard-response,42
true,3,0,4,0,true,q,false,false,0.0-2.0-0.8-0.72-3.72,1,1,0,81,true,stim,false,0,654.8999999761581,1,0,2,27857,WMM2,429197,false,true,297,image-keyboard-response,1
true,3,2,4,2,true,d,false,true,0.0-2.0-0.8-0.73-3.73,1,1,0,68,false,stim,false,2,823.6999999284744,1,1,0,27857,WMM2,431541,false,false,300,image-keyboard-response,2
true,3,2,4,2,true,d,false,true,0.0-2.0-0.8-0.74-3.74,1,1,0,68,false,stim,false,2,1264.1000000238419,1,1,0,27857,WMM2,434326,false,false,303,image-keyboard-response,3
true,3,2,4,2,true,d,false,true,0.0-2.0-0.8-0.75-3.75,1,1,0,68,false,stim,false,2,1216.8999999761581,1,1,0,27857,WMM2,437066,false,false,306,image-keyboard-response,4
true,3,1,4,1,true,z,false,true,0.0-2.0-0.8-0.76-3.76,1,1,0,90,false,stim,false,1,895.0,1,1,1,27857,WMM2,439483,false,false,309,image-keyboard-response,5
true,3,1,4,1,true,z,false,true,0.0-2.0-0.8-0.77-3.77,1,1,0,90,false,stim,false,1,1019.1000000238419,1,1,1,27857,WMM2,442024,false,false,312,image-keyboard-response,6
true,3,1,4,0,false,q,true,false,0.0-2.0-0.8-0.78-3.78,1,1,0,90,false,stim,false,0,1917.8999999761581,1,0,2,27857,WMM2,445462,false,false,315,image-keyboard-response,7
true,3,0,4,0,true,q,false,true,0.0-2.0-0.8-0.79-3.79,1,1,0,81,false,stim,false,0,606.7000000476837,1,0,2,27857,WMM2,447610,false,false,318,image-keyboard-response,8
true,3,1,4,1,true,z,false,true,0.0-2.0-0.8-0.80-3.80,1,1,0,90,false,stim,false,1,885.8999999761581,1,1,1,27857,WMM2,450015,false,false,321,image-keyboard-response,9
true,3,2,4,2,true,d,false,false,0.0-2.0-0.9-0.81-3.81,1,1,0,68,false,stim,false,2,772.7999999523163,1,1,0,27857,WMM2,452314,false,true,324,image-keyboard-response,10
true,3,0,4,0,true,q,false,true,0.0-2.0-0.9-0.82-3.82,1,1,0,81,false,stim,false,0,865.2999999523163,1,0,2,27857,WMM2,454704,false,false,327,image-keyboard-response,11
true,3,0,4,0,true,q,false,true,0.0-2.0-0.9-0.83-3.83,1,1,0,81,false,stim,false,0,911.2000000476837,1,0,2,27857,WMM2,457129,false,false,330,image-keyboard-response,12
true,3,0,4,0,true,q,false,true,0.0-2.0-0.9-0.84-3.84,1,1,0,81,false,stim,false,0,855.8000000715256,1,0,2,27857,WMM2,459518,false,false,333,image-keyboard-response,13
true,3,1,4,1,true,z,false,true,0.0-2.0-0.9-0.85-3.85,1,1,0,90,false,stim,false,1,1313.5999999046326,1,1,1,27857,WMM2,462364,false,false,336,image-keyboard-response,14
true,3,1,4,1,true,z,false,true,0.0-2.0-0.9-0.86-3.86,1,1,0,90,false,stim,false,1,761.7999999523163,1,1,1,27857,WMM2,464650,false,false,339,image-keyboard-response,15
true,3,1,4,1,true,z,false,true,0.0-2.0-0.9-0.87-3.87,1,1,0,90,false,stim,false,1,2236.9000000953674,1,1,1,27857,WMM2,468403,false,false,342,image-keyboard-response,16
true,3,2,4,2,true,d,false,true,0.0-2.0-0.9-0.88-3.88,1,1,0,68,false,stim,false,2,1431.8999999761581,1,1,0,27857,WMM2,471354,false,false,345,image-keyboard-response,17
true,3,2,4,2,true,d,false,true,0.0-2.0-0.9-0.89-3.89,1,1,0,68,false,stim,false,2,1549.6999999284744,1,1,0,27857,WMM2,474417,false,false,348,image-keyboard-response,18
true,3,2,4,2,true,d,false,true,0.0-2.0-0.10-0.90-3.90,1,1,0,68,false,stim,false,2,1491.3999999761581,1,1,0,27857,WMM2,477435,false,false,351,image-keyboard-response,19
true,3,0,4,0,true,q,false,true,0.0-2.0-0.10-0.91-3.91,1,1,0,81,false,stim,false,0,1456.8999999761581,1,0,2,27857,WMM2,480416,false,false,354,image-keyboard-response,20
true,3,2,4,2,true,d,false,true,0.0-2.0-0.10-0.92-3.92,1,1,0,68,false,stim,false,2,1466.1999999284744,1,1,0,27857,WMM2,483406,false,false,357,image-keyboard-response,21
true,3,1,4,1,true,z,false,true,0.0-2.0-0.10-0.93-3.93,1,1,0,90,false,stim,false,1,1810.6999999284744,1,0,1,27857,WMM2,486730,false,false,360,image-keyboard-response,22
true,3,0,4,0,true,q,false,true,0.0-2.0-0.10-0.94-3.94,1,1,0,81,false,stim,false,0,1287.5,1,1,2,27857,WMM2,489539,false,false,363,image-keyboard-response,23
true,3,0,4,0,true,q,false,true,0.0-2.0-0.10-0.95-3.95,1,1,0,81,false,stim,false,0,1602.5999999046326,1,1,2,27857,WMM2,492676,false,false,366,image-keyboard-response,24
true,3,1,4,1,true,z,false,true,0.0-2.0-0.10-0.96-3.96,1,1,0,90,false,stim,false,1,2282.600000023842,1,0,1,27857,WMM2,496473,false,false,369,image-keyboard-response,25
true,3,1,4,1,true,z,false,true,0.0-2.0-0.10-0.97-3.97,1,1,0,90,false,stim,false,1,1096.7999999523163,1,0,1,27857,WMM2,499103,false,false,372,image-keyboard-response,26
true,3,2,4,2,true,d,false,true,0.0-2.0-0.10-0.98-3.98,1,1,0,68,false,stim,false,2,1501.0,1,1,0,27857,WMM2,502130,false,false,375,image-keyboard-response,27
true,3,1,4,1,true,z,false,true,0.0-2.0-0.11-0.99-3.99,1,1,0,90,false,stim,false,1,1608.7000000476837,1,0,1,27857,WMM2,505249,false,false,378,image-keyboard-response,28
true,3,2,4,2,true,d,false,true,0.0-2.0-0.11-0.100-3.100,1,1,0,68,false,stim,false,2,1332.6000000238419,1,1,0,27857,WMM2,508097,false,false,381,image-keyboard-response,29
true,3,1,4,1,true,z,false,true,0.0-2.0-0.11-0.101-3.101,1,1,0,90,false,stim,false,1,1273.8999999761581,1,0,1,27857,WMM2,510888,false,false,384,image-keyboard-response,30
true,4,0,2,0,true,q,false,true,0.0-2.0-0.11-0.102-3.102,1,0,1,81,true,stim,false,0,1266.8000000715256,1,1,2,27857,WMM2,513668,false,false,387,image-keyboard-response,1
true,4,1,2,2,false,d,false,false,0.0-2.0-0.11-0.103-3.103,1,0,1,90,false,stim,true,1,1282.6999999284744,1,0,1,27857,WMM2,516474,false,false,390,image-keyboard-response,2
true,4,0,2,0,true,q,false,true,0.0-2.0-0.11-0.104-3.104,1,0,1,81,false,stim,false,0,1183.2999999523163,1,1,2,27857,WMM2,519177,false,false,393,image-keyboard-response,3
true,4,2,2,2,true,d,false,true,0.0-2.0-0.11-0.105-3.105,1,0,1,68,false,stim,false,2,659.0,1,1,0,27857,WMM2,521356,false,false,396,image-keyboard-response,4
true,4,0,2,0,true,q,false,true,0.0-2.0-0.11-0.106-3.106,1,0,1,81,false,stim,false,0,1750.1999999284744,1,1,2,27857,WMM2,524619,false,false,399,image-keyboard-response,5
true,4,2,2,2,true,d,false,true,0.0-2.0-0.11-0.107-3.107,1,0,1,68,false,stim,false,2,664.6000000238419,1,1,0,27857,WMM2,526810,false,false,402,image-keyboard-response,6
true,4,1,2,0,false,q,true,false,0.0-2.0-0.12-0.108-3.108,1,0,1,90,false,stim,false,0,1028.7999999523163,1,1,2,27857,WMM2,529363,false,false,405,image-keyboard-response,7
true,4,1,2,2,false,d,false,false,0.0-2.0-0.12-0.109-3.109,1,0,1,90,false,stim,true,1,673.6000000238419,1,0,1,27857,WMM2,531564,false,false,408,image-keyboard-response,8
true,4,2,2,2,true,d,false,true,0.0-2.0-0.12-0.110-3.110,1,0,1,68,false,stim,false,2,633.4000000953674,1,1,0,27857,WMM2,533738,false,false,411,image-keyboard-response,9
true,4,1,2,2,false,d,false,false,0.0-2.0-0.12-0.111-3.111,1,0,1,90,false,stim,true,1,907.5,1,0,1,27857,WMM2,536157,false,false,414,image-keyboard-response,10
true,4,2,2,2,true,d,false,true,0.0-2.0-0.12-0.112-3.112,1,0,1,68,false,stim,false,1,977.6000000238419,1,0,1,27857,WMM2,538661,false,false,417,image-keyboard-response,11
true,4,0,2,0,true,q,false,true,0.0-2.0-0.12-0.113-3.113,1,0,1,81,false,stim,false,0,786.5,1,1,2,27857,WMM2,540981,false,false,420,image-keyboard-response,12
true,4,2,2,2,true,d,false,false,0.0-2.0-0.12-0.114-3.114,1,0,1,68,false,stim,false,2,650.5,1,1,0,27857,WMM2,543151,false,true,423,image-keyboard-response,13
true,4,2,2,0,false,q,true,false,0.0-2.0-0.12-0.115-3.115,1,0,1,68,false,stim,false,0,756.2000000476837,1,1,2,27857,WMM2,545421,false,false,426,image-keyboard-response,14
true,4,2,2,2,true,d,false,true,0.0-2.0-0.12-0.116-3.116,1,0,1,68,false,stim,false,2,871.8000000715256,1,1,0,27857,WMM2,547814,false,false,429,image-keyboard-response,15
true,4,0,2,0,true,q,false,true,0.0-2.0-0.13-0.117-3.117,1,0,1,81,false,stim,false,0,674.2999999523163,1,1,2,27857,WMM2,550031,false,false,432,image-keyboard-response,16
true,4,2,2,2,true,d,false,false,0.0-2.0-0.13-0.118-3.118,1,0,1,68,false,stim,false,2,638.6000000238419,1,1,0,27857,WMM2,552192,false,true,435,image-keyboard-response,17
true,4,2,2,2,true,d,false,true,0.0-2.0-0.13-0.119-3.119,1,0,1,68,false,stim,false,1,789.1999999284744,1,0,1,27857,WMM2,554503,false,false,438,image-keyboard-response,18
true,4,2,2,2,true,d,false,true,0.0-2.0-0.13-0.120-3.120,1,0,1,68,false,stim,false,2,714.1000000238419,1,1,0,27857,WMM2,556745,false,false,441,image-keyboard-response,19
true,4,0,2,0,true,q,false,false,0.0-2.0-0.13-0.121-3.121,1,0,1,81,false,stim,false,0,942.8000000715256,1,1,2,27857,WMM2,559212,false,true,444,image-keyboard-response,20
true,4,2,2,2,true,d,false,true,0.0-2.0-0.13-0.122-3.122,1,0,1,68,false,stim,false,1,785.0,1,0,1,27857,WMM2,561530,false,false,447,image-keyboard-response,21
true,4,2,2,2,true,d,false,true,0.0-2.0-0.13-0.123-3.123,1,0,1,68,false,stim,false,1,1260.6000000238419,1,0,1,27857,WMM2,564327,false,false,450,image-keyboard-response,22
true,4,0,2,0,true,q,false,false,0.0-2.0-0.13-0.124-3.124,1,0,1,81,false,stim,false,0,705.7000000476837,1,1,2,27857,WMM2,566564,false,true,453,image-keyboard-response,23
true,4,2,2,2,true,d,false,true,0.0-2.0-0.13-0.125-3.125,1,0,1,68,false,stim,false,2,575.0,1,1,0,27857,WMM2,568662,false,false,456,image-keyboard-response,24
true,4,2,2,2,true,d,false,true,0.0-2.0-0.14-0.126-3.126,1,0,1,68,false,stim,false,1,1407.7000000476837,1,0,1,27857,WMM2,571592,false,false,459,image-keyboard-response,25
true,4,2,2,2,true,d,false,true,0.0-2.0-0.14-0.127-3.127,1,0,1,68,false,stim,false,1,961.6000000238419,1,0,1,27857,WMM2,574087,false,false,462,image-keyboard-response,26
true,4,2,2,2,true,d,false,true,0.0-2.0-0.14-0.128-3.128,1,0,1,68,false,stim,false,2,1067.2999999523163,1,1,0,27857,WMM2,576674,false,false,465,image-keyboard-response,27
true,4,0,2,0,true,q,false,false,0.0-2.0-0.14-0.129-3.129,1,0,1,81,false,stim,false,0,794.7999999523163,1,1,2,27857,WMM2,578996,false,true,468,image-keyboard-response,28
true,4,1,2,0,false,q,true,false,0.0-2.0-0.14-0.130-3.130,1,0,1,90,false,stim,false,0,540.7000000476837,1,1,2,27857,WMM2,581063,false,false,471,image-keyboard-response,29
true,4,2,2,2,true,d,false,true,0.0-2.0-0.14-0.131-3.131,1,0,1,68,false,stim,false,2,591.8999999761581,1,1,0,27857,WMM2,583194,false,false,474,image-keyboard-response,30
true,5,2,2,0,false,q,true,false,0.0-2.0-0.14-0.132-3.132,1,0,1,68,true,stim,false,0,941.2000000476837,1,1,2,27857,WMM2,585662,false,false,477,image-keyboard-response,1
true,5,2,2,0,false,q,false,false,0.0-2.0-0.14-0.133-3.133,1,0,1,68,false,stim,true,2,925.6000000238419,1,0,1,27857,WMM2,588121,false,false,480,image-keyboard-response,2
true,5,2,2,2,true,d,false,true,0.0-2.0-0.14-0.134-3.134,1,0,1,68,false,stim,false,2,480.1999999284744,1,1,0,27857,WMM2,590128,false,false,483,image-keyboard-response,3
true,5,2,2,0,false,q,false,false,0.0-2.0-0.15-0.135-3.135,1,0,1,68,false,stim,true,2,1125.1000000238419,1,0,1,27857,WMM2,592795,false,false,486,image-keyboard-response,4
true,5,0,2,0,true,q,false,true,0.0-2.0-0.15-0.136-3.136,1,0,1,81,false,stim,false,0,1785.0,1,1,2,27857,WMM2,596102,false,false,489,image-keyboard-response,5
true,5,0,2,0,true,q,false,true,0.0-2.0-0.15-0.137-3.137,1,0,1,81,false,stim,false,0,1248.1000000238419,1,1,2,27857,WMM2,598863,false,false,492,image-keyboard-response,6
true,5,2,2,0,false,q,false,false,0.0-2.0-0.15-0.138-3.138,1,0,1,68,false,stim,true,2,2054.1999999284744,1,0,1,27857,WMM2,602461,false,false,495,image-keyboard-response,7
true,5,2,2,2,true,d,false,true,0.0-2.0-0.15-0.139-3.139,1,0,1,68,false,stim,false,2,1500.6000000238419,1,1,0,27857,WMM2,605473,false,false,498,image-keyboard-response,8
true,5,2,2,2,true,d,false,true,0.0-2.0-0.15-0.140-3.140,1,0,1,68,false,stim,false,2,1210.3000000715256,1,1,0,27857,WMM2,608213,false,false,501,image-keyboard-response,9
true,5,2,2,2,true,d,false,true,0.0-2.0-0.15-0.141-3.141,1,0,1,68,false,stim,false,2,1710.5,1,1,0,27857,WMM2,611439,false,false,504,image-keyboard-response,10
true,5,0,2,0,true,q,false,true,0.0-2.0-0.15-0.142-3.142,1,0,1,81,false,stim,false,0,1011.1999999284744,1,1,2,27857,WMM2,613983,false,false,507,image-keyboard-response,11
true,5,1,2,0,false,q,true,false,0.0-2.0-0.15-0.143-3.143,1,0,1,90,false,stim,false,2,649.6000000238419,1,0,1,27857,WMM2,616166,false,false,510,image-keyboard-response,12
true,5,2,2,2,true,d,false,true,0.0-2.0-0.16-0.144-3.144,1,0,1,68,false,stim,false,2,822.7999999523163,1,1,0,27857,WMM2,618518,false,false,513,image-keyboard-response,13
true,5,0,2,0,true,q,false,true,0.0-2.0-0.16-0.145-3.145,1,0,1,81,false,stim,false,0,1655.5,1,1,2,27857,WMM2,621716,false,false,516,image-keyboard-response,14
true,5,2,2,0,false,q,false,false,0.0-2.0-0.16-0.146-3.146,1,0,1,68,false,stim,true,2,1119.4000000953674,1,0,1,27857,WMM2,624367,false,false,519,image-keyboard-response,15
true,5,0,2,0,true,q,false,true,0.0-2.0-0.16-0.147-3.147,1,0,1,81,false,stim,false,0,2227.899999976158,1,1,2,27857,WMM2,628136,false,false,522,image-keyboard-response,16
true,5,1,2,0,false,q,true,true,0.0-2.0-0.16-0.148-3.148,1,0,1,90,false,stim,false,2,977.6000000238419,1,0,1,27857,WMM2,630647,false,true,525,image-keyboard-response,17
true,5,2,2,2,true,d,false,true,0.0-2.0-0.16-0.149-3.149,1,0,1,68,false,stim,false,2,812.9000000953674,1,1,0,27857,WMM2,632995,false,false,528,image-keyboard-response,18
true,5,0,2,0,true,q,false,true,0.0-2.0-0.16-0.150-3.150,1,0,1,81,false,stim,false,0,1052.1000000238419,1,1,2,27857,WMM2,635567,false,false,531,image-keyboard-response,19
true,5,2,2,2,true,d,false,true,0.0-2.0-0.16-0.151-3.151,1,0,1,68,false,stim,false,2,693.0,1,1,0,27857,WMM2,637790,false,false,534,image-keyboard-response,20
true,5,1,2,0,false,q,true,false,0.0-2.0-0.16-0.152-3.152,1,0,1,90,false,stim,false,2,1277.8000000715256,1,0,1,27857,WMM2,640595,false,false,537,image-keyboard-response,21
true,5,0,2,0,true,q,false,true,0.0-2.0-0.17-0.153-3.153,1,0,1,81,false,stim,false,0,1016.8999999761581,1,1,2,27857,WMM2,643139,false,false,540,image-keyboard-response,22
true,5,2,2,2,true,d,false,true,0.0-2.0-0.17-0.154-3.154,1,0,1,68,false,stim,false,2,819.5,1,1,0,27857,WMM2,645496,false,false,543,image-keyboard-response,23
true,5,0,2,0,true,q,false,true,0.0-2.0-0.17-0.155-3.155,1,0,1,81,false,stim,false,0,1701.0,1,1,2,27857,WMM2,648733,false,false,546,image-keyboard-response,24
true,5,2,2,2,true,d,false,true,0.0-2.0-0.17-0.156-3.156,1,0,1,68,false,stim,false,2,2379.5,1,1,0,27857,WMM2,652644,false,false,549,image-keyboard-response,25
true,5,1,2,0,false,q,true,false,0.0-2.0-0.17-0.157-3.157,1,0,1,90,false,stim,false,2,2511.7000000476837,1,0,1,27857,WMM2,656669,false,false,552,image-keyboard-response,26
true,5,0,2,0,true,q,false,true,0.0-2.0-0.17-0.158-3.158,1,0,1,81,false,stim,false,0,782.3999999761581,1,1,2,27857,WMM2,658973,false,false,555,image-keyboard-response,27
true,5,2,2,2,true,d,false,true,0.0-2.0-0.17-0.159-3.159,1,0,1,68,false,stim,false,2,1115.3000000715256,1,1,0,27857,WMM2,661608,false,false,558,image-keyboard-response,28
true,5,2,2,0,false,q,false,false,0.0-2.0-0.17-0.160-3.160,1,0,1,68,false,stim,true,2,1231.7999999523163,1,0,1,27857,WMM2,664381,false,false,561,image-keyboard-response,29
true,5,2,2,0,false,q,false,false,0.0-2.0-0.17-0.161-3.161,1,0,1,68,false,stim,true,2,1081.3999999761581,1,0,1,27857,WMM2,666985,false,false,564,image-keyboard-response,30
true,5,0,2,0,true,q,false,true,0.0-2.0-0.18-0.162-3.162,1,0,1,81,false,stim,false,0,869.2000000476837,1,1,2,27857,WMM2,669392,false,false,567,image-keyboard-response,31
true,5,0,2,0,true,q,false,true,0.0-2.0-0.18-0.163-3.163,1,0,1,81,false,stim,false,2,1332.7000000476837,1,0,1,27857,WMM2,672255,false,false,570,image-keyboard-response,32
true,5,0,2,0,true,q,false,true,0.0-2.0-0.18-0.164-3.164,1,0,1,81,false,stim,false,2,1358.1000000238419,1,0,1,27857,WMM2,675139,false,false,573,image-keyboard-response,33
true,5,2,2,2,true,d,false,true,0.0-2.0-0.18-0.165-3.165,1,0,1,68,false,stim,false,2,949.0,1,1,0,27857,WMM2,677619,false,false,576,image-keyboard-response,34
true,5,2,2,2,true,d,false,true,0.0-2.0-0.18-0.166-3.166,1,0,1,68,false,stim,false,2,904.3999999761581,1,0,0,27857,WMM2,680056,false,false,579,image-keyboard-response,35
true,5,2,2,2,true,d,false,false,0.0-2.0-0.18-0.167-3.167,1,0,1,68,false,stim,false,2,1720.5999999046326,1,0,0,27857,WMM2,683310,false,true,582,image-keyboard-response,36
true,5,0,2,0,true,q,false,true,0.0-2.0-0.18-0.168-3.168,1,0,1,81,false,stim,false,2,798.6000000238419,1,0,1,27857,WMM2,685639,false,false,585,image-keyboard-response,37
true,5,0,2,0,true,q,false,true,0.0-2.0-0.18-0.169-3.169,1,0,1,81,false,stim,false,0,1023.3000000715256,1,1,2,27857,WMM2,688191,false,false,588,image-keyboard-response,38
true,5,0,2,0,true,q,false,true,0.0-2.0-0.18-0.170-3.170,1,0,1,81,false,stim,false,0,859.6999999284744,1,1,2,27857,WMM2,690560,false,false,591,image-keyboard-response,39
true,5,2,2,2,true,d,false,true,0.0-2.0-0.19-0.171-3.171,1,0,1,68,false,stim,false,2,831.5,1,0,0,27857,WMM2,692901,false,false,594,image-keyboard-response,40
true,5,0,2,0,true,q,false,true,0.0-2.0-0.19-0.172-3.172,1,0,1,81,false,stim,false,2,1155.8999999761581,1,0,1,27857,WMM2,695586,false,false,597,image-keyboard-response,41
true,5,2,2,2,true,d,false,true,0.0-2.0-0.19-0.173-3.173,1,0,1,68,false,stim,false,2,1243.0999999046326,1,0,0,27857,WMM2,698353,false,false,600,image-keyboard-response,42
true,5,0,2,0,true,q,false,true,0.0-2.0-0.19-0.174-3.174,1,0,1,81,false,stim,false,0,1016.1000000238419,1,1,2,27857,WMM2,700916,false,false,603,image-keyboard-response,43
true,5,2,2,2,true,d,false,true,0.0-2.0-0.19-0.175-3.175,1,0,1,68,false,stim,false,2,1193.8999999761581,1,0,0,27857,WMM2,703622,false,false,606,image-keyboard-response,44
true,6,0,1,0,true,q,false,true,0.0-2.0-0.19-0.176-3.176,0,0,1,81,true,stim,false,0,1097.0999999046326,1,1,2,27857,WMM2,706243,false,false,609,image-keyboard-response,1
true,6,2,1,2,true,d,false,true,0.0-2.0-0.19-0.177-3.177,0,0,1,68,false,stim,false,0,1325.5999999046326,1,0,1,27857,WMM2,709086,false,false,612,image-keyboard-response,2
true,6,2,1,2,true,d,false,true,0.0-2.0-0.19-0.178-3.178,0,0,1,68,false,stim,false,0,1633.8999999761581,1,0,1,27857,WMM2,712256,false,false,615,image-keyboard-response,3
true,6,0,1,0,true,q,false,true,0.0-2.0-0.19-0.179-3.179,0,0,1,81,false,stim,false,0,1052.3999999761581,1,1,2,27857,WMM2,714840,false,false,618,image-keyboard-response,4
true,6,0,1,0,true,q,false,true,0.0-2.0-0.20-0.180-3.180,0,0,1,81,false,stim,false,0,1186.2000000476837,1,1,2,27857,WMM2,717550,false,false,621,image-keyboard-response,5
true,6,2,1,1,false,z,false,false,0.0-2.0-0.20-0.181-3.181,0,0,1,68,false,stim,true,2,1096.1000000238419,1,0,0,27857,WMM2,720194,false,false,624,image-keyboard-response,6
true,6,2,1,2,true,d,false,true,0.0-2.0-0.20-0.182-3.182,0,0,1,68,false,stim,false,0,770.4000000953674,1,0,1,27857,WMM2,722475,false,false,627,image-keyboard-response,7
true,6,2,1,2,true,d,false,true,0.0-2.0-0.20-0.183-3.183,0,0,1,68,false,stim,false,0,1018.2000000476837,1,0,1,27857,WMM2,725028,false,false,630,image-keyboard-response,8
true,6,1,1,1,true,z,false,true,0.0-2.0-0.20-0.184-3.184,0,0,1,90,false,stim,false,2,903.0,1,0,0,27857,WMM2,727444,false,false,633,image-keyboard-response,9
true,6,2,1,2,true,d,false,true,0.0-2.0-0.20-0.185-3.185,0,0,1,68,false,stim,false,0,968.6000000238419,1,0,1,27857,WMM2,729925,false,false,636,image-keyboard-response,10
true,6,0,1,0,true,q,false,true,0.0-2.0-0.20-0.186-3.186,0,0,1,81,false,stim,false,0,918.3999999761581,1,1,2,27857,WMM2,732373,false,false,639,image-keyboard-response,11
true,6,1,1,1,true,z,false,false,0.0-2.0-0.20-0.187-3.187,0,0,1,90,false,stim,false,2,798.8999999761581,1,0,0,27857,WMM2,734699,false,true,642,image-keyboard-response,12
true,6,0,1,0,true,q,false,true,0.0-2.0-0.20-0.188-3.188,0,0,1,81,false,stim,false,0,1010.0999999046326,1,1,2,27857,WMM2,737232,false,false,645,image-keyboard-response,13
true,6,2,1,2,true,d,false,false,0.0-2.0-0.21-0.189-3.189,0,0,1,68,false,stim,false,0,864.3999999761581,1,0,1,27857,WMM2,739634,false,true,648,image-keyboard-response,14
true,6,2,1,2,true,d,false,false,0.0-2.0-0.21-0.190-3.190,0,0,1,68,false,stim,false,0,730.8000000715256,1,0,1,27857,WMM2,741893,false,true,651,image-keyboard-response,15
true,6,0,1,0,true,q,false,true,0.0-2.0-0.21-0.191-3.191,0,0,1,81,false,stim,false,0,739.2000000476837,1,1,2,27857,WMM2,744151,false,false,654,image-keyboard-response,16
true,6,2,1,1,false,z,false,true,0.0-2.0-0.21-0.192-3.192,0,0,1,68,false,stim,true,2,897.7999999523163,1,0,0,27857,WMM2,746585,false,true,657,image-keyboard-response,17
true,6,0,1,0,true,q,false,true,0.0-2.0-0.21-0.193-3.193,0,0,1,81,false,stim,false,0,725.9000000953674,1,1,2,27857,WMM2,748834,false,false,660,image-keyboard-response,18
true,6,2,1,1,false,z,false,false,0.0-2.0-0.21-0.194-3.194,0,0,1,68,false,stim,true,2,912.7000000476837,1,0,0,27857,WMM2,751266,false,false,663,image-keyboard-response,19
true,6,1,1,2,false,d,true,false,0.0-2.0-0.21-0.195-3.195,0,0,1,90,false,stim,false,0,1170.6000000238419,1,0,1,27857,WMM2,753950,false,false,666,image-keyboard-response,20
true,6,0,1,0,true,q,false,true,0.0-2.0-0.21-0.196-3.196,0,0,1,81,false,stim,false,0,1486.7999999523163,1,1,2,27857,WMM2,756957,false,false,669,image-keyboard-response,21
true,6,2,1,1,false,z,false,false,0.0-2.0-0.21-0.197-3.197,0,0,1,68,false,stim,true,2,995.6999999284744,1,0,0,27857,WMM2,759489,false,false,672,image-keyboard-response,22
true,6,2,1,2,true,d,false,true,0.0-2.0-0.22-0.198-3.198,0,0,1,68,false,stim,false,0,870.7999999523163,1,0,1,27857,WMM2,761898,false,false,675,image-keyboard-response,23
true,6,2,1,2,true,d,false,true,0.0-2.0-0.22-0.199-3.199,0,0,1,68,false,stim,false,0,796.2999999523163,1,0,1,27857,WMM2,764214,false,false,678,image-keyboard-response,24
true,6,1,1,1,true,z,false,true,0.0-2.0-0.22-0.200-3.200,0,0,1,90,false,stim,false,2,610.2999999523163,1,0,0,27857,WMM2,766349,false,false,681,image-keyboard-response,25
true,6,0,1,0,true,q,false,true,0.0-2.0-0.22-0.201-3.201,0,0,1,81,false,stim,false,0,845.0,1,1,2,27857,WMM2,768721,false,false,684,image-keyboard-response,26
true,6,2,1,2,true,d,false,true,0.0-2.0-0.22-0.202-3.202,0,0,1,68,false,stim,false,0,830.6000000238419,1,0,1,27857,WMM2,771069,false,false,687,image-keyboard-response,27
true,6,0,1,0,true,q,false,true,0.0-2.0-0.22-0.203-3.203,0,0,1,81,false,stim,false,0,858.1000000238419,1,1,2,27857,WMM2,773467,false,false,690,image-keyboard-response,28
true,6,0,1,0,true,q,false,true,0.0-2.0-0.22-0.204-3.204,0,0,1,81,false,stim,false,0,684.0,1,1,2,27857,WMM2,775697,false,false,693,image-keyboard-response,29
true,6,1,1,1,true,z,false,true,0.0-2.0-0.22-0.205-3.205,0,0,1,90,false,stim,false,2,906.2000000476837,1,0,0,27857,WMM2,778137,false,false,696,image-keyboard-response,30
true,6,1,1,1,true,z,false,true,0.0-2.0-0.22-0.206-3.206,0,0,1,90,false,stim,false,2,683.6000000238419,1,1,0,27857,WMM2,780351,false,false,699,image-keyboard-response,31
true,6,1,1,1,true,z,false,true,0.0-2.0-0.23-0.207-3.207,0,0,1,90,false,stim,false,2,634.3000000715256,1,1,0,27857,WMM2,782514,false,false,702,image-keyboard-response,32
true,6,2,1,2,true,d,false,true,0.0-2.0-0.23-0.208-3.208,0,0,1,68,false,stim,false,0,1102.0,1,0,1,27857,WMM2,785149,false,false,705,image-keyboard-response,33
true,6,2,1,2,true,d,false,true,0.0-2.0-0.23-0.209-3.209,0,0,1,68,false,stim,false,0,610.8000000715256,1,0,1,27857,WMM2,787283,false,false,708,image-keyboard-response,34
true,6,0,1,0,true,q,false,false,0.0-2.0-0.23-0.210-3.210,0,0,1,81,false,stim,false,0,704.7999999523163,1,1,2,27857,WMM2,789510,false,true,711,image-keyboard-response,35
true,6,1,1,1,true,z,false,true,0.0-2.0-0.23-0.211-3.211,0,0,1,90,false,stim,false,2,845.7000000476837,1,1,0,27857,WMM2,791873,false,false,714,image-keyboard-response,36
true,6,0,1,0,true,q,false,false,0.0-2.0-0.23-0.212-3.212,0,0,1,81,false,stim,false,0,521.5,1,1,2,27857,WMM2,793932,false,true,717,image-keyboard-response,37
true,6,2,1,2,true,d,false,true,0.0-2.0-0.23-0.213-3.213,0,0,1,68,false,stim,false,0,601.1000000238419,1,0,1,27857,WMM2,796064,false,false,720,image-keyboard-response,38
true,6,0,1,0,true,q,false,true,0.0-2.0-0.23-0.214-3.214,0,0,1,81,false,stim,false,0,768.1999999284744,1,1,2,27857,WMM2,798346,false,false,723,image-keyboard-response,39
true,6,1,1,1,true,z,false,true,0.0-2.0-0.23-0.215-3.215,0,0,1,90,false,stim,false,2,657.5999999046326,1,1,0,27857,WMM2,800540,false,false,726,image-keyboard-response,40
true,7,0,3,0,true,q,false,true,0.0-2.0-0.24-0.216-3.216,1,0,1,81,true,stim,false,0,545.2000000476837,1,1,2,27857,WMM2,802614,false,false,729,image-keyboard-response,1
true,7,0,3,0,true,q,false,true,0.0-2.0-0.24-0.217-3.217,1,0,1,81,false,stim,false,0,560.5,1,1,2,27857,WMM2,804704,false,false,732,image-keyboard-response,2
true,7,1,3,1,true,z,false,false,0.0-2.0-0.24-0.218-3.218,1,0,1,90,false,stim,false,1,798.1999999284744,1,1,0,27857,WMM2,807035,false,true,735,image-keyboard-response,3
true,7,0,3,0,true,q,false,true,0.0-2.0-0.24-0.219-3.219,1,0,1,81,false,stim,false,0,610.1000000238419,1,1,2,27857,WMM2,809166,false,false,738,image-keyboard-response,4
true,7,1,3,1,true,z,false,true,0.0-2.0-0.24-0.220-3.220,1,0,1,90,false,stim,false,1,521.7000000476837,1,1,0,27857,WMM2,811212,false,false,741,image-keyboard-response,5
true,7,1,3,1,true,z,false,true,0.0-2.0-0.24-0.221-3.221,1,0,1,90,false,stim,false,1,678.5999999046326,1,1,0,27857,WMM2,813415,false,false,744,image-keyboard-response,6
true,7,2,3,1,false,z,false,true,0.0-2.0-0.24-0.222-3.222,1,0,1,68,false,stim,true,2,1177.2999999523163,1,0,1,27857,WMM2,816109,false,true,747,image-keyboard-response,7
true,7,2,3,1,false,z,false,false,0.0-2.0-0.24-0.223-3.223,1,0,1,68,false,stim,true,2,1037.3999999761581,1,0,1,27857,WMM2,818665,false,false,750,image-keyboard-response,8
true,7,2,3,1,false,z,false,false,0.0-2.0-0.24-0.224-3.224,1,0,1,68,false,stim,true,2,991.8000000715256,1,0,1,27857,WMM2,821185,false,false,753,image-keyboard-response,9
true,7,0,3,0,true,q,false,true,0.0-2.0-0.25-0.225-3.225,1,0,1,81,false,stim,false,0,743.3999999761581,1,1,2,27857,WMM2,823460,false,false,756,image-keyboard-response,10
true,7,2,3,0,false,q,true,false,0.0-2.0-0.25-0.226-3.226,1,0,1,68,false,stim,false,0,665.7999999523163,1,1,2,27857,WMM2,825657,false,false,759,image-keyboard-response,11
true,7,1,3,1,true,z,false,true,0.0-2.0-0.25-0.227-3.227,1,0,1,90,false,stim,false,1,592.6000000238419,1,1,0,27857,WMM2,827768,false,false,762,image-keyboard-response,12
true,7,2,3,1,false,z,false,false,0.0-2.0-0.25-0.228-3.228,1,0,1,68,false,stim,true,2,665.1000000238419,1,0,1,27857,WMM2,829946,false,false,765,image-keyboard-response,13
true,7,0,3,0,true,q,false,false,0.0-2.0-0.25-0.229-3.229,1,0,1,81,false,stim,false,0,722.8000000715256,1,1,2,27857,WMM2,832184,false,true,768,image-keyboard-response,14
true,7,1,3,1,true,z,false,false,0.0-2.0-0.25-0.230-3.230,1,0,1,90,false,stim,false,1,531.7000000476837,1,1,0,27857,WMM2,834247,false,true,771,image-keyboard-response,15
true,7,2,3,1,false,z,false,false,0.0-2.0-0.25-0.231-3.231,1,0,1,68,false,stim,true,2,1742.2999999523163,1,0,1,27857,WMM2,837519,false,false,774,image-keyboard-response,16
true,7,1,3,1,true,z,false,false,0.0-2.0-0.25-0.232-3.232,1,0,1,90,false,stim,false,1,666.1999999284744,1,1,0,27857,WMM2,839712,false,true,777,image-keyboard-response,17
true,7,1,3,1,true,z,false,true,0.0-2.0-0.25-0.233-3.233,1,0,1,90,false,stim,false,2,726.6000000238419,1,0,1,27857,WMM2,841962,false,false,780,image-keyboard-response,18
true,7,0,3,0,true,q,false,true,0.0-2.0-0.26-0.234-3.234,1,0,1,81,false,stim,false,0,700.3999999761581,1,1,2,27857,WMM2,844184,false,false,783,image-keyboard-response,19
true,7,1,3,1,true,z,false,true,0.0-2.0-0.26-0.235-3.235,1,0,1,90,false,stim,false,2,601.0,1,0,1,27857,WMM2,846298,false,false,786,image-keyboard-response,20
true,7,0,3,0,true,q,false,true,0.0-2.0-0.26-0.236-3.236,1,0,1,81,false,stim,false,0,667.1000000238419,1,0,2,27857,WMM2,848487,false,false,789,image-keyboard-response,21
true,7,2,3,1,false,z,true,false,0.0-2.0-0.26-0.237-3.237,1,0,1,68,false,stim,false,1,1263.4000000953674,1,1,0,27857,WMM2,851282,false,false,792,image-keyboard-response,22
true,7,1,3,1,true,z,false,true,0.0-2.0-0.26-0.238-3.238,1,0,1,90,false,stim,false,2,1081.8999999761581,1,0,1,27857,WMM2,853904,false,false,795,image-keyboard-response,23
true,7,0,3,0,true,q,false,true,0.0-2.0-0.26-0.239-3.239,1,0,1,81,false,stim,false,0,680.2999999523163,1,0,2,27857,WMM2,856110,false,false,798,image-keyboard-response,24
true,7,1,3,1,true,z,false,true,0.0-2.0-0.26-0.240-3.240,1,0,1,90,false,stim,false,1,700.1000000238419,1,1,0,27857,WMM2,858342,false,false,801,image-keyboard-response,25
true,7,1,3,1,true,z,false,false,0.0-2.0-0.26-0.241-3.241,1,0,1,90,false,stim,false,1,583.6000000238419,1,1,0,27857,WMM2,860443,false,true,804,image-keyboard-response,26
true,7,1,3,1,true,z,false,false,0.0-2.0-0.26-0.242-3.242,1,0,1,90,false,stim,false,2,678.6999999284744,1,0,1,27857,WMM2,862659,false,true,807,image-keyboard-response,27
true,7,0,3,0,true,q,false,true,0.0-2.0-0.27-0.243-3.243,1,0,1,81,false,stim,false,0,698.6000000238419,1,0,2,27857,WMM2,864868,false,false,810,image-keyboard-response,28
true,7,1,3,1,true,z,false,true,0.0-2.0-0.27-0.244-3.244,1,0,1,90,false,stim,false,2,1019.8999999761581,1,0,1,27857,WMM2,867411,false,false,813,image-keyboard-response,29
true,7,0,3,0,true,q,false,true,0.0-2.0-0.27-0.245-3.245,1,0,1,81,false,stim,false,0,713.8999999761581,1,0,2,27857,WMM2,869649,false,false,816,image-keyboard-response,30
true,8,2,1,1,false,z,true,false,0.0-2.0-0.27-0.246-3.246,1,0,0,68,true,stim,false,1,913.7000000476837,1,1,0,27857,WMM2,872103,false,false,819,image-keyboard-response,1
true,8,1,1,1,true,z,false,true,0.0-2.0-0.27-0.247-3.247,1,0,0,90,false,stim,false,1,610.0,1,1,0,27857,WMM2,874237,false,false,822,image-keyboard-response,2
true,8,1,1,1,true,z,false,true,0.0-2.0-0.27-0.248-3.248,1,0,0,90,false,stim,false,1,672.3999999761581,1,1,0,27857,WMM2,876434,false,false,825,image-keyboard-response,3
true,8,0,1,2,false,d,false,false,0.0-2.0-0.27-0.249-3.249,1,0,0,81,false,stim,true,0,1029.1000000238419,1,0,2,27857,WMM2,878977,false,false,828,image-keyboard-response,4
true,8,1,1,2,false,d,false,false,0.0-2.0-0.27-0.250-3.250,1,0,0,90,false,stim,true,1,757.2999999523163,1,0,1,27857,WMM2,881245,false,false,831,image-keyboard-response,5
true,8,2,1,2,true,d,false,true,0.0-2.0-0.27-0.251-3.251,1,0,0,68,false,stim,false,1,645.1000000238419,1,0,1,27857,WMM2,883413,false,false,834,image-keyboard-response,6
true,8,1,1,1,true,z,false,true,0.0-2.0-0.28-0.252-3.252,1,0,0,90,false,stim,false,1,682.7999999523163,1,1,0,27857,WMM2,885618,false,false,837,image-keyboard-response,7
true,8,1,1,1,true,z,false,true,0.0-2.0-0.28-0.253-3.253,1,0,0,90,false,stim,false,1,837.3000000715256,1,1,0,27857,WMM2,887974,false,false,840,image-keyboard-response,8
true,8,0,1,2,false,d,false,false,0.0-2.0-0.28-0.254-3.254,1,0,0,81,false,stim,true,0,682.1000000238419,1,0,2,27857,WMM2,890192,false,false,843,image-keyboard-response,9
true,8,2,1,2,true,d,false,true,0.0-2.0-0.28-0.255-3.255,1,0,0,68,false,stim,false,1,1273.3999999761581,1,0,1,27857,WMM2,892987,false,false,846,image-keyboard-response,10
true,8,0,1,2,false,d,false,true,0.0-2.0-0.28-0.256-3.256,1,0,0,81,false,stim,true,0,748.1999999284744,1,0,2,27857,WMM2,895270,false,true,849,image-keyboard-response,11
true,8,2,1,2,true,d,false,true,0.0-2.0-0.28-0.257-3.257,1,0,0,68,false,stim,false,1,716.2999999523163,1,0,1,27857,WMM2,897507,false,false,852,image-keyboard-response,12
true,8,2,1,2,true,d,false,true,0.0-2.0-0.28-0.258-3.258,1,0,0,68,false,stim,false,1,656.3999999761581,1,0,1,27857,WMM2,899680,false,false,855,image-keyboard-response,13
true,8,0,1,2,false,d,false,true,0.0-2.0-0.28-0.259-3.259,1,0,0,81,false,stim,true,0,1532.8000000715256,1,0,2,27857,WMM2,902749,false,true,858,image-keyboard-response,14
true,8,1,1,1,true,z,false,true,0.0-2.0-0.28-0.260-3.260,1,0,0,90,false,stim,false,1,703.0,1,1,0,27857,WMM2,904975,false,false,861,image-keyboard-response,15
true,8,0,1,2,false,d,false,false,0.0-2.0-0.29-0.261-3.261,1,0,0,81,false,stim,true,0,1549.3999999761581,1,0,2,27857,WMM2,908062,false,false,864,image-keyboard-response,16
true,8,0,1,2,false,d,false,false,0.0-2.0-0.29-0.262-3.262,1,0,0,81,false,stim,true,0,966.5,1,0,2,27857,WMM2,910542,false,false,867,image-keyboard-response,17
true,8,2,1,2,true,d,false,true,0.0-2.0-0.29-0.263-3.263,1,0,0,68,false,stim,false,1,905.1000000238419,1,0,1,27857,WMM2,912962,false,false,870,image-keyboard-response,18
true,8,1,1,1,true,z,false,true,0.0-2.0-0.29-0.264-3.264,1,0,0,90,false,stim,false,1,1361.5,1,1,0,27857,WMM2,915861,false,false,873,image-keyboard-response,19
true,8,0,1,2,false,d,false,false,0.0-2.0-0.29-0.265-3.265,1,0,0,81,false,stim,true,0,1826.2999999523163,1,0,2,27857,WMM2,919217,false,false,876,image-keyboard-response,20
true,8,1,1,1,true,z,false,true,0.0-2.0-0.29-0.266-3.266,1,0,0,90,false,stim,false,1,839.0,1,1,0,27857,WMM2,921582,false,false,879,image-keyboard-response,21
true,8,2,1,2,true,d,false,true,0.0-2.0-0.29-0.267-3.267,1,0,0,68,false,stim,false,1,648.1999999284744,1,0,1,27857,WMM2,923757,false,false,882,image-keyboard-response,22
true,8,1,1,1,true,z,false,true,0.0-2.0-0.29-0.268-3.268,1,0,0,90,false,stim,false,1,755.2000000476837,1,1,0,27857,WMM2,926052,false,false,885,image-keyboard-response,23
true,8,2,1,2,true,d,false,true,0.0-2.0-0.29-0.269-3.269,1,0,0,68,false,stim,false,1,788.3999999761581,1,0,1,27857,WMM2,928362,false,false,888,image-keyboard-response,24
true,8,2,1,2,true,d,false,true,0.0-2.0-0.30-0.270-3.270,1,0,0,68,false,stim,false,1,802.0,1,0,1,27857,WMM2,930686,false,false,891,image-keyboard-response,25
true,8,1,1,1,true,z,false,true,0.0-2.0-0.30-0.271-3.271,1,0,0,90,false,stim,false,1,866.3999999761581,1,1,0,27857,WMM2,933079,false,false,894,image-keyboard-response,26
true,8,2,1,2,true,d,false,true,0.0-2.0-0.30-0.272-3.272,1,0,0,68,false,stim,false,1,1239.8000000715256,1,0,1,27857,WMM2,935846,false,false,897,image-keyboard-response,27
true,8,1,1,2,false,d,true,false,0.0-2.0-0.30-0.273-3.273,1,0,0,90,false,stim,false,0,952.6000000238419,1,0,2,27857,WMM2,938318,false,false,900,image-keyboard-response,28
true,8,2,1,2,true,d,false,true,0.0-2.0-0.30-0.274-3.274,1,0,0,68,false,stim,false,0,591.1000000238419,1,0,2,27857,WMM2,940469,false,false,903,image-keyboard-response,29
true,8,1,1,1,true,z,false,true,0.0-2.0-0.30-0.275-3.275,1,0,0,90,false,stim,false,1,630.6000000238419,1,1,0,27857,WMM2,942621,false,false,906,image-keyboard-response,30
true,8,1,1,1,true,z,false,true,0.0-2.0-0.30-0.276-3.276,1,0,0,90,false,stim,false,1,549.0999999046326,1,1,0,27857,WMM2,944684,false,false,909,image-keyboard-response,31
true,8,2,1,2,true,d,false,true,0.0-2.0-0.30-0.277-3.277,1,0,0,68,false,stim,false,1,1428.0,1,0,1,27857,WMM2,947623,false,false,912,image-keyboard-response,32
true,8,2,1,2,true,d,false,true,0.0-2.0-0.30-0.278-3.278,1,0,0,68,false,stim,false,0,713.9000000953674,1,0,2,27857,WMM2,949867,false,false,915,image-keyboard-response,33
true,8,2,1,2,true,d,false,true,0.0-2.0-0.31-0.279-3.279,1,0,0,68,false,stim,false,0,968.7999999523163,1,1,2,27857,WMM2,952374,false,false,918,image-keyboard-response,34
true,8,1,1,1,true,z,false,true,0.0-2.0-0.31-0.280-3.280,1,0,0,90,false,stim,false,1,687.8999999761581,1,1,0,27857,WMM2,954596,false,false,921,image-keyboard-response,35
true,8,2,1,2,true,d,false,true,0.0-2.0-0.31-0.281-3.281,1,0,0,68,false,stim,false,1,783.1000000238419,1,0,1,27857,WMM2,956901,false,false,924,image-keyboard-response,36
true,8,1,1,1,true,z,false,true,0.0-2.0-0.31-0.282-3.282,1,0,0,90,false,stim,false,1,696.7000000476837,1,1,0,27857,WMM2,959123,false,false,927,image-keyboard-response,37
true,8,2,1,2,true,d,false,true,0.0-2.0-0.31-0.283-3.283,1,0,0,68,false,stim,false,0,760.0,1,1,2,27857,WMM2,961406,false,false,930,image-keyboard-response,38
true,8,2,1,2,true,d,false,true,0.0-2.0-0.31-0.284-3.284,1,0,0,68,false,stim,false,0,753.1999999284744,1,1,2,27857,WMM2,963688,false,false,933,image-keyboard-response,39
true,8,1,1,2,false,d,false,true,0.0-2.0-0.31-0.285-3.285,1,0,0,90,false,stim,true,1,683.5999999046326,1,0,1,27857,WMM2,965905,false,true,936,image-keyboard-response,40
true,8,1,1,1,true,z,false,true,0.0-2.0-0.31-0.286-3.286,1,0,0,90,false,stim,false,1,712.4000000953674,1,1,0,27857,WMM2,968147,false,false,939,image-keyboard-response,41
true,8,2,1,2,true,d,false,true,0.0-2.0-0.31-0.287-3.287,1,0,0,68,false,stim,false,1,540.5,1,0,1,27857,WMM2,970203,false,false,942,image-keyboard-response,42
true,8,1,1,1,true,z,false,true,0.0-2.0-0.32-0.288-3.288,1,0,0,90,false,stim,false,1,614.7999999523163,1,1,0,27857,WMM2,972344,false,false,945,image-keyboard-response,43
true,9,2,3,2,true,d,false,true,0.0-2.0-0.32-0.289-3.289,1,0,1,68,true,stim,false,2,658.1000000238419,1,1,2,27857,WMM2,974526,false,false,948,image-keyboard-response,1
true,9,2,3,2,true,d,false,false,0.0-2.0-0.32-0.290-3.290,1,0,1,68,false,stim,false,2,819.0999999046326,1,1,2,27857,WMM2,976871,false,true,951,image-keyboard-response,2
true,9,2,3,0,false,q,false,false,0.0-2.0-0.32-0.291-3.291,1,0,1,68,false,stim,true,2,675.7000000476837,1,0,1,27857,WMM2,979070,false,false,954,image-keyboard-response,3
true,9,1,3,1,true,z,false,true,0.0-2.0-0.32-0.292-3.292,1,0,1,90,false,stim,false,1,623.5,1,1,0,27857,WMM2,981230,false,false,957,image-keyboard-response,4
true,9,1,3,1,true,z,false,true,0.0-2.0-0.32-0.293-3.293,1,0,1,90,false,stim,false,1,644.3000000715256,1,1,0,27857,WMM2,983392,false,false,960,image-keyboard-response,5
true,9,2,3,0,false,q,false,false,0.0-2.0-0.32-0.294-3.294,1,0,1,68,false,stim,true,2,515.0999999046326,1,0,1,27857,WMM2,985439,false,false,963,image-keyboard-response,6
true,9,2,3,0,false,q,false,false,0.0-2.0-0.32-0.295-3.295,1,0,1,68,false,stim,true,2,572.8000000715256,1,0,1,27857,WMM2,987536,false,false,966,image-keyboard-response,7
true,9,2,3,2,true,d,false,true,0.0-2.0-0.32-0.296-3.296,1,0,1,68,false,stim,false,2,640.1999999284744,1,1,2,27857,WMM2,989695,false,false,969,image-keyboard-response,8
true,9,0,3,0,true,q,false,true,0.0-2.0-0.33-0.297-3.297,1,0,1,81,false,stim,false,2,702.8999999761581,1,0,1,27857,WMM2,991908,false,false,972,image-keyboard-response,9
true,9,2,3,2,true,d,false,true,0.0-2.0-0.33-0.298-3.298,1,0,1,68,false,stim,false,2,631.8000000715256,1,1,2,27857,WMM2,994061,false,false,975,image-keyboard-response,10
true,9,1,3,1,true,z,false,true,0.0-2.0-0.33-0.299-3.299,1,0,1,90,false,stim,false,1,636.5999999046326,1,1,0,27857,WMM2,996226,false,false,978,image-keyboard-response,11
true,9,1,3,1,true,z,false,true,0.0-2.0-0.33-0.300-3.300,1,0,1,90,false,stim,false,1,733.6999999284744,1,1,0,27857,WMM2,998474,false,false,981,image-keyboard-response,12
true,9,0,3,0,true,q,false,false,0.0-2.0-0.33-0.301-3.301,1,0,1,81,false,stim,false,2,569.5999999046326,1,0,1,27857,WMM2,1000559,false,true,984,image-keyboard-response,13
true,9,1,3,1,true,z,false,true,0.0-2.0-0.33-0.302-3.302,1,0,1,90,false,stim,false,1,627.3999999761581,1,1,0,27857,WMM2,1002718,false,false,987,image-keyboard-response,14
true,9,0,3,0,true,q,false,true,0.0-2.0-0.33-0.303-3.303,1,0,1,81,false,stim,false,2,525.5,1,0,1,27857,WMM2,1004768,false,false,990,image-keyboard-response,15
true,9,2,3,2,true,d,false,true,0.0-2.0-0.33-0.304-3.304,1,0,1,68,false,stim,false,2,945.4000000953674,1,1,2,27857,WMM2,1007250,false,false,993,image-keyboard-response,16
true,9,2,3,2,true,d,false,false,0.0-2.0-0.33-0.305-3.305,1,0,1,68,false,stim,false,2,721.6000000238419,1,1,2,27857,WMM2,1009494,false,true,996,image-keyboard-response,17
true,9,2,3,2,true,d,false,true,0.0-2.0-0.34-0.306-3.306,1,0,1,68,false,stim,false,2,563.6000000238419,1,1,2,27857,WMM2,1011582,false,false,999,image-keyboard-response,18
true,9,0,3,0,true,q,false,true,0.0-2.0-0.34-0.307-3.307,1,0,1,81,false,stim,false,2,653.3999999761581,1,0,1,27857,WMM2,1013764,false,false,1002,image-keyboard-response,19
true,9,0,3,0,true,q,false,true,0.0-2.0-0.34-0.308-3.308,1,0,1,81,false,stim,false,2,614.3000000715256,1,0,1,27857,WMM2,1015920,false,false,1005,image-keyboard-response,20
true,9,2,3,2,true,d,false,true,0.0-2.0-0.34-0.309-3.309,1,0,1,68,false,stim,false,2,899.8999999761581,1,0,2,27857,WMM2,1018348,false,false,1008,image-keyboard-response,21
true,9,1,3,1,true,z,false,false,0.0-2.0-0.34-0.310-3.310,1,0,1,90,false,stim,false,1,608.8999999761581,1,1,0,27857,WMM2,1020488,false,true,1011,image-keyboard-response,22
true,9,2,3,2,true,d,false,false,0.0-2.0-0.34-0.311-3.311,1,0,1,68,false,stim,false,2,1126.8999999761581,1,0,2,27857,WMM2,1023146,false,true,1014,image-keyboard-response,23
true,9,0,3,0,true,q,false,true,0.0-2.0-0.34-0.312-3.312,1,0,1,81,false,stim,false,2,704.8000000715256,1,1,1,27857,WMM2,1025384,false,false,1017,image-keyboard-response,24
true,9,1,3,1,true,z,false,true,0.0-2.0-0.34-0.313-3.313,1,0,1,90,false,stim,false,1,602.7000000476837,1,1,0,27857,WMM2,1027524,false,false,1020,image-keyboard-response,25
true,9,1,3,1,true,z,false,true,0.0-2.0-0.34-0.314-3.314,1,0,1,90,false,stim,false,1,670.1999999284744,1,1,0,27857,WMM2,1029720,false,false,1023,image-keyboard-response,26
true,9,0,3,0,true,q,false,true,0.0-2.0-0.35-0.315-3.315,1,0,1,81,false,stim,false,2,1080.1999999284744,1,1,1,27857,WMM2,1032324,false,false,1026,image-keyboard-response,27
true,9,2,3,2,true,d,false,true,0.0-2.0-0.35-0.316-3.316,1,0,1,68,false,stim,false,2,371.2000000476837,1,0,2,27857,WMM2,1034220,false,false,1029,image-keyboard-response,28
true,9,0,3,0,true,q,false,true,0.0-2.0-0.35-0.317-3.317,1,0,1,81,false,stim,false,2,563.0,1,1,1,27857,WMM2,1036297,false,false,1032,image-keyboard-response,29
true,9,1,3,1,true,z,false,true,0.0-2.0-0.35-0.318-3.318,1,0,1,90,false,stim,false,1,636.5,1,1,0,27857,WMM2,1038454,false,false,1035,image-keyboard-response,30
true,10,1,3,1,true,z,false,true,0.0-2.0-0.35-0.319-3.319,1,1,0,90,true,stim,false,1,518.3999999761581,1,1,0,27857,WMM2,1040510,false,false,1038,image-keyboard-response,1
true,10,0,3,0,true,q,false,true,0.0-2.0-0.35-0.320-3.320,1,1,0,81,false,stim,false,0,580.8999999761581,1,1,1,27857,WMM2,1042613,false,false,1041,image-keyboard-response,2
true,10,2,3,0,false,q,false,true,0.0-2.0-0.35-0.321-3.321,1,1,0,68,false,stim,true,2,507.5,1,0,2,27857,WMM2,1044645,false,true,1044,image-keyboard-response,3
true,10,1,3,1,true,z,false,true,0.0-2.0-0.35-0.322-3.322,1,1,0,90,false,stim,false,1,644.2000000476837,1,1,0,27857,WMM2,1046810,false,false,1047,image-keyboard-response,4
true,10,0,3,0,true,q,false,true,0.0-2.0-0.35-0.323-3.323,1,1,0,81,false,stim,false,2,1069.8999999761581,1,0,2,27857,WMM2,1049408,false,false,1050,image-keyboard-response,5
true,10,0,3,0,true,q,false,true,0.0-2.0-0.36-0.324-3.324,1,1,0,81,false,stim,false,2,1401.7999999523163,1,0,2,27857,WMM2,1052333,false,false,1053,image-keyboard-response,6
true,10,2,3,0,false,q,true,true,0.0-2.0-0.36-0.325-3.325,1,1,0,68,false,stim,false,0,1116.1000000238419,1,1,1,27857,WMM2,1054960,false,true,1056,image-keyboard-response,7
true,10,1,3,1,true,z,false,true,0.0-2.0-0.36-0.326-3.326,1,1,0,90,false,stim,false,1,567.3000000715256,1,1,0,27857,WMM2,1057061,false,false,1059,image-keyboard-response,8
true,10,1,3,1,true,z,false,true,0.0-2.0-0.36-0.327-3.327,1,1,0,90,false,stim,false,1,594.2999999523163,1,1,0,27857,WMM2,1059189,false,false,1062,image-keyboard-response,9
true,10,2,3,0,false,q,true,false,0.0-2.0-0.36-0.328-3.328,1,1,0,68,false,stim,false,0,622.3999999761581,1,1,1,27857,WMM2,1061354,false,false,1065,image-keyboard-response,10
true,10,1,3,1,true,z,false,true,0.0-2.0-0.36-0.329-3.329,1,1,0,90,false,stim,false,1,565.0,1,1,0,27857,WMM2,1063437,false,false,1068,image-keyboard-response,11
true,10,2,3,0,false,q,false,false,0.0-2.0-0.36-0.330-3.330,1,1,0,68,false,stim,true,2,466.40000009536743,1,0,2,27857,WMM2,1065430,false,false,1071,image-keyboard-response,12
true,10,0,3,0,true,q,false,true,0.0-2.0-0.36-0.331-3.331,1,1,0,81,false,stim,false,0,760.5,1,1,1,27857,WMM2,1067715,false,false,1074,image-keyboard-response,13
true,10,0,3,0,true,q,false,false,0.0-2.0-0.36-0.332-3.332,1,1,0,81,false,stim,false,2,562.7000000476837,1,0,2,27857,WMM2,1069822,false,true,1077,image-keyboard-response,14
true,10,0,3,0,true,q,false,false,0.0-2.0-0.37-0.333-3.333,1,1,0,81,false,stim,false,0,832.5,1,1,1,27857,WMM2,1072167,false,true,1080,image-keyboard-response,15
true,10,0,3,0,true,q,false,true,0.0-2.0-0.37-0.334-3.334,1,1,0,81,false,stim,false,0,512.2999999523163,1,1,1,27857,WMM2,1074209,false,false,1083,image-keyboard-response,16
true,10,2,3,0,false,q,false,false,0.0-2.0-0.37-0.335-3.335,1,1,0,68,false,stim,true,2,726.3000000715256,1,0,2,27857,WMM2,1076456,false,false,1086,image-keyboard-response,17
true,10,0,3,0,true,q,false,false,0.0-2.0-0.37-0.336-3.336,1,1,0,81,false,stim,false,0,652.5,1,1,1,27857,WMM2,1078646,false,true,1089,image-keyboard-response,18
true,10,1,3,1,true,z,false,true,0.0-2.0-0.37-0.337-3.337,1,1,0,90,false,stim,false,1,579.3999999761581,1,1,0,27857,WMM2,1080750,false,false,1092,image-keyboard-response,19
true,10,0,3,0,true,q,false,false,0.0-2.0-0.37-0.338-3.338,1,1,0,81,false,stim,false,2,1037.0,1,0,2,27857,WMM2,1083311,false,true,1095,image-keyboard-response,20
true,10,2,3,0,false,q,false,false,0.0-2.0-0.37-0.339-3.339,1,1,0,68,false,stim,true,2,586.5999999046326,1,0,2,27857,WMM2,1085428,false,false,1098,image-keyboard-response,21
true,10,1,3,1,true,z,false,true,0.0-2.0-0.37-0.340-3.340,1,1,0,90,false,stim,false,1,614.0999999046326,1,1,0,27857,WMM2,1087594,false,false,1101,image-keyboard-response,22
true,10,1,3,1,true,z,false,false,0.0-2.0-0.37-0.341-3.341,1,1,0,90,false,stim,false,1,817.5,1,1,0,27857,WMM2,1089951,false,true,1104,image-keyboard-response,23
true,10,0,3,0,true,q,false,true,0.0-2.0-0.38-0.342-3.342,1,1,0,81,false,stim,false,0,998.3999999761581,1,1,1,27857,WMM2,1092462,false,false,1107,image-keyboard-response,24
true,10,2,3,0,false,q,false,false,0.0-2.0-0.38-0.343-3.343,1,1,0,68,false,stim,true,2,1120.8000000715256,1,0,2,27857,WMM2,1095111,false,false,1110,image-keyboard-response,25
true,10,2,3,0,false,q,false,false,0.0-2.0-0.38-0.344-3.344,1,1,0,68,false,stim,true,2,662.1999999284744,1,0,2,27857,WMM2,1097297,false,false,1113,image-keyboard-response,26
true,10,1,3,1,true,z,false,true,0.0-2.0-0.38-0.345-3.345,1,1,0,90,false,stim,false,1,631.2999999523163,1,1,0,27857,WMM2,1099459,false,false,1116,image-keyboard-response,27
true,10,0,3,0,true,q,false,true,0.0-2.0-0.38-0.346-3.346,1,1,0,81,false,stim,false,0,689.0,1,1,1,27857,WMM2,1101681,false,false,1119,image-keyboard-response,28
true,10,1,3,0,false,q,true,false,0.0-2.0-0.38-0.347-3.347,1,1,0,90,false,stim,false,2,824.3999999761581,1,0,2,27857,WMM2,1104030,false,false,1122,image-keyboard-response,29
true,10,0,3,0,true,q,false,true,0.0-2.0-0.38-0.348-3.348,1,1,0,81,false,stim,false,0,1079.3000000715256,1,1,1,27857,WMM2,1106628,false,false,1125,image-keyboard-response,30
false,10,-1,3,1,false,z,true,false,0.0-2.0-0.38-0.349-3.349,1,1,0,,false,stim,false,1,,1,1,0,27857,WMM2,1111168,false,false,1128,image-keyboard-response,31
true,10,1,3,1,true,z,false,true,0.0-2.0-0.38-0.350-3.350,1,1,0,90,false,stim,false,1,548.1000000238419,1,1,0,27857,WMM2,1113260,false,false,1131,image-keyboard-response,32
true,10,2,3,0,false,q,false,false,0.0-2.0-0.39-0.351-3.351,1,1,0,68,false,stim,true,2,952.2000000476837,1,0,2,27857,WMM2,1115733,false,false,1134,image-keyboard-response,33
true,10,1,3,1,true,z,false,true,0.0-2.0-0.39-0.352-3.352,1,1,0,90,false,stim,false,1,542.6999999284744,1,1,0,27857,WMM2,1117789,false,false,1137,image-keyboard-response,34
true,10,1,3,1,true,z,false,true,0.0-2.0-0.39-0.353-3.353,1,1,0,90,false,stim,false,1,796.2000000476837,1,1,0,27857,WMM2,1120108,false,false,1140,image-keyboard-response,35
true,10,0,3,0,true,q,false,true,0.0-2.0-0.39-0.354-3.354,1,1,0,81,false,stim,false,2,736.5,1,0,2,27857,WMM2,1122367,false,false,1143,image-keyboard-response,36
true,10,2,3,0,false,q,true,false,0.0-2.0-0.39-0.355-3.355,1,1,0,68,false,stim,false,0,792.8999999761581,1,1,1,27857,WMM2,1124694,false,false,1146,image-keyboard-response,37
true,10,0,3,0,true,q,false,true,0.0-2.0-0.39-0.356-3.356,1,1,0,81,false,stim,false,2,977.2000000476837,1,0,2,27857,WMM2,1127196,false,false,1149,image-keyboard-response,38
true,10,1,3,0,false,q,true,false,0.0-2.0-0.39-0.357-3.357,1,1,0,90,false,stim,false,0,580.6999999284744,1,1,1,27857,WMM2,1129321,false,false,1152,image-keyboard-response,39
true,10,1,3,1,true,z,false,true,0.0-2.0-0.39-0.358-3.358,1,1,0,90,false,stim,false,1,635.6000000238419,1,1,0,27857,WMM2,1131490,false,false,1155,image-keyboard-response,40
true,10,0,3,0,true,q,false,true,0.0-2.0-0.39-0.359-3.359,1,1,0,81,false,stim,false,0,619.3999999761581,1,1,1,27857,WMM2,1133634,false,false,1158,image-keyboard-response,41
true,10,0,3,0,true,q,false,true,0.0-2.0-0.40-0.360-3.360,1,1,0,81,false,stim,false,0,529.8000000715256,1,1,1,27857,WMM2,1135702,false,false,1161,image-keyboard-response,42
true,10,0,3,0,true,q,false,true,0.0-2.0-0.40-0.361-3.361,1,1,0,81,false,stim,false,2,780.6999999284744,1,0,2,27857,WMM2,1138002,false,false,1164,image-keyboard-response,43
true,10,0,3,0,true,q,false,true,0.0-2.0-0.40-0.362-3.362,1,1,0,81,false,stim,false,2,554.8999999761581,1,0,2,27857,WMM2,1140079,false,false,1167,image-keyboard-response,44
true,10,0,3,0,true,q,false,false,0.0-2.0-0.40-0.363-3.363,1,1,0,81,false,stim,false,0,538.3999999761581,1,1,1,27857,WMM2,1142155,false,true,1170,image-keyboard-response,45
true,10,1,3,1,true,z,false,true,0.0-2.0-0.40-0.364-3.364,1,1,0,90,false,stim,false,1,538.7000000476837,1,1,0,27857,WMM2,1144216,false,false,1173,image-keyboard-response,46
true,10,0,3,0,true,q,false,true,0.0-2.0-0.40-0.365-3.365,1,1,0,81,false,stim,false,2,460.09999990463257,1,0,2,27857,WMM2,1146213,false,false,1176,image-keyboard-response,47
true,10,1,3,1,true,z,false,true,0.0-2.0-0.40-0.366-3.366,1,1,0,90,false,stim,false,1,565.7999999523163,1,1,0,27857,WMM2,1148307,false,false,1179,image-keyboard-response,48
true,10,0,3,0,true,q,false,true,0.0-2.0-0.40-0.367-3.367,1,1,0,81,false,stim,false,0,488.5,1,1,1,27857,WMM2,1150320,false,false,1182,image-keyboard-response,49
true,10,1,3,1,true,z,false,true,0.0-2.0-0.40-0.368-3.368,1,1,0,90,false,stim,false,1,536.5,1,1,0,27857,WMM2,1152379,false,false,1185,image-keyboard-response,50
true,10,1,3,1,true,z,false,true,0.0-2.0-0.41-0.369-3.369,1,1,0,90,false,stim,false,1,540.8999999761581,1,1,0,27857,WMM2,1154446,false,false,1188,image-keyboard-response,51
true,10,0,3,0,true,q,false,true,0.0-2.0-0.41-0.370-3.370,1,1,0,81,false,stim,false,2,507.3000000715256,1,0,2,27857,WMM2,1156470,false,false,1191,image-keyboard-response,52
true,11,0,4,0,true,q,false,true,0.0-2.0-0.41-0.371-3.371,1,1,0,81,true,stim,false,0,503.60000002384186,1,1,1,27857,WMM2,1158511,false,false,1194,image-keyboard-response,1
true,11,1,4,1,true,z,false,true,0.0-2.0-0.41-0.372-3.372,1,1,0,90,false,stim,false,1,501.2999999523163,1,1,0,27857,WMM2,1160550,false,false,1197,image-keyboard-response,2
true,11,0,4,0,true,q,false,true,0.0-2.0-0.41-0.373-3.373,1,1,0,81,false,stim,false,0,471.89999997615814,1,0,2,27857,WMM2,1162545,false,false,1200,image-keyboard-response,3
true,11,1,4,1,true,z,false,true,0.0-2.0-0.41-0.374-3.374,1,1,0,90,false,stim,false,1,424.2000000476837,1,1,0,27857,WMM2,1164495,false,false,1203,image-keyboard-response,4
true,11,0,4,0,true,q,false,true,0.0-2.0-0.41-0.375-3.375,1,1,0,81,false,stim,false,0,428.7999999523163,1,1,1,27857,WMM2,1166446,false,false,1206,image-keyboard-response,5
true,11,0,4,0,true,q,false,true,0.0-2.0-0.41-0.376-3.376,1,1,0,81,false,stim,false,0,543.6999999284744,1,0,2,27857,WMM2,1168515,false,false,1209,image-keyboard-response,6
true,11,0,4,0,true,q,false,true,0.0-2.0-0.41-0.377-3.377,1,1,0,81,false,stim,false,0,681.0,1,1,1,27857,WMM2,1170718,false,false,1212,image-keyboard-response,7
true,11,1,4,1,true,z,false,true,0.0-2.0-0.42-0.378-3.378,1,1,0,90,false,stim,false,1,445.90000009536743,1,1,0,27857,WMM2,1172689,false,false,1215,image-keyboard-response,8
true,11,0,4,0,true,q,false,true,0.0-2.0-0.42-0.379-3.379,1,1,0,81,false,stim,false,0,600.1000000238419,1,0,2,27857,WMM2,1174816,false,false,1218,image-keyboard-response,9
true,11,0,4,0,true,q,false,true,0.0-2.0-0.42-0.380-3.380,1,1,0,81,false,stim,false,0,530.7999999523163,1,0,2,27857,WMM2,1176869,false,false,1221,image-keyboard-response,10
true,11,1,4,1,true,z,false,false,0.0-2.0-0.42-0.381-3.381,1,1,0,90,false,stim,false,1,511.39999997615814,1,1,0,27857,WMM2,1178910,false,true,1224,image-keyboard-response,11
true,11,0,4,0,true,q,false,false,0.0-2.0-0.42-0.382-3.382,1,1,0,81,false,stim,false,0,537.6000000238419,1,1,1,27857,WMM2,1180971,false,true,1227,image-keyboard-response,12
true,11,0,4,0,true,q,false,true,0.0-2.0-0.42-0.383-3.383,1,1,0,81,false,stim,false,0,495.39999997615814,1,0,2,27857,WMM2,1183004,false,false,1230,image-keyboard-response,13
true,11,0,4,0,true,q,false,true,0.0-2.0-0.42-0.384-3.384,1,1,0,81,false,stim,false,0,501.2999999523163,1,1,1,27857,WMM2,1185043,false,false,1233,image-keyboard-response,14
true,11,1,4,1,true,z,false,false,0.0-2.0-0.42-0.385-3.385,1,1,0,90,false,stim,false,1,544.6000000238419,1,1,0,27857,WMM2,1187101,false,true,1236,image-keyboard-response,15
true,11,0,4,0,true,q,false,true,0.0-2.0-0.42-0.386-3.386,1,1,0,81,false,stim,false,0,526.1000000238419,1,1,1,27857,WMM2,1189147,false,false,1239,image-keyboard-response,16
true,11,2,4,1,false,z,true,false,0.0-2.0-0.43-0.387-3.387,1,1,0,68,false,stim,false,1,851.0999999046326,1,1,0,27857,WMM2,1191541,false,false,1242,image-keyboard-response,17
true,11,0,4,0,true,q,false,true,0.0-2.0-0.43-0.388-3.388,1,1,0,81,false,stim,false,0,538.0,1,0,2,27857,WMM2,1193618,false,false,1245,image-keyboard-response,18
true,11,0,4,0,true,q,false,false,0.0-2.0-0.43-0.389-3.389,1,1,0,81,false,stim,false,0,563.5,1,0,2,27857,WMM2,1195705,false,true,1248,image-keyboard-response,19
true,11,1,4,1,true,z,false,true,0.0-2.0-0.43-0.390-3.390,1,1,0,90,false,stim,false,1,628.2000000476837,1,1,0,27857,WMM2,1197849,false,false,1251,image-keyboard-response,20
true,11,0,4,0,true,q,false,true,0.0-2.0-0.43-0.391-3.391,1,1,0,81,false,stim,false,0,546.5,1,1,1,27857,WMM2,1199922,false,false,1254,image-keyboard-response,21
true,11,1,4,1,true,z,false,true,0.0-2.0-0.43-0.392-3.392,1,1,0,90,false,stim,false,1,515.2000000476837,1,1,0,27857,WMM2,1201967,false,false,1257,image-keyboard-response,22
true,11,0,4,0,true,q,false,true,0.0-2.0-0.43-0.393-3.393,1,1,0,81,false,stim,false,0,566.6999999284744,1,1,1,27857,WMM2,1204057,false,false,1260,image-keyboard-response,23
true,11,0,4,0,true,q,false,true,0.0-2.0-0.43-0.394-3.394,1,1,0,81,false,stim,false,0,508.1999999284744,1,1,1,27857,WMM2,1206105,false,false,1263,image-keyboard-response,24
true,11,0,4,0,true,q,false,true,0.0-2.0-0.43-0.395-3.395,1,1,0,81,false,stim,false,0,524.2000000476837,1,0,2,27857,WMM2,1208155,false,false,1266,image-keyboard-response,25
true,11,1,4,1,true,z,false,true,0.0-2.0-0.44-0.396-3.396,1,1,0,90,false,stim,false,1,554.5,1,1,0,27857,WMM2,1210242,false,false,1269,image-keyboard-response,26
true,11,0,4,0,true,q,false,true,0.0-2.0-0.44-0.397-3.397,1,1,0,81,false,stim,false,0,635.1000000238419,1,0,2,27857,WMM2,1212414,false,false,1272,image-keyboard-response,27
true,11,0,4,0,true,q,false,true,0.0-2.0-0.44-0.398-3.398,1,1,0,81,false,stim,false,0,490.8000000715256,1,1,1,27857,WMM2,1214429,false,false,1275,image-keyboard-response,28
true,11,0,4,0,true,q,false,false,0.0-2.0-0.44-0.399-3.399,1,1,0,81,false,stim,false,0,422.6999999284744,1,0,2,27857,WMM2,1216378,false,true,1278,image-keyboard-response,29
true,11,0,4,0,true,q,false,false,0.0-2.0-0.44-0.400-3.400,1,1,0,81,false,stim,false,0,585.7000000476837,1,1,1,27857,WMM2,1218486,false,true,1281,image-keyboard-response,30
true,11,1,4,0,false,q,true,false,0.0-2.0-0.44-0.401-3.401,1,1,0,90,false,stim,false,0,675.2999999523163,1,0,2,27857,WMM2,1220683,false,false,1284,image-keyboard-response,31
true,11,1,4,1,true,z,false,true,0.0-2.0-0.44-0.402-3.402,1,1,0,90,false,stim,false,1,540.5,1,1,0,27857,WMM2,1222741,false,false,1287,image-keyboard-response,32
true,12,1,2,1,true,z,false,true,0.0-2.0-0.44-0.403-3.403,1,1,0,90,true,stim,false,1,526.6999999284744,1,1,0,27857,WMM2,1224800,false,false,1290,image-keyboard-response,1
true,12,0,2,0,true,q,false,true,0.0-2.0-0.44-0.404-3.404,1,1,0,81,false,stim,false,0,493.6999999284744,1,1,1,27857,WMM2,1226825,false,false,1293,image-keyboard-response,2
true,12,0,2,1,false,z,false,true,0.0-2.0-0.45-0.405-3.405,1,1,0,81,false,stim,true,0,426.60000002384186,1,0,2,27857,WMM2,1228764,false,true,1296,image-keyboard-response,3
true,12,0,2,0,true,q,false,true,0.0-2.0-0.45-0.406-3.406,1,1,0,81,false,stim,false,0,594.0,1,1,1,27857,WMM2,1230886,false,false,1299,image-keyboard-response,4
true,12,1,2,1,true,z,false,true,0.0-2.0-0.45-0.407-3.407,1,1,0,90,false,stim,false,1,473.2000000476837,1,1,0,27857,WMM2,1232899,false,false,1302,image-keyboard-response,5
true,12,1,2,1,true,z,false,true,0.0-2.0-0.45-0.408-3.408,1,1,0,90,false,stim,false,1,461.5,1,1,0,27857,WMM2,1234893,false,false,1305,image-keyboard-response,6
true,12,0,2,0,true,q,false,true,0.0-2.0-0.45-0.409-3.409,1,1,0,81,false,stim,false,0,621.1999999284744,1,1,1,27857,WMM2,1237033,false,false,1308,image-keyboard-response,7
true,12,1,2,1,true,z,false,true,0.0-2.0-0.45-0.410-3.410,1,1,0,90,false,stim,false,0,579.0,1,0,2,27857,WMM2,1239150,false,false,1311,image-keyboard-response,8
true,12,0,2,0,true,q,false,true,0.0-2.0-0.45-0.411-3.411,1,1,0,81,false,stim,false,0,1231.5,1,1,1,27857,WMM2,1241904,false,false,1314,image-keyboard-response,9
true,12,1,2,1,true,z,false,false,0.0-2.0-0.45-0.412-3.412,1,1,0,90,false,stim,false,1,609.5,1,1,0,27857,WMM2,1244056,false,true,1317,image-keyboard-response,10
true,12,0,2,1,false,z,false,false,0.0-2.0-0.45-0.413-3.413,1,1,0,81,false,stim,true,0,554.6999999284744,1,0,2,27857,WMM2,1246125,false,false,1320,image-keyboard-response,11
true,12,0,2,0,true,q,false,true,0.0-2.0-0.46-0.414-3.414,1,1,0,81,false,stim,false,0,408.1999999284744,1,1,1,27857,WMM2,1248052,false,false,1323,image-keyboard-response,12
true,12,0,2,1,false,z,false,false,0.0-2.0-0.46-0.415-3.415,1,1,0,81,false,stim,true,0,532.6000000238419,1,0,2,27857,WMM2,1250114,false,false,1326,image-keyboard-response,13
true,12,0,2,0,true,q,false,true,0.0-2.0-0.46-0.416-3.416,1,1,0,81,false,stim,false,0,550.5,1,1,1,27857,WMM2,1252186,false,false,1329,image-keyboard-response,14
true,12,1,2,1,true,z,false,true,0.0-2.0-0.46-0.417-3.417,1,1,0,90,false,stim,false,1,530.8999999761581,1,1,0,27857,WMM2,1254243,false,false,1332,image-keyboard-response,15
true,12,0,2,1,false,z,false,false,0.0-2.0-0.46-0.418-3.418,1,1,0,81,false,stim,true,0,433.7999999523163,1,0,2,27857,WMM2,1256187,false,false,1335,image-keyboard-response,16
true,12,1,2,1,true,z,false,false,0.0-2.0-0.46-0.419-3.419,1,1,0,90,false,stim,false,0,626.8000000715256,1,0,2,27857,WMM2,1258354,false,true,1338,image-keyboard-response,17
true,12,1,2,1,true,z,false,true,0.0-2.0-0.46-0.420-3.420,1,1,0,90,false,stim,false,1,591.8999999761581,1,1,0,27857,WMM2,1260471,false,false,1341,image-keyboard-response,18
true,12,0,2,0,true,q,false,true,0.0-2.0-0.46-0.421-3.421,1,1,0,81,false,stim,false,0,645.8999999761581,1,1,1,27857,WMM2,1262640,false,false,1344,image-keyboard-response,19
true,12,1,2,1,true,z,false,true,0.0-2.0-0.46-0.422-3.422,1,1,0,90,false,stim,false,1,565.6000000238419,1,1,0,27857,WMM2,1264718,false,false,1347,image-keyboard-response,20
true,12,2,2,1,false,z,true,true,0.0-2.0-0.47-0.423-3.423,1,1,0,68,false,stim,false,0,747.3999999761581,1,0,2,27857,WMM2,1266990,false,true,1350,image-keyboard-response,21
true,12,1,2,1,true,z,false,true,0.0-2.0-0.47-0.424-3.424,1,1,0,90,false,stim,false,1,529.2999999523163,1,1,0,27857,WMM2,1269049,false,false,1353,image-keyboard-response,22
true,12,0,2,0,true,q,false,true,0.0-2.0-0.47-0.425-3.425,1,1,0,81,false,stim,false,0,421.89999997615814,1,1,1,27857,WMM2,1270993,false,false,1356,image-keyboard-response,23
true,12,0,2,0,true,q,false,true,0.0-2.0-0.47-0.426-3.426,1,1,0,81,false,stim,false,0,652.1000000238419,1,1,1,27857,WMM2,1273180,false,false,1359,image-keyboard-response,24
true,12,1,2,1,true,z,false,true,0.0-2.0-0.47-0.427-3.427,1,1,0,90,false,stim,false,1,671.6999999284744,1,1,0,27857,WMM2,1275378,false,false,1362,image-keyboard-response,25
true,12,2,2,1,false,z,true,false,0.0-2.0-0.47-0.428-3.428,1,1,0,68,false,stim,false,0,555.3999999761581,1,0,2,27857,WMM2,1277476,false,false,1365,image-keyboard-response,26
true,12,1,2,1,true,z,false,true,0.0-2.0-0.47-0.429-3.429,1,1,0,90,false,stim,false,1,533.5,1,1,0,27857,WMM2,1279541,false,false,1368,image-keyboard-response,27
true,12,0,2,0,true,q,false,true,0.0-2.0-0.47-0.430-3.430,1,1,0,81,false,stim,false,0,617.2000000476837,1,1,1,27857,WMM2,1281701,false,false,1371,image-keyboard-response,28
true,12,2,2,1,false,z,true,false,0.0-2.0-0.47-0.431-3.431,1,1,0,68,false,stim,false,0,436.59999990463257,1,0,2,27857,WMM2,1283678,false,false,1374,image-keyboard-response,29
true,12,0,2,0,true,q,false,true,0.0-2.0-0.48-0.432-3.432,1,1,0,81,false,stim,false,0,683.0,1,1,1,27857,WMM2,1285899,false,false,1377,image-keyboard-response,30
true,12,1,2,1,true,z,false,true,0.0-2.0-0.48-0.433-3.433,1,1,0,90,false,stim,false,1,494.90000009536743,1,1,0,27857,WMM2,1287935,false,false,1380,image-keyboard-response,31
true,12,0,2,1,false,z,false,false,0.0-2.0-0.48-0.434-3.434,1,1,0,81,false,stim,true,0,742.5,1,0,2,27857,WMM2,1290202,false,false,1383,image-keyboard-response,32
true,12,2,2,1,false,z,true,false,0.0-2.0-0.48-0.435-3.435,1,1,0,68,false,stim,false,0,535.5999999046326,1,0,2,27857,WMM2,1292257,false,false,1386,image-keyboard-response,33
true,12,0,2,0,true,q,false,true,0.0-2.0-0.48-0.436-3.436,1,1,0,81,false,stim,false,0,788.5,1,1,1,27857,WMM2,1294583,false,false,1389,image-keyboard-response,34
true,12,1,2,1,true,z,false,true,0.0-2.0-0.48-0.437-3.437,1,1,0,90,false,stim,false,1,524.5,1,1,0,27857,WMM2,1296647,false,false,1392,image-keyboard-response,35
true,12,0,2,0,true,q,false,true,0.0-2.0-0.48-0.438-3.438,1,1,0,81,false,stim,false,0,942.8999999761581,1,1,1,27857,WMM2,1299115,false,false,1395,image-keyboard-response,36
true,12,1,2,1,true,z,false,true,0.0-2.0-0.48-0.439-3.439,1,1,0,90,false,stim,false,1,582.3999999761581,1,1,0,27857,WMM2,1301237,false,false,1398,image-keyboard-response,37
true,12,1,2,1,true,z,false,true,0.0-2.0-0.48-0.440-3.440,1,1,0,90,false,stim,false,0,486.6999999284744,1,0,2,27857,WMM2,1303267,false,false,1401,image-keyboard-response,38
true,12,1,2,1,true,z,false,true,0.0-2.0-0.49-0.441-3.441,1,1,0,90,false,stim,false,1,652.8999999761581,1,1,0,27857,WMM2,1305436,false,false,1404,image-keyboard-response,39
true,12,1,2,1,true,z,false,false,0.0-2.0-0.49-0.442-3.442,1,1,0,90,false,stim,false,0,442.10000002384186,1,0,2,27857,WMM2,1307413,false,true,1407,image-keyboard-response,40
true,12,1,2,1,true,z,false,true,0.0-2.0-0.49-0.443-3.443,1,1,0,90,false,stim,false,1,638.2000000476837,1,1,0,27857,WMM2,1309587,false,false,1410,image-keyboard-response,41
true,12,1,2,1,true,z,false,true,0.0-2.0-0.49-0.444-3.444,1,1,0,90,false,stim,false,1,537.2000000476837,1,1,0,27857,WMM2,1311662,false,false,1413,image-keyboard-response,42
true,12,1,2,1,true,z,false,true,0.0-2.0-0.49-0.445-3.445,1,1,0,90,false,stim,false,0,571.5,1,1,2,27857,WMM2,1313750,false,false,1416,image-keyboard-response,43
true,12,0,2,0,true,q,false,true,0.0-2.0-0.49-0.446-3.446,1,1,0,81,false,stim,false,0,631.2999999523163,1,0,1,27857,WMM2,1315905,false,false,1419,image-keyboard-response,44
true,12,0,2,0,true,q,false,false,0.0-2.0-0.49-0.447-3.447,1,1,0,81,false,stim,false,0,1003.5,1,0,1,27857,WMM2,1318437,false,true,1422,image-keyboard-response,45
true,12,1,2,1,true,z,false,false,0.0-2.0-0.49-0.448-3.448,1,1,0,90,false,stim,false,0,768.5,1,1,2,27857,WMM2,1320745,false,true,1425,image-keyboard-response,46
true,12,0,2,0,true,q,false,true,0.0-2.0-0.49-0.449-3.449,1,1,0,81,false,stim,false,0,1019.5999999046326,1,0,1,27857,WMM2,1323275,false,false,1428,image-keyboard-response,47
true,12,1,2,1,true,z,false,true,0.0-2.0-0.50-0.450-3.450,1,1,0,90,false,stim,false,0,449.10000002384186,1,1,2,27857,WMM2,1325262,false,false,1431,image-keyboard-response,48
true,12,0,2,0,true,q,false,true,0.0-2.0-0.50-0.451-3.451,1,1,0,81,false,stim,false,0,587.9000000953674,1,0,1,27857,WMM2,1327367,false,false,1434,image-keyboard-response,49
true,12,1,2,1,true,z,false,false,0.0-2.0-0.50-0.452-3.452,1,1,0,90,false,stim,false,1,529.0,1,1,0,27857,WMM2,1329415,false,true,1437,image-keyboard-response,50
true,13,0,4,1,false,z,true,true,0.0-2.0-0.50-0.453-3.453,1,0,1,81,true,stim,false,1,689.3000000715256,1,1,2,27857,WMM2,1331635,false,true,1440,image-keyboard-response,1
true,13,0,4,0,true,q,false,true,0.0-2.0-0.50-0.454-3.454,1,0,1,81,false,stim,false,0,2584.8000000715256,1,0,1,27857,WMM2,1335746,false,false,1443,image-keyboard-response,2
true,13,0,4,0,true,q,false,true,0.0-2.0-0.50-0.455-3.455,1,0,1,81,false,stim,false,0,552.1000000238419,1,0,1,27857,WMM2,1337832,false,false,1446,image-keyboard-response,3
true,13,1,4,1,true,z,false,true,0.0-2.0-0.50-0.456-3.456,1,0,1,90,false,stim,false,1,523.4000000953674,1,1,0,27857,WMM2,1339888,false,false,1449,image-keyboard-response,4
true,13,1,4,1,true,z,false,true,0.0-2.0-0.50-0.457-3.457,1,0,1,90,false,stim,false,1,623.1999999284744,1,1,0,27857,WMM2,1342042,false,false,1452,image-keyboard-response,5
true,13,0,4,1,false,z,true,false,0.0-2.0-0.50-0.458-3.458,1,0,1,81,false,stim,false,1,530.0,1,1,2,27857,WMM2,1344084,false,false,1455,image-keyboard-response,6
true,13,0,4,1,false,z,true,false,0.0-2.0-0.51-0.459-3.459,1,0,1,81,false,stim,false,1,564.7999999523163,1,1,2,27857,WMM2,1346168,false,false,1458,image-keyboard-response,7
true,13,1,4,1,true,z,false,false,0.0-2.0-0.51-0.460-3.460,1,0,1,90,false,stim,false,1,602.2000000476837,1,1,2,27857,WMM2,1348290,false,true,1461,image-keyboard-response,8
true,13,0,4,0,true,q,false,true,0.0-2.0-0.51-0.461-3.461,1,0,1,81,false,stim,false,0,547.5,1,0,1,27857,WMM2,1350355,false,false,1464,image-keyboard-response,9
true,13,0,4,0,true,q,false,true,0.0-2.0-0.51-0.462-3.462,1,0,1,81,false,stim,false,0,624.6999999284744,1,0,1,27857,WMM2,1352507,false,false,1467,image-keyboard-response,10
true,13,0,4,0,true,q,false,true,0.0-2.0-0.51-0.463-3.463,1,0,1,81,false,stim,false,0,559.0,1,0,1,27857,WMM2,1354598,false,false,1470,image-keyboard-response,11
true,13,1,4,1,true,z,false,true,0.0-2.0-0.51-0.464-3.464,1,0,1,90,false,stim,false,1,615.8000000715256,1,1,0,27857,WMM2,1356742,false,false,1473,image-keyboard-response,12
true,13,1,4,1,true,z,false,true,0.0-2.0-0.51-0.465-3.465,1,0,1,90,false,stim,false,1,675.5,1,1,0,27857,WMM2,1358931,false,false,1476,image-keyboard-response,13
true,13,2,4,1,false,z,true,false,0.0-2.0-0.51-0.466-3.466,1,0,1,68,false,stim,false,1,606.8000000715256,1,1,2,27857,WMM2,1361065,false,false,1479,image-keyboard-response,14
true,13,1,4,1,true,z,false,true,0.0-2.0-0.51-0.467-3.467,1,0,1,90,false,stim,false,1,525.2999999523163,1,1,0,27857,WMM2,1363113,false,false,1482,image-keyboard-response,15
true,13,0,4,0,true,q,false,true,0.0-2.0-0.52-0.468-3.468,1,0,1,81,false,stim,false,0,596.8000000715256,1,0,1,27857,WMM2,1365241,false,false,1485,image-keyboard-response,16
true,13,1,4,1,true,z,false,true,0.0-2.0-0.52-0.469-3.469,1,0,1,90,false,stim,false,1,546.2000000476837,1,1,0,27857,WMM2,1367306,false,false,1488,image-keyboard-response,17
true,13,0,4,0,true,q,false,true,0.0-2.0-0.52-0.470-3.470,1,0,1,81,false,stim,false,0,1332.0,1,0,1,27857,WMM2,1370169,false,false,1491,image-keyboard-response,18
true,13,1,4,1,true,z,false,false,0.0-2.0-0.52-0.471-3.471,1,0,1,90,false,stim,false,1,795.3999999761581,1,1,2,27857,WMM2,1372502,false,true,1494,image-keyboard-response,19
true,13,1,4,1,true,z,false,true,0.0-2.0-0.52-0.472-3.472,1,0,1,90,false,stim,false,1,690.6000000238419,1,1,0,27857,WMM2,1374717,false,false,1497,image-keyboard-response,20
true,13,2,4,1,false,z,true,false,0.0-2.0-0.52-0.473-3.473,1,0,1,68,false,stim,false,1,617.0,1,1,2,27857,WMM2,1376855,false,false,1500,image-keyboard-response,21
true,13,1,4,1,true,z,false,true,0.0-2.0-0.52-0.474-3.474,1,0,1,90,false,stim,false,1,581.6000000238419,1,1,0,27857,WMM2,1378998,false,false,1503,image-keyboard-response,22
true,13,2,4,1,false,z,true,false,0.0-2.0-0.52-0.475-3.475,1,0,1,68,false,stim,false,1,515.5,1,1,2,27857,WMM2,1381039,false,false,1506,image-keyboard-response,23
true,13,0,4,0,true,q,false,true,0.0-2.0-0.52-0.476-3.476,1,0,1,81,false,stim,false,0,866.1000000238419,1,0,1,27857,WMM2,1383431,false,false,1509,image-keyboard-response,24
true,13,1,4,1,true,z,false,true,0.0-2.0-0.53-0.477-3.477,1,0,1,90,false,stim,false,1,540.8000000715256,1,1,0,27857,WMM2,1385498,false,false,1512,image-keyboard-response,25
true,13,1,4,1,true,z,false,true,0.0-2.0-0.53-0.478-3.478,1,0,1,90,false,stim,false,1,516.0,1,1,0,27857,WMM2,1387567,false,false,1515,image-keyboard-response,26
true,13,0,4,0,true,q,false,false,0.0-2.0-0.53-0.479-3.479,1,0,1,81,false,stim,false,0,724.3999999761581,1,0,1,27857,WMM2,1389825,false,true,1518,image-keyboard-response,27
true,13,0,4,0,true,q,false,true,0.0-2.0-0.53-0.480-3.480,1,0,1,81,false,stim,false,0,518.3999999761581,1,0,1,27857,WMM2,1391878,false,false,1521,image-keyboard-response,28
true,13,1,4,1,true,z,false,true,0.0-2.0-0.53-0.481-3.481,1,0,1,90,false,stim,false,1,644.3999999761581,1,1,0,27857,WMM2,1394049,false,false,1524,image-keyboard-response,29
true,13,2,4,1,false,z,true,false,0.0-2.0-0.53-0.482-3.482,1,0,1,68,false,stim,false,1,690.0,1,1,2,27857,WMM2,1396261,false,false,1527,image-keyboard-response,30
true,13,0,4,0,true,q,false,true,0.0-2.0-0.53-0.483-3.483,1,0,1,81,false,stim,false,0,857.4000000953674,1,0,1,27857,WMM2,1398651,false,false,1530,image-keyboard-response,31
true,13,0,4,1,false,z,true,false,0.0-2.0-0.53-0.484-3.484,1,0,1,81,false,stim,false,1,467.0,1,1,2,27857,WMM2,1400645,false,false,1533,image-keyboard-response,32
true,13,0,4,1,false,z,true,false,0.0-2.0-0.53-0.485-3.485,1,0,1,81,false,stim,false,1,479.89999997615814,1,1,2,27857,WMM2,1402659,false,false,1536,image-keyboard-response,33
true,13,0,4,1,false,z,true,false,0.0-2.0-0.54-0.486-3.486,1,0,1,81,false,stim,false,1,552.0,1,1,2,27857,WMM2,1404749,false,false,1539,image-keyboard-response,34
true,13,0,4,0,true,q,false,true,0.0-2.0-0.54-0.487-3.487,1,0,1,81,false,stim,false,0,591.8000000715256,1,0,1,27857,WMM2,1406878,false,false,1542,image-keyboard-response,35
true,13,1,4,1,true,z,false,true,0.0-2.0-0.54-0.488-3.488,1,0,1,90,false,stim,false,1,607.7999999523163,1,1,0,27857,WMM2,1409012,false,false,1545,image-keyboard-response,36
true,13,1,4,1,true,z,false,true,0.0-2.0-0.54-0.489-3.489,1,0,1,90,false,stim,false,1,525.2999999523163,1,1,0,27857,WMM2,1411059,false,false,1548,image-keyboard-response,37
true,13,0,4,0,true,q,false,true,0.0-2.0-0.54-0.490-3.490,1,0,1,81,false,stim,false,0,585.2999999523163,1,0,1,27857,WMM2,1413179,false,false,1551,image-keyboard-response,38
true,13,0,4,0,true,q,false,true,0.0-2.0-0.54-0.491-3.491,1,0,1,81,false,stim,false,0,606.4000000953674,1,0,1,27857,WMM2,1415313,false,false,1554,image-keyboard-response,39
true,13,1,4,1,true,z,false,false,0.0-2.0-0.54-0.492-3.492,1,0,1,90,false,stim,false,1,765.6000000238419,1,1,2,27857,WMM2,1417608,false,true,1557,image-keyboard-response,40
true,13,1,4,1,true,z,false,true,0.0-2.0-0.54-0.493-3.493,1,0,1,90,false,stim,false,1,744.7999999523163,1,1,0,27857,WMM2,1419879,false,false,1560,image-keyboard-response,41
true,13,1,4,1,true,z,false,true,0.0-2.0-0.54-0.494-3.494,1,0,1,90,false,stim,false,1,619.2999999523163,1,1,2,27857,WMM2,1422027,false,false,1563,image-keyboard-response,42
true,13,0,4,0,true,q,false,true,0.0-2.0-0.55-0.495-3.495,1,0,1,81,false,stim,false,0,622.0,1,1,1,27857,WMM2,1424167,false,false,1566,image-keyboard-response,43
true,13,0,4,0,true,q,false,true,0.0-2.0-0.55-0.496-3.496,1,0,1,81,false,stim,false,0,414.10000002384186,1,1,1,27857,WMM2,1426113,false,false,1569,image-keyboard-response,44
true,13,1,4,1,true,z,false,true,0.0-2.0-0.55-0.497-3.497,1,0,1,90,false,stim,false,1,569.3999999761581,1,0,0,27857,WMM2,1428208,false,false,1572,image-keyboard-response,45
true,13,1,4,1,true,z,false,true,0.0-2.0-0.55-0.498-3.498,1,0,1,90,false,stim,false,1,462.10000002384186,1,1,2,27857,WMM2,1430194,false,false,1575,image-keyboard-response,46
true,13,1,4,1,true,z,false,true,0.0-2.0-0.55-0.499-3.499,1,0,1,90,false,stim,false,1,540.9000000953674,1,1,2,27857,WMM2,1432267,false,false,1578,image-keyboard-response,47
true,13,0,4,0,true,q,false,true,0.0-2.0-0.55-0.500-3.500,1,0,1,81,false,stim,false,0,743.5,1,1,1,27857,WMM2,1434542,false,false,1581,image-keyboard-response,48
true,13,1,4,1,true,z,false,true,0.0-2.0-0.55-0.501-3.501,1,0,1,90,false,stim,false,1,587.8999999761581,1,0,0,27857,WMM2,1436652,false,false,1584,image-keyboard-response,49
true,13,1,4,1,true,z,false,true,0.0-2.0-0.55-0.502-3.502,1,0,1,90,false,stim,false,1,584.8000000715256,1,0,0,27857,WMM2,1438765,false,false,1587,image-keyboard-response,50
true,13,1,4,1,true,z,false,true,0.0-2.0-0.55-0.503-3.503,1,0,1,90,false,stim,false,1,578.3999999761581,1,1,2,27857,WMM2,1440857,false,false,1590,image-keyboard-response,51
true,13,1,4,1,true,z,false,true,0.0-2.0-0.56-0.504-3.504,1,0,1,90,false,stim,false,1,622.7999999523163,1,0,0,27857,WMM2,1443006,false,false,1593,image-keyboard-response,52
true,14,0,0,0,true,q,false,true,0.0-2.0-0.56-0.505-3.505,0,1,1,81,true,stim,false,0,2528.3000000715256,1,1,1,27857,WMM2,1568479,false,false,1716,image-keyboard-response,1
true,14,1,0,1,true,z,false,true,0.0-2.0-0.56-0.506-3.506,0,1,1,90,false,stim,false,1,475.3000000715256,1,0,0,27857,WMM2,1570475,false,false,1719,image-keyboard-response,2
true,14,0,0,0,true,q,false,true,0.0-2.0-0.56-0.507-3.507,0,1,1,81,false,stim,false,0,345.0,1,1,1,27857,WMM2,1572350,false,false,1722,image-keyboard-response,3
true,14,1,0,1,true,z,false,true,0.0-2.0-0.56-0.508-3.508,0,1,1,90,false,stim,false,1,647.5,1,1,2,27857,WMM2,1574542,false,false,1725,image-keyboard-response,4
true,14,0,0,0,true,q,false,true,0.0-2.0-0.56-0.509-3.509,0,1,1,81,false,stim,false,0,702.2999999523163,1,1,1,27857,WMM2,1576769,false,false,1728,image-keyboard-response,5
true,14,1,0,1,true,z,false,true,0.0-2.0-0.56-0.510-3.510,0,1,1,90,false,stim,false,1,490.0,1,0,0,27857,WMM2,1578788,false,false,1731,image-keyboard-response,6
true,14,0,0,1,false,z,true,true,0.0-2.0-0.56-0.511-3.511,0,1,1,81,false,stim,false,1,438.10000002384186,1,1,2,27857,WMM2,1580745,false,true,1734,image-keyboard-response,7
true,14,0,0,1,false,z,true,false,0.0-2.0-0.56-0.512-3.512,0,1,1,81,false,stim,false,1,451.2000000476837,1,1,2,27857,WMM2,1582731,false,false,1737,image-keyboard-response,8
true,14,1,0,1,true,z,false,true,0.0-2.0-0.57-0.513-3.513,0,1,1,90,false,stim,false,1,572.8999999761581,1,1,2,27857,WMM2,1584817,false,false,1740,image-keyboard-response,9
true,14,1,0,1,true,z,false,true,0.0-2.0-0.57-0.514-3.514,0,1,1,90,false,stim,false,1,447.39999997615814,1,1,2,27857,WMM2,1586799,false,false,1743,image-keyboard-response,10
true,14,0,0,0,true,q,false,true,0.0-2.0-0.57-0.515-3.515,0,1,1,81,false,stim,false,0,625.1000000238419,1,1,1,27857,WMM2,1588955,false,false,1746,image-keyboard-response,11
true,14,0,0,0,true,q,false,true,0.0-2.0-0.57-0.516-3.516,0,1,1,81,false,stim,false,0,544.8999999761581,1,1,1,27857,WMM2,1591021,false,false,1749,image-keyboard-response,12
true,14,0,0,0,true,q,false,true,0.0-2.0-0.57-0.517-3.517,0,1,1,81,false,stim,false,0,558.0,1,1,1,27857,WMM2,1593103,false,false,1752,image-keyboard-response,13
true,14,1,0,1,true,z,false,true,0.0-2.0-0.57-0.518-3.518,0,1,1,90,false,stim,false,1,649.1999999284744,1,0,0,27857,WMM2,1595285,false,false,1755,image-keyboard-response,14
true,14,1,0,1,true,z,false,true,0.0-2.0-0.57-0.519-3.519,0,1,1,90,false,stim,false,1,641.5,1,0,0,27857,WMM2,1597453,false,false,1758,image-keyboard-response,15
true,14,0,0,1,false,z,true,false,0.0-2.0-0.57-0.520-3.520,0,1,1,81,false,stim,false,1,1258.1000000238419,1,1,2,27857,WMM2,1600250,false,false,1761,image-keyboard-response,16
true,14,1,0,1,true,z,false,true,0.0-2.0-0.57-0.521-3.521,0,1,1,90,false,stim,false,1,1271.2000000476837,1,0,0,27857,WMM2,1603049,false,false,1764,image-keyboard-response,17
true,14,1,0,0,false,q,true,false,0.0-2.0-0.58-0.522-3.522,0,1,1,90,false,stim,false,0,1084.6000000238419,1,1,1,27857,WMM2,1605664,false,false,1767,image-keyboard-response,18
true,14,0,0,1,false,z,true,false,0.0-2.0-0.58-0.523-3.523,0,1,1,81,false,stim,false,1,941.5999999046326,1,1,2,27857,WMM2,1608130,false,false,1770,image-keyboard-response,19
true,14,1,0,1,true,z,false,true,0.0-2.0-0.58-0.524-3.524,0,1,1,90,false,stim,false,1,464.60000002384186,1,0,0,27857,WMM2,1610130,false,false,1773,image-keyboard-response,20
true,14,0,0,0,true,q,false,true,0.0-2.0-0.58-0.525-3.525,0,1,1,81,false,stim,false,0,447.6999999284744,1,1,1,27857,WMM2,1612116,false,false,1776,image-keyboard-response,21
true,14,1,0,1,true,z,false,true,0.0-2.0-0.58-0.526-3.526,0,1,1,90,false,stim,false,1,604.2000000476837,1,0,0,27857,WMM2,1614238,false,false,1779,image-keyboard-response,22
true,14,1,0,1,true,z,false,true,0.0-2.0-0.58-0.527-3.527,0,1,1,90,false,stim,false,1,801.8000000715256,1,1,2,27857,WMM2,1616569,false,false,1782,image-keyboard-response,23
true,14,1,0,1,true,z,false,true,0.0-2.0-0.58-0.528-3.528,0,1,1,90,false,stim,false,1,526.0,1,0,0,27857,WMM2,1618640,false,false,1785,image-keyboard-response,24
true,14,0,0,0,true,q,false,true,0.0-2.0-0.58-0.529-3.529,0,1,1,81,false,stim,false,0,954.2000000476837,1,1,1,27857,WMM2,1621124,false,false,1788,image-keyboard-response,25
true,14,1,0,1,true,z,false,true,0.0-2.0-0.58-0.530-3.530,0,1,1,90,false,stim,false,1,748.7000000476837,1,1,2,27857,WMM2,1623418,false,false,1791,image-keyboard-response,26
true,14,1,0,1,true,z,false,false,0.0-2.0-0.59-0.531-3.531,0,1,1,90,false,stim,false,1,986.3999999761581,1,1,0,27857,WMM2,1625944,false,true,1794,image-keyboard-response,27
true,14,1,0,1,true,z,false,true,0.0-2.0-0.59-0.532-3.532,0,1,1,90,false,stim,false,1,882.7000000476837,1,1,0,27857,WMM2,1628357,false,false,1797,image-keyboard-response,28
true,14,1,0,1,true,z,false,false,0.0-2.0-0.59-0.533-3.533,0,1,1,90,false,stim,false,1,1039.8999999761581,1,1,0,27857,WMM2,1630925,false,true,1800,image-keyboard-response,29
true,14,1,0,1,true,z,false,true,0.0-2.0-0.59-0.534-3.534,0,1,1,90,false,stim,false,1,928.0,1,0,2,27857,WMM2,1633402,false,false,1803,image-keyboard-response,30
true,14,0,0,0,true,q,false,true,0.0-2.0-0.59-0.535-3.535,0,1,1,81,false,stim,false,0,598.5,1,1,1,27857,WMM2,1635531,false,false,1806,image-keyboard-response,31
true,14,1,0,1,true,z,false,true,0.0-2.0-0.59-0.536-3.536,0,1,1,90,false,stim,false,1,543.0,1,0,2,27857,WMM2,1637606,false,false,1809,image-keyboard-response,32
true,14,1,0,1,true,z,false,true,0.0-2.0-0.59-0.537-3.537,0,1,1,90,false,stim,false,1,522.5,1,0,2,27857,WMM2,1639662,false,false,1812,image-keyboard-response,33
true,14,0,0,0,true,q,false,false,0.0-2.0-0.59-0.538-3.538,0,1,1,81,false,stim,false,0,536.2000000476837,1,1,1,27857,WMM2,1641725,false,true,1815,image-keyboard-response,34
true,14,0,0,0,true,q,false,true,0.0-2.0-0.59-0.539-3.539,0,1,1,81,false,stim,false,0,427.0,1,1,1,27857,WMM2,1643667,false,false,1818,image-keyboard-response,35
true,14,0,0,0,true,q,false,false,0.0-2.0-0.60-0.540-3.540,0,1,1,81,false,stim,false,0,507.0,1,1,1,27857,WMM2,1645712,false,true,1821,image-keyboard-response,36
true,15,1,4,1,true,z,false,true,0.0-2.0-0.60-0.541-3.541,1,1,0,90,true,stim,false,1,446.2999999523163,1,0,2,27857,WMM2,1647684,false,false,1824,image-keyboard-response,1
true,15,1,4,1,true,z,false,true,0.0-2.0-0.60-0.542-3.542,1,1,0,90,false,stim,false,1,474.10000002384186,1,0,2,27857,WMM2,1649683,false,false,1827,image-keyboard-response,2
true,15,1,4,1,true,z,false,false,0.0-2.0-0.60-0.543-3.543,1,1,0,90,false,stim,false,1,750.5,1,1,0,27857,WMM2,1651967,false,true,1830,image-keyboard-response,3
true,15,0,4,0,true,q,false,true,0.0-2.0-0.60-0.544-3.544,1,1,0,81,false,stim,false,0,777.5,1,1,1,27857,WMM2,1654265,false,false,1833,image-keyboard-response,4
true,15,1,4,1,true,z,false,true,0.0-2.0-0.60-0.545-3.545,1,1,0,90,false,stim,false,1,691.8999999761581,1,1,0,27857,WMM2,1656475,false,false,1836,image-keyboard-response,5
true,15,0,4,0,true,q,false,false,0.0-2.0-0.60-0.546-3.546,1,1,0,81,false,stim,false,0,812.5,1,1,1,27857,WMM2,1658822,false,true,1839,image-keyboard-response,6
true,15,1,4,1,true,z,false,false,0.0-2.0-0.60-0.547-3.547,1,1,0,90,false,stim,false,1,863.7999999523163,1,0,2,27857,WMM2,1661198,false,true,1842,image-keyboard-response,7
true,15,1,4,1,true,z,false,true,0.0-2.0-0.60-0.548-3.548,1,1,0,90,false,stim,false,1,560.7000000476837,1,1,0,27857,WMM2,1663290,false,false,1845,image-keyboard-response,8
true,15,1,4,1,true,z,false,true,0.0-2.0-0.61-0.549-3.549,1,1,0,90,false,stim,false,1,412.10000002384186,1,0,2,27857,WMM2,1665230,false,false,1848,image-keyboard-response,9
true,15,1,4,1,true,z,false,true,0.0-2.0-0.61-0.550-3.550,1,1,0,90,false,stim,false,1,531.5,1,1,0,27857,WMM2,1667292,false,false,1851,image-keyboard-response,10
true,15,0,4,0,true,q,false,true,0.0-2.0-0.61-0.551-3.551,1,1,0,81,false,stim,false,0,1009.8999999761581,1,1,1,27857,WMM2,1669815,false,false,1854,image-keyboard-response,11
true,15,1,4,1,true,z,false,true,0.0-2.0-0.61-0.552-3.552,1,1,0,90,false,stim,false,1,601.8000000715256,1,0,2,27857,WMM2,1671938,false,false,1857,image-keyboard-response,12
true,15,1,4,1,true,z,false,false,0.0-2.0-0.61-0.553-3.553,1,1,0,90,false,stim,false,1,600.0,1,0,2,27857,WMM2,1674071,false,true,1860,image-keyboard-response,13
true,15,1,4,1,true,z,false,true,0.0-2.0-0.61-0.554-3.554,1,1,0,90,false,stim,false,1,609.6999999284744,1,1,0,27857,WMM2,1676222,false,false,1863,image-keyboard-response,14
true,15,0,4,0,true,q,false,true,0.0-2.0-0.61-0.555-3.555,1,1,0,81,false,stim,false,0,605.5,1,1,1,27857,WMM2,1678363,false,false,1866,image-keyboard-response,15
true,15,1,4,1,true,z,false,true,0.0-2.0-0.61-0.556-3.556,1,1,0,90,false,stim,false,1,620.6999999284744,1,1,0,27857,WMM2,1680512,false,false,1869,image-keyboard-response,16
true,15,1,4,0,false,q,true,true,0.0-2.0-0.61-0.557-3.557,1,1,0,90,false,stim,false,0,649.7000000476837,1,1,1,27857,WMM2,1682693,false,true,1872,image-keyboard-response,17
true,15,1,4,1,true,z,false,true,0.0-2.0-0.62-0.558-3.558,1,1,0,90,false,stim,false,1,1275.7000000476837,1,0,2,27857,WMM2,1685493,false,false,1875,image-keyboard-response,18
true,15,0,4,0,true,q,false,true,0.0-2.0-0.62-0.559-3.559,1,1,0,81,false,stim,false,0,432.10000002384186,1,1,1,27857,WMM2,1687454,false,false,1878,image-keyboard-response,19
true,15,0,4,0,true,q,false,false,0.0-2.0-0.62-0.560-3.560,1,1,0,81,false,stim,false,0,869.6000000238419,1,1,1,27857,WMM2,1689848,false,true,1881,image-keyboard-response,20
true,15,1,4,1,true,z,false,true,0.0-2.0-0.62-0.561-3.561,1,1,0,90,false,stim,false,1,822.8000000715256,1,0,0,27857,WMM2,1692202,false,false,1884,image-keyboard-response,21
true,15,1,4,1,true,z,false,true,0.0-2.0-0.62-0.562-3.562,1,1,0,90,false,stim,false,1,1121.3000000715256,1,0,2,27857,WMM2,1694849,false,false,1887,image-keyboard-response,22
true,15,1,4,1,true,z,false,true,0.0-2.0-0.62-0.563-3.563,1,1,0,90,false,stim,false,1,807.6000000238419,1,0,0,27857,WMM2,1697179,false,false,1890,image-keyboard-response,23
true,15,1,4,1,true,z,false,true,0.0-2.0-0.62-0.564-3.564,1,1,0,90,false,stim,false,1,623.7000000476837,1,0,0,27857,WMM2,1699330,false,false,1893,image-keyboard-response,24
true,15,1,4,1,true,z,false,true,0.0-2.0-0.62-0.565-3.565,1,1,0,90,false,stim,false,1,1147.8999999761581,1,0,2,27857,WMM2,1702013,false,false,1896,image-keyboard-response,25
true,15,1,4,0,false,q,true,false,0.0-2.0-0.62-0.566-3.566,1,1,0,90,false,stim,false,0,692.3999999761581,1,1,1,27857,WMM2,1704221,false,false,1899,image-keyboard-response,26
true,15,1,4,1,true,z,false,true,0.0-2.0-0.63-0.567-3.567,1,1,0,90,false,stim,false,1,576.7999999523163,1,0,0,27857,WMM2,1706348,false,false,1902,image-keyboard-response,27
true,15,1,4,1,true,z,false,true,0.0-2.0-0.63-0.568-3.568,1,1,0,90,false,stim,false,1,455.10000002384186,1,0,0,27857,WMM2,1708323,false,false,1905,image-keyboard-response,28
true,15,1,4,1,true,z,false,true,0.0-2.0-0.63-0.569-3.569,1,1,0,90,false,stim,false,1,538.7999999523163,1,0,2,27857,WMM2,1710381,false,false,1908,image-keyboard-response,29
true,15,1,4,1,true,z,false,true,0.0-2.0-0.63-0.570-3.570,1,1,0,90,false,stim,false,1,637.1000000238419,1,0,2,27857,WMM2,1712551,false,false,1911,image-keyboard-response,30
true,16,1,1,0,false,q,false,true,0.0-2.0-0.63-0.571-3.571,0,1,0,90,true,stim,true,1,674.8000000715256,1,0,0,27857,WMM2,1714736,false,true,1914,image-keyboard-response,1
true,16,1,1,2,false,d,false,false,0.0-2.0-0.63-0.572-3.572,0,1,0,90,false,stim,true,1,686.7999999523163,1,0,2,27857,WMM2,1716942,false,false,1917,image-keyboard-response,2
true,16,0,1,0,true,q,false,true,0.0-2.0-0.63-0.573-3.573,0,1,0,81,false,stim,false,0,1041.5,1,1,1,27857,WMM2,1719501,false,false,1920,image-keyboard-response,3
true,16,0,1,0,true,q,false,true,0.0-2.0-0.63-0.574-3.574,0,1,0,81,false,stim,false,0,692.4000000953674,1,1,1,27857,WMM2,1721716,false,false,1923,image-keyboard-response,4
true,16,0,1,0,true,q,false,true,0.0-2.0-0.63-0.575-3.575,0,1,0,81,false,stim,false,0,852.2999999523163,1,1,1,27857,WMM2,1724091,false,false,1926,image-keyboard-response,5
true,16,0,1,0,true,q,false,true,0.0-2.0-0.64-0.576-3.576,0,1,0,81,false,stim,false,0,555.1000000238419,1,1,1,27857,WMM2,1726182,false,false,1929,image-keyboard-response,6
true,16,1,1,0,false,q,false,false,0.0-2.0-0.64-0.577-3.577,0,1,0,90,false,stim,true,1,771.3000000715256,1,0,0,27857,WMM2,1728481,false,false,1932,image-keyboard-response,7
true,16,1,1,2,false,d,false,false,0.0-2.0-0.64-0.578-3.578,0,1,0,90,false,stim,true,1,560.4000000953674,1,0,2,27857,WMM2,1730578,false,false,1935,image-keyboard-response,8
true,16,1,1,0,false,q,false,false,0.0-2.0-0.64-0.579-3.579,0,1,0,90,false,stim,true,1,414.7000000476837,1,0,0,27857,WMM2,1732513,false,false,1938,image-keyboard-response,9
true,16,0,1,0,true,q,false,true,0.0-2.0-0.64-0.580-3.580,0,1,0,81,false,stim,false,0,597.0,1,1,1,27857,WMM2,1734634,false,false,1941,image-keyboard-response,10
true,16,1,1,2,false,d,false,false,0.0-2.0-0.64-0.581-3.581,0,1,0,90,false,stim,true,1,648.3999999761581,1,0,2,27857,WMM2,1736802,false,false,1944,image-keyboard-response,11
true,16,0,1,0,true,q,false,true,0.0-2.0-0.64-0.582-3.582,0,1,0,81,false,stim,false,1,867.3999999761581,1,0,0,27857,WMM2,1739185,false,false,1947,image-keyboard-response,12
true,16,0,1,0,true,q,false,true,0.0-2.0-0.64-0.583-3.583,0,1,0,81,false,stim,false,0,685.1999999284744,1,1,1,27857,WMM2,1741406,false,false,1950,image-keyboard-response,13
true,16,0,1,2,false,d,true,false,0.0-2.0-0.64-0.584-3.584,0,1,0,81,false,stim,false,1,739.3999999761581,1,0,2,27857,WMM2,1743680,false,false,1953,image-keyboard-response,14
true,16,0,1,0,true,q,false,true,0.0-2.0-0.65-0.585-3.585,0,1,0,81,false,stim,false,1,810.0999999046326,1,0,0,27857,WMM2,1746025,false,false,1956,image-keyboard-response,15
true,16,0,1,0,true,q,false,true,0.0-2.0-0.65-0.586-3.586,0,1,0,81,false,stim,false,1,796.2999999523163,1,0,0,27857,WMM2,1748354,false,false,1959,image-keyboard-response,16
true,16,0,1,0,true,q,false,true,0.0-2.0-0.65-0.587-3.587,0,1,0,81,false,stim,false,0,587.6000000238419,1,1,1,27857,WMM2,1750479,false,false,1962,image-keyboard-response,17
true,16,2,1,2,true,d,false,true,0.0-2.0-0.65-0.588-3.588,0,1,0,68,false,stim,false,1,607.0,1,0,2,27857,WMM2,1752621,false,false,1965,image-keyboard-response,18
true,16,0,1,0,true,q,false,true,0.0-2.0-0.65-0.589-3.589,0,1,0,81,false,stim,false,0,637.1999999284744,1,1,1,27857,WMM2,1754789,false,false,1968,image-keyboard-response,19
true,16,0,1,0,true,q,false,true,0.0-2.0-0.65-0.590-3.590,0,1,0,81,false,stim,false,1,709.2999999523163,1,0,0,27857,WMM2,1757041,false,false,1971,image-keyboard-response,20
true,16,2,1,2,true,d,false,true,0.0-2.0-0.65-0.591-3.591,0,1,0,68,false,stim,false,1,673.0,1,0,2,27857,WMM2,1759242,false,false,1974,image-keyboard-response,21
true,16,2,1,2,true,d,false,true,0.0-2.0-0.65-0.592-3.592,0,1,0,68,false,stim,false,1,651.6999999284744,1,1,2,27857,WMM2,1761417,false,false,1977,image-keyboard-response,22
true,16,0,1,0,true,q,false,true,0.0-2.0-0.65-0.593-3.593,0,1,0,81,false,stim,false,0,549.7999999523163,1,0,1,27857,WMM2,1763503,false,false,1980,image-keyboard-response,23
true,16,0,1,0,true,q,false,true,0.0-2.0-0.66-0.594-3.594,0,1,0,81,false,stim,false,0,593.8999999761581,1,0,1,27857,WMM2,1765621,false,false,1983,image-keyboard-response,24
