answered,blockNum,choice,condition,corResp,correct,correct_response,explo,fb,internal_node_id,isStable_1,isStable_2,isStable_3,key_press,newBlock,part,persev,persevResp,rt,sessNum,stableAS,stimulus,subject,task,time_elapsed,training,trap,trial_index,trial_type,trialsInBlock
true,1,2,0,0,false,q,true,false,0.0-2.0-0.0-0.0-3.0,0,0,0,68,true,stim,false,-1,2049.4000000953674,2,0,2,27857,WMM1,69462,false,false,81,image-keyboard-response,1
true,1,2,0,2,true,d,false,true,0.0-2.0-0.0-0.1-3.1,0,0,0,68,false,stim,false,-1,1555.7999999523163,2,0,0,27857,WMM1,72536,false,false,84,image-keyboard-response,2
true,1,2,0,2,true,d,false,true,0.0-2.0-0.0-0.2-3.2,0,0,0,68,false,stim,false,-1,550.0999999046326,2,0,1,27857,WMM1,74612,false,false,87,image-keyboard-response,3
true,1,2,0,2,true,d,false,true,0.0-2.0-0.0-0.3-3.3,0,0,0,68,false,stim,false,-1,441.90000009536743,2,0,1,27857,WMM1,76579,false,false,90,image-keyboard-response,4
true,1,1,0,0,false,q,true,false,0.0-2.0-0.0-0.4-3.4,0,0,0,90,false,stim,false,-1,550.9000000953674,2,0,2,27857,WMM1,78649,false,false,93,image-keyboard-response,5
true,1,2,0,2,true,d,false,true,0.0-2.0-0.0-0.5-3.5,0,0,0,68,false,stim,false,-1,316.60000002384186,2,0,0,27857,WMM1,80483,false,false,96,image-keyboard-response,6
true,1,0,0,0,true,q,false,true,0.0-2.0-0.0-0.6-3.6,0,0,0,81,false,stim,false,-1,454.89999997615814,2,0,2,27857,WMM1,82454,false,false,99,image-keyboard-response,7
true,1,2,0,2,true,d,false,true,0.0-2.0-0.0-0.7-3.7,0,0,0,68,false,stim,false,-1,545.7000000476837,2,0,1,27857,WMM1,84528,false,false,102,image-keyboard-response,8
true,1,2,0,2,true,d,false,true,0.0-2.0-0.0-0.8-3.8,0,0,0,68,false,stim,false,-1,420.2000000476837,2,0,0,27857,WMM1,86467,false,false,105,image-keyboard-response,9
true,1,0,0,2,false,d,true,false,0.0-2.0-0.1-0.9-3.9,0,0,0,81,false,stim,false,-1,634.6000000238419,2,0,0,27857,WMM1,88613,false,false,108,image-keyboard-response,10
true,1,0,0,2,false,d,true,false,0.0-2.0-0.1-0.10-3.10,0,0,0,81,false,stim,false,-1,799.8000000715256,2,0,1,27857,WMM1,90933,false,false,111,image-keyboard-response,11
true,1,2,0,2,true,d,false,true,0.0-2.0-0.1-0.11-3.11,0,0,0,68,false,stim,false,-1,670.6000000238419,2,0,1,27857,WMM1,93132,false,false,114,image-keyboard-response,12
true,1,2,0,2,true,d,false,true,0.0-2.0-0.1-0.12-3.12,0,0,0,68,false,stim,false,-1,452.39999997615814,2,0,0,27857,WMM1,95104,false,false,117,image-keyboard-response,13
true,1,2,0,2,true,d,false,true,0.0-2.0-0.1-0.13-3.13,0,0,0,68,false,stim,false,-1,634.8999999761581,2,0,0,27857,WMM1,97260,false,false,120,image-keyboard-response,14
true,1,0,0,0,true,q,false,true,0.0-2.0-0.1-0.14-3.14,0,0,0,81,false,stim,false,-1,546.1000000238419,2,0,2,27857,WMM1,99338,false,false,123,image-keyboard-response,15
true,1,2,0,2,true,d,false,false,0.0-2.0-0.1-0.15-3.15,0,0,0,68,false,stim,false,-1,486.89999997615814,2,0,1,27857,WMM1,101351,false,true,126,image-keyboard-response,16
true,1,0,0,0,true,q,false,true,0.0-2.0-0.1-0.16-3.16,0,0,0,81,false,stim,false,-1,573.7999999523163,2,0,2,27857,WMM1,103444,false,false,129,image-keyboard-response,17
true,1,0,0,0,true,q,false,true,0.0-2.0-0.1-0.17-3.17,0,0,0,81,false,stim,false,-1,585.7000000476837,2,0,2,27857,WMM1,105560,false,false,132,image-keyboard-response,18
true,1,2,0,2,true,d,false,true,0.0-2.0-0.2-0.18-3.18,0,0,0,68,false,stim,false,-1,501.39999997615814,2,0,1,27857,WMM1,107580,false,false,135,image-keyboard-response,19
true,1,2,0,2,true,d,false,true,0.0-2.0-0.2-0.19-3.19,0,0,0,68,false,stim,false,-1,499.60000002384186,2,0,1,27857,WMM1,109613,false,false,138,image-keyboard-response,20
true,1,2,0,2,true,d,false,true,0.0-2.0-0.2-0.20-3.20,0,0,0,68,false,stim,false,-1,621.8999999761581,2,0,0,27857,WMM1,111754,false,false,141,image-keyboard-response,21
true,1,0,0,0,true,q,false,true,0.0-2.0-0.2-0.21-3.21,0,0,0,81,false,stim,false,-1,1180.3999999761581,2,0,2,27857,WMM1,114450,false,false,144,image-keyboard-response,22
true,1,2,0,2,true,d,false,true,0.0-2.0-0.2-0.22-3.22,0,0,0,68,false,stim,false,-1,497.7999999523163,2,0,1,27857,WMM1,116469,false,false,147,image-keyboard-response,23
true,1,2,0,2,true,d,false,true,0.0-2.0-0.2-0.23-3.23,0,0,0,68,false,stim,false,-1,984.9000000953674,2,0,0,27857,WMM1,118973,false,false,150,image-keyboard-response,24
true,1,0,0,0,true,q,false,true,0.0-2.0-0.2-0.24-3.24,0,0,0,81,false,stim,false,-1,2156.0,2,0,2,27857,WMM1,122654,false,false,153,image-keyboard-response,25
true,1,0,0,0,true,q,false,true,0.0-2.0-0.2-0.25-3.25,0,0,0,81,false,stim,false,-1,481.39999997615814,2,0,2,27857,WMM1,124671,false,false,156,image-keyboard-response,26
true,1,2,0,2,true,d,false,true,0.0-2.0-0.2-0.26-3.26,0,0,0,68,false,stim,false,-1,569.2999999523163,2,0,0,27857,WMM1,126768,false,false,159,image-keyboard-response,27
true,1,2,0,2,true,d,false,true,0.0-2.0-0.3-0.27-3.27,0,0,0,68,false,stim,false,-1,497.60000002384186,2,0,0,27857,WMM1,128795,false,false,162,image-keyboard-response,28
true,1,2,0,2,true,d,false,true,0.0-2.0-0.3-0.28-3.28,0,0,0,68,false,stim,false,-1,585.7999999523163,2,0,0,27857,WMM1,130904,false,false,165,image-keyboard-response,29
true,1,2,0,2,true,d,false,true,0.0-2.0-0.3-0.29-3.29,0,0,0,68,false,stim,false,-1,621.1999999284744,2,0,0,27857,WMM1,133045,false,false,168,image-keyboard-response,30
true,2,0,1,1,false,z,true,false,0.0-2.0-0.3-0.30-3.30,0,0,0,81,true,stim,false,2,1621.2999999523163,2,0,1,27857,WMM1,136189,false,false,171,image-keyboard-response,1
true,2,0,1,2,false,d,false,false,0.0-2.0-0.3-0.31-3.31,0,0,0,81,false,stim,true,0,1176.3999999761581,2,0,2,27857,WMM1,138886,false,false,174,image-keyboard-response,2
true,2,2,1,1,false,z,false,false,0.0-2.0-0.3-0.32-3.32,0,0,0,68,false,stim,true,2,664.7999999523163,2,0,1,27857,WMM1,141071,false,false,177,image-keyboard-response,3
true,2,0,1,2,false,d,false,false,0.0-2.0-0.3-0.33-3.33,0,0,0,81,false,stim,true,0,628.1000000238419,2,0,2,27857,WMM1,143223,false,false,180,image-keyboard-response,4
true,2,2,1,1,false,z,false,false,0.0-2.0-0.3-0.34-3.34,0,0,0,68,false,stim,true,2,622.8000000715256,2,0,1,27857,WMM1,145361,false,false,183,image-keyboard-response,5
true,2,0,1,2,false,d,false,false,0.0-2.0-0.3-0.35-3.35,0,0,0,81,false,stim,true,0,584.0,2,0,2,27857,WMM1,147467,false,false,186,image-keyboard-response,6
true,2,1,1,1,true,z,false,true,0.0-2.0-0.4-0.36-3.36,0,0,0,90,false,stim,false,2,907.6000000238419,2,0,1,27857,WMM1,149895,false,false,189,image-keyboard-response,7
true,2,2,1,1,false,z,false,false,0.0-2.0-0.4-0.37-3.37,0,0,0,68,false,stim,true,2,708.3999999761581,2,0,0,27857,WMM1,152122,false,false,192,image-keyboard-response,8
true,2,1,1,1,true,z,false,false,0.0-2.0-0.4-0.38-3.38,0,0,0,90,false,stim,false,2,631.0,2,0,1,27857,WMM1,154287,false,true,195,image-keyboard-response,9
true,2,0,1,2,false,d,false,false,0.0-2.0-0.4-0.39-3.39,0,0,0,81,false,stim,true,0,691.7999999523163,2,0,2,27857,WMM1,156507,false,false,198,image-keyboard-response,10
true,2,1,1,2,false,d,true,false,0.0-2.0-0.4-0.40-3.40,0,0,0,90,false,stim,false,0,655.2000000476837,2,0,2,27857,WMM1,158676,false,false,201,image-keyboard-response,11
true,2,2,1,1,false,z,false,false,0.0-2.0-0.4-0.41-3.41,0,0,0,68,false,stim,true,2,518.5,2,0,0,27857,WMM1,160717,false,false,204,image-keyboard-response,12
true,2,2,1,1,false,z,false,true,0.0-2.0-0.4-0.42-3.42,0,0,0,68,false,stim,true,2,727.8999999761581,2,0,0,27857,WMM1,162953,false,true,207,image-keyboard-response,13
true,2,0,1,2,false,d,false,false,0.0-2.0-0.4-0.43-3.43,0,0,0,81,false,stim,true,0,1275.2000000476837,2,0,2,27857,WMM1,165754,false,false,210,image-keyboard-response,14
true,2,2,1,1,false,z,false,false,0.0-2.0-0.4-0.44-3.44,0,0,0,68,false,stim,true,2,1540.2999999523163,2,0,1,27857,WMM1,168832,false,false,213,image-keyboard-response,15
true,2,1,1,2,false,d,true,false,0.0-2.0-0.5-0.45-3.45,0,0,0,90,false,stim,false,0,971.1000000238419,2,0,2,27857,WMM1,171314,false,false,216,image-keyboard-response,16
true,2,2,1,2,true,d,false,true,0.0-2.0-0.5-0.46-3.46,0,0,0,68,false,stim,false,0,416.6999999284744,2,0,2,27857,WMM1,173238,false,false,219,image-keyboard-response,17
true,2,1,1,1,true,z,false,false,0.0-2.0-0.5-0.47-3.47,0,0,0,90,false,stim,false,2,1044.1000000238419,2,0,1,27857,WMM1,175815,false,true,222,image-keyboard-response,18
true,2,2,1,1,false,z,false,true,0.0-2.0-0.5-0.48-3.48,0,0,0,68,false,stim,true,2,565.3000000715256,2,0,0,27857,WMM1,177924,false,true,225,image-keyboard-response,19
true,2,1,1,1,true,z,false,true,0.0-2.0-0.5-0.49-3.49,0,0,0,90,false,stim,false,2,1669.1000000238419,2,0,1,27857,WMM1,181129,false,false,228,image-keyboard-response,20
true,2,1,1,1,true,z,false,true,0.0-2.0-0.5-0.50-3.50,0,0,0,90,false,stim,false,2,521.9000000953674,2,0,1,27857,WMM1,183169,false,false,231,image-keyboard-response,21
true,2,2,1,1,false,z,false,false,0.0-2.0-0.5-0.51-3.51,0,0,0,68,false,stim,true,2,874.3000000715256,2,0,0,27857,WMM1,185576,false,false,234,image-keyboard-response,22
true,2,2,1,2,true,d,false,true,0.0-2.0-0.5-0.52-3.52,0,0,0,68,false,stim,false,0,1122.6000000238419,2,0,2,27857,WMM1,188221,false,false,237,image-keyboard-response,23
true,2,0,1,1,false,z,true,false,0.0-2.0-0.5-0.53-3.53,0,0,0,81,false,stim,false,2,688.0,2,0,0,27857,WMM1,190429,false,false,240,image-keyboard-response,24
true,2,0,1,1,false,z,true,false,0.0-2.0-0.6-0.54-3.54,0,0,0,81,false,stim,false,2,419.3000000715256,2,0,0,27857,WMM1,192375,false,false,243,image-keyboard-response,25
true,2,2,1,1,false,z,false,false,0.0-2.0-0.6-0.55-3.55,0,0,0,68,false,stim,true,2,448.2999999523163,2,0,0,27857,WMM1,194339,false,false,246,image-keyboard-response,26
true,2,2,1,2,true,d,false,true,0.0-2.0-0.6-0.56-3.56,0,0,0,68,false,stim,false,0,1457.5999999046326,2,0,2,27857,WMM1,197323,false,false,249,image-keyboard-response,27
true,2,1,1,1,true,z,false,false,0.0-2.0-0.6-0.57-3.57,0,0,0,90,false,stim,false,2,798.6000000238419,2,0,0,27857,WMM1,199645,false,true,252,image-keyboard-response,28
true,2,1,1,1,true,z,false,true,0.0-2.0-0.6-0.58-3.58,0,0,0,90,false,stim,false,2,818.5999999046326,2,0,1,27857,WMM1,201986,false,false,255,image-keyboard-response,29
true,2,1,1,1,true,z,false,true,0.0-2.0-0.6-0.59-3.59,0,0,0,90,false,stim,false,2,725.1999999284744,2,0,1,27857,WMM1,204233,false,false,258,image-keyboard-response,30
true,2,1,1,1,true,z,false,true,0.0-2.0-0.6-0.60-3.60,0,0,0,90,false,stim,false,2,789.2999999523163,2,0,1,27857,WMM1,206549,false,false,261,image-keyboard-response,31
true,2,2,1,2,true,d,false,true,0.0-2.0-0.6-0.61-3.61,0,0,0,68,false,stim,false,0,661.1999999284744,2,0,2,27857,WMM1,208720,false,false,264,image-keyboard-response,32
true,2,2,1,2,true,d,false,true,0.0-2.0-0.6-0.62-3.62,0,0,0,68,false,stim,false,0,714.0,2,0,2,27857,WMM1,210957,false,false,267,image-keyboard-response,33
true,2,2,1,2,true,d,false,true,0.0-2.0-0.7-0.63-3.63,0,0,0,68,false,stim,false,0,756.6000000238419,2,0,2,27857,WMM1,213247,false,false,270,image-keyboard-response,34
true,2,2,1,2,true,d,false,true,0.0-2.0-0.7-0.64-3.64,0,0,0,68,false,stim,false,0,590.3000000715256,2,0,2,27857,WMM1,215371,false,false,273,image-keyboard-response,35
true,2,1,1,1,true,z,false,true,0.0-2.0-0.7-0.65-3.65,0,0,0,90,false,stim,false,2,657.3000000715256,2,0,1,27857,WMM1,217544,false,false,276,image-keyboard-response,36
true,2,1,1,1,true,z,false,true,0.0-2.0-0.7-0.66-3.66,0,0,0,90,false,stim,false,2,467.0,2,0,1,27857,WMM1,219527,false,false,279,image-keyboard-response,37
true,2,2,1,1,false,z,false,false,0.0-2.0-0.7-0.67-3.67,0,0,0,68,false,stim,true,2,681.2000000476837,2,0,0,27857,WMM1,221730,false,false,282,image-keyboard-response,38
true,2,1,1,1,true,z,false,true,0.0-2.0-0.7-0.68-3.68,0,0,0,90,false,stim,false,2,1488.2000000476837,2,0,1,27857,WMM1,224748,false,false,285,image-keyboard-response,39
true,2,1,1,1,true,z,false,true,0.0-2.0-0.7-0.69-3.69,0,0,0,90,false,stim,false,2,671.7999999523163,2,0,0,27857,WMM1,226948,false,false,288,image-keyboard-response,40
true,2,2,1,2,true,d,false,true,0.0-2.0-0.7-0.70-3.70,0,0,0,68,false,stim,false,0,674.3999999761581,2,0,2,27857,WMM1,229151,false,false,291,image-keyboard-response,41
true,2,1,1,1,true,z,false,true,0.0-2.0-0.7-0.71-3.71,0,0,0,90,false,stim,false,2,568.2000000476837,2,0,0,27857,WMM1,231240,false,false,294,image-keyboard-response,42
true,2,1,1,1,true,z,false,true,0.0-2.0-0.8-0.72-3.72,0,0,0,90,false,stim,false,2,1289.0,2,0,1,27857,WMM1,234046,false,false,297,image-keyboard-response,43
true,2,2,1,2,true,d,false,true,0.0-2.0-0.8-0.73-3.73,0,0,0,68,false,stim,false,0,530.0,2,0,2,27857,WMM1,236099,false,false,300,image-keyboard-response,44
true,2,1,1,1,true,z,false,true,0.0-2.0-0.8-0.74-3.74,0,0,0,90,false,stim,false,2,831.7999999523163,2,0,1,27857,WMM1,238450,false,false,303,image-keyboard-response,45
true,2,1,1,1,true,z,false,true,0.0-2.0-0.8-0.75-3.75,0,0,0,90,false,stim,false,2,1016.2000000476837,2,0,0,27857,WMM1,240998,false,false,306,image-keyboard-response,46
true,2,2,1,2,true,d,false,true,0.0-2.0-0.8-0.76-3.76,0,0,0,68,false,stim,false,0,777.0,2,0,2,27857,WMM1,243305,false,false,309,image-keyboard-response,47
true,2,1,1,1,true,z,false,true,0.0-2.0-0.8-0.77-3.77,0,0,0,90,false,stim,false,2,833.6000000238419,2,0,0,27857,WMM1,245662,false,false,312,image-keyboard-response,48
true,2,2,1,2,true,d,false,true,0.0-2.0-0.8-0.78-3.78,0,0,0,68,false,stim,false,0,559.8999999761581,2,0,2,27857,WMM1,247742,false,false,315,image-keyboard-response,49
true,2,1,1,1,true,z,false,true,0.0-2.0-0.8-0.79-3.79,0,0,0,90,false,stim,false,2,823.2999999523163,2,0,0,27857,WMM1,250089,false,false,318,image-keyboard-response,50
true,2,1,1,1,true,z,false,true,0.0-2.0-0.8-0.80-3.80,0,0,0,90,false,stim,false,2,708.3000000715256,2,0,1,27857,WMM1,252325,false,false,321,image-keyboard-response,51
true,2,2,1,2,true,d,false,false,0.0-2.0-0.9-0.81-3.81,0,0,0,68,false,stim,false,0,453.8000000715256,2,0,2,27857,WMM1,254290,false,true,324,image-keyboard-response,52
true,3,1,1,2,false,d,false,false,0.0-2.0-0.9-0.82-3.82,0,0,0,90,true,stim,true,1,481.0,2,0,1,27857,WMM1,256293,false,false,327,image-keyboard-response,1
true,3,1,1,0,false,q,false,false,0.0-2.0-0.9-0.83-3.83,0,0,0,90,false,stim,true,1,360.89999997615814,2,0,0,27857,WMM1,258181,false,false,330,image-keyboard-response,2
true,3,1,1,2,false,d,false,false,0.0-2.0-0.9-0.84-3.84,0,0,0,90,false,stim,true,1,763.3000000715256,2,0,1,27857,WMM1,260465,false,false,333,image-keyboard-response,3
true,3,1,1,0,false,q,false,false,0.0-2.0-0.9-0.85-3.85,0,0,0,90,false,stim,true,1,619.4000000953674,2,0,0,27857,WMM1,262605,false,false,336,image-keyboard-response,4
true,3,2,1,0,false,q,false,true,0.0-2.0-0.9-0.86-3.86,0,0,0,68,false,stim,true,2,550.7999999523163,2,0,2,27857,WMM1,264674,false,true,339,image-keyboard-response,5
true,3,1,1,0,false,q,false,false,0.0-2.0-0.9-0.87-3.87,0,0,0,90,false,stim,true,1,500.59999990463257,2,0,0,27857,WMM1,266695,false,false,342,image-keyboard-response,6
true,3,2,1,0,false,q,false,false,0.0-2.0-0.9-0.88-3.88,0,0,0,68,false,stim,true,2,756.4000000953674,2,0,2,27857,WMM1,268966,false,false,345,image-keyboard-response,7
true,3,1,1,2,false,d,false,false,0.0-2.0-0.9-0.89-3.89,0,0,0,90,false,stim,true,1,608.0,2,0,1,27857,WMM1,271086,false,false,348,image-keyboard-response,8
true,3,1,1,2,false,d,false,false,0.0-2.0-0.10-0.90-3.90,0,0,0,90,false,stim,true,1,1291.2999999523163,2,0,1,27857,WMM1,273890,false,false,351,image-keyboard-response,9
true,3,2,1,0,false,q,false,false,0.0-2.0-0.10-0.91-3.91,0,0,0,68,false,stim,true,2,1121.2000000476837,2,0,2,27857,WMM1,276522,false,false,354,image-keyboard-response,10
true,3,0,1,0,true,q,false,true,0.0-2.0-0.10-0.92-3.92,0,0,0,81,false,stim,false,1,1201.7000000476837,2,0,0,27857,WMM1,279248,false,false,357,image-keyboard-response,11
true,3,1,1,0,false,q,true,false,0.0-2.0-0.10-0.93-3.93,0,0,0,90,false,stim,false,2,1080.4000000953674,2,0,2,27857,WMM1,281839,false,false,360,image-keyboard-response,12
true,3,0,1,2,false,d,true,true,0.0-2.0-0.10-0.94-3.94,0,0,0,81,false,stim,false,1,992.2000000476837,2,0,1,27857,WMM1,284362,false,true,363,image-keyboard-response,13
true,3,0,1,2,false,d,true,false,0.0-2.0-0.10-0.95-3.95,0,0,0,81,false,stim,false,1,682.6000000238419,2,0,1,27857,WMM1,286559,false,false,366,image-keyboard-response,14
true,3,0,1,0,true,q,false,true,0.0-2.0-0.10-0.96-3.96,0,0,0,81,false,stim,false,1,650.8999999761581,2,0,0,27857,WMM1,288739,false,false,369,image-keyboard-response,15
true,3,2,1,0,false,q,false,false,0.0-2.0-0.10-0.97-3.97,0,0,0,68,false,stim,true,2,1171.7999999523163,2,0,2,27857,WMM1,291428,false,false,372,image-keyboard-response,16
true,3,0,1,0,true,q,false,true,0.0-2.0-0.10-0.98-3.98,0,0,0,81,false,stim,false,1,1069.6999999284744,2,0,0,27857,WMM1,294014,false,false,375,image-keyboard-response,17
true,3,0,1,0,true,q,false,true,0.0-2.0-0.11-0.99-3.99,0,0,0,81,false,stim,false,1,550.3000000715256,2,0,0,27857,WMM1,296086,false,false,378,image-keyboard-response,18
true,3,1,1,0,false,q,true,false,0.0-2.0-0.11-0.100-3.100,0,0,0,90,false,stim,false,2,1813.5,2,0,2,27857,WMM1,299422,false,false,381,image-keyboard-response,19
true,3,1,1,2,false,d,false,false,0.0-2.0-0.11-0.101-3.101,0,0,0,90,false,stim,true,1,1353.5999999046326,2,0,1,27857,WMM1,302287,false,false,384,image-keyboard-response,20
true,3,0,1,0,true,q,false,true,0.0-2.0-0.11-0.102-3.102,0,0,0,81,false,stim,false,1,508.2000000476837,2,0,0,27857,WMM1,304308,false,false,387,image-keyboard-response,21
true,3,0,1,0,true,q,false,true,0.0-2.0-0.11-0.103-3.103,0,0,0,81,false,stim,false,1,586.2999999523163,2,0,0,27857,WMM1,306412,false,false,390,image-keyboard-response,22
true,3,0,1,2,false,d,true,false,0.0-2.0-0.11-0.104-3.104,0,0,0,81,false,stim,false,1,481.10000002384186,2,0,1,27857,WMM1,308403,false,false,393,image-keyboard-response,23
true,3,0,1,0,true,q,false,true,0.0-2.0-0.11-0.105-3.105,0,0,0,81,false,stim,false,2,317.8000000715256,2,0,2,27857,WMM1,310241,false,false,396,image-keyboard-response,24
true,3,2,1,2,true,d,false,true,0.0-2.0-0.11-0.106-3.106,0,0,0,68,false,stim,false,1,1194.2999999523163,2,0,1,27857,WMM1,312946,false,false,399,image-keyboard-response,25
true,3,0,1,0,true,q,false,true,0.0-2.0-0.11-0.107-3.107,0,0,0,81,false,stim,false,2,707.7999999523163,2,0,2,27857,WMM1,315191,false,false,402,image-keyboard-response,26
true,3,2,1,2,true,d,false,true,0.0-2.0-0.12-0.108-3.108,0,0,0,68,false,stim,false,1,674.1000000238419,2,0,1,27857,WMM1,317396,false,false,405,image-keyboard-response,27
true,3,0,1,0,true,q,false,true,0.0-2.0-0.12-0.109-3.109,0,0,0,81,false,stim,false,2,1018.1000000238419,2,1,2,27857,WMM1,319953,false,false,408,image-keyboard-response,28
true,3,0,1,0,true,q,false,true,0.0-2.0-0.12-0.110-3.110,0,0,0,81,false,stim,false,2,428.2000000476837,2,1,2,27857,WMM1,321917,false,false,411,image-keyboard-response,29
true,3,0,1,0,true,q,false,true,0.0-2.0-0.12-0.111-3.111,0,0,0,81,false,stim,false,1,549.3000000715256,2,0,0,27857,WMM1,323984,false,false,414,image-keyboard-response,30
true,3,0,1,2,false,d,true,false,0.0-2.0-0.12-0.112-3.112,0,0,0,81,false,stim,false,1,1106.0,2,0,1,27857,WMM1,326603,false,false,417,image-keyboard-response,31
true,3,0,1,2,false,d,true,true,0.0-2.0-0.12-0.113-3.113,0,0,0,81,false,stim,false,1,588.3000000715256,2,0,1,27857,WMM1,328716,false,true,420,image-keyboard-response,32
true,3,0,1,0,true,q,false,true,0.0-2.0-0.12-0.114-3.114,0,0,0,81,false,stim,false,1,665.3999999761581,2,0,0,27857,WMM1,330915,false,false,423,image-keyboard-response,33
true,3,2,1,0,false,q,false,false,0.0-2.0-0.12-0.115-3.115,0,0,0,68,false,stim,true,2,593.1999999284744,2,1,2,27857,WMM1,333041,false,false,426,image-keyboard-response,34
true,3,0,1,0,true,q,false,true,0.0-2.0-0.12-0.116-3.116,0,0,0,81,false,stim,false,1,927.2000000476837,2,0,0,27857,WMM1,335498,false,false,429,image-keyboard-response,35
true,3,0,1,2,false,d,true,false,0.0-2.0-0.13-0.117-3.117,0,0,0,81,false,stim,false,1,633.1000000238419,2,0,1,27857,WMM1,337649,false,false,432,image-keyboard-response,36
true,3,2,1,0,false,q,false,false,0.0-2.0-0.13-0.118-3.118,0,0,0,68,false,stim,true,2,946.8000000715256,2,1,2,27857,WMM1,340123,false,false,435,image-keyboard-response,37
true,4,0,3,2,false,d,false,false,0.0-2.0-0.13-0.119-3.119,0,0,1,81,true,stim,true,0,699.6000000238419,2,0,0,27857,WMM1,342334,false,false,438,image-keyboard-response,1
true,4,1,3,1,true,z,false,true,0.0-2.0-0.13-0.120-3.120,0,0,1,90,false,stim,false,2,688.5,2,0,1,27857,WMM1,344549,false,false,441,image-keyboard-response,2
true,4,2,3,2,true,d,false,true,0.0-2.0-0.13-0.121-3.121,0,0,1,68,false,stim,false,0,876.8000000715256,2,0,0,27857,WMM1,346944,false,false,444,image-keyboard-response,3
true,4,0,3,0,true,q,false,true,0.0-2.0-0.13-0.122-3.122,0,0,1,81,false,stim,false,0,528.7999999523163,2,1,2,27857,WMM1,349003,false,false,447,image-keyboard-response,4
true,4,0,3,0,true,q,false,false,0.0-2.0-0.13-0.123-3.123,0,0,1,81,false,stim,false,0,522.3999999761581,2,1,2,27857,WMM1,351053,false,true,450,image-keyboard-response,5
true,4,1,3,1,true,z,false,true,0.0-2.0-0.13-0.124-3.124,0,0,1,90,false,stim,false,2,807.4000000953674,2,0,1,27857,WMM1,353375,false,false,453,image-keyboard-response,6
true,4,2,3,2,true,d,false,true,0.0-2.0-0.13-0.125-3.125,0,0,1,68,false,stim,false,0,678.1000000238419,2,0,0,27857,WMM1,355580,false,false,456,image-keyboard-response,7
true,4,2,3,2,true,d,false,true,0.0-2.0-0.14-0.126-3.126,0,0,1,68,false,stim,false,0,657.6999999284744,2,0,0,27857,WMM1,357758,false,false,459,image-keyboard-response,8
true,4,0,3,0,true,q,false,true,0.0-2.0-0.14-0.127-3.127,0,0,1,81,false,stim,false,0,943.7000000476837,2,1,2,27857,WMM1,360235,false,false,462,image-keyboard-response,9
true,4,2,3,2,true,d,false,true,0.0-2.0-0.14-0.128-3.128,0,0,1,68,false,stim,false,0,621.1000000238419,2,0,0,27857,WMM1,362379,false,false,465,image-keyboard-response,10
true,4,1,3,1,true,z,false,true,0.0-2.0-0.14-0.129-3.129,0,0,1,90,false,stim,false,2,544.1999999284744,2,0,1,27857,WMM1,364458,false,false,468,image-keyboard-response,11
true,4,1,3,1,true,z,false,true,0.0-2.0-0.14-0.130-3.130,0,0,1,90,false,stim,false,2,736.5999999046326,2,0,1,27857,WMM1,366708,false,false,471,image-keyboard-response,12
true,4,1,3,1,true,z,false,true,0.0-2.0-0.14-0.131-3.131,0,0,1,90,false,stim,false,2,674.5,2,0,1,27857,WMM1,368905,false,false,474,image-keyboard-response,13
true,4,0,3,0,true,q,false,true,0.0-2.0-0.14-0.132-3.132,0,0,1,81,false,stim,false,0,1550.4000000953674,2,1,2,27857,WMM1,371983,false,false,477,image-keyboard-response,14
true,4,2,3,2,true,d,false,true,0.0-2.0-0.14-0.133-3.133,0,0,1,68,false,stim,false,0,497.3000000715256,2,0,0,27857,WMM1,373990,false,false,480,image-keyboard-response,15
true,4,0,3,0,true,q,false,true,0.0-2.0-0.14-0.134-3.134,0,0,1,81,false,stim,false,0,593.5,2,1,2,27857,WMM1,376113,false,false,483,image-keyboard-response,16
true,4,2,3,2,true,d,false,true,0.0-2.0-0.15-0.135-3.135,0,0,1,68,false,stim,false,0,676.0,2,0,0,27857,WMM1,378308,false,false,486,image-keyboard-response,17
true,4,1,3,1,true,z,false,true,0.0-2.0-0.15-0.136-3.136,0,0,1,90,false,stim,false,2,764.1000000238419,2,0,1,27857,WMM1,380594,false,false,489,image-keyboard-response,18
true,4,0,3,2,false,d,false,false,0.0-2.0-0.15-0.137-3.137,0,0,1,81,false,stim,true,0,1011.5,2,0,0,27857,WMM1,383129,false,false,492,image-keyboard-response,19
true,4,0,3,0,true,q,false,true,0.0-2.0-0.15-0.138-3.138,0,0,1,81,false,stim,false,0,434.0,2,1,2,27857,WMM1,385086,false,false,495,image-keyboard-response,20
true,4,0,3,0,true,q,false,true,0.0-2.0-0.15-0.139-3.139,0,0,1,81,false,stim,false,0,639.5,2,1,2,27857,WMM1,387251,false,false,498,image-keyboard-response,21
true,4,1,3,1,true,z,false,true,0.0-2.0-0.15-0.140-3.140,0,0,1,90,false,stim,false,2,835.6999999284744,2,0,1,27857,WMM1,389612,false,false,501,image-keyboard-response,22
true,4,1,3,1,true,z,false,true,0.0-2.0-0.15-0.141-3.141,0,0,1,90,false,stim,false,2,767.3999999761581,2,0,1,27857,WMM1,391907,false,false,504,image-keyboard-response,23
true,4,2,3,2,true,d,false,true,0.0-2.0-0.15-0.142-3.142,0,0,1,68,false,stim,false,0,429.89999997615814,2,0,0,27857,WMM1,393874,false,false,507,image-keyboard-response,24
true,4,0,3,0,true,q,false,true,0.0-2.0-0.15-0.143-3.143,0,0,1,81,false,stim,false,0,1358.8999999761581,2,1,2,27857,WMM1,396763,false,false,510,image-keyboard-response,25
true,4,0,3,0,true,q,false,true,0.0-2.0-0.16-0.144-3.144,0,0,1,81,false,stim,false,0,833.4000000953674,2,1,2,27857,WMM1,399122,false,false,513,image-keyboard-response,26
true,4,2,3,2,true,d,false,true,0.0-2.0-0.16-0.145-3.145,0,0,1,68,false,stim,false,0,1235.7999999523163,2,0,0,27857,WMM1,401868,false,false,516,image-keyboard-response,27
true,4,1,3,1,true,z,false,true,0.0-2.0-0.16-0.146-3.146,0,0,1,90,false,stim,false,2,985.1000000238419,2,0,1,27857,WMM1,404391,false,false,519,image-keyboard-response,28
true,4,0,3,0,true,q,false,true,0.0-2.0-0.16-0.147-3.147,0,0,1,81,false,stim,false,0,1584.6000000238419,2,0,2,27857,WMM1,407509,false,false,522,image-keyboard-response,29
true,4,1,3,1,true,z,false,true,0.0-2.0-0.16-0.148-3.148,0,0,1,90,false,stim,false,2,814.5,2,0,1,27857,WMM1,409862,false,false,525,image-keyboard-response,30
true,4,1,3,1,true,z,false,true,0.0-2.0-0.16-0.149-3.149,0,0,1,90,false,stim,false,2,488.39999997615814,2,0,1,27857,WMM1,411886,false,false,528,image-keyboard-response,31
true,4,2,3,2,true,d,false,true,0.0-2.0-0.16-0.150-3.150,0,0,1,68,false,stim,false,0,538.3000000715256,2,0,0,27857,WMM1,413957,false,false,531,image-keyboard-response,32
true,4,2,3,2,true,d,false,true,0.0-2.0-0.16-0.151-3.151,0,0,1,68,false,stim,false,0,690.1999999284744,2,0,0,27857,WMM1,416185,false,false,534,image-keyboard-response,33
true,4,0,3,0,true,q,false,true,0.0-2.0-0.16-0.152-3.152,0,0,1,81,false,stim,false,0,2007.3999999761581,2,0,2,27857,WMM1,419712,false,false,537,image-keyboard-response,34
true,4,0,3,0,true,q,false,true,0.0-2.0-0.17-0.153-3.153,0,0,1,81,false,stim,false,0,1044.2999999523163,2,0,2,27857,WMM1,422278,false,false,540,image-keyboard-response,35
true,4,1,3,1,true,z,false,true,0.0-2.0-0.17-0.154-3.154,0,0,1,90,false,stim,false,2,1189.3999999761581,2,0,1,27857,WMM1,424977,false,false,543,image-keyboard-response,36
true,4,1,3,1,true,z,false,true,0.0-2.0-0.17-0.155-3.155,0,0,1,90,false,stim,false,2,899.6999999284744,2,0,1,27857,WMM1,427409,false,false,546,image-keyboard-response,37
true,5,0,1,2,false,d,false,false,0.0-2.0-0.17-0.156-3.156,0,0,0,81,true,stim,true,0,1147.6000000238419,2,0,2,27857,WMM1,430080,false,false,549,image-keyboard-response,1
true,5,0,1,2,false,d,false,false,0.0-2.0-0.17-0.157-3.157,0,0,0,81,false,stim,true,0,1030.3999999761581,2,0,2,27857,WMM1,432648,false,false,552,image-keyboard-response,2
true,5,1,1,2,false,d,false,false,0.0-2.0-0.17-0.158-3.158,0,0,0,90,false,stim,true,1,911.5,2,0,1,27857,WMM1,435095,false,false,555,image-keyboard-response,3
true,5,1,1,0,false,q,true,false,0.0-2.0-0.17-0.159-3.159,0,0,0,90,false,stim,false,2,871.1999999284744,2,0,0,27857,WMM1,437484,false,false,558,image-keyboard-response,4
true,5,2,1,0,false,q,false,false,0.0-2.0-0.17-0.160-3.160,0,0,0,68,false,stim,true,2,547.3000000715256,2,0,0,27857,WMM1,439558,false,false,561,image-keyboard-response,5
true,5,0,1,0,true,q,false,true,0.0-2.0-0.17-0.161-3.161,0,0,0,81,false,stim,false,2,475.89999997615814,2,0,0,27857,WMM1,441561,false,false,564,image-keyboard-response,6
true,5,2,1,2,true,d,false,true,0.0-2.0-0.18-0.162-3.162,0,0,0,68,false,stim,false,0,2272.5,2,0,2,27857,WMM1,445352,false,false,567,image-keyboard-response,7
true,5,0,1,0,true,q,false,true,0.0-2.0-0.18-0.163-3.163,0,0,0,81,false,stim,false,2,736.2000000476837,2,0,0,27857,WMM1,447612,false,false,570,image-keyboard-response,8
true,5,0,1,0,true,q,false,true,0.0-2.0-0.18-0.164-3.164,0,0,0,81,false,stim,false,2,762.3000000715256,2,0,0,27857,WMM1,449886,false,false,573,image-keyboard-response,9
true,5,2,1,2,true,d,false,true,0.0-2.0-0.18-0.165-3.165,0,0,0,68,false,stim,false,0,742.8999999761581,2,0,2,27857,WMM1,452150,false,false,576,image-keyboard-response,10
true,5,2,1,2,true,d,false,false,0.0-2.0-0.18-0.166-3.166,0,0,0,68,false,stim,false,0,765.0,2,0,2,27857,WMM1,454453,false,true,579,image-keyboard-response,11
true,5,1,1,2,false,d,false,false,0.0-2.0-0.18-0.167-3.167,0,0,0,90,false,stim,true,1,769.0,2,0,1,27857,WMM1,456748,false,false,582,image-keyboard-response,12
true,5,0,1,2,false,d,true,true,0.0-2.0-0.18-0.168-3.168,0,0,0,81,false,stim,false,1,844.1999999284744,2,0,1,27857,WMM1,459125,false,true,585,image-keyboard-response,13
true,5,0,1,0,true,q,false,true,0.0-2.0-0.18-0.169-3.169,0,0,0,81,false,stim,false,2,604.4000000953674,2,0,0,27857,WMM1,461261,false,false,588,image-keyboard-response,14
true,5,0,1,2,false,d,true,false,0.0-2.0-0.18-0.170-3.170,0,0,0,81,false,stim,false,1,731.2000000476837,2,0,1,27857,WMM1,463512,false,false,591,image-keyboard-response,15
true,5,0,1,0,true,q,false,true,0.0-2.0-0.19-0.171-3.171,0,0,0,81,false,stim,false,2,637.5,2,0,0,27857,WMM1,465670,false,false,594,image-keyboard-response,16
true,5,2,1,2,true,d,false,true,0.0-2.0-0.19-0.172-3.172,0,0,0,68,false,stim,false,0,1041.3999999761581,2,0,2,27857,WMM1,468233,false,false,597,image-keyboard-response,17
true,5,0,1,2,false,d,true,false,0.0-2.0-0.19-0.173-3.173,0,0,0,81,false,stim,false,1,725.7999999523163,2,0,1,27857,WMM1,470494,false,false,600,image-keyboard-response,18
true,5,0,1,0,true,q,false,true,0.0-2.0-0.19-0.174-3.174,0,0,0,81,false,stim,false,2,757.1000000238419,2,0,0,27857,WMM1,472793,false,false,603,image-keyboard-response,19
true,5,0,1,0,true,q,false,false,0.0-2.0-0.19-0.175-3.175,0,0,0,81,false,stim,false,2,1213.0,2,0,0,27857,WMM1,475530,false,true,606,image-keyboard-response,20
true,5,2,1,2,true,d,false,false,0.0-2.0-0.19-0.176-3.176,0,0,0,68,false,stim,false,0,1149.8999999761581,2,0,2,27857,WMM1,478224,false,true,609,image-keyboard-response,21
true,5,2,1,2,true,d,false,true,0.0-2.0-0.19-0.177-3.177,0,0,0,68,false,stim,false,1,1741.2000000476837,2,0,1,27857,WMM1,481476,false,false,612,image-keyboard-response,22
true,5,2,1,2,true,d,false,true,0.0-2.0-0.19-0.178-3.178,0,0,0,68,false,stim,false,1,822.8000000715256,2,0,1,27857,WMM1,483837,false,false,615,image-keyboard-response,23
true,5,1,1,2,false,d,true,false,0.0-2.0-0.19-0.179-3.179,0,0,0,90,false,stim,false,0,1073.2000000476837,2,0,2,27857,WMM1,486429,false,false,618,image-keyboard-response,24
true,5,2,1,2,true,d,false,true,0.0-2.0-0.20-0.180-3.180,0,0,0,68,false,stim,false,1,1354.8999999761581,2,0,1,27857,WMM1,489315,false,false,621,image-keyboard-response,25
true,5,0,1,0,true,q,false,true,0.0-2.0-0.20-0.181-3.181,0,0,0,81,false,stim,false,2,949.4000000953674,2,0,0,27857,WMM1,491796,false,false,624,image-keyboard-response,26
true,5,2,1,2,true,d,false,true,0.0-2.0-0.20-0.182-3.182,0,0,0,68,false,stim,false,1,1067.8999999761581,2,0,1,27857,WMM1,494377,false,false,627,image-keyboard-response,27
true,5,0,1,0,true,q,false,true,0.0-2.0-0.20-0.183-3.183,0,0,0,81,false,stim,false,2,900.7999999523163,2,0,0,27857,WMM1,496795,false,false,630,image-keyboard-response,28
true,5,0,1,2,false,d,false,false,0.0-2.0-0.20-0.184-3.184,0,0,0,81,false,stim,true,0,1065.5,2,0,2,27857,WMM1,499384,false,false,633,image-keyboard-response,29
true,5,0,1,0,true,q,false,true,0.0-2.0-0.20-0.185-3.185,0,0,0,81,false,stim,false,2,956.6999999284744,2,0,0,27857,WMM1,501868,false,false,636,image-keyboard-response,30
true,5,2,1,2,true,d,false,true,0.0-2.0-0.20-0.186-3.186,0,0,0,68,false,stim,false,1,832.2999999523163,2,0,1,27857,WMM1,504223,false,false,639,image-keyboard-response,31
true,5,1,1,2,false,d,true,true,0.0-2.0-0.20-0.187-3.187,0,0,0,90,false,stim,false,0,612.8000000715256,2,0,2,27857,WMM1,506350,false,true,642,image-keyboard-response,32
true,5,1,1,2,false,d,true,false,0.0-2.0-0.20-0.188-3.188,0,0,0,90,false,stim,false,0,721.7999999523163,2,0,2,27857,WMM1,508586,false,false,645,image-keyboard-response,33
true,6,1,2,0,false,q,true,false,0.0-2.0-0.21-0.189-3.189,0,0,0,90,true,stim,false,2,597.6000000238419,2,0,2,27857,WMM1,510708,false,false,648,image-keyboard-response,1
true,6,0,2,2,false,d,false,false,0.0-2.0-0.21-0.190-3.190,0,0,0,81,false,stim,true,0,602.1000000238419,2,0,0,27857,WMM1,512825,false,false,651,image-keyboard-response,2
true,6,1,2,0,false,q,true,false,0.0-2.0-0.21-0.191-3.191,0,0,0,90,false,stim,false,2,676.8000000715256,2,0,2,27857,WMM1,515037,false,false,654,image-keyboard-response,3
true,6,0,2,2,false,d,false,false,0.0-2.0-0.21-0.192-3.192,0,0,0,81,false,stim,true,0,712.3999999761581,2,0,0,27857,WMM1,517269,false,false,657,image-keyboard-response,4
true,6,1,2,2,false,d,true,false,0.0-2.0-0.21-0.193-3.193,0,0,0,90,false,stim,false,0,572.3000000715256,2,0,0,27857,WMM1,519363,false,false,660,image-keyboard-response,5
true,6,2,2,0,false,q,false,false,0.0-2.0-0.21-0.194-3.194,0,0,0,68,false,stim,true,2,1084.6000000238419,2,0,2,27857,WMM1,521978,false,false,663,image-keyboard-response,6
true,6,2,2,1,false,z,false,false,0.0-2.0-0.21-0.195-3.195,0,0,0,68,false,stim,true,2,928.8999999761581,2,0,1,27857,WMM1,524431,false,false,666,image-keyboard-response,7
true,6,1,2,1,true,z,false,true,0.0-2.0-0.21-0.196-3.196,0,0,0,90,false,stim,false,2,533.7000000476837,2,0,1,27857,WMM1,526496,false,false,669,image-keyboard-response,8
true,6,1,2,1,true,z,false,true,0.0-2.0-0.21-0.197-3.197,0,0,0,90,false,stim,false,2,607.5,2,0,1,27857,WMM1,528630,false,false,672,image-keyboard-response,9
true,6,0,2,0,true,q,false,true,0.0-2.0-0.22-0.198-3.198,0,0,0,81,false,stim,false,2,953.0999999046326,2,0,2,27857,WMM1,531099,false,false,675,image-keyboard-response,10
true,6,2,2,2,true,d,false,true,0.0-2.0-0.22-0.199-3.199,0,0,0,68,false,stim,false,0,525.6999999284744,2,0,0,27857,WMM1,533155,false,false,678,image-keyboard-response,11
true,6,0,2,0,true,q,false,true,0.0-2.0-0.22-0.200-3.200,0,0,0,81,false,stim,false,2,1464.3000000715256,2,0,2,27857,WMM1,536143,false,false,681,image-keyboard-response,12
true,6,1,2,1,true,z,false,false,0.0-2.0-0.22-0.201-3.201,0,0,0,90,false,stim,false,2,1124.8000000715256,2,0,1,27857,WMM1,538807,false,true,684,image-keyboard-response,13
true,6,1,2,1,true,z,false,true,0.0-2.0-0.22-0.202-3.202,0,0,0,90,false,stim,false,2,489.39999997615814,2,0,1,27857,WMM1,540818,false,false,687,image-keyboard-response,14
true,6,0,2,2,false,d,false,false,0.0-2.0-0.22-0.203-3.203,0,0,0,81,false,stim,true,0,710.1000000238419,2,0,0,27857,WMM1,543059,false,false,690,image-keyboard-response,15
true,6,0,2,0,true,q,false,true,0.0-2.0-0.22-0.204-3.204,0,0,0,81,false,stim,false,2,1401.7000000476837,2,0,2,27857,WMM1,545977,false,false,693,image-keyboard-response,16
true,6,1,2,1,true,z,false,true,0.0-2.0-0.22-0.205-3.205,0,0,0,90,false,stim,false,2,1075.5,2,0,1,27857,WMM1,548583,false,false,696,image-keyboard-response,17
true,6,2,2,2,true,d,false,true,0.0-2.0-0.22-0.206-3.206,0,0,0,68,false,stim,false,0,747.3999999761581,2,0,0,27857,WMM1,550854,false,false,699,image-keyboard-response,18
true,6,0,2,0,true,q,false,false,0.0-2.0-0.23-0.207-3.207,0,0,0,81,false,stim,false,2,905.8999999761581,2,0,2,27857,WMM1,553275,false,true,702,image-keyboard-response,19
true,6,0,2,2,false,d,false,false,0.0-2.0-0.23-0.208-3.208,0,0,0,81,false,stim,true,0,1679.7999999523163,2,0,0,27857,WMM1,556473,false,false,705,image-keyboard-response,20
true,6,1,2,1,true,z,false,true,0.0-2.0-0.23-0.209-3.209,0,0,0,90,false,stim,false,2,1288.6000000238419,2,0,1,27857,WMM1,559289,false,false,708,image-keyboard-response,21
true,6,2,2,2,true,d,false,true,0.0-2.0-0.23-0.210-3.210,0,0,0,68,false,stim,false,0,798.2999999523163,2,0,0,27857,WMM1,561612,false,false,711,image-keyboard-response,22
true,6,0,2,0,true,q,false,true,0.0-2.0-0.23-0.211-3.211,0,0,0,81,false,stim,false,2,1202.0,2,0,2,27857,WMM1,564329,false,false,714,image-keyboard-response,23
true,6,2,2,2,true,d,false,false,0.0-2.0-0.23-0.212-3.212,0,0,0,68,false,stim,false,0,603.3999999761581,2,0,0,27857,WMM1,566458,false,true,717,image-keyboard-response,24
true,6,0,2,0,true,q,false,true,0.0-2.0-0.23-0.213-3.213,0,0,0,81,false,stim,false,2,661.1000000238419,2,0,2,27857,WMM1,568638,false,false,720,image-keyboard-response,25
true,6,1,2,1,true,z,false,true,0.0-2.0-0.23-0.214-3.214,0,0,0,90,false,stim,false,2,686.5,2,0,1,27857,WMM1,570848,false,false,723,image-keyboard-response,26
true,6,1,2,1,true,z,false,false,0.0-2.0-0.23-0.215-3.215,0,0,0,90,false,stim,false,2,658.8999999761581,2,0,1,27857,WMM1,573018,false,true,726,image-keyboard-response,27
true,6,0,2,0,true,q,false,true,0.0-2.0-0.24-0.216-3.216,0,0,0,81,false,stim,false,2,1172.4000000953674,2,0,2,27857,WMM1,575721,false,false,729,image-keyboard-response,28
true,6,2,2,2,true,d,false,true,0.0-2.0-0.24-0.217-3.217,0,0,0,68,false,stim,false,0,986.5,2,0,0,27857,WMM1,578254,false,false,732,image-keyboard-response,29
true,6,1,2,0,false,q,true,false,0.0-2.0-0.24-0.218-3.218,0,0,0,90,false,stim,false,2,826.2999999523163,2,0,2,27857,WMM1,580608,false,false,735,image-keyboard-response,30
true,6,1,2,1,true,z,false,true,0.0-2.0-0.24-0.219-3.219,0,0,0,90,false,stim,false,2,2189.899999976158,2,0,1,27857,WMM1,584321,false,false,738,image-keyboard-response,31
true,6,2,2,2,true,d,false,true,0.0-2.0-0.24-0.220-3.220,0,0,0,68,false,stim,false,0,790.5,2,0,0,27857,WMM1,586637,false,false,741,image-keyboard-response,32
true,6,0,2,1,false,z,true,false,0.0-2.0-0.24-0.221-3.221,0,0,0,81,false,stim,false,2,1191.5,2,0,1,27857,WMM1,589348,false,false,744,image-keyboard-response,33
true,6,0,2,0,true,q,false,true,0.0-2.0-0.24-0.222-3.222,0,0,0,81,false,stim,false,2,665.1999999284744,2,0,2,27857,WMM1,591545,false,false,747,image-keyboard-response,34
true,7,2,4,1,false,z,false,false,0.0-2.0-0.24-0.223-3.223,0,0,0,68,true,stim,true,2,1560.6000000238419,2,0,0,27857,WMM1,594617,false,false,750,image-keyboard-response,1
true,7,1,4,0,false,q,false,false,0.0-2.0-0.24-0.224-3.224,0,0,0,90,false,stim,true,1,1807.0,2,0,1,27857,WMM1,597954,false,false,753,image-keyboard-response,2
true,7,0,4,1,false,z,false,false,0.0-2.0-0.25-0.225-3.225,0,0,0,81,false,stim,true,0,593.6999999284744,2,0,2,27857,WMM1,600075,false,false,756,image-keyboard-response,3
true,7,1,4,0,false,q,false,false,0.0-2.0-0.25-0.226-3.226,0,0,0,90,false,stim,true,1,761.1999999284744,2,0,1,27857,WMM1,602357,false,false,759,image-keyboard-response,4
true,7,0,4,1,false,z,true,false,0.0-2.0-0.25-0.227-3.227,0,0,0,81,false,stim,false,2,1490.6000000238419,2,0,0,27857,WMM1,605373,false,false,762,image-keyboard-response,5
true,7,0,4,0,true,q,false,true,0.0-2.0-0.25-0.228-3.228,0,0,0,81,false,stim,false,1,1782.3999999761581,2,0,1,27857,WMM1,608685,false,false,765,image-keyboard-response,6
true,7,0,4,1,false,z,false,false,0.0-2.0-0.25-0.229-3.229,0,0,0,81,false,stim,true,0,1121.2999999523163,2,0,2,27857,WMM1,611319,false,false,768,image-keyboard-response,7
true,7,1,4,1,true,z,false,true,0.0-2.0-0.25-0.230-3.230,0,0,0,90,false,stim,false,0,855.6999999284744,2,0,2,27857,WMM1,613719,false,false,771,image-keyboard-response,8
true,7,1,4,1,true,z,false,false,0.0-2.0-0.25-0.231-3.231,0,0,0,90,false,stim,false,2,1053.6999999284744,2,0,0,27857,WMM1,616298,false,true,774,image-keyboard-response,9
true,7,0,4,1,false,z,true,false,0.0-2.0-0.25-0.232-3.232,0,0,0,81,false,stim,false,2,869.6000000238419,2,0,0,27857,WMM1,618704,false,false,777,image-keyboard-response,10
true,7,0,4,0,true,q,false,true,0.0-2.0-0.25-0.233-3.233,0,0,0,81,false,stim,false,1,626.1000000238419,2,0,1,27857,WMM1,620862,false,false,780,image-keyboard-response,11
true,7,2,4,1,false,z,false,false,0.0-2.0-0.26-0.234-3.234,0,0,0,68,false,stim,true,2,681.9000000953674,2,0,0,27857,WMM1,623072,false,false,783,image-keyboard-response,12
true,7,0,4,0,true,q,false,true,0.0-2.0-0.26-0.235-3.235,0,0,0,81,false,stim,false,1,1055.0,2,0,1,27857,WMM1,625644,false,false,786,image-keyboard-response,13
true,7,1,4,1,true,z,false,true,0.0-2.0-0.26-0.236-3.236,0,0,0,90,false,stim,false,0,547.7000000476837,2,0,2,27857,WMM1,627708,false,false,789,image-keyboard-response,14
true,7,0,4,0,true,q,false,true,0.0-2.0-0.26-0.237-3.237,0,0,0,81,false,stim,false,1,750.0,2,0,1,27857,WMM1,629980,false,false,792,image-keyboard-response,15
true,7,1,4,1,true,z,false,true,0.0-2.0-0.26-0.238-3.238,0,0,0,90,false,stim,false,0,863.3000000715256,2,0,2,27857,WMM1,632355,false,false,795,image-keyboard-response,16
true,7,1,4,1,true,z,false,true,0.0-2.0-0.26-0.239-3.239,0,0,0,90,false,stim,false,0,816.2000000476837,2,0,2,27857,WMM1,634688,false,false,798,image-keyboard-response,17
true,7,1,4,1,true,z,false,false,0.0-2.0-0.26-0.240-3.240,0,0,0,90,false,stim,false,2,915.0,2,0,0,27857,WMM1,637123,false,true,801,image-keyboard-response,18
true,7,2,4,1,false,z,false,false,0.0-2.0-0.26-0.241-3.241,0,0,0,68,false,stim,true,2,572.6000000238419,2,0,0,27857,WMM1,639207,false,false,804,image-keyboard-response,19
true,7,1,4,0,false,q,false,false,0.0-2.0-0.26-0.242-3.242,0,0,0,90,false,stim,true,1,969.6000000238419,2,0,1,27857,WMM1,641690,false,false,807,image-keyboard-response,20
true,7,1,4,0,false,q,false,false,0.0-2.0-0.27-0.243-3.243,0,0,0,90,false,stim,true,1,1077.3000000715256,2,0,1,27857,WMM1,644305,false,false,810,image-keyboard-response,21
true,7,1,4,1,true,z,false,true,0.0-2.0-0.27-0.244-3.244,0,0,0,90,false,stim,false,2,790.6000000238419,2,0,0,27857,WMM1,646612,false,false,813,image-keyboard-response,22
true,7,2,4,0,false,q,true,false,0.0-2.0-0.27-0.245-3.245,0,0,0,68,false,stim,false,1,763.1999999284744,2,0,1,27857,WMM1,648893,false,false,816,image-keyboard-response,23
true,7,1,4,1,true,z,false,true,0.0-2.0-0.27-0.246-3.246,0,0,0,90,false,stim,false,2,471.60000002384186,2,0,0,27857,WMM1,650887,false,false,819,image-keyboard-response,24
true,7,0,4,1,false,z,false,false,0.0-2.0-0.27-0.247-3.247,0,0,0,81,false,stim,true,0,584.7000000476837,2,0,2,27857,WMM1,652985,false,false,822,image-keyboard-response,25
true,7,1,4,1,true,z,false,true,0.0-2.0-0.27-0.248-3.248,0,0,0,90,false,stim,false,2,651.6999999284744,2,0,0,27857,WMM1,655171,false,false,825,image-keyboard-response,26
true,7,0,4,0,true,q,false,true,0.0-2.0-0.27-0.249-3.249,0,0,0,81,false,stim,false,1,618.3999999761581,2,0,1,27857,WMM1,657312,false,false,828,image-keyboard-response,27
true,7,2,4,1,false,z,true,false,0.0-2.0-0.27-0.250-3.250,0,0,0,68,false,stim,false,0,504.8000000715256,2,0,2,27857,WMM1,659328,false,false,831,image-keyboard-response,28
true,7,1,4,1,true,z,false,true,0.0-2.0-0.27-0.251-3.251,0,0,0,90,false,stim,false,0,662.8000000715256,2,0,2,27857,WMM1,661519,false,false,834,image-keyboard-response,29
true,7,1,4,1,true,z,false,true,0.0-2.0-0.28-0.252-3.252,0,0,0,90,false,stim,false,0,384.40000009536743,2,0,2,27857,WMM1,663433,false,false,837,image-keyboard-response,30
true,7,0,4,0,true,q,false,true,0.0-2.0-0.28-0.253-3.253,0,0,0,81,false,stim,false,1,599.4000000953674,2,0,1,27857,WMM1,665556,false,false,840,image-keyboard-response,31
true,7,1,4,1,true,z,false,true,0.0-2.0-0.28-0.254-3.254,0,0,0,90,false,stim,false,2,536.3999999761581,2,1,0,27857,WMM1,667623,false,false,843,image-keyboard-response,32
true,7,0,4,1,false,z,false,true,0.0-2.0-0.28-0.255-3.255,0,0,0,81,false,stim,true,0,1386.6000000238419,2,0,2,27857,WMM1,670547,false,true,846,image-keyboard-response,33
true,7,1,4,0,false,q,false,false,0.0-2.0-0.28-0.256-3.256,0,0,0,90,false,stim,true,1,719.6000000238419,2,0,1,27857,WMM1,672799,false,false,849,image-keyboard-response,34
true,7,1,4,1,true,z,false,true,0.0-2.0-0.28-0.257-3.257,0,0,0,90,false,stim,false,2,733.3999999761581,2,1,0,27857,WMM1,675059,false,false,852,image-keyboard-response,35
true,7,0,4,0,true,q,false,true,0.0-2.0-0.28-0.258-3.258,0,0,0,81,false,stim,false,1,823.8000000715256,2,0,1,27857,WMM1,677398,false,false,855,image-keyboard-response,36
true,7,1,4,1,true,z,false,true,0.0-2.0-0.28-0.259-3.259,0,0,0,90,false,stim,false,0,422.10000002384186,2,0,2,27857,WMM1,679361,false,false,858,image-keyboard-response,37
true,7,1,4,1,true,z,false,true,0.0-2.0-0.28-0.260-3.260,0,0,0,90,false,stim,false,2,695.3000000715256,2,1,0,27857,WMM1,681569,false,false,861,image-keyboard-response,38
true,7,1,4,1,true,z,false,true,0.0-2.0-0.29-0.261-3.261,0,0,0,90,false,stim,false,2,891.0,2,1,0,27857,WMM1,683983,false,false,864,image-keyboard-response,39
true,7,1,4,1,true,z,false,true,0.0-2.0-0.29-0.262-3.262,0,0,0,90,false,stim,false,2,997.8999999761581,2,1,0,27857,WMM1,686514,false,false,867,image-keyboard-response,40
true,7,0,4,1,false,z,false,true,0.0-2.0-0.29-0.263-3.263,0,0,0,81,false,stim,true,0,1771.3999999761581,2,0,2,27857,WMM1,689807,false,true,870,image-keyboard-response,41
true,8,1,3,2,false,d,false,false,0.0-2.0-0.29-0.264-3.264,1,0,0,90,true,stim,true,1,738.3999999761581,2,0,2,27857,WMM1,692056,false,false,873,image-keyboard-response,1
true,8,0,3,2,false,d,false,true,0.0-2.0-0.29-0.265-3.265,1,0,0,81,false,stim,true,0,1050.7000000476837,2,0,1,27857,WMM1,694646,false,true,876,image-keyboard-response,2
true,8,0,3,2,false,d,false,false,0.0-2.0-0.29-0.266-3.266,1,0,0,81,false,stim,true,0,947.5,2,0,1,27857,WMM1,697106,false,false,879,image-keyboard-response,3
true,8,0,3,2,false,d,true,false,0.0-2.0-0.29-0.267-3.267,1,0,0,81,false,stim,false,1,856.7000000476837,2,0,2,27857,WMM1,699502,false,false,882,image-keyboard-response,4
true,8,1,3,1,true,z,false,true,0.0-2.0-0.29-0.268-3.268,1,0,0,90,false,stim,false,1,683.3999999761581,2,1,0,27857,WMM1,701705,false,false,885,image-keyboard-response,5
true,8,0,3,2,false,d,false,false,0.0-2.0-0.29-0.269-3.269,1,0,0,81,false,stim,true,0,1018.3999999761581,2,0,1,27857,WMM1,704236,false,false,888,image-keyboard-response,6
true,8,1,3,2,false,d,true,false,0.0-2.0-0.30-0.270-3.270,1,0,0,90,false,stim,false,0,659.6000000238419,2,0,1,27857,WMM1,706427,false,false,891,image-keyboard-response,7
true,8,1,3,2,false,d,false,true,0.0-2.0-0.30-0.271-3.271,1,0,0,90,false,stim,true,1,519.5999999046326,2,0,2,27857,WMM1,708479,false,true,894,image-keyboard-response,8
true,8,1,3,2,false,d,false,false,0.0-2.0-0.30-0.272-3.272,1,0,0,90,false,stim,true,1,815.5,2,0,2,27857,WMM1,710825,false,false,897,image-keyboard-response,9
true,8,1,3,2,false,d,true,false,0.0-2.0-0.30-0.273-3.273,1,0,0,90,false,stim,false,0,832.7000000476837,2,0,1,27857,WMM1,713167,false,false,900,image-keyboard-response,10
true,8,1,3,1,true,z,false,false,0.0-2.0-0.30-0.274-3.274,1,0,0,90,false,stim,false,1,726.2000000476837,2,1,0,27857,WMM1,715438,false,true,903,image-keyboard-response,11
true,8,2,3,1,false,z,true,false,0.0-2.0-0.30-0.275-3.275,1,0,0,68,false,stim,false,1,679.4000000953674,2,1,0,27857,WMM1,717648,false,false,906,image-keyboard-response,12
true,8,2,3,2,true,d,false,true,0.0-2.0-0.30-0.276-3.276,1,0,0,68,false,stim,false,1,487.0,2,0,2,27857,WMM1,719674,false,false,909,image-keyboard-response,13
true,8,1,3,2,false,d,true,false,0.0-2.0-0.30-0.277-3.277,1,0,0,90,false,stim,false,0,1112.7999999523163,2,0,1,27857,WMM1,722318,false,false,912,image-keyboard-response,14
true,8,1,3,1,true,z,false,true,0.0-2.0-0.30-0.278-3.278,1,0,0,90,false,stim,false,1,1655.8999999761581,2,1,0,27857,WMM1,725499,false,false,915,image-keyboard-response,15
true,8,2,3,2,true,d,false,true,0.0-2.0-0.31-0.279-3.279,1,0,0,68,false,stim,false,1,684.6999999284744,2,0,2,27857,WMM1,727703,false,false,918,image-keyboard-response,16
true,8,1,3,1,true,z,false,true,0.0-2.0-0.31-0.280-3.280,1,0,0,90,false,stim,false,1,601.5,2,1,0,27857,WMM1,729816,false,false,921,image-keyboard-response,17
true,8,0,3,2,false,d,false,false,0.0-2.0-0.31-0.281-3.281,1,0,0,81,false,stim,true,0,542.1000000238419,2,0,1,27857,WMM1,731868,false,false,924,image-keyboard-response,18
true,8,2,3,2,true,d,false,true,0.0-2.0-0.31-0.282-3.282,1,0,0,68,false,stim,false,1,1044.3999999761581,2,0,2,27857,WMM1,734432,false,false,927,image-keyboard-response,19
true,8,1,3,2,false,d,true,false,0.0-2.0-0.31-0.283-3.283,1,0,0,90,false,stim,false,0,1209.6000000238419,2,0,1,27857,WMM1,737167,false,false,930,image-keyboard-response,20
true,8,1,3,1,true,z,false,true,0.0-2.0-0.31-0.284-3.284,1,0,0,90,false,stim,false,1,580.2999999523163,2,1,0,27857,WMM1,739284,false,false,933,image-keyboard-response,21
true,8,1,3,2,false,d,true,false,0.0-2.0-0.31-0.285-3.285,1,0,0,90,false,stim,false,0,538.9000000953674,2,0,1,27857,WMM1,741349,false,false,936,image-keyboard-response,22
true,8,2,3,2,true,d,false,true,0.0-2.0-0.31-0.286-3.286,1,0,0,68,false,stim,false,1,931.2999999523163,2,0,2,27857,WMM1,743820,false,false,939,image-keyboard-response,23
true,8,1,3,1,true,z,false,true,0.0-2.0-0.31-0.287-3.287,1,0,0,90,false,stim,false,1,674.7000000476837,2,1,0,27857,WMM1,746010,false,false,942,image-keyboard-response,24
true,8,2,3,2,true,d,false,true,0.0-2.0-0.32-0.288-3.288,1,0,0,68,false,stim,false,1,494.5,2,0,2,27857,WMM1,748029,false,false,945,image-keyboard-response,25
true,8,1,3,1,true,z,false,true,0.0-2.0-0.32-0.289-3.289,1,0,0,90,false,stim,false,1,617.1000000238419,2,1,0,27857,WMM1,750159,false,false,948,image-keyboard-response,26
true,8,0,3,2,false,d,false,true,0.0-2.0-0.32-0.290-3.290,1,0,0,81,false,stim,true,0,499.7999999523163,2,0,1,27857,WMM1,752172,false,true,951,image-keyboard-response,27
true,8,2,3,2,true,d,false,true,0.0-2.0-0.32-0.291-3.291,1,0,0,68,false,stim,false,1,729.9000000953674,2,0,2,27857,WMM1,754430,false,false,954,image-keyboard-response,28
true,8,1,3,1,true,z,false,true,0.0-2.0-0.32-0.292-3.292,1,0,0,90,false,stim,false,1,682.6999999284744,2,1,0,27857,WMM1,756649,false,false,957,image-keyboard-response,29
true,8,0,3,2,false,d,false,false,0.0-2.0-0.32-0.293-3.293,1,0,0,81,false,stim,true,0,554.3999999761581,2,0,1,27857,WMM1,758743,false,false,960,image-keyboard-response,30
true,8,1,3,1,true,z,false,true,0.0-2.0-0.32-0.294-3.294,1,0,0,90,false,stim,false,1,516.8000000715256,2,1,0,27857,WMM1,760785,false,false,963,image-keyboard-response,31
true,8,2,3,2,true,d,false,true,0.0-2.0-0.32-0.295-3.295,1,0,0,68,false,stim,false,1,653.6999999284744,2,0,2,27857,WMM1,762959,false,false,966,image-keyboard-response,32
true,8,0,3,2,false,d,false,false,0.0-2.0-0.32-0.296-3.296,1,0,0,81,false,stim,true,0,858.1000000238419,2,0,1,27857,WMM1,765335,false,false,969,image-keyboard-response,33
true,8,1,3,1,true,z,false,true,0.0-2.0-0.33-0.297-3.297,1,0,0,90,false,stim,false,1,560.1000000238419,2,1,0,27857,WMM1,767431,false,false,972,image-keyboard-response,34
true,8,1,3,1,true,z,false,true,0.0-2.0-0.33-0.298-3.298,1,0,0,90,false,stim,false,1,710.2000000476837,2,1,0,27857,WMM1,769685,false,false,975,image-keyboard-response,35
true,8,2,3,2,true,d,false,true,0.0-2.0-0.33-0.299-3.299,1,0,0,68,false,stim,false,1,669.8999999761581,2,0,2,27857,WMM1,771875,false,false,978,image-keyboard-response,36
true,8,1,3,1,true,z,false,true,0.0-2.0-0.33-0.300-3.300,1,0,0,90,false,stim,false,1,548.6000000238419,2,1,0,27857,WMM1,773950,false,false,981,image-keyboard-response,37
true,8,2,3,2,true,d,false,true,0.0-2.0-0.33-0.301-3.301,1,0,0,68,false,stim,false,1,743.7000000476837,2,0,2,27857,WMM1,776218,false,false,984,image-keyboard-response,38
true,8,2,3,2,true,d,false,true,0.0-2.0-0.33-0.302-3.302,1,0,0,68,false,stim,false,0,644.6999999284744,2,0,1,27857,WMM1,778383,false,false,987,image-keyboard-response,39
true,8,2,3,2,true,d,false,true,0.0-2.0-0.33-0.303-3.303,1,0,0,68,false,stim,false,0,725.8999999761581,2,0,1,27857,WMM1,780642,false,false,990,image-keyboard-response,40
true,8,2,3,2,true,d,false,true,0.0-2.0-0.33-0.304-3.304,1,0,0,68,false,stim,false,0,755.6999999284744,2,0,1,27857,WMM1,782917,false,false,993,image-keyboard-response,41
true,8,2,3,2,true,d,false,true,0.0-2.0-0.33-0.305-3.305,1,0,0,68,false,stim,false,1,920.3000000715256,2,0,2,27857,WMM1,785376,false,false,996,image-keyboard-response,42
true,8,1,3,1,true,z,false,true,0.0-2.0-0.34-0.306-3.306,1,0,0,90,false,stim,false,1,568.5,2,0,0,27857,WMM1,787465,false,false,999,image-keyboard-response,43
true,8,2,3,2,true,d,false,false,0.0-2.0-0.34-0.307-3.307,1,0,0,68,false,stim,false,1,1088.8000000715256,2,0,2,27857,WMM1,790094,false,true,1002,image-keyboard-response,44
true,8,2,3,2,true,d,false,true,0.0-2.0-0.34-0.308-3.308,1,0,0,68,false,stim,false,1,506.10000002384186,2,0,2,27857,WMM1,792136,false,false,1005,image-keyboard-response,45
true,8,2,3,2,true,d,false,true,0.0-2.0-0.34-0.309-3.309,1,0,0,68,false,stim,false,0,541.6000000238419,2,0,1,27857,WMM1,794205,false,false,1008,image-keyboard-response,46
true,8,2,3,2,true,d,false,true,0.0-2.0-0.34-0.310-3.310,1,0,0,68,false,stim,false,0,1182.7000000476837,2,0,1,27857,WMM1,796920,false,false,1011,image-keyboard-response,47
true,8,1,3,1,true,z,false,true,0.0-2.0-0.34-0.311-3.311,1,0,0,90,false,stim,false,1,806.0,2,0,0,27857,WMM1,799263,false,false,1014,image-keyboard-response,48
true,8,2,3,2,true,d,false,true,0.0-2.0-0.34-0.312-3.312,1,0,0,68,false,stim,false,0,954.5,2,0,1,27857,WMM1,801742,false,false,1017,image-keyboard-response,49
true,8,2,3,2,true,d,false,true,0.0-2.0-0.34-0.313-3.313,1,0,0,68,false,stim,false,1,680.3999999761581,2,0,2,27857,WMM1,803952,false,false,1020,image-keyboard-response,50
true,9,1,2,2,false,d,false,false,0.0-2.0-0.34-0.314-3.314,0,0,0,90,true,stim,true,1,1279.5,2,0,0,27857,WMM1,806754,false,false,1023,image-keyboard-response,1
true,9,1,2,2,false,d,false,false,0.0-2.0-0.35-0.315-3.315,0,0,0,90,false,stim,true,1,456.0,2,0,0,27857,WMM1,808753,false,false,1026,image-keyboard-response,2
true,9,2,2,0,false,q,false,false,0.0-2.0-0.35-0.316-3.316,0,0,0,68,false,stim,true,2,740.0999999046326,2,0,2,27857,WMM1,811006,false,false,1029,image-keyboard-response,3
true,9,0,2,1,false,z,true,false,0.0-2.0-0.35-0.317-3.317,0,0,0,81,false,stim,false,2,1609.2999999523163,2,0,1,27857,WMM1,814146,false,false,1032,image-keyboard-response,4
true,9,1,2,1,true,z,false,true,0.0-2.0-0.35-0.318-3.318,0,0,0,90,false,stim,false,2,666.1000000238419,2,0,1,27857,WMM1,816336,false,false,1035,image-keyboard-response,5
true,9,2,2,2,true,d,false,true,0.0-2.0-0.35-0.319-3.319,0,0,0,68,false,stim,false,1,743.7000000476837,2,0,0,27857,WMM1,818614,false,false,1038,image-keyboard-response,6
true,9,2,2,2,true,d,false,false,0.0-2.0-0.35-0.320-3.320,0,0,0,68,false,stim,false,1,913.8000000715256,2,0,0,27857,WMM1,821039,false,true,1041,image-keyboard-response,7
true,9,1,2,1,true,z,false,true,0.0-2.0-0.35-0.321-3.321,0,0,0,90,false,stim,false,2,728.6000000238419,2,0,1,27857,WMM1,823302,false,false,1044,image-keyboard-response,8
true,9,0,2,0,true,q,false,true,0.0-2.0-0.35-0.322-3.322,0,0,0,81,false,stim,false,2,569.6000000238419,2,0,2,27857,WMM1,825395,false,false,1047,image-keyboard-response,9
true,9,0,2,0,true,q,false,false,0.0-2.0-0.35-0.323-3.323,0,0,0,81,false,stim,false,2,570.3999999761581,2,0,2,27857,WMM1,827480,false,true,1050,image-keyboard-response,10
true,9,2,2,1,false,z,false,false,0.0-2.0-0.36-0.324-3.324,0,0,0,68,false,stim,true,2,982.2999999523163,2,0,1,27857,WMM1,829998,false,false,1053,image-keyboard-response,11
true,9,2,2,2,true,d,false,true,0.0-2.0-0.36-0.325-3.325,0,0,0,68,false,stim,false,1,779.5999999046326,2,0,0,27857,WMM1,832312,false,false,1056,image-keyboard-response,12
true,9,1,2,1,true,z,false,false,0.0-2.0-0.36-0.326-3.326,0,0,0,90,false,stim,false,2,468.60000002384186,2,0,1,27857,WMM1,834305,false,true,1059,image-keyboard-response,13
true,9,0,2,0,true,q,false,true,0.0-2.0-0.36-0.327-3.327,0,0,0,81,false,stim,false,2,648.2000000476837,2,0,2,27857,WMM1,836479,false,false,1062,image-keyboard-response,14
true,9,1,2,1,true,z,false,false,0.0-2.0-0.36-0.328-3.328,0,0,0,90,false,stim,false,2,589.2999999523163,2,0,1,27857,WMM1,838600,false,true,1065,image-keyboard-response,15
true,9,2,2,2,true,d,false,true,0.0-2.0-0.36-0.329-3.329,0,0,0,68,false,stim,false,1,854.7000000476837,2,0,0,27857,WMM1,840973,false,false,1068,image-keyboard-response,16
true,9,0,2,0,true,q,false,true,0.0-2.0-0.36-0.330-3.330,0,0,0,81,false,stim,false,2,550.3999999761581,2,0,2,27857,WMM1,843050,false,false,1071,image-keyboard-response,17
true,9,2,2,2,true,d,false,true,0.0-2.0-0.36-0.331-3.331,0,0,0,68,false,stim,false,1,772.5,2,0,0,27857,WMM1,845360,false,false,1074,image-keyboard-response,18
true,9,0,2,0,true,q,false,true,0.0-2.0-0.36-0.332-3.332,0,0,0,81,false,stim,false,2,557.0,2,0,2,27857,WMM1,847449,false,false,1077,image-keyboard-response,19
true,9,2,2,2,true,d,false,true,0.0-2.0-0.37-0.333-3.333,0,0,0,68,false,stim,false,1,679.3000000715256,2,0,0,27857,WMM1,849646,false,false,1080,image-keyboard-response,20
true,9,2,2,2,true,d,false,false,0.0-2.0-0.37-0.334-3.334,0,0,0,68,false,stim,false,1,676.8999999761581,2,0,0,27857,WMM1,851842,false,true,1083,image-keyboard-response,21
true,9,0,2,0,true,q,false,false,0.0-2.0-0.37-0.335-3.335,0,0,0,81,false,stim,false,2,703.5999999046326,2,0,2,27857,WMM1,854077,false,true,1086,image-keyboard-response,22
true,9,0,2,1,false,z,true,false,0.0-2.0-0.37-0.336-3.336,0,0,0,81,false,stim,false,2,885.5,2,0,1,27857,WMM1,856483,false,false,1089,image-keyboard-response,23
true,9,0,2,0,true,q,false,false,0.0-2.0-0.37-0.337-3.337,0,0,0,81,false,stim,false,2,696.3999999761581,2,0,2,27857,WMM1,858703,false,true,1092,image-keyboard-response,24
true,9,1,2,1,true,z,false,true,0.0-2.0-0.37-0.338-3.338,0,0,0,90,false,stim,false,2,752.1000000238419,2,0,1,27857,WMM1,860978,false,false,1095,image-keyboard-response,25
true,9,2,2,2,true,d,false,true,0.0-2.0-0.37-0.339-3.339,0,0,0,68,false,stim,false,1,821.1000000238419,2,0,0,27857,WMM1,863335,false,false,1098,image-keyboard-response,26
true,9,1,2,1,true,z,false,false,0.0-2.0-0.37-0.340-3.340,0,0,0,90,false,stim,false,2,1293.3999999761581,2,0,1,27857,WMM1,866167,false,true,1101,image-keyboard-response,27
true,9,0,2,0,true,q,false,true,0.0-2.0-0.37-0.341-3.341,0,0,0,81,false,stim,false,2,793.6000000238419,2,0,2,27857,WMM1,868486,false,false,1104,image-keyboard-response,28
true,9,2,2,2,true,d,false,true,0.0-2.0-0.38-0.342-3.342,0,0,0,68,false,stim,false,1,710.5,2,0,0,27857,WMM1,870720,false,false,1107,image-keyboard-response,29
true,9,1,2,1,true,z,false,true,0.0-2.0-0.38-0.343-3.343,0,0,0,90,false,stim,false,2,1849.6000000238419,2,0,1,27857,WMM1,874107,false,false,1110,image-keyboard-response,30
true,10,2,1,2,true,d,false,true,0.0-2.0-0.38-0.344-3.344,0,0,0,68,true,stim,false,0,1061.3999999761581,2,0,2,27857,WMM1,876701,false,false,1113,image-keyboard-response,1
true,10,2,1,0,false,q,false,false,0.0-2.0-0.38-0.345-3.345,0,0,0,68,false,stim,true,2,2175.600000023842,2,0,0,27857,WMM1,880412,false,false,1116,image-keyboard-response,2
true,10,0,1,0,true,q,false,true,0.0-2.0-0.38-0.346-3.346,0,0,0,81,false,stim,false,1,1171.3999999761581,2,0,1,27857,WMM1,883118,false,false,1119,image-keyboard-response,3
true,10,1,1,2,false,d,true,false,0.0-2.0-0.38-0.347-3.347,0,0,0,90,false,stim,false,0,770.1999999284744,2,0,2,27857,WMM1,885401,false,false,1122,image-keyboard-response,4
true,10,0,1,0,true,q,false,true,0.0-2.0-0.38-0.348-3.348,0,0,0,81,false,stim,false,1,616.0,2,0,1,27857,WMM1,887546,false,false,1125,image-keyboard-response,5
true,10,1,1,2,false,d,true,false,0.0-2.0-0.38-0.349-3.349,0,0,0,90,false,stim,false,0,1283.2000000476837,2,0,2,27857,WMM1,890348,false,false,1128,image-keyboard-response,6
true,10,2,1,0,false,q,false,false,0.0-2.0-0.38-0.350-3.350,0,0,0,68,false,stim,true,2,570.5999999046326,2,0,0,27857,WMM1,892432,false,false,1131,image-keyboard-response,7
true,10,0,1,0,true,q,false,true,0.0-2.0-0.39-0.351-3.351,0,0,0,81,false,stim,false,1,1037.1999999284744,2,0,1,27857,WMM1,894984,false,false,1134,image-keyboard-response,8
true,10,2,1,2,true,d,false,true,0.0-2.0-0.39-0.352-3.352,0,0,0,68,false,stim,false,0,427.2000000476837,2,0,2,27857,WMM1,896939,false,false,1137,image-keyboard-response,9
true,10,1,1,0,false,q,true,false,0.0-2.0-0.39-0.353-3.353,0,0,0,90,false,stim,false,2,637.8999999761581,2,0,0,27857,WMM1,899117,false,false,1140,image-keyboard-response,10
true,10,0,1,0,true,q,false,true,0.0-2.0-0.39-0.354-3.354,0,0,0,81,false,stim,false,2,491.59999990463257,2,0,0,27857,WMM1,901130,false,false,1143,image-keyboard-response,11
true,10,0,1,0,true,q,false,true,0.0-2.0-0.39-0.355-3.355,0,0,0,81,false,stim,false,2,534.8999999761581,2,0,0,27857,WMM1,903200,false,false,1146,image-keyboard-response,12
true,10,2,1,0,false,q,true,false,0.0-2.0-0.39-0.356-3.356,0,0,0,68,false,stim,false,1,999.3999999761581,2,0,1,27857,WMM1,905723,false,false,1149,image-keyboard-response,13
true,10,2,1,2,true,d,false,true,0.0-2.0-0.39-0.357-3.357,0,0,0,68,false,stim,false,0,471.0,2,0,2,27857,WMM1,907719,false,false,1152,image-keyboard-response,14
true,10,2,1,2,true,d,false,true,0.0-2.0-0.39-0.358-3.358,0,0,0,68,false,stim,false,0,649.6000000238419,2,0,2,27857,WMM1,909907,false,false,1155,image-keyboard-response,15
true,10,1,1,0,false,q,false,false,0.0-2.0-0.39-0.359-3.359,0,0,0,90,false,stim,true,1,561.2000000476837,2,0,1,27857,WMM1,911990,false,false,1158,image-keyboard-response,16
true,10,0,1,0,true,q,false,true,0.0-2.0-0.40-0.360-3.360,0,0,0,81,false,stim,false,2,528.8999999761581,2,0,0,27857,WMM1,914037,false,false,1161,image-keyboard-response,17
true,10,0,1,0,true,q,false,true,0.0-2.0-0.40-0.361-3.361,0,0,0,81,false,stim,false,1,493.0,2,0,1,27857,WMM1,916063,false,false,1164,image-keyboard-response,18
true,10,0,1,0,true,q,false,true,0.0-2.0-0.40-0.362-3.362,0,0,0,81,false,stim,false,1,526.0,2,0,1,27857,WMM1,918105,false,false,1167,image-keyboard-response,19
true,10,0,1,0,true,q,false,true,0.0-2.0-0.40-0.363-3.363,0,0,0,81,false,stim,false,2,545.5,2,0,0,27857,WMM1,920173,false,false,1170,image-keyboard-response,20
true,10,2,1,2,true,d,false,true,0.0-2.0-0.40-0.364-3.364,0,0,0,68,false,stim,false,0,608.0,2,0,2,27857,WMM1,922300,false,false,1173,image-keyboard-response,21
true,10,0,1,0,true,q,false,true,0.0-2.0-0.40-0.365-3.365,0,0,0,81,false,stim,false,1,792.2999999523163,2,0,1,27857,WMM1,924611,false,false,1176,image-keyboard-response,22
true,10,2,1,2,true,d,false,true,0.0-2.0-0.40-0.366-3.366,0,0,0,68,false,stim,false,0,749.0,2,0,2,27857,WMM1,926879,false,false,1179,image-keyboard-response,23
true,10,2,1,2,true,d,false,true,0.0-2.0-0.40-0.367-3.367,0,0,0,68,false,stim,false,0,854.3000000715256,2,0,2,27857,WMM1,929249,false,false,1182,image-keyboard-response,24
true,10,0,1,0,true,q,false,false,0.0-2.0-0.40-0.368-3.368,0,0,0,81,false,stim,false,2,532.2999999523163,2,0,0,27857,WMM1,931308,false,true,1185,image-keyboard-response,25
true,10,0,1,0,true,q,false,true,0.0-2.0-0.41-0.369-3.369,0,0,0,81,false,stim,false,2,475.7000000476837,2,0,0,27857,WMM1,933316,false,false,1188,image-keyboard-response,26
true,10,0,1,0,true,q,false,true,0.0-2.0-0.41-0.370-3.370,0,0,0,81,false,stim,false,2,599.3000000715256,2,0,0,27857,WMM1,935440,false,false,1191,image-keyboard-response,27
true,10,2,1,0,false,q,true,false,0.0-2.0-0.41-0.371-3.371,0,0,0,68,false,stim,false,1,819.3000000715256,2,0,1,27857,WMM1,937782,false,false,1194,image-keyboard-response,28
true,10,0,1,0,true,q,false,true,0.0-2.0-0.41-0.372-3.372,0,0,0,81,false,stim,false,1,406.89999997615814,2,0,1,27857,WMM1,939722,false,false,1197,image-keyboard-response,29
true,10,2,1,2,true,d,false,false,0.0-2.0-0.41-0.373-3.373,0,0,0,68,false,stim,false,0,681.1000000238419,2,0,2,27857,WMM1,941940,false,true,1200,image-keyboard-response,30
true,11,2,2,0,false,q,false,false,0.0-2.0-0.41-0.374-3.374,0,0,0,68,true,stim,true,2,433.2999999523163,2,0,2,27857,WMM1,943916,false,false,1203,image-keyboard-response,1
true,11,1,2,0,false,q,true,false,0.0-2.0-0.41-0.375-3.375,0,0,0,90,false,stim,false,2,504.2999999523163,2,0,2,27857,WMM1,945939,false,false,1206,image-keyboard-response,2
true,11,0,2,1,false,z,false,false,0.0-2.0-0.41-0.376-3.376,0,0,0,81,false,stim,true,0,659.1999999284744,2,0,1,27857,WMM1,948119,false,false,1209,image-keyboard-response,3
true,11,1,2,2,false,d,true,false,0.0-2.0-0.41-0.377-3.377,0,0,0,90,false,stim,false,0,409.39999997615814,2,0,0,27857,WMM1,950060,false,false,1212,image-keyboard-response,4
true,11,1,2,2,false,d,true,false,0.0-2.0-0.42-0.378-3.378,0,0,0,90,false,stim,false,0,337.2000000476837,2,0,0,27857,WMM1,951923,false,false,1215,image-keyboard-response,5
true,11,1,2,0,false,q,true,false,0.0-2.0-0.42-0.379-3.379,0,0,0,90,false,stim,false,2,419.10000002384186,2,0,2,27857,WMM1,953860,false,false,1218,image-keyboard-response,6
true,11,1,2,1,true,z,false,true,0.0-2.0-0.42-0.380-3.380,0,0,0,90,false,stim,false,0,426.60000002384186,2,0,1,27857,WMM1,955807,false,false,1221,image-keyboard-response,7
true,11,2,2,2,true,d,false,true,0.0-2.0-0.42-0.381-3.381,0,0,0,68,false,stim,false,0,565.0999999046326,2,0,0,27857,WMM1,957883,false,false,1224,image-keyboard-response,8
true,11,2,2,2,true,d,false,true,0.0-2.0-0.42-0.382-3.382,0,0,0,68,false,stim,false,0,508.7000000476837,2,0,0,27857,WMM1,959922,false,false,1227,image-keyboard-response,9
true,11,1,2,1,true,z,false,true,0.0-2.0-0.42-0.383-3.383,0,0,0,90,false,stim,false,0,508.39999997615814,2,0,1,27857,WMM1,961956,false,false,1230,image-keyboard-response,10
true,11,0,2,0,true,q,false,true,0.0-2.0-0.42-0.384-3.384,0,0,0,81,false,stim,false,2,429.09999990463257,2,0,2,27857,WMM1,963905,false,false,1233,image-keyboard-response,11
true,11,0,2,0,true,q,false,false,0.0-2.0-0.42-0.385-3.385,0,0,0,81,false,stim,false,2,538.7999999523163,2,0,2,27857,WMM1,965960,false,true,1236,image-keyboard-response,12
true,11,1,2,1,true,z,false,true,0.0-2.0-0.42-0.386-3.386,0,0,0,90,false,stim,false,0,766.6999999284744,2,0,1,27857,WMM1,968251,false,false,1239,image-keyboard-response,13
true,11,0,2,0,true,q,false,true,0.0-2.0-0.43-0.387-3.387,0,0,0,81,false,stim,false,2,591.6000000238419,2,0,2,27857,WMM1,970381,false,false,1242,image-keyboard-response,14
true,11,0,2,0,true,q,false,true,0.0-2.0-0.43-0.388-3.388,0,0,0,81,false,stim,false,2,520.2999999523163,2,0,2,27857,WMM1,972431,false,false,1245,image-keyboard-response,15
true,11,1,2,1,true,z,false,true,0.0-2.0-0.43-0.389-3.389,0,0,0,90,false,stim,false,0,681.1000000238419,2,0,1,27857,WMM1,974640,false,false,1248,image-keyboard-response,16
true,11,2,2,2,true,d,false,true,0.0-2.0-0.43-0.390-3.390,0,0,0,68,false,stim,false,0,482.7999999523163,2,0,0,27857,WMM1,976652,false,false,1251,image-keyboard-response,17
true,11,2,2,2,true,d,false,true,0.0-2.0-0.43-0.391-3.391,0,0,0,68,false,stim,false,0,567.7999999523163,2,0,0,27857,WMM1,978737,false,false,1254,image-keyboard-response,18
true,11,1,2,1,true,z,false,true,0.0-2.0-0.43-0.392-3.392,0,0,0,90,false,stim,false,0,1487.7000000476837,2,0,1,27857,WMM1,981762,false,false,1257,image-keyboard-response,19
true,11,2,2,2,true,d,false,true,0.0-2.0-0.43-0.393-3.393,0,0,0,68,false,stim,false,0,632.3000000715256,2,0,0,27857,WMM1,983920,false,false,1260,image-keyboard-response,20
true,11,1,2,1,true,z,false,true,0.0-2.0-0.43-0.394-3.394,0,0,0,90,false,stim,false,0,741.0,2,0,1,27857,WMM1,986179,false,false,1263,image-keyboard-response,21
true,11,0,2,0,true,q,false,true,0.0-2.0-0.43-0.395-3.395,0,0,0,81,false,stim,false,2,1254.1000000238419,2,1,2,27857,WMM1,988958,false,false,1266,image-keyboard-response,22
true,11,1,2,1,true,z,false,false,0.0-2.0-0.44-0.396-3.396,0,0,0,90,false,stim,false,0,681.1000000238419,2,0,1,27857,WMM1,991166,false,true,1269,image-keyboard-response,23
true,11,0,2,0,true,q,false,true,0.0-2.0-0.44-0.397-3.397,0,0,0,81,false,stim,false,2,648.0,2,1,2,27857,WMM1,993335,false,false,1272,image-keyboard-response,24
true,11,2,2,2,true,d,false,true,0.0-2.0-0.44-0.398-3.398,0,0,0,68,false,stim,false,0,584.9000000953674,2,0,0,27857,WMM1,995457,false,false,1275,image-keyboard-response,25
true,11,0,2,0,true,q,false,true,0.0-2.0-0.44-0.399-3.399,0,0,0,81,false,stim,false,2,818.8999999761581,2,1,2,27857,WMM1,997810,false,false,1278,image-keyboard-response,26
true,11,2,2,2,true,d,false,true,0.0-2.0-0.44-0.400-3.400,0,0,0,68,false,stim,false,0,913.8999999761581,2,0,0,27857,WMM1,1000243,false,false,1281,image-keyboard-response,27
true,11,2,2,2,true,d,false,true,0.0-2.0-0.44-0.401-3.401,0,0,0,68,false,stim,false,0,804.7999999523163,2,0,0,27857,WMM1,1002591,false,false,1284,image-keyboard-response,28
true,11,0,2,1,false,z,false,false,0.0-2.0-0.44-0.402-3.402,0,0,0,81,false,stim,true,0,912.2999999523163,2,0,1,27857,WMM1,1005025,false,false,1287,image-keyboard-response,29
true,11,1,2,1,true,z,false,true,0.0-2.0-0.44-0.403-3.403,0,0,0,90,false,stim,false,0,537.3000000715256,2,0,1,27857,WMM1,1007077,false,false,1290,image-keyboard-response,30
true,12,0,3,0,true,q,false,true,0.0-2.0-0.44-0.404-3.404,0,0,1,81,true,stim,false,0,641.5,2,1,2,27857,WMM1,1009254,false,false,1293,image-keyboard-response,1
true,12,2,3,1,false,z,false,false,0.0-2.0-0.45-0.405-3.405,0,0,1,68,false,stim,true,2,676.7999999523163,2,0,0,27857,WMM1,1011456,false,false,1296,image-keyboard-response,2
true,12,1,3,2,false,d,false,false,0.0-2.0-0.45-0.406-3.406,0,0,1,90,false,stim,true,1,1919.1000000238419,2,0,1,27857,WMM1,1014912,false,false,1299,image-keyboard-response,3
true,12,0,3,0,true,q,false,true,0.0-2.0-0.45-0.407-3.407,0,0,1,81,false,stim,false,0,692.4000000953674,2,1,2,27857,WMM1,1017140,false,false,1302,image-keyboard-response,4
true,12,1,3,2,false,d,false,false,0.0-2.0-0.45-0.408-3.408,0,0,1,90,false,stim,true,1,694.8999999761581,2,0,1,27857,WMM1,1019373,false,false,1305,image-keyboard-response,5
true,12,0,3,0,true,q,false,true,0.0-2.0-0.45-0.409-3.409,0,0,1,81,false,stim,false,0,644.0,2,1,2,27857,WMM1,1021539,false,false,1308,image-keyboard-response,6
true,12,2,3,1,false,z,false,false,0.0-2.0-0.45-0.410-3.410,0,0,1,68,false,stim,true,2,643.0999999046326,2,0,0,27857,WMM1,1023700,false,false,1311,image-keyboard-response,7
true,12,1,3,1,true,z,false,true,0.0-2.0-0.45-0.411-3.411,0,0,1,90,false,stim,false,2,371.0,2,0,0,27857,WMM1,1025583,false,false,1314,image-keyboard-response,8
true,12,2,3,2,true,d,false,true,0.0-2.0-0.45-0.412-3.412,0,0,1,68,false,stim,false,1,552.7000000476837,2,0,1,27857,WMM1,1027681,false,false,1317,image-keyboard-response,9
true,12,0,3,0,true,q,false,false,0.0-2.0-0.45-0.413-3.413,0,0,1,81,false,stim,false,0,538.7999999523163,2,1,2,27857,WMM1,1029757,false,true,1320,image-keyboard-response,10
true,12,1,3,1,true,z,false,true,0.0-2.0-0.46-0.414-3.414,0,0,1,90,false,stim,false,2,960.7999999523163,2,0,0,27857,WMM1,1032242,false,false,1323,image-keyboard-response,11
true,12,2,3,2,true,d,false,true,0.0-2.0-0.46-0.415-3.415,0,0,1,68,false,stim,false,1,816.4000000953674,2,0,1,27857,WMM1,1034593,false,false,1326,image-keyboard-response,12
true,12,1,3,1,true,z,false,true,0.0-2.0-0.46-0.416-3.416,0,0,1,90,false,stim,false,2,519.6999999284744,2,0,0,27857,WMM1,1036629,false,false,1329,image-keyboard-response,13
true,12,2,3,2,true,d,false,false,0.0-2.0-0.46-0.417-3.417,0,0,1,68,false,stim,false,1,839.7000000476837,2,0,1,27857,WMM1,1038997,false,true,1332,image-keyboard-response,14
true,12,1,3,0,false,q,true,false,0.0-2.0-0.46-0.418-3.418,0,0,1,90,false,stim,false,0,1216.5,2,1,2,27857,WMM1,1041733,false,false,1335,image-keyboard-response,15
true,12,0,3,0,true,q,false,true,0.0-2.0-0.46-0.419-3.419,0,0,1,81,false,stim,false,0,753.8999999761581,2,1,2,27857,WMM1,1044009,false,false,1338,image-keyboard-response,16
true,12,1,3,1,true,z,false,true,0.0-2.0-0.46-0.420-3.420,0,0,1,90,false,stim,false,2,620.3000000715256,2,0,0,27857,WMM1,1046162,false,false,1341,image-keyboard-response,17
true,12,0,3,0,true,q,false,true,0.0-2.0-0.46-0.421-3.421,0,0,1,81,false,stim,false,0,754.7999999523163,2,1,2,27857,WMM1,1048442,false,false,1344,image-keyboard-response,18
true,12,2,3,2,true,d,false,true,0.0-2.0-0.46-0.422-3.422,0,0,1,68,false,stim,false,1,575.3000000715256,2,0,1,27857,WMM1,1050538,false,false,1347,image-keyboard-response,19
true,12,2,3,2,true,d,false,true,0.0-2.0-0.47-0.423-3.423,0,0,1,68,false,stim,false,1,619.1999999284744,2,0,1,27857,WMM1,1052680,false,false,1350,image-keyboard-response,20
true,12,1,3,1,true,z,false,true,0.0-2.0-0.47-0.424-3.424,0,0,1,90,false,stim,false,2,1231.0,2,0,0,27857,WMM1,1055442,false,false,1353,image-keyboard-response,21
true,12,0,3,0,true,q,false,false,0.0-2.0-0.47-0.425-3.425,0,0,1,81,false,stim,false,0,933.3999999761581,2,1,2,27857,WMM1,1057904,false,true,1356,image-keyboard-response,22
true,12,1,3,1,true,z,false,true,0.0-2.0-0.47-0.426-3.426,0,0,1,90,false,stim,false,2,2050.100000023842,2,0,0,27857,WMM1,1061479,false,false,1359,image-keyboard-response,23
true,12,0,3,0,true,q,false,true,0.0-2.0-0.47-0.427-3.427,0,0,1,81,false,stim,false,0,565.3999999761581,2,1,2,27857,WMM1,1063573,false,false,1362,image-keyboard-response,24
true,12,2,3,2,true,d,false,true,0.0-2.0-0.47-0.428-3.428,0,0,1,68,false,stim,false,1,576.1000000238419,2,0,1,27857,WMM1,1065687,false,false,1365,image-keyboard-response,25
true,12,1,3,0,false,q,true,false,0.0-2.0-0.47-0.429-3.429,0,0,1,90,false,stim,false,0,709.9000000953674,2,1,2,27857,WMM1,1067925,false,false,1368,image-keyboard-response,26
true,12,1,3,2,false,d,false,false,0.0-2.0-0.47-0.430-3.430,0,0,1,90,false,stim,true,1,1731.2000000476837,2,0,1,27857,WMM1,1071184,false,false,1371,image-keyboard-response,27
true,12,1,3,1,true,z,false,true,0.0-2.0-0.47-0.431-3.431,0,0,1,90,false,stim,false,2,661.4000000953674,2,0,0,27857,WMM1,1073359,false,false,1374,image-keyboard-response,28
true,12,2,3,2,true,d,false,true,0.0-2.0-0.48-0.432-3.432,0,0,1,68,false,stim,false,1,463.1999999284744,2,0,1,27857,WMM1,1075351,false,false,1377,image-keyboard-response,29
true,12,0,3,0,true,q,false,true,0.0-2.0-0.48-0.433-3.433,0,0,1,81,false,stim,false,0,512.6000000238419,2,1,2,27857,WMM1,1077404,false,false,1380,image-keyboard-response,30
true,13,0,3,0,true,q,false,true,0.0-2.0-0.48-0.434-3.434,0,0,1,81,true,stim,false,0,545.3999999761581,2,1,2,27857,WMM1,1079478,false,false,1383,image-keyboard-response,1
true,13,1,3,0,false,q,false,true,0.0-2.0-0.48-0.435-3.435,0,0,1,90,false,stim,true,1,635.1000000238419,2,0,0,27857,WMM1,1081637,false,true,1386,image-keyboard-response,2
true,13,1,3,0,false,q,false,false,0.0-2.0-0.48-0.436-3.436,0,0,1,90,false,stim,true,1,637.7999999523163,2,0,0,27857,WMM1,1083796,false,false,1389,image-keyboard-response,3
true,13,0,3,1,false,z,true,false,0.0-2.0-0.48-0.437-3.437,0,0,1,81,false,stim,false,2,666.2999999523163,2,0,1,27857,WMM1,1085998,false,false,1392,image-keyboard-response,4
true,13,1,3,0,false,q,false,true,0.0-2.0-0.48-0.438-3.438,0,0,1,90,false,stim,true,1,774.0,2,0,0,27857,WMM1,1088303,false,true,1395,image-keyboard-response,5
true,13,0,3,0,true,q,false,true,0.0-2.0-0.48-0.439-3.439,0,0,1,81,false,stim,false,0,692.2000000476837,2,1,2,27857,WMM1,1090512,false,false,1398,image-keyboard-response,6
true,13,2,3,1,false,z,false,false,0.0-2.0-0.48-0.440-3.440,0,0,1,68,false,stim,true,2,1381.0,2,0,1,27857,WMM1,1093435,false,false,1401,image-keyboard-response,7
true,13,1,3,0,false,q,false,false,0.0-2.0-0.49-0.441-3.441,0,0,1,90,false,stim,true,1,531.8000000715256,2,0,0,27857,WMM1,1095484,false,false,1404,image-keyboard-response,8
true,13,1,3,1,true,z,false,true,0.0-2.0-0.49-0.442-3.442,0,0,1,90,false,stim,false,2,1359.7999999523163,2,0,1,27857,WMM1,1098380,false,false,1407,image-keyboard-response,9
true,13,0,3,0,true,q,false,true,0.0-2.0-0.49-0.443-3.443,0,0,1,81,false,stim,false,0,521.8999999761581,2,1,2,27857,WMM1,1100417,false,false,1410,image-keyboard-response,10
true,13,1,3,1,true,z,false,true,0.0-2.0-0.49-0.444-3.444,0,0,1,90,false,stim,false,2,659.8000000715256,2,0,1,27857,WMM1,1102598,false,false,1413,image-keyboard-response,11
true,13,2,3,0,false,q,true,false,0.0-2.0-0.49-0.445-3.445,0,0,1,68,false,stim,false,1,580.6000000238419,2,0,0,27857,WMM1,1104703,false,false,1416,image-keyboard-response,12
true,13,1,3,1,true,z,false,true,0.0-2.0-0.49-0.446-3.446,0,0,1,90,false,stim,false,2,518.0,2,0,1,27857,WMM1,1106746,false,false,1419,image-keyboard-response,13
true,13,0,3,0,true,q,false,true,0.0-2.0-0.49-0.447-3.447,0,0,1,81,false,stim,false,0,515.3000000715256,2,1,2,27857,WMM1,1108787,false,false,1422,image-keyboard-response,14
true,13,1,3,0,false,q,true,false,0.0-2.0-0.49-0.448-3.448,0,0,1,90,false,stim,false,0,591.3999999761581,2,1,2,27857,WMM1,1110904,false,false,1425,image-keyboard-response,15
true,13,2,3,0,false,q,true,false,0.0-2.0-0.49-0.449-3.449,0,0,1,68,false,stim,false,1,891.0,2,0,0,27857,WMM1,1113308,false,false,1428,image-keyboard-response,16
true,13,1,3,1,true,z,false,true,0.0-2.0-0.50-0.450-3.450,0,0,1,90,false,stim,false,2,750.6999999284744,2,0,1,27857,WMM1,1115582,false,false,1431,image-keyboard-response,17
true,13,1,3,1,true,z,false,true,0.0-2.0-0.50-0.451-3.451,0,0,1,90,false,stim,false,2,569.2000000476837,2,0,1,27857,WMM1,1117681,false,false,1434,image-keyboard-response,18
true,13,1,3,0,false,q,false,false,0.0-2.0-0.50-0.452-3.452,0,0,1,90,false,stim,true,1,575.8000000715256,2,0,0,27857,WMM1,1119773,false,false,1437,image-keyboard-response,19
true,13,2,3,0,false,q,true,false,0.0-2.0-0.50-0.453-3.453,0,0,1,68,false,stim,false,1,978.6000000238419,2,0,0,27857,WMM1,1122277,false,false,1440,image-keyboard-response,20
true,13,0,3,0,true,q,false,true,0.0-2.0-0.50-0.454-3.454,0,0,1,81,false,stim,false,0,592.0,2,1,2,27857,WMM1,1124386,false,false,1443,image-keyboard-response,21
true,13,0,3,0,true,q,false,true,0.0-2.0-0.50-0.455-3.455,0,0,1,81,false,stim,false,0,525.7999999523163,2,1,2,27857,WMM1,1126453,false,false,1446,image-keyboard-response,22
true,13,0,3,0,true,q,false,false,0.0-2.0-0.50-0.456-3.456,0,0,1,81,false,stim,false,1,581.0,2,0,0,27857,WMM1,1128567,false,true,1449,image-keyboard-response,23
true,13,0,3,0,true,q,false,true,0.0-2.0-0.50-0.457-3.457,0,0,1,81,false,stim,false,0,578.3999999761581,2,1,2,27857,WMM1,1130694,false,false,1452,image-keyboard-response,24
true,13,1,3,1,true,z,false,true,0.0-2.0-0.50-0.458-3.458,0,0,1,90,false,stim,false,2,537.4000000953674,2,0,1,27857,WMM1,1132778,false,false,1455,image-keyboard-response,25
true,13,1,3,1,true,z,false,true,0.0-2.0-0.51-0.459-3.459,0,0,1,90,false,stim,false,2,585.4000000953674,2,0,1,27857,WMM1,1134886,false,false,1458,image-keyboard-response,26
true,13,1,3,0,false,q,false,false,0.0-2.0-0.51-0.460-3.460,0,0,1,90,false,stim,true,1,728.1000000238419,2,0,0,27857,WMM1,1137138,false,false,1461,image-keyboard-response,27
true,13,0,3,0,true,q,false,true,0.0-2.0-0.51-0.461-3.461,0,0,1,81,false,stim,false,0,537.5,2,1,2,27857,WMM1,1139211,false,false,1464,image-keyboard-response,28
true,13,0,3,0,true,q,false,true,0.0-2.0-0.51-0.462-3.462,0,0,1,81,false,stim,false,1,507.2000000476837,2,0,0,27857,WMM1,1141253,false,false,1467,image-keyboard-response,29
true,13,0,3,0,true,q,false,true,0.0-2.0-0.51-0.463-3.463,0,0,1,81,false,stim,false,0,556.8000000715256,2,1,2,27857,WMM1,1143342,false,false,1470,image-keyboard-response,30
true,13,1,3,1,true,z,false,false,0.0-2.0-0.51-0.464-3.464,0,0,1,90,false,stim,false,2,712.5,2,0,1,27857,WMM1,1145591,false,true,1473,image-keyboard-response,31
true,13,0,3,0,true,q,false,true,0.0-2.0-0.51-0.465-3.465,0,0,1,81,false,stim,false,0,541.1000000238419,2,1,2,27857,WMM1,1147662,false,false,1476,image-keyboard-response,32
true,13,1,3,1,true,z,false,false,0.0-2.0-0.51-0.466-3.466,0,0,1,90,false,stim,false,2,649.8999999761581,2,0,1,27857,WMM1,1149857,false,true,1479,image-keyboard-response,33
true,13,0,3,0,true,q,false,true,0.0-2.0-0.51-0.467-3.467,0,0,1,81,false,stim,false,1,605.3999999761581,2,0,0,27857,WMM1,1152000,false,false,1482,image-keyboard-response,34
true,13,2,3,1,false,z,false,false,0.0-2.0-0.52-0.468-3.468,0,0,1,68,false,stim,true,2,832.3999999761581,2,1,1,27857,WMM1,1154381,false,false,1485,image-keyboard-response,35
true,13,0,3,0,true,q,false,true,0.0-2.0-0.52-0.469-3.469,0,0,1,81,false,stim,false,1,774.2000000476837,2,1,0,27857,WMM1,1156680,false,false,1488,image-keyboard-response,36
true,13,0,3,0,true,q,false,true,0.0-2.0-0.52-0.470-3.470,0,0,1,81,false,stim,false,0,547.1999999284744,2,1,2,27857,WMM1,1158751,false,false,1491,image-keyboard-response,37
true,13,0,3,1,false,z,true,false,0.0-2.0-0.52-0.471-3.471,0,0,1,81,false,stim,false,2,517.6000000238419,2,1,1,27857,WMM1,1160809,false,false,1494,image-keyboard-response,38
true,13,0,3,0,true,q,false,true,0.0-2.0-0.52-0.472-3.472,0,0,1,81,false,stim,false,0,659.6000000238419,2,1,2,27857,WMM1,1162991,false,false,1497,image-keyboard-response,39
true,13,0,3,0,true,q,false,true,0.0-2.0-0.52-0.473-3.473,0,0,1,81,false,stim,false,1,789.1000000238419,2,1,0,27857,WMM1,1165301,false,false,1500,image-keyboard-response,40
true,13,1,3,1,true,z,false,true,0.0-2.0-0.52-0.474-3.474,0,0,1,90,false,stim,false,2,577.2999999523163,2,1,1,27857,WMM1,1167433,false,false,1503,image-keyboard-response,41
true,13,0,3,0,true,q,false,false,0.0-2.0-0.52-0.475-3.475,0,0,1,81,false,stim,false,0,634.6000000238419,2,1,2,27857,WMM1,1169595,false,true,1506,image-keyboard-response,42
true,13,0,3,0,true,q,false,true,0.0-2.0-0.52-0.476-3.476,0,0,1,81,false,stim,false,1,1101.0,2,1,0,27857,WMM1,1172221,false,false,1509,image-keyboard-response,43
true,13,1,3,1,true,z,false,false,0.0-2.0-0.53-0.477-3.477,0,0,1,90,false,stim,false,2,815.8000000715256,2,1,1,27857,WMM1,1174572,false,true,1512,image-keyboard-response,44
true,14,0,0,0,true,q,false,true,0.0-2.0-0.53-0.478-3.478,1,1,1,81,true,stim,false,0,1781.2000000476837,2,1,0,27857,WMM1,1204428,false,false,1542,image-keyboard-response,1
true,14,0,0,0,true,q,false,true,0.0-2.0-0.53-0.479-3.479,1,1,1,81,false,stim,false,0,494.2999999523163,2,1,2,27857,WMM1,1206461,false,false,1545,image-keyboard-response,2
true,14,1,0,1,true,z,false,true,0.0-2.0-0.53-0.480-3.480,1,1,1,90,false,stim,false,1,461.89999997615814,2,1,1,27857,WMM1,1208439,false,false,1548,image-keyboard-response,3
true,14,0,0,0,true,q,false,false,0.0-2.0-0.53-0.481-3.481,1,1,1,81,false,stim,false,0,494.6999999284744,2,1,0,27857,WMM1,1210476,false,true,1551,image-keyboard-response,4
true,14,0,0,0,true,q,false,true,0.0-2.0-0.53-0.482-3.482,1,1,1,81,false,stim,false,0,451.3000000715256,2,1,2,27857,WMM1,1212442,false,false,1554,image-keyboard-response,5
true,14,1,0,1,true,z,false,true,0.0-2.0-0.53-0.483-3.483,1,1,1,90,false,stim,false,1,591.3999999761581,2,1,1,27857,WMM1,1214558,false,false,1557,image-keyboard-response,6
true,14,0,0,0,true,q,false,true,0.0-2.0-0.53-0.484-3.484,1,1,1,81,false,stim,false,0,635.6000000238419,2,1,2,27857,WMM1,1216707,false,false,1560,image-keyboard-response,7
true,14,2,0,0,false,q,true,false,0.0-2.0-0.53-0.485-3.485,1,1,1,68,false,stim,false,0,613.4000000953674,2,1,0,27857,WMM1,1218842,false,false,1563,image-keyboard-response,8
true,14,0,0,1,false,z,true,false,0.0-2.0-0.54-0.486-3.486,1,1,1,81,false,stim,false,1,578.3999999761581,2,1,1,27857,WMM1,1220949,false,false,1566,image-keyboard-response,9
true,14,0,0,0,true,q,false,true,0.0-2.0-0.54-0.487-3.487,1,1,1,81,false,stim,false,0,470.0,2,1,2,27857,WMM1,1222954,false,false,1569,image-keyboard-response,10
true,14,0,0,0,true,q,false,true,0.0-2.0-0.54-0.488-3.488,1,1,1,81,false,stim,false,0,679.2000000476837,2,1,0,27857,WMM1,1225157,false,false,1572,image-keyboard-response,11
true,14,1,0,1,true,z,false,true,0.0-2.0-0.54-0.489-3.489,1,1,1,90,false,stim,false,1,671.7000000476837,2,1,1,27857,WMM1,1227355,false,false,1575,image-keyboard-response,12
true,14,0,0,0,true,q,false,true,0.0-2.0-0.54-0.490-3.490,1,1,1,81,false,stim,false,0,1037.7999999523163,2,1,0,27857,WMM1,1229909,false,false,1578,image-keyboard-response,13
true,14,0,0,0,true,q,false,true,0.0-2.0-0.54-0.491-3.491,1,1,1,81,false,stim,false,0,1006.0,2,1,2,27857,WMM1,1232442,false,false,1581,image-keyboard-response,14
true,14,0,0,0,true,q,false,true,0.0-2.0-0.54-0.492-3.492,1,1,1,81,false,stim,false,0,682.1000000238419,2,1,2,27857,WMM1,1234646,false,false,1584,image-keyboard-response,15
true,14,0,0,0,true,q,false,true,0.0-2.0-0.54-0.493-3.493,1,1,1,81,false,stim,false,0,611.5,2,1,0,27857,WMM1,1236788,false,false,1587,image-keyboard-response,16
true,14,1,0,1,true,z,false,true,0.0-2.0-0.54-0.494-3.494,1,1,1,90,false,stim,false,1,677.1000000238419,2,1,1,27857,WMM1,1238978,false,false,1590,image-keyboard-response,17
true,14,0,0,0,true,q,false,true,0.0-2.0-0.55-0.495-3.495,1,1,1,81,false,stim,false,0,590.5,2,1,0,27857,WMM1,1241086,false,false,1593,image-keyboard-response,18
true,14,0,0,0,true,q,false,true,0.0-2.0-0.55-0.496-3.496,1,1,1,81,false,stim,false,0,685.5,2,1,0,27857,WMM1,1243289,false,false,1596,image-keyboard-response,19
true,14,0,0,0,true,q,false,true,0.0-2.0-0.55-0.497-3.497,1,1,1,81,false,stim,false,0,579.6999999284744,2,1,0,27857,WMM1,1245405,false,false,1599,image-keyboard-response,20
true,14,1,0,1,true,z,false,true,0.0-2.0-0.55-0.498-3.498,1,1,1,90,false,stim,false,1,608.1000000238419,2,0,1,27857,WMM1,1247570,false,false,1602,image-keyboard-response,21
true,14,1,0,1,true,z,false,false,0.0-2.0-0.55-0.499-3.499,1,1,1,90,false,stim,false,1,559.1000000238419,2,0,1,27857,WMM1,1249663,false,true,1605,image-keyboard-response,22
true,14,0,0,0,true,q,false,true,0.0-2.0-0.55-0.500-3.500,1,1,1,81,false,stim,false,0,589.3999999761581,2,0,2,27857,WMM1,1251770,false,false,1608,image-keyboard-response,23
true,14,0,0,0,true,q,false,true,0.0-2.0-0.55-0.501-3.501,1,1,1,81,false,stim,false,0,647.0999999046326,2,0,2,27857,WMM1,1253947,false,false,1611,image-keyboard-response,24
true,14,1,0,1,true,z,false,true,0.0-2.0-0.55-0.502-3.502,1,1,1,90,false,stim,false,1,985.6000000238419,2,0,1,27857,WMM1,1256474,false,false,1614,image-keyboard-response,25
true,14,0,0,0,true,q,false,true,0.0-2.0-0.55-0.503-3.503,1,1,1,81,false,stim,false,0,669.2000000476837,2,0,2,27857,WMM1,1258667,false,false,1617,image-keyboard-response,26
true,14,0,0,0,true,q,false,true,0.0-2.0-0.56-0.504-3.504,1,1,1,81,false,stim,false,0,678.7000000476837,2,1,0,27857,WMM1,1260881,false,false,1620,image-keyboard-response,27
true,14,0,0,0,true,q,false,true,0.0-2.0-0.56-0.505-3.505,1,1,1,81,false,stim,false,0,823.2000000476837,2,0,2,27857,WMM1,1263239,false,false,1623,image-keyboard-response,28
true,14,0,0,0,true,q,false,true,0.0-2.0-0.56-0.506-3.506,1,1,1,81,false,stim,false,0,862.5,2,1,0,27857,WMM1,1265631,false,false,1626,image-keyboard-response,29
true,14,1,0,1,true,z,false,false,0.0-2.0-0.56-0.507-3.507,1,1,1,90,false,stim,false,1,738.0,2,0,1,27857,WMM1,1267899,false,true,1629,image-keyboard-response,30
true,15,0,3,1,false,z,false,false,0.0-2.0-0.56-0.508-3.508,1,0,0,81,true,stim,true,0,1217.4000000953674,2,0,2,27857,WMM1,1270650,false,false,1632,image-keyboard-response,1
true,15,1,3,2,false,d,false,true,0.0-2.0-0.56-0.509-3.509,1,0,0,90,false,stim,true,1,510.0,2,0,1,27857,WMM1,1272690,false,true,1635,image-keyboard-response,2
true,15,0,3,1,false,z,false,false,0.0-2.0-0.56-0.510-3.510,1,0,0,81,false,stim,true,0,518.3999999761581,2,0,2,27857,WMM1,1274722,false,false,1638,image-keyboard-response,3
true,15,1,3,2,false,d,false,false,0.0-2.0-0.56-0.511-3.511,1,0,0,90,false,stim,true,1,508.39999997615814,2,0,1,27857,WMM1,1276764,false,false,1641,image-keyboard-response,4
true,15,0,3,0,true,q,false,true,0.0-2.0-0.56-0.512-3.512,1,0,0,81,false,stim,false,0,648.3999999761581,2,1,0,27857,WMM1,1278944,false,false,1644,image-keyboard-response,5
true,15,0,3,0,true,q,false,true,0.0-2.0-0.57-0.513-3.513,1,0,0,81,false,stim,false,0,532.1000000238419,2,1,0,27857,WMM1,1281005,false,false,1647,image-keyboard-response,6
true,15,0,3,0,true,q,false,true,0.0-2.0-0.57-0.514-3.514,1,0,0,81,false,stim,false,0,923.3000000715256,2,1,0,27857,WMM1,1283456,false,false,1650,image-keyboard-response,7
true,15,1,3,2,false,d,false,false,0.0-2.0-0.57-0.515-3.515,1,0,0,90,false,stim,true,1,783.3999999761581,2,0,1,27857,WMM1,1285765,false,false,1653,image-keyboard-response,8
true,15,2,3,2,true,d,false,true,0.0-2.0-0.57-0.516-3.516,1,0,0,68,false,stim,false,1,615.8999999761581,2,0,1,27857,WMM1,1287904,false,false,1656,image-keyboard-response,9
true,15,1,3,1,true,z,false,true,0.0-2.0-0.57-0.517-3.517,1,0,0,90,false,stim,false,0,650.0,2,0,2,27857,WMM1,1290088,false,false,1659,image-keyboard-response,10
true,15,1,3,1,true,z,false,true,0.0-2.0-0.57-0.518-3.518,1,0,0,90,false,stim,false,0,541.2999999523163,2,0,2,27857,WMM1,1292164,false,false,1662,image-keyboard-response,11
true,15,2,3,2,true,d,false,true,0.0-2.0-0.57-0.519-3.519,1,0,0,68,false,stim,false,1,610.0,2,0,1,27857,WMM1,1294307,false,false,1665,image-keyboard-response,12
true,15,1,3,1,true,z,false,true,0.0-2.0-0.57-0.520-3.520,1,0,0,90,false,stim,false,0,542.5,2,0,2,27857,WMM1,1296364,false,false,1668,image-keyboard-response,13
true,15,0,3,0,true,q,false,true,0.0-2.0-0.57-0.521-3.521,1,0,0,81,false,stim,false,0,536.4000000953674,2,1,0,27857,WMM1,1298428,false,false,1671,image-keyboard-response,14
true,15,1,3,1,true,z,false,true,0.0-2.0-0.58-0.522-3.522,1,0,0,90,false,stim,false,0,487.60000002384186,2,0,2,27857,WMM1,1300453,false,false,1674,image-keyboard-response,15
true,15,2,3,2,true,d,false,true,0.0-2.0-0.58-0.523-3.523,1,0,0,68,false,stim,false,1,499.6999999284744,2,0,1,27857,WMM1,1302483,false,false,1677,image-keyboard-response,16
true,15,0,3,0,true,q,false,true,0.0-2.0-0.58-0.524-3.524,1,0,0,81,false,stim,false,0,577.3000000715256,2,1,0,27857,WMM1,1304585,false,false,1680,image-keyboard-response,17
true,15,1,3,1,true,z,false,true,0.0-2.0-0.58-0.525-3.525,1,0,0,90,false,stim,false,0,598.1000000238419,2,0,2,27857,WMM1,1306707,false,false,1683,image-keyboard-response,18
true,15,2,3,2,true,d,false,true,0.0-2.0-0.58-0.526-3.526,1,0,0,68,false,stim,false,1,600.0999999046326,2,0,1,27857,WMM1,1308819,false,false,1686,image-keyboard-response,19
true,15,0,3,0,true,q,false,true,0.0-2.0-0.58-0.527-3.527,1,0,0,81,false,stim,false,0,694.3999999761581,2,1,0,27857,WMM1,1311047,false,false,1689,image-keyboard-response,20
true,15,1,3,1,true,z,false,true,0.0-2.0-0.58-0.528-3.528,1,0,0,90,false,stim,false,0,870.6000000238419,2,0,2,27857,WMM1,1313445,false,false,1692,image-keyboard-response,21
true,15,2,3,2,true,d,false,true,0.0-2.0-0.58-0.529-3.529,1,0,0,68,false,stim,false,1,499.7999999523163,2,0,1,27857,WMM1,1315479,false,false,1695,image-keyboard-response,22
true,15,0,3,0,true,q,false,true,0.0-2.0-0.58-0.530-3.530,1,0,0,81,false,stim,false,0,526.1000000238419,2,0,0,27857,WMM1,1317528,false,false,1698,image-keyboard-response,23
true,15,0,3,0,true,q,false,true,0.0-2.0-0.59-0.531-3.531,1,0,0,81,false,stim,false,0,603.5,2,0,0,27857,WMM1,1319688,false,false,1701,image-keyboard-response,24
true,15,1,3,1,true,z,false,true,0.0-2.0-0.59-0.532-3.532,1,0,0,90,false,stim,false,0,709.3999999761581,2,0,2,27857,WMM1,1321931,false,false,1704,image-keyboard-response,25
true,15,2,3,2,true,d,false,true,0.0-2.0-0.59-0.533-3.533,1,0,0,68,false,stim,false,1,455.40000009536743,2,0,1,27857,WMM1,1323927,false,false,1707,image-keyboard-response,26
true,15,2,3,2,true,d,false,true,0.0-2.0-0.59-0.534-3.534,1,0,0,68,false,stim,false,1,557.1000000238419,2,0,1,27857,WMM1,1326010,false,false,1710,image-keyboard-response,27
true,15,2,3,2,true,d,false,true,0.0-2.0-0.59-0.535-3.535,1,0,0,68,false,stim,false,1,472.39999997615814,2,0,1,27857,WMM1,1328011,false,false,1713,image-keyboard-response,28
true,15,1,3,1,true,z,false,true,0.0-2.0-0.59-0.536-3.536,1,0,0,90,false,stim,false,0,753.0,2,0,2,27857,WMM1,1330304,false,false,1716,image-keyboard-response,29
true,15,0,3,0,true,q,false,true,0.0-2.0-0.59-0.537-3.537,1,0,0,81,false,stim,false,0,550.5,2,0,0,27857,WMM1,1332391,false,false,1719,image-keyboard-response,30
true,16,1,2,0,false,q,false,false,0.0-2.0-0.59-0.538-3.538,0,0,0,90,true,stim,true,1,1132.2000000476837,2,0,2,27857,WMM1,1335036,false,false,1722,image-keyboard-response,1
true,16,0,2,2,false,d,false,true,0.0-2.0-0.59-0.539-3.539,0,0,0,81,false,stim,true,0,546.7000000476837,2,0,0,27857,WMM1,1337104,false,true,1725,image-keyboard-response,2
true,16,2,2,1,false,z,false,false,0.0-2.0-0.60-0.540-3.540,0,0,0,68,false,stim,true,2,488.5,2,0,1,27857,WMM1,1339117,false,false,1728,image-keyboard-response,3
true,16,1,2,1,true,z,false,true,0.0-2.0-0.60-0.541-3.541,0,0,0,90,false,stim,false,2,655.1000000238419,2,0,1,27857,WMM1,1341293,false,false,1731,image-keyboard-response,4
true,16,0,2,2,false,d,false,false,0.0-2.0-0.60-0.542-3.542,0,0,0,81,false,stim,true,0,554.2000000476837,2,0,0,27857,WMM1,1343381,false,false,1734,image-keyboard-response,5
true,16,0,2,2,false,d,false,false,0.0-2.0-0.60-0.543-3.543,0,0,0,81,false,stim,true,0,1208.1999999284744,2,0,0,27857,WMM1,1346100,false,false,1737,image-keyboard-response,6
true,16,1,2,0,false,q,false,false,0.0-2.0-0.60-0.544-3.544,0,0,0,90,false,stim,true,1,951.1000000238419,2,0,2,27857,WMM1,1348561,false,false,1740,image-keyboard-response,7
true,16,0,2,0,true,q,false,false,0.0-2.0-0.60-0.545-3.545,0,0,0,81,false,stim,false,1,440.39999997615814,2,0,2,27857,WMM1,1350537,false,true,1743,image-keyboard-response,8
true,16,2,2,2,true,d,false,true,0.0-2.0-0.60-0.546-3.546,0,0,0,68,false,stim,false,0,805.1999999284744,2,0,0,27857,WMM1,1352873,false,false,1746,image-keyboard-response,9
true,16,0,2,0,true,q,false,false,0.0-2.0-0.60-0.547-3.547,0,0,0,81,false,stim,false,1,595.6000000238419,2,0,2,27857,WMM1,1354995,false,true,1749,image-keyboard-response,10
true,16,1,2,1,true,z,false,false,0.0-2.0-0.60-0.548-3.548,0,0,0,90,false,stim,false,2,601.2000000476837,2,0,1,27857,WMM1,1357125,false,true,1752,image-keyboard-response,11
true,16,2,2,2,true,d,false,true,0.0-2.0-0.61-0.549-3.549,0,0,0,68,false,stim,false,0,697.2000000476837,2,0,0,27857,WMM1,1359362,false,false,1755,image-keyboard-response,12
true,16,1,2,0,false,q,false,false,0.0-2.0-0.61-0.550-3.550,0,0,0,90,false,stim,true,1,722.7000000476837,2,0,2,27857,WMM1,1361603,false,false,1758,image-keyboard-response,13
true,16,0,2,1,false,z,true,false,0.0-2.0-0.61-0.551-3.551,0,0,0,81,false,stim,false,2,1293.3999999761581,2,0,1,27857,WMM1,1364432,false,false,1761,image-keyboard-response,14
true,16,2,2,2,true,d,false,true,0.0-2.0-0.61-0.552-3.552,0,0,0,68,false,stim,false,0,1053.1000000238419,2,0,0,27857,WMM1,1367010,false,false,1764,image-keyboard-response,15
true,16,2,2,0,false,q,true,false,0.0-2.0-0.61-0.553-3.553,0,0,0,68,false,stim,false,1,401.39999997615814,2,0,2,27857,WMM1,1368941,false,false,1767,image-keyboard-response,16
true,16,2,2,1,false,z,false,false,0.0-2.0-0.61-0.554-3.554,0,0,0,68,false,stim,true,2,451.5,2,0,1,27857,WMM1,1370908,false,false,1770,image-keyboard-response,17
true,16,2,2,1,false,z,false,false,0.0-2.0-0.61-0.555-3.555,0,0,0,68,false,stim,true,2,433.2000000476837,2,0,1,27857,WMM1,1372876,false,false,1773,image-keyboard-response,18
true,16,2,2,0,false,q,true,false,0.0-2.0-0.61-0.556-3.556,0,0,0,68,false,stim,false,1,400.0,2,0,2,27857,WMM1,1374795,false,false,1776,image-keyboard-response,19
true,16,2,2,2,true,d,false,true,0.0-2.0-0.61-0.557-3.557,0,0,0,68,false,stim,false,0,502.8000000715256,2,0,0,27857,WMM1,1376837,false,false,1779,image-keyboard-response,20
true,16,1,2,0,false,q,false,false,0.0-2.0-0.62-0.558-3.558,0,0,0,90,false,stim,true,1,609.4000000953674,2,0,2,27857,WMM1,1378984,false,false,1782,image-keyboard-response,21
true,16,1,2,1,true,z,false,true,0.0-2.0-0.62-0.559-3.559,0,0,0,90,false,stim,false,2,363.6999999284744,2,0,1,27857,WMM1,1380890,false,false,1785,image-keyboard-response,22
true,16,2,2,2,true,d,false,true,0.0-2.0-0.62-0.560-3.560,0,0,0,68,false,stim,false,0,692.1999999284744,2,0,0,27857,WMM1,1383102,false,false,1788,image-keyboard-response,23
true,16,0,2,0,true,q,false,false,0.0-2.0-0.62-0.561-3.561,0,0,0,81,false,stim,false,1,583.8000000715256,2,0,2,27857,WMM1,1385212,false,true,1791,image-keyboard-response,24
true,16,2,2,2,true,d,false,true,0.0-2.0-0.62-0.562-3.562,0,0,0,68,false,stim,false,0,726.7999999523163,2,0,0,27857,WMM1,1387479,false,false,1794,image-keyboard-response,25
true,16,1,2,0,false,q,false,false,0.0-2.0-0.62-0.563-3.563,0,0,0,90,false,stim,true,1,806.7999999523163,2,0,2,27857,WMM1,1389809,false,false,1797,image-keyboard-response,26
true,16,1,2,1,true,z,false,true,0.0-2.0-0.62-0.564-3.564,0,0,0,90,false,stim,false,2,603.7999999523163,2,0,1,27857,WMM1,1391940,false,false,1800,image-keyboard-response,27
true,16,2,2,2,true,d,false,true,0.0-2.0-0.62-0.565-3.565,0,0,0,68,false,stim,false,0,700.5,2,0,0,27857,WMM1,1394192,false,false,1803,image-keyboard-response,28
true,16,1,2,1,true,z,false,true,0.0-2.0-0.62-0.566-3.566,0,0,0,90,false,stim,false,2,516.8999999761581,2,0,1,27857,WMM1,1396230,false,false,1806,image-keyboard-response,29
true,16,1,2,0,false,q,false,false,0.0-2.0-0.63-0.567-3.567,0,0,0,90,false,stim,true,1,361.7999999523163,2,0,2,27857,WMM1,1398134,false,false,1809,image-keyboard-response,30
true,16,2,2,2,true,d,false,true,0.0-2.0-0.63-0.568-3.568,0,0,0,68,false,stim,false,0,2186.100000023842,2,0,0,27857,WMM1,1401854,false,false,1812,image-keyboard-response,31
true,16,2,2,2,true,d,false,true,0.0-2.0-0.63-0.569-3.569,0,0,0,68,false,stim,false,0,600.6999999284744,2,0,0,27857,WMM1,1403993,false,false,1815,image-keyboard-response,32
true,16,1,2,1,true,z,false,true,0.0-2.0-0.63-0.570-3.570,0,0,0,90,false,stim,false,2,859.5,2,0,1,27857,WMM1,1406376,false,false,1818,image-keyboard-response,33
true,16,1,2,1,true,z,false,true,0.0-2.0-0.63-0.571-3.571,0,0,0,90,false,stim,false,2,483.7999999523163,2,0,1,27857,WMM1,1408394,false,false,1821,image-keyboard-response,34
true,16,1,2,1,true,z,false,true,0.0-2.0-0.63-0.572-3.572,0,0,0,90,false,stim,false,2,549.7000000476837,2,0,1,27857,WMM1,1410474,false,false,1824,image-keyboard-response,35
true,16,2,2,2,true,d,false,true,0.0-2.0-0.63-0.573-3.573,0,0,0,68,false,stim,false,0,483.59999990463257,2,0,0,27857,WMM1,1412490,false,false,1827,image-keyboard-response,36
true,16,2,2,0,false,q,true,false,0.0-2.0-0.63-0.574-3.574,0,0,0,68,false,stim,false,1,389.7999999523163,2,0,2,27857,WMM1,1414411,false,false,1830,image-keyboard-response,37
true,16,2,2,0,false,q,true,false,0.0-2.0-0.63-0.575-3.575,0,0,0,68,false,stim,false,1,478.6999999284744,2,0,2,27857,WMM1,1416411,false,false,1833,image-keyboard-response,38
true,16,0,2,0,true,q,false,true,0.0-2.0-0.64-0.576-3.576,0,0,0,81,false,stim,false,1,754.8999999761581,2,0,2,27857,WMM1,1418705,false,false,1836,image-keyboard-response,39
true,16,2,2,2,true,d,false,true,0.0-2.0-0.64-0.577-3.577,0,0,0,68,false,stim,false,0,1030.0,2,0,0,27857,WMM1,1421268,false,false,1839,image-keyboard-response,40
true,16,1,2,1,true,z,false,true,0.0-2.0-0.64-0.578-3.578,0,0,0,90,false,stim,false,2,1089.7000000476837,2,0,1,27857,WMM1,1423889,false,false,1842,image-keyboard-response,41
true,16,2,2,2,true,d,false,true,0.0-2.0-0.64-0.579-3.579,0,0,0,68,false,stim,false,0,507.60000002384186,2,0,0,27857,WMM1,1425922,false,false,1845,image-keyboard-response,42
true,16,0,2,0,true,q,false,true,0.0-2.0-0.64-0.580-3.580,0,0,0,81,false,stim,false,1,940.3999999761581,2,0,2,27857,WMM1,1428396,false,false,1848,image-keyboard-response,43
true,16,2,2,2,true,d,false,false,0.0-2.0-0.64-0.581-3.581,0,0,0,68,false,stim,false,0,472.5,2,0,0,27857,WMM1,1430407,false,true,1851,image-keyboard-response,44
true,16,0,2,1,false,z,true,false,0.0-2.0-0.64-0.582-3.582,0,0,0,81,false,stim,false,2,604.0,2,0,1,27857,WMM1,1432545,false,false,1854,image-keyboard-response,45
true,16,1,2,0,false,q,false,false,0.0-2.0-0.64-0.583-3.583,0,0,0,90,false,stim,true,1,1143.1999999284744,2,0,2,27857,WMM1,1435214,false,false,1857,image-keyboard-response,46
true,16,0,2,1,false,z,true,false,0.0-2.0-0.64-0.584-3.584,0,0,0,81,false,stim,false,2,1082.6000000238419,2,0,1,27857,WMM1,1437837,false,false,1860,image-keyboard-response,47
true,16,2,2,0,false,q,true,false,0.0-2.0-0.65-0.585-3.585,0,0,0,68,false,stim,false,1,711.3000000715256,2,0,2,27857,WMM1,1440083,false,false,1863,image-keyboard-response,48
true,16,0,2,1,false,z,true,false,0.0-2.0-0.65-0.586-3.586,0,0,0,81,false,stim,false,2,1128.2000000476837,2,0,1,27857,WMM1,1442738,false,false,1866,image-keyboard-response,49
true,16,1,2,1,true,z,false,true,0.0-2.0-0.65-0.587-3.587,0,0,0,90,false,stim,false,2,650.3000000715256,2,0,1,27857,WMM1,1444926,false,false,1869,image-keyboard-response,50
true,16,0,2,0,true,q,false,true,0.0-2.0-0.65-0.588-3.588,0,0,0,81,false,stim,false,1,675.5,2,0,2,27857,WMM1,1447132,false,false,1872,image-keyboard-response,51
true,16,0,2,0,true,q,false,true,0.0-2.0-0.65-0.589-3.589,0,0,0,81,false,stim,false,1,535.6999999284744,2,0,2,27857,WMM1,1449197,false,false,1875,image-keyboard-response,52
true,16,2,2,2,true,d,false,true,0.0-2.0-0.65-0.590-3.590,0,0,0,68,false,stim,false,0,563.3999999761581,2,0,0,27857,WMM1,1451284,false,false,1878,image-keyboard-response,53
true,17,2,4,1,false,z,false,false,0.0-2.0-0.65-0.591-3.591,0,0,0,68,true,stim,true,2,488.8000000715256,2,0,0,27857,WMM1,1453312,false,false,1881,image-keyboard-response,1
true,17,1,4,0,false,q,false,false,0.0-2.0-0.65-0.592-3.592,0,0,0,90,false,stim,true,1,990.5,2,0,1,27857,WMM1,1455833,false,false,1884,image-keyboard-response,2
true,17,2,4,1,false,z,false,false,0.0-2.0-0.65-0.593-3.593,0,0,0,68,false,stim,true,2,604.5,2,0,0,27857,WMM1,1457976,false,false,1887,image-keyboard-response,3
