answered,blockNum,choice,condition,corResp,correct,correct_response,explo,fb,internal_node_id,isStable_1,isStable_2,isStable_3,key_press,newBlock,part,persev,persevResp,rt,sessNum,stableAS,stimulus,subject,task,time_elapsed,training,trap,trial_index,trial_type,trialsInBlock
true,1,2,0,2,true,d,false,true,0.0-2.0-0.0-0.0-3.0,0,0,0,68,true,stim,false,-1,1714.0,3,0,1,29430,WMM2,139207,false,false,136,image-keyboard-response,1
true,1,2,0,2,true,d,false,true,0.0-2.0-0.0-0.1-3.1,0,0,0,68,false,stim,false,-1,1161.0,3,0,0,29430,WMM2,141873,false,false,139,image-keyboard-response,2
true,1,2,0,2,true,d,false,true,0.0-2.0-0.0-0.2-3.2,0,0,0,68,false,stim,false,-1,464.0,3,0,0,29430,WMM2,143842,false,false,142,image-keyboard-response,3
true,1,0,0,1,false,z,true,false,0.0-2.0-0.0-0.3-3.3,0,0,0,81,false,stim,false,-1,1072.0,3,0,2,29430,WMM2,146418,false,false,145,image-keyboard-response,4
true,1,1,0,1,true,z,false,true,0.0-2.0-0.0-0.4-3.4,0,0,0,90,false,stim,false,-1,531.9999999999709,3,0,2,29430,WMM2,148454,false,false,148,image-keyboard-response,5
true,1,2,0,2,true,d,false,true,0.0-2.0-0.0-0.5-3.5,0,0,0,68,false,stim,false,-1,756.9999999999709,3,0,1,29430,WMM2,150716,false,false,151,image-keyboard-response,6
true,1,2,0,2,true,d,false,true,0.0-2.0-0.0-0.6-3.6,0,0,0,68,false,stim,false,-1,442.0,3,0,1,29430,WMM2,152662,false,false,154,image-keyboard-response,7
true,1,1,0,1,true,z,false,true,0.0-2.0-0.0-0.7-3.7,0,0,0,90,false,stim,false,-1,823.9999999999709,3,0,2,29430,WMM2,154991,false,false,157,image-keyboard-response,8
true,1,2,0,2,true,d,false,true,0.0-2.0-0.0-0.8-3.8,0,0,0,68,false,stim,false,-1,565.0,3,0,0,29430,WMM2,157061,false,false,160,image-keyboard-response,9
true,1,1,0,1,true,z,false,true,0.0-2.0-0.1-0.9-3.9,0,0,0,90,false,stim,false,-1,1635.0,3,0,2,29430,WMM2,160199,false,false,163,image-keyboard-response,10
true,1,2,0,2,true,d,false,false,0.0-2.0-0.1-0.10-3.10,0,0,0,68,false,stim,false,-1,465.0,3,0,1,29430,WMM2,162168,false,true,166,image-keyboard-response,11
true,1,2,0,2,true,d,false,false,0.0-2.0-0.1-0.11-3.11,0,0,0,68,false,stim,false,-1,554.9999999999709,3,0,0,29430,WMM2,164227,false,true,169,image-keyboard-response,12
true,1,2,0,2,true,d,false,true,0.0-2.0-0.1-0.12-3.12,0,0,0,68,false,stim,false,-1,690.0,3,0,1,29430,WMM2,166421,false,false,172,image-keyboard-response,13
true,1,1,0,1,true,z,false,true,0.0-2.0-0.1-0.13-3.13,0,0,0,90,false,stim,false,-1,767.0,3,0,2,29430,WMM2,168694,false,false,175,image-keyboard-response,14
true,1,2,0,2,true,d,false,true,0.0-2.0-0.1-0.14-3.14,0,0,0,68,false,stim,false,-1,667.0,3,0,1,29430,WMM2,170865,false,false,178,image-keyboard-response,15
true,1,2,0,2,true,d,false,true,0.0-2.0-0.1-0.15-3.15,0,0,0,68,false,stim,false,-1,420.0,3,0,0,29430,WMM2,172788,false,false,181,image-keyboard-response,16
true,1,2,0,2,true,d,false,true,0.0-2.0-0.1-0.16-3.16,0,0,0,68,false,stim,false,-1,622.0,3,0,0,29430,WMM2,174915,false,false,184,image-keyboard-response,17
true,1,1,0,1,true,z,false,true,0.0-2.0-0.1-0.17-3.17,0,0,0,90,false,stim,false,-1,1094.0,3,0,2,29430,WMM2,177514,false,false,187,image-keyboard-response,18
true,1,1,0,1,true,z,false,true,0.0-2.0-0.2-0.18-3.18,0,0,0,90,false,stim,false,-1,734.0,3,0,2,29430,WMM2,179752,false,false,190,image-keyboard-response,19
true,1,2,0,2,true,d,false,true,0.0-2.0-0.2-0.19-3.19,0,0,0,68,false,stim,false,-1,600.0,3,0,1,29430,WMM2,181856,false,false,193,image-keyboard-response,20
true,1,2,0,2,true,d,false,false,0.0-2.0-0.2-0.20-3.20,0,0,0,68,false,stim,false,-1,1253.0,3,1,0,29430,WMM2,184613,false,true,196,image-keyboard-response,21
true,1,2,0,2,true,d,false,true,0.0-2.0-0.2-0.21-3.21,0,0,0,68,false,stim,false,-1,543.0000000000291,3,1,0,29430,WMM2,186660,false,false,199,image-keyboard-response,22
true,1,1,0,1,true,z,false,false,0.0-2.0-0.2-0.22-3.22,0,0,0,90,false,stim,false,-1,925.0,3,1,2,29430,WMM2,189090,false,true,202,image-keyboard-response,23
true,1,2,0,2,true,d,false,true,0.0-2.0-0.2-0.23-3.23,0,0,0,68,false,stim,false,-1,553.9999999999709,3,0,1,29430,WMM2,191149,false,false,205,image-keyboard-response,24
true,1,2,0,2,true,d,false,true,0.0-2.0-0.2-0.24-3.24,0,0,0,68,false,stim,false,-1,499.0,3,0,1,29430,WMM2,193152,false,false,208,image-keyboard-response,25
true,1,1,0,1,true,z,false,true,0.0-2.0-0.2-0.25-3.25,0,0,0,90,false,stim,false,-1,1016.0,3,1,2,29430,WMM2,195671,false,false,211,image-keyboard-response,26
true,1,2,0,2,true,d,false,true,0.0-2.0-0.2-0.26-3.26,0,0,0,68,false,stim,false,-1,487.0,3,1,0,29430,WMM2,197663,false,false,214,image-keyboard-response,27
true,1,1,0,1,true,z,false,true,0.0-2.0-0.3-0.27-3.27,0,0,0,90,false,stim,false,-1,712.0,3,1,2,29430,WMM2,199880,false,false,217,image-keyboard-response,28
true,1,1,0,1,true,z,false,true,0.0-2.0-0.3-0.28-3.28,0,0,0,90,false,stim,false,-1,599.0,3,1,2,29430,WMM2,201983,false,false,220,image-keyboard-response,29
true,1,2,0,2,true,d,false,true,0.0-2.0-0.3-0.29-3.29,0,0,0,68,false,stim,false,-1,656.0,3,0,1,29430,WMM2,204143,false,false,223,image-keyboard-response,30
true,2,2,4,2,true,d,false,true,0.0-2.0-0.3-0.30-3.30,1,0,1,68,true,stim,false,2,632.9999999999709,3,0,1,29430,WMM2,206280,false,false,226,image-keyboard-response,1
true,2,2,4,2,true,d,false,false,0.0-2.0-0.3-0.31-3.31,1,0,1,68,false,stim,false,2,722.9999999999709,3,1,0,29430,WMM2,208508,false,true,229,image-keyboard-response,2
true,2,2,4,2,true,d,false,true,0.0-2.0-0.3-0.32-3.32,1,0,1,68,false,stim,false,2,791.0000000000291,3,0,1,29430,WMM2,210803,false,false,232,image-keyboard-response,3
true,2,2,4,2,true,d,false,false,0.0-2.0-0.3-0.33-3.33,1,0,1,68,false,stim,false,2,498.0,3,1,0,29430,WMM2,212806,false,true,235,image-keyboard-response,4
true,2,2,4,2,true,d,false,true,0.0-2.0-0.3-0.34-3.34,1,0,1,68,false,stim,false,2,802.0,3,1,0,29430,WMM2,215112,false,false,238,image-keyboard-response,5
true,2,2,4,1,false,z,true,false,0.0-2.0-0.3-0.35-3.35,1,0,1,68,false,stim,false,1,509.0,3,1,2,29430,WMM2,217126,false,false,241,image-keyboard-response,6
true,2,1,4,1,true,z,false,true,0.0-2.0-0.4-0.36-3.36,1,0,1,90,false,stim,false,1,499.0,3,1,2,29430,WMM2,219128,false,false,244,image-keyboard-response,7
true,2,2,4,2,true,d,false,true,0.0-2.0-0.4-0.37-3.37,1,0,1,68,false,stim,false,2,543.0,3,1,0,29430,WMM2,221176,false,false,247,image-keyboard-response,8
true,2,2,4,2,true,d,false,false,0.0-2.0-0.4-0.38-3.38,1,0,1,68,false,stim,false,2,565.0,3,0,1,29430,WMM2,223246,false,true,250,image-keyboard-response,9
true,2,2,4,2,true,d,false,true,0.0-2.0-0.4-0.39-3.39,1,0,1,68,false,stim,false,2,700.0,3,1,0,29430,WMM2,225451,false,false,253,image-keyboard-response,10
true,2,1,4,1,true,z,false,true,0.0-2.0-0.4-0.40-3.40,1,0,1,90,false,stim,false,1,757.0,3,1,2,29430,WMM2,227712,false,false,256,image-keyboard-response,11
true,2,2,4,2,true,d,false,true,0.0-2.0-0.4-0.41-3.41,1,0,1,68,false,stim,false,2,701.0,3,1,0,29430,WMM2,229918,false,false,259,image-keyboard-response,12
true,2,2,4,2,true,d,false,true,0.0-2.0-0.4-0.42-3.42,1,0,1,68,false,stim,false,2,655.9999999999709,3,0,1,29430,WMM2,232078,false,false,262,image-keyboard-response,13
true,2,2,4,2,true,d,false,true,0.0-2.0-0.4-0.43-3.43,1,0,1,68,false,stim,false,2,577.0,3,0,1,29430,WMM2,234159,false,false,265,image-keyboard-response,14
true,2,1,4,1,true,z,false,true,0.0-2.0-0.4-0.44-3.44,1,0,1,90,false,stim,false,1,623.0,3,1,2,29430,WMM2,236285,false,false,268,image-keyboard-response,15
true,2,2,4,2,true,d,false,true,0.0-2.0-0.5-0.45-3.45,1,0,1,68,false,stim,false,2,881.0,3,0,1,29430,WMM2,238670,false,false,271,image-keyboard-response,16
true,2,1,4,1,true,z,false,true,0.0-2.0-0.5-0.46-3.46,1,0,1,90,false,stim,false,1,971.0,3,1,2,29430,WMM2,241145,false,false,274,image-keyboard-response,17
true,2,2,4,2,true,d,false,true,0.0-2.0-0.5-0.47-3.47,1,0,1,68,false,stim,false,2,633.0,3,1,0,29430,WMM2,243283,false,false,277,image-keyboard-response,18
true,2,1,4,1,true,z,false,true,0.0-2.0-0.5-0.48-3.48,1,0,1,90,false,stim,false,1,950.0,3,1,2,29430,WMM2,245735,false,false,280,image-keyboard-response,19
true,2,1,4,1,true,z,false,true,0.0-2.0-0.5-0.49-3.49,1,0,1,90,false,stim,false,1,543.0,3,1,2,29430,WMM2,247783,false,false,283,image-keyboard-response,20
true,2,2,4,2,true,d,false,true,0.0-2.0-0.5-0.50-3.50,1,0,1,68,false,stim,false,2,813.0000000000291,3,0,1,29430,WMM2,250101,false,false,286,image-keyboard-response,21
true,2,2,4,2,true,d,false,true,0.0-2.0-0.5-0.51-3.51,1,0,1,68,false,stim,false,2,520.0,3,1,0,29430,WMM2,252126,false,false,289,image-keyboard-response,22
true,2,2,4,2,true,d,false,true,0.0-2.0-0.5-0.52-3.52,1,0,1,68,false,stim,false,2,947.9999999999709,3,0,1,29430,WMM2,254578,false,false,292,image-keyboard-response,23
true,2,2,4,2,true,d,false,false,0.0-2.0-0.5-0.53-3.53,1,0,1,68,false,stim,false,2,700.9999999999418,3,1,0,29430,WMM2,256783,false,true,295,image-keyboard-response,24
true,2,2,4,2,true,d,false,true,0.0-2.0-0.6-0.54-3.54,1,0,1,68,false,stim,false,2,531.9999999999709,3,1,0,29430,WMM2,258819,false,false,298,image-keyboard-response,25
true,2,1,4,1,true,z,false,true,0.0-2.0-0.6-0.55-3.55,1,0,1,90,false,stim,false,1,755.0,3,1,2,29430,WMM2,261081,false,false,301,image-keyboard-response,26
true,2,2,4,2,true,d,false,true,0.0-2.0-0.6-0.56-3.56,1,0,1,68,false,stim,false,2,655.0000000000582,3,1,0,29430,WMM2,263241,false,false,304,image-keyboard-response,27
true,2,1,4,1,true,z,false,true,0.0-2.0-0.6-0.57-3.57,1,0,1,90,false,stim,false,1,914.0,3,1,2,29430,WMM2,265660,false,false,307,image-keyboard-response,28
true,2,2,4,2,true,d,false,true,0.0-2.0-0.6-0.58-3.58,1,0,1,68,false,stim,false,2,970.0,3,0,1,29430,WMM2,268135,false,false,310,image-keyboard-response,29
true,2,1,4,1,true,z,false,true,0.0-2.0-0.6-0.59-3.59,1,0,1,90,false,stim,false,1,823.9999999999418,3,1,2,29430,WMM2,270463,false,false,313,image-keyboard-response,30
true,3,2,2,2,true,d,false,false,0.0-2.0-0.6-0.60-3.60,1,0,1,68,true,stim,false,2,678.0,3,1,0,29430,WMM2,272646,false,true,316,image-keyboard-response,1
true,3,2,2,0,false,q,false,false,0.0-2.0-0.6-0.61-3.61,1,0,1,68,false,stim,true,2,588.0,3,0,1,29430,WMM2,274739,false,false,319,image-keyboard-response,2
true,3,2,2,0,false,q,false,false,0.0-2.0-0.6-0.62-3.62,1,0,1,68,false,stim,true,2,488.0,3,0,1,29430,WMM2,276730,false,false,322,image-keyboard-response,3
true,3,2,2,2,true,d,false,false,0.0-2.0-0.7-0.63-3.63,1,0,1,68,false,stim,false,2,678.0,3,1,0,29430,WMM2,278912,false,true,325,image-keyboard-response,4
true,3,0,2,0,true,q,false,true,0.0-2.0-0.7-0.64-3.64,1,0,1,81,false,stim,false,2,790.0,3,0,1,29430,WMM2,281207,false,false,328,image-keyboard-response,5
true,3,0,2,2,false,d,true,false,0.0-2.0-0.7-0.65-3.65,1,0,1,81,false,stim,false,2,723.0,3,1,0,29430,WMM2,283435,false,false,331,image-keyboard-response,6
true,3,1,2,1,true,z,false,true,0.0-2.0-0.7-0.66-3.66,1,0,1,90,false,stim,false,1,1140.0000000000582,3,1,2,29430,WMM2,286079,false,false,334,image-keyboard-response,7
true,3,0,2,0,true,q,false,true,0.0-2.0-0.7-0.67-3.67,1,0,1,81,false,stim,false,2,1366.0,3,0,1,29430,WMM2,288948,false,false,337,image-keyboard-response,8
true,3,1,2,1,true,z,false,true,0.0-2.0-0.7-0.68-3.68,1,0,1,90,false,stim,false,1,510.0,3,1,2,29430,WMM2,290961,false,false,340,image-keyboard-response,9
true,3,1,2,1,true,z,false,true,0.0-2.0-0.7-0.69-3.69,1,0,1,90,false,stim,false,1,508.9999999999418,3,1,2,29430,WMM2,292975,false,false,343,image-keyboard-response,10
true,3,1,2,2,false,d,true,false,0.0-2.0-0.7-0.70-3.70,1,0,1,90,false,stim,false,2,591.0,3,1,0,29430,WMM2,295070,false,false,346,image-keyboard-response,11
true,3,0,2,0,true,q,false,true,0.0-2.0-0.7-0.71-3.71,1,0,1,81,false,stim,false,2,845.0,3,0,1,29430,WMM2,297419,false,false,349,image-keyboard-response,12
true,3,0,2,0,true,q,false,true,0.0-2.0-0.8-0.72-3.72,1,0,1,81,false,stim,false,2,870.0000000000582,3,0,1,29430,WMM2,299793,false,false,352,image-keyboard-response,13
true,3,1,2,1,true,z,false,true,0.0-2.0-0.8-0.73-3.73,1,0,1,90,false,stim,false,1,746.0000000000582,3,1,2,29430,WMM2,302043,false,false,355,image-keyboard-response,14
true,3,2,2,2,true,d,false,true,0.0-2.0-0.8-0.74-3.74,1,0,1,68,false,stim,false,2,1566.0,3,1,0,29430,WMM2,305114,false,false,358,image-keyboard-response,15
true,3,2,2,2,true,d,false,true,0.0-2.0-0.8-0.75-3.75,1,0,1,68,false,stim,false,2,622.0,3,1,0,29430,WMM2,307241,false,false,361,image-keyboard-response,16
true,3,2,2,2,true,d,false,true,0.0-2.0-0.8-0.76-3.76,1,0,1,68,false,stim,false,2,757.0,3,1,0,29430,WMM2,309502,false,false,364,image-keyboard-response,17
true,3,1,2,1,true,z,false,true,0.0-2.0-0.8-0.77-3.77,1,0,1,90,false,stim,false,1,936.0,3,1,2,29430,WMM2,311943,false,false,367,image-keyboard-response,18
true,3,0,2,0,true,q,false,true,0.0-2.0-0.8-0.78-3.78,1,0,1,81,false,stim,false,2,577.0,3,0,1,29430,WMM2,314024,false,false,370,image-keyboard-response,19
true,3,0,2,0,true,q,false,true,0.0-2.0-0.8-0.79-3.79,1,0,1,81,false,stim,false,2,870.0,3,0,1,29430,WMM2,316398,false,false,373,image-keyboard-response,20
true,3,1,2,1,true,z,false,true,0.0-2.0-0.8-0.80-3.80,1,0,1,90,false,stim,false,1,611.0000000000582,3,1,2,29430,WMM2,318513,false,false,376,image-keyboard-response,21
true,3,2,2,2,true,d,false,true,0.0-2.0-0.9-0.81-3.81,1,0,1,68,false,stim,false,2,1038.0,3,0,0,29430,WMM2,321056,false,false,379,image-keyboard-response,22
true,3,0,2,0,true,q,false,false,0.0-2.0-0.9-0.82-3.82,1,0,1,81,false,stim,false,2,758.0,3,0,1,29430,WMM2,323317,false,true,382,image-keyboard-response,23
true,3,0,2,0,true,q,false,true,0.0-2.0-0.9-0.83-3.83,1,0,1,81,false,stim,false,2,599.0,3,0,1,29430,WMM2,325421,false,false,385,image-keyboard-response,24
true,3,2,2,2,true,d,false,true,0.0-2.0-0.9-0.84-3.84,1,0,1,68,false,stim,false,2,802.0000000000582,3,0,0,29430,WMM2,327727,false,false,388,image-keyboard-response,25
true,3,1,2,1,true,z,false,true,0.0-2.0-0.9-0.85-3.85,1,0,1,90,false,stim,false,1,690.0,3,1,2,29430,WMM2,329921,false,false,391,image-keyboard-response,26
true,3,2,2,2,true,d,false,true,0.0-2.0-0.9-0.86-3.86,1,0,1,68,false,stim,false,2,858.0,3,0,0,29430,WMM2,332284,false,false,394,image-keyboard-response,27
true,3,0,2,0,true,q,false,true,0.0-2.0-0.9-0.87-3.87,1,0,1,81,false,stim,false,2,599.9999999999418,3,0,1,29430,WMM2,334387,false,false,397,image-keyboard-response,28
true,3,1,2,1,true,z,false,true,0.0-2.0-0.9-0.88-3.88,1,0,1,90,false,stim,false,1,745.0,3,1,2,29430,WMM2,336637,false,false,400,image-keyboard-response,29
true,3,1,2,1,true,z,false,true,0.0-2.0-0.9-0.89-3.89,1,0,1,90,false,stim,false,1,710.0,3,1,2,29430,WMM2,338854,false,false,403,image-keyboard-response,30
true,4,2,1,0,false,q,false,false,0.0-2.0-0.10-0.90-3.90,0,0,1,68,true,stim,true,2,848.0,3,0,0,29430,WMM2,341205,false,false,406,image-keyboard-response,1
true,4,2,1,0,false,q,false,false,0.0-2.0-0.10-0.91-3.91,0,0,1,68,false,stim,true,2,476.0,3,0,0,29430,WMM2,343185,false,false,409,image-keyboard-response,2
true,4,1,1,1,true,z,false,true,0.0-2.0-0.10-0.92-3.92,0,0,1,90,false,stim,false,1,791.0,3,1,2,29430,WMM2,345480,false,false,412,image-keyboard-response,3
true,4,1,1,1,true,z,false,true,0.0-2.0-0.10-0.93-3.93,0,0,1,90,false,stim,false,1,780.0,3,1,2,29430,WMM2,347764,false,false,415,image-keyboard-response,4
true,4,1,1,0,false,q,true,false,0.0-2.0-0.10-0.94-3.94,0,0,1,90,false,stim,false,2,545.0,3,0,0,29430,WMM2,349812,false,false,418,image-keyboard-response,5
true,4,0,1,1,false,z,false,false,0.0-2.0-0.10-0.95-3.95,0,0,1,81,false,stim,true,0,1230.0,3,0,1,29430,WMM2,352545,false,false,421,image-keyboard-response,6
true,4,1,1,1,true,z,false,true,0.0-2.0-0.10-0.96-3.96,0,0,1,90,false,stim,false,1,520.0,3,1,2,29430,WMM2,354570,false,false,424,image-keyboard-response,7
true,4,0,1,1,false,z,false,false,0.0-2.0-0.10-0.97-3.97,0,0,1,81,false,stim,true,0,1589.0,3,0,1,29430,WMM2,357664,false,false,427,image-keyboard-response,8
true,4,2,1,1,false,z,true,false,0.0-2.0-0.10-0.98-3.98,0,0,1,68,false,stim,false,0,464.0,3,0,1,29430,WMM2,359633,false,false,430,image-keyboard-response,9
true,4,1,1,1,true,z,false,true,0.0-2.0-0.11-0.99-3.99,0,0,1,90,false,stim,false,0,811.9999999999418,3,0,1,29430,WMM2,361951,false,false,433,image-keyboard-response,10
true,4,0,1,0,true,q,false,true,0.0-2.0-0.11-0.100-3.100,0,0,1,81,false,stim,false,2,882.0,3,0,0,29430,WMM2,364336,false,false,436,image-keyboard-response,11
true,4,1,1,1,true,z,false,true,0.0-2.0-0.11-0.101-3.101,0,0,1,90,false,stim,false,1,837.0,3,1,2,29430,WMM2,366676,false,false,439,image-keyboard-response,12
true,4,1,1,1,true,z,false,false,0.0-2.0-0.11-0.102-3.102,0,0,1,90,false,stim,false,1,566.0,3,1,2,29430,WMM2,368746,false,true,442,image-keyboard-response,13
true,4,0,1,0,true,q,false,true,0.0-2.0-0.11-0.103-3.103,0,0,1,81,false,stim,false,2,1004.0,3,0,0,29430,WMM2,371255,false,false,445,image-keyboard-response,14
true,4,1,1,1,true,z,false,false,0.0-2.0-0.11-0.104-3.104,0,0,1,90,false,stim,false,1,723.0,3,1,2,29430,WMM2,373482,false,true,448,image-keyboard-response,15
true,4,1,1,1,true,z,false,true,0.0-2.0-0.11-0.105-3.105,0,0,1,90,false,stim,false,0,533.0,3,0,1,29430,WMM2,375519,false,false,451,image-keyboard-response,16
true,4,1,1,1,true,z,false,true,0.0-2.0-0.11-0.106-3.106,0,0,1,90,false,stim,false,0,509.0,3,0,1,29430,WMM2,377532,false,false,454,image-keyboard-response,17
true,4,0,1,0,true,q,false,true,0.0-2.0-0.11-0.107-3.107,0,0,1,81,false,stim,false,2,725.0,3,0,0,29430,WMM2,379760,false,false,457,image-keyboard-response,18
true,4,0,1,0,true,q,false,true,0.0-2.0-0.12-0.108-3.108,0,0,1,81,false,stim,false,2,655.0,3,0,0,29430,WMM2,381920,false,false,460,image-keyboard-response,19
true,4,1,1,1,true,z,false,true,0.0-2.0-0.12-0.109-3.109,0,0,1,90,false,stim,false,1,846.0,3,1,2,29430,WMM2,384271,false,false,463,image-keyboard-response,20
true,4,1,1,1,true,z,false,true,0.0-2.0-0.12-0.110-3.110,0,0,1,90,false,stim,false,0,430.0,3,1,1,29430,WMM2,386206,false,false,466,image-keyboard-response,21
true,4,0,1,0,true,q,false,true,0.0-2.0-0.12-0.111-3.111,0,0,1,81,false,stim,false,2,824.0,3,0,0,29430,WMM2,388535,false,false,469,image-keyboard-response,22
true,4,1,1,1,true,z,false,false,0.0-2.0-0.12-0.112-3.112,0,0,1,90,false,stim,false,1,543.0,3,1,2,29430,WMM2,390583,false,true,472,image-keyboard-response,23
true,4,1,1,1,true,z,false,true,0.0-2.0-0.12-0.113-3.113,0,0,1,90,false,stim,false,0,622.0,3,1,1,29430,WMM2,392709,false,false,475,image-keyboard-response,24
true,4,0,1,0,true,q,false,true,0.0-2.0-0.12-0.114-3.114,0,0,1,81,false,stim,false,2,689.0,3,0,0,29430,WMM2,394903,false,false,478,image-keyboard-response,25
true,4,1,1,1,true,z,false,false,0.0-2.0-0.12-0.115-3.115,0,0,1,90,false,stim,false,0,700.0,3,1,1,29430,WMM2,397108,false,true,481,image-keyboard-response,26
true,4,1,1,1,true,z,false,false,0.0-2.0-0.12-0.116-3.116,0,0,1,90,false,stim,false,1,666.0,3,1,2,29430,WMM2,399279,false,true,484,image-keyboard-response,27
true,4,1,1,1,true,z,false,true,0.0-2.0-0.13-0.117-3.117,0,0,1,90,false,stim,false,0,747.0000000000582,3,1,1,29430,WMM2,401530,false,false,487,image-keyboard-response,28
true,4,1,1,1,true,z,false,true,0.0-2.0-0.13-0.118-3.118,0,0,1,90,false,stim,false,0,531.0000000000582,3,1,1,29430,WMM2,403565,false,false,490,image-keyboard-response,29
true,4,1,1,1,true,z,false,true,0.0-2.0-0.13-0.119-3.119,0,0,1,90,false,stim,false,1,633.0000000000582,3,1,2,29430,WMM2,405703,false,false,493,image-keyboard-response,30
true,5,0,4,0,true,q,false,true,0.0-2.0-0.13-0.120-3.120,0,1,1,81,true,stim,false,0,700.0,3,0,0,29430,WMM2,407908,false,false,496,image-keyboard-response,1
true,5,1,4,1,true,z,false,true,0.0-2.0-0.13-0.121-3.121,0,1,1,90,false,stim,false,1,756.0,3,1,1,29430,WMM2,410169,false,false,499,image-keyboard-response,2
true,5,0,4,0,true,q,false,true,0.0-2.0-0.13-0.122-3.122,0,1,1,81,false,stim,false,0,801.0,3,0,0,29430,WMM2,412475,false,false,502,image-keyboard-response,3
true,5,1,4,1,true,z,false,true,0.0-2.0-0.13-0.123-3.123,0,1,1,90,false,stim,false,1,667.0,3,1,2,29430,WMM2,414647,false,false,505,image-keyboard-response,4
true,5,1,4,1,true,z,false,false,0.0-2.0-0.13-0.124-3.124,0,1,1,90,false,stim,false,1,621.0,3,1,2,29430,WMM2,416773,false,true,508,image-keyboard-response,5
true,5,0,4,0,true,q,false,true,0.0-2.0-0.13-0.125-3.125,0,1,1,81,false,stim,false,0,701.0,3,0,0,29430,WMM2,418978,false,false,511,image-keyboard-response,6
true,5,0,4,0,true,q,false,true,0.0-2.0-0.14-0.126-3.126,0,1,1,81,false,stim,false,0,689.0,3,0,0,29430,WMM2,421172,false,false,514,image-keyboard-response,7
true,5,1,4,1,true,z,false,true,0.0-2.0-0.14-0.127-3.127,0,1,1,90,false,stim,false,1,622.0000000000582,3,1,2,29430,WMM2,423298,false,false,517,image-keyboard-response,8
true,5,0,4,0,true,q,false,true,0.0-2.0-0.14-0.128-3.128,0,1,1,81,false,stim,false,0,667.0,3,0,0,29430,WMM2,425470,false,false,520,image-keyboard-response,9
true,5,1,4,1,true,z,false,true,0.0-2.0-0.14-0.129-3.129,0,1,1,90,false,stim,false,1,1263.0,3,1,1,29430,WMM2,428237,false,false,523,image-keyboard-response,10
true,5,1,4,1,true,z,false,true,0.0-2.0-0.14-0.130-3.130,0,1,1,90,false,stim,false,1,521.0000000000582,3,1,2,29430,WMM2,430263,false,false,526,image-keyboard-response,11
true,5,1,4,1,true,z,false,true,0.0-2.0-0.14-0.131-3.131,0,1,1,90,false,stim,false,1,677.0,3,1,1,29430,WMM2,432445,false,false,529,image-keyboard-response,12
true,5,1,4,1,true,z,false,true,0.0-2.0-0.14-0.132-3.132,0,1,1,90,false,stim,false,1,487.0,3,1,2,29430,WMM2,434436,false,false,532,image-keyboard-response,13
true,5,1,4,1,true,z,false,true,0.0-2.0-0.14-0.133-3.133,0,1,1,90,false,stim,false,1,520.0,3,1,1,29430,WMM2,436461,false,false,535,image-keyboard-response,14
true,5,0,4,0,true,q,false,false,0.0-2.0-0.14-0.134-3.134,0,1,1,81,false,stim,false,0,812.0,3,0,0,29430,WMM2,438779,false,true,538,image-keyboard-response,15
true,5,0,4,0,true,q,false,false,0.0-2.0-0.15-0.135-3.135,0,1,1,81,false,stim,false,0,768.0,3,0,0,29430,WMM2,441051,false,true,541,image-keyboard-response,16
true,5,1,4,1,true,z,false,true,0.0-2.0-0.15-0.136-3.136,0,1,1,90,false,stim,false,1,452.0,3,1,1,29430,WMM2,443009,false,false,544,image-keyboard-response,17
true,5,1,4,1,true,z,false,true,0.0-2.0-0.15-0.137-3.137,0,1,1,90,false,stim,false,1,565.0,3,1,1,29430,WMM2,445079,false,false,547,image-keyboard-response,18
true,5,0,4,0,true,q,false,true,0.0-2.0-0.15-0.138-3.138,0,1,1,81,false,stim,false,0,1265.0,3,0,0,29430,WMM2,447847,false,false,550,image-keyboard-response,19
true,5,0,4,0,true,q,false,true,0.0-2.0-0.15-0.139-3.139,0,1,1,81,false,stim,false,0,688.9999999999418,3,0,0,29430,WMM2,450041,false,false,553,image-keyboard-response,20
true,5,1,4,1,true,z,false,false,0.0-2.0-0.15-0.140-3.140,0,1,1,90,false,stim,false,1,576.0,3,0,2,29430,WMM2,452122,false,true,556,image-keyboard-response,21
true,5,1,4,1,true,z,false,true,0.0-2.0-0.15-0.141-3.141,0,1,1,90,false,stim,false,1,532.0,3,0,2,29430,WMM2,454158,false,false,559,image-keyboard-response,22
true,5,1,4,1,true,z,false,true,0.0-2.0-0.15-0.142-3.142,0,1,1,90,false,stim,false,1,521.9999999999418,3,1,1,29430,WMM2,456183,false,false,562,image-keyboard-response,23
true,5,1,4,1,true,z,false,true,0.0-2.0-0.15-0.143-3.143,0,1,1,90,false,stim,false,1,881.0,3,0,2,29430,WMM2,458568,false,false,565,image-keyboard-response,24
true,5,1,4,1,true,z,false,true,0.0-2.0-0.16-0.144-3.144,0,1,1,90,false,stim,false,1,565.9999999999418,3,1,1,29430,WMM2,460638,false,false,568,image-keyboard-response,25
true,5,1,4,1,true,z,false,false,0.0-2.0-0.16-0.145-3.145,0,1,1,90,false,stim,false,1,689.0,3,1,1,29430,WMM2,462832,false,true,571,image-keyboard-response,26
true,5,1,4,1,true,z,false,true,0.0-2.0-0.16-0.146-3.146,0,1,1,90,false,stim,false,1,633.0,3,1,1,29430,WMM2,464969,false,false,574,image-keyboard-response,27
true,5,0,4,0,true,q,false,true,0.0-2.0-0.16-0.147-3.147,0,1,1,81,false,stim,false,0,960.0,3,1,0,29430,WMM2,467433,false,false,577,image-keyboard-response,28
true,5,1,4,1,true,z,false,true,0.0-2.0-0.16-0.148-3.148,0,1,1,90,false,stim,false,1,734.0,3,0,2,29430,WMM2,469672,false,false,580,image-keyboard-response,29
true,5,1,4,1,true,z,false,true,0.0-2.0-0.16-0.149-3.149,0,1,1,90,false,stim,false,1,1007.0,3,0,2,29430,WMM2,472184,false,false,583,image-keyboard-response,30
true,6,1,3,2,false,d,false,false,0.0-2.0-0.16-0.150-3.150,1,1,0,90,true,stim,true,1,529.0,3,0,2,29430,WMM2,474217,false,false,586,image-keyboard-response,1
true,6,0,3,0,true,q,false,true,0.0-2.0-0.16-0.151-3.151,1,1,0,81,false,stim,false,0,779.0,3,1,0,29430,WMM2,476501,false,false,589,image-keyboard-response,2
true,6,0,3,0,true,q,false,true,0.0-2.0-0.16-0.152-3.152,1,1,0,81,false,stim,false,0,621.0,3,1,0,29430,WMM2,478627,false,false,592,image-keyboard-response,3
true,6,0,3,0,true,q,false,true,0.0-2.0-0.17-0.153-3.153,1,1,0,81,false,stim,false,0,519.9999999999418,3,1,0,29430,WMM2,480652,false,false,595,image-keyboard-response,4
true,6,0,3,0,true,q,false,true,0.0-2.0-0.17-0.154-3.154,1,1,0,81,false,stim,false,0,554.0,3,1,0,29430,WMM2,482711,false,false,598,image-keyboard-response,5
true,6,1,3,1,true,z,false,true,0.0-2.0-0.17-0.155-3.155,1,1,0,90,false,stim,false,1,732.0,3,1,1,29430,WMM2,484950,false,false,601,image-keyboard-response,6
true,6,1,3,2,false,d,false,false,0.0-2.0-0.17-0.156-3.156,1,1,0,90,false,stim,true,1,532.0,3,0,2,29430,WMM2,486986,false,false,604,image-keyboard-response,7
true,6,1,3,2,false,d,false,false,0.0-2.0-0.17-0.157-3.157,1,1,0,90,false,stim,true,1,633.0,3,0,2,29430,WMM2,489124,false,false,607,image-keyboard-response,8
true,6,1,3,1,true,z,false,true,0.0-2.0-0.17-0.158-3.158,1,1,0,90,false,stim,false,1,1669.0,3,1,1,29430,WMM2,492296,false,false,610,image-keyboard-response,9
true,6,1,3,1,true,z,false,true,0.0-2.0-0.17-0.159-3.159,1,1,0,90,false,stim,false,1,588.0,3,1,1,29430,WMM2,494389,false,false,613,image-keyboard-response,10
true,6,0,3,0,true,q,false,true,0.0-2.0-0.17-0.160-3.160,1,1,0,81,false,stim,false,0,1262.9999999999418,3,1,0,29430,WMM2,497156,false,false,616,image-keyboard-response,11
true,6,1,3,2,false,d,false,false,0.0-2.0-0.17-0.161-3.161,1,1,0,90,false,stim,true,1,1431.9999999999418,3,0,2,29430,WMM2,500093,false,false,619,image-keyboard-response,12
false,6,-1,3,2,false,d,true,true,0.0-2.0-0.18-0.162-3.162,1,1,0,,false,stim,false,1,,3,0,2,29430,WMM2,504598,false,true,622,image-keyboard-response,13
true,6,0,3,1,false,z,true,false,0.0-2.0-0.18-0.163-3.163,1,1,0,81,false,stim,false,1,1809.0,3,1,1,29430,WMM2,507912,false,false,625,image-keyboard-response,14
true,6,0,3,0,true,q,false,true,0.0-2.0-0.18-0.164-3.164,1,1,0,81,false,stim,false,0,937.9999999999418,3,1,0,29430,WMM2,510353,false,false,628,image-keyboard-response,15
true,6,1,3,1,true,z,false,true,0.0-2.0-0.18-0.165-3.165,1,1,0,90,false,stim,false,1,531.9999999998836,3,1,1,29430,WMM2,512389,false,false,631,image-keyboard-response,16
true,6,2,3,2,true,d,false,true,0.0-2.0-0.18-0.166-3.166,1,1,0,68,false,stim,false,1,488.0000000000582,3,0,2,29430,WMM2,514380,false,false,634,image-keyboard-response,17
true,6,1,3,1,true,z,false,true,0.0-2.0-0.18-0.167-3.167,1,1,0,90,false,stim,false,1,690.0000000000582,3,1,1,29430,WMM2,516574,false,false,637,image-keyboard-response,18
true,6,0,3,0,true,q,false,false,0.0-2.0-0.18-0.168-3.168,1,1,0,81,false,stim,false,0,734.0000000000582,3,1,0,29430,WMM2,518813,false,true,640,image-keyboard-response,19
true,6,0,3,0,true,q,false,false,0.0-2.0-0.18-0.169-3.169,1,1,0,81,false,stim,false,0,913.0,3,1,0,29430,WMM2,521232,false,true,643,image-keyboard-response,20
true,6,2,3,2,true,d,false,true,0.0-2.0-0.18-0.170-3.170,1,1,0,68,false,stim,false,1,654.9999999999418,3,0,2,29430,WMM2,523392,false,false,646,image-keyboard-response,21
true,6,1,3,1,true,z,false,true,0.0-2.0-0.19-0.171-3.171,1,1,0,90,false,stim,false,1,576.0,3,0,1,29430,WMM2,525473,false,false,649,image-keyboard-response,22
true,6,1,3,1,true,z,false,true,0.0-2.0-0.19-0.172-3.172,1,1,0,90,false,stim,false,1,497.0,3,0,1,29430,WMM2,527476,false,false,652,image-keyboard-response,23
true,6,0,3,0,true,q,false,false,0.0-2.0-0.19-0.173-3.173,1,1,0,81,false,stim,false,0,1095.0,3,1,0,29430,WMM2,530075,false,true,655,image-keyboard-response,24
true,6,2,3,2,true,d,false,true,0.0-2.0-0.19-0.174-3.174,1,1,0,68,false,stim,false,1,869.0,3,1,2,29430,WMM2,532449,false,false,658,image-keyboard-response,25
true,6,1,3,1,true,z,false,true,0.0-2.0-0.19-0.175-3.175,1,1,0,90,false,stim,false,1,813.0,3,0,1,29430,WMM2,534766,false,false,661,image-keyboard-response,26
true,6,2,3,2,true,d,false,true,0.0-2.0-0.19-0.176-3.176,1,1,0,68,false,stim,false,1,892.0,3,1,2,29430,WMM2,537162,false,false,664,image-keyboard-response,27
true,6,2,3,2,true,d,false,false,0.0-2.0-0.19-0.177-3.177,1,1,0,68,false,stim,false,1,576.0,3,1,2,29430,WMM2,539244,false,true,667,image-keyboard-response,28
true,6,2,3,0,false,q,true,true,0.0-2.0-0.19-0.178-3.178,1,1,0,68,false,stim,false,0,611.0,3,1,0,29430,WMM2,541359,false,true,670,image-keyboard-response,29
true,6,2,3,0,false,q,true,true,0.0-2.0-0.19-0.179-3.179,1,1,0,68,false,stim,false,0,487.0,3,1,0,29430,WMM2,543350,false,true,673,image-keyboard-response,30
true,6,2,3,0,false,q,true,true,0.0-2.0-0.20-0.180-3.180,1,1,0,68,false,stim,false,0,520.0000000001164,3,1,0,29430,WMM2,545375,false,true,676,image-keyboard-response,31
true,7,2,3,0,false,q,true,false,0.0-2.0-0.20-0.181-3.181,1,0,1,68,true,stim,false,0,519.9999999998836,3,1,0,29430,WMM2,547400,false,false,679,image-keyboard-response,1
true,7,2,3,2,true,d,false,false,0.0-2.0-0.20-0.182-3.182,1,0,1,68,false,stim,false,2,565.0,3,1,2,29430,WMM2,549470,false,true,682,image-keyboard-response,2
true,7,0,3,2,false,d,true,false,0.0-2.0-0.20-0.183-3.183,1,0,1,81,false,stim,false,1,1140.0,3,0,1,29430,WMM2,552114,false,false,685,image-keyboard-response,3
true,7,2,3,0,false,q,true,true,0.0-2.0-0.20-0.184-3.184,1,0,1,68,false,stim,false,0,689.0000000001164,3,1,0,29430,WMM2,554308,false,true,688,image-keyboard-response,4
true,7,2,3,2,true,d,false,true,0.0-2.0-0.20-0.185-3.185,1,0,1,68,false,stim,false,2,509.0,3,1,2,29430,WMM2,556321,false,false,691,image-keyboard-response,5
true,7,1,3,2,false,d,false,false,0.0-2.0-0.20-0.186-3.186,1,0,1,90,false,stim,true,1,611.0,3,0,1,29430,WMM2,558437,false,false,694,image-keyboard-response,6
true,7,2,3,2,true,d,false,false,0.0-2.0-0.20-0.187-3.187,1,0,1,68,false,stim,false,2,543.0,3,1,2,29430,WMM2,560484,false,true,697,image-keyboard-response,7
true,7,0,3,2,false,d,true,false,0.0-2.0-0.20-0.188-3.188,1,0,1,81,false,stim,false,1,2017.0,3,0,1,29430,WMM2,564006,false,false,700,image-keyboard-response,8
true,7,2,3,0,false,q,true,false,0.0-2.0-0.21-0.189-3.189,1,0,1,68,false,stim,false,0,607.0,3,1,0,29430,WMM2,566120,false,false,703,image-keyboard-response,9
true,7,2,3,0,false,q,true,true,0.0-2.0-0.21-0.190-3.190,1,0,1,68,false,stim,false,0,463.9999999998836,3,1,0,29430,WMM2,568089,false,true,706,image-keyboard-response,10
true,7,2,3,0,false,q,true,true,0.0-2.0-0.21-0.191-3.191,1,0,1,68,false,stim,false,0,498.0,3,1,0,29430,WMM2,570092,false,true,709,image-keyboard-response,11
true,7,1,3,2,false,d,false,false,0.0-2.0-0.21-0.192-3.192,1,0,1,90,false,stim,true,1,1634.0000000001164,3,0,1,29430,WMM2,573231,false,false,712,image-keyboard-response,12
true,7,0,3,2,false,d,true,false,0.0-2.0-0.21-0.193-3.193,1,0,1,81,false,stim,false,1,1352.0,3,0,1,29430,WMM2,576088,false,false,715,image-keyboard-response,13
true,7,2,3,2,true,d,false,true,0.0-2.0-0.21-0.194-3.194,1,0,1,68,false,stim,false,2,668.0,3,1,2,29430,WMM2,578259,false,false,718,image-keyboard-response,14
true,7,2,3,2,true,d,false,true,0.0-2.0-0.21-0.195-3.195,1,0,1,68,false,stim,false,2,475.0,3,1,2,29430,WMM2,580240,false,false,721,image-keyboard-response,15
true,7,1,3,2,false,d,false,false,0.0-2.0-0.21-0.196-3.196,1,0,1,90,false,stim,true,1,1286.0,3,0,1,29430,WMM2,583030,false,false,724,image-keyboard-response,16
true,7,2,3,2,true,d,false,true,0.0-2.0-0.21-0.197-3.197,1,0,1,68,false,stim,false,2,700.0,3,1,2,29430,WMM2,585235,false,false,727,image-keyboard-response,17
true,7,0,3,2,false,d,true,false,0.0-2.0-0.22-0.198-3.198,1,0,1,81,false,stim,false,1,1375.0,3,0,1,29430,WMM2,588115,false,false,730,image-keyboard-response,18
true,7,2,3,2,true,d,false,true,0.0-2.0-0.22-0.199-3.199,1,0,1,68,false,stim,false,1,1386.0,3,0,1,29430,WMM2,591006,false,false,733,image-keyboard-response,19
true,7,0,3,0,true,q,false,true,0.0-2.0-0.22-0.200-3.200,1,0,1,81,false,stim,false,0,2231.0,3,1,0,29430,WMM2,594741,false,false,736,image-keyboard-response,20
true,7,2,3,2,true,d,false,true,0.0-2.0-0.22-0.201-3.201,1,0,1,68,false,stim,false,1,810.0,3,0,1,29430,WMM2,597059,false,false,739,image-keyboard-response,21
true,7,2,3,2,true,d,false,true,0.0-2.0-0.22-0.202-3.202,1,0,1,68,false,stim,false,2,598.0,3,1,2,29430,WMM2,599162,false,false,742,image-keyboard-response,22
true,7,0,3,0,true,q,false,true,0.0-2.0-0.22-0.203-3.203,1,0,1,81,false,stim,false,0,745.0,3,1,0,29430,WMM2,601413,false,false,745,image-keyboard-response,23
true,7,2,3,2,true,d,false,true,0.0-2.0-0.22-0.204-3.204,1,0,1,68,false,stim,false,2,620.0,3,0,2,29430,WMM2,603539,false,false,748,image-keyboard-response,24
true,7,0,3,0,true,q,false,true,0.0-2.0-0.22-0.205-3.205,1,0,1,81,false,stim,false,0,622.0,3,1,0,29430,WMM2,605665,false,false,751,image-keyboard-response,25
true,7,2,3,2,true,d,false,true,0.0-2.0-0.22-0.206-3.206,1,0,1,68,false,stim,false,2,735.0,3,0,2,29430,WMM2,607904,false,false,754,image-keyboard-response,26
true,7,0,3,0,true,q,false,true,0.0-2.0-0.23-0.207-3.207,1,0,1,81,false,stim,false,0,643.0000000001164,3,1,0,29430,WMM2,610053,false,false,757,image-keyboard-response,27
true,7,2,3,2,true,d,false,true,0.0-2.0-0.23-0.208-3.208,1,0,1,68,false,stim,false,2,553.9999999998836,3,0,2,29430,WMM2,612112,false,false,760,image-keyboard-response,28
true,7,2,3,2,true,d,false,true,0.0-2.0-0.23-0.209-3.209,1,0,1,68,false,stim,false,1,419.0,3,1,1,29430,WMM2,614035,false,false,763,image-keyboard-response,29
true,7,2,3,2,true,d,false,true,0.0-2.0-0.23-0.210-3.210,1,0,1,68,false,stim,false,2,950.0,3,0,2,29430,WMM2,616488,false,false,766,image-keyboard-response,30
true,7,2,3,2,true,d,false,true,0.0-2.0-0.23-0.211-3.211,1,0,1,68,false,stim,false,2,509.0,3,0,2,29430,WMM2,618502,false,false,769,image-keyboard-response,31
true,7,2,3,2,true,d,false,true,0.0-2.0-0.23-0.212-3.212,1,0,1,68,false,stim,false,1,779.0,3,1,1,29430,WMM2,620785,false,false,772,image-keyboard-response,32
true,7,0,3,0,true,q,false,true,0.0-2.0-0.23-0.213-3.213,1,0,1,81,false,stim,false,0,667.0000000001164,3,1,0,29430,WMM2,622957,false,false,775,image-keyboard-response,33
true,8,2,2,2,true,d,false,true,0.0-2.0-0.23-0.214-3.214,1,1,0,68,true,stim,false,2,712.0,3,1,1,29430,WMM2,625173,false,false,778,image-keyboard-response,1
true,8,0,2,0,true,q,false,true,0.0-2.0-0.23-0.215-3.215,1,1,0,81,false,stim,false,0,634.0,3,1,0,29430,WMM2,627310,false,false,781,image-keyboard-response,2
true,8,2,2,0,false,q,false,false,0.0-2.0-0.24-0.216-3.216,1,1,0,68,false,stim,true,2,645.0,3,0,2,29430,WMM2,629459,false,false,784,image-keyboard-response,3
true,8,2,2,2,true,d,false,false,0.0-2.0-0.24-0.217-3.217,1,1,0,68,false,stim,false,2,557.0,3,1,1,29430,WMM2,631518,false,true,787,image-keyboard-response,4
true,8,2,2,0,false,q,false,false,0.0-2.0-0.24-0.218-3.218,1,1,0,68,false,stim,true,2,658.0,3,0,2,29430,WMM2,633678,false,false,790,image-keyboard-response,5
true,8,0,2,0,true,q,false,false,0.0-2.0-0.24-0.219-3.219,1,1,0,81,false,stim,false,0,837.0,3,1,0,29430,WMM2,636018,false,true,793,image-keyboard-response,6
true,8,0,2,2,false,d,true,false,0.0-2.0-0.24-0.220-3.220,1,1,0,81,false,stim,false,2,1297.0,3,1,1,29430,WMM2,638819,false,false,796,image-keyboard-response,7
true,8,0,2,2,false,d,true,false,0.0-2.0-0.24-0.221-3.221,1,1,0,81,false,stim,false,2,826.0000000001164,3,1,1,29430,WMM2,641148,false,false,799,image-keyboard-response,8
true,8,1,2,0,false,q,true,false,0.0-2.0-0.24-0.222-3.222,1,1,0,90,false,stim,false,0,1530.0,3,1,0,29430,WMM2,644185,false,false,802,image-keyboard-response,9
true,8,2,2,0,false,q,true,false,0.0-2.0-0.24-0.223-3.223,1,1,0,68,false,stim,false,0,375.0,3,1,0,29430,WMM2,646064,false,false,805,image-keyboard-response,10
true,8,1,2,0,false,q,true,false,0.0-2.0-0.24-0.224-3.224,1,1,0,90,false,stim,false,2,1479.0,3,0,2,29430,WMM2,649046,false,false,808,image-keyboard-response,11
true,8,2,2,0,false,q,true,false,0.0-2.0-0.25-0.225-3.225,1,1,0,68,false,stim,false,0,940.0,3,1,0,29430,WMM2,651487,false,false,811,image-keyboard-response,12
true,8,0,2,2,false,d,true,false,0.0-2.0-0.25-0.226-3.226,1,1,0,81,false,stim,false,2,1388.0000000001164,3,1,1,29430,WMM2,654379,false,false,814,image-keyboard-response,13
true,8,2,2,0,false,q,false,false,0.0-2.0-0.25-0.227-3.227,1,1,0,68,false,stim,true,2,1094.0,3,0,2,29430,WMM2,656977,false,false,817,image-keyboard-response,14
true,8,2,2,2,true,d,false,true,0.0-2.0-0.25-0.228-3.228,1,1,0,68,false,stim,false,2,1702.0,3,1,1,29430,WMM2,660184,false,false,820,image-keyboard-response,15
true,8,0,2,0,true,q,false,true,0.0-2.0-0.25-0.229-3.229,1,1,0,81,false,stim,false,2,610.0,3,0,2,29430,WMM2,662299,false,false,823,image-keyboard-response,16
true,8,0,2,0,true,q,false,true,0.0-2.0-0.25-0.230-3.230,1,1,0,81,false,stim,false,0,1128.0000000001164,3,1,0,29430,WMM2,664932,false,false,826,image-keyboard-response,17
true,8,2,2,2,true,d,false,true,0.0-2.0-0.25-0.231-3.231,1,1,0,68,false,stim,false,2,813.0000000001164,3,1,1,29430,WMM2,667249,false,false,829,image-keyboard-response,18
true,8,0,2,0,true,q,false,true,0.0-2.0-0.25-0.232-3.232,1,1,0,81,false,stim,false,0,713.0,3,1,0,29430,WMM2,669466,false,false,832,image-keyboard-response,19
true,8,0,2,0,true,q,false,true,0.0-2.0-0.25-0.233-3.233,1,1,0,81,false,stim,false,2,621.0,3,0,2,29430,WMM2,671592,false,false,835,image-keyboard-response,20
true,8,2,2,2,true,d,false,true,0.0-2.0-0.26-0.234-3.234,1,1,0,68,false,stim,false,2,574.0,3,0,1,29430,WMM2,673673,false,false,838,image-keyboard-response,21
true,8,2,2,2,true,d,false,true,0.0-2.0-0.26-0.235-3.235,1,1,0,68,false,stim,false,2,869.0000000001164,3,0,1,29430,WMM2,676047,false,false,841,image-keyboard-response,22
true,8,0,2,0,true,q,false,true,0.0-2.0-0.26-0.236-3.236,1,1,0,81,false,stim,false,2,531.9999999998836,3,1,2,29430,WMM2,678084,false,false,844,image-keyboard-response,23
true,8,2,2,2,true,d,false,true,0.0-2.0-0.26-0.237-3.237,1,1,0,68,false,stim,false,2,835.0,3,0,1,29430,WMM2,680423,false,false,847,image-keyboard-response,24
true,8,0,2,0,true,q,false,true,0.0-2.0-0.26-0.238-3.238,1,1,0,81,false,stim,false,0,452.0,3,0,0,29430,WMM2,682381,false,false,850,image-keyboard-response,25
true,8,0,2,0,true,q,false,true,0.0-2.0-0.26-0.239-3.239,1,1,0,81,false,stim,false,2,611.0,3,1,2,29430,WMM2,684496,false,false,853,image-keyboard-response,26
true,8,0,2,0,true,q,false,true,0.0-2.0-0.26-0.240-3.240,1,1,0,81,false,stim,false,2,880.0,3,1,2,29430,WMM2,686881,false,false,856,image-keyboard-response,27
true,8,2,2,0,false,q,true,false,0.0-2.0-0.26-0.241-3.241,1,1,0,68,false,stim,false,0,633.0,3,0,0,29430,WMM2,689018,false,false,859,image-keyboard-response,28
true,8,2,2,0,false,q,true,true,0.0-2.0-0.26-0.242-3.242,1,1,0,68,false,stim,false,0,509.0,3,0,0,29430,WMM2,691032,false,true,862,image-keyboard-response,29
true,8,2,2,0,false,q,true,true,0.0-2.0-0.27-0.243-3.243,1,1,0,68,false,stim,false,0,531.0,3,0,0,29430,WMM2,693069,false,true,865,image-keyboard-response,30
true,9,0,1,1,false,z,true,false,0.0-2.0-0.27-0.244-3.244,0,0,1,81,true,stim,false,2,598.0,3,0,1,29430,WMM2,695172,false,false,868,image-keyboard-response,1
true,9,0,1,0,true,q,false,true,0.0-2.0-0.27-0.245-3.245,0,0,1,81,false,stim,false,0,486.0,3,1,2,29430,WMM2,697164,false,false,871,image-keyboard-response,2
true,9,0,1,1,false,z,true,false,0.0-2.0-0.27-0.246-3.246,0,0,1,81,false,stim,false,2,880.0,3,0,1,29430,WMM2,699549,false,false,874,image-keyboard-response,3
true,9,0,1,0,true,q,false,true,0.0-2.0-0.27-0.247-3.247,0,0,1,81,false,stim,false,0,633.0,3,1,2,29430,WMM2,701686,false,false,877,image-keyboard-response,4
true,9,0,1,0,true,q,false,true,0.0-2.0-0.27-0.248-3.248,0,0,1,81,false,stim,false,0,599.0,3,1,2,29430,WMM2,703790,false,false,880,image-keyboard-response,5
true,9,2,1,1,false,z,true,false,0.0-2.0-0.27-0.249-3.249,0,0,1,68,false,stim,false,0,712.0,3,0,0,29430,WMM2,706006,false,false,883,image-keyboard-response,6
true,9,2,1,1,false,z,true,false,0.0-2.0-0.27-0.250-3.250,0,0,1,68,false,stim,false,0,464.0,3,0,0,29430,WMM2,707975,false,false,886,image-keyboard-response,7
true,9,0,1,1,false,z,true,false,0.0-2.0-0.27-0.251-3.251,0,0,1,81,false,stim,false,2,1881.0,3,0,1,29430,WMM2,711362,false,false,889,image-keyboard-response,8
true,9,0,1,1,false,z,false,false,0.0-2.0-0.28-0.252-3.252,0,0,1,81,false,stim,true,0,913.0,3,0,0,29430,WMM2,713780,false,false,892,image-keyboard-response,9
true,9,0,1,1,false,z,true,false,0.0-2.0-0.28-0.253-3.253,0,0,1,81,false,stim,false,2,1174.0,3,0,1,29430,WMM2,716458,false,false,895,image-keyboard-response,10
true,9,1,1,0,false,q,true,false,0.0-2.0-0.28-0.254-3.254,0,0,1,90,false,stim,false,0,1533.0,3,1,2,29430,WMM2,719496,false,false,898,image-keyboard-response,11
true,9,2,1,1,false,z,false,true,0.0-2.0-0.28-0.255-3.255,0,0,1,68,false,stim,true,2,1045.0,3,0,1,29430,WMM2,722049,false,true,901,image-keyboard-response,12
true,9,2,1,1,false,z,true,false,0.0-2.0-0.28-0.256-3.256,0,0,1,68,false,stim,false,0,1983.0,3,0,0,29430,WMM2,725537,false,false,904,image-keyboard-response,13
true,9,2,1,1,false,z,false,false,0.0-2.0-0.28-0.257-3.257,0,0,1,68,false,stim,true,2,823.0,3,0,1,29430,WMM2,727866,false,false,907,image-keyboard-response,14
true,9,2,1,0,false,q,true,false,0.0-2.0-0.28-0.258-3.258,0,0,1,68,false,stim,false,0,1467.0,3,1,2,29430,WMM2,730836,false,false,910,image-keyboard-response,15
true,9,0,1,1,false,z,false,false,0.0-2.0-0.28-0.259-3.259,0,0,1,81,false,stim,true,0,937.0000000001164,3,0,0,29430,WMM2,733277,false,false,913,image-keyboard-response,16
true,9,2,1,0,false,q,true,false,0.0-2.0-0.28-0.260-3.260,0,0,1,68,false,stim,false,0,1725.0,3,1,2,29430,WMM2,736506,false,false,916,image-keyboard-response,17
true,9,1,1,1,true,z,false,true,0.0-2.0-0.29-0.261-3.261,0,0,1,90,false,stim,false,0,1657.0,3,0,0,29430,WMM2,741647,false,false,919,image-keyboard-response,18
true,9,1,1,1,true,z,false,true,0.0-2.0-0.29-0.262-3.262,0,0,1,90,false,stim,false,0,1464.0,3,0,0,29430,WMM2,744616,false,false,922,image-keyboard-response,19
true,9,1,1,1,true,z,false,true,0.0-2.0-0.29-0.263-3.263,0,0,1,90,false,stim,false,0,418.9999999998836,3,0,0,29430,WMM2,746540,false,false,925,image-keyboard-response,20
true,9,1,1,1,true,z,false,true,0.0-2.0-0.29-0.264-3.264,0,0,1,90,false,stim,false,2,1208.0,3,0,1,29430,WMM2,749252,false,false,928,image-keyboard-response,21
true,9,1,1,1,true,z,false,true,0.0-2.0-0.29-0.265-3.265,0,0,1,90,false,stim,false,2,463.0,3,0,1,29430,WMM2,751220,false,false,931,image-keyboard-response,22
true,9,1,1,1,true,z,false,true,0.0-2.0-0.29-0.266-3.266,0,0,1,90,false,stim,false,2,508.0,3,0,1,29430,WMM2,753234,false,false,934,image-keyboard-response,23
true,9,0,1,0,true,q,false,true,0.0-2.0-0.29-0.267-3.267,0,0,1,81,false,stim,false,0,1443.0,3,1,2,29430,WMM2,756182,false,false,937,image-keyboard-response,24
true,9,0,1,0,true,q,false,true,0.0-2.0-0.29-0.268-3.268,0,0,1,81,false,stim,false,0,721.0,3,1,2,29430,WMM2,758409,false,false,940,image-keyboard-response,25
true,9,0,1,0,true,q,false,true,0.0-2.0-0.29-0.269-3.269,0,0,1,81,false,stim,false,0,519.0000000001164,3,1,2,29430,WMM2,760434,false,false,943,image-keyboard-response,26
true,9,0,1,0,true,q,false,true,0.0-2.0-0.30-0.270-3.270,0,0,1,81,false,stim,false,0,507.0000000001164,3,1,2,29430,WMM2,762448,false,false,946,image-keyboard-response,27
true,9,0,1,0,true,q,false,true,0.0-2.0-0.30-0.271-3.271,0,0,1,81,false,stim,false,0,575.0,3,1,2,29430,WMM2,764529,false,false,949,image-keyboard-response,28
true,9,1,1,1,true,z,false,true,0.0-2.0-0.30-0.272-3.272,0,0,1,90,false,stim,false,0,530.9999999998836,3,1,0,29430,WMM2,766565,false,false,952,image-keyboard-response,29
true,9,1,1,1,true,z,false,false,0.0-2.0-0.30-0.273-3.273,0,0,1,90,false,stim,false,0,420.0,3,1,0,29430,WMM2,768489,false,true,955,image-keyboard-response,30
true,9,1,1,1,true,z,false,true,0.0-2.0-0.30-0.274-3.274,0,0,1,90,false,stim,false,2,1330.0,3,0,1,29430,WMM2,771325,false,false,958,image-keyboard-response,31
true,9,0,1,0,true,q,false,true,0.0-2.0-0.30-0.275-3.275,0,0,1,81,false,stim,false,0,745.0,3,1,2,29430,WMM2,773574,false,false,961,image-keyboard-response,32
true,9,1,1,1,true,z,false,true,0.0-2.0-0.30-0.276-3.276,0,0,1,90,false,stim,false,2,1240.0,3,0,1,29430,WMM2,776319,false,false,964,image-keyboard-response,33
true,9,1,1,1,true,z,false,true,0.0-2.0-0.30-0.277-3.277,0,0,1,90,false,stim,false,0,520.0,3,1,0,29430,WMM2,778344,false,false,967,image-keyboard-response,34
true,9,1,1,1,true,z,false,true,0.0-2.0-0.30-0.278-3.278,0,0,1,90,false,stim,false,2,869.0,3,0,1,29430,WMM2,780718,false,false,970,image-keyboard-response,35
true,10,0,4,0,true,q,false,true,0.0-2.0-0.31-0.279-3.279,1,0,1,81,true,stim,false,0,958.0,3,1,2,29430,WMM2,783182,false,false,973,image-keyboard-response,1
true,10,1,4,1,true,z,false,true,0.0-2.0-0.31-0.280-3.280,1,0,1,90,false,stim,false,1,1151.0,3,0,1,29430,WMM2,785837,false,false,976,image-keyboard-response,2
true,10,1,4,1,true,z,false,true,0.0-2.0-0.31-0.281-3.281,1,0,1,90,false,stim,false,1,869.0,3,1,0,29430,WMM2,788211,false,false,979,image-keyboard-response,3
true,10,1,4,1,true,z,false,true,0.0-2.0-0.31-0.282-3.282,1,0,1,90,false,stim,false,1,644.0,3,1,0,29430,WMM2,790360,false,false,982,image-keyboard-response,4
true,10,1,4,1,true,z,false,true,0.0-2.0-0.31-0.283-3.283,1,0,1,90,false,stim,false,1,1048.0,3,0,1,29430,WMM2,792914,false,false,985,image-keyboard-response,5
true,10,1,4,1,true,z,false,true,0.0-2.0-0.31-0.284-3.284,1,0,1,90,false,stim,false,1,577.0,3,1,0,29430,WMM2,794995,false,false,988,image-keyboard-response,6
true,10,1,4,1,true,z,false,true,0.0-2.0-0.31-0.285-3.285,1,0,1,90,false,stim,false,1,959.0,3,0,1,29430,WMM2,797459,false,false,991,image-keyboard-response,7
true,10,0,4,0,true,q,false,true,0.0-2.0-0.31-0.286-3.286,1,0,1,81,false,stim,false,0,946.0,3,1,2,29430,WMM2,799911,false,false,994,image-keyboard-response,8
true,10,0,4,0,true,q,false,true,0.0-2.0-0.31-0.287-3.287,1,0,1,81,false,stim,false,0,971.0,3,1,2,29430,WMM2,802387,false,false,997,image-keyboard-response,9
true,10,0,4,0,true,q,false,false,0.0-2.0-0.32-0.288-3.288,1,0,1,81,false,stim,false,0,654.0,3,1,2,29430,WMM2,804546,false,true,1000,image-keyboard-response,10
true,10,1,4,1,true,z,false,false,0.0-2.0-0.32-0.289-3.289,1,0,1,90,false,stim,false,1,540.0,3,1,0,29430,WMM2,806594,false,true,1003,image-keyboard-response,11
true,10,1,4,1,true,z,false,true,0.0-2.0-0.32-0.290-3.290,1,0,1,90,false,stim,false,1,554.0,3,0,1,29430,WMM2,808653,false,false,1006,image-keyboard-response,12
true,10,1,4,1,true,z,false,true,0.0-2.0-0.32-0.291-3.291,1,0,1,90,false,stim,false,1,463.0,3,0,1,29430,WMM2,810621,false,false,1009,image-keyboard-response,13
true,10,2,4,1,false,z,true,false,0.0-2.0-0.32-0.292-3.292,1,0,1,68,false,stim,false,1,993.0,3,1,0,29430,WMM2,813119,false,false,1012,image-keyboard-response,14
true,10,1,4,1,true,z,false,true,0.0-2.0-0.32-0.293-3.293,1,0,1,90,false,stim,false,1,1251.0000000001164,3,0,1,29430,WMM2,815875,false,false,1015,image-keyboard-response,15
true,10,2,4,0,false,q,true,true,0.0-2.0-0.32-0.294-3.294,1,0,1,68,false,stim,false,0,756.0,3,1,2,29430,WMM2,818137,false,true,1018,image-keyboard-response,16
true,10,0,4,1,false,z,true,false,0.0-2.0-0.32-0.295-3.295,1,0,1,81,false,stim,false,1,1095.0,3,1,0,29430,WMM2,820736,false,false,1021,image-keyboard-response,17
true,10,2,4,0,false,q,true,false,0.0-2.0-0.32-0.296-3.296,1,0,1,68,false,stim,false,0,633.0,3,1,2,29430,WMM2,822873,false,false,1024,image-keyboard-response,18
true,10,1,4,1,true,z,false,true,0.0-2.0-0.33-0.297-3.297,1,0,1,90,false,stim,false,1,902.0,3,0,1,29430,WMM2,825281,false,false,1027,image-keyboard-response,19
true,10,2,4,0,false,q,true,true,0.0-2.0-0.33-0.298-3.298,1,0,1,68,false,stim,false,0,667.0000000001164,3,1,2,29430,WMM2,827452,false,true,1030,image-keyboard-response,20
true,10,2,4,1,false,z,true,false,0.0-2.0-0.33-0.299-3.299,1,0,1,68,false,stim,false,1,2150.9999999998836,3,1,0,29430,WMM2,831108,false,false,1033,image-keyboard-response,21
true,10,1,4,1,true,z,false,false,0.0-2.0-0.33-0.300-3.300,1,0,1,90,false,stim,false,1,1048.0,3,0,1,29430,WMM2,833662,false,true,1036,image-keyboard-response,22
true,10,1,4,1,true,z,false,false,0.0-2.0-0.33-0.301-3.301,1,0,1,90,false,stim,false,1,1116.0,3,1,0,29430,WMM2,836283,false,true,1039,image-keyboard-response,23
true,10,2,4,1,false,z,true,false,0.0-2.0-0.33-0.302-3.302,1,0,1,68,false,stim,false,1,778.0,3,1,0,29430,WMM2,838567,false,false,1042,image-keyboard-response,24
true,10,2,4,0,false,q,true,false,0.0-2.0-0.33-0.303-3.303,1,0,1,68,false,stim,false,0,474.0,3,1,2,29430,WMM2,840547,false,false,1045,image-keyboard-response,25
true,10,1,4,1,true,z,false,false,0.0-2.0-0.33-0.304-3.304,1,0,1,90,false,stim,false,1,2006.0000000001164,3,0,1,29430,WMM2,844058,false,true,1048,image-keyboard-response,26
true,10,1,4,0,false,q,true,false,0.0-2.0-0.33-0.305-3.305,1,0,1,90,false,stim,false,0,1756.0,3,1,2,29430,WMM2,847320,false,false,1051,image-keyboard-response,27
true,10,2,4,1,false,z,true,false,0.0-2.0-0.34-0.306-3.306,1,0,1,68,false,stim,false,1,936.0,3,0,1,29430,WMM2,849761,false,false,1054,image-keyboard-response,28
true,10,2,4,0,false,q,true,false,0.0-2.0-0.34-0.307-3.307,1,0,1,68,false,stim,false,0,744.0,3,1,2,29430,WMM2,852012,false,false,1057,image-keyboard-response,29
true,10,0,4,0,true,q,false,true,0.0-2.0-0.34-0.308-3.308,1,0,1,81,false,stim,false,0,666.0000000001164,3,1,2,29430,WMM2,854183,false,false,1060,image-keyboard-response,30
true,10,1,4,1,true,z,false,true,0.0-2.0-0.34-0.309-3.309,1,0,1,90,false,stim,false,1,1555.0,3,1,0,29430,WMM2,857244,false,false,1063,image-keyboard-response,31
true,10,0,4,1,false,z,true,false,0.0-2.0-0.34-0.310-3.310,1,0,1,81,false,stim,false,1,542.0,3,0,1,29430,WMM2,859290,false,false,1066,image-keyboard-response,32
true,10,1,4,1,true,z,false,true,0.0-2.0-0.34-0.311-3.311,1,0,1,90,false,stim,false,1,802.0,3,1,0,29430,WMM2,861596,false,false,1069,image-keyboard-response,33
true,10,1,4,1,true,z,false,true,0.0-2.0-0.34-0.312-3.312,1,0,1,90,false,stim,false,1,599.0,3,1,0,29430,WMM2,863700,false,false,1072,image-keyboard-response,34
true,10,1,4,1,true,z,false,true,0.0-2.0-0.34-0.313-3.313,1,0,1,90,false,stim,false,1,1307.0,3,0,1,29430,WMM2,866513,false,false,1075,image-keyboard-response,35
true,10,0,4,0,true,q,false,true,0.0-2.0-0.34-0.314-3.314,1,0,1,81,false,stim,false,0,620.9999999998836,3,1,2,29430,WMM2,868639,false,false,1078,image-keyboard-response,36
true,10,1,4,1,true,z,false,true,0.0-2.0-0.35-0.315-3.315,1,0,1,90,false,stim,false,1,586.0,3,1,0,29430,WMM2,870732,false,false,1081,image-keyboard-response,37
true,10,1,4,1,true,z,false,true,0.0-2.0-0.35-0.316-3.316,1,0,1,90,false,stim,false,1,563.0,3,1,0,29430,WMM2,872802,false,false,1084,image-keyboard-response,38
true,10,1,4,1,true,z,false,true,0.0-2.0-0.35-0.317-3.317,1,0,1,90,false,stim,false,1,532.0,3,1,0,29430,WMM2,874838,false,false,1087,image-keyboard-response,39
true,10,1,4,1,true,z,false,true,0.0-2.0-0.35-0.318-3.318,1,0,1,90,false,stim,false,1,496.0,3,0,1,29430,WMM2,876841,false,false,1090,image-keyboard-response,40
true,10,0,4,0,true,q,false,true,0.0-2.0-0.35-0.319-3.319,1,0,1,81,false,stim,false,0,2207.0,3,0,2,29430,WMM2,880554,false,false,1093,image-keyboard-response,41
true,10,0,4,0,true,q,false,true,0.0-2.0-0.35-0.320-3.320,1,0,1,81,false,stim,false,0,645.0,3,0,2,29430,WMM2,882703,false,false,1096,image-keyboard-response,42
true,10,1,4,1,true,z,false,false,0.0-2.0-0.35-0.321-3.321,1,0,1,90,false,stim,false,1,552.0,3,1,1,29430,WMM2,884761,false,true,1099,image-keyboard-response,43
true,10,0,4,0,true,q,false,true,0.0-2.0-0.35-0.322-3.322,1,0,1,81,false,stim,false,0,921.0,3,0,2,29430,WMM2,887191,false,false,1102,image-keyboard-response,44
true,10,1,4,1,true,z,false,true,0.0-2.0-0.35-0.323-3.323,1,0,1,90,false,stim,false,1,656.0,3,1,1,29430,WMM2,889351,false,false,1105,image-keyboard-response,45
true,10,1,4,1,true,z,false,true,0.0-2.0-0.36-0.324-3.324,1,0,1,90,false,stim,false,1,463.0,3,1,1,29430,WMM2,891320,false,false,1108,image-keyboard-response,46
true,10,0,4,0,true,q,false,true,0.0-2.0-0.36-0.325-3.325,1,0,1,81,false,stim,false,0,700.0,3,0,2,29430,WMM2,893525,false,false,1111,image-keyboard-response,47
true,10,0,4,0,true,q,false,true,0.0-2.0-0.36-0.326-3.326,1,0,1,81,false,stim,false,0,588.0,3,0,2,29430,WMM2,895617,false,false,1114,image-keyboard-response,48
true,10,1,4,1,true,z,false,true,0.0-2.0-0.36-0.327-3.327,1,0,1,90,false,stim,false,1,779.0,3,1,0,29430,WMM2,897901,false,false,1117,image-keyboard-response,49
true,10,1,4,1,true,z,false,true,0.0-2.0-0.36-0.328-3.328,1,0,1,90,false,stim,false,1,813.0,3,1,0,29430,WMM2,900220,false,false,1120,image-keyboard-response,50
true,11,1,3,1,true,z,false,true,0.0-2.0-0.36-0.329-3.329,1,1,0,90,true,stim,false,1,486.0,3,1,0,29430,WMM2,902210,false,false,1123,image-keyboard-response,1
true,11,0,3,1,false,z,true,false,0.0-2.0-0.36-0.330-3.330,1,1,0,81,false,stim,false,1,1048.9999999998836,3,1,1,29430,WMM2,904764,false,false,1126,image-keyboard-response,2
true,11,0,3,1,false,z,true,false,0.0-2.0-0.36-0.331-3.331,1,1,0,81,false,stim,false,1,553.0,3,1,1,29430,WMM2,906823,false,false,1129,image-keyboard-response,3
true,11,0,3,2,false,d,false,false,0.0-2.0-0.36-0.332-3.332,1,1,0,81,false,stim,true,0,2738.0,3,0,2,29430,WMM2,911065,false,false,1132,image-keyboard-response,4
true,11,1,3,1,true,z,false,true,0.0-2.0-0.37-0.333-3.333,1,1,0,90,false,stim,false,1,663.9999999998836,3,1,0,29430,WMM2,913235,false,false,1135,image-keyboard-response,5
true,11,1,3,1,true,z,false,true,0.0-2.0-0.37-0.334-3.334,1,1,0,90,false,stim,false,1,1195.0,3,1,1,29430,WMM2,915935,false,false,1138,image-keyboard-response,6
true,11,2,3,2,true,d,false,true,0.0-2.0-0.37-0.335-3.335,1,1,0,68,false,stim,false,0,946.9999999998836,3,0,2,29430,WMM2,918388,false,false,1141,image-keyboard-response,7
true,11,1,3,1,true,z,false,true,0.0-2.0-0.37-0.336-3.336,1,1,0,90,false,stim,false,1,542.9999999998836,3,1,0,29430,WMM2,920436,false,false,1144,image-keyboard-response,8
true,11,1,3,1,true,z,false,true,0.0-2.0-0.37-0.337-3.337,1,1,0,90,false,stim,false,1,418.9999999998836,3,1,0,29430,WMM2,922360,false,false,1147,image-keyboard-response,9
true,11,1,3,1,true,z,false,true,0.0-2.0-0.37-0.338-3.338,1,1,0,90,false,stim,false,1,665.0,3,1,1,29430,WMM2,924530,false,false,1150,image-keyboard-response,10
true,11,2,3,2,true,d,false,true,0.0-2.0-0.37-0.339-3.339,1,1,0,68,false,stim,false,0,588.0,3,0,2,29430,WMM2,926623,false,false,1153,image-keyboard-response,11
true,11,1,3,1,true,z,false,true,0.0-2.0-0.37-0.340-3.340,1,1,0,90,false,stim,false,1,949.0,3,1,1,29430,WMM2,929076,false,false,1156,image-keyboard-response,12
true,11,2,3,2,true,d,false,true,0.0-2.0-0.37-0.341-3.341,1,1,0,68,false,stim,false,0,800.9999999998836,3,0,2,29430,WMM2,931382,false,false,1159,image-keyboard-response,13
true,11,2,3,2,true,d,false,true,0.0-2.0-0.38-0.342-3.342,1,1,0,68,false,stim,false,0,620.0,3,0,2,29430,WMM2,933508,false,false,1162,image-keyboard-response,14
true,11,1,3,1,true,z,false,true,0.0-2.0-0.38-0.343-3.343,1,1,0,90,false,stim,false,1,543.0,3,1,0,29430,WMM2,935556,false,false,1165,image-keyboard-response,15
true,11,1,3,1,true,z,false,true,0.0-2.0-0.38-0.344-3.344,1,1,0,90,false,stim,false,1,485.0000000001164,3,1,0,29430,WMM2,937547,false,false,1168,image-keyboard-response,16
true,11,1,3,1,true,z,false,false,0.0-2.0-0.38-0.345-3.345,1,1,0,90,false,stim,false,1,823.9999999998836,3,1,1,29430,WMM2,939876,false,true,1171,image-keyboard-response,17
true,11,1,3,1,true,z,false,true,0.0-2.0-0.38-0.346-3.346,1,1,0,90,false,stim,false,1,498.0000000001164,3,1,1,29430,WMM2,941879,false,false,1174,image-keyboard-response,18
true,11,2,3,2,true,d,false,true,0.0-2.0-0.38-0.347-3.347,1,1,0,68,false,stim,false,0,519.0,3,0,2,29430,WMM2,943903,false,false,1177,image-keyboard-response,19
true,11,1,3,1,true,z,false,true,0.0-2.0-0.38-0.348-3.348,1,1,0,90,false,stim,false,1,464.9999999998836,3,1,1,29430,WMM2,945872,false,false,1180,image-keyboard-response,20
true,11,2,3,2,true,d,false,true,0.0-2.0-0.38-0.349-3.349,1,1,0,68,false,stim,false,0,689.0,3,1,2,29430,WMM2,948067,false,false,1183,image-keyboard-response,21
true,11,1,3,1,true,z,false,true,0.0-2.0-0.38-0.350-3.350,1,1,0,90,false,stim,false,1,643.0000000001164,3,1,0,29430,WMM2,950215,false,false,1186,image-keyboard-response,22
true,11,1,3,1,true,z,false,true,0.0-2.0-0.39-0.351-3.351,1,1,0,90,false,stim,false,1,868.0,3,0,1,29430,WMM2,952589,false,false,1189,image-keyboard-response,23
true,11,1,3,1,true,z,false,true,0.0-2.0-0.39-0.352-3.352,1,1,0,90,false,stim,false,1,814.0,3,0,1,29430,WMM2,954906,false,false,1192,image-keyboard-response,24
true,11,1,3,1,true,z,false,true,0.0-2.0-0.39-0.353-3.353,1,1,0,90,false,stim,false,1,1105.0,3,1,0,29430,WMM2,957516,false,false,1195,image-keyboard-response,25
true,11,2,3,2,true,d,false,true,0.0-2.0-0.39-0.354-3.354,1,1,0,68,false,stim,false,0,778.0,3,1,2,29430,WMM2,959800,false,false,1198,image-keyboard-response,26
true,11,2,3,2,true,d,false,true,0.0-2.0-0.39-0.355-3.355,1,1,0,68,false,stim,false,0,416.0000000001164,3,1,2,29430,WMM2,961724,false,false,1201,image-keyboard-response,27
true,11,1,3,1,true,z,false,true,0.0-2.0-0.39-0.356-3.356,1,1,0,90,false,stim,false,1,676.9999999998836,3,1,0,29430,WMM2,963906,false,false,1204,image-keyboard-response,28
true,11,1,3,1,true,z,false,true,0.0-2.0-0.39-0.357-3.357,1,1,0,90,false,stim,false,1,509.0,3,1,0,29430,WMM2,965920,false,false,1207,image-keyboard-response,29
true,11,2,3,2,true,d,false,true,0.0-2.0-0.39-0.358-3.358,1,1,0,68,false,stim,false,0,790.0,3,1,2,29430,WMM2,968215,false,false,1210,image-keyboard-response,30
true,12,1,2,0,false,q,false,false,0.0-2.0-0.39-0.359-3.359,1,0,1,90,true,stim,true,1,824.9999999998836,3,0,1,29430,WMM2,970544,false,false,1213,image-keyboard-response,1
true,12,1,2,0,false,q,false,false,0.0-2.0-0.40-0.360-3.360,1,0,1,90,false,stim,true,1,464.0,3,0,1,29430,WMM2,972513,false,false,1216,image-keyboard-response,2
true,12,2,2,1,false,z,true,false,0.0-2.0-0.40-0.361-3.361,1,0,1,68,false,stim,false,1,632.0,3,1,0,29430,WMM2,974650,false,false,1219,image-keyboard-response,3
true,12,2,2,2,true,d,false,true,0.0-2.0-0.40-0.362-3.362,1,0,1,68,false,stim,false,2,790.0000000001164,3,1,2,29430,WMM2,976946,false,false,1222,image-keyboard-response,4
true,12,2,2,0,false,q,true,false,0.0-2.0-0.40-0.363-3.363,1,0,1,68,false,stim,false,1,1656.9999999998836,3,0,1,29430,WMM2,980107,false,false,1225,image-keyboard-response,5
true,12,1,2,1,true,z,false,true,0.0-2.0-0.40-0.364-3.364,1,0,1,90,false,stim,false,1,690.0000000001164,3,1,0,29430,WMM2,982301,false,false,1228,image-keyboard-response,6
true,12,0,2,0,true,q,false,true,0.0-2.0-0.40-0.365-3.365,1,0,1,81,false,stim,false,1,689.0,3,0,1,29430,WMM2,984495,false,false,1231,image-keyboard-response,7
true,12,2,2,2,true,d,false,true,0.0-2.0-0.40-0.366-3.366,1,0,1,68,false,stim,false,2,745.0,3,1,2,29430,WMM2,986745,false,false,1234,image-keyboard-response,8
true,12,2,2,2,true,d,false,true,0.0-2.0-0.40-0.367-3.367,1,0,1,68,false,stim,false,2,677.0,3,1,2,29430,WMM2,988927,false,false,1237,image-keyboard-response,9
true,12,1,2,1,true,z,false,true,0.0-2.0-0.40-0.368-3.368,1,0,1,90,false,stim,false,1,542.0000000001164,3,1,0,29430,WMM2,990974,false,false,1240,image-keyboard-response,10
true,12,2,2,2,true,d,false,true,0.0-2.0-0.41-0.369-3.369,1,0,1,68,false,stim,false,2,734.0000000001164,3,1,2,29430,WMM2,993214,false,false,1243,image-keyboard-response,11
true,12,2,2,2,true,d,false,true,0.0-2.0-0.41-0.370-3.370,1,0,1,68,false,stim,false,2,473.9999999998836,3,1,2,29430,WMM2,995194,false,false,1246,image-keyboard-response,12
true,12,1,2,1,true,z,false,true,0.0-2.0-0.41-0.371-3.371,1,0,1,90,false,stim,false,1,1038.0,3,1,0,29430,WMM2,997736,false,false,1249,image-keyboard-response,13
true,12,1,2,1,true,z,false,true,0.0-2.0-0.41-0.372-3.372,1,0,1,90,false,stim,false,1,667.0,3,1,0,29430,WMM2,999908,false,false,1252,image-keyboard-response,14
true,12,0,2,0,true,q,false,true,0.0-2.0-0.41-0.373-3.373,1,0,1,81,false,stim,false,1,1374.0,3,0,1,29430,WMM2,1002788,false,false,1255,image-keyboard-response,15
true,12,1,2,1,true,z,false,true,0.0-2.0-0.41-0.374-3.374,1,0,1,90,false,stim,false,1,857.0,3,1,0,29430,WMM2,1005150,false,false,1258,image-keyboard-response,16
true,12,0,2,0,true,q,false,true,0.0-2.0-0.41-0.375-3.375,1,0,1,81,false,stim,false,1,947.0,3,0,1,29430,WMM2,1007603,false,false,1261,image-keyboard-response,17
true,12,0,2,0,true,q,false,true,0.0-2.0-0.41-0.376-3.376,1,0,1,81,false,stim,false,1,407.0,3,0,1,29430,WMM2,1009515,false,false,1264,image-keyboard-response,18
true,12,2,2,2,true,d,false,true,0.0-2.0-0.41-0.377-3.377,1,0,1,68,false,stim,false,2,768.0,3,1,2,29430,WMM2,1011788,false,false,1267,image-keyboard-response,19
true,12,2,2,2,true,d,false,true,0.0-2.0-0.42-0.378-3.378,1,0,1,68,false,stim,false,2,631.0,3,1,2,29430,WMM2,1013925,false,false,1270,image-keyboard-response,20
true,12,0,2,0,true,q,false,true,0.0-2.0-0.42-0.379-3.379,1,0,1,81,false,stim,false,1,755.9999999998836,3,0,1,29430,WMM2,1016187,false,false,1273,image-keyboard-response,21
true,12,2,2,2,true,d,false,true,0.0-2.0-0.42-0.380-3.380,1,0,1,68,false,stim,false,2,857.0,3,1,2,29430,WMM2,1018549,false,false,1276,image-keyboard-response,22
true,12,0,2,0,true,q,false,true,0.0-2.0-0.42-0.381-3.381,1,0,1,81,false,stim,false,1,678.0,3,0,1,29430,WMM2,1020732,false,false,1279,image-keyboard-response,23
true,12,1,2,1,true,z,false,true,0.0-2.0-0.42-0.382-3.382,1,0,1,90,false,stim,false,1,712.0,3,0,0,29430,WMM2,1022948,false,false,1282,image-keyboard-response,24
true,12,1,2,1,true,z,false,true,0.0-2.0-0.42-0.383-3.383,1,0,1,90,false,stim,false,1,474.0000000001164,3,0,0,29430,WMM2,1024928,false,false,1285,image-keyboard-response,25
true,12,0,2,0,true,q,false,true,0.0-2.0-0.42-0.384-3.384,1,0,1,81,false,stim,false,1,1702.0,3,0,1,29430,WMM2,1028134,false,false,1288,image-keyboard-response,26
true,12,1,2,1,true,z,false,false,0.0-2.0-0.42-0.385-3.385,1,0,1,90,false,stim,false,1,701.0,3,0,0,29430,WMM2,1030340,false,true,1291,image-keyboard-response,27
true,12,2,2,2,true,d,false,true,0.0-2.0-0.42-0.386-3.386,1,0,1,68,false,stim,false,2,677.0,3,1,2,29430,WMM2,1032522,false,false,1294,image-keyboard-response,28
true,12,1,2,1,true,z,false,true,0.0-2.0-0.43-0.387-3.387,1,0,1,90,false,stim,false,1,485.99999999976717,3,0,0,29430,WMM2,1034513,false,false,1297,image-keyboard-response,29
true,12,2,2,2,true,d,false,true,0.0-2.0-0.43-0.388-3.388,1,0,1,68,false,stim,false,2,633.0000000001164,3,1,2,29430,WMM2,1036651,false,false,1300,image-keyboard-response,30
true,13,2,1,2,true,d,false,true,0.0-2.0-0.43-0.389-3.389,0,0,1,68,true,stim,false,2,557.0,3,1,2,29430,WMM2,1038721,false,false,1303,image-keyboard-response,1
true,13,1,1,2,false,d,false,false,0.0-2.0-0.43-0.390-3.390,0,0,1,90,false,stim,true,1,837.0,3,0,0,29430,WMM2,1041062,false,false,1306,image-keyboard-response,2
true,13,0,1,1,false,z,false,false,0.0-2.0-0.43-0.391-3.391,0,0,1,81,false,stim,true,0,699.0000000001164,3,0,1,29430,WMM2,1043266,false,false,1309,image-keyboard-response,3
true,13,1,1,2,false,d,false,false,0.0-2.0-0.43-0.392-3.392,0,0,1,90,false,stim,true,1,924.9999999998836,3,0,0,29430,WMM2,1045696,false,false,1312,image-keyboard-response,4
true,13,1,1,1,true,z,false,true,0.0-2.0-0.43-0.393-3.393,0,0,1,90,false,stim,false,0,1522.0,3,0,1,29430,WMM2,1048722,false,false,1315,image-keyboard-response,5
true,13,1,1,1,true,z,false,true,0.0-2.0-0.43-0.394-3.394,0,0,1,90,false,stim,false,0,600.9999999997672,3,0,1,29430,WMM2,1050826,false,false,1318,image-keyboard-response,6
true,13,2,1,2,true,d,false,true,0.0-2.0-0.43-0.395-3.395,0,0,1,68,false,stim,false,2,611.0,3,1,2,29430,WMM2,1052941,false,false,1321,image-keyboard-response,7
true,13,2,1,2,true,d,false,true,0.0-2.0-0.44-0.396-3.396,0,0,1,68,false,stim,false,2,756.0,3,1,2,29430,WMM2,1055203,false,false,1324,image-keyboard-response,8
true,13,1,1,1,true,z,false,true,0.0-2.0-0.44-0.397-3.397,0,0,1,90,false,stim,false,0,442.99999999976717,3,0,1,29430,WMM2,1057149,false,false,1327,image-keyboard-response,9
true,13,0,1,2,false,d,true,true,0.0-2.0-0.44-0.398-3.398,0,0,1,81,false,stim,false,1,1487.0,3,0,0,29430,WMM2,1060141,false,true,1330,image-keyboard-response,10
true,13,0,1,2,false,d,true,false,0.0-2.0-0.44-0.399-3.399,0,0,1,81,false,stim,false,1,588.0,3,0,0,29430,WMM2,1062234,false,false,1333,image-keyboard-response,11
true,13,1,1,1,true,z,false,true,0.0-2.0-0.44-0.400-3.400,0,0,1,90,false,stim,false,0,475.0,3,0,1,29430,WMM2,1064214,false,false,1336,image-keyboard-response,12
true,13,2,1,2,true,d,false,true,0.0-2.0-0.44-0.401-3.401,0,0,1,68,false,stim,false,2,587.0,3,1,2,29430,WMM2,1066306,false,false,1339,image-keyboard-response,13
true,13,1,1,1,true,z,false,true,0.0-2.0-0.44-0.402-3.402,0,0,1,90,false,stim,false,0,1015.0,3,0,1,29430,WMM2,1068827,false,false,1342,image-keyboard-response,14
true,13,2,1,2,true,d,false,true,0.0-2.0-0.44-0.403-3.403,0,0,1,68,false,stim,false,2,452.99999999976717,3,1,2,29430,WMM2,1070785,false,false,1345,image-keyboard-response,15
true,13,0,1,2,false,d,true,false,0.0-2.0-0.44-0.404-3.404,0,0,1,81,false,stim,false,1,576.0,3,0,0,29430,WMM2,1072865,false,false,1348,image-keyboard-response,16
true,13,2,1,2,true,d,false,true,0.0-2.0-0.45-0.405-3.405,0,0,1,68,false,stim,false,2,722.0,3,1,2,29430,WMM2,1075093,false,false,1351,image-keyboard-response,17
true,13,1,1,1,true,z,false,true,0.0-2.0-0.45-0.406-3.406,0,0,1,90,false,stim,false,0,610.0,3,0,1,29430,WMM2,1077208,false,false,1354,image-keyboard-response,18
true,13,2,1,2,true,d,false,true,0.0-2.0-0.45-0.407-3.407,0,0,1,68,false,stim,false,2,712.0,3,1,2,29430,WMM2,1079424,false,false,1357,image-keyboard-response,19
true,13,0,1,2,false,d,true,false,0.0-2.0-0.45-0.408-3.408,0,0,1,81,false,stim,false,1,622.0,3,0,0,29430,WMM2,1081551,false,false,1360,image-keyboard-response,20
true,13,0,1,2,false,d,true,false,0.0-2.0-0.45-0.409-3.409,0,0,1,81,false,stim,false,1,1329.0,3,0,0,29430,WMM2,1084386,false,false,1363,image-keyboard-response,21
true,13,1,1,1,true,z,false,true,0.0-2.0-0.45-0.410-3.410,0,0,1,90,false,stim,false,0,475.0,3,0,1,29430,WMM2,1086366,false,false,1366,image-keyboard-response,22
true,13,1,1,2,false,d,false,true,0.0-2.0-0.45-0.411-3.411,0,0,1,90,false,stim,true,1,432.0,3,0,0,29430,WMM2,1088301,false,true,1369,image-keyboard-response,23
true,13,1,1,1,true,z,false,true,0.0-2.0-0.45-0.412-3.412,0,0,1,90,false,stim,false,0,1183.0,3,0,1,29430,WMM2,1090990,false,false,1372,image-keyboard-response,24
true,13,2,1,2,true,d,false,true,0.0-2.0-0.45-0.413-3.413,0,0,1,68,false,stim,false,2,554.0,3,1,2,29430,WMM2,1093049,false,false,1375,image-keyboard-response,25
true,13,1,1,2,false,d,false,false,0.0-2.0-0.46-0.414-3.414,0,0,1,90,false,stim,true,1,654.0,3,0,0,29430,WMM2,1095208,false,false,1378,image-keyboard-response,26
true,13,2,1,1,false,z,true,false,0.0-2.0-0.46-0.415-3.415,0,0,1,68,false,stim,false,0,1093.0,3,0,1,29430,WMM2,1097807,false,false,1381,image-keyboard-response,27
true,13,2,1,1,false,z,true,false,0.0-2.0-0.46-0.416-3.416,0,0,1,68,false,stim,false,0,812.0,3,0,1,29430,WMM2,1100125,false,false,1384,image-keyboard-response,28
true,13,1,1,2,false,d,false,false,0.0-2.0-0.46-0.417-3.417,0,0,1,90,false,stim,true,1,811.0,3,0,0,29430,WMM2,1102442,false,false,1387,image-keyboard-response,29
true,13,2,1,2,true,d,false,true,0.0-2.0-0.46-0.418-3.418,0,0,1,68,false,stim,false,2,1002.0,3,1,2,29430,WMM2,1104951,false,false,1390,image-keyboard-response,30
true,13,2,1,1,false,z,true,false,0.0-2.0-0.46-0.419-3.419,0,0,1,68,false,stim,false,0,442.0,3,0,1,29430,WMM2,1106898,false,false,1393,image-keyboard-response,31
true,13,1,1,2,false,d,false,false,0.0-2.0-0.46-0.420-3.420,0,0,1,90,false,stim,true,1,1003.0,3,0,0,29430,WMM2,1109406,false,false,1396,image-keyboard-response,32
true,13,2,1,2,true,d,false,true,0.0-2.0-0.46-0.421-3.421,0,0,1,68,false,stim,false,2,879.0,3,1,2,29430,WMM2,1111792,false,false,1399,image-keyboard-response,33
true,13,2,1,2,true,d,false,true,0.0-2.0-0.46-0.422-3.422,0,0,1,68,false,stim,false,2,470.0,3,1,2,29430,WMM2,1113771,false,false,1402,image-keyboard-response,34
true,13,2,1,2,true,d,false,true,0.0-2.0-0.47-0.423-3.423,0,0,1,68,false,stim,false,1,710.0,3,0,0,29430,WMM2,1115987,false,false,1405,image-keyboard-response,35
true,13,0,1,1,false,z,false,false,0.0-2.0-0.47-0.424-3.424,0,0,1,81,false,stim,true,0,1049.0,3,0,1,29430,WMM2,1118542,false,false,1408,image-keyboard-response,36
true,13,1,1,1,true,z,false,true,0.0-2.0-0.47-0.425-3.425,0,0,1,90,false,stim,false,0,1014.0,3,0,1,29430,WMM2,1121061,false,false,1411,image-keyboard-response,37
true,13,2,1,2,true,d,false,true,0.0-2.0-0.47-0.426-3.426,0,0,1,68,false,stim,false,1,767.0,3,0,0,29430,WMM2,1123334,false,false,1414,image-keyboard-response,38
true,13,2,1,2,true,d,false,false,0.0-2.0-0.47-0.427-3.427,0,0,1,68,false,stim,false,2,790.0,3,1,2,29430,WMM2,1125629,false,true,1417,image-keyboard-response,39
true,13,2,1,2,true,d,false,true,0.0-2.0-0.47-0.428-3.428,0,0,1,68,false,stim,false,2,508.0,3,1,2,29430,WMM2,1127643,false,false,1420,image-keyboard-response,40
true,13,1,1,1,true,z,false,true,0.0-2.0-0.47-0.429-3.429,0,0,1,90,false,stim,false,0,699.0,3,0,1,29430,WMM2,1129848,false,false,1423,image-keyboard-response,41
true,13,2,1,2,true,d,false,true,0.0-2.0-0.47-0.430-3.430,0,0,1,68,false,stim,false,2,722.0,3,1,2,29430,WMM2,1132075,false,false,1426,image-keyboard-response,42
true,13,1,1,2,false,d,false,false,0.0-2.0-0.47-0.431-3.431,0,0,1,90,false,stim,true,1,1084.0,3,0,0,29430,WMM2,1134664,false,false,1429,image-keyboard-response,43
true,13,1,1,2,false,d,true,false,0.0-2.0-0.48-0.432-3.432,0,0,1,90,false,stim,false,2,485.0,3,1,2,29430,WMM2,1136654,false,false,1432,image-keyboard-response,44
true,13,1,1,2,false,d,false,false,0.0-2.0-0.48-0.433-3.433,0,0,1,90,false,stim,true,1,711.0,3,0,0,29430,WMM2,1138871,false,false,1435,image-keyboard-response,45
true,13,1,1,2,false,d,true,false,0.0-2.0-0.48-0.434-3.434,0,0,1,90,false,stim,false,2,1061.0,3,1,2,29430,WMM2,1141438,false,false,1438,image-keyboard-response,46
true,13,0,1,2,false,d,true,true,0.0-2.0-0.48-0.435-3.435,0,0,1,81,false,stim,false,1,1361.0,3,0,0,29430,WMM2,1144305,false,true,1441,image-keyboard-response,47
true,13,0,1,1,false,z,false,false,0.0-2.0-0.48-0.436-3.436,0,0,1,81,false,stim,true,0,1026.0,3,1,1,29430,WMM2,1146836,false,false,1444,image-keyboard-response,48
true,13,0,1,2,false,d,true,false,0.0-2.0-0.48-0.437-3.437,0,0,1,81,false,stim,false,1,621.9999999997672,3,0,0,29430,WMM2,1148962,false,false,1447,image-keyboard-response,49
true,13,2,1,1,false,z,true,false,0.0-2.0-0.48-0.438-3.438,0,0,1,68,false,stim,false,0,903.0,3,1,1,29430,WMM2,1151370,false,false,1450,image-keyboard-response,50
true,13,0,1,2,false,d,true,false,0.0-2.0-0.48-0.439-3.439,0,0,1,81,false,stim,false,2,2410.0,3,1,2,29430,WMM2,1155286,false,false,1453,image-keyboard-response,51
true,14,0,0,1,false,z,true,false,0.0-2.0-0.48-0.440-3.440,0,1,1,81,true,stim,false,1,779.0,3,1,1,29430,WMM2,1189722,false,false,1489,image-keyboard-response,1
true,14,0,0,2,false,d,true,false,0.0-2.0-0.49-0.441-3.441,0,1,1,81,false,stim,false,2,1904.0,3,1,2,29430,WMM2,1193131,false,false,1492,image-keyboard-response,2
true,14,0,0,2,false,d,true,true,0.0-2.0-0.49-0.442-3.442,0,1,1,81,false,stim,false,2,1621.0,3,0,0,29430,WMM2,1196258,false,true,1495,image-keyboard-response,3
true,14,0,0,2,false,d,true,false,0.0-2.0-0.49-0.443-3.443,0,1,1,81,false,stim,false,2,576.0000000002328,3,0,0,29430,WMM2,1198340,false,false,1498,image-keyboard-response,4
true,14,2,0,2,true,d,false,false,0.0-2.0-0.49-0.444-3.444,0,1,1,68,false,stim,false,2,1122.9999999997672,3,1,2,29430,WMM2,1200972,false,true,1501,image-keyboard-response,5
true,14,2,0,1,false,z,true,false,0.0-2.0-0.49-0.445-3.445,0,1,1,68,false,stim,false,1,2062.0,3,1,1,29430,WMM2,1204540,false,false,1504,image-keyboard-response,6
true,14,1,0,1,true,z,false,true,0.0-2.0-0.49-0.446-3.446,0,1,1,90,false,stim,false,1,889.0,3,1,1,29430,WMM2,1206935,false,false,1507,image-keyboard-response,7
true,14,0,0,2,false,d,true,false,0.0-2.0-0.49-0.447-3.447,0,1,1,81,false,stim,false,2,812.0000000002328,3,0,0,29430,WMM2,1209253,false,false,1510,image-keyboard-response,8
true,14,0,0,2,false,d,true,true,0.0-2.0-0.49-0.448-3.448,0,1,1,81,false,stim,false,2,1150.0,3,1,2,29430,WMM2,1211908,false,true,1513,image-keyboard-response,9
true,14,1,0,1,true,z,false,true,0.0-2.0-0.49-0.449-3.449,0,1,1,90,false,stim,false,1,600.0,3,1,1,29430,WMM2,1214011,false,false,1516,image-keyboard-response,10
true,14,1,0,2,false,d,true,false,0.0-2.0-0.50-0.450-3.450,0,1,1,90,false,stim,false,2,1566.0,3,0,0,29430,WMM2,1217083,false,false,1519,image-keyboard-response,11
true,14,1,0,2,false,d,true,false,0.0-2.0-0.50-0.451-3.451,0,1,1,90,false,stim,false,2,620.0,3,1,2,29430,WMM2,1219209,false,false,1522,image-keyboard-response,12
true,14,1,0,1,true,z,false,true,0.0-2.0-0.50-0.452-3.452,0,1,1,90,false,stim,false,1,800.9999999997672,3,1,1,29430,WMM2,1221516,false,false,1525,image-keyboard-response,13
true,14,1,0,1,true,z,false,true,0.0-2.0-0.50-0.453-3.453,0,1,1,90,false,stim,false,1,810.9999999997672,3,1,1,29430,WMM2,1223833,false,false,1528,image-keyboard-response,14
true,14,1,0,1,true,z,false,true,0.0-2.0-0.50-0.454-3.454,0,1,1,90,false,stim,false,1,566.0,3,1,1,29430,WMM2,1225903,false,false,1531,image-keyboard-response,15
true,14,2,0,2,true,d,false,true,0.0-2.0-0.50-0.455-3.455,0,1,1,68,false,stim,false,2,453.0,3,0,0,29430,WMM2,1227860,false,false,1534,image-keyboard-response,16
true,14,2,0,2,true,d,false,true,0.0-2.0-0.50-0.456-3.456,0,1,1,68,false,stim,false,2,845.0,3,1,2,29430,WMM2,1230212,false,false,1537,image-keyboard-response,17
true,14,2,0,2,true,d,false,true,0.0-2.0-0.50-0.457-3.457,0,1,1,68,false,stim,false,2,621.0,3,1,2,29430,WMM2,1232338,false,false,1540,image-keyboard-response,18
true,14,2,0,2,true,d,false,true,0.0-2.0-0.50-0.458-3.458,0,1,1,68,false,stim,false,2,1320.0,3,0,0,29430,WMM2,1235162,false,false,1543,image-keyboard-response,19
true,14,1,0,1,true,z,false,true,0.0-2.0-0.51-0.459-3.459,0,1,1,90,false,stim,false,1,563.0,3,1,1,29430,WMM2,1237232,false,false,1546,image-keyboard-response,20
true,14,2,0,2,true,d,false,true,0.0-2.0-0.51-0.460-3.460,0,1,1,68,false,stim,false,2,868.0,3,0,0,29430,WMM2,1239606,false,false,1549,image-keyboard-response,21
true,14,2,0,2,true,d,false,true,0.0-2.0-0.51-0.461-3.461,0,1,1,68,false,stim,false,2,632.0,3,1,2,29430,WMM2,1241744,false,false,1552,image-keyboard-response,22
true,14,1,0,1,true,z,false,false,0.0-2.0-0.51-0.462-3.462,0,1,1,90,false,stim,false,1,576.0,3,0,1,29430,WMM2,1243825,false,true,1555,image-keyboard-response,23
true,14,2,0,2,true,d,false,true,0.0-2.0-0.51-0.463-3.463,0,1,1,68,false,stim,false,2,645.0000000002328,3,1,2,29430,WMM2,1245973,false,false,1558,image-keyboard-response,24
true,14,1,0,2,false,d,true,false,0.0-2.0-0.51-0.464-3.464,0,1,1,90,false,stim,false,2,856.0,3,0,0,29430,WMM2,1248336,false,false,1561,image-keyboard-response,25
true,14,0,0,2,false,d,true,true,0.0-2.0-0.51-0.465-3.465,0,1,1,81,false,stim,false,2,970.0,3,0,0,29430,WMM2,1250811,false,true,1564,image-keyboard-response,26
true,14,1,0,1,true,z,false,true,0.0-2.0-0.51-0.466-3.466,0,1,1,90,false,stim,false,1,2197.0,3,0,1,29430,WMM2,1254513,false,false,1567,image-keyboard-response,27
true,14,2,0,2,true,d,false,true,0.0-2.0-0.51-0.467-3.467,0,1,1,68,false,stim,false,2,768.0,3,1,2,29430,WMM2,1256785,false,false,1570,image-keyboard-response,28
true,14,0,0,2,false,d,true,false,0.0-2.0-0.52-0.468-3.468,0,1,1,81,false,stim,false,2,632.0,3,0,0,29430,WMM2,1258922,false,false,1573,image-keyboard-response,29
true,14,0,0,2,false,d,true,false,0.0-2.0-0.52-0.469-3.469,0,1,1,81,false,stim,false,2,690.0,3,0,0,29430,WMM2,1261116,false,false,1576,image-keyboard-response,30
true,15,2,1,2,true,d,false,true,0.0-2.0-0.52-0.470-3.470,0,0,1,68,true,stim,false,2,700.0,3,1,2,29430,WMM2,1263321,false,false,1579,image-keyboard-response,1
true,15,1,1,0,false,q,false,false,0.0-2.0-0.52-0.471-3.471,0,0,1,90,false,stim,true,1,554.0,3,0,1,29430,WMM2,1265380,false,false,1582,image-keyboard-response,2
true,15,2,1,2,true,d,false,true,0.0-2.0-0.52-0.472-3.472,0,0,1,68,false,stim,false,2,689.0,3,1,2,29430,WMM2,1267574,false,false,1585,image-keyboard-response,3
true,15,2,1,2,true,d,false,true,0.0-2.0-0.52-0.473-3.473,0,0,1,68,false,stim,false,2,643.0000000002328,3,1,2,29430,WMM2,1269723,false,false,1588,image-keyboard-response,4
true,15,2,1,0,false,q,true,true,0.0-2.0-0.52-0.474-3.474,0,0,1,68,false,stim,false,1,464.0,3,0,1,29430,WMM2,1271692,false,true,1591,image-keyboard-response,5
true,15,1,1,0,false,q,true,false,0.0-2.0-0.52-0.475-3.475,0,0,1,90,false,stim,false,2,609.0,3,0,0,29430,WMM2,1273806,false,false,1594,image-keyboard-response,6
true,15,2,1,0,false,q,true,false,0.0-2.0-0.52-0.476-3.476,0,0,1,68,false,stim,false,1,430.00000000023283,3,0,1,29430,WMM2,1275742,false,false,1597,image-keyboard-response,7
true,15,2,1,0,false,q,true,true,0.0-2.0-0.53-0.477-3.477,0,0,1,68,false,stim,false,1,811.0,3,0,1,29430,WMM2,1278059,false,true,1600,image-keyboard-response,8
true,15,2,1,0,false,q,true,false,0.0-2.0-0.53-0.478-3.478,0,0,1,68,false,stim,false,1,539.0,3,0,1,29430,WMM2,1280107,false,false,1603,image-keyboard-response,9
true,15,0,1,0,true,q,false,true,0.0-2.0-0.53-0.479-3.479,0,0,1,81,false,stim,false,2,992.0,3,0,0,29430,WMM2,1282604,false,false,1606,image-keyboard-response,10
true,15,2,1,2,true,d,false,true,0.0-2.0-0.53-0.480-3.480,0,0,1,68,false,stim,false,2,1522.9999999997672,3,1,2,29430,WMM2,1285630,false,false,1609,image-keyboard-response,11
true,15,2,1,2,true,d,false,true,0.0-2.0-0.53-0.481-3.481,0,0,1,68,false,stim,false,2,508.0,3,1,2,29430,WMM2,1287644,false,false,1612,image-keyboard-response,12
true,15,0,1,0,true,q,false,true,0.0-2.0-0.53-0.482-3.482,0,0,1,81,false,stim,false,2,667.0,3,0,0,29430,WMM2,1289816,false,false,1615,image-keyboard-response,13
true,15,0,1,0,true,q,false,false,0.0-2.0-0.53-0.483-3.483,0,0,1,81,false,stim,false,2,451.0,3,0,0,29430,WMM2,1291773,false,true,1618,image-keyboard-response,14
true,15,2,1,2,true,d,false,true,0.0-2.0-0.53-0.484-3.484,0,0,1,68,false,stim,false,2,789.0,3,1,2,29430,WMM2,1294068,false,false,1621,image-keyboard-response,15
true,15,1,1,0,false,q,false,false,0.0-2.0-0.53-0.485-3.485,0,0,1,90,false,stim,true,1,577.0,3,0,1,29430,WMM2,1296149,false,false,1624,image-keyboard-response,16
true,15,0,1,0,true,q,false,true,0.0-2.0-0.54-0.486-3.486,0,0,1,81,false,stim,false,2,667.0,3,0,0,29430,WMM2,1298322,false,false,1627,image-keyboard-response,17
true,15,2,1,2,true,d,false,true,0.0-2.0-0.54-0.487-3.487,0,0,1,68,false,stim,false,2,879.0,3,1,2,29430,WMM2,1300706,false,false,1630,image-keyboard-response,18
true,15,2,1,0,false,q,true,false,0.0-2.0-0.54-0.488-3.488,0,0,1,68,false,stim,false,1,1185.0000000002328,3,0,1,29430,WMM2,1303396,false,false,1633,image-keyboard-response,19
true,15,0,1,0,true,q,false,true,0.0-2.0-0.54-0.489-3.489,0,0,1,81,false,stim,false,2,655.0,3,0,0,29430,WMM2,1305555,false,false,1636,image-keyboard-response,20
true,15,0,1,0,true,q,false,true,0.0-2.0-0.54-0.490-3.490,0,0,1,81,false,stim,false,1,1239.0000000002328,3,0,1,29430,WMM2,1308300,false,false,1639,image-keyboard-response,21
true,15,2,1,2,true,d,false,true,0.0-2.0-0.54-0.491-3.491,0,0,1,68,false,stim,false,2,878.0000000002328,3,1,2,29430,WMM2,1310685,false,false,1642,image-keyboard-response,22
true,15,0,1,0,true,q,false,true,0.0-2.0-0.54-0.492-3.492,0,0,1,81,false,stim,false,2,564.0,3,0,0,29430,WMM2,1312755,false,false,1645,image-keyboard-response,23
true,15,0,1,0,true,q,false,true,0.0-2.0-0.54-0.493-3.493,0,0,1,81,false,stim,false,1,519.0,3,0,1,29430,WMM2,1314780,false,false,1648,image-keyboard-response,24
true,15,2,1,2,true,d,false,true,0.0-2.0-0.54-0.494-3.494,0,0,1,68,false,stim,false,2,722.0,3,1,2,29430,WMM2,1317007,false,false,1651,image-keyboard-response,25
true,15,0,1,0,true,q,false,true,0.0-2.0-0.55-0.495-3.495,0,0,1,81,false,stim,false,2,587.0,3,0,0,29430,WMM2,1319100,false,false,1654,image-keyboard-response,26
true,15,0,1,0,true,q,false,true,0.0-2.0-0.55-0.496-3.496,0,0,1,81,false,stim,false,2,542.0,3,0,0,29430,WMM2,1321148,false,false,1657,image-keyboard-response,27
true,15,0,1,0,true,q,false,true,0.0-2.0-0.55-0.497-3.497,0,0,1,81,false,stim,false,2,791.0000000002328,3,0,0,29430,WMM2,1323444,false,false,1660,image-keyboard-response,28
true,15,0,1,0,true,q,false,true,0.0-2.0-0.55-0.498-3.498,0,0,1,81,false,stim,false,1,577.0,3,1,1,29430,WMM2,1325524,false,false,1663,image-keyboard-response,29
true,15,2,1,2,true,d,false,false,0.0-2.0-0.55-0.499-3.499,0,0,1,68,false,stim,false,2,891.0,3,1,2,29430,WMM2,1327920,false,true,1666,image-keyboard-response,30
true,15,2,1,2,true,d,false,true,0.0-2.0-0.55-0.500-3.500,0,0,1,68,false,stim,false,2,869.0,3,1,2,29430,WMM2,1330294,false,false,1669,image-keyboard-response,31
true,15,0,1,2,false,d,true,false,0.0-2.0-0.55-0.501-3.501,0,0,1,81,false,stim,false,2,678.0,3,1,2,29430,WMM2,1332477,false,false,1672,image-keyboard-response,32
true,15,0,1,0,true,q,false,true,0.0-2.0-0.55-0.502-3.502,0,0,1,81,false,stim,false,1,519.0,3,1,1,29430,WMM2,1334502,false,false,1675,image-keyboard-response,33
true,15,0,1,0,true,q,false,false,0.0-2.0-0.55-0.503-3.503,0,0,1,81,false,stim,false,1,610.0000000002328,3,1,1,29430,WMM2,1336617,false,true,1678,image-keyboard-response,34
true,16,0,4,0,true,q,false,false,0.0-2.0-0.56-0.504-3.504,0,1,1,81,true,stim,false,0,1037.0,3,1,1,29430,WMM2,1339160,false,true,1681,image-keyboard-response,1
true,16,0,4,0,true,q,false,true,0.0-2.0-0.56-0.505-3.505,0,1,1,81,false,stim,false,0,1025.9999999997672,3,0,0,29430,WMM2,1341691,false,false,1684,image-keyboard-response,2
true,16,2,4,2,true,d,false,false,0.0-2.0-0.56-0.506-3.506,0,1,1,68,false,stim,false,2,924.0,3,1,2,29430,WMM2,1344121,false,true,1687,image-keyboard-response,3
true,16,0,4,0,true,q,false,true,0.0-2.0-0.56-0.507-3.507,0,1,1,81,false,stim,false,0,847.0000000002328,3,0,0,29430,WMM2,1346472,false,false,1690,image-keyboard-response,4
true,16,1,4,2,false,d,true,true,0.0-2.0-0.56-0.508-3.508,0,1,1,90,false,stim,false,2,981.0,3,1,2,29430,WMM2,1348958,false,true,1693,image-keyboard-response,5
true,16,0,4,0,true,q,false,true,0.0-2.0-0.56-0.509-3.509,0,1,1,81,false,stim,false,0,800.9999999997672,3,0,0,29430,WMM2,1351265,false,false,1696,image-keyboard-response,6
true,16,1,4,0,false,q,true,true,0.0-2.0-0.56-0.510-3.510,0,1,1,90,false,stim,false,0,1183.9999999997672,3,1,1,29430,WMM2,1353954,false,true,1699,image-keyboard-response,7
true,16,1,4,2,false,d,true,true,0.0-2.0-0.56-0.511-3.511,0,1,1,90,false,stim,false,2,526.0,3,1,2,29430,WMM2,1355990,false,true,1702,image-keyboard-response,8
true,16,1,4,0,false,q,true,false,0.0-2.0-0.56-0.512-3.512,0,1,1,90,false,stim,false,0,497.0,3,1,1,29430,WMM2,1357992,false,false,1705,image-keyboard-response,9
true,16,1,4,0,false,q,true,false,0.0-2.0-0.57-0.513-3.513,0,1,1,90,false,stim,false,0,643.0,3,1,1,29430,WMM2,1360141,false,false,1708,image-keyboard-response,10
true,16,0,4,0,true,q,false,true,0.0-2.0-0.57-0.514-3.514,0,1,1,81,false,stim,false,0,678.0,3,0,0,29430,WMM2,1362324,false,false,1711,image-keyboard-response,11
true,16,1,4,2,false,d,true,false,0.0-2.0-0.57-0.515-3.515,0,1,1,90,false,stim,false,2,937.9999999997672,3,1,2,29430,WMM2,1364766,false,false,1714,image-keyboard-response,12
true,16,0,4,0,true,q,false,true,0.0-2.0-0.57-0.516-3.516,0,1,1,81,false,stim,false,0,653.0000000002328,3,0,0,29430,WMM2,1366924,false,false,1717,image-keyboard-response,13
true,16,0,4,0,true,q,false,true,0.0-2.0-0.57-0.517-3.517,0,1,1,81,false,stim,false,0,623.0,3,1,1,29430,WMM2,1369051,false,false,1720,image-keyboard-response,14
true,16,0,4,0,true,q,false,true,0.0-2.0-0.57-0.518-3.518,0,1,1,81,false,stim,false,0,711.0,3,1,1,29430,WMM2,1371268,false,false,1723,image-keyboard-response,15
true,16,1,4,2,false,d,true,false,0.0-2.0-0.57-0.519-3.519,0,1,1,90,false,stim,false,2,925.0,3,1,2,29430,WMM2,1373698,false,false,1726,image-keyboard-response,16
true,16,0,4,0,true,q,false,true,0.0-2.0-0.57-0.520-3.520,0,1,1,81,false,stim,false,0,485.99999999976717,3,0,0,29430,WMM2,1375689,false,false,1729,image-keyboard-response,17
true,16,0,4,2,false,d,true,false,0.0-2.0-0.57-0.521-3.521,0,1,1,81,false,stim,false,2,475.0,3,1,2,29430,WMM2,1377669,false,false,1732,image-keyboard-response,18
true,16,0,4,0,true,q,false,true,0.0-2.0-0.58-0.522-3.522,0,1,1,81,false,stim,false,0,778.0000000002328,3,0,0,29430,WMM2,1379953,false,false,1735,image-keyboard-response,19
true,16,0,4,2,false,d,true,false,0.0-2.0-0.58-0.523-3.523,0,1,1,81,false,stim,false,2,1376.0,3,1,2,29430,WMM2,1382834,false,false,1738,image-keyboard-response,20
true,16,2,4,0,false,q,true,false,0.0-2.0-0.58-0.524-3.524,0,1,1,68,false,stim,false,0,1384.0,3,1,1,29430,WMM2,1385724,false,false,1741,image-keyboard-response,21
true,16,0,4,0,true,q,false,true,0.0-2.0-0.58-0.525-3.525,0,1,1,81,false,stim,false,0,531.0000000002328,3,0,0,29430,WMM2,1387760,false,false,1744,image-keyboard-response,22
true,16,2,4,2,true,d,false,false,0.0-2.0-0.58-0.526-3.526,0,1,1,68,false,stim,false,2,1768.0,3,1,2,29430,WMM2,1391034,false,true,1747,image-keyboard-response,23
true,16,1,4,0,false,q,true,false,0.0-2.0-0.58-0.527-3.527,0,1,1,90,false,stim,false,0,1059.0,3,1,1,29430,WMM2,1393600,false,false,1750,image-keyboard-response,24
true,16,0,4,2,false,d,true,true,0.0-2.0-0.58-0.528-3.528,0,1,1,81,false,stim,false,2,820.0,3,1,2,29430,WMM2,1395928,false,true,1753,image-keyboard-response,25
true,16,2,4,0,false,q,true,false,0.0-2.0-0.58-0.529-3.529,0,1,1,68,false,stim,false,0,755.9999999997672,3,1,1,29430,WMM2,1398190,false,false,1756,image-keyboard-response,26
true,16,0,4,0,true,q,false,true,0.0-2.0-0.58-0.530-3.530,0,1,1,81,false,stim,false,0,498.0,3,0,0,29430,WMM2,1400192,false,false,1759,image-keyboard-response,27
true,16,0,4,2,false,d,true,false,0.0-2.0-0.59-0.531-3.531,0,1,1,81,false,stim,false,2,542.0000000002328,3,1,2,29430,WMM2,1402241,false,false,1762,image-keyboard-response,28
true,16,1,4,2,false,d,true,false,0.0-2.0-0.59-0.532-3.532,0,1,1,90,false,stim,false,2,551.0,3,1,2,29430,WMM2,1404298,false,false,1765,image-keyboard-response,29
true,16,2,4,0,false,q,true,false,0.0-2.0-0.59-0.533-3.533,0,1,1,68,false,stim,false,0,352.00000000023283,3,1,1,29430,WMM2,1406155,false,false,1768,image-keyboard-response,30
true,16,0,4,0,true,q,false,false,0.0-2.0-0.59-0.534-3.534,0,1,1,81,false,stim,false,0,666.0,3,0,0,29430,WMM2,1408326,false,true,1771,image-keyboard-response,31
true,16,0,4,0,true,q,false,true,0.0-2.0-0.59-0.535-3.535,0,1,1,81,false,stim,false,0,1161.0,3,0,0,29430,WMM2,1410993,false,false,1774,image-keyboard-response,32
true,16,0,4,0,true,q,false,true,0.0-2.0-0.59-0.536-3.536,0,1,1,81,false,stim,false,0,519.0,3,0,0,29430,WMM2,1413017,false,false,1777,image-keyboard-response,33
true,16,1,4,2,false,d,true,false,0.0-2.0-0.59-0.537-3.537,0,1,1,90,false,stim,false,2,1228.0,3,1,2,29430,WMM2,1415751,false,false,1780,image-keyboard-response,34
true,16,0,4,0,true,q,false,true,0.0-2.0-0.59-0.538-3.538,0,1,1,81,false,stim,false,0,912.0,3,1,1,29430,WMM2,1418170,false,false,1783,image-keyboard-response,35
true,16,0,4,0,true,q,false,true,0.0-2.0-0.59-0.539-3.539,0,1,1,81,false,stim,false,0,441.0,3,1,1,29430,WMM2,1420117,false,false,1786,image-keyboard-response,36
true,16,0,4,0,true,q,false,true,0.0-2.0-0.60-0.540-3.540,0,1,1,81,false,stim,false,0,472.00000000023283,3,1,1,29430,WMM2,1422097,false,false,1789,image-keyboard-response,37
true,16,0,4,0,true,q,false,true,0.0-2.0-0.60-0.541-3.541,0,1,1,81,false,stim,false,0,587.0,3,0,0,29430,WMM2,1424189,false,false,1792,image-keyboard-response,38
true,16,0,4,0,true,q,false,true,0.0-2.0-0.60-0.542-3.542,0,1,1,81,false,stim,false,0,497.0,3,1,1,29430,WMM2,1426191,false,false,1795,image-keyboard-response,39
true,16,0,4,0,true,q,false,true,0.0-2.0-0.60-0.543-3.543,0,1,1,81,false,stim,false,0,531.0,3,0,0,29430,WMM2,1428229,false,false,1798,image-keyboard-response,40
true,16,2,4,2,true,d,false,true,0.0-2.0-0.60-0.544-3.544,0,1,1,68,false,stim,false,2,1435.9999999997672,3,1,2,29430,WMM2,1431176,false,false,1801,image-keyboard-response,41
true,16,2,4,2,true,d,false,true,0.0-2.0-0.60-0.545-3.545,0,1,1,68,false,stim,false,2,529.0000000002328,3,1,2,29430,WMM2,1433211,false,false,1804,image-keyboard-response,42
true,16,0,4,0,true,q,false,false,0.0-2.0-0.60-0.546-3.546,0,1,1,81,false,stim,false,0,586.0,3,1,1,29430,WMM2,1435304,false,true,1807,image-keyboard-response,43
true,16,0,4,0,true,q,false,false,0.0-2.0-0.60-0.547-3.547,0,1,1,81,false,stim,false,0,665.0,3,0,0,29430,WMM2,1437476,false,true,1810,image-keyboard-response,44
true,16,2,4,2,true,d,false,true,0.0-2.0-0.60-0.548-3.548,0,1,1,68,false,stim,false,2,520.0000000002328,3,1,2,29430,WMM2,1439501,false,false,1813,image-keyboard-response,45
true,16,2,4,2,true,d,false,true,0.0-2.0-0.61-0.549-3.549,0,1,1,68,false,stim,false,2,765.0,3,1,2,29430,WMM2,1441773,false,false,1816,image-keyboard-response,46
true,16,2,4,0,false,q,true,false,0.0-2.0-0.61-0.550-3.550,0,1,1,68,false,stim,false,0,767.0,3,1,1,29430,WMM2,1444046,false,false,1819,image-keyboard-response,47
true,16,0,4,0,true,q,false,true,0.0-2.0-0.61-0.551-3.551,0,1,1,81,false,stim,false,0,768.0,3,0,0,29430,WMM2,1446319,false,false,1822,image-keyboard-response,48
true,16,2,4,2,true,d,false,false,0.0-2.0-0.61-0.552-3.552,0,1,1,68,false,stim,false,2,924.0,3,1,2,29430,WMM2,1448748,false,true,1825,image-keyboard-response,49
true,16,2,4,2,true,d,false,true,0.0-2.0-0.61-0.553-3.553,0,1,1,68,false,stim,false,2,1093.0,3,1,2,29430,WMM2,1451347,false,false,1828,image-keyboard-response,50
true,16,1,4,0,false,q,true,false,0.0-2.0-0.61-0.554-3.554,0,1,1,90,false,stim,false,0,1104.0,3,1,1,29430,WMM2,1453957,false,false,1831,image-keyboard-response,51
true,16,0,4,0,true,q,false,true,0.0-2.0-0.61-0.555-3.555,0,1,1,81,false,stim,false,0,789.0,3,0,0,29430,WMM2,1456252,false,false,1834,image-keyboard-response,52
true,17,0,3,0,true,q,false,true,0.0-2.0-0.61-0.556-3.556,0,1,1,81,true,stim,false,0,521.0,3,1,1,29430,WMM2,1458278,false,false,1837,image-keyboard-response,1
true,17,0,3,2,false,d,false,false,0.0-2.0-0.61-0.557-3.557,0,1,1,81,false,stim,true,0,608.0,3,0,0,29430,WMM2,1460392,false,false,1840,image-keyboard-response,2
true,17,2,3,2,true,d,false,true,0.0-2.0-0.62-0.558-3.558,0,1,1,68,false,stim,false,2,756.0000000002328,3,1,2,29430,WMM2,1462654,false,false,1843,image-keyboard-response,3
true,17,0,3,0,true,q,false,true,0.0-2.0-0.62-0.559-3.559,0,1,1,81,false,stim,false,0,981.0,3,1,1,29430,WMM2,1465140,false,false,1846,image-keyboard-response,4
true,17,0,3,2,false,d,false,false,0.0-2.0-0.62-0.560-3.560,0,1,1,81,false,stim,true,0,519.0,3,0,0,29430,WMM2,1467165,false,false,1849,image-keyboard-response,5
true,17,0,3,0,true,q,false,false,0.0-2.0-0.62-0.561-3.561,0,1,1,81,false,stim,false,0,1532.0,3,1,1,29430,WMM2,1470203,false,true,1852,image-keyboard-response,6
true,17,2,3,2,true,d,false,true,0.0-2.0-0.62-0.562-3.562,0,1,1,68,false,stim,false,2,936.0,3,1,2,29430,WMM2,1472645,false,false,1855,image-keyboard-response,7
true,17,1,3,2,false,d,true,false,0.0-2.0-0.62-0.563-3.563,0,1,1,90,false,stim,false,0,520.0,3,0,0,29430,WMM2,1474669,false,false,1858,image-keyboard-response,8
true,17,2,3,0,false,q,true,false,0.0-2.0-0.62-0.564-3.564,0,1,1,68,false,stim,false,0,733.0,3,1,1,29430,WMM2,1476908,false,false,1861,image-keyboard-response,9
true,17,2,3,2,true,d,false,true,0.0-2.0-0.62-0.565-3.565,0,1,1,68,false,stim,false,2,878.0,3,1,2,29430,WMM2,1479293,false,false,1864,image-keyboard-response,10
true,17,0,3,2,false,d,false,false,0.0-2.0-0.62-0.566-3.566,0,1,1,81,false,stim,true,0,666.9999999997672,3,0,0,29430,WMM2,1481464,false,false,1867,image-keyboard-response,11
true,17,2,3,2,true,d,false,true,0.0-2.0-0.63-0.567-3.567,0,1,1,68,false,stim,false,2,811.9999999997672,3,1,2,29430,WMM2,1483782,false,false,1870,image-keyboard-response,12
true,17,2,3,2,true,d,false,true,0.0-2.0-0.63-0.568-3.568,0,1,1,68,false,stim,false,0,642.9999999997672,3,0,0,29430,WMM2,1485930,false,false,1873,image-keyboard-response,13
true,17,1,3,0,false,q,true,false,0.0-2.0-0.63-0.569-3.569,0,1,1,90,false,stim,false,0,1589.0,3,1,1,29430,WMM2,1489024,false,false,1876,image-keyboard-response,14
true,17,2,3,2,true,d,false,true,0.0-2.0-0.63-0.570-3.570,0,1,1,68,false,stim,false,0,699.0,3,0,0,29430,WMM2,1491229,false,false,1879,image-keyboard-response,15
true,17,0,3,0,true,q,false,false,0.0-2.0-0.63-0.571-3.571,0,1,1,81,false,stim,false,0,970.0,3,1,1,29430,WMM2,1493704,false,true,1882,image-keyboard-response,16
true,17,1,3,0,false,q,true,false,0.0-2.0-0.63-0.572-3.572,0,1,1,90,false,stim,false,0,824.0,3,1,1,29430,WMM2,1496033,false,false,1885,image-keyboard-response,17
true,17,2,3,2,true,d,false,true,0.0-2.0-0.63-0.573-3.573,0,1,1,68,false,stim,false,0,666.9999999997672,3,0,0,29430,WMM2,1498204,false,false,1888,image-keyboard-response,18
true,17,2,3,2,true,d,false,true,0.0-2.0-0.63-0.574-3.574,0,1,1,68,false,stim,false,2,1173.0,3,1,2,29430,WMM2,1500882,false,false,1891,image-keyboard-response,19
true,17,2,3,2,true,d,false,true,0.0-2.0-0.63-0.575-3.575,0,1,1,68,false,stim,false,2,575.0,3,1,2,29430,WMM2,1502964,false,false,1894,image-keyboard-response,20
true,17,0,3,0,true,q,false,true,0.0-2.0-0.64-0.576-3.576,0,1,1,81,false,stim,false,0,1181.9999999997672,3,1,1,29430,WMM2,1505652,false,false,1897,image-keyboard-response,21
true,17,2,3,2,true,d,false,false,0.0-2.0-0.64-0.577-3.577,0,1,1,68,false,stim,false,0,641.0,3,0,0,29430,WMM2,1507801,false,true,1900,image-keyboard-response,22
true,17,2,3,2,true,d,false,true,0.0-2.0-0.64-0.578-3.578,0,1,1,68,false,stim,false,2,491.0,3,1,2,29430,WMM2,1509803,false,false,1903,image-keyboard-response,23
true,17,2,3,2,true,d,false,true,0.0-2.0-0.64-0.579-3.579,0,1,1,68,false,stim,false,0,1159.0,3,0,0,29430,WMM2,1512470,false,false,1906,image-keyboard-response,24
true,17,2,3,2,true,d,false,true,0.0-2.0-0.64-0.580-3.580,0,1,1,68,false,stim,false,2,766.0,3,1,2,29430,WMM2,1514742,false,false,1909,image-keyboard-response,25
true,17,2,3,2,true,d,false,true,0.0-2.0-0.64-0.581-3.581,0,1,1,68,false,stim,false,0,629.9999999997672,3,0,0,29430,WMM2,1516880,false,false,1912,image-keyboard-response,26
true,17,0,3,0,true,q,false,true,0.0-2.0-0.64-0.582-3.582,0,1,1,81,false,stim,false,0,835.0000000002328,3,1,1,29430,WMM2,1519220,false,false,1915,image-keyboard-response,27
true,17,2,3,2,true,d,false,true,0.0-2.0-0.64-0.583-3.583,0,1,1,68,false,stim,false,2,720.0,3,1,2,29430,WMM2,1521448,false,false,1918,image-keyboard-response,28
true,17,0,3,0,true,q,false,true,0.0-2.0-0.64-0.584-3.584,0,1,1,81,false,stim,false,0,789.0,3,0,1,29430,WMM2,1523742,false,false,1921,image-keyboard-response,29
true,17,0,3,2,false,d,false,false,0.0-2.0-0.65-0.585-3.585,0,1,1,81,false,stim,true,0,551.9999999997672,3,1,0,29430,WMM2,1525801,false,false,1924,image-keyboard-response,30
true,17,0,3,0,true,q,false,true,0.0-2.0-0.65-0.586-3.586,0,1,1,81,false,stim,false,0,1487.9999999997672,3,0,1,29430,WMM2,1528795,false,false,1927,image-keyboard-response,31
true,17,2,3,2,true,d,false,true,0.0-2.0-0.65-0.587-3.587,0,1,1,68,false,stim,false,2,708.0,3,1,2,29430,WMM2,1531010,false,false,1930,image-keyboard-response,32
true,17,0,3,0,true,q,false,true,0.0-2.0-0.65-0.588-3.588,0,1,1,81,false,stim,false,0,915.0,3,0,1,29430,WMM2,1533429,false,false,1933,image-keyboard-response,33
true,17,0,3,2,false,d,false,false,0.0-2.0-0.65-0.589-3.589,0,1,1,81,false,stim,true,0,599.0,3,1,0,29430,WMM2,1535533,false,false,1936,image-keyboard-response,34
true,17,0,3,2,false,d,false,false,0.0-2.0-0.65-0.590-3.590,0,1,1,81,false,stim,true,0,958.9999999997672,3,1,0,29430,WMM2,1537997,false,false,1939,image-keyboard-response,35
true,17,0,3,0,true,q,false,true,0.0-2.0-0.65-0.591-3.591,0,1,1,81,false,stim,false,0,1196.0,3,0,1,29430,WMM2,1540697,false,false,1942,image-keyboard-response,36
true,17,2,3,2,true,d,false,true,0.0-2.0-0.65-0.592-3.592,0,1,1,68,false,stim,false,2,644.0,3,1,2,29430,WMM2,1542845,false,false,1945,image-keyboard-response,37
true,18,2,4,2,true,d,false,true,0.0-2.0-0.65-0.593-3.593,1,0,1,68,true,stim,false,2,767.0,3,1,2,29430,WMM2,1545118,false,false,1948,image-keyboard-response,1
true,18,0,4,0,true,q,false,false,0.0-2.0-0.66-0.594-3.594,1,0,1,81,false,stim,false,0,1811.0,3,0,1,29430,WMM2,1548437,false,true,1951,image-keyboard-response,2
true,18,2,4,2,true,d,false,true,0.0-2.0-0.66-0.595-3.595,1,0,1,68,false,stim,false,2,734.0,3,1,2,29430,WMM2,1550676,false,false,1954,image-keyboard-response,3
true,18,1,4,2,false,d,true,true,0.0-2.0-0.66-0.596-3.596,1,0,1,90,false,stim,false,2,890.9999999997672,3,1,0,29430,WMM2,1553072,false,true,1957,image-keyboard-response,4
true,18,2,4,0,false,q,true,false,0.0-2.0-0.66-0.597-3.597,1,0,1,68,false,stim,false,0,744.0,3,0,1,29430,WMM2,1555322,false,false,1960,image-keyboard-response,5
true,18,1,4,2,false,d,true,true,0.0-2.0-0.66-0.598-3.598,1,0,1,90,false,stim,false,2,699.0,3,1,0,29430,WMM2,1557527,false,true,1963,image-keyboard-response,6
true,18,2,4,2,true,d,false,true,0.0-2.0-0.66-0.599-3.599,1,0,1,68,false,stim,false,2,881.0,3,1,2,29430,WMM2,1559913,false,false,1966,image-keyboard-response,7
true,18,0,4,0,true,q,false,false,0.0-2.0-0.66-0.600-3.600,1,0,1,81,false,stim,false,0,891.0,3,0,1,29430,WMM2,1562309,false,true,1969,image-keyboard-response,8
true,18,2,4,2,true,d,false,false,0.0-2.0-0.66-0.601-3.601,1,0,1,68,false,stim,false,2,711.0,3,1,2,29430,WMM2,1564525,false,true,1972,image-keyboard-response,9
true,18,1,4,2,false,d,true,false,0.0-2.0-0.66-0.602-3.602,1,0,1,90,false,stim,false,2,487.0,3,1,0,29430,WMM2,1566517,false,false,1975,image-keyboard-response,10
true,18,2,4,2,true,d,false,true,0.0-2.0-0.67-0.603-3.603,1,0,1,68,false,stim,false,2,653.0,3,1,2,29430,WMM2,1568676,false,false,1978,image-keyboard-response,11
true,18,2,4,2,true,d,false,false,0.0-2.0-0.67-0.604-3.604,1,0,1,68,false,stim,false,2,541.9999999997672,3,1,2,29430,WMM2,1570724,false,true,1981,image-keyboard-response,12
true,18,2,4,2,true,d,false,true,0.0-2.0-0.67-0.605-3.605,1,0,1,68,false,stim,false,2,586.9999999997672,3,1,0,29430,WMM2,1572816,false,false,1984,image-keyboard-response,13
true,18,2,4,0,false,q,true,false,0.0-2.0-0.67-0.606-3.606,1,0,1,68,false,stim,false,0,632.0,3,0,1,29430,WMM2,1574954,false,false,1987,image-keyboard-response,14
true,18,2,4,2,true,d,false,true,0.0-2.0-0.67-0.607-3.607,1,0,1,68,false,stim,false,2,1429.9999999997672,3,1,2,29430,WMM2,1577890,false,false,1990,image-keyboard-response,15
true,18,0,4,0,true,q,false,true,0.0-2.0-0.67-0.608-3.608,1,0,1,81,false,stim,false,0,1566.0,3,0,1,29430,WMM2,1580962,false,false,1993,image-keyboard-response,16
true,18,2,4,2,true,d,false,true,0.0-2.0-0.67-0.609-3.609,1,0,1,68,false,stim,false,2,498.0,3,1,0,29430,WMM2,1582964,false,false,1996,image-keyboard-response,17
true,18,2,4,2,true,d,false,true,0.0-2.0-0.67-0.610-3.610,1,0,1,68,false,stim,false,2,631.0,3,1,0,29430,WMM2,1585102,false,false,1999,image-keyboard-response,18
true,18,0,4,0,true,q,false,false,0.0-2.0-0.67-0.611-3.611,1,0,1,81,false,stim,false,0,919.0,3,0,1,29430,WMM2,1587532,false,true,2002,image-keyboard-response,19
true,18,0,4,2,false,d,true,false,0.0-2.0-0.68-0.612-3.612,1,0,1,81,false,stim,false,2,879.0,3,1,2,29430,WMM2,1589917,false,false,2005,image-keyboard-response,20
true,18,2,4,2,true,d,false,true,0.0-2.0-0.68-0.613-3.613,1,0,1,68,false,stim,false,2,496.0,3,1,2,29430,WMM2,1591919,false,false,2008,image-keyboard-response,21
true,18,2,4,2,true,d,false,true,0.0-2.0-0.68-0.614-3.614,1,0,1,68,false,stim,false,2,699.0,3,1,0,29430,WMM2,1594124,false,false,2011,image-keyboard-response,22
true,18,2,4,2,true,d,false,true,0.0-2.0-0.68-0.615-3.615,1,0,1,68,false,stim,false,2,473.00000000023283,3,1,0,29430,WMM2,1596104,false,false,2014,image-keyboard-response,23
true,18,2,4,2,true,d,false,true,0.0-2.0-0.68-0.616-3.616,1,0,1,68,false,stim,false,2,418.0,3,1,0,29430,WMM2,1598028,false,false,2017,image-keyboard-response,24
true,18,2,4,2,true,d,false,true,0.0-2.0-0.68-0.617-3.617,1,0,1,68,false,stim,false,2,519.0,3,1,2,29430,WMM2,1600053,false,false,2020,image-keyboard-response,25
true,18,1,4,0,false,q,true,false,0.0-2.0-0.68-0.618-3.618,1,0,1,90,false,stim,false,0,969.0,3,1,1,29430,WMM2,1602529,false,false,2023,image-keyboard-response,26
