answered,blockNum,choice,condition,corResp,correct,correct_response,explo,fb,internal_node_id,isStable_1,isStable_2,isStable_3,key_press,newBlock,part,persev,persevResp,rt,sessNum,stableAS,stimulus,subject,task,time_elapsed,training,trap,trial_index,trial_type,trialsInBlock
true,1,0,0,1,false,z,true,false,0.0-2.0-0.0-0.0-3.0,0,0,0,81,true,stim,false,-1,1320.0,2,0,2,29430,WMM2,105866,false,false,82,image-keyboard-response,1
true,1,1,0,1,true,z,false,false,0.0-2.0-0.0-0.1-3.1,0,0,0,90,false,stim,false,-1,559.0,2,0,2,29430,WMM2,107929,false,true,85,image-keyboard-response,2
true,1,0,0,2,false,d,true,false,0.0-2.0-0.0-0.2-3.2,0,0,0,81,false,stim,false,-1,741.0,2,0,1,29430,WMM2,110175,false,false,88,image-keyboard-response,3
true,1,0,0,2,false,d,true,false,0.0-2.0-0.0-0.3-3.3,0,0,0,81,false,stim,false,-1,780.0,2,0,0,29430,WMM2,112459,false,false,91,image-keyboard-response,4
true,1,1,0,2,false,d,true,false,0.0-2.0-0.0-0.4-3.4,0,0,0,90,false,stim,false,-1,1216.9999999999854,2,0,1,29430,WMM2,115182,false,false,94,image-keyboard-response,5
true,1,2,0,2,true,d,false,true,0.0-2.0-0.0-0.5-3.5,0,0,0,68,false,stim,false,-1,1151.0000000000146,2,0,1,29430,WMM2,117837,false,false,97,image-keyboard-response,6
true,1,2,0,2,true,d,false,true,0.0-2.0-0.0-0.6-3.6,0,0,0,68,false,stim,false,-1,611.0000000000146,2,0,0,29430,WMM2,119952,false,false,100,image-keyboard-response,7
true,1,1,0,1,true,z,false,true,0.0-2.0-0.0-0.7-3.7,0,0,0,90,false,stim,false,-1,2670.0,2,0,2,29430,WMM2,124126,false,false,103,image-keyboard-response,8
true,1,2,0,2,true,d,false,true,0.0-2.0-0.0-0.8-3.8,0,0,0,68,false,stim,false,-1,746.0,2,0,0,29430,WMM2,126376,false,false,106,image-keyboard-response,9
true,1,1,0,1,true,z,false,true,0.0-2.0-0.1-0.9-3.9,0,0,0,90,false,stim,false,-1,791.0,2,0,2,29430,WMM2,128671,false,false,109,image-keyboard-response,10
true,1,2,0,2,true,d,false,true,0.0-2.0-0.1-0.10-3.10,0,0,0,68,false,stim,false,-1,1421.0,2,0,1,29430,WMM2,131596,false,false,112,image-keyboard-response,11
true,1,1,0,1,true,z,false,true,0.0-2.0-0.1-0.11-3.11,0,0,0,90,false,stim,false,-1,611.0,2,0,2,29430,WMM2,133711,false,false,115,image-keyboard-response,12
true,1,2,0,2,true,d,false,true,0.0-2.0-0.1-0.12-3.12,0,0,0,68,false,stim,false,-1,1252.0,2,0,1,29430,WMM2,136467,false,false,118,image-keyboard-response,13
true,1,2,0,2,true,d,false,true,0.0-2.0-0.1-0.13-3.13,0,0,0,68,false,stim,false,-1,453.0,2,0,1,29430,WMM2,138425,false,false,121,image-keyboard-response,14
true,1,2,0,2,true,d,false,true,0.0-2.0-0.1-0.14-3.14,0,0,0,68,false,stim,false,-1,646.0,2,0,0,29430,WMM2,140575,false,false,124,image-keyboard-response,15
true,1,2,0,2,true,d,false,true,0.0-2.0-0.1-0.15-3.15,0,0,0,68,false,stim,false,-1,430.0,2,0,0,29430,WMM2,142509,false,false,127,image-keyboard-response,16
true,1,1,0,1,true,z,false,true,0.0-2.0-0.1-0.16-3.16,0,0,0,90,false,stim,false,-1,812.9999999999709,2,0,2,29430,WMM2,144826,false,false,130,image-keyboard-response,17
true,1,2,0,2,true,d,false,true,0.0-2.0-0.1-0.17-3.17,0,0,0,68,false,stim,false,-1,600.0000000000291,2,0,0,29430,WMM2,146930,false,false,133,image-keyboard-response,18
true,1,2,0,1,false,z,true,false,0.0-2.0-0.2-0.18-3.18,0,0,0,68,false,stim,false,-1,578.0,2,0,2,29430,WMM2,149011,false,false,136,image-keyboard-response,19
true,1,2,0,2,true,d,false,true,0.0-2.0-0.2-0.19-3.19,0,0,0,68,false,stim,false,-1,882.0,2,0,1,29430,WMM2,151396,false,false,139,image-keyboard-response,20
true,1,2,0,2,true,d,false,true,0.0-2.0-0.2-0.20-3.20,0,0,0,68,false,stim,false,-1,577.0,2,0,1,29430,WMM2,153478,false,false,142,image-keyboard-response,21
true,1,2,0,2,true,d,false,true,0.0-2.0-0.2-0.21-3.21,0,0,0,68,false,stim,false,-1,712.0,2,0,0,29430,WMM2,155694,false,false,145,image-keyboard-response,22
true,1,2,0,2,true,d,false,true,0.0-2.0-0.2-0.22-3.22,0,0,0,68,false,stim,false,-1,970.9999999999709,2,0,1,29430,WMM2,158169,false,false,148,image-keyboard-response,23
true,1,1,0,1,true,z,false,true,0.0-2.0-0.2-0.23-3.23,0,0,0,90,false,stim,false,-1,1275.000000000029,2,0,2,29430,WMM2,160948,false,false,151,image-keyboard-response,24
true,1,1,0,1,true,z,false,true,0.0-2.0-0.2-0.24-3.24,0,0,0,90,false,stim,false,-1,712.0,2,0,2,29430,WMM2,163164,false,false,154,image-keyboard-response,25
true,1,2,0,2,true,d,false,true,0.0-2.0-0.2-0.25-3.25,0,0,0,68,false,stim,false,-1,791.0,2,1,0,29430,WMM2,165459,false,false,157,image-keyboard-response,26
true,1,2,0,2,true,d,false,true,0.0-2.0-0.2-0.26-3.26,0,0,0,68,false,stim,false,-1,498.0,2,1,0,29430,WMM2,167462,false,false,160,image-keyboard-response,27
true,1,2,0,2,true,d,false,true,0.0-2.0-0.3-0.27-3.27,0,0,0,68,false,stim,false,-1,430.0,2,1,0,29430,WMM2,169397,false,false,163,image-keyboard-response,28
true,1,1,0,1,true,z,false,true,0.0-2.0-0.3-0.28-3.28,0,0,0,90,false,stim,false,-1,982.0,2,1,2,29430,WMM2,171883,false,false,166,image-keyboard-response,29
true,1,2,0,2,true,d,false,true,0.0-2.0-0.3-0.29-3.29,0,0,0,68,false,stim,false,-1,1048.999999999971,2,0,1,29430,WMM2,174437,false,false,169,image-keyboard-response,30
true,1,2,0,2,true,d,false,true,0.0-2.0-0.3-0.30-3.30,0,0,0,68,false,stim,false,-1,443.0,2,0,1,29430,WMM2,176383,false,false,172,image-keyboard-response,31
true,1,2,0,2,true,d,false,true,0.0-2.0-0.3-0.31-3.31,0,0,0,68,false,stim,false,-1,621.9999999999709,2,1,0,29430,WMM2,178509,false,false,175,image-keyboard-response,32
true,1,2,0,2,true,d,false,true,0.0-2.0-0.3-0.32-3.32,0,0,0,68,false,stim,false,-1,1005.0000000000291,2,0,1,29430,WMM2,181018,false,false,178,image-keyboard-response,33
true,1,1,0,1,true,z,false,true,0.0-2.0-0.3-0.33-3.33,0,0,0,90,false,stim,false,-1,858.0,2,1,2,29430,WMM2,183381,false,false,181,image-keyboard-response,34
true,1,2,0,2,true,d,false,true,0.0-2.0-0.3-0.34-3.34,0,0,0,68,false,stim,false,-1,555.0,2,1,0,29430,WMM2,185440,false,false,184,image-keyboard-response,35
true,2,1,4,1,true,z,false,true,0.0-2.0-0.3-0.35-3.35,1,0,1,90,true,stim,false,1,859.0,2,1,2,29430,WMM2,187802,false,false,187,image-keyboard-response,1
true,2,2,4,2,true,d,false,true,0.0-2.0-0.4-0.36-3.36,1,0,1,68,false,stim,false,2,915.0,2,0,1,29430,WMM2,190221,false,false,190,image-keyboard-response,2
true,2,2,4,2,true,d,false,true,0.0-2.0-0.4-0.37-3.37,1,0,1,68,false,stim,false,2,582.0,2,0,1,29430,WMM2,192306,false,false,193,image-keyboard-response,3
true,2,2,4,2,true,d,false,true,0.0-2.0-0.4-0.38-3.38,1,0,1,68,false,stim,false,2,586.0,2,0,1,29430,WMM2,194395,false,false,196,image-keyboard-response,4
true,2,1,4,1,true,z,false,true,0.0-2.0-0.4-0.39-3.39,1,0,1,90,false,stim,false,1,587.9999999999709,2,1,2,29430,WMM2,196487,false,false,199,image-keyboard-response,5
true,2,1,4,1,true,z,false,true,0.0-2.0-0.4-0.40-3.40,1,0,1,90,false,stim,false,1,1319.0,2,1,2,29430,WMM2,199311,false,false,202,image-keyboard-response,6
true,2,2,4,2,true,d,false,true,0.0-2.0-0.4-0.41-3.41,1,0,1,68,false,stim,false,2,579.9999999999709,2,1,0,29430,WMM2,201396,false,false,205,image-keyboard-response,7
true,2,2,4,2,true,d,false,true,0.0-2.0-0.4-0.42-3.42,1,0,1,68,false,stim,false,2,426.0,2,1,0,29430,WMM2,203328,false,false,208,image-keyboard-response,8
true,2,2,4,2,true,d,false,true,0.0-2.0-0.4-0.43-3.43,1,0,1,68,false,stim,false,2,689.0,2,1,0,29430,WMM2,205521,false,false,211,image-keyboard-response,9
true,2,1,4,1,true,z,false,true,0.0-2.0-0.4-0.44-3.44,1,0,1,90,false,stim,false,1,960.0,2,1,2,29430,WMM2,207985,false,false,214,image-keyboard-response,10
true,2,1,4,1,true,z,false,true,0.0-2.0-0.5-0.45-3.45,1,0,1,90,false,stim,false,1,532.0,2,1,2,29430,WMM2,210021,false,false,217,image-keyboard-response,11
true,2,2,4,2,true,d,false,false,0.0-2.0-0.5-0.46-3.46,1,0,1,68,false,stim,false,2,645.9999999999709,2,1,0,29430,WMM2,212170,false,true,220,image-keyboard-response,12
true,2,2,4,2,true,d,false,false,0.0-2.0-0.5-0.47-3.47,1,0,1,68,false,stim,false,2,712.0,2,0,1,29430,WMM2,214387,false,true,223,image-keyboard-response,13
true,2,1,4,1,true,z,false,false,0.0-2.0-0.5-0.48-3.48,1,0,1,90,false,stim,false,1,914.0,2,1,2,29430,WMM2,216805,false,true,226,image-keyboard-response,14
true,2,0,4,2,false,d,true,false,0.0-2.0-0.5-0.49-3.49,1,0,1,81,false,stim,false,2,1274.0,2,1,0,29430,WMM2,219584,false,false,229,image-keyboard-response,15
true,2,0,4,2,false,d,true,false,0.0-2.0-0.5-0.50-3.50,1,0,1,81,false,stim,false,2,1399.0,2,1,0,29430,WMM2,222487,false,false,232,image-keyboard-response,16
true,2,0,4,2,false,d,true,false,0.0-2.0-0.5-0.51-3.51,1,0,1,81,false,stim,false,2,892.0,2,0,1,29430,WMM2,224883,false,false,235,image-keyboard-response,17
true,2,2,4,1,false,z,true,false,0.0-2.0-0.5-0.52-3.52,1,0,1,68,false,stim,false,1,914.0,2,1,2,29430,WMM2,227302,false,false,238,image-keyboard-response,18
true,2,1,4,2,false,d,true,false,0.0-2.0-0.5-0.53-3.53,1,0,1,90,false,stim,false,2,723.0,2,0,1,29430,WMM2,229529,false,false,241,image-keyboard-response,19
true,2,1,4,2,false,d,true,false,0.0-2.0-0.6-0.54-3.54,1,0,1,90,false,stim,false,2,1669.0,2,1,0,29430,WMM2,232702,false,false,244,image-keyboard-response,20
true,2,2,4,2,true,d,false,true,0.0-2.0-0.6-0.55-3.55,1,0,1,68,false,stim,false,2,520.0000000000291,2,1,0,29430,WMM2,234727,false,false,247,image-keyboard-response,21
true,2,2,4,1,false,z,true,false,0.0-2.0-0.6-0.56-3.56,1,0,1,68,false,stim,false,1,1398.0,2,1,2,29430,WMM2,237630,false,false,250,image-keyboard-response,22
true,2,2,4,2,true,d,false,true,0.0-2.0-0.6-0.57-3.57,1,0,1,68,false,stim,false,2,475.0,2,0,1,29430,WMM2,239610,false,false,253,image-keyboard-response,23
true,2,1,4,1,true,z,false,true,0.0-2.0-0.6-0.58-3.58,1,0,1,90,false,stim,false,1,599.9999999999709,2,1,2,29430,WMM2,241714,false,false,256,image-keyboard-response,24
true,2,2,4,2,true,d,false,true,0.0-2.0-0.6-0.59-3.59,1,0,1,68,false,stim,false,2,768.0,2,1,0,29430,WMM2,243986,false,false,259,image-keyboard-response,25
true,2,1,4,1,true,z,false,true,0.0-2.0-0.6-0.60-3.60,1,0,1,90,false,stim,false,1,588.0,2,1,2,29430,WMM2,246078,false,false,262,image-keyboard-response,26
true,2,2,4,2,true,d,false,true,0.0-2.0-0.6-0.61-3.61,1,0,1,68,false,stim,false,2,611.0,2,0,1,29430,WMM2,248194,false,false,265,image-keyboard-response,27
true,2,2,4,2,true,d,false,true,0.0-2.0-0.6-0.62-3.62,1,0,1,68,false,stim,false,2,521.0,2,0,1,29430,WMM2,250219,false,false,268,image-keyboard-response,28
true,2,2,4,2,true,d,false,true,0.0-2.0-0.7-0.63-3.63,1,0,1,68,false,stim,false,2,510.0000000000291,2,0,1,29430,WMM2,252232,false,false,271,image-keyboard-response,29
true,2,2,4,2,true,d,false,true,0.0-2.0-0.7-0.64-3.64,1,0,1,68,false,stim,false,2,376.0,2,1,0,29430,WMM2,254111,false,false,274,image-keyboard-response,30
true,2,2,4,2,true,d,false,true,0.0-2.0-0.7-0.65-3.65,1,0,1,68,false,stim,false,2,712.0,2,0,1,29430,WMM2,256327,false,false,277,image-keyboard-response,31
true,2,2,4,2,true,d,false,true,0.0-2.0-0.7-0.66-3.66,1,0,1,68,false,stim,false,2,442.0000000000291,2,0,1,29430,WMM2,258274,false,false,280,image-keyboard-response,32
true,2,0,4,1,false,z,true,false,0.0-2.0-0.7-0.67-3.67,1,0,1,81,false,stim,false,1,1796.0,2,1,2,29430,WMM2,261574,false,false,283,image-keyboard-response,33
true,2,1,4,1,true,z,false,true,0.0-2.0-0.7-0.68-3.68,1,0,1,90,false,stim,false,1,438.0,2,1,2,29430,WMM2,263516,false,false,286,image-keyboard-response,34
true,2,1,4,1,true,z,false,true,0.0-2.0-0.7-0.69-3.69,1,0,1,90,false,stim,false,1,621.9999999999418,2,1,2,29430,WMM2,265643,false,false,289,image-keyboard-response,35
true,2,2,4,2,true,d,false,true,0.0-2.0-0.7-0.70-3.70,1,0,1,68,false,stim,false,2,656.9999999999418,2,1,0,29430,WMM2,267803,false,false,292,image-keyboard-response,36
true,2,2,4,2,true,d,false,true,0.0-2.0-0.7-0.71-3.71,1,0,1,68,false,stim,false,2,376.0000000000582,2,1,0,29430,WMM2,269682,false,false,295,image-keyboard-response,37
true,3,2,2,0,false,q,false,true,0.0-2.0-0.8-0.72-3.72,1,0,1,68,true,stim,true,2,557.0,2,0,1,29430,WMM2,271743,false,true,298,image-keyboard-response,1
true,3,1,2,1,true,z,false,true,0.0-2.0-0.8-0.73-3.73,1,0,1,90,false,stim,false,1,799.0,2,1,2,29430,WMM2,274047,false,false,301,image-keyboard-response,2
true,3,1,2,1,true,z,false,true,0.0-2.0-0.8-0.74-3.74,1,0,1,90,false,stim,false,1,565.0000000000582,2,1,2,29430,WMM2,276117,false,false,304,image-keyboard-response,3
true,3,1,2,1,true,z,false,true,0.0-2.0-0.8-0.75-3.75,1,0,1,90,false,stim,false,1,475.0,2,1,2,29430,WMM2,278097,false,false,307,image-keyboard-response,4
true,3,2,2,2,true,d,false,true,0.0-2.0-0.8-0.76-3.76,1,0,1,68,false,stim,false,2,374.0,2,1,0,29430,WMM2,279976,false,false,310,image-keyboard-response,5
true,3,2,2,0,false,q,false,false,0.0-2.0-0.8-0.77-3.77,1,0,1,68,false,stim,true,2,633.9999999999418,2,0,1,29430,WMM2,282113,false,false,313,image-keyboard-response,6
true,3,2,2,0,false,q,false,false,0.0-2.0-0.8-0.78-3.78,1,0,1,68,false,stim,true,2,679.0,2,0,1,29430,WMM2,284296,false,false,316,image-keyboard-response,7
true,3,2,2,2,true,d,false,true,0.0-2.0-0.8-0.79-3.79,1,0,1,68,false,stim,false,2,457.0,2,1,0,29430,WMM2,286257,false,false,319,image-keyboard-response,8
true,3,2,2,2,true,d,false,false,0.0-2.0-0.8-0.80-3.80,1,0,1,68,false,stim,false,2,742.0000000000582,2,1,0,29430,WMM2,288503,false,true,322,image-keyboard-response,9
true,3,2,2,2,true,d,false,true,0.0-2.0-0.9-0.81-3.81,1,0,1,68,false,stim,false,2,565.0,2,1,0,29430,WMM2,290573,false,false,325,image-keyboard-response,10
true,3,2,2,2,true,d,false,true,0.0-2.0-0.9-0.82-3.82,1,0,1,68,false,stim,false,2,590.0,2,1,0,29430,WMM2,292666,false,false,328,image-keyboard-response,11
true,3,1,2,1,true,z,false,true,0.0-2.0-0.9-0.83-3.83,1,0,1,90,false,stim,false,1,746.0,2,1,2,29430,WMM2,294916,false,false,331,image-keyboard-response,12
true,3,1,2,1,true,z,false,true,0.0-2.0-0.9-0.84-3.84,1,0,1,90,false,stim,false,1,442.0,2,1,2,29430,WMM2,296862,false,false,334,image-keyboard-response,13
true,3,2,2,0,false,q,false,false,0.0-2.0-0.9-0.85-3.85,1,0,1,68,false,stim,true,2,2289.0,2,0,1,29430,WMM2,300654,false,false,337,image-keyboard-response,14
true,3,2,2,2,true,d,false,true,0.0-2.0-0.9-0.86-3.86,1,0,1,68,false,stim,false,2,926.0,2,1,0,29430,WMM2,303084,false,false,340,image-keyboard-response,15
true,3,1,2,1,true,z,false,true,0.0-2.0-0.9-0.87-3.87,1,0,1,90,false,stim,false,1,554.0,2,1,2,29430,WMM2,305143,false,false,343,image-keyboard-response,16
true,3,0,2,0,true,q,false,true,0.0-2.0-0.9-0.88-3.88,1,0,1,81,false,stim,false,2,419.0,2,0,1,29430,WMM2,307066,false,false,346,image-keyboard-response,17
true,3,0,2,0,true,q,false,true,0.0-2.0-0.9-0.89-3.89,1,0,1,81,false,stim,false,2,499.0,2,0,1,29430,WMM2,309069,false,false,349,image-keyboard-response,18
true,3,2,2,2,true,d,false,true,0.0-2.0-0.10-0.90-3.90,1,0,1,68,false,stim,false,2,678.0,2,1,0,29430,WMM2,311251,false,false,352,image-keyboard-response,19
true,3,1,2,1,true,z,false,true,0.0-2.0-0.10-0.91-3.91,1,0,1,90,false,stim,false,1,633.0,2,1,2,29430,WMM2,313389,false,false,355,image-keyboard-response,20
true,3,1,2,1,true,z,false,false,0.0-2.0-0.10-0.92-3.92,1,0,1,90,false,stim,false,1,453.0,2,1,2,29430,WMM2,315346,false,true,358,image-keyboard-response,21
true,3,1,2,1,true,z,false,true,0.0-2.0-0.10-0.93-3.93,1,0,1,90,false,stim,false,1,713.0,2,1,2,29430,WMM2,317563,false,false,361,image-keyboard-response,22
true,3,0,2,0,true,q,false,true,0.0-2.0-0.10-0.94-3.94,1,0,1,81,false,stim,false,2,747.0,2,0,1,29430,WMM2,319813,false,false,364,image-keyboard-response,23
true,3,2,2,2,true,d,false,true,0.0-2.0-0.10-0.95-3.95,1,0,1,68,false,stim,false,2,521.0,2,0,0,29430,WMM2,321838,false,false,367,image-keyboard-response,24
true,3,0,2,0,true,q,false,true,0.0-2.0-0.10-0.96-3.96,1,0,1,81,false,stim,false,2,1387.0,2,0,1,29430,WMM2,324729,false,false,370,image-keyboard-response,25
true,3,0,2,0,true,q,false,true,0.0-2.0-0.10-0.97-3.97,1,0,1,81,false,stim,false,2,419.0,2,0,1,29430,WMM2,326653,false,false,373,image-keyboard-response,26
true,3,2,2,2,true,d,false,false,0.0-2.0-0.10-0.98-3.98,1,0,1,68,false,stim,false,2,779.9999999999418,2,0,0,29430,WMM2,328937,false,true,376,image-keyboard-response,27
true,3,0,2,0,true,q,false,true,0.0-2.0-0.11-0.99-3.99,1,0,1,81,false,stim,false,2,779.0,2,0,1,29430,WMM2,331221,false,false,379,image-keyboard-response,28
true,3,1,2,1,true,z,false,true,0.0-2.0-0.11-0.100-3.100,1,0,1,90,false,stim,false,1,555.0,2,1,2,29430,WMM2,333279,false,false,382,image-keyboard-response,29
true,3,1,2,1,true,z,false,false,0.0-2.0-0.11-0.101-3.101,1,0,1,90,false,stim,false,1,442.0,2,1,2,29430,WMM2,335226,false,true,385,image-keyboard-response,30
true,4,2,1,0,false,q,false,false,0.0-2.0-0.11-0.102-3.102,0,0,1,68,true,stim,true,2,632.0,2,0,0,29430,WMM2,337363,false,false,388,image-keyboard-response,1
true,4,2,1,0,false,q,false,false,0.0-2.0-0.11-0.103-3.103,0,0,1,68,false,stim,true,2,1343.0,2,0,0,29430,WMM2,340210,false,false,391,image-keyboard-response,2
true,4,0,1,0,true,q,false,true,0.0-2.0-0.11-0.104-3.104,0,0,1,81,false,stim,false,2,442.0,2,0,0,29430,WMM2,342156,false,false,394,image-keyboard-response,3
true,4,2,1,1,false,z,true,false,0.0-2.0-0.11-0.105-3.105,0,0,1,68,false,stim,false,0,1657.0000000000582,2,0,1,29430,WMM2,345317,false,false,397,image-keyboard-response,4
true,4,0,1,1,false,z,false,false,0.0-2.0-0.11-0.106-3.106,0,0,1,81,false,stim,true,0,903.0,2,0,1,29430,WMM2,347725,false,false,400,image-keyboard-response,5
true,4,1,1,1,true,z,false,false,0.0-2.0-0.11-0.107-3.107,0,0,1,90,false,stim,false,1,1723.0,2,1,2,29430,WMM2,350954,false,true,403,image-keyboard-response,6
true,4,0,1,0,true,q,false,true,0.0-2.0-0.12-0.108-3.108,0,0,1,81,false,stim,false,2,711.0,2,0,0,29430,WMM2,353170,false,false,406,image-keyboard-response,7
true,4,2,1,1,false,z,true,true,0.0-2.0-0.12-0.109-3.109,0,0,1,68,false,stim,false,1,644.0,2,1,2,29430,WMM2,355319,false,true,409,image-keyboard-response,8
true,4,0,1,1,false,z,false,false,0.0-2.0-0.12-0.110-3.110,0,0,1,81,false,stim,true,0,1073.0,2,0,1,29430,WMM2,357895,false,false,412,image-keyboard-response,9
true,4,2,1,1,false,z,true,false,0.0-2.0-0.12-0.111-3.111,0,0,1,68,false,stim,false,1,768.0,2,1,2,29430,WMM2,360168,false,false,415,image-keyboard-response,10
true,4,2,1,1,false,z,true,false,0.0-2.0-0.12-0.112-3.112,0,0,1,68,false,stim,false,0,510.0,2,0,1,29430,WMM2,362182,false,false,418,image-keyboard-response,11
true,4,1,1,1,true,z,false,true,0.0-2.0-0.12-0.113-3.113,0,0,1,90,false,stim,false,0,1736.0,2,0,1,29430,WMM2,365422,false,false,421,image-keyboard-response,12
true,4,0,1,0,true,q,false,true,0.0-2.0-0.12-0.114-3.114,0,0,1,81,false,stim,false,2,610.0,2,0,0,29430,WMM2,367537,false,false,424,image-keyboard-response,13
true,4,0,1,1,false,z,true,false,0.0-2.0-0.12-0.115-3.115,0,0,1,81,false,stim,false,1,1883.0,2,1,2,29430,WMM2,370923,false,false,427,image-keyboard-response,14
true,4,0,1,0,true,q,false,false,0.0-2.0-0.12-0.116-3.116,0,0,1,81,false,stim,false,2,623.0,2,0,0,29430,WMM2,373049,false,true,430,image-keyboard-response,15
true,4,0,1,0,true,q,false,true,0.0-2.0-0.13-0.117-3.117,0,0,1,81,false,stim,false,2,645.0,2,0,0,29430,WMM2,375198,false,false,433,image-keyboard-response,16
true,4,1,1,1,true,z,false,true,0.0-2.0-0.13-0.118-3.118,0,0,1,90,false,stim,false,1,1094.0,2,1,2,29430,WMM2,377797,false,false,436,image-keyboard-response,17
true,4,2,1,0,false,q,false,true,0.0-2.0-0.13-0.119-3.119,0,0,1,68,false,stim,true,2,127.99999999994179,2,0,0,29430,WMM2,379428,false,true,439,image-keyboard-response,18
true,4,1,1,1,true,z,false,false,0.0-2.0-0.13-0.120-3.120,0,0,1,90,false,stim,false,1,567.0,2,1,2,29430,WMM2,381498,false,true,442,image-keyboard-response,19
true,4,2,1,0,false,q,false,false,0.0-2.0-0.13-0.121-3.121,0,0,1,68,false,stim,true,2,711.9999999999418,2,0,0,29430,WMM2,383714,false,false,445,image-keyboard-response,20
true,4,1,1,1,true,z,false,true,0.0-2.0-0.13-0.122-3.122,0,0,1,90,false,stim,false,0,554.0,2,0,1,29430,WMM2,385773,false,false,448,image-keyboard-response,21
true,4,1,1,1,true,z,false,true,0.0-2.0-0.13-0.123-3.123,0,0,1,90,false,stim,false,0,543.0,2,0,1,29430,WMM2,387821,false,false,451,image-keyboard-response,22
true,4,1,1,1,true,z,false,false,0.0-2.0-0.13-0.124-3.124,0,0,1,90,false,stim,false,0,464.0,2,0,1,29430,WMM2,389790,false,true,454,image-keyboard-response,23
true,4,1,1,1,true,z,false,true,0.0-2.0-0.13-0.125-3.125,0,0,1,90,false,stim,false,1,1331.0,2,1,2,29430,WMM2,392625,false,false,457,image-keyboard-response,24
true,4,1,1,1,true,z,false,true,0.0-2.0-0.14-0.126-3.126,0,0,1,90,false,stim,false,1,542.0,2,1,2,29430,WMM2,394672,false,false,460,image-keyboard-response,25
true,4,0,1,0,true,q,false,true,0.0-2.0-0.14-0.127-3.127,0,0,1,81,false,stim,false,2,936.0,2,0,0,29430,WMM2,397113,false,false,463,image-keyboard-response,26
true,4,2,1,1,false,z,true,false,0.0-2.0-0.14-0.128-3.128,0,0,1,68,false,stim,false,0,1556.0,2,0,1,29430,WMM2,400174,false,false,466,image-keyboard-response,27
true,4,0,1,1,false,z,false,false,0.0-2.0-0.14-0.129-3.129,0,0,1,81,false,stim,true,0,442.0,2,0,1,29430,WMM2,402120,false,false,469,image-keyboard-response,28
true,4,1,1,1,true,z,false,true,0.0-2.0-0.14-0.130-3.130,0,0,1,90,false,stim,false,1,701.0,2,1,2,29430,WMM2,404325,false,false,472,image-keyboard-response,29
true,4,0,1,0,true,q,false,true,0.0-2.0-0.14-0.131-3.131,0,0,1,81,false,stim,false,2,734.0,2,0,0,29430,WMM2,406564,false,false,475,image-keyboard-response,30
true,4,0,1,0,true,q,false,true,0.0-2.0-0.14-0.132-3.132,0,0,1,81,false,stim,false,2,521.0,2,0,0,29430,WMM2,408589,false,false,478,image-keyboard-response,31
true,4,1,1,1,true,z,false,false,0.0-2.0-0.14-0.133-3.133,0,0,1,90,false,stim,false,1,555.0,2,1,2,29430,WMM2,410648,false,true,481,image-keyboard-response,32
true,4,1,1,1,true,z,false,true,0.0-2.0-0.14-0.134-3.134,0,0,1,90,false,stim,false,0,588.0000000000582,2,0,1,29430,WMM2,412740,false,false,484,image-keyboard-response,33
true,4,1,1,1,true,z,false,true,0.0-2.0-0.15-0.135-3.135,0,0,1,90,false,stim,false,1,710.0,2,1,2,29430,WMM2,414956,false,false,487,image-keyboard-response,34
true,4,0,1,0,true,q,false,true,0.0-2.0-0.15-0.136-3.136,0,0,1,81,false,stim,false,2,610.9999999999418,2,0,0,29430,WMM2,417071,false,false,490,image-keyboard-response,35
true,4,1,1,1,true,z,false,false,0.0-2.0-0.15-0.137-3.137,0,0,1,90,false,stim,false,1,487.0,2,1,2,29430,WMM2,419062,false,true,493,image-keyboard-response,36
true,4,1,1,1,true,z,false,true,0.0-2.0-0.15-0.138-3.138,0,0,1,90,false,stim,false,0,599.9999999999418,2,0,1,29430,WMM2,421165,false,false,496,image-keyboard-response,37
true,4,0,1,0,true,q,false,true,0.0-2.0-0.15-0.139-3.139,0,0,1,81,false,stim,false,2,701.0,2,0,0,29430,WMM2,423369,false,false,499,image-keyboard-response,38
true,4,1,1,1,true,z,false,false,0.0-2.0-0.15-0.140-3.140,0,0,1,90,false,stim,false,1,687.0,2,1,2,29430,WMM2,425562,false,true,502,image-keyboard-response,39
true,4,1,1,1,true,z,false,true,0.0-2.0-0.15-0.141-3.141,0,0,1,90,false,stim,false,0,836.0000000000582,2,1,1,29430,WMM2,427902,false,false,505,image-keyboard-response,40
true,4,0,1,0,true,q,false,false,0.0-2.0-0.15-0.142-3.142,0,0,1,81,false,stim,false,2,678.0,2,0,0,29430,WMM2,430084,false,true,508,image-keyboard-response,41
true,4,2,1,1,false,z,true,true,0.0-2.0-0.15-0.143-3.143,0,0,1,68,false,stim,false,0,723.0,2,1,1,29430,WMM2,432312,false,true,511,image-keyboard-response,42
true,4,2,1,1,false,z,true,false,0.0-2.0-0.16-0.144-3.144,0,0,1,68,false,stim,false,0,599.0,2,1,1,29430,WMM2,434415,false,false,514,image-keyboard-response,43
true,4,2,1,1,false,z,true,false,0.0-2.0-0.16-0.145-3.145,0,0,1,68,false,stim,false,0,637.0,2,1,1,29430,WMM2,436556,false,false,517,image-keyboard-response,44
true,4,0,1,0,true,q,false,true,0.0-2.0-0.16-0.146-3.146,0,0,1,81,false,stim,false,2,607.0,2,0,0,29430,WMM2,438667,false,false,520,image-keyboard-response,45
true,4,0,1,0,true,q,false,true,0.0-2.0-0.16-0.147-3.147,0,0,1,81,false,stim,false,2,706.0,2,0,0,29430,WMM2,440876,false,false,523,image-keyboard-response,46
true,4,0,1,1,false,z,true,true,0.0-2.0-0.16-0.148-3.148,0,0,1,81,false,stim,false,1,813.0000000000582,2,1,2,29430,WMM2,443193,false,true,526,image-keyboard-response,47
true,5,0,4,1,false,z,true,true,0.0-2.0-0.16-0.149-3.149,0,1,1,81,true,stim,false,1,483.0,2,1,2,29430,WMM2,445180,false,true,529,image-keyboard-response,1
true,5,1,4,1,true,z,false,true,0.0-2.0-0.16-0.150-3.150,0,1,1,90,false,stim,false,1,1533.0,2,1,1,29430,WMM2,448218,false,false,532,image-keyboard-response,2
true,5,0,4,1,false,z,true,false,0.0-2.0-0.16-0.151-3.151,0,1,1,81,false,stim,false,1,936.9999999999418,2,1,2,29430,WMM2,450659,false,false,535,image-keyboard-response,3
true,5,0,4,0,true,q,false,true,0.0-2.0-0.16-0.152-3.152,0,1,1,81,false,stim,false,0,475.0,2,0,0,29430,WMM2,452639,false,false,538,image-keyboard-response,4
true,5,1,4,1,true,z,false,true,0.0-2.0-0.17-0.153-3.153,0,1,1,90,false,stim,false,1,712.0,2,1,1,29430,WMM2,454855,false,false,541,image-keyboard-response,5
true,5,0,4,0,true,q,false,true,0.0-2.0-0.17-0.154-3.154,0,1,1,81,false,stim,false,0,678.0,2,0,0,29430,WMM2,457038,false,false,544,image-keyboard-response,6
true,5,0,4,0,true,q,false,true,0.0-2.0-0.17-0.155-3.155,0,1,1,81,false,stim,false,0,444.0,2,0,0,29430,WMM2,458984,false,false,547,image-keyboard-response,7
true,5,1,4,1,true,z,false,true,0.0-2.0-0.17-0.156-3.156,0,1,1,90,false,stim,false,1,836.0,2,1,1,29430,WMM2,461324,false,false,550,image-keyboard-response,8
true,5,0,4,0,true,q,false,true,0.0-2.0-0.17-0.157-3.157,0,1,1,81,false,stim,false,0,566.0000000000582,2,0,0,29430,WMM2,463394,false,false,553,image-keyboard-response,9
true,5,1,4,1,true,z,false,false,0.0-2.0-0.17-0.158-3.158,0,1,1,90,false,stim,false,1,824.0,2,1,1,29430,WMM2,465723,false,true,556,image-keyboard-response,10
true,5,1,4,1,true,z,false,true,0.0-2.0-0.17-0.159-3.159,0,1,1,90,false,stim,false,1,656.0,2,1,2,29430,WMM2,467883,false,false,559,image-keyboard-response,11
true,5,1,4,1,true,z,false,false,0.0-2.0-0.17-0.160-3.160,0,1,1,90,false,stim,false,1,598.9999999999418,2,1,2,29430,WMM2,469986,false,true,562,image-keyboard-response,12
true,5,1,4,1,true,z,false,true,0.0-2.0-0.17-0.161-3.161,0,1,1,90,false,stim,false,1,567.0,2,1,2,29430,WMM2,472056,false,false,565,image-keyboard-response,13
true,5,1,4,1,true,z,false,true,0.0-2.0-0.18-0.162-3.162,0,1,1,90,false,stim,false,1,644.0,2,1,1,29430,WMM2,474205,false,false,568,image-keyboard-response,14
true,5,1,4,1,true,z,false,true,0.0-2.0-0.18-0.163-3.163,0,1,1,90,false,stim,false,1,498.0,2,1,1,29430,WMM2,476208,false,false,571,image-keyboard-response,15
true,5,1,4,1,true,z,false,true,0.0-2.0-0.18-0.164-3.164,0,1,1,90,false,stim,false,1,813.0,2,1,2,29430,WMM2,478525,false,false,574,image-keyboard-response,16
true,5,0,4,0,true,q,false,true,0.0-2.0-0.18-0.165-3.165,0,1,1,81,false,stim,false,0,655.0000000000582,2,0,0,29430,WMM2,480685,false,false,577,image-keyboard-response,17
true,5,1,4,1,true,z,false,false,0.0-2.0-0.18-0.166-3.166,0,1,1,90,false,stim,false,1,657.0000000000582,2,1,2,29430,WMM2,482845,false,true,580,image-keyboard-response,18
true,5,0,4,0,true,q,false,true,0.0-2.0-0.18-0.167-3.167,0,1,1,81,false,stim,false,0,892.0,2,0,0,29430,WMM2,485242,false,false,583,image-keyboard-response,19
true,5,1,4,1,true,z,false,true,0.0-2.0-0.18-0.168-3.168,0,1,1,90,false,stim,false,1,566.0,2,1,1,29430,WMM2,487312,false,false,586,image-keyboard-response,20
true,5,0,4,0,true,q,false,true,0.0-2.0-0.18-0.169-3.169,0,1,1,81,false,stim,false,0,767.9999999999418,2,1,0,29430,WMM2,489584,false,false,589,image-keyboard-response,21
true,5,1,4,1,true,z,false,true,0.0-2.0-0.18-0.170-3.170,0,1,1,90,false,stim,false,1,645.0000000000582,2,0,2,29430,WMM2,491733,false,false,592,image-keyboard-response,22
true,5,0,4,0,true,q,false,true,0.0-2.0-0.19-0.171-3.171,0,1,1,81,false,stim,false,0,791.0,2,1,0,29430,WMM2,494028,false,false,595,image-keyboard-response,23
true,5,1,4,1,true,z,false,true,0.0-2.0-0.19-0.172-3.172,0,1,1,90,false,stim,false,1,1106.0,2,1,1,29430,WMM2,496638,false,false,598,image-keyboard-response,24
true,5,1,4,1,true,z,false,true,0.0-2.0-0.19-0.173-3.173,0,1,1,90,false,stim,false,1,552.0000000000582,2,0,2,29430,WMM2,498697,false,false,601,image-keyboard-response,25
true,5,0,4,0,true,q,false,true,0.0-2.0-0.19-0.174-3.174,0,1,1,81,false,stim,false,0,544.0000000000582,2,1,0,29430,WMM2,500745,false,false,604,image-keyboard-response,26
true,5,1,4,1,true,z,false,true,0.0-2.0-0.19-0.175-3.175,0,1,1,90,false,stim,false,1,769.0,2,1,1,29430,WMM2,503017,false,false,607,image-keyboard-response,27
true,5,0,4,0,true,q,false,true,0.0-2.0-0.19-0.176-3.176,0,1,1,81,false,stim,false,0,667.0,2,1,0,29430,WMM2,505188,false,false,610,image-keyboard-response,28
true,5,1,4,1,true,z,false,true,0.0-2.0-0.19-0.177-3.177,0,1,1,90,false,stim,false,1,690.0,2,0,2,29430,WMM2,507382,false,false,613,image-keyboard-response,29
true,5,1,4,1,true,z,false,true,0.0-2.0-0.19-0.178-3.178,0,1,1,90,false,stim,false,1,790.9999999999418,2,1,1,29430,WMM2,509677,false,false,616,image-keyboard-response,30
true,6,1,3,2,false,d,false,false,0.0-2.0-0.19-0.179-3.179,1,1,0,90,true,stim,true,1,555.0,2,0,2,29430,WMM2,511736,false,false,619,image-keyboard-response,1
true,6,0,3,0,true,q,false,true,0.0-2.0-0.20-0.180-3.180,1,1,0,81,false,stim,false,0,599.0000000000582,2,1,0,29430,WMM2,513840,false,false,622,image-keyboard-response,2
true,6,1,3,2,false,d,false,false,0.0-2.0-0.20-0.181-3.181,1,1,0,90,false,stim,true,1,771.9999999999418,2,0,2,29430,WMM2,516116,false,false,625,image-keyboard-response,3
true,6,1,3,1,true,z,false,false,0.0-2.0-0.20-0.182-3.182,1,1,0,90,false,stim,false,1,630.0,2,1,1,29430,WMM2,518250,false,true,628,image-keyboard-response,4
true,6,2,3,1,false,z,true,false,0.0-2.0-0.20-0.183-3.183,1,1,0,68,false,stim,false,1,1049.0,2,1,1,29430,WMM2,520804,false,false,631,image-keyboard-response,5
true,6,0,3,0,true,q,false,true,0.0-2.0-0.20-0.184-3.184,1,1,0,81,false,stim,false,0,779.0,2,1,0,29430,WMM2,523088,false,false,634,image-keyboard-response,6
true,6,2,3,1,false,z,true,false,0.0-2.0-0.20-0.185-3.185,1,1,0,68,false,stim,false,1,1398.0,2,1,1,29430,WMM2,525990,false,false,637,image-keyboard-response,7
true,6,0,3,2,false,d,true,false,0.0-2.0-0.20-0.186-3.186,1,1,0,81,false,stim,false,1,870.0,2,0,2,29430,WMM2,528364,false,false,640,image-keyboard-response,8
true,6,0,3,0,true,q,false,true,0.0-2.0-0.20-0.187-3.187,1,1,0,81,false,stim,false,0,858.0,2,1,0,29430,WMM2,530726,false,false,643,image-keyboard-response,9
true,6,1,3,2,false,d,false,false,0.0-2.0-0.20-0.188-3.188,1,1,0,90,false,stim,true,1,476.0,2,0,2,29430,WMM2,532706,false,false,646,image-keyboard-response,10
true,6,1,3,1,true,z,false,true,0.0-2.0-0.21-0.189-3.189,1,1,0,90,false,stim,false,1,813.0,2,1,1,29430,WMM2,535024,false,false,649,image-keyboard-response,11
true,6,0,3,0,true,q,false,true,0.0-2.0-0.21-0.190-3.190,1,1,0,81,false,stim,false,0,827.0,2,1,0,29430,WMM2,537353,false,false,652,image-keyboard-response,12
true,6,0,3,0,true,q,false,false,0.0-2.0-0.21-0.191-3.191,1,1,0,81,false,stim,false,0,734.0,2,1,0,29430,WMM2,539592,false,true,655,image-keyboard-response,13
true,6,1,3,2,false,d,false,false,0.0-2.0-0.21-0.192-3.192,1,1,0,90,false,stim,true,1,1265.0,2,0,2,29430,WMM2,542359,false,false,658,image-keyboard-response,14
true,6,2,3,2,true,d,false,true,0.0-2.0-0.21-0.193-3.193,1,1,0,68,false,stim,false,1,475.0000000001164,2,0,2,29430,WMM2,544339,false,false,661,image-keyboard-response,15
true,6,2,3,2,true,d,false,true,0.0-2.0-0.21-0.194-3.194,1,1,0,68,false,stim,false,1,502.0,2,0,2,29430,WMM2,546346,false,false,664,image-keyboard-response,16
true,6,0,3,1,false,z,true,true,0.0-2.0-0.21-0.195-3.195,1,1,0,81,false,stim,false,1,1428.0,2,1,1,29430,WMM2,549278,false,true,667,image-keyboard-response,17
true,6,0,3,1,false,z,true,false,0.0-2.0-0.21-0.196-3.196,1,1,0,81,false,stim,false,1,543.0,2,1,1,29430,WMM2,551326,false,false,670,image-keyboard-response,18
true,6,0,3,0,true,q,false,true,0.0-2.0-0.21-0.197-3.197,1,1,0,81,false,stim,false,0,1139.0,2,1,0,29430,WMM2,553969,false,false,673,image-keyboard-response,19
true,6,0,3,0,true,q,false,true,0.0-2.0-0.22-0.198-3.198,1,1,0,81,false,stim,false,0,734.0,2,1,0,29430,WMM2,556208,false,false,676,image-keyboard-response,20
true,6,2,3,1,false,z,true,false,0.0-2.0-0.22-0.199-3.199,1,1,0,68,false,stim,false,1,509.0,2,1,1,29430,WMM2,558222,false,false,679,image-keyboard-response,21
true,6,0,3,0,true,q,false,true,0.0-2.0-0.22-0.200-3.200,1,1,0,81,false,stim,false,0,1196.0,2,1,0,29430,WMM2,560922,false,false,682,image-keyboard-response,22
true,6,1,3,1,true,z,false,true,0.0-2.0-0.22-0.201-3.201,1,1,0,90,false,stim,false,1,1218.0,2,1,1,29430,WMM2,563644,false,false,685,image-keyboard-response,23
true,6,2,3,2,true,d,false,true,0.0-2.0-0.22-0.202-3.202,1,1,0,68,false,stim,false,1,824.0,2,0,2,29430,WMM2,565973,false,false,688,image-keyboard-response,24
true,6,1,3,1,true,z,false,true,0.0-2.0-0.22-0.203-3.203,1,1,0,90,false,stim,false,1,693.0,2,1,1,29430,WMM2,568171,false,false,691,image-keyboard-response,25
true,6,0,3,0,true,q,false,false,0.0-2.0-0.22-0.204-3.204,1,1,0,81,false,stim,false,0,775.0,2,1,0,29430,WMM2,570451,false,true,694,image-keyboard-response,26
true,6,2,3,2,true,d,false,true,0.0-2.0-0.22-0.205-3.205,1,1,0,68,false,stim,false,1,824.0,2,1,2,29430,WMM2,572780,false,false,697,image-keyboard-response,27
true,6,2,3,2,true,d,false,true,0.0-2.0-0.22-0.206-3.206,1,1,0,68,false,stim,false,1,623.0,2,1,2,29430,WMM2,574906,false,false,700,image-keyboard-response,28
true,6,2,3,2,true,d,false,true,0.0-2.0-0.23-0.207-3.207,1,1,0,68,false,stim,false,1,656.0,2,1,2,29430,WMM2,577070,false,false,703,image-keyboard-response,29
true,6,1,3,1,true,z,false,true,0.0-2.0-0.23-0.208-3.208,1,1,0,90,false,stim,false,1,719.0,2,0,1,29430,WMM2,579294,false,false,706,image-keyboard-response,30
true,6,0,3,0,true,q,false,false,0.0-2.0-0.23-0.209-3.209,1,1,0,81,false,stim,false,0,758.0,2,1,0,29430,WMM2,581555,false,true,709,image-keyboard-response,31
true,6,2,3,1,false,z,true,false,0.0-2.0-0.23-0.210-3.210,1,1,0,68,false,stim,false,1,925.9999999998836,2,0,1,29430,WMM2,583985,false,false,712,image-keyboard-response,32
true,6,2,3,2,true,d,false,true,0.0-2.0-0.23-0.211-3.211,1,1,0,68,false,stim,false,1,892.0000000001164,2,1,2,29430,WMM2,586381,false,false,715,image-keyboard-response,33
true,6,0,3,0,true,q,false,false,0.0-2.0-0.23-0.212-3.212,1,1,0,81,false,stim,false,0,746.0000000001164,2,1,0,29430,WMM2,588631,false,true,718,image-keyboard-response,34
true,6,2,3,2,true,d,false,true,0.0-2.0-0.23-0.213-3.213,1,1,0,68,false,stim,false,1,1006.0,2,1,2,29430,WMM2,591140,false,false,721,image-keyboard-response,35
true,7,0,3,0,true,q,false,true,0.0-2.0-0.23-0.214-3.214,1,0,1,81,true,stim,false,0,926.0,2,1,0,29430,WMM2,593570,false,false,724,image-keyboard-response,1
true,7,1,3,2,false,d,false,false,0.0-2.0-0.23-0.215-3.215,1,0,1,90,false,stim,true,1,869.0,2,0,1,29430,WMM2,595944,false,false,727,image-keyboard-response,2
true,7,1,3,2,false,d,false,false,0.0-2.0-0.24-0.216-3.216,1,0,1,90,false,stim,true,1,522.0,2,0,1,29430,WMM2,597969,false,false,730,image-keyboard-response,3
true,7,0,3,0,true,q,false,true,0.0-2.0-0.24-0.217-3.217,1,0,1,81,false,stim,false,0,1027.0,2,1,0,29430,WMM2,600500,false,false,733,image-keyboard-response,4
true,7,1,3,2,false,d,false,false,0.0-2.0-0.24-0.218-3.218,1,0,1,90,false,stim,true,1,1049.0000000001164,2,0,1,29430,WMM2,603054,false,false,736,image-keyboard-response,5
true,7,1,3,2,false,d,false,false,0.0-2.0-0.24-0.219-3.219,1,0,1,90,false,stim,true,1,665.9999999998836,2,0,1,29430,WMM2,605226,false,false,739,image-keyboard-response,6
true,7,0,3,0,true,q,false,true,0.0-2.0-0.24-0.220-3.220,1,0,1,81,false,stim,false,0,866.9999999998836,2,1,0,29430,WMM2,607599,false,false,742,image-keyboard-response,7
true,7,0,3,0,true,q,false,true,0.0-2.0-0.24-0.221-3.221,1,0,1,81,false,stim,false,0,822.0,2,1,0,29430,WMM2,609928,false,false,745,image-keyboard-response,8
true,7,2,3,2,true,d,false,true,0.0-2.0-0.24-0.222-3.222,1,0,1,68,false,stim,false,2,578.0000000001164,2,1,2,29430,WMM2,612011,false,false,748,image-keyboard-response,9
true,7,2,3,2,true,d,false,true,0.0-2.0-0.24-0.223-3.223,1,0,1,68,false,stim,false,2,576.0,2,1,2,29430,WMM2,614091,false,false,751,image-keyboard-response,10
true,7,2,3,2,true,d,false,true,0.0-2.0-0.24-0.224-3.224,1,0,1,68,false,stim,false,2,521.0,2,1,2,29430,WMM2,616116,false,false,754,image-keyboard-response,11
true,7,2,3,2,true,d,false,true,0.0-2.0-0.25-0.225-3.225,1,0,1,68,false,stim,false,1,553.0,2,0,1,29430,WMM2,618174,false,false,757,image-keyboard-response,12
true,7,2,3,2,true,d,false,true,0.0-2.0-0.25-0.226-3.226,1,0,1,68,false,stim,false,1,452.9999999998836,2,0,1,29430,WMM2,620132,false,false,760,image-keyboard-response,13
true,7,0,3,0,true,q,false,false,0.0-2.0-0.25-0.227-3.227,1,0,1,81,false,stim,false,0,802.0000000001164,2,1,0,29430,WMM2,622438,false,true,763,image-keyboard-response,14
true,7,2,3,2,true,d,false,true,0.0-2.0-0.25-0.228-3.228,1,0,1,68,false,stim,false,2,712.0000000001164,2,1,2,29430,WMM2,624655,false,false,766,image-keyboard-response,15
true,7,2,3,2,true,d,false,true,0.0-2.0-0.25-0.229-3.229,1,0,1,68,false,stim,false,1,679.0,2,0,1,29430,WMM2,626837,false,false,769,image-keyboard-response,16
true,7,2,3,2,true,d,false,false,0.0-2.0-0.25-0.230-3.230,1,0,1,68,false,stim,false,2,678.0,2,1,2,29430,WMM2,629019,false,true,772,image-keyboard-response,17
true,7,0,3,0,true,q,false,true,0.0-2.0-0.25-0.231-3.231,1,0,1,81,false,stim,false,0,836.0,2,1,0,29430,WMM2,631360,false,false,775,image-keyboard-response,18
true,7,0,3,0,true,q,false,true,0.0-2.0-0.25-0.232-3.232,1,0,1,81,false,stim,false,0,599.0,2,1,0,29430,WMM2,633464,false,false,778,image-keyboard-response,19
true,7,2,3,2,true,d,false,true,0.0-2.0-0.25-0.233-3.233,1,0,1,68,false,stim,false,2,645.0,2,1,2,29430,WMM2,635612,false,false,781,image-keyboard-response,20
true,7,2,3,2,true,d,false,true,0.0-2.0-0.26-0.234-3.234,1,0,1,68,false,stim,false,1,648.0,2,1,1,29430,WMM2,637765,false,false,784,image-keyboard-response,21
true,7,2,3,2,true,d,false,true,0.0-2.0-0.26-0.235-3.235,1,0,1,68,false,stim,false,1,674.0,2,1,1,29430,WMM2,639944,false,false,787,image-keyboard-response,22
true,7,2,3,2,true,d,false,true,0.0-2.0-0.26-0.236-3.236,1,0,1,68,false,stim,false,2,800.0,2,0,2,29430,WMM2,642250,false,false,790,image-keyboard-response,23
true,7,2,3,2,true,d,false,true,0.0-2.0-0.26-0.237-3.237,1,0,1,68,false,stim,false,2,588.0,2,0,2,29430,WMM2,644343,false,false,793,image-keyboard-response,24
true,7,0,3,0,true,q,false,true,0.0-2.0-0.26-0.238-3.238,1,0,1,81,false,stim,false,0,600.0,2,1,0,29430,WMM2,646446,false,false,796,image-keyboard-response,25
true,7,2,3,2,true,d,false,true,0.0-2.0-0.26-0.239-3.239,1,0,1,68,false,stim,false,1,836.0,2,1,1,29430,WMM2,648787,false,false,799,image-keyboard-response,26
true,7,2,3,2,true,d,false,true,0.0-2.0-0.26-0.240-3.240,1,0,1,68,false,stim,false,2,792.0,2,0,2,29430,WMM2,651085,false,false,802,image-keyboard-response,27
true,7,0,3,0,true,q,false,true,0.0-2.0-0.26-0.241-3.241,1,0,1,81,false,stim,false,0,641.0000000001164,2,1,0,29430,WMM2,653232,false,false,805,image-keyboard-response,28
true,7,0,3,0,true,q,false,true,0.0-2.0-0.26-0.242-3.242,1,0,1,81,false,stim,false,0,520.0000000001164,2,1,0,29430,WMM2,655255,false,false,808,image-keyboard-response,29
true,7,2,3,2,true,d,false,true,0.0-2.0-0.27-0.243-3.243,1,0,1,68,false,stim,false,2,620.9999999998836,2,0,2,29430,WMM2,657381,false,false,811,image-keyboard-response,30
true,8,0,2,0,true,q,false,true,0.0-2.0-0.27-0.244-3.244,1,1,0,81,true,stim,false,0,625.0,2,1,0,29430,WMM2,659511,false,false,814,image-keyboard-response,1
true,8,2,2,2,true,d,false,true,0.0-2.0-0.27-0.245-3.245,1,1,0,68,false,stim,false,2,685.0,2,1,1,29430,WMM2,661702,false,false,817,image-keyboard-response,2
true,8,2,2,2,true,d,false,true,0.0-2.0-0.27-0.246-3.246,1,1,0,68,false,stim,false,2,502.0,2,1,1,29430,WMM2,663708,false,false,820,image-keyboard-response,3
true,8,2,2,2,true,d,false,true,0.0-2.0-0.27-0.247-3.247,1,1,0,68,false,stim,false,2,505.0,2,1,1,29430,WMM2,665718,false,false,823,image-keyboard-response,4
true,8,0,2,0,true,q,false,false,0.0-2.0-0.27-0.248-3.248,1,1,0,81,false,stim,false,0,769.0,2,1,0,29430,WMM2,667991,false,true,826,image-keyboard-response,5
true,8,2,2,0,false,q,false,false,0.0-2.0-0.27-0.249-3.249,1,1,0,68,false,stim,true,2,680.0,2,0,2,29430,WMM2,670174,false,false,829,image-keyboard-response,6
true,8,0,2,0,true,q,false,true,0.0-2.0-0.27-0.250-3.250,1,1,0,81,false,stim,false,0,856.9999999998836,2,1,0,29430,WMM2,672536,false,false,832,image-keyboard-response,7
true,8,2,2,0,false,q,false,false,0.0-2.0-0.27-0.251-3.251,1,1,0,68,false,stim,true,2,678.0,2,0,2,29430,WMM2,674718,false,false,835,image-keyboard-response,8
true,8,2,2,2,true,d,false,true,0.0-2.0-0.28-0.252-3.252,1,1,0,68,false,stim,false,2,497.0,2,1,1,29430,WMM2,676721,false,false,838,image-keyboard-response,9
true,8,0,2,0,true,q,false,true,0.0-2.0-0.28-0.253-3.253,1,1,0,81,false,stim,false,0,611.0,2,1,0,29430,WMM2,678836,false,false,841,image-keyboard-response,10
true,8,2,2,0,false,q,false,false,0.0-2.0-0.28-0.254-3.254,1,1,0,68,false,stim,true,2,587.0000000001164,2,0,2,29430,WMM2,680928,false,false,844,image-keyboard-response,11
true,8,0,2,0,true,q,false,true,0.0-2.0-0.28-0.255-3.255,1,1,0,81,false,stim,false,0,726.9999999998836,2,1,0,29430,WMM2,683160,false,false,847,image-keyboard-response,12
true,8,2,2,0,false,q,false,false,0.0-2.0-0.28-0.256-3.256,1,1,0,68,false,stim,true,2,482.9999999998836,2,0,2,29430,WMM2,685147,false,false,850,image-keyboard-response,13
true,8,1,2,0,false,q,true,false,0.0-2.0-0.28-0.257-3.257,1,1,0,90,false,stim,false,2,659.0,2,0,2,29430,WMM2,687311,false,false,853,image-keyboard-response,14
true,8,0,2,0,true,q,false,true,0.0-2.0-0.28-0.258-3.258,1,1,0,81,false,stim,false,0,820.0,2,1,0,29430,WMM2,689636,false,false,856,image-keyboard-response,15
true,8,1,2,2,false,d,true,false,0.0-2.0-0.28-0.259-3.259,1,1,0,90,false,stim,false,2,1478.0,2,1,1,29430,WMM2,692618,false,false,859,image-keyboard-response,16
true,8,1,2,2,false,d,true,false,0.0-2.0-0.28-0.260-3.260,1,1,0,90,false,stim,false,2,454.0,2,1,1,29430,WMM2,694576,false,false,862,image-keyboard-response,17
true,8,0,2,0,true,q,false,true,0.0-2.0-0.29-0.261-3.261,1,1,0,81,false,stim,false,2,967.9999999998836,2,0,2,29430,WMM2,697050,false,false,865,image-keyboard-response,18
true,8,0,2,0,true,q,false,true,0.0-2.0-0.29-0.262-3.262,1,1,0,81,false,stim,false,2,510.0,2,0,2,29430,WMM2,699063,false,false,868,image-keyboard-response,19
true,8,2,2,2,true,d,false,true,0.0-2.0-0.29-0.263-3.263,1,1,0,68,false,stim,false,2,1343.0,2,1,1,29430,WMM2,701910,false,false,871,image-keyboard-response,20
true,8,0,2,0,true,q,false,true,0.0-2.0-0.29-0.264-3.264,1,1,0,81,false,stim,false,2,676.0,2,0,2,29430,WMM2,704093,false,false,874,image-keyboard-response,21
true,8,2,2,2,true,d,false,true,0.0-2.0-0.29-0.265-3.265,1,1,0,68,false,stim,false,2,929.0,2,1,1,29430,WMM2,706527,false,false,877,image-keyboard-response,22
true,8,2,2,2,true,d,false,true,0.0-2.0-0.29-0.266-3.266,1,1,0,68,false,stim,false,2,606.0,2,0,1,29430,WMM2,708638,false,false,880,image-keyboard-response,23
true,8,0,2,0,true,q,false,true,0.0-2.0-0.29-0.267-3.267,1,1,0,81,false,stim,false,0,510.0,2,0,0,29430,WMM2,710652,false,false,883,image-keyboard-response,24
true,8,0,2,0,true,q,false,false,0.0-2.0-0.29-0.268-3.268,1,1,0,81,false,stim,false,0,441.0,2,0,0,29430,WMM2,712598,false,true,886,image-keyboard-response,25
true,8,0,2,0,true,q,false,true,0.0-2.0-0.29-0.269-3.269,1,1,0,81,false,stim,false,0,576.0,2,0,0,29430,WMM2,714679,false,false,889,image-keyboard-response,26
true,8,2,2,2,true,d,false,true,0.0-2.0-0.30-0.270-3.270,1,1,0,68,false,stim,false,2,947.0,2,0,1,29430,WMM2,717132,false,false,892,image-keyboard-response,27
true,8,0,2,0,true,q,false,true,0.0-2.0-0.30-0.271-3.271,1,1,0,81,false,stim,false,0,689.0,2,0,0,29430,WMM2,719326,false,false,895,image-keyboard-response,28
true,8,0,2,0,true,q,false,false,0.0-2.0-0.30-0.272-3.272,1,1,0,81,false,stim,false,2,700.0,2,1,2,29430,WMM2,721531,false,true,898,image-keyboard-response,29
true,8,0,2,0,true,q,false,true,0.0-2.0-0.30-0.273-3.273,1,1,0,81,false,stim,false,0,718.9999999998836,2,0,0,29430,WMM2,723758,false,false,901,image-keyboard-response,30
true,8,0,2,2,false,d,true,false,0.0-2.0-0.30-0.274-3.274,1,1,0,81,false,stim,false,2,611.0,2,0,1,29430,WMM2,725873,false,false,904,image-keyboard-response,31
true,8,2,2,2,true,d,false,true,0.0-2.0-0.30-0.275-3.275,1,1,0,68,false,stim,false,2,576.0,2,0,1,29430,WMM2,727955,false,false,907,image-keyboard-response,32
true,9,0,1,0,true,q,false,true,0.0-2.0-0.30-0.276-3.276,0,0,1,81,true,stim,false,0,824.0000000001164,2,1,2,29430,WMM2,730283,false,false,910,image-keyboard-response,1
true,9,0,1,1,false,z,false,false,0.0-2.0-0.30-0.277-3.277,0,0,1,81,false,stim,true,0,755.9999999998836,2,0,0,29430,WMM2,732545,false,false,913,image-keyboard-response,2
true,9,0,1,0,true,q,false,true,0.0-2.0-0.30-0.278-3.278,0,0,1,81,false,stim,false,0,1500.0,2,1,2,29430,WMM2,735550,false,false,916,image-keyboard-response,3
true,9,2,1,1,false,z,false,false,0.0-2.0-0.31-0.279-3.279,0,0,1,68,false,stim,true,2,709.0,2,0,1,29430,WMM2,737765,false,false,919,image-keyboard-response,4
true,9,0,1,0,true,q,false,true,0.0-2.0-0.31-0.280-3.280,0,0,1,81,false,stim,false,0,904.0,2,1,2,29430,WMM2,740172,false,false,922,image-keyboard-response,5
true,9,2,1,1,false,z,false,false,0.0-2.0-0.31-0.281-3.281,0,0,1,68,false,stim,true,2,836.0,2,0,1,29430,WMM2,742512,false,false,925,image-keyboard-response,6
true,9,0,1,1,false,z,false,false,0.0-2.0-0.31-0.282-3.282,0,0,1,81,false,stim,true,0,722.0,2,0,0,29430,WMM2,744740,false,false,928,image-keyboard-response,7
true,9,0,1,1,false,z,true,false,0.0-2.0-0.31-0.283-3.283,0,0,1,81,false,stim,false,2,1894.0,2,0,1,29430,WMM2,748137,false,false,931,image-keyboard-response,8
true,9,2,1,0,false,q,true,false,0.0-2.0-0.31-0.284-3.284,0,0,1,68,false,stim,false,0,1084.0000000001164,2,1,2,29430,WMM2,750725,false,false,934,image-keyboard-response,9
true,9,1,1,1,true,z,false,true,0.0-2.0-0.31-0.285-3.285,0,0,1,90,false,stim,false,0,903.0,2,0,0,29430,WMM2,753132,false,false,937,image-keyboard-response,10
true,9,1,1,0,false,q,true,false,0.0-2.0-0.31-0.286-3.286,0,0,1,90,false,stim,false,0,959.0,2,1,2,29430,WMM2,755596,false,false,940,image-keyboard-response,11
true,9,1,1,1,true,z,false,true,0.0-2.0-0.31-0.287-3.287,0,0,1,90,false,stim,false,0,879.0,2,0,0,29430,WMM2,757982,false,false,943,image-keyboard-response,12
true,9,2,1,0,false,q,true,false,0.0-2.0-0.32-0.288-3.288,0,0,1,68,false,stim,false,0,801.0000000001164,2,1,2,29430,WMM2,760288,false,false,946,image-keyboard-response,13
true,9,0,1,0,true,q,false,true,0.0-2.0-0.32-0.289-3.289,0,0,1,81,false,stim,false,0,1061.0,2,1,2,29430,WMM2,762853,false,false,949,image-keyboard-response,14
true,9,1,1,1,true,z,false,true,0.0-2.0-0.32-0.290-3.290,0,0,1,90,false,stim,false,2,1567.0,2,0,1,29430,WMM2,765924,false,false,952,image-keyboard-response,15
true,9,0,1,0,true,q,false,true,0.0-2.0-0.32-0.291-3.291,0,0,1,81,false,stim,false,0,937.0,2,1,2,29430,WMM2,768365,false,false,955,image-keyboard-response,16
true,9,1,1,1,true,z,false,true,0.0-2.0-0.32-0.292-3.292,0,0,1,90,false,stim,false,0,498.0,2,0,0,29430,WMM2,770368,false,false,958,image-keyboard-response,17
true,9,1,1,1,true,z,false,true,0.0-2.0-0.32-0.293-3.293,0,0,1,90,false,stim,false,0,464.0,2,0,0,29430,WMM2,772337,false,false,961,image-keyboard-response,18
true,9,1,1,1,true,z,false,true,0.0-2.0-0.32-0.294-3.294,0,0,1,90,false,stim,false,2,408.0000000001164,2,0,1,29430,WMM2,774249,false,false,964,image-keyboard-response,19
true,9,1,1,1,true,z,false,true,0.0-2.0-0.32-0.295-3.295,0,0,1,90,false,stim,false,2,533.0,2,0,1,29430,WMM2,776286,false,false,967,image-keyboard-response,20
true,9,1,1,1,true,z,false,true,0.0-2.0-0.32-0.296-3.296,0,0,1,90,false,stim,false,0,1037.0,2,1,0,29430,WMM2,778828,false,false,970,image-keyboard-response,21
true,9,1,1,1,true,z,false,false,0.0-2.0-0.33-0.297-3.297,0,0,1,90,false,stim,false,0,454.0,2,1,0,29430,WMM2,780786,false,true,973,image-keyboard-response,22
true,9,1,1,1,true,z,false,true,0.0-2.0-0.33-0.298-3.298,0,0,1,90,false,stim,false,2,690.0000000001164,2,0,1,29430,WMM2,782979,false,false,976,image-keyboard-response,23
true,9,1,1,1,true,z,false,true,0.0-2.0-0.33-0.299-3.299,0,0,1,90,false,stim,false,2,519.9999999998836,2,0,1,29430,WMM2,785005,false,false,979,image-keyboard-response,24
true,9,1,1,1,true,z,false,false,0.0-2.0-0.33-0.300-3.300,0,0,1,90,false,stim,false,0,463.9999999998836,2,1,0,29430,WMM2,786973,false,true,982,image-keyboard-response,25
true,9,1,1,1,true,z,false,true,0.0-2.0-0.33-0.301-3.301,0,0,1,90,false,stim,false,2,723.0000000001164,2,0,1,29430,WMM2,789201,false,false,985,image-keyboard-response,26
true,9,0,1,0,true,q,false,true,0.0-2.0-0.33-0.302-3.302,0,0,1,81,false,stim,false,0,688.9999999998836,2,1,2,29430,WMM2,791395,false,false,988,image-keyboard-response,27
true,9,1,1,1,true,z,false,true,0.0-2.0-0.33-0.303-3.303,0,0,1,90,false,stim,false,0,610.0,2,1,0,29430,WMM2,793510,false,false,991,image-keyboard-response,28
true,9,0,1,0,true,q,false,true,0.0-2.0-0.33-0.304-3.304,0,0,1,81,false,stim,false,0,869.0000000001164,2,1,2,29430,WMM2,795884,false,false,994,image-keyboard-response,29
true,9,0,1,0,true,q,false,true,0.0-2.0-0.33-0.305-3.305,0,0,1,81,false,stim,false,0,520.0,2,1,2,29430,WMM2,797909,false,false,997,image-keyboard-response,30
true,10,0,4,0,true,q,false,true,0.0-2.0-0.34-0.306-3.306,1,0,1,81,true,stim,false,0,688.0,2,1,2,29430,WMM2,800102,false,false,1000,image-keyboard-response,1
true,10,0,4,0,true,q,false,true,0.0-2.0-0.34-0.307-3.307,1,0,1,81,false,stim,false,0,483.9999999998836,2,1,2,29430,WMM2,802094,false,false,1003,image-keyboard-response,2
true,10,1,4,1,true,z,false,true,0.0-2.0-0.34-0.308-3.308,1,0,1,90,false,stim,false,1,1043.0,2,0,1,29430,WMM2,804640,false,false,1006,image-keyboard-response,3
true,10,0,4,0,true,q,false,false,0.0-2.0-0.34-0.309-3.309,1,0,1,81,false,stim,false,0,719.0,2,1,2,29430,WMM2,806864,false,true,1009,image-keyboard-response,4
true,10,1,4,1,true,z,false,true,0.0-2.0-0.34-0.310-3.310,1,0,1,90,false,stim,false,1,712.0000000001164,2,1,0,29430,WMM2,809080,false,false,1012,image-keyboard-response,5
true,10,1,4,1,true,z,false,true,0.0-2.0-0.34-0.311-3.311,1,0,1,90,false,stim,false,1,622.0,2,0,1,29430,WMM2,811206,false,false,1015,image-keyboard-response,6
true,10,1,4,1,true,z,false,true,0.0-2.0-0.34-0.312-3.312,1,0,1,90,false,stim,false,1,509.0,2,1,0,29430,WMM2,813220,false,false,1018,image-keyboard-response,7
true,10,1,4,1,true,z,false,true,0.0-2.0-0.34-0.313-3.313,1,0,1,90,false,stim,false,1,1005.0,2,0,1,29430,WMM2,815730,false,false,1021,image-keyboard-response,8
true,10,1,4,1,true,z,false,true,0.0-2.0-0.34-0.314-3.314,1,0,1,90,false,stim,false,1,588.0,2,1,0,29430,WMM2,817821,false,false,1024,image-keyboard-response,9
true,10,1,4,1,true,z,false,true,0.0-2.0-0.35-0.315-3.315,1,0,1,90,false,stim,false,1,531.0,2,1,0,29430,WMM2,819858,false,false,1027,image-keyboard-response,10
true,10,0,4,0,true,q,false,false,0.0-2.0-0.35-0.316-3.316,1,0,1,81,false,stim,false,0,948.0,2,1,2,29430,WMM2,822310,false,true,1030,image-keyboard-response,11
true,10,0,4,0,true,q,false,true,0.0-2.0-0.35-0.317-3.317,1,0,1,81,false,stim,false,0,1217.0000000001164,2,1,2,29430,WMM2,825033,false,false,1033,image-keyboard-response,12
true,10,1,4,1,true,z,false,true,0.0-2.0-0.35-0.318-3.318,1,0,1,90,false,stim,false,1,452.9999999998836,2,1,0,29430,WMM2,826990,false,false,1036,image-keyboard-response,13
true,10,1,4,1,true,z,false,true,0.0-2.0-0.35-0.319-3.319,1,0,1,90,false,stim,false,1,699.0,2,0,1,29430,WMM2,829196,false,false,1039,image-keyboard-response,14
true,10,1,4,1,true,z,false,true,0.0-2.0-0.35-0.320-3.320,1,0,1,90,false,stim,false,1,587.9999999998836,2,0,1,29430,WMM2,831288,false,false,1042,image-keyboard-response,15
true,10,1,4,1,true,z,false,false,0.0-2.0-0.35-0.321-3.321,1,0,1,90,false,stim,false,1,475.0,2,0,1,29430,WMM2,833268,false,true,1045,image-keyboard-response,16
true,10,1,4,1,true,z,false,false,0.0-2.0-0.35-0.322-3.322,1,0,1,90,false,stim,false,1,599.0,2,1,0,29430,WMM2,835372,false,true,1048,image-keyboard-response,17
true,10,0,4,0,true,q,false,true,0.0-2.0-0.35-0.323-3.323,1,0,1,81,false,stim,false,0,690.0,2,1,2,29430,WMM2,837566,false,false,1051,image-keyboard-response,18
true,10,1,4,1,true,z,false,true,0.0-2.0-0.36-0.324-3.324,1,0,1,90,false,stim,false,1,722.0,2,1,0,29430,WMM2,839793,false,false,1054,image-keyboard-response,19
true,10,0,4,0,true,q,false,true,0.0-2.0-0.36-0.325-3.325,1,0,1,81,false,stim,false,0,755.0,2,1,2,29430,WMM2,842055,false,false,1057,image-keyboard-response,20
true,10,1,4,1,true,z,false,true,0.0-2.0-0.36-0.326-3.326,1,0,1,90,false,stim,false,1,892.0,2,1,1,29430,WMM2,844452,false,false,1060,image-keyboard-response,21
true,10,1,4,1,true,z,false,true,0.0-2.0-0.36-0.327-3.327,1,0,1,90,false,stim,false,1,440.0000000001164,2,1,1,29430,WMM2,846397,false,false,1063,image-keyboard-response,22
true,10,0,4,0,true,q,false,true,0.0-2.0-0.36-0.328-3.328,1,0,1,81,false,stim,false,0,710.9999999998836,2,0,2,29430,WMM2,848613,false,false,1066,image-keyboard-response,23
true,10,1,4,1,true,z,false,true,0.0-2.0-0.36-0.329-3.329,1,0,1,90,false,stim,false,1,487.0,2,1,0,29430,WMM2,850605,false,false,1069,image-keyboard-response,24
true,10,1,4,1,true,z,false,false,0.0-2.0-0.36-0.330-3.330,1,0,1,90,false,stim,false,1,587.0,2,1,1,29430,WMM2,852697,false,true,1072,image-keyboard-response,25
true,10,0,4,0,true,q,false,true,0.0-2.0-0.36-0.331-3.331,1,0,1,81,false,stim,false,0,913.0,2,0,2,29430,WMM2,855116,false,false,1075,image-keyboard-response,26
true,10,1,4,1,true,z,false,false,0.0-2.0-0.36-0.332-3.332,1,0,1,90,false,stim,false,1,577.0,2,1,0,29430,WMM2,857197,false,true,1078,image-keyboard-response,27
true,10,1,4,1,true,z,false,true,0.0-2.0-0.37-0.333-3.333,1,0,1,90,false,stim,false,1,688.0,2,1,1,29430,WMM2,859391,false,false,1081,image-keyboard-response,28
true,10,1,4,1,true,z,false,true,0.0-2.0-0.37-0.334-3.334,1,0,1,90,false,stim,false,1,587.0,2,1,0,29430,WMM2,861484,false,false,1084,image-keyboard-response,29
true,10,1,4,1,true,z,false,true,0.0-2.0-0.37-0.335-3.335,1,0,1,90,false,stim,false,1,711.0000000001164,2,1,1,29430,WMM2,863700,false,false,1087,image-keyboard-response,30
true,11,0,3,2,false,d,false,false,0.0-2.0-0.37-0.336-3.336,1,1,0,81,true,stim,true,0,577.0,2,0,2,29430,WMM2,865781,false,false,1090,image-keyboard-response,1
true,11,1,3,1,true,z,false,false,0.0-2.0-0.37-0.337-3.337,1,1,0,90,false,stim,false,1,563.9999999998836,2,1,0,29430,WMM2,867851,false,true,1093,image-keyboard-response,2
true,11,0,3,2,false,d,false,false,0.0-2.0-0.37-0.338-3.338,1,1,0,81,false,stim,true,0,926.0000000001164,2,0,2,29430,WMM2,870282,false,false,1096,image-keyboard-response,3
true,11,1,3,1,true,z,false,false,0.0-2.0-0.37-0.339-3.339,1,1,0,90,false,stim,false,1,745.0,2,1,1,29430,WMM2,872531,false,true,1099,image-keyboard-response,4
true,11,0,3,2,false,d,false,false,0.0-2.0-0.37-0.340-3.340,1,1,0,81,false,stim,true,0,1417.0,2,0,2,29430,WMM2,875457,false,false,1102,image-keyboard-response,5
true,11,0,3,1,false,z,true,false,0.0-2.0-0.37-0.341-3.341,1,1,0,81,false,stim,false,1,1904.0,2,1,0,29430,WMM2,878865,false,false,1105,image-keyboard-response,6
true,11,1,3,1,true,z,false,true,0.0-2.0-0.38-0.342-3.342,1,1,0,90,false,stim,false,1,712.0,2,1,0,29430,WMM2,881082,false,false,1108,image-keyboard-response,7
true,11,1,3,1,true,z,false,false,0.0-2.0-0.38-0.343-3.343,1,1,0,90,false,stim,false,1,565.0000000001164,2,1,0,29430,WMM2,883152,false,true,1111,image-keyboard-response,8
true,11,1,3,1,true,z,false,true,0.0-2.0-0.38-0.344-3.344,1,1,0,90,false,stim,false,1,463.9999999998836,2,1,0,29430,WMM2,885121,false,false,1114,image-keyboard-response,9
true,11,2,3,1,false,z,true,true,0.0-2.0-0.38-0.345-3.345,1,1,0,68,false,stim,false,1,1465.0,2,1,1,29430,WMM2,888090,false,true,1117,image-keyboard-response,10
true,11,2,3,2,true,d,false,true,0.0-2.0-0.38-0.346-3.346,1,1,0,68,false,stim,false,0,1151.0,2,0,2,29430,WMM2,890746,false,false,1120,image-keyboard-response,11
true,11,2,3,1,false,z,true,true,0.0-2.0-0.38-0.347-3.347,1,1,0,68,false,stim,false,1,1073.0,2,1,1,29430,WMM2,893324,false,true,1123,image-keyboard-response,12
true,11,2,3,2,true,d,false,true,0.0-2.0-0.38-0.348-3.348,1,1,0,68,false,stim,false,0,530.0000000001164,2,0,2,29430,WMM2,895358,false,false,1126,image-keyboard-response,13
true,11,2,3,1,false,z,true,false,0.0-2.0-0.38-0.349-3.349,1,1,0,68,false,stim,false,1,644.0000000001164,2,1,1,29430,WMM2,897507,false,false,1129,image-keyboard-response,14
true,11,2,3,2,true,d,false,true,0.0-2.0-0.38-0.350-3.350,1,1,0,68,false,stim,false,0,407.0,2,0,2,29430,WMM2,899420,false,false,1132,image-keyboard-response,15
true,11,2,3,1,false,z,true,false,0.0-2.0-0.39-0.351-3.351,1,1,0,68,false,stim,false,1,509.0,2,1,1,29430,WMM2,901433,false,false,1135,image-keyboard-response,16
true,11,2,3,1,false,z,true,false,0.0-2.0-0.39-0.352-3.352,1,1,0,68,false,stim,false,1,825.0,2,1,1,29430,WMM2,903762,false,false,1138,image-keyboard-response,17
true,11,0,3,1,false,z,true,true,0.0-2.0-0.39-0.353-3.353,1,1,0,81,false,stim,false,1,946.0,2,1,1,29430,WMM2,906215,false,true,1141,image-keyboard-response,18
true,11,1,3,1,true,z,false,true,0.0-2.0-0.39-0.354-3.354,1,1,0,90,false,stim,false,1,487.0,2,1,0,29430,WMM2,908206,false,false,1144,image-keyboard-response,19
true,11,2,3,2,true,d,false,true,0.0-2.0-0.39-0.355-3.355,1,1,0,68,false,stim,false,0,722.0,2,0,2,29430,WMM2,910433,false,false,1147,image-keyboard-response,20
true,11,1,3,1,true,z,false,true,0.0-2.0-0.39-0.356-3.356,1,1,0,90,false,stim,false,1,553.0,2,1,0,29430,WMM2,912492,false,false,1150,image-keyboard-response,21
true,11,1,3,1,true,z,false,true,0.0-2.0-0.39-0.357-3.357,1,1,0,90,false,stim,false,1,463.0,2,1,0,29430,WMM2,914461,false,false,1153,image-keyboard-response,22
true,11,2,3,2,true,d,false,true,0.0-2.0-0.39-0.358-3.358,1,1,0,68,false,stim,false,0,610.0,2,0,2,29430,WMM2,916576,false,false,1156,image-keyboard-response,23
true,11,2,3,2,true,d,false,true,0.0-2.0-0.39-0.359-3.359,1,1,0,68,false,stim,false,0,688.0,2,0,2,29430,WMM2,918770,false,false,1159,image-keyboard-response,24
true,11,0,3,1,false,z,true,false,0.0-2.0-0.40-0.360-3.360,1,1,0,81,false,stim,false,1,801.0,2,1,1,29430,WMM2,921076,false,false,1162,image-keyboard-response,25
true,11,2,3,2,true,d,false,true,0.0-2.0-0.40-0.361-3.361,1,1,0,68,false,stim,false,0,719.9999999998836,2,0,2,29430,WMM2,923304,false,false,1165,image-keyboard-response,26
true,11,1,3,1,true,z,false,true,0.0-2.0-0.40-0.362-3.362,1,1,0,90,false,stim,false,1,452.0,2,1,0,29430,WMM2,925261,false,false,1168,image-keyboard-response,27
true,11,2,3,2,true,d,false,true,0.0-2.0-0.40-0.363-3.363,1,1,0,68,false,stim,false,0,702.0000000001164,2,0,2,29430,WMM2,927468,false,false,1171,image-keyboard-response,28
true,11,2,3,2,true,d,false,true,0.0-2.0-0.40-0.364-3.364,1,1,0,68,false,stim,false,0,799.0,2,0,2,29430,WMM2,929773,false,false,1174,image-keyboard-response,29
true,11,0,3,1,false,z,true,false,0.0-2.0-0.40-0.365-3.365,1,1,0,81,false,stim,false,1,756.0,2,1,1,29430,WMM2,932034,false,false,1177,image-keyboard-response,30
true,11,1,3,1,true,z,false,true,0.0-2.0-0.40-0.366-3.366,1,1,0,90,false,stim,false,1,508.0,2,1,0,29430,WMM2,934048,false,false,1180,image-keyboard-response,31
true,11,1,3,1,true,z,false,false,0.0-2.0-0.40-0.367-3.367,1,1,0,90,false,stim,false,1,643.0,2,1,1,29430,WMM2,936196,false,true,1183,image-keyboard-response,32
true,11,1,3,1,true,z,false,true,0.0-2.0-0.40-0.368-3.368,1,1,0,90,false,stim,false,1,722.0,2,1,0,29430,WMM2,938424,false,false,1186,image-keyboard-response,33
true,11,1,3,1,true,z,false,true,0.0-2.0-0.41-0.369-3.369,1,1,0,90,false,stim,false,1,1092.9999999998836,2,1,1,29430,WMM2,941023,false,false,1189,image-keyboard-response,34
true,11,1,3,1,true,z,false,true,0.0-2.0-0.41-0.370-3.370,1,1,0,90,false,stim,false,1,644.0,2,1,0,29430,WMM2,943172,false,false,1192,image-keyboard-response,35
true,11,2,3,2,true,d,false,true,0.0-2.0-0.41-0.371-3.371,1,1,0,68,false,stim,false,0,633.0000000001164,2,1,2,29430,WMM2,945309,false,false,1195,image-keyboard-response,36
true,11,1,3,2,false,d,true,false,0.0-2.0-0.41-0.372-3.372,1,1,0,90,false,stim,false,0,520.0,2,1,2,29430,WMM2,947334,false,false,1198,image-keyboard-response,37
true,11,2,3,2,true,d,false,true,0.0-2.0-0.41-0.373-3.373,1,1,0,68,false,stim,false,0,414.9999999998836,2,1,2,29430,WMM2,949258,false,false,1201,image-keyboard-response,38
true,11,1,3,1,true,z,false,true,0.0-2.0-0.41-0.374-3.374,1,1,0,90,false,stim,false,1,622.0,2,0,1,29430,WMM2,951384,false,false,1204,image-keyboard-response,39
true,11,1,3,1,true,z,false,true,0.0-2.0-0.41-0.375-3.375,1,1,0,90,false,stim,false,1,532.0,2,0,1,29430,WMM2,953422,false,false,1207,image-keyboard-response,40
true,11,1,3,1,true,z,false,true,0.0-2.0-0.41-0.376-3.376,1,1,0,90,false,stim,false,1,452.9999999998836,2,1,0,29430,WMM2,955378,false,false,1210,image-keyboard-response,41
true,11,1,3,1,true,z,false,true,0.0-2.0-0.41-0.377-3.377,1,1,0,90,false,stim,false,1,419.0,2,1,0,29430,WMM2,957302,false,false,1213,image-keyboard-response,42
true,11,1,3,1,true,z,false,true,0.0-2.0-0.42-0.378-3.378,1,1,0,90,false,stim,false,1,632.0,2,0,1,29430,WMM2,959440,false,false,1216,image-keyboard-response,43
true,11,1,3,1,true,z,false,true,0.0-2.0-0.42-0.379-3.379,1,1,0,90,false,stim,false,1,486.0,2,1,0,29430,WMM2,961431,false,false,1219,image-keyboard-response,44
true,12,1,2,0,false,q,false,false,0.0-2.0-0.42-0.380-3.380,1,0,1,90,true,stim,true,1,373.0000000001164,2,0,1,29430,WMM2,963310,false,false,1222,image-keyboard-response,1
true,12,2,2,2,true,d,false,false,0.0-2.0-0.42-0.381-3.381,1,0,1,68,false,stim,false,2,622.0,2,1,2,29430,WMM2,965436,false,true,1225,image-keyboard-response,2
true,12,1,2,0,false,q,false,false,0.0-2.0-0.42-0.382-3.382,1,0,1,90,false,stim,true,1,959.0,2,0,1,29430,WMM2,967900,false,false,1228,image-keyboard-response,3
true,12,2,2,2,true,d,false,true,0.0-2.0-0.42-0.383-3.383,1,0,1,68,false,stim,false,2,721.9999999998836,2,1,2,29430,WMM2,970127,false,false,1231,image-keyboard-response,4
true,12,1,2,1,true,z,false,true,0.0-2.0-0.42-0.384-3.384,1,0,1,90,false,stim,false,1,677.0000000001164,2,1,0,29430,WMM2,972310,false,false,1234,image-keyboard-response,5
true,12,1,2,1,true,z,false,true,0.0-2.0-0.42-0.385-3.385,1,0,1,90,false,stim,false,1,463.0,2,1,0,29430,WMM2,974279,false,false,1237,image-keyboard-response,6
true,12,2,2,2,true,d,false,false,0.0-2.0-0.42-0.386-3.386,1,0,1,68,false,stim,false,2,554.0,2,1,2,29430,WMM2,976337,false,true,1240,image-keyboard-response,7
true,12,1,2,0,false,q,false,false,0.0-2.0-0.43-0.387-3.387,1,0,1,90,false,stim,true,1,1286.0,2,0,1,29430,WMM2,979128,false,false,1243,image-keyboard-response,8
true,12,2,2,0,false,q,true,false,0.0-2.0-0.43-0.388-3.388,1,0,1,68,false,stim,false,1,812.0,2,0,1,29430,WMM2,981445,false,false,1246,image-keyboard-response,9
true,12,2,2,2,true,d,false,true,0.0-2.0-0.43-0.389-3.389,1,0,1,68,false,stim,false,2,702.0,2,1,2,29430,WMM2,983650,false,false,1249,image-keyboard-response,10
true,12,2,2,2,true,d,false,true,0.0-2.0-0.43-0.390-3.390,1,0,1,68,false,stim,false,2,856.9999999998836,2,1,2,29430,WMM2,986013,false,false,1252,image-keyboard-response,11
true,12,2,2,2,true,d,false,true,0.0-2.0-0.43-0.391-3.391,1,0,1,68,false,stim,false,2,576.0,2,1,2,29430,WMM2,988094,false,false,1255,image-keyboard-response,12
true,12,1,2,1,true,z,false,true,0.0-2.0-0.43-0.392-3.392,1,0,1,90,false,stim,false,1,1105.0,2,1,0,29430,WMM2,990704,false,false,1258,image-keyboard-response,13
true,12,0,2,0,true,q,false,true,0.0-2.0-0.43-0.393-3.393,1,0,1,81,false,stim,false,1,1375.0,2,0,1,29430,WMM2,993584,false,false,1261,image-keyboard-response,14
true,12,1,2,1,true,z,false,false,0.0-2.0-0.43-0.394-3.394,1,0,1,90,false,stim,false,1,644.0,2,1,0,29430,WMM2,995733,false,true,1264,image-keyboard-response,15
true,12,1,2,1,true,z,false,true,0.0-2.0-0.43-0.395-3.395,1,0,1,90,false,stim,false,1,509.0000000001164,2,1,0,29430,WMM2,997747,false,false,1267,image-keyboard-response,16
true,12,0,2,0,true,q,false,true,0.0-2.0-0.44-0.396-3.396,1,0,1,81,false,stim,false,1,891.0,2,0,1,29430,WMM2,1000143,false,false,1270,image-keyboard-response,17
true,12,1,2,1,true,z,false,true,0.0-2.0-0.44-0.397-3.397,1,0,1,90,false,stim,false,1,734.0,2,1,0,29430,WMM2,1002382,false,false,1273,image-keyboard-response,18
true,12,2,2,2,true,d,false,true,0.0-2.0-0.44-0.398-3.398,1,0,1,68,false,stim,false,2,745.0,2,1,2,29430,WMM2,1004632,false,false,1276,image-keyboard-response,19
true,12,0,2,0,true,q,false,true,0.0-2.0-0.44-0.399-3.399,1,0,1,81,false,stim,false,1,893.0,2,0,1,29430,WMM2,1007028,false,false,1279,image-keyboard-response,20
true,12,2,2,2,true,d,false,true,0.0-2.0-0.44-0.400-3.400,1,0,1,68,false,stim,false,2,812.0,2,1,2,29430,WMM2,1009346,false,false,1282,image-keyboard-response,21
true,12,2,2,2,true,d,false,true,0.0-2.0-0.44-0.401-3.401,1,0,1,68,false,stim,false,2,453.0000000001164,2,1,2,29430,WMM2,1011304,false,false,1285,image-keyboard-response,22
true,12,1,2,1,true,z,false,true,0.0-2.0-0.44-0.402-3.402,1,0,1,90,false,stim,false,1,608.0,2,0,0,29430,WMM2,1013418,false,false,1288,image-keyboard-response,23
true,12,0,2,0,true,q,false,true,0.0-2.0-0.44-0.403-3.403,1,0,1,81,false,stim,false,1,938.0,2,0,1,29430,WMM2,1015859,false,false,1291,image-keyboard-response,24
true,12,1,2,1,true,z,false,true,0.0-2.0-0.44-0.404-3.404,1,0,1,90,false,stim,false,1,701.0,2,0,0,29430,WMM2,1018065,false,false,1294,image-keyboard-response,25
true,12,1,2,1,true,z,false,false,0.0-2.0-0.45-0.405-3.405,1,0,1,90,false,stim,false,1,486.0,2,0,0,29430,WMM2,1020056,false,true,1297,image-keyboard-response,26
true,12,0,2,0,true,q,false,true,0.0-2.0-0.45-0.406-3.406,1,0,1,81,false,stim,false,1,768.0,2,0,1,29430,WMM2,1022329,false,false,1300,image-keyboard-response,27
true,12,1,2,1,true,z,false,true,0.0-2.0-0.45-0.407-3.407,1,0,1,90,false,stim,false,1,717.0000000001164,2,0,0,29430,WMM2,1024556,false,false,1303,image-keyboard-response,28
true,12,0,2,0,true,q,false,true,0.0-2.0-0.45-0.408-3.408,1,0,1,81,false,stim,false,1,847.0,2,0,1,29430,WMM2,1026907,false,false,1306,image-keyboard-response,29
true,12,2,2,2,true,d,false,true,0.0-2.0-0.45-0.409-3.409,1,0,1,68,false,stim,false,2,553.9999999998836,2,1,2,29430,WMM2,1028966,false,false,1309,image-keyboard-response,30
true,13,1,1,1,true,z,false,false,0.0-2.0-0.45-0.410-3.410,0,0,1,90,true,stim,false,0,1002.9999999998836,2,0,1,29430,WMM2,1031475,false,true,1312,image-keyboard-response,1
true,13,2,1,2,true,d,false,true,0.0-2.0-0.45-0.411-3.411,0,0,1,68,false,stim,false,2,1274.9999999998836,2,1,2,29430,WMM2,1034254,false,false,1315,image-keyboard-response,2
true,13,2,1,2,true,d,false,true,0.0-2.0-0.45-0.412-3.412,0,0,1,68,false,stim,false,2,970.0,2,1,2,29430,WMM2,1036729,false,false,1318,image-keyboard-response,3
true,13,0,1,2,false,d,true,false,0.0-2.0-0.45-0.413-3.413,0,0,1,81,false,stim,false,1,745.0000000001164,2,0,0,29430,WMM2,1038979,false,false,1321,image-keyboard-response,4
true,13,1,1,2,false,d,false,false,0.0-2.0-0.46-0.414-3.414,0,0,1,90,false,stim,true,1,834.0,2,0,0,29430,WMM2,1041319,false,false,1324,image-keyboard-response,5
true,13,0,1,2,false,d,true,false,0.0-2.0-0.46-0.415-3.415,0,0,1,81,false,stim,false,1,802.0000000002328,2,0,0,29430,WMM2,1043625,false,false,1327,image-keyboard-response,6
true,13,2,1,2,true,d,false,true,0.0-2.0-0.46-0.416-3.416,0,0,1,68,false,stim,false,2,856.9999999998836,2,1,2,29430,WMM2,1045988,false,false,1330,image-keyboard-response,7
true,13,2,1,2,true,d,false,true,0.0-2.0-0.46-0.417-3.417,0,0,1,68,false,stim,false,2,587.0,2,1,2,29430,WMM2,1048080,false,false,1333,image-keyboard-response,8
true,13,0,1,1,false,z,false,false,0.0-2.0-0.46-0.418-3.418,0,0,1,81,false,stim,true,0,1847.0,2,0,1,29430,WMM2,1051433,false,false,1336,image-keyboard-response,9
true,13,1,1,1,true,z,false,true,0.0-2.0-0.46-0.419-3.419,0,0,1,90,false,stim,false,0,801.0,2,0,1,29430,WMM2,1053739,false,false,1339,image-keyboard-response,10
true,13,1,1,2,false,d,false,false,0.0-2.0-0.46-0.420-3.420,0,0,1,90,false,stim,true,1,1420.0,2,0,0,29430,WMM2,1056664,false,false,1342,image-keyboard-response,11
true,13,1,1,1,true,z,false,true,0.0-2.0-0.46-0.421-3.421,0,0,1,90,false,stim,false,0,880.0,2,0,1,29430,WMM2,1059049,false,false,1345,image-keyboard-response,12
true,13,2,1,2,true,d,false,true,0.0-2.0-0.46-0.422-3.422,0,0,1,68,false,stim,false,2,689.0,2,1,2,29430,WMM2,1061243,false,false,1348,image-keyboard-response,13
true,13,0,1,2,false,d,true,false,0.0-2.0-0.47-0.423-3.423,0,0,1,81,false,stim,false,1,677.0,2,0,0,29430,WMM2,1063426,false,false,1351,image-keyboard-response,14
true,13,1,1,1,true,z,false,true,0.0-2.0-0.47-0.424-3.424,0,0,1,90,false,stim,false,0,1240.9999999997672,2,0,1,29430,WMM2,1066171,false,false,1354,image-keyboard-response,15
true,13,2,1,2,true,d,false,true,0.0-2.0-0.47-0.425-3.425,0,0,1,68,false,stim,false,2,733.0,2,1,2,29430,WMM2,1068409,false,false,1357,image-keyboard-response,16
true,13,1,1,1,true,z,false,true,0.0-2.0-0.47-0.426-3.426,0,0,1,90,false,stim,false,0,757.0,2,0,1,29430,WMM2,1070671,false,false,1360,image-keyboard-response,17
true,13,2,1,2,true,d,false,true,0.0-2.0-0.47-0.427-3.427,0,0,1,68,false,stim,false,1,734.0,2,0,0,29430,WMM2,1072910,false,false,1363,image-keyboard-response,18
true,13,2,1,2,true,d,false,true,0.0-2.0-0.47-0.428-3.428,0,0,1,68,false,stim,false,2,733.0,2,1,2,29430,WMM2,1075149,false,false,1366,image-keyboard-response,19
true,13,2,1,2,true,d,false,true,0.0-2.0-0.47-0.429-3.429,0,0,1,68,false,stim,false,1,689.0,2,0,0,29430,WMM2,1077342,false,false,1369,image-keyboard-response,20
true,13,1,1,1,true,z,false,true,0.0-2.0-0.47-0.430-3.430,0,0,1,90,false,stim,false,0,619.0,2,1,1,29430,WMM2,1079469,false,false,1372,image-keyboard-response,21
true,13,2,1,2,true,d,false,true,0.0-2.0-0.47-0.431-3.431,0,0,1,68,false,stim,false,2,645.0,2,1,2,29430,WMM2,1081617,false,false,1375,image-keyboard-response,22
true,13,2,1,2,true,d,false,true,0.0-2.0-0.48-0.432-3.432,0,0,1,68,false,stim,false,1,509.00000000023283,2,0,0,29430,WMM2,1083632,false,false,1378,image-keyboard-response,23
true,13,2,1,2,true,d,false,true,0.0-2.0-0.48-0.433-3.433,0,0,1,68,false,stim,false,1,576.0,2,0,0,29430,WMM2,1085712,false,false,1381,image-keyboard-response,24
true,13,1,1,1,true,z,false,true,0.0-2.0-0.48-0.434-3.434,0,0,1,90,false,stim,false,0,632.0,2,1,1,29430,WMM2,1087850,false,false,1384,image-keyboard-response,25
true,13,2,1,2,true,d,false,true,0.0-2.0-0.48-0.435-3.435,0,0,1,68,false,stim,false,1,633.0,2,0,0,29430,WMM2,1089987,false,false,1387,image-keyboard-response,26
true,13,2,1,2,true,d,false,true,0.0-2.0-0.48-0.436-3.436,0,0,1,68,false,stim,false,2,520.0,2,1,2,29430,WMM2,1092012,false,false,1390,image-keyboard-response,27
true,13,2,1,2,true,d,false,true,0.0-2.0-0.48-0.437-3.437,0,0,1,68,false,stim,false,2,464.0,2,1,2,29430,WMM2,1093981,false,false,1393,image-keyboard-response,28
true,13,2,1,2,true,d,false,true,0.0-2.0-0.48-0.438-3.438,0,0,1,68,false,stim,false,2,408.0,2,1,2,29430,WMM2,1095894,false,false,1396,image-keyboard-response,29
true,13,1,1,1,true,z,false,true,0.0-2.0-0.48-0.439-3.439,0,0,1,90,false,stim,false,0,846.0,2,1,1,29430,WMM2,1098245,false,false,1399,image-keyboard-response,30
true,14,0,0,1,false,z,true,false,0.0-2.0-0.48-0.440-3.440,0,1,1,81,true,stim,false,1,1185.0,2,1,1,29430,WMM2,1202693,false,false,1504,image-keyboard-response,1
true,14,0,0,2,false,d,true,false,0.0-2.0-0.49-0.441-3.441,0,1,1,81,false,stim,false,2,1002.0,2,0,0,29430,WMM2,1205201,false,false,1507,image-keyboard-response,2
true,14,2,0,2,true,d,false,true,0.0-2.0-0.49-0.442-3.442,0,1,1,68,false,stim,false,2,1353.0,2,0,0,29430,WMM2,1208059,false,false,1510,image-keyboard-response,3
false,14,-1,0,1,false,z,true,true,0.0-2.0-0.49-0.443-3.443,0,1,1,,false,stim,false,1,,2,1,1,29430,WMM2,1212564,false,true,1513,image-keyboard-response,4
true,14,1,0,2,false,d,true,true,0.0-2.0-0.49-0.444-3.444,0,1,1,90,false,stim,false,2,2003.0,2,1,2,29430,WMM2,1216071,false,true,1516,image-keyboard-response,5
true,14,1,0,2,false,d,true,true,0.0-2.0-0.49-0.445-3.445,0,1,1,90,false,stim,false,2,1057.0,2,0,0,29430,WMM2,1218634,false,true,1519,image-keyboard-response,6
true,14,1,0,2,false,d,true,false,0.0-2.0-0.49-0.446-3.446,0,1,1,90,false,stim,false,2,565.0,2,1,2,29430,WMM2,1220704,false,false,1522,image-keyboard-response,7
true,14,2,0,1,false,z,true,false,0.0-2.0-0.49-0.447-3.447,0,1,1,68,false,stim,false,1,1364.0,2,1,1,29430,WMM2,1223573,false,false,1525,image-keyboard-response,8
true,14,0,0,1,false,z,true,false,0.0-2.0-0.49-0.448-3.448,0,1,1,81,false,stim,false,1,824.0,2,1,1,29430,WMM2,1225902,false,false,1528,image-keyboard-response,9
true,14,1,0,2,false,d,true,false,0.0-2.0-0.49-0.449-3.449,0,1,1,90,false,stim,false,2,475.0,2,1,2,29430,WMM2,1227882,false,false,1531,image-keyboard-response,10
true,14,1,0,2,false,d,true,false,0.0-2.0-0.50-0.450-3.450,0,1,1,90,false,stim,false,2,563.0,2,1,2,29430,WMM2,1229952,false,false,1534,image-keyboard-response,11
true,14,1,0,2,false,d,true,false,0.0-2.0-0.50-0.451-3.451,0,1,1,90,false,stim,false,2,1341.9999999997672,2,0,0,29430,WMM2,1232799,false,false,1537,image-keyboard-response,12
true,14,1,0,1,true,z,false,true,0.0-2.0-0.50-0.452-3.452,0,1,1,90,false,stim,false,1,2094.0,2,1,1,29430,WMM2,1236398,false,false,1540,image-keyboard-response,13
true,14,1,0,1,true,z,false,true,0.0-2.0-0.50-0.453-3.453,0,1,1,90,false,stim,false,1,576.0,2,1,1,29430,WMM2,1238480,false,false,1543,image-keyboard-response,14
true,14,0,0,2,false,d,true,true,0.0-2.0-0.50-0.454-3.454,0,1,1,81,false,stim,false,2,992.0,2,0,0,29430,WMM2,1240977,false,true,1546,image-keyboard-response,15
true,14,0,0,2,false,d,true,false,0.0-2.0-0.50-0.455-3.455,0,1,1,81,false,stim,false,2,620.0,2,0,0,29430,WMM2,1243103,false,false,1549,image-keyboard-response,16
true,14,1,0,1,true,z,false,true,0.0-2.0-0.50-0.456-3.456,0,1,1,90,false,stim,false,1,407.0,2,1,1,29430,WMM2,1245016,false,false,1552,image-keyboard-response,17
true,14,2,0,2,true,d,false,true,0.0-2.0-0.50-0.457-3.457,0,1,1,68,false,stim,false,2,1207.0,2,1,2,29430,WMM2,1247728,false,false,1555,image-keyboard-response,18
true,14,2,0,2,true,d,false,true,0.0-2.0-0.50-0.458-3.458,0,1,1,68,false,stim,false,2,1127.0,2,1,2,29430,WMM2,1250360,false,false,1558,image-keyboard-response,19
true,14,2,0,2,true,d,false,true,0.0-2.0-0.51-0.459-3.459,0,1,1,68,false,stim,false,2,970.0,2,1,2,29430,WMM2,1252835,false,false,1561,image-keyboard-response,20
true,14,1,0,1,true,z,false,true,0.0-2.0-0.51-0.460-3.460,0,1,1,90,false,stim,false,1,776.9999999997672,2,1,1,29430,WMM2,1255119,false,false,1564,image-keyboard-response,21
true,14,0,0,2,false,d,true,false,0.0-2.0-0.51-0.461-3.461,0,1,1,81,false,stim,false,2,1082.0,2,0,0,29430,WMM2,1257706,false,false,1567,image-keyboard-response,22
true,14,1,0,2,false,d,true,false,0.0-2.0-0.51-0.462-3.462,0,1,1,90,false,stim,false,2,1116.0,2,0,0,29430,WMM2,1260328,false,false,1570,image-keyboard-response,23
true,14,1,0,1,true,z,false,true,0.0-2.0-0.51-0.463-3.463,0,1,1,90,false,stim,false,1,1195.9999999997672,2,1,1,29430,WMM2,1263027,false,false,1573,image-keyboard-response,24
true,14,1,0,1,true,z,false,true,0.0-2.0-0.51-0.464-3.464,0,1,1,90,false,stim,false,1,777.0,2,1,1,29430,WMM2,1265311,false,false,1576,image-keyboard-response,25
true,14,1,0,2,false,d,true,false,0.0-2.0-0.51-0.465-3.465,0,1,1,90,false,stim,false,2,586.0,2,0,0,29430,WMM2,1267404,false,false,1579,image-keyboard-response,26
true,14,2,0,2,true,d,false,true,0.0-2.0-0.51-0.466-3.466,0,1,1,68,false,stim,false,2,834.0000000002328,2,1,2,29430,WMM2,1269744,false,false,1582,image-keyboard-response,27
true,14,1,0,2,false,d,true,false,0.0-2.0-0.51-0.467-3.467,0,1,1,90,false,stim,false,2,654.0,2,1,2,29430,WMM2,1271904,false,false,1585,image-keyboard-response,28
true,14,2,0,2,true,d,false,true,0.0-2.0-0.52-0.468-3.468,0,1,1,68,false,stim,false,2,452.0,2,1,2,29430,WMM2,1273862,false,false,1588,image-keyboard-response,29
true,14,1,0,1,true,z,false,true,0.0-2.0-0.52-0.469-3.469,0,1,1,90,false,stim,false,1,1925.0000000002328,2,1,1,29430,WMM2,1277293,false,false,1591,image-keyboard-response,30
true,14,2,0,2,true,d,false,true,0.0-2.0-0.52-0.470-3.470,0,1,1,68,false,stim,false,2,744.0000000002328,2,1,2,29430,WMM2,1279543,false,false,1594,image-keyboard-response,31
true,14,1,0,1,true,z,false,true,0.0-2.0-0.52-0.471-3.471,0,1,1,90,false,stim,false,1,576.0,2,1,1,29430,WMM2,1281624,false,false,1597,image-keyboard-response,32
true,14,2,0,2,true,d,false,true,0.0-2.0-0.52-0.472-3.472,0,1,1,68,false,stim,false,2,743.0,2,1,2,29430,WMM2,1283874,false,false,1600,image-keyboard-response,33
true,14,2,0,2,true,d,false,true,0.0-2.0-0.52-0.473-3.473,0,1,1,68,false,stim,false,2,1076.0,2,0,0,29430,WMM2,1286462,false,false,1603,image-keyboard-response,34
true,14,1,0,1,true,z,false,false,0.0-2.0-0.52-0.474-3.474,0,1,1,90,false,stim,false,1,790.0,2,1,1,29430,WMM2,1288757,false,true,1606,image-keyboard-response,35
true,14,2,0,2,true,d,false,false,0.0-2.0-0.52-0.475-3.475,0,1,1,68,false,stim,false,2,834.0,2,0,0,29430,WMM2,1291097,false,true,1609,image-keyboard-response,36
true,14,2,0,2,true,d,false,false,0.0-2.0-0.52-0.476-3.476,0,1,1,68,false,stim,false,2,416.0,2,0,0,29430,WMM2,1293021,false,true,1612,image-keyboard-response,37
true,14,2,0,2,true,d,false,true,0.0-2.0-0.53-0.477-3.477,0,1,1,68,false,stim,false,2,519.0,2,1,2,29430,WMM2,1295046,false,false,1615,image-keyboard-response,38
true,14,2,0,2,true,d,false,true,0.0-2.0-0.53-0.478-3.478,0,1,1,68,false,stim,false,2,574.9999999997672,2,1,2,29430,WMM2,1297127,false,false,1618,image-keyboard-response,39
true,14,1,0,1,true,z,false,false,0.0-2.0-0.53-0.479-3.479,0,1,1,90,false,stim,false,1,1037.0,2,0,1,29430,WMM2,1299670,false,true,1621,image-keyboard-response,40
true,14,2,0,2,true,d,false,true,0.0-2.0-0.53-0.480-3.480,0,1,1,68,false,stim,false,2,576.0,2,0,0,29430,WMM2,1301751,false,false,1624,image-keyboard-response,41
true,14,2,0,2,true,d,false,true,0.0-2.0-0.53-0.481-3.481,0,1,1,68,false,stim,false,2,1264.0,2,0,0,29430,WMM2,1304518,false,false,1627,image-keyboard-response,42
true,14,0,0,1,false,z,true,false,0.0-2.0-0.53-0.482-3.482,0,1,1,81,false,stim,false,1,1218.0,2,0,1,29430,WMM2,1307242,false,false,1630,image-keyboard-response,43
true,14,2,0,2,true,d,false,true,0.0-2.0-0.53-0.483-3.483,0,1,1,68,false,stim,false,2,710.0,2,0,0,29430,WMM2,1309457,false,false,1633,image-keyboard-response,44
true,14,1,0,1,true,z,false,false,0.0-2.0-0.53-0.484-3.484,0,1,1,90,false,stim,false,1,1312.0,2,0,1,29430,WMM2,1312274,false,true,1636,image-keyboard-response,45
true,14,2,0,2,true,d,false,true,0.0-2.0-0.53-0.485-3.485,0,1,1,68,false,stim,false,2,775.0,2,1,2,29430,WMM2,1314553,false,false,1639,image-keyboard-response,46
true,15,2,1,0,false,q,true,false,0.0-2.0-0.54-0.486-3.486,0,0,1,68,true,stim,false,1,1195.0,2,0,1,29430,WMM2,1317254,false,false,1642,image-keyboard-response,1
true,15,2,1,2,true,d,false,false,0.0-2.0-0.54-0.487-3.487,0,0,1,68,false,stim,false,2,666.0,2,1,2,29430,WMM2,1319425,false,true,1645,image-keyboard-response,2
true,15,2,1,2,true,d,false,true,0.0-2.0-0.54-0.488-3.488,0,0,1,68,false,stim,false,2,1580.0,2,1,2,29430,WMM2,1322510,false,false,1648,image-keyboard-response,3
true,15,2,1,2,true,d,false,true,0.0-2.0-0.54-0.489-3.489,0,0,1,68,false,stim,false,2,543.0,2,1,2,29430,WMM2,1324559,false,false,1651,image-keyboard-response,4
true,15,1,1,0,false,q,true,true,0.0-2.0-0.54-0.490-3.490,0,0,1,90,false,stim,false,2,1755.0,2,0,0,29430,WMM2,1327819,false,true,1654,image-keyboard-response,5
true,15,0,1,0,true,q,false,true,0.0-2.0-0.54-0.491-3.491,0,0,1,81,false,stim,false,1,767.0000000002328,2,0,1,29430,WMM2,1330090,false,false,1657,image-keyboard-response,6
true,15,1,1,0,false,q,true,false,0.0-2.0-0.54-0.492-3.492,0,0,1,90,false,stim,false,2,823.0,2,0,0,29430,WMM2,1332419,false,false,1660,image-keyboard-response,7
true,15,1,1,0,false,q,true,false,0.0-2.0-0.54-0.493-3.493,0,0,1,90,false,stim,false,2,835.0,2,0,0,29430,WMM2,1334759,false,false,1663,image-keyboard-response,8
true,15,0,1,0,true,q,false,true,0.0-2.0-0.54-0.494-3.494,0,0,1,81,false,stim,false,1,1318.0,2,0,1,29430,WMM2,1337583,false,false,1666,image-keyboard-response,9
true,15,2,1,2,true,d,false,true,0.0-2.0-0.55-0.495-3.495,0,0,1,68,false,stim,false,2,733.0,2,1,2,29430,WMM2,1339822,false,false,1669,image-keyboard-response,10
true,15,0,1,0,true,q,false,true,0.0-2.0-0.55-0.496-3.496,0,0,1,81,false,stim,false,1,1387.0,2,0,1,29430,WMM2,1342713,false,false,1672,image-keyboard-response,11
true,15,0,1,0,true,q,false,true,0.0-2.0-0.55-0.497-3.497,0,0,1,81,false,stim,false,1,542.0,2,0,1,29430,WMM2,1344760,false,false,1675,image-keyboard-response,12
true,15,0,1,2,false,d,true,false,0.0-2.0-0.55-0.498-3.498,0,0,1,81,false,stim,false,2,1375.0,2,1,2,29430,WMM2,1347641,false,false,1678,image-keyboard-response,13
true,15,0,1,0,true,q,false,false,0.0-2.0-0.55-0.499-3.499,0,0,1,81,false,stim,false,2,1499.0,2,0,0,29430,WMM2,1350644,false,true,1681,image-keyboard-response,14
true,15,2,1,2,true,d,false,true,0.0-2.0-0.55-0.500-3.500,0,0,1,68,false,stim,false,2,1160.0,2,1,2,29430,WMM2,1353311,false,false,1684,image-keyboard-response,15
true,15,0,1,0,true,q,false,true,0.0-2.0-0.55-0.501-3.501,0,0,1,81,false,stim,false,1,519.0,2,0,1,29430,WMM2,1355336,false,false,1687,image-keyboard-response,16
true,15,1,1,0,false,q,true,false,0.0-2.0-0.55-0.502-3.502,0,0,1,90,false,stim,false,2,554.9999999997672,2,0,0,29430,WMM2,1357395,false,false,1690,image-keyboard-response,17
true,15,2,1,0,false,q,false,false,0.0-2.0-0.55-0.503-3.503,0,0,1,68,false,stim,true,2,508.0,2,0,0,29430,WMM2,1359408,false,false,1693,image-keyboard-response,18
true,15,0,1,0,true,q,false,true,0.0-2.0-0.56-0.504-3.504,0,0,1,81,false,stim,false,2,881.0,2,0,0,29430,WMM2,1361794,false,false,1696,image-keyboard-response,19
true,15,0,1,0,true,q,false,false,0.0-2.0-0.56-0.505-3.505,0,0,1,81,false,stim,false,1,643.0,2,0,1,29430,WMM2,1363942,false,true,1699,image-keyboard-response,20
true,15,2,1,2,true,d,false,true,0.0-2.0-0.56-0.506-3.506,0,0,1,68,false,stim,false,2,660.0,2,1,2,29430,WMM2,1366114,false,false,1702,image-keyboard-response,21
true,15,0,1,0,true,q,false,true,0.0-2.0-0.56-0.507-3.507,0,0,1,81,false,stim,false,1,643.0,2,0,1,29430,WMM2,1368262,false,false,1705,image-keyboard-response,22
true,15,0,1,0,true,q,false,true,0.0-2.0-0.56-0.508-3.508,0,0,1,81,false,stim,false,1,564.0,2,0,1,29430,WMM2,1370332,false,false,1708,image-keyboard-response,23
true,15,2,1,2,true,d,false,true,0.0-2.0-0.56-0.509-3.509,0,0,1,68,false,stim,false,2,609.0,2,1,2,29430,WMM2,1372447,false,false,1711,image-keyboard-response,24
true,15,2,1,2,true,d,false,true,0.0-2.0-0.56-0.510-3.510,0,0,1,68,false,stim,false,2,452.0,2,1,2,29430,WMM2,1374406,false,false,1714,image-keyboard-response,25
true,15,0,1,0,true,q,false,true,0.0-2.0-0.56-0.511-3.511,0,0,1,81,false,stim,false,2,541.0,2,0,0,29430,WMM2,1376452,false,false,1717,image-keyboard-response,26
true,15,0,1,0,true,q,false,true,0.0-2.0-0.56-0.512-3.512,0,0,1,81,false,stim,false,2,564.0000000002328,2,0,0,29430,WMM2,1378523,false,false,1720,image-keyboard-response,27
true,15,0,1,0,true,q,false,true,0.0-2.0-0.57-0.513-3.513,0,0,1,81,false,stim,false,2,553.0,2,0,0,29430,WMM2,1380581,false,false,1723,image-keyboard-response,28
true,15,0,1,0,true,q,false,true,0.0-2.0-0.57-0.514-3.514,0,0,1,81,false,stim,false,1,577.0,2,1,1,29430,WMM2,1382663,false,false,1726,image-keyboard-response,29
true,15,0,1,0,true,q,false,true,0.0-2.0-0.57-0.515-3.515,0,0,1,81,false,stim,false,1,597.0,2,1,1,29430,WMM2,1384766,false,false,1729,image-keyboard-response,30
true,15,0,1,0,true,q,false,true,0.0-2.0-0.57-0.516-3.516,0,0,1,81,false,stim,false,2,779.9999999997672,2,0,0,29430,WMM2,1387052,false,false,1732,image-keyboard-response,31
true,15,0,1,0,true,q,false,true,0.0-2.0-0.57-0.517-3.517,0,0,1,81,false,stim,false,1,686.0,2,1,1,29430,WMM2,1389244,false,false,1735,image-keyboard-response,32
true,15,2,1,2,true,d,false,true,0.0-2.0-0.57-0.518-3.518,0,0,1,68,false,stim,false,2,847.0,2,1,2,29430,WMM2,1391595,false,false,1738,image-keyboard-response,33
true,15,2,1,2,true,d,false,true,0.0-2.0-0.57-0.519-3.519,0,0,1,68,false,stim,false,2,485.0,2,1,2,29430,WMM2,1393587,false,false,1741,image-keyboard-response,34
true,15,2,1,2,true,d,false,true,0.0-2.0-0.57-0.520-3.520,0,0,1,68,false,stim,false,2,408.0,2,1,2,29430,WMM2,1395499,false,false,1744,image-keyboard-response,35
true,15,0,1,0,true,q,false,true,0.0-2.0-0.57-0.521-3.521,0,0,1,81,false,stim,false,2,801.0,2,0,0,29430,WMM2,1397805,false,false,1747,image-keyboard-response,36
true,16,0,4,0,true,q,false,true,0.0-2.0-0.58-0.522-3.522,0,1,1,81,true,stim,false,0,586.9999999997672,2,0,0,29430,WMM2,1399898,false,false,1750,image-keyboard-response,1
true,16,0,4,0,true,q,false,true,0.0-2.0-0.58-0.523-3.523,0,1,1,81,false,stim,false,0,957.0,2,1,1,29430,WMM2,1402362,false,false,1753,image-keyboard-response,2
true,16,2,4,2,true,d,false,true,0.0-2.0-0.58-0.524-3.524,0,1,1,68,false,stim,false,2,880.0,2,1,2,29430,WMM2,1404747,false,false,1756,image-keyboard-response,3
true,16,0,4,0,true,q,false,true,0.0-2.0-0.58-0.525-3.525,0,1,1,81,false,stim,false,0,634.0,2,0,0,29430,WMM2,1406886,false,false,1759,image-keyboard-response,4
true,16,0,4,2,false,d,true,false,0.0-2.0-0.58-0.526-3.526,0,1,1,81,false,stim,false,2,518.0,2,1,2,29430,WMM2,1408909,false,false,1762,image-keyboard-response,5
true,16,0,4,0,true,q,false,true,0.0-2.0-0.58-0.527-3.527,0,1,1,81,false,stim,false,0,677.0,2,0,0,29430,WMM2,1411092,false,false,1765,image-keyboard-response,6
true,16,0,4,0,true,q,false,true,0.0-2.0-0.58-0.528-3.528,0,1,1,81,false,stim,false,0,441.0,2,1,1,29430,WMM2,1413038,false,false,1768,image-keyboard-response,7
true,16,0,4,0,true,q,false,true,0.0-2.0-0.58-0.529-3.529,0,1,1,81,false,stim,false,0,812.0,2,1,1,29430,WMM2,1415356,false,false,1771,image-keyboard-response,8
true,16,2,4,2,true,d,false,false,0.0-2.0-0.58-0.530-3.530,0,1,1,68,false,stim,false,2,486.0,2,1,2,29430,WMM2,1417347,false,true,1774,image-keyboard-response,9
true,16,2,4,2,true,d,false,true,0.0-2.0-0.59-0.531-3.531,0,1,1,68,false,stim,false,2,441.0,2,1,2,29430,WMM2,1419294,false,false,1777,image-keyboard-response,10
true,16,0,4,0,true,q,false,true,0.0-2.0-0.59-0.532-3.532,0,1,1,81,false,stim,false,0,755.0,2,0,0,29430,WMM2,1421555,false,false,1780,image-keyboard-response,11
true,16,0,4,0,true,q,false,true,0.0-2.0-0.59-0.533-3.533,0,1,1,81,false,stim,false,0,608.9999999997672,2,0,0,29430,WMM2,1423670,false,false,1783,image-keyboard-response,12
true,16,0,4,0,true,q,false,true,0.0-2.0-0.59-0.534-3.534,0,1,1,81,false,stim,false,0,654.0,2,1,1,29430,WMM2,1425830,false,false,1786,image-keyboard-response,13
true,16,2,4,2,true,d,false,true,0.0-2.0-0.59-0.535-3.535,0,1,1,68,false,stim,false,2,743.0000000002328,2,1,2,29430,WMM2,1428080,false,false,1789,image-keyboard-response,14
true,16,0,4,0,true,q,false,true,0.0-2.0-0.59-0.536-3.536,0,1,1,81,false,stim,false,0,733.0,2,1,1,29430,WMM2,1430319,false,false,1792,image-keyboard-response,15
true,16,0,4,0,true,q,false,true,0.0-2.0-0.59-0.537-3.537,0,1,1,81,false,stim,false,0,452.0,2,1,1,29430,WMM2,1432276,false,false,1795,image-keyboard-response,16
true,16,0,4,0,true,q,false,true,0.0-2.0-0.59-0.538-3.538,0,1,1,81,false,stim,false,0,789.9999999997672,2,0,0,29430,WMM2,1434571,false,false,1798,image-keyboard-response,17
true,16,2,4,2,true,d,false,true,0.0-2.0-0.59-0.539-3.539,0,1,1,68,false,stim,false,2,1224.0,2,1,2,29430,WMM2,1437305,false,false,1801,image-keyboard-response,18
true,16,0,4,0,true,q,false,true,0.0-2.0-0.60-0.540-3.540,0,1,1,81,false,stim,false,0,721.9999999997672,2,1,1,29430,WMM2,1439532,false,false,1804,image-keyboard-response,19
true,16,0,4,0,true,q,false,false,0.0-2.0-0.60-0.541-3.541,0,1,1,81,false,stim,false,0,813.0,2,1,1,29430,WMM2,1441850,false,true,1807,image-keyboard-response,20
true,16,0,4,0,true,q,false,true,0.0-2.0-0.60-0.542-3.542,0,1,1,81,false,stim,false,0,575.0,2,0,0,29430,WMM2,1443931,false,false,1810,image-keyboard-response,21
true,16,0,4,0,true,q,false,true,0.0-2.0-0.60-0.543-3.543,0,1,1,81,false,stim,false,0,689.0,2,0,0,29430,WMM2,1446125,false,false,1813,image-keyboard-response,22
true,16,0,4,0,true,q,false,true,0.0-2.0-0.60-0.544-3.544,0,1,1,81,false,stim,false,0,543.0,2,0,0,29430,WMM2,1448173,false,false,1816,image-keyboard-response,23
true,16,2,4,2,true,d,false,true,0.0-2.0-0.60-0.545-3.545,0,1,1,68,false,stim,false,2,666.0,2,1,2,29430,WMM2,1450344,false,false,1819,image-keyboard-response,24
true,16,2,4,2,true,d,false,true,0.0-2.0-0.60-0.546-3.546,0,1,1,68,false,stim,false,2,464.0,2,1,2,29430,WMM2,1452313,false,false,1822,image-keyboard-response,25
true,16,2,4,2,true,d,false,true,0.0-2.0-0.60-0.547-3.547,0,1,1,68,false,stim,false,2,453.0,2,1,2,29430,WMM2,1454271,false,false,1825,image-keyboard-response,26
true,16,0,4,0,true,q,false,true,0.0-2.0-0.60-0.548-3.548,0,1,1,81,false,stim,false,0,992.0,2,1,1,29430,WMM2,1456768,false,false,1828,image-keyboard-response,27
true,16,0,4,0,true,q,false,true,0.0-2.0-0.61-0.549-3.549,0,1,1,81,false,stim,false,0,542.0,2,1,1,29430,WMM2,1458816,false,false,1831,image-keyboard-response,28
true,16,0,4,0,true,q,false,true,0.0-2.0-0.61-0.550-3.550,0,1,1,81,false,stim,false,0,610.0,2,0,0,29430,WMM2,1460931,false,false,1834,image-keyboard-response,29
true,16,0,4,0,true,q,false,true,0.0-2.0-0.61-0.551-3.551,0,1,1,81,false,stim,false,0,542.0,2,0,0,29430,WMM2,1462978,false,false,1837,image-keyboard-response,30
true,17,2,3,2,true,d,false,true,0.0-2.0-0.61-0.552-3.552,0,1,1,68,true,stim,false,2,553.0,2,1,2,29430,WMM2,1465037,false,false,1840,image-keyboard-response,1
true,17,2,3,2,true,d,false,true,0.0-2.0-0.61-0.553-3.553,0,1,1,68,false,stim,false,2,509.0,2,1,2,29430,WMM2,1467051,false,false,1843,image-keyboard-response,2
true,17,0,3,0,true,q,false,true,0.0-2.0-0.61-0.554-3.554,0,1,1,81,false,stim,false,0,1295.0,2,1,1,29430,WMM2,1469852,false,false,1846,image-keyboard-response,3
true,17,2,3,2,true,d,false,true,0.0-2.0-0.61-0.555-3.555,0,1,1,68,false,stim,false,2,711.0,2,1,2,29430,WMM2,1472068,false,false,1849,image-keyboard-response,4
true,17,0,3,2,false,d,false,false,0.0-2.0-0.61-0.556-3.556,0,1,1,81,false,stim,true,0,880.0000000002328,2,0,0,29430,WMM2,1474453,false,false,1852,image-keyboard-response,5
true,17,0,3,0,true,q,false,true,0.0-2.0-0.61-0.557-3.557,0,1,1,81,false,stim,false,0,1195.0,2,1,1,29430,WMM2,1477154,false,false,1855,image-keyboard-response,6
true,17,2,3,2,true,d,false,true,0.0-2.0-0.62-0.558-3.558,0,1,1,68,false,stim,false,2,631.0,2,1,2,29430,WMM2,1479291,false,false,1858,image-keyboard-response,7
true,17,0,3,0,true,q,false,true,0.0-2.0-0.62-0.559-3.559,0,1,1,81,false,stim,false,0,778.0,2,1,1,29430,WMM2,1481575,false,false,1861,image-keyboard-response,8
true,17,0,3,2,false,d,false,false,0.0-2.0-0.62-0.560-3.560,0,1,1,81,false,stim,true,0,452.0,2,0,0,29430,WMM2,1483532,false,false,1864,image-keyboard-response,9
true,17,2,3,2,true,d,false,true,0.0-2.0-0.62-0.561-3.561,0,1,1,68,false,stim,false,2,722.0,2,1,2,29430,WMM2,1485760,false,false,1867,image-keyboard-response,10
true,17,0,3,2,false,d,false,true,0.0-2.0-0.62-0.562-3.562,0,1,1,81,false,stim,true,0,474.0,2,0,0,29430,WMM2,1487740,false,true,1870,image-keyboard-response,11
true,17,0,3,0,true,q,false,true,0.0-2.0-0.62-0.563-3.563,0,1,1,81,false,stim,false,0,914.0,2,1,1,29430,WMM2,1490159,false,false,1873,image-keyboard-response,12
true,17,0,3,2,false,d,false,false,0.0-2.0-0.62-0.564-3.564,0,1,1,81,false,stim,true,0,587.0,2,0,0,29430,WMM2,1492251,false,false,1876,image-keyboard-response,13
true,17,2,3,2,true,d,false,true,0.0-2.0-0.62-0.565-3.565,0,1,1,68,false,stim,false,2,767.0,2,1,2,29430,WMM2,1494524,false,false,1879,image-keyboard-response,14
true,17,0,3,0,true,q,false,true,0.0-2.0-0.62-0.566-3.566,0,1,1,81,false,stim,false,0,666.0,2,1,1,29430,WMM2,1496696,false,false,1882,image-keyboard-response,15
true,17,0,3,0,true,q,false,true,0.0-2.0-0.63-0.567-3.567,0,1,1,81,false,stim,false,0,507.0,2,1,1,29430,WMM2,1498709,false,false,1885,image-keyboard-response,16
true,17,0,3,0,true,q,false,true,0.0-2.0-0.63-0.568-3.568,0,1,1,81,false,stim,false,0,463.0,2,1,1,29430,WMM2,1500678,false,false,1888,image-keyboard-response,17
true,17,0,3,2,false,d,false,false,0.0-2.0-0.63-0.569-3.569,0,1,1,81,false,stim,true,0,517.9999999997672,2,0,0,29430,WMM2,1502703,false,false,1891,image-keyboard-response,18
true,17,2,3,2,true,d,false,true,0.0-2.0-0.63-0.570-3.570,0,1,1,68,false,stim,false,2,474.0,2,1,2,29430,WMM2,1504683,false,false,1894,image-keyboard-response,19
true,17,2,3,2,true,d,false,true,0.0-2.0-0.63-0.571-3.571,0,1,1,68,false,stim,false,2,656.0,2,1,2,29430,WMM2,1506843,false,false,1897,image-keyboard-response,20
true,17,0,3,2,false,d,false,false,0.0-2.0-0.63-0.572-3.572,0,1,1,81,false,stim,true,0,485.0,2,0,0,29430,WMM2,1508834,false,false,1900,image-keyboard-response,21
true,17,1,3,2,false,d,true,false,0.0-2.0-0.63-0.573-3.573,0,1,1,90,false,stim,false,0,650.0,2,0,0,29430,WMM2,1510994,false,false,1903,image-keyboard-response,22
true,17,2,3,2,true,d,false,false,0.0-2.0-0.63-0.574-3.574,0,1,1,68,false,stim,false,2,719.9999999997672,2,1,2,29430,WMM2,1513222,false,true,1906,image-keyboard-response,23
true,17,0,3,0,true,q,false,true,0.0-2.0-0.63-0.575-3.575,0,1,1,81,false,stim,false,0,621.0,2,1,1,29430,WMM2,1515348,false,false,1909,image-keyboard-response,24
true,17,2,3,2,true,d,false,true,0.0-2.0-0.64-0.576-3.576,0,1,1,68,false,stim,false,2,766.0,2,1,2,29430,WMM2,1517620,false,false,1912,image-keyboard-response,25
true,17,2,3,2,true,d,false,true,0.0-2.0-0.64-0.577-3.577,0,1,1,68,false,stim,false,2,587.0,2,1,2,29430,WMM2,1519713,false,false,1915,image-keyboard-response,26
true,17,0,3,0,true,q,false,true,0.0-2.0-0.64-0.578-3.578,0,1,1,81,false,stim,false,0,946.0,2,1,1,29430,WMM2,1522166,false,false,1918,image-keyboard-response,27
true,17,2,3,2,true,d,false,true,0.0-2.0-0.64-0.579-3.579,0,1,1,68,false,stim,false,0,1272.0,2,0,0,29430,WMM2,1524945,false,false,1921,image-keyboard-response,28
true,17,2,3,2,true,d,false,true,0.0-2.0-0.64-0.580-3.580,0,1,1,68,false,stim,false,0,643.0,2,0,0,29430,WMM2,1527093,false,false,1924,image-keyboard-response,29
true,17,0,3,0,true,q,false,true,0.0-2.0-0.64-0.581-3.581,0,1,1,81,false,stim,false,0,721.0,2,0,1,29430,WMM2,1529321,false,false,1927,image-keyboard-response,30
true,17,2,3,2,true,d,false,true,0.0-2.0-0.64-0.582-3.582,0,1,1,68,false,stim,false,0,486.0,2,1,0,29430,WMM2,1531312,false,false,1930,image-keyboard-response,31
true,17,0,3,0,true,q,false,true,0.0-2.0-0.64-0.583-3.583,0,1,1,81,false,stim,false,0,1148.9999999997672,2,0,1,29430,WMM2,1533967,false,false,1933,image-keyboard-response,32
true,17,2,3,2,true,d,false,true,0.0-2.0-0.64-0.584-3.584,0,1,1,68,false,stim,false,2,654.0,2,1,2,29430,WMM2,1536127,false,false,1936,image-keyboard-response,33
true,17,0,3,0,true,q,false,true,0.0-2.0-0.65-0.585-3.585,0,1,1,81,false,stim,false,0,711.0,2,0,1,29430,WMM2,1538344,false,false,1939,image-keyboard-response,34
true,17,2,3,2,true,d,false,true,0.0-2.0-0.65-0.586-3.586,0,1,1,68,false,stim,false,0,712.0,2,1,0,29430,WMM2,1540561,false,false,1942,image-keyboard-response,35
true,17,2,3,2,true,d,false,true,0.0-2.0-0.65-0.587-3.587,0,1,1,68,false,stim,false,2,553.0,2,1,2,29430,WMM2,1542619,false,false,1945,image-keyboard-response,36
true,17,2,3,2,true,d,false,true,0.0-2.0-0.65-0.588-3.588,0,1,1,68,false,stim,false,2,576.0,2,1,2,29430,WMM2,1544700,false,false,1948,image-keyboard-response,37
true,17,0,3,0,true,q,false,true,0.0-2.0-0.65-0.589-3.589,0,1,1,81,false,stim,false,0,856.0,2,0,1,29430,WMM2,1547062,false,false,1951,image-keyboard-response,38
true,17,2,3,2,true,d,false,false,0.0-2.0-0.65-0.590-3.590,0,1,1,68,false,stim,false,0,611.0,2,1,0,29430,WMM2,1549178,false,true,1954,image-keyboard-response,39
true,18,0,4,0,true,q,false,true,0.0-2.0-0.65-0.591-3.591,1,0,1,81,true,stim,false,0,1013.9999999997672,2,0,1,29430,WMM2,1551698,false,false,1957,image-keyboard-response,1
true,18,2,4,2,true,d,false,true,0.0-2.0-0.65-0.592-3.592,1,0,1,68,false,stim,false,2,530.9999999997672,2,1,2,29430,WMM2,1553734,false,false,1960,image-keyboard-response,2
true,18,2,4,2,true,d,false,false,0.0-2.0-0.65-0.593-3.593,1,0,1,68,false,stim,false,2,576.0,2,1,0,29430,WMM2,1555815,false,true,1963,image-keyboard-response,3
true,18,0,4,0,true,q,false,true,0.0-2.0-0.66-0.594-3.594,1,0,1,81,false,stim,false,0,1227.0000000002328,2,0,1,29430,WMM2,1558549,false,false,1966,image-keyboard-response,4
true,18,0,4,0,true,q,false,true,0.0-2.0-0.66-0.595-3.595,1,0,1,81,false,stim,false,0,1049.0,2,0,1,29430,WMM2,1561103,false,false,1969,image-keyboard-response,5
true,18,2,4,2,true,d,false,true,0.0-2.0-0.66-0.596-3.596,1,0,1,68,false,stim,false,2,823.0,2,1,2,29430,WMM2,1563432,false,false,1972,image-keyboard-response,6
true,18,2,4,2,true,d,false,false,0.0-2.0-0.66-0.597-3.597,1,0,1,68,false,stim,false,2,554.0000000002328,2,1,2,29430,WMM2,1565490,false,true,1975,image-keyboard-response,7
true,18,0,4,2,false,d,true,false,0.0-2.0-0.66-0.598-3.598,1,0,1,81,false,stim,false,2,700.0,2,1,0,29430,WMM2,1567696,false,false,1978,image-keyboard-response,8
true,18,2,4,2,true,d,false,false,0.0-2.0-0.66-0.599-3.599,1,0,1,68,false,stim,false,2,676.0,2,1,2,29430,WMM2,1569878,false,true,1981,image-keyboard-response,9
true,18,1,4,2,false,d,true,false,0.0-2.0-0.66-0.600-3.600,1,0,1,90,false,stim,false,2,847.0,2,1,0,29430,WMM2,1572230,false,false,1984,image-keyboard-response,10
true,18,0,4,0,true,q,false,true,0.0-2.0-0.66-0.601-3.601,1,0,1,81,false,stim,false,0,1194.0,2,0,1,29430,WMM2,1574930,false,false,1987,image-keyboard-response,11
true,18,2,4,2,true,d,false,false,0.0-2.0-0.66-0.602-3.602,1,0,1,68,false,stim,false,2,644.0,2,1,0,29430,WMM2,1577078,false,true,1990,image-keyboard-response,12
true,18,0,4,2,false,d,true,false,0.0-2.0-0.67-0.603-3.603,1,0,1,81,false,stim,false,2,1464.0000000002328,2,1,0,29430,WMM2,1580048,false,false,1993,image-keyboard-response,13
true,18,1,4,2,false,d,true,true,0.0-2.0-0.67-0.604-3.604,1,0,1,90,false,stim,false,2,644.0,2,1,0,29430,WMM2,1582197,false,true,1996,image-keyboard-response,14
true,18,1,4,2,false,d,true,false,0.0-2.0-0.67-0.605-3.605,1,0,1,90,false,stim,false,2,1554.0,2,1,2,29430,WMM2,1585257,false,false,1999,image-keyboard-response,15
true,18,0,4,0,true,q,false,true,0.0-2.0-0.67-0.606-3.606,1,0,1,81,false,stim,false,0,942.0,2,0,1,29430,WMM2,1587710,false,false,2002,image-keyboard-response,16
true,18,2,4,2,true,d,false,true,0.0-2.0-0.67-0.607-3.607,1,0,1,68,false,stim,false,2,1071.0,2,1,2,29430,WMM2,1590286,false,false,2005,image-keyboard-response,17
true,18,0,4,0,true,q,false,true,0.0-2.0-0.67-0.608-3.608,1,0,1,81,false,stim,false,0,835.0,2,0,1,29430,WMM2,1592626,false,false,2008,image-keyboard-response,18
true,18,1,4,2,false,d,true,true,0.0-2.0-0.67-0.609-3.609,1,0,1,90,false,stim,false,2,846.0,2,1,0,29430,WMM2,1594977,false,true,2011,image-keyboard-response,19
true,18,2,4,2,true,d,false,true,0.0-2.0-0.67-0.610-3.610,1,0,1,68,false,stim,false,2,891.0,2,1,2,29430,WMM2,1597374,false,false,2014,image-keyboard-response,20
true,18,0,4,0,true,q,false,true,0.0-2.0-0.67-0.611-3.611,1,0,1,81,false,stim,false,0,1126.0,2,0,1,29430,WMM2,1600006,false,false,2017,image-keyboard-response,21
true,18,1,4,2,false,d,true,false,0.0-2.0-0.68-0.612-3.612,1,0,1,90,false,stim,false,2,575.0000000002328,2,1,0,29430,WMM2,1602088,false,false,2020,image-keyboard-response,22
true,18,2,4,2,true,d,false,false,0.0-2.0-0.68-0.613-3.613,1,0,1,68,false,stim,false,2,552.0,2,1,0,29430,WMM2,1604146,false,true,2023,image-keyboard-response,23
true,18,0,4,0,true,q,false,false,0.0-2.0-0.68-0.614-3.614,1,0,1,81,false,stim,false,0,880.0,2,0,1,29430,WMM2,1606531,false,true,2026,image-keyboard-response,24
true,18,2,4,2,true,d,false,true,0.0-2.0-0.68-0.615-3.615,1,0,1,68,false,stim,false,2,877.9999999997672,2,1,2,29430,WMM2,1608916,false,false,2029,image-keyboard-response,25
true,18,0,4,0,true,q,false,true,0.0-2.0-0.68-0.616-3.616,1,0,1,81,false,stim,false,0,859.0,2,0,1,29430,WMM2,1611281,false,false,2032,image-keyboard-response,26
true,18,0,4,0,true,q,false,true,0.0-2.0-0.68-0.617-3.617,1,0,1,81,false,stim,false,0,585.0,2,0,1,29430,WMM2,1613371,false,false,2035,image-keyboard-response,27
true,18,2,4,2,true,d,false,true,0.0-2.0-0.68-0.618-3.618,1,0,1,68,false,stim,false,2,755.0,2,1,2,29430,WMM2,1615633,false,false,2038,image-keyboard-response,28
true,18,2,4,2,true,d,false,false,0.0-2.0-0.68-0.619-3.619,1,0,1,68,false,stim,false,2,530.0,2,1,2,29430,WMM2,1617669,false,true,2041,image-keyboard-response,29
