answered,blockNum,choice,condition,corResp,correct,correct_response,explo,fb,internal_node_id,isStable_1,isStable_2,isStable_3,key_press,newBlock,part,persev,persevResp,rt,sessNum,stableAS,stimulus,subject,task,time_elapsed,training,trap,trial_index,trial_type,trialsInBlock
true,1,0,0,1,false,z,true,false,0.0-2.0-0.0-0.0-3.0,0,0,0,81,true,stim,false,-1,1222.5350001826882,0,0,0,32111,WMM2,626520,false,false,364,image-keyboard-response,1
true,1,1,0,1,true,z,false,true,0.0-2.0-0.0-0.1-3.1,0,0,0,90,false,stim,false,-1,909.7899999469519,0,0,0,32111,WMM2,628960,false,false,367,image-keyboard-response,2
true,1,2,0,2,true,d,false,false,0.0-2.0-0.0-0.2-3.2,0,0,0,68,false,stim,false,-1,2136.36999996379,0,0,2,32111,WMM2,632640,false,true,370,image-keyboard-response,3
true,1,0,0,2,false,d,true,false,0.0-2.0-0.0-0.3-3.3,0,0,0,81,false,stim,false,-1,1885.8050000853837,0,0,1,32111,WMM2,636061,false,false,373,image-keyboard-response,4
true,1,1,0,1,true,z,false,true,0.0-2.0-0.0-0.4-3.4,0,0,0,90,false,stim,false,-1,1639.4050000235438,0,0,0,32111,WMM2,639230,false,false,376,image-keyboard-response,5
true,1,1,0,2,false,d,true,false,0.0-2.0-0.0-0.5-3.5,0,0,0,90,false,stim,false,-1,1989.7449999116361,0,0,2,32111,WMM2,642750,false,false,379,image-keyboard-response,6
true,1,0,0,2,false,d,true,true,0.0-2.0-0.0-0.6-3.6,0,0,0,81,false,stim,false,-1,572.9399998672307,0,0,2,32111,WMM2,644860,false,true,382,image-keyboard-response,7
true,1,2,0,2,true,d,false,true,0.0-2.0-0.0-0.7-3.7,0,0,0,68,false,stim,false,-1,1610.0550000555813,0,0,1,32111,WMM2,648001,false,false,385,image-keyboard-response,8
true,1,2,0,2,true,d,false,true,0.0-2.0-0.0-0.8-3.8,0,0,0,68,false,stim,false,-1,1159.0350000187755,0,0,1,32111,WMM2,650700,false,false,388,image-keyboard-response,9
true,1,1,0,1,true,z,false,true,0.0-2.0-0.1-0.9-3.9,0,0,0,90,false,stim,false,-1,1628.2550003379583,0,0,0,32111,WMM2,653860,false,false,391,image-keyboard-response,10
true,1,1,0,1,true,z,false,true,0.0-2.0-0.1-0.10-3.10,0,0,0,90,false,stim,false,-1,740.8300000242889,0,0,0,32111,WMM2,656140,false,false,394,image-keyboard-response,11
true,1,0,0,2,false,d,true,false,0.0-2.0-0.1-0.11-3.11,0,0,0,81,false,stim,false,-1,2124.6950002387166,0,0,2,32111,WMM2,659811,false,false,397,image-keyboard-response,12
true,1,2,0,2,true,d,false,true,0.0-2.0-0.1-0.12-3.12,0,0,0,68,false,stim,false,-1,1776.114999782294,0,0,1,32111,WMM2,663131,false,false,400,image-keyboard-response,13
true,1,1,0,2,false,d,true,false,0.0-2.0-0.1-0.13-3.13,0,0,0,90,false,stim,false,-1,2185.830000322312,0,0,2,32111,WMM2,666861,false,false,403,image-keyboard-response,14
true,1,1,0,1,true,z,false,true,0.0-2.0-0.1-0.14-3.14,0,0,0,90,false,stim,false,-1,1266.1150000058115,0,0,0,32111,WMM2,669661,false,false,406,image-keyboard-response,15
true,1,0,0,2,false,d,true,false,0.0-2.0-0.1-0.15-3.15,0,0,0,81,false,stim,false,-1,590.1350001804531,0,0,2,32111,WMM2,671790,false,false,409,image-keyboard-response,16
true,1,2,0,2,true,d,false,true,0.0-2.0-0.1-0.16-3.16,0,0,0,68,false,stim,false,-1,1516.7149999178946,0,0,1,32111,WMM2,674842,false,false,412,image-keyboard-response,17
true,1,2,0,2,true,d,false,true,0.0-2.0-0.1-0.17-3.17,0,0,0,68,false,stim,false,-1,1898.1499997898936,0,0,1,32111,WMM2,678272,false,false,415,image-keyboard-response,18
true,1,2,0,2,true,d,false,true,0.0-2.0-0.2-0.18-3.18,0,0,0,68,false,stim,false,-1,609.9499999545515,0,0,1,32111,WMM2,680411,false,false,418,image-keyboard-response,19
true,1,0,0,2,false,d,true,false,0.0-2.0-0.2-0.19-3.19,0,0,0,81,false,stim,false,-1,2170.040000230074,0,0,2,32111,WMM2,684122,false,false,421,image-keyboard-response,20
true,1,1,0,2,false,d,true,false,0.0-2.0-0.2-0.20-3.20,0,0,0,90,false,stim,false,-1,1800.4550002515316,0,0,2,32111,WMM2,687472,false,false,424,image-keyboard-response,21
true,1,2,0,2,true,d,false,false,0.0-2.0-0.2-0.21-3.21,0,0,0,68,false,stim,false,-1,2701.429999899119,0,0,1,32111,WMM2,691711,false,true,427,image-keyboard-response,22
true,1,2,0,2,true,d,false,true,0.0-2.0-0.2-0.22-3.22,0,0,0,68,false,stim,false,-1,1126.6049998812377,0,0,1,32111,WMM2,694381,false,false,430,image-keyboard-response,23
true,1,0,0,2,false,d,true,false,0.0-2.0-0.2-0.23-3.23,0,0,0,81,false,stim,false,-1,2927.339999936521,0,0,2,32111,WMM2,698841,false,false,433,image-keyboard-response,24
true,1,0,0,1,false,z,true,false,0.0-2.0-0.2-0.24-3.24,0,0,0,81,false,stim,false,-1,1770.2050004154444,0,0,0,32111,WMM2,702151,false,false,436,image-keyboard-response,25
true,1,1,0,1,true,z,false,false,0.0-2.0-0.2-0.25-3.25,0,0,0,90,false,stim,false,-1,1052.7499997988343,0,0,0,32111,WMM2,704742,false,true,439,image-keyboard-response,26
true,1,1,0,1,true,z,false,true,0.0-2.0-0.2-0.26-3.26,0,0,0,90,false,stim,false,-1,1071.4749996550381,0,0,0,32111,WMM2,707351,false,false,442,image-keyboard-response,27
true,1,2,0,2,true,d,false,true,0.0-2.0-0.3-0.27-3.27,0,0,0,68,false,stim,false,-1,2106.2999996356666,0,0,1,32111,WMM2,711003,false,false,445,image-keyboard-response,28
true,1,1,0,1,true,z,false,true,0.0-2.0-0.3-0.28-3.28,0,0,0,90,false,stim,false,-1,2056.744999717921,0,0,0,32111,WMM2,714592,false,false,448,image-keyboard-response,29
true,1,1,0,1,true,z,false,false,0.0-2.0-0.3-0.29-3.29,0,0,0,90,false,stim,false,-1,1208.4349999204278,0,0,0,32111,WMM2,717333,false,true,451,image-keyboard-response,30
true,1,0,0,2,false,d,true,false,0.0-2.0-0.3-0.30-3.30,0,0,0,81,false,stim,false,-1,2308.56000026688,0,0,2,32111,WMM2,721182,false,false,454,image-keyboard-response,31
true,1,0,0,2,false,d,true,false,0.0-2.0-0.3-0.31-3.31,0,0,0,81,false,stim,false,-1,1135.8199999667704,0,0,2,32111,WMM2,723852,false,false,457,image-keyboard-response,32
true,1,2,0,2,true,d,false,true,0.0-2.0-0.3-0.32-3.32,0,0,0,68,false,stim,false,-1,957.8750003129244,0,0,1,32111,WMM2,726342,false,false,460,image-keyboard-response,33
true,1,2,0,2,true,d,false,true,0.0-2.0-0.3-0.33-3.33,0,0,0,68,false,stim,false,-1,2151.0049998760223,0,0,1,32111,WMM2,730033,false,false,463,image-keyboard-response,34
true,1,0,0,2,false,d,true,false,0.0-2.0-0.3-0.34-3.34,0,0,0,81,false,stim,false,-1,1995.160000398755,0,0,2,32111,WMM2,733563,false,false,466,image-keyboard-response,35
true,1,1,0,1,true,z,false,true,0.0-2.0-0.3-0.35-3.35,0,0,0,90,false,stim,false,-1,2769.4950001314282,0,0,0,32111,WMM2,737882,false,false,469,image-keyboard-response,36
true,1,0,0,2,false,d,true,false,0.0-2.0-0.4-0.36-3.36,0,0,0,81,false,stim,false,-1,2490.3449998237193,0,0,2,32111,WMM2,741913,false,false,472,image-keyboard-response,37
true,1,2,0,2,true,d,false,true,0.0-2.0-0.4-0.37-3.37,0,0,0,68,false,stim,false,-1,1891.6349997743964,0,0,1,32111,WMM2,745352,false,false,475,image-keyboard-response,38
true,1,1,0,1,true,z,false,true,0.0-2.0-0.4-0.38-3.38,0,0,0,90,false,stim,false,-1,2259.3350000679493,0,0,0,32111,WMM2,749153,false,false,478,image-keyboard-response,39
true,1,2,0,2,true,d,false,true,0.0-2.0-0.4-0.39-3.39,0,0,0,68,false,stim,false,-1,1769.7600000537932,0,0,1,32111,WMM2,752464,false,false,481,image-keyboard-response,40
true,1,2,0,2,true,d,false,true,0.0-2.0-0.4-0.40-3.40,0,0,0,68,false,stim,false,-1,756.5250000916421,0,0,1,32111,WMM2,754763,false,false,484,image-keyboard-response,41
true,1,0,0,2,false,d,true,false,0.0-2.0-0.4-0.41-3.41,0,0,0,81,false,stim,false,-1,2005.644999910146,0,0,2,32111,WMM2,758303,false,false,487,image-keyboard-response,42
true,1,1,0,2,false,d,true,true,0.0-2.0-0.4-0.42-3.42,0,0,0,90,false,stim,false,-1,1514.9600002914667,0,0,2,32111,WMM2,761353,false,true,490,image-keyboard-response,43
true,1,1,0,1,true,z,false,true,0.0-2.0-0.4-0.43-3.43,0,0,0,90,false,stim,false,-1,2442.9600001312792,0,0,0,32111,WMM2,765334,false,false,493,image-keyboard-response,44
true,1,1,0,1,true,z,false,true,0.0-2.0-0.4-0.44-3.44,0,0,0,90,false,stim,false,-1,1195.1549998484552,0,0,0,32111,WMM2,768073,false,false,496,image-keyboard-response,45
true,1,0,0,2,false,d,true,false,0.0-2.0-0.5-0.45-3.45,0,0,0,81,false,stim,false,-1,2048.4050000086427,0,0,2,32111,WMM2,771663,false,false,499,image-keyboard-response,46
true,1,1,0,1,true,z,false,true,0.0-2.0-0.5-0.46-3.46,0,0,0,90,false,stim,false,-1,2109.7549996338785,0,0,0,32111,WMM2,775313,false,false,502,image-keyboard-response,47
true,1,2,0,2,true,d,false,true,0.0-2.0-0.5-0.47-3.47,0,0,0,68,false,stim,false,-1,778.1699998304248,0,0,1,32111,WMM2,777634,false,false,505,image-keyboard-response,48
true,1,2,0,2,true,d,false,true,0.0-2.0-0.5-0.48-3.48,0,0,0,68,false,stim,false,-1,755.4999999701977,0,0,1,32111,WMM2,779934,false,false,508,image-keyboard-response,49
true,1,1,0,1,true,z,false,true,0.0-2.0-0.5-0.49-3.49,0,0,0,90,false,stim,false,-1,1551.7649999819696,0,0,0,32111,WMM2,783033,false,false,511,image-keyboard-response,50
true,1,0,0,2,false,d,true,true,0.0-2.0-0.5-0.50-3.50,0,0,0,81,false,stim,false,-1,2298.470000270754,0,1,2,32111,WMM2,786873,false,true,514,image-keyboard-response,51
true,1,1,0,1,true,z,false,true,0.0-2.0-0.5-0.51-3.51,0,0,0,90,false,stim,false,-1,1010.8600002713501,0,1,0,32111,WMM2,789424,false,false,517,image-keyboard-response,52
true,1,0,0,2,false,d,true,false,0.0-2.0-0.5-0.52-3.52,0,0,0,81,false,stim,false,-1,1416.0649999976158,0,1,2,32111,WMM2,792384,false,false,520,image-keyboard-response,53
true,1,1,0,2,false,d,true,false,0.0-2.0-0.5-0.53-3.53,0,0,0,90,false,stim,false,-1,938.0900003015995,0,0,1,32111,WMM2,794864,false,false,523,image-keyboard-response,54
true,1,1,0,2,false,d,true,false,0.0-2.0-0.6-0.54-3.54,0,0,0,90,false,stim,false,-1,1732.249999884516,0,1,2,32111,WMM2,798134,false,false,526,image-keyboard-response,55
true,1,2,0,2,true,d,false,true,0.0-2.0-0.6-0.55-3.55,0,0,0,68,false,stim,false,-1,652.4199997074902,0,0,1,32111,WMM2,800325,false,false,529,image-keyboard-response,56
true,1,2,0,2,true,d,false,true,0.0-2.0-0.6-0.56-3.56,0,0,0,68,false,stim,false,-1,848.6549998633564,0,0,1,32111,WMM2,802714,false,false,532,image-keyboard-response,57
true,1,1,0,2,false,d,true,false,0.0-2.0-0.6-0.57-3.57,0,0,0,90,false,stim,false,-1,2035.9899997711182,0,1,2,32111,WMM2,806284,false,false,535,image-keyboard-response,58
true,1,0,0,1,false,z,true,true,0.0-2.0-0.6-0.58-3.58,0,0,0,81,false,stim,false,-1,2677.3350001312792,0,1,0,32111,WMM2,810504,false,true,538,image-keyboard-response,59
true,1,0,0,1,false,z,true,false,0.0-2.0-0.6-0.59-3.59,0,0,0,81,false,stim,false,-1,1361.7850001901388,0,1,0,32111,WMM2,813404,false,false,541,image-keyboard-response,60
true,2,1,4,2,false,d,true,false,0.0-2.0-0.6-0.60-3.60,1,0,1,90,true,stim,false,2,1520.124999806285,0,1,2,32111,WMM2,816454,false,false,544,image-keyboard-response,1
true,2,2,4,2,true,d,false,true,0.0-2.0-0.6-0.61-3.61,1,0,1,68,false,stim,false,2,891.2049997597933,0,0,1,32111,WMM2,818884,false,false,547,image-keyboard-response,2
true,2,1,4,1,true,z,false,true,0.0-2.0-0.6-0.62-3.62,1,0,1,90,false,stim,false,1,2524.9099996872246,0,1,0,32111,WMM2,822944,false,false,550,image-keyboard-response,3
true,2,2,4,2,true,d,false,true,0.0-2.0-0.7-0.63-3.63,1,0,1,68,false,stim,false,2,1332.369999960065,0,0,1,32111,WMM2,825814,false,false,553,image-keyboard-response,4
true,2,1,4,1,true,z,false,false,0.0-2.0-0.7-0.64-3.64,1,0,1,90,false,stim,false,1,901.0999999009073,0,1,0,32111,WMM2,828254,false,true,556,image-keyboard-response,5
true,2,1,4,2,false,d,true,true,0.0-2.0-0.7-0.65-3.65,1,0,1,90,false,stim,false,2,1721.0050001740456,0,1,2,32111,WMM2,831514,false,true,559,image-keyboard-response,6
true,2,1,4,2,false,d,true,false,0.0-2.0-0.7-0.66-3.66,1,0,1,90,false,stim,false,2,939.2800000496209,0,1,2,32111,WMM2,833995,false,false,562,image-keyboard-response,7
true,2,1,4,2,false,d,true,true,0.0-2.0-0.7-0.67-3.67,1,0,1,90,false,stim,false,2,1823.2350000180304,0,1,2,32111,WMM2,837354,false,true,565,image-keyboard-response,8
true,2,2,4,2,true,d,false,true,0.0-2.0-0.7-0.68-3.68,1,0,1,68,false,stim,false,2,684.5650002360344,0,0,1,32111,WMM2,839585,false,false,568,image-keyboard-response,9
true,2,0,4,1,false,z,true,true,0.0-2.0-0.7-0.69-3.69,1,0,1,81,false,stim,false,1,1909.3949999660254,0,1,0,32111,WMM2,843035,false,true,571,image-keyboard-response,10
true,2,2,4,2,true,d,false,true,0.0-2.0-0.7-0.70-3.70,1,0,1,68,false,stim,false,2,1490.375000052154,0,0,1,32111,WMM2,846066,false,false,574,image-keyboard-response,11
true,2,1,4,1,true,z,false,true,0.0-2.0-0.7-0.71-3.71,1,0,1,90,false,stim,false,1,2117.7350003272295,0,1,0,32111,WMM2,849715,false,false,577,image-keyboard-response,12
true,2,1,4,1,true,z,false,true,0.0-2.0-0.8-0.72-3.72,1,0,1,90,false,stim,false,1,442.6400000229478,0,1,0,32111,WMM2,851704,false,false,580,image-keyboard-response,13
true,2,0,4,2,false,d,true,true,0.0-2.0-0.8-0.73-3.73,1,0,1,81,false,stim,false,2,1684.5500003546476,0,1,2,32111,WMM2,854926,false,true,583,image-keyboard-response,14
true,2,2,4,2,true,d,false,true,0.0-2.0-0.8-0.74-3.74,1,0,1,68,false,stim,false,2,1212.7049998380244,0,0,1,32111,WMM2,857675,false,false,586,image-keyboard-response,15
true,2,0,4,1,false,z,true,false,0.0-2.0-0.8-0.75-3.75,1,0,1,81,false,stim,false,1,1667.0900001190603,0,1,0,32111,WMM2,860885,false,false,589,image-keyboard-response,16
true,2,2,4,2,true,d,false,true,0.0-2.0-0.8-0.76-3.76,1,0,1,68,false,stim,false,2,1030.9700001962483,0,1,2,32111,WMM2,863455,false,false,592,image-keyboard-response,17
true,2,2,4,2,true,d,false,false,0.0-2.0-0.8-0.77-3.77,1,0,1,68,false,stim,false,2,3015.3799997642636,0,0,1,32111,WMM2,868006,false,true,595,image-keyboard-response,18
true,2,0,4,2,false,d,true,false,0.0-2.0-0.8-0.78-3.78,1,0,1,81,false,stim,false,2,1667.8599999286234,0,1,2,32111,WMM2,871215,false,false,598,image-keyboard-response,19
true,2,2,4,2,true,d,false,false,0.0-2.0-0.8-0.79-3.79,1,0,1,68,false,stim,false,2,1054.3249999172986,0,0,1,32111,WMM2,873805,false,true,601,image-keyboard-response,20
true,2,1,4,1,true,z,false,true,0.0-2.0-0.8-0.80-3.80,1,0,1,90,false,stim,false,1,1804.5399999246001,0,1,0,32111,WMM2,877155,false,false,604,image-keyboard-response,21
true,2,0,4,2,false,d,true,false,0.0-2.0-0.9-0.81-3.81,1,0,1,81,false,stim,false,2,2770.849999971688,0,1,2,32111,WMM2,881476,false,false,607,image-keyboard-response,22
true,2,2,4,2,true,d,false,true,0.0-2.0-0.9-0.82-3.82,1,0,1,68,false,stim,false,2,1106.2350003048778,0,0,1,32111,WMM2,884126,false,false,610,image-keyboard-response,23
true,2,1,4,1,true,z,false,true,0.0-2.0-0.9-0.83-3.83,1,0,1,90,false,stim,false,1,2445.2550001442432,0,1,0,32111,WMM2,888116,false,false,613,image-keyboard-response,24
true,2,2,4,2,true,d,false,true,0.0-2.0-0.9-0.84-3.84,1,0,1,68,false,stim,false,2,1352.1800003945827,0,0,1,32111,WMM2,891016,false,false,616,image-keyboard-response,25
true,2,1,4,1,true,z,false,false,0.0-2.0-0.9-0.85-3.85,1,0,1,90,false,stim,false,1,830.9599999338388,0,1,0,32111,WMM2,893387,false,true,619,image-keyboard-response,26
true,2,1,4,2,false,d,true,false,0.0-2.0-0.9-0.86-3.86,1,0,1,90,false,stim,false,2,2322.1599999815226,0,1,2,32111,WMM2,897246,false,false,622,image-keyboard-response,27
true,2,0,4,2,false,d,true,false,0.0-2.0-0.9-0.87-3.87,1,0,1,81,false,stim,false,2,1230.1199999637902,0,1,2,32111,WMM2,900016,false,false,625,image-keyboard-response,28
true,2,1,4,1,true,z,false,true,0.0-2.0-0.9-0.88-3.88,1,0,1,90,false,stim,false,1,2538.309999741614,0,1,0,32111,WMM2,904097,false,false,628,image-keyboard-response,29
true,2,2,4,2,true,d,false,true,0.0-2.0-0.9-0.89-3.89,1,0,1,68,false,stim,false,2,725.6249999627471,0,0,1,32111,WMM2,906367,false,false,631,image-keyboard-response,30
true,2,2,4,2,true,d,false,true,0.0-2.0-0.10-0.90-3.90,1,0,1,68,false,stim,false,2,524.4149998761714,0,0,1,32111,WMM2,908436,false,false,634,image-keyboard-response,31
true,2,0,4,1,false,z,true,false,0.0-2.0-0.10-0.91-3.91,1,0,1,81,false,stim,false,1,2250.264999922365,0,1,0,32111,WMM2,912226,false,false,637,image-keyboard-response,32
true,2,1,4,2,false,d,true,false,0.0-2.0-0.10-0.92-3.92,1,0,1,90,false,stim,false,2,2335.454999934882,0,1,2,32111,WMM2,916117,false,false,640,image-keyboard-response,33
true,2,2,4,2,true,d,false,true,0.0-2.0-0.10-0.93-3.93,1,0,1,68,false,stim,false,2,812.1150000952184,0,0,1,32111,WMM2,918467,false,false,643,image-keyboard-response,34
true,2,2,4,2,true,d,false,true,0.0-2.0-0.10-0.94-3.94,1,0,1,68,false,stim,false,2,1058.2699999213219,0,0,1,32111,WMM2,921067,false,false,646,image-keyboard-response,35
true,2,0,4,2,false,d,true,false,0.0-2.0-0.10-0.95-3.95,1,0,1,81,false,stim,false,2,1979.7249999828637,0,1,2,32111,WMM2,924586,false,false,649,image-keyboard-response,36
true,2,1,4,1,true,z,false,true,0.0-2.0-0.10-0.96-3.96,1,0,1,90,false,stim,false,1,1271.475000306964,0,1,0,32111,WMM2,927398,false,false,652,image-keyboard-response,37
true,2,1,4,1,true,z,false,true,0.0-2.0-0.10-0.97-3.97,1,0,1,90,false,stim,false,1,426.8000000156462,0,1,0,32111,WMM2,929377,false,false,655,image-keyboard-response,38
true,2,1,4,2,false,d,true,false,0.0-2.0-0.10-0.98-3.98,1,0,1,90,false,stim,false,2,777.7200001291931,0,1,2,32111,WMM2,931697,false,false,658,image-keyboard-response,39
true,2,0,4,2,false,d,true,true,0.0-2.0-0.11-0.99-3.99,1,0,1,81,false,stim,false,2,617.2749996185303,0,1,2,32111,WMM2,933857,false,true,661,image-keyboard-response,40
true,2,0,4,2,false,d,true,false,0.0-2.0-0.11-0.100-3.100,1,0,1,81,false,stim,false,2,638.7499999254942,0,1,2,32111,WMM2,936037,false,false,664,image-keyboard-response,41
true,2,2,4,2,true,d,false,true,0.0-2.0-0.11-0.101-3.101,1,0,1,68,false,stim,false,2,698.3050000853837,0,0,1,32111,WMM2,938288,false,false,667,image-keyboard-response,42
true,2,1,4,1,true,z,false,true,0.0-2.0-0.11-0.102-3.102,1,0,1,90,false,stim,false,1,986.6200000979006,0,1,0,32111,WMM2,940817,false,false,670,image-keyboard-response,43
true,2,2,4,2,true,d,false,true,0.0-2.0-0.11-0.103-3.103,1,0,1,68,false,stim,false,2,770.4599997960031,0,0,1,32111,WMM2,943127,false,false,673,image-keyboard-response,44
true,2,1,4,1,true,z,false,true,0.0-2.0-0.11-0.104-3.104,1,0,1,90,false,stim,false,1,1037.1550000272691,0,1,0,32111,WMM2,945717,false,false,676,image-keyboard-response,45
true,2,1,4,1,true,z,false,true,0.0-2.0-0.11-0.105-3.105,1,0,1,90,false,stim,false,1,615.3049999848008,0,1,0,32111,WMM2,947878,false,false,679,image-keyboard-response,46
true,2,1,4,2,false,d,true,false,0.0-2.0-0.11-0.106-3.106,1,0,1,90,false,stim,false,2,1765.7599998638034,0,1,2,32111,WMM2,951188,false,false,682,image-keyboard-response,47
true,2,2,4,2,true,d,false,true,0.0-2.0-0.11-0.107-3.107,1,0,1,68,false,stim,false,2,850.2250001765788,0,0,1,32111,WMM2,953577,false,false,685,image-keyboard-response,48
true,2,0,4,2,false,d,true,true,0.0-2.0-0.12-0.108-3.108,1,0,1,81,false,stim,false,2,1979.4899998232722,0,1,2,32111,WMM2,957107,false,true,688,image-keyboard-response,49
true,2,1,4,1,true,z,false,true,0.0-2.0-0.12-0.109-3.109,1,0,1,90,false,stim,false,1,1039.3249997869134,0,1,0,32111,WMM2,959687,false,false,691,image-keyboard-response,50
true,2,2,4,2,true,d,false,true,0.0-2.0-0.12-0.110-3.110,1,0,1,68,false,stim,false,2,844.3550001829863,0,1,1,32111,WMM2,962078,false,false,694,image-keyboard-response,51
true,2,0,4,2,false,d,true,true,0.0-2.0-0.12-0.111-3.111,1,0,1,81,false,stim,false,2,2410.0999999791384,0,1,2,32111,WMM2,966037,false,true,697,image-keyboard-response,52
true,2,2,4,2,true,d,false,true,0.0-2.0-0.12-0.112-3.112,1,0,1,68,false,stim,false,2,1331.8600002676249,0,1,1,32111,WMM2,968908,false,false,700,image-keyboard-response,53
true,2,1,4,1,true,z,false,true,0.0-2.0-0.12-0.113-3.113,1,0,1,90,false,stim,false,1,1483.4599997848272,0,0,0,32111,WMM2,971936,false,false,703,image-keyboard-response,54
true,2,1,4,1,true,z,false,true,0.0-2.0-0.12-0.114-3.114,1,0,1,90,false,stim,false,1,697.3350001499057,0,0,0,32111,WMM2,974179,false,false,706,image-keyboard-response,55
true,2,0,4,2,false,d,true,false,0.0-2.0-0.12-0.115-3.115,1,0,1,81,false,stim,false,2,1249.6099998243153,0,1,2,32111,WMM2,976968,false,false,709,image-keyboard-response,56
true,2,0,4,2,false,d,true,false,0.0-2.0-0.12-0.116-3.116,1,0,1,81,false,stim,false,2,2917.5899997353554,0,1,1,32111,WMM2,981428,false,false,712,image-keyboard-response,57
true,2,1,4,1,true,z,false,true,0.0-2.0-0.13-0.117-3.117,1,0,1,90,false,stim,false,1,2842.800000216812,0,0,0,32111,WMM2,985809,false,false,715,image-keyboard-response,58
true,2,1,4,1,true,z,false,true,0.0-2.0-0.13-0.118-3.118,1,0,1,90,false,stim,false,1,529.0149999782443,0,0,0,32111,WMM2,987888,false,false,718,image-keyboard-response,59
true,2,0,4,2,false,d,true,false,0.0-2.0-0.13-0.119-3.119,1,0,1,81,false,stim,false,2,1360.07499974221,0,1,2,32111,WMM2,990788,false,false,721,image-keyboard-response,60
true,3,2,3,2,true,d,false,false,0.0-2.0-0.13-0.120-3.120,0,1,1,68,true,stim,false,2,2409.0199996717274,0,1,1,32111,WMM2,994738,false,true,724,image-keyboard-response,1
true,3,1,3,2,false,d,true,false,0.0-2.0-0.13-0.121-3.121,0,1,1,90,false,stim,false,2,1278.2549997791648,0,1,2,32111,WMM2,997559,false,false,727,image-keyboard-response,2
true,3,2,3,2,true,d,false,true,0.0-2.0-0.13-0.122-3.122,0,1,1,68,false,stim,false,2,1563.570000231266,0,1,1,32111,WMM2,1000668,false,false,730,image-keyboard-response,3
true,3,2,3,2,true,d,false,true,0.0-2.0-0.13-0.123-3.123,0,1,1,68,false,stim,false,2,673.1300000101328,0,1,1,32111,WMM2,1002888,false,false,733,image-keyboard-response,4
true,3,0,3,2,false,d,true,false,0.0-2.0-0.13-0.124-3.124,0,1,1,81,false,stim,false,2,2223.9299998618662,0,1,2,32111,WMM2,1006658,false,false,736,image-keyboard-response,5
true,3,1,3,0,false,q,false,false,0.0-2.0-0.13-0.125-3.125,0,1,1,90,false,stim,true,1,2005.4999999701977,0,0,0,32111,WMM2,1010209,false,false,739,image-keyboard-response,6
true,3,0,3,0,true,q,false,true,0.0-2.0-0.14-0.126-3.126,0,1,1,81,false,stim,false,1,1092.9900002665818,0,0,0,32111,WMM2,1012839,false,false,742,image-keyboard-response,7
true,3,1,3,2,false,d,true,false,0.0-2.0-0.14-0.127-3.127,0,1,1,90,false,stim,false,2,1687.8549996763468,0,1,2,32111,WMM2,1016069,false,false,745,image-keyboard-response,8
true,3,1,3,0,false,q,false,false,0.0-2.0-0.14-0.128-3.128,0,1,1,90,false,stim,true,1,2989.684999920428,0,0,0,32111,WMM2,1020599,false,false,748,image-keyboard-response,9
true,3,2,3,2,true,d,false,true,0.0-2.0-0.14-0.129-3.129,0,1,1,68,false,stim,false,2,857.0199999958277,0,1,1,32111,WMM2,1022999,false,false,751,image-keyboard-response,10
true,3,0,3,2,false,d,true,false,0.0-2.0-0.14-0.130-3.130,0,1,1,81,false,stim,false,2,2382.080000359565,0,1,2,32111,WMM2,1026919,false,false,754,image-keyboard-response,11
true,3,1,3,2,false,d,true,false,0.0-2.0-0.14-0.131-3.131,0,1,1,90,false,stim,false,2,1869.4850001484156,0,1,2,32111,WMM2,1030329,false,false,757,image-keyboard-response,12
true,3,2,3,2,true,d,false,true,0.0-2.0-0.14-0.132-3.132,0,1,1,68,false,stim,false,2,904.5349997468293,0,1,1,32111,WMM2,1032779,false,false,760,image-keyboard-response,13
true,3,2,3,0,false,q,true,false,0.0-2.0-0.14-0.133-3.133,0,1,1,68,false,stim,false,1,1793.25499990955,0,0,0,32111,WMM2,1036109,false,false,763,image-keyboard-response,14
true,3,2,3,2,true,d,false,true,0.0-2.0-0.14-0.134-3.134,0,1,1,68,false,stim,false,2,924.2250001989305,0,1,1,32111,WMM2,1038579,false,false,766,image-keyboard-response,15
false,3,-1,3,0,false,q,true,false,0.0-2.0-0.15-0.135-3.135,0,1,1,,false,stim,false,1,,0,0,0,32111,WMM2,1043131,false,false,769,image-keyboard-response,16
true,3,0,3,0,true,q,false,true,0.0-2.0-0.15-0.136-3.136,0,1,1,81,false,stim,false,1,858.7600002065301,0,0,0,32111,WMM2,1045539,false,false,772,image-keyboard-response,17
true,3,2,3,2,true,d,false,true,0.0-2.0-0.15-0.137-3.137,0,1,1,68,false,stim,false,2,894.4899998605251,0,1,1,32111,WMM2,1047979,false,false,775,image-keyboard-response,18
true,3,0,3,2,false,d,true,false,0.0-2.0-0.15-0.138-3.138,0,1,1,81,false,stim,false,2,2089.9149999022484,0,1,2,32111,WMM2,1051610,false,false,778,image-keyboard-response,19
true,3,2,3,2,true,d,false,false,0.0-2.0-0.15-0.139-3.139,0,1,1,68,false,stim,false,2,1533.7050002999604,0,1,1,32111,WMM2,1054689,false,true,781,image-keyboard-response,20
true,3,0,3,0,true,q,false,true,0.0-2.0-0.15-0.140-3.140,0,1,1,81,false,stim,false,1,1515.460000373423,0,0,0,32111,WMM2,1057759,false,false,784,image-keyboard-response,21
true,3,2,3,2,true,d,false,true,0.0-2.0-0.15-0.141-3.141,0,1,1,68,false,stim,false,2,562.9400000907481,0,1,2,32111,WMM2,1059870,false,false,787,image-keyboard-response,22
true,3,2,3,2,true,d,false,true,0.0-2.0-0.15-0.142-3.142,0,1,1,68,false,stim,false,2,483.2799998112023,0,1,2,32111,WMM2,1061900,false,false,790,image-keyboard-response,23
true,3,1,3,2,false,d,true,false,0.0-2.0-0.15-0.143-3.143,0,1,1,90,false,stim,false,2,1739.1599998809397,0,1,1,32111,WMM2,1065181,false,false,793,image-keyboard-response,24
true,3,0,3,0,true,q,false,true,0.0-2.0-0.16-0.144-3.144,0,1,1,81,false,stim,false,1,1448.280000127852,0,1,0,32111,WMM2,1068180,false,false,796,image-keyboard-response,25
true,3,2,3,2,true,d,false,true,0.0-2.0-0.16-0.145-3.145,0,1,1,68,false,stim,false,2,1299.6249999850988,0,1,1,32111,WMM2,1071030,false,false,799,image-keyboard-response,26
true,3,2,3,2,true,d,false,true,0.0-2.0-0.16-0.146-3.146,0,1,1,68,false,stim,false,2,558.0499996431172,0,1,1,32111,WMM2,1073130,false,false,802,image-keyboard-response,27
true,3,2,3,2,true,d,false,true,0.0-2.0-0.16-0.147-3.147,0,1,1,68,false,stim,false,2,416.54499992728233,0,0,2,32111,WMM2,1075100,false,false,805,image-keyboard-response,28
true,3,2,3,2,true,d,false,true,0.0-2.0-0.16-0.148-3.148,0,1,1,68,false,stim,false,2,403.9349998347461,0,0,2,32111,WMM2,1077040,false,false,808,image-keyboard-response,29
true,3,2,3,2,true,d,false,true,0.0-2.0-0.16-0.149-3.149,0,1,1,68,false,stim,false,2,1279.8049999400973,0,1,1,32111,WMM2,1079870,false,false,811,image-keyboard-response,30
true,3,0,3,0,true,q,false,true,0.0-2.0-0.16-0.150-3.150,0,1,1,81,false,stim,false,1,1185.534999705851,0,1,0,32111,WMM2,1082600,false,false,814,image-keyboard-response,31
true,3,2,3,2,true,d,false,true,0.0-2.0-0.16-0.151-3.151,0,1,1,68,false,stim,false,2,671.774999704212,0,0,2,32111,WMM2,1084810,false,false,817,image-keyboard-response,32
true,3,0,3,0,true,q,false,true,0.0-2.0-0.16-0.152-3.152,0,1,1,81,false,stim,false,1,831.3250001519918,0,1,0,32111,WMM2,1087191,false,false,820,image-keyboard-response,33
true,4,2,4,2,true,d,false,true,0.0-2.0-0.17-0.153-3.153,1,1,0,68,true,stim,false,2,749.6699998155236,0,1,1,32111,WMM2,1089481,false,false,823,image-keyboard-response,1
true,4,0,4,0,true,q,false,true,0.0-2.0-0.17-0.154-3.154,1,1,0,81,false,stim,false,0,1309.5700000412762,0,1,0,32111,WMM2,1092330,false,false,826,image-keyboard-response,2
true,4,0,4,0,true,q,false,true,0.0-2.0-0.17-0.155-3.155,1,1,0,81,false,stim,false,0,599.0500003099442,0,1,0,32111,WMM2,1094470,false,false,829,image-keyboard-response,3
true,4,2,4,2,true,d,false,true,0.0-2.0-0.17-0.156-3.156,1,1,0,68,false,stim,false,2,684.0800000354648,0,0,2,32111,WMM2,1096700,false,false,832,image-keyboard-response,4
true,4,2,4,2,true,d,false,true,0.0-2.0-0.17-0.157-3.157,1,1,0,68,false,stim,false,2,1252.5100000202656,0,1,1,32111,WMM2,1099501,false,false,835,image-keyboard-response,5
true,4,2,4,2,true,d,false,true,0.0-2.0-0.17-0.158-3.158,1,1,0,68,false,stim,false,2,1751.6350001096725,0,0,2,32111,WMM2,1102801,false,false,838,image-keyboard-response,6
true,4,2,4,2,true,d,false,true,0.0-2.0-0.17-0.159-3.159,1,1,0,68,false,stim,false,2,471.129999961704,0,0,2,32111,WMM2,1104820,false,false,841,image-keyboard-response,7
true,4,0,4,0,true,q,false,true,0.0-2.0-0.17-0.160-3.160,1,1,0,81,false,stim,false,0,2004.1700000874698,0,1,0,32111,WMM2,1108371,false,false,844,image-keyboard-response,8
true,4,2,4,2,true,d,false,true,0.0-2.0-0.17-0.161-3.161,1,1,0,68,false,stim,false,2,759.9349999800324,0,1,1,32111,WMM2,1110672,false,false,847,image-keyboard-response,9
true,4,2,4,2,true,d,false,true,0.0-2.0-0.18-0.162-3.162,1,1,0,68,false,stim,false,2,955.0100001506507,0,1,1,32111,WMM2,1113172,false,false,850,image-keyboard-response,10
true,4,2,4,2,true,d,false,true,0.0-2.0-0.18-0.163-3.163,1,1,0,68,false,stim,false,2,678.6349997855723,0,0,2,32111,WMM2,1115402,false,false,853,image-keyboard-response,11
true,4,0,4,0,true,q,false,true,0.0-2.0-0.18-0.164-3.164,1,1,0,81,false,stim,false,0,634.715000167489,0,1,0,32111,WMM2,1117581,false,false,856,image-keyboard-response,12
true,4,0,4,0,true,q,false,true,0.0-2.0-0.18-0.165-3.165,1,1,0,81,false,stim,false,0,664.5049997605383,0,1,0,32111,WMM2,1119792,false,false,859,image-keyboard-response,13
true,4,2,4,2,true,d,false,true,0.0-2.0-0.18-0.166-3.166,1,1,0,68,false,stim,false,2,528.2999998889863,0,0,2,32111,WMM2,1121861,false,false,862,image-keyboard-response,14
true,4,2,4,2,true,d,false,true,0.0-2.0-0.18-0.167-3.167,1,1,0,68,false,stim,false,2,799.7949998825788,0,1,1,32111,WMM2,1124201,false,false,865,image-keyboard-response,15
true,4,2,4,2,true,d,false,true,0.0-2.0-0.18-0.168-3.168,1,1,0,68,false,stim,false,2,920.9549999795854,0,0,2,32111,WMM2,1126661,false,false,868,image-keyboard-response,16
true,4,0,4,0,true,q,false,true,0.0-2.0-0.18-0.169-3.169,1,1,0,81,false,stim,false,0,1476.9250000827014,0,1,0,32111,WMM2,1129681,false,false,871,image-keyboard-response,17
true,4,2,4,2,true,d,false,true,0.0-2.0-0.18-0.170-3.170,1,1,0,68,false,stim,false,2,1953.814999666065,0,1,1,32111,WMM2,1133172,false,false,874,image-keyboard-response,18
true,4,2,4,2,true,d,false,false,0.0-2.0-0.19-0.171-3.171,1,1,0,68,false,stim,false,2,1053.330000024289,0,0,2,32111,WMM2,1135772,false,true,877,image-keyboard-response,19
true,4,2,4,2,true,d,false,true,0.0-2.0-0.19-0.172-3.172,1,1,0,68,false,stim,false,2,981.3549998216331,0,1,1,32111,WMM2,1138301,false,false,880,image-keyboard-response,20
true,4,1,4,2,false,d,true,true,0.0-2.0-0.19-0.173-3.173,1,1,0,90,false,stim,false,2,1178.4649998880923,0,0,2,32111,WMM2,1141031,false,true,883,image-keyboard-response,21
true,4,0,4,0,true,q,false,true,0.0-2.0-0.19-0.174-3.174,1,1,0,81,false,stim,false,0,950.5500001832843,0,1,0,32111,WMM2,1143521,false,false,886,image-keyboard-response,22
true,4,2,4,2,true,d,false,true,0.0-2.0-0.19-0.175-3.175,1,1,0,68,false,stim,false,2,2570.1500000432134,0,0,1,32111,WMM2,1147631,false,false,889,image-keyboard-response,23
true,4,0,4,0,true,q,false,true,0.0-2.0-0.19-0.176-3.176,1,1,0,81,false,stim,false,0,1312.5350000336766,0,1,0,32111,WMM2,1150483,false,false,892,image-keyboard-response,24
true,4,1,4,2,false,d,true,false,0.0-2.0-0.19-0.177-3.177,1,1,0,90,false,stim,false,2,1223.000000230968,0,0,2,32111,WMM2,1153262,false,false,895,image-keyboard-response,25
false,4,-1,4,0,false,q,true,false,0.0-2.0-0.19-0.178-3.178,1,1,0,,false,stim,false,0,,0,1,0,32111,WMM2,1157818,false,false,898,image-keyboard-response,26
true,4,2,4,2,true,d,false,true,0.0-2.0-0.19-0.179-3.179,1,1,0,68,false,stim,false,2,742.1399997547269,0,0,1,32111,WMM2,1160112,false,false,901,image-keyboard-response,27
true,4,2,4,2,true,d,false,true,0.0-2.0-0.20-0.180-3.180,1,1,0,68,false,stim,false,2,1125.2850000746548,0,0,1,32111,WMM2,1162782,false,false,904,image-keyboard-response,28
true,4,2,4,2,true,d,false,true,0.0-2.0-0.20-0.181-3.181,1,1,0,68,false,stim,false,2,716.3900001905859,0,0,1,32111,WMM2,1165052,false,false,907,image-keyboard-response,29
true,4,0,4,0,true,q,false,true,0.0-2.0-0.20-0.182-3.182,1,1,0,81,false,stim,false,0,1014.6899996325374,0,1,0,32111,WMM2,1167603,false,false,910,image-keyboard-response,30
true,5,0,1,0,true,q,false,true,0.0-2.0-0.20-0.183-3.183,1,0,0,81,true,stim,false,0,939.174999948591,0,1,0,32111,WMM2,1170083,false,false,913,image-keyboard-response,1
true,5,2,1,1,false,z,false,false,0.0-2.0-0.20-0.184-3.184,1,0,0,68,false,stim,true,2,431.1600001528859,0,0,1,32111,WMM2,1172062,false,false,916,image-keyboard-response,2
true,5,2,1,1,false,z,false,false,0.0-2.0-0.20-0.185-3.185,1,0,0,68,false,stim,true,2,447.5549999624491,0,0,2,32111,WMM2,1174052,false,false,919,image-keyboard-response,3
true,5,0,1,0,true,q,false,true,0.0-2.0-0.20-0.186-3.186,1,0,0,81,false,stim,false,0,741.6349998675287,0,1,0,32111,WMM2,1176334,false,false,922,image-keyboard-response,4
true,5,1,1,1,true,z,false,true,0.0-2.0-0.20-0.187-3.187,1,0,0,90,false,stim,false,2,750.5999999120831,0,0,2,32111,WMM2,1178623,false,false,925,image-keyboard-response,5
true,5,1,1,1,true,z,false,true,0.0-2.0-0.20-0.188-3.188,1,0,0,90,false,stim,false,2,644.2800001241267,0,0,2,32111,WMM2,1180803,false,false,928,image-keyboard-response,6
true,5,1,1,1,true,z,false,false,0.0-2.0-0.21-0.189-3.189,1,0,0,90,false,stim,false,2,541.3550003431737,0,0,2,32111,WMM2,1182893,false,true,931,image-keyboard-response,7
true,5,2,1,1,false,z,false,true,0.0-2.0-0.21-0.190-3.190,1,0,0,68,false,stim,true,2,1008.6900000460446,0,0,1,32111,WMM2,1185443,false,true,934,image-keyboard-response,8
true,5,2,1,1,false,z,false,false,0.0-2.0-0.21-0.191-3.191,1,0,0,68,false,stim,true,2,681.8400002084672,0,0,1,32111,WMM2,1187663,false,false,937,image-keyboard-response,9
true,5,1,1,1,true,z,false,true,0.0-2.0-0.21-0.192-3.192,1,0,0,90,false,stim,false,2,1321.0049998015165,0,0,2,32111,WMM2,1190533,false,false,940,image-keyboard-response,10
true,5,1,1,1,true,z,false,true,0.0-2.0-0.21-0.193-3.193,1,0,0,90,false,stim,false,2,754.6300003305078,0,0,2,32111,WMM2,1192824,false,false,943,image-keyboard-response,11
true,5,0,1,0,true,q,false,false,0.0-2.0-0.21-0.194-3.194,1,0,0,81,false,stim,false,0,1629.06499998644,0,1,0,32111,WMM2,1196004,false,true,946,image-keyboard-response,12
true,5,1,1,0,false,q,true,false,0.0-2.0-0.21-0.195-3.195,1,0,0,90,false,stim,false,0,997.159999795258,0,1,0,32111,WMM2,1198553,false,false,949,image-keyboard-response,13
true,5,2,1,1,false,z,false,false,0.0-2.0-0.21-0.196-3.196,1,0,0,68,false,stim,true,2,870.9700000472367,0,0,1,32111,WMM2,1200974,false,false,952,image-keyboard-response,14
true,5,0,1,0,true,q,false,true,0.0-2.0-0.21-0.197-3.197,1,0,0,81,false,stim,false,0,2636.7000001482666,0,1,0,32111,WMM2,1205164,false,false,955,image-keyboard-response,15
true,5,1,1,1,true,z,false,true,0.0-2.0-0.22-0.198-3.198,1,0,0,90,false,stim,false,2,460.5549997650087,0,0,2,32111,WMM2,1207174,false,false,958,image-keyboard-response,16
true,5,0,1,1,false,z,true,false,0.0-2.0-0.22-0.199-3.199,1,0,0,81,false,stim,false,2,2479.5649996958673,0,0,2,32111,WMM2,1211193,false,false,961,image-keyboard-response,17
true,5,1,1,1,true,z,false,true,0.0-2.0-0.22-0.200-3.200,1,0,0,90,false,stim,false,2,2448.8550000824034,0,0,1,32111,WMM2,1215194,false,false,964,image-keyboard-response,18
true,5,1,1,1,true,z,false,true,0.0-2.0-0.22-0.201-3.201,1,0,0,90,false,stim,false,2,746.820000000298,0,0,2,32111,WMM2,1217485,false,false,967,image-keyboard-response,19
true,5,1,1,1,true,z,false,true,0.0-2.0-0.22-0.202-3.202,1,0,0,90,false,stim,false,2,835.4500001296401,0,0,1,32111,WMM2,1219874,false,false,970,image-keyboard-response,20
true,5,0,1,0,true,q,false,true,0.0-2.0-0.22-0.203-3.203,1,0,0,81,false,stim,false,0,744.1300000064075,0,1,0,32111,WMM2,1222174,false,false,973,image-keyboard-response,21
true,5,0,1,0,true,q,false,true,0.0-2.0-0.22-0.204-3.204,1,0,0,81,false,stim,false,0,497.2899998538196,0,1,0,32111,WMM2,1224224,false,false,976,image-keyboard-response,22
true,5,0,1,0,true,q,false,true,0.0-2.0-0.22-0.205-3.205,1,0,0,81,false,stim,false,0,568.4850001707673,0,1,0,32111,WMM2,1226344,false,false,979,image-keyboard-response,23
true,5,1,1,1,true,z,false,true,0.0-2.0-0.22-0.206-3.206,1,0,0,90,false,stim,false,2,1155.799999833107,0,0,1,32111,WMM2,1229044,false,false,982,image-keyboard-response,24
true,5,1,1,1,true,z,false,true,0.0-2.0-0.23-0.207-3.207,1,0,0,90,false,stim,false,2,520.5500000156462,0,0,1,32111,WMM2,1231104,false,false,985,image-keyboard-response,25
true,5,0,1,0,true,q,false,true,0.0-2.0-0.23-0.208-3.208,1,0,0,81,false,stim,false,0,1304.2349996976554,0,1,0,32111,WMM2,1233953,false,false,988,image-keyboard-response,26
true,5,0,1,0,true,q,false,true,0.0-2.0-0.23-0.209-3.209,1,0,0,81,false,stim,false,0,428.76499984413385,0,1,0,32111,WMM2,1235934,false,false,991,image-keyboard-response,27
true,5,1,1,1,true,z,false,true,0.0-2.0-0.23-0.210-3.210,1,0,0,90,false,stim,false,2,719.1099999472499,0,0,2,32111,WMM2,1238195,false,false,994,image-keyboard-response,28
true,5,1,1,1,true,z,false,true,0.0-2.0-0.23-0.211-3.211,1,0,0,90,false,stim,false,2,515.9350000321865,0,0,2,32111,WMM2,1240264,false,false,997,image-keyboard-response,29
true,5,1,1,1,true,z,false,true,0.0-2.0-0.23-0.212-3.212,1,0,0,90,false,stim,false,2,478.24000008404255,0,1,1,32111,WMM2,1242284,false,false,1000,image-keyboard-response,30
true,5,1,1,1,true,z,false,false,0.0-2.0-0.23-0.213-3.213,1,0,0,90,false,stim,false,2,481.475000269711,0,1,1,32111,WMM2,1244305,false,true,1003,image-keyboard-response,31
true,5,0,1,0,true,q,false,true,0.0-2.0-0.23-0.214-3.214,1,0,0,81,false,stim,false,0,493.77999966964126,0,1,0,32111,WMM2,1246344,false,false,1006,image-keyboard-response,32
true,5,1,1,1,true,z,false,true,0.0-2.0-0.23-0.215-3.215,1,0,0,90,false,stim,false,2,1640.9799996763468,0,0,2,32111,WMM2,1249595,false,false,1009,image-keyboard-response,33
true,5,0,1,0,true,q,false,true,0.0-2.0-0.24-0.216-3.216,1,0,0,81,false,stim,false,0,1394.7550002485514,0,1,0,32111,WMM2,1252534,false,false,1012,image-keyboard-response,34
true,5,1,1,1,true,z,false,true,0.0-2.0-0.24-0.217-3.217,1,0,0,90,false,stim,false,2,1190.8549997024238,0,1,1,32111,WMM2,1255275,false,false,1015,image-keyboard-response,35
true,5,2,1,1,false,z,false,false,0.0-2.0-0.24-0.218-3.218,1,0,0,68,false,stim,true,2,1560.5399999767542,0,0,2,32111,WMM2,1258384,false,false,1018,image-keyboard-response,36
true,5,0,1,0,true,q,false,false,0.0-2.0-0.24-0.219-3.219,1,0,0,81,false,stim,false,0,902.8250002302229,0,1,0,32111,WMM2,1260835,false,true,1021,image-keyboard-response,37
true,5,0,1,0,true,q,false,true,0.0-2.0-0.24-0.220-3.220,1,0,0,81,false,stim,false,0,445.81499975174665,0,1,0,32111,WMM2,1262826,false,false,1024,image-keyboard-response,38
true,6,1,3,1,true,z,false,true,0.0-2.0-0.24-0.221-3.221,1,1,0,90,true,stim,false,1,806.8850003182888,0,1,1,32111,WMM2,1265175,false,false,1027,image-keyboard-response,1
true,6,1,3,1,true,z,false,true,0.0-2.0-0.24-0.222-3.222,1,1,0,90,false,stim,false,1,543.9999997615814,0,1,1,32111,WMM2,1267265,false,false,1030,image-keyboard-response,2
true,6,1,3,2,false,d,false,true,0.0-2.0-0.24-0.223-3.223,1,1,0,90,false,stim,true,1,880.2350000478327,0,0,2,32111,WMM2,1269684,false,true,1033,image-keyboard-response,3
true,6,1,3,2,false,d,false,false,0.0-2.0-0.24-0.224-3.224,1,1,0,90,false,stim,true,1,504.9749999307096,0,0,2,32111,WMM2,1271734,false,false,1036,image-keyboard-response,4
true,6,0,3,0,true,q,false,true,0.0-2.0-0.25-0.225-3.225,1,1,0,81,false,stim,false,0,945.7449996843934,0,1,0,32111,WMM2,1274215,false,false,1039,image-keyboard-response,5
true,6,0,3,0,true,q,false,true,0.0-2.0-0.25-0.226-3.226,1,1,0,81,false,stim,false,0,893.2749996893108,0,1,0,32111,WMM2,1276655,false,false,1042,image-keyboard-response,6
true,6,1,3,1,true,z,false,false,0.0-2.0-0.25-0.227-3.227,1,1,0,90,false,stim,false,1,1686.8250002153218,0,1,1,32111,WMM2,1279894,false,true,1045,image-keyboard-response,7
true,6,1,3,1,true,z,false,true,0.0-2.0-0.25-0.228-3.228,1,1,0,90,false,stim,false,1,1303.2599999569356,0,1,1,32111,WMM2,1282736,false,false,1048,image-keyboard-response,8
true,6,1,3,1,true,z,false,true,0.0-2.0-0.25-0.229-3.229,1,1,0,90,false,stim,false,1,431.19999999180436,0,1,1,32111,WMM2,1284735,false,false,1051,image-keyboard-response,9
true,6,0,3,0,true,q,false,true,0.0-2.0-0.25-0.230-3.230,1,1,0,81,false,stim,false,0,2201.2450001202524,0,1,0,32111,WMM2,1288486,false,false,1054,image-keyboard-response,10
true,6,1,3,2,false,d,false,true,0.0-2.0-0.25-0.231-3.231,1,1,0,90,false,stim,true,1,1660.54999968037,0,0,2,32111,WMM2,1291695,false,true,1057,image-keyboard-response,11
true,6,1,3,2,false,d,false,false,0.0-2.0-0.25-0.232-3.232,1,1,0,90,false,stim,true,1,567.6049999892712,0,0,2,32111,WMM2,1293805,false,false,1060,image-keyboard-response,12
true,6,1,3,2,false,d,false,false,0.0-2.0-0.25-0.233-3.233,1,1,0,90,false,stim,true,1,1219.8599996045232,0,0,2,32111,WMM2,1296565,false,false,1063,image-keyboard-response,13
true,6,2,3,2,true,d,false,true,0.0-2.0-0.26-0.234-3.234,1,1,0,68,false,stim,false,1,873.479999601841,0,0,2,32111,WMM2,1298985,false,false,1066,image-keyboard-response,14
true,6,0,3,0,true,q,false,false,0.0-2.0-0.26-0.235-3.235,1,1,0,81,false,stim,false,0,855.829999782145,0,1,0,32111,WMM2,1301395,false,true,1069,image-keyboard-response,15
true,6,2,3,2,true,d,false,false,0.0-2.0-0.26-0.236-3.236,1,1,0,68,false,stim,false,1,696.6150002554059,0,0,2,32111,WMM2,1303635,false,true,1072,image-keyboard-response,16
true,6,1,3,1,true,z,false,true,0.0-2.0-0.26-0.237-3.237,1,1,0,90,false,stim,false,1,948.8700004294515,0,1,1,32111,WMM2,1306125,false,false,1075,image-keyboard-response,17
true,6,0,3,0,true,q,false,true,0.0-2.0-0.26-0.238-3.238,1,1,0,81,false,stim,false,0,1697.8549999184906,0,1,0,32111,WMM2,1309365,false,false,1078,image-keyboard-response,18
true,6,2,3,2,true,d,false,true,0.0-2.0-0.26-0.239-3.239,1,1,0,68,false,stim,false,1,1329.3500002473593,0,0,2,32111,WMM2,1312245,false,false,1081,image-keyboard-response,19
true,6,1,3,1,true,z,false,false,0.0-2.0-0.26-0.240-3.240,1,1,0,90,false,stim,false,1,2018.5250001959503,0,1,1,32111,WMM2,1315815,false,true,1084,image-keyboard-response,20
true,6,0,3,1,false,z,true,false,0.0-2.0-0.26-0.241-3.241,1,1,0,81,false,stim,false,1,867.2400000505149,0,1,1,32111,WMM2,1318226,false,false,1087,image-keyboard-response,21
true,6,1,3,0,false,q,true,false,0.0-2.0-0.26-0.242-3.242,1,1,0,90,false,stim,false,0,951.8200000748038,0,0,0,32111,WMM2,1320725,false,false,1090,image-keyboard-response,22
true,6,0,3,0,true,q,false,true,0.0-2.0-0.27-0.243-3.243,1,1,0,81,false,stim,false,0,754.965000320226,0,0,0,32111,WMM2,1323035,false,false,1093,image-keyboard-response,23
true,6,0,3,0,true,q,false,true,0.0-2.0-0.27-0.244-3.244,1,1,0,81,false,stim,false,0,555.9200001880527,0,0,0,32111,WMM2,1325135,false,false,1096,image-keyboard-response,24
true,6,1,3,1,true,z,false,true,0.0-2.0-0.27-0.245-3.245,1,1,0,90,false,stim,false,1,1728.9350000210106,0,1,1,32111,WMM2,1328417,false,false,1099,image-keyboard-response,25
true,6,0,3,0,true,q,false,true,0.0-2.0-0.27-0.246-3.246,1,1,0,81,false,stim,false,0,910.0150000303984,0,0,0,32111,WMM2,1330866,false,false,1102,image-keyboard-response,26
true,6,1,3,1,true,z,false,true,0.0-2.0-0.27-0.247-3.247,1,1,0,90,false,stim,false,1,2686.7299997247756,0,1,1,32111,WMM2,1335106,false,false,1105,image-keyboard-response,27
true,6,2,3,2,true,d,false,true,0.0-2.0-0.27-0.248-3.248,1,1,0,68,false,stim,false,1,1012.8150000236928,0,1,2,32111,WMM2,1337666,false,false,1108,image-keyboard-response,28
true,6,1,3,1,true,z,false,true,0.0-2.0-0.27-0.249-3.249,1,1,0,90,false,stim,false,1,746.904999949038,0,1,1,32111,WMM2,1339966,false,false,1111,image-keyboard-response,29
true,6,2,3,2,true,d,false,true,0.0-2.0-0.27-0.250-3.250,1,1,0,68,false,stim,false,1,703.474999871105,0,1,2,32111,WMM2,1342216,false,false,1114,image-keyboard-response,30
true,7,2,2,2,true,d,false,false,0.0-2.0-0.27-0.251-3.251,0,1,1,68,true,stim,false,2,485.7149999588728,0,1,2,32111,WMM2,1344246,false,true,1117,image-keyboard-response,1
true,7,2,2,2,true,d,false,true,0.0-2.0-0.28-0.252-3.252,0,1,1,68,false,stim,false,2,1111.219999846071,0,1,2,32111,WMM2,1346906,false,false,1120,image-keyboard-response,2
true,7,0,2,2,false,d,false,false,0.0-2.0-0.28-0.253-3.253,0,1,1,81,false,stim,true,0,2960.7549998909235,0,0,0,32111,WMM2,1351416,false,false,1123,image-keyboard-response,3
true,7,1,2,1,true,z,false,true,0.0-2.0-0.28-0.254-3.254,0,1,1,90,false,stim,false,1,1399.195000063628,0,1,1,32111,WMM2,1354356,false,false,1126,image-keyboard-response,4
true,7,2,2,2,true,d,false,true,0.0-2.0-0.28-0.255-3.255,0,1,1,68,false,stim,false,2,738.9199999161065,0,1,2,32111,WMM2,1356646,false,false,1129,image-keyboard-response,5
true,7,1,2,2,false,d,true,false,0.0-2.0-0.28-0.256-3.256,0,1,1,90,false,stim,false,2,781.4600002020597,0,1,2,32111,WMM2,1358976,false,false,1132,image-keyboard-response,6
true,7,1,2,1,true,z,false,true,0.0-2.0-0.28-0.257-3.257,0,1,1,90,false,stim,false,1,1467.450000345707,0,1,1,32111,WMM2,1361997,false,false,1135,image-keyboard-response,7
true,7,0,2,2,false,d,false,false,0.0-2.0-0.28-0.258-3.258,0,1,1,81,false,stim,true,0,1355.9099999256432,0,0,0,32111,WMM2,1364906,false,false,1138,image-keyboard-response,8
true,7,1,2,1,true,z,false,true,0.0-2.0-0.28-0.259-3.259,0,1,1,90,false,stim,false,1,2582.1449998766184,0,1,1,32111,WMM2,1369036,false,false,1141,image-keyboard-response,9
true,7,0,2,2,false,d,false,false,0.0-2.0-0.28-0.260-3.260,0,1,1,81,false,stim,true,0,1310.1400001905859,0,0,0,32111,WMM2,1371906,false,false,1144,image-keyboard-response,10
true,7,0,2,2,false,d,false,false,0.0-2.0-0.29-0.261-3.261,0,1,1,81,false,stim,true,0,959.5650001429021,0,0,0,32111,WMM2,1374417,false,false,1147,image-keyboard-response,11
true,7,2,2,2,true,d,false,true,0.0-2.0-0.29-0.262-3.262,0,1,1,68,false,stim,false,0,663.474999833852,0,0,0,32111,WMM2,1376627,false,false,1150,image-keyboard-response,12
true,7,2,2,2,true,d,false,true,0.0-2.0-0.29-0.263-3.263,0,1,1,68,false,stim,false,2,818.3299996890128,0,1,2,32111,WMM2,1378987,false,false,1153,image-keyboard-response,13
true,7,2,2,2,true,d,false,true,0.0-2.0-0.29-0.264-3.264,0,1,1,68,false,stim,false,0,405.26000037789345,0,0,0,32111,WMM2,1380937,false,false,1156,image-keyboard-response,14
true,7,1,2,1,true,z,false,true,0.0-2.0-0.29-0.265-3.265,0,1,1,90,false,stim,false,1,1183.9000000618398,0,1,1,32111,WMM2,1383667,false,false,1159,image-keyboard-response,15
true,7,2,2,2,true,d,false,true,0.0-2.0-0.29-0.266-3.266,0,1,1,68,false,stim,false,2,332.6350003480911,0,1,2,32111,WMM2,1385537,false,false,1162,image-keyboard-response,16
true,7,1,2,1,true,z,false,true,0.0-2.0-0.29-0.267-3.267,0,1,1,90,false,stim,false,1,2218.9449998550117,0,1,1,32111,WMM2,1389307,false,false,1165,image-keyboard-response,17
true,7,2,2,2,true,d,false,false,0.0-2.0-0.29-0.268-3.268,0,1,1,68,false,stim,false,2,412.60999999940395,0,1,2,32111,WMM2,1391287,false,true,1168,image-keyboard-response,18
true,7,1,2,1,true,z,false,true,0.0-2.0-0.29-0.269-3.269,0,1,1,90,false,stim,false,1,1238.0199995823205,0,1,1,32111,WMM2,1394077,false,false,1171,image-keyboard-response,19
true,7,2,2,1,false,z,true,false,0.0-2.0-0.30-0.270-3.270,0,1,1,68,false,stim,false,1,358.4449999034405,0,1,1,32111,WMM2,1395978,false,false,1174,image-keyboard-response,20
true,7,2,2,2,true,d,false,true,0.0-2.0-0.30-0.271-3.271,0,1,1,68,false,stim,false,2,709.559999871999,0,1,2,32111,WMM2,1398247,false,false,1177,image-keyboard-response,21
true,7,2,2,2,true,d,false,false,0.0-2.0-0.30-0.272-3.272,0,1,1,68,false,stim,false,0,1477.9050000943244,0,0,0,32111,WMM2,1401267,false,true,1180,image-keyboard-response,22
true,7,2,2,2,true,d,false,true,0.0-2.0-0.30-0.273-3.273,0,1,1,68,false,stim,false,2,649.3350001983345,0,1,2,32111,WMM2,1403467,false,false,1183,image-keyboard-response,23
true,7,2,2,2,true,d,false,true,0.0-2.0-0.30-0.274-3.274,0,1,1,68,false,stim,false,2,521.269999910146,0,1,2,32111,WMM2,1405548,false,false,1186,image-keyboard-response,24
false,7,-1,2,2,false,d,true,false,0.0-2.0-0.30-0.275-3.275,0,1,1,,false,stim,false,0,,0,0,0,32111,WMM2,1410114,false,false,1189,image-keyboard-response,25
true,7,1,2,1,true,z,false,true,0.0-2.0-0.30-0.276-3.276,0,1,1,90,false,stim,false,1,1156.2350001186132,0,1,1,32111,WMM2,1412817,false,false,1192,image-keyboard-response,26
true,7,1,2,1,true,z,false,true,0.0-2.0-0.30-0.277-3.277,0,1,1,90,false,stim,false,1,617.7150001749396,0,1,1,32111,WMM2,1414987,false,false,1195,image-keyboard-response,27
true,7,2,2,2,true,d,false,true,0.0-2.0-0.30-0.278-3.278,0,1,1,68,false,stim,false,0,1411.290000192821,0,0,0,32111,WMM2,1417947,false,false,1198,image-keyboard-response,28
true,7,1,2,1,true,z,false,true,0.0-2.0-0.31-0.279-3.279,0,1,1,90,false,stim,false,1,1461.5400000475347,0,1,1,32111,WMM2,1420969,false,false,1201,image-keyboard-response,29
true,7,2,2,2,true,d,false,true,0.0-2.0-0.31-0.280-3.280,0,1,1,68,false,stim,false,0,895.8649998530746,0,0,0,32111,WMM2,1423418,false,false,1204,image-keyboard-response,30
true,7,2,2,2,true,d,false,false,0.0-2.0-0.31-0.281-3.281,0,1,1,68,false,stim,false,2,683.1200001761317,0,0,2,32111,WMM2,1425648,false,true,1207,image-keyboard-response,31
true,7,2,2,2,true,d,false,true,0.0-2.0-0.31-0.282-3.282,0,1,1,68,false,stim,false,0,736.5949996747077,0,1,0,32111,WMM2,1427928,false,false,1210,image-keyboard-response,32
true,7,2,2,2,true,d,false,true,0.0-2.0-0.31-0.283-3.283,0,1,1,68,false,stim,false,0,619.7549998760223,0,1,0,32111,WMM2,1430088,false,false,1213,image-keyboard-response,33
true,7,2,2,2,true,d,false,true,0.0-2.0-0.31-0.284-3.284,0,1,1,68,false,stim,false,2,427.55999974906445,0,0,2,32111,WMM2,1432059,false,false,1216,image-keyboard-response,34
true,7,1,2,1,true,z,false,true,0.0-2.0-0.31-0.285-3.285,0,1,1,90,false,stim,false,1,1220.0249996967614,0,0,1,32111,WMM2,1434818,false,false,1219,image-keyboard-response,35
true,7,2,2,2,true,d,false,true,0.0-2.0-0.31-0.286-3.286,0,1,1,68,false,stim,false,2,816.7099999263883,0,0,2,32111,WMM2,1437189,false,false,1222,image-keyboard-response,36
true,7,1,2,1,true,z,false,true,0.0-2.0-0.31-0.287-3.287,0,1,1,90,false,stim,false,1,1599.5000000111759,0,0,1,32111,WMM2,1440338,false,false,1225,image-keyboard-response,37
true,7,1,2,1,true,z,false,true,0.0-2.0-0.32-0.288-3.288,0,1,1,90,false,stim,false,1,664.9150000885129,0,0,1,32111,WMM2,1442559,false,false,1228,image-keyboard-response,38
true,7,2,2,2,true,d,false,true,0.0-2.0-0.32-0.289-3.289,0,1,1,68,false,stim,false,0,1634.7000002861023,0,1,0,32111,WMM2,1445738,false,false,1231,image-keyboard-response,39
true,7,2,2,2,true,d,false,true,0.0-2.0-0.32-0.290-3.290,0,1,1,68,false,stim,false,0,444.17000003159046,0,1,0,32111,WMM2,1447728,false,false,1234,image-keyboard-response,40
true,8,1,1,2,false,d,false,true,0.0-2.0-0.32-0.291-3.291,1,0,0,90,true,stim,true,1,1815.239999908954,0,0,1,32111,WMM2,1451089,false,true,1237,image-keyboard-response,1
true,8,2,1,2,true,d,false,true,0.0-2.0-0.32-0.292-3.292,1,0,0,68,false,stim,false,2,745.9000004455447,0,1,0,32111,WMM2,1453389,false,false,1240,image-keyboard-response,2
true,8,2,1,0,false,q,false,false,0.0-2.0-0.32-0.293-3.293,1,0,0,68,false,stim,true,2,594.2799998447299,0,0,2,32111,WMM2,1455538,false,false,1243,image-keyboard-response,3
true,8,1,1,2,false,d,false,false,0.0-2.0-0.32-0.294-3.294,1,0,0,90,false,stim,true,1,1203.7849999032915,0,0,1,32111,WMM2,1458289,false,false,1246,image-keyboard-response,4
true,8,2,1,0,false,q,false,false,0.0-2.0-0.32-0.295-3.295,1,0,0,68,false,stim,true,2,741.9350002892315,0,0,2,32111,WMM2,1460578,false,false,1249,image-keyboard-response,5
true,8,2,1,0,false,q,false,true,0.0-2.0-0.32-0.296-3.296,1,0,0,68,false,stim,true,2,1164.799999911338,0,0,2,32111,WMM2,1463288,false,true,1252,image-keyboard-response,6
true,8,2,1,2,true,d,false,false,0.0-2.0-0.33-0.297-3.297,1,0,0,68,false,stim,false,2,2120.605000294745,0,1,0,32111,WMM2,1466950,false,true,1255,image-keyboard-response,7
true,8,0,1,2,false,d,true,false,0.0-2.0-0.33-0.298-3.298,1,0,0,81,false,stim,false,2,762.980000115931,0,1,0,32111,WMM2,1469259,false,false,1258,image-keyboard-response,8
true,8,2,1,0,false,q,false,false,0.0-2.0-0.33-0.299-3.299,1,0,0,68,false,stim,true,2,776.9899996928871,0,0,2,32111,WMM2,1471589,false,false,1261,image-keyboard-response,9
true,8,1,1,2,false,d,true,false,0.0-2.0-0.33-0.300-3.300,1,0,0,90,false,stim,false,2,1646.269999910146,0,1,0,32111,WMM2,1474789,false,false,1264,image-keyboard-response,10
true,8,1,1,2,false,d,false,false,0.0-2.0-0.33-0.301-3.301,1,0,0,90,false,stim,true,1,2574.8000000603497,0,0,1,32111,WMM2,1478910,false,false,1267,image-keyboard-response,11
true,8,2,1,0,false,q,false,false,0.0-2.0-0.33-0.302-3.302,1,0,0,68,false,stim,true,2,646.6649998910725,0,0,2,32111,WMM2,1481100,false,false,1270,image-keyboard-response,12
true,8,1,1,0,false,q,true,false,0.0-2.0-0.33-0.303-3.303,1,0,0,90,false,stim,false,2,487.04499984160066,0,0,2,32111,WMM2,1483149,false,false,1273,image-keyboard-response,13
true,8,2,1,2,true,d,false,true,0.0-2.0-0.33-0.304-3.304,1,0,0,68,false,stim,false,1,2050.0199999660254,0,0,1,32111,WMM2,1486759,false,false,1276,image-keyboard-response,14
true,8,2,1,2,true,d,false,true,0.0-2.0-0.33-0.305-3.305,1,0,0,68,false,stim,false,1,838.980000000447,0,0,1,32111,WMM2,1489160,false,false,1279,image-keyboard-response,15
true,8,1,1,0,false,q,true,false,0.0-2.0-0.34-0.306-3.306,1,0,0,90,false,stim,false,2,1851.5299996361136,0,0,2,32111,WMM2,1492569,false,false,1282,image-keyboard-response,16
true,8,2,1,2,true,d,false,true,0.0-2.0-0.34-0.307-3.307,1,0,0,68,false,stim,false,1,819.2900000140071,0,0,1,32111,WMM2,1494939,false,false,1285,image-keyboard-response,17
true,8,2,1,2,true,d,false,true,0.0-2.0-0.34-0.308-3.308,1,0,0,68,false,stim,false,1,848.4900002367795,0,0,1,32111,WMM2,1497339,false,false,1288,image-keyboard-response,18
true,8,0,1,2,false,d,true,false,0.0-2.0-0.34-0.309-3.309,1,0,0,81,false,stim,false,2,1072.639999911189,0,1,0,32111,WMM2,1499958,false,false,1291,image-keyboard-response,19
true,8,2,1,2,true,d,false,true,0.0-2.0-0.34-0.310-3.310,1,0,0,68,false,stim,false,2,634.9050002172589,0,1,0,32111,WMM2,1502139,false,false,1294,image-keyboard-response,20
true,8,2,1,2,true,d,false,true,0.0-2.0-0.34-0.311-3.311,1,0,0,68,false,stim,false,2,544.9449997395277,0,1,0,32111,WMM2,1504269,false,false,1297,image-keyboard-response,21
true,8,2,1,2,true,d,false,true,0.0-2.0-0.34-0.312-3.312,1,0,0,68,false,stim,false,1,1093.8050001859665,0,0,1,32111,WMM2,1506920,false,false,1300,image-keyboard-response,22
true,8,2,1,0,false,q,false,false,0.0-2.0-0.34-0.313-3.313,1,0,0,68,false,stim,true,2,757.0350002497435,0,0,2,32111,WMM2,1509241,false,false,1303,image-keyboard-response,23
true,8,2,1,0,false,q,false,false,0.0-2.0-0.34-0.314-3.314,1,0,0,68,false,stim,true,2,472.889999859035,0,0,2,32111,WMM2,1511261,false,false,1306,image-keyboard-response,24
true,8,2,1,2,true,d,false,true,0.0-2.0-0.35-0.315-3.315,1,0,0,68,false,stim,false,1,646.6800002381206,0,0,1,32111,WMM2,1513460,false,false,1309,image-keyboard-response,25
true,8,2,1,2,true,d,false,true,0.0-2.0-0.35-0.316-3.316,1,0,0,68,false,stim,false,2,1097.8299998678267,0,1,0,32111,WMM2,1516100,false,false,1312,image-keyboard-response,26
true,8,1,1,0,false,q,true,false,0.0-2.0-0.35-0.317-3.317,1,0,0,90,false,stim,false,2,462.0150001719594,0,0,2,32111,WMM2,1518110,false,false,1315,image-keyboard-response,27
true,8,2,1,2,true,d,false,true,0.0-2.0-0.35-0.318-3.318,1,0,0,68,false,stim,false,1,604.079999960959,0,0,1,32111,WMM2,1520260,false,false,1318,image-keyboard-response,28
true,8,0,1,0,true,q,false,true,0.0-2.0-0.35-0.319-3.319,1,0,0,81,false,stim,false,2,818.0450000800192,0,0,2,32111,WMM2,1522631,false,false,1321,image-keyboard-response,29
true,8,2,1,2,true,d,false,true,0.0-2.0-0.35-0.320-3.320,1,0,0,68,false,stim,false,1,884.8850000649691,0,0,1,32111,WMM2,1525060,false,false,1324,image-keyboard-response,30
true,8,2,1,2,true,d,false,true,0.0-2.0-0.35-0.321-3.321,1,0,0,68,false,stim,false,2,727.489999961108,0,1,0,32111,WMM2,1527340,false,false,1327,image-keyboard-response,31
true,8,2,1,2,true,d,false,false,0.0-2.0-0.35-0.322-3.322,1,0,0,68,false,stim,false,2,545.2050003223121,0,1,0,32111,WMM2,1529440,false,true,1330,image-keyboard-response,32
true,8,0,1,0,true,q,false,true,0.0-2.0-0.35-0.323-3.323,1,0,0,81,false,stim,false,2,1324.4300000369549,0,0,2,32111,WMM2,1532310,false,false,1333,image-keyboard-response,33
true,8,0,1,0,true,q,false,true,0.0-2.0-0.36-0.324-3.324,1,0,0,81,false,stim,false,2,452.2899999283254,0,1,2,32111,WMM2,1534320,false,false,1336,image-keyboard-response,34
true,8,2,1,2,true,d,false,false,0.0-2.0-0.36-0.325-3.325,1,0,0,68,false,stim,false,1,1381.3999998383224,0,1,1,32111,WMM2,1537250,false,true,1339,image-keyboard-response,35
true,8,2,1,2,true,d,false,true,0.0-2.0-0.36-0.326-3.326,1,0,0,68,false,stim,false,2,665.6199996359646,0,0,0,32111,WMM2,1539460,false,false,1342,image-keyboard-response,36
true,8,0,1,0,true,q,false,true,0.0-2.0-0.36-0.327-3.327,1,0,0,81,false,stim,false,2,987.9250000230968,0,1,2,32111,WMM2,1541990,false,false,1345,image-keyboard-response,37
true,8,1,1,2,false,d,true,false,0.0-2.0-0.36-0.328-3.328,1,0,0,90,false,stim,false,2,2023.9499998278916,0,0,0,32111,WMM2,1545571,false,false,1348,image-keyboard-response,38
true,8,0,1,0,true,q,false,false,0.0-2.0-0.36-0.329-3.329,1,0,0,81,false,stim,false,2,976.2699999846518,0,1,2,32111,WMM2,1548091,false,true,1351,image-keyboard-response,39
true,8,2,1,2,true,d,false,true,0.0-2.0-0.36-0.330-3.330,1,0,0,68,false,stim,false,1,2774.7499998658895,0,1,1,32111,WMM2,1552410,false,false,1354,image-keyboard-response,40
true,8,2,1,2,true,d,false,false,0.0-2.0-0.36-0.331-3.331,1,0,0,68,false,stim,false,1,1579.270000103861,0,1,1,32111,WMM2,1555551,false,true,1357,image-keyboard-response,41
true,8,0,1,2,false,d,true,false,0.0-2.0-0.36-0.332-3.332,1,0,0,81,false,stim,false,2,2974.0200000815094,0,0,0,32111,WMM2,1560082,false,false,1360,image-keyboard-response,42
true,8,1,1,2,false,d,true,false,0.0-2.0-0.37-0.333-3.333,1,0,0,90,false,stim,false,2,1512.980000115931,0,0,0,32111,WMM2,1563141,false,false,1363,image-keyboard-response,43
true,9,2,4,2,true,d,false,true,0.0-2.0-0.37-0.334-3.334,0,1,1,68,true,stim,false,2,397.98999996855855,0,0,0,32111,WMM2,1565101,false,false,1366,image-keyboard-response,1
true,9,0,4,2,false,d,true,false,0.0-2.0-0.37-0.335-3.335,0,1,1,81,false,stim,false,2,2190.1949997991323,0,1,1,32111,WMM2,1568841,false,false,1369,image-keyboard-response,2
true,9,2,4,2,true,d,false,true,0.0-2.0-0.37-0.336-3.336,0,1,1,68,false,stim,false,2,1503.7699998356402,0,0,0,32111,WMM2,1571900,false,false,1372,image-keyboard-response,3
true,9,2,4,2,true,d,false,true,0.0-2.0-0.37-0.337-3.337,0,1,1,68,false,stim,false,2,2087.0649996213615,0,1,1,32111,WMM2,1575542,false,false,1375,image-keyboard-response,4
true,9,0,4,0,true,q,false,true,0.0-2.0-0.37-0.338-3.338,0,1,1,81,false,stim,false,0,1407.1749998256564,0,1,2,32111,WMM2,1578572,false,false,1378,image-keyboard-response,5
true,9,0,4,0,true,q,false,true,0.0-2.0-0.37-0.339-3.339,0,1,1,81,false,stim,false,0,1131.519999820739,0,1,2,32111,WMM2,1581251,false,false,1381,image-keyboard-response,6
true,9,0,4,0,true,q,false,true,0.0-2.0-0.37-0.340-3.340,0,1,1,81,false,stim,false,0,528.0400002375245,0,1,2,32111,WMM2,1583322,false,false,1384,image-keyboard-response,7
true,9,2,4,2,true,d,false,true,0.0-2.0-0.37-0.341-3.341,0,1,1,68,false,stim,false,2,822.1700000576675,0,1,1,32111,WMM2,1585701,false,false,1387,image-keyboard-response,8
true,9,2,4,2,true,d,false,true,0.0-2.0-0.38-0.342-3.342,0,1,1,68,false,stim,false,2,403.5099996253848,0,1,1,32111,WMM2,1587651,false,false,1390,image-keyboard-response,9
true,9,0,4,0,true,q,false,true,0.0-2.0-0.38-0.343-3.343,0,1,1,81,false,stim,false,0,1945.259999949485,0,1,2,32111,WMM2,1591141,false,false,1393,image-keyboard-response,10
true,9,2,4,2,true,d,false,true,0.0-2.0-0.38-0.344-3.344,0,1,1,68,false,stim,false,2,433.2449999637902,0,1,1,32111,WMM2,1593121,false,false,1396,image-keyboard-response,11
true,9,2,4,2,true,d,false,false,0.0-2.0-0.38-0.345-3.345,0,1,1,68,false,stim,false,2,1638.245000038296,0,0,0,32111,WMM2,1596302,false,true,1399,image-keyboard-response,12
true,9,0,4,0,true,q,false,true,0.0-2.0-0.38-0.346-3.346,0,1,1,81,false,stim,false,0,1016.499999910593,0,1,2,32111,WMM2,1598863,false,false,1402,image-keyboard-response,13
true,9,2,4,2,true,d,false,true,0.0-2.0-0.38-0.347-3.347,0,1,1,68,false,stim,false,2,2457.4200003407896,0,1,1,32111,WMM2,1602862,false,false,1405,image-keyboard-response,14
true,9,1,4,2,false,d,true,false,0.0-2.0-0.38-0.348-3.348,0,1,1,90,false,stim,false,2,521.3250000961125,0,0,0,32111,WMM2,1604932,false,false,1408,image-keyboard-response,15
true,9,0,4,2,false,d,true,false,0.0-2.0-0.38-0.349-3.349,0,1,1,81,false,stim,false,2,722.8700001724064,0,0,0,32111,WMM2,1607213,false,false,1411,image-keyboard-response,16
true,9,0,4,0,true,q,false,true,0.0-2.0-0.38-0.350-3.350,0,1,1,81,false,stim,false,0,1052.6399998925626,0,1,2,32111,WMM2,1609812,false,false,1414,image-keyboard-response,17
true,9,2,4,2,true,d,false,true,0.0-2.0-0.39-0.351-3.351,0,1,1,68,false,stim,false,2,813.0600000731647,0,0,0,32111,WMM2,1612172,false,false,1417,image-keyboard-response,18
true,9,2,4,2,true,d,false,true,0.0-2.0-0.39-0.352-3.352,0,1,1,68,false,stim,false,2,2452.4349998682737,0,1,1,32111,WMM2,1616172,false,false,1420,image-keyboard-response,19
true,9,2,4,2,true,d,false,true,0.0-2.0-0.39-0.353-3.353,0,1,1,68,false,stim,false,2,618.2099999859929,0,1,1,32111,WMM2,1618333,false,false,1423,image-keyboard-response,20
true,9,2,4,2,true,d,false,true,0.0-2.0-0.39-0.354-3.354,0,1,1,68,false,stim,false,2,1258.8100000284612,0,0,0,32111,WMM2,1621163,false,false,1426,image-keyboard-response,21
true,9,2,4,2,true,d,false,true,0.0-2.0-0.39-0.355-3.355,0,1,1,68,false,stim,false,2,585.0649997591972,0,1,0,32111,WMM2,1623302,false,false,1429,image-keyboard-response,22
true,9,2,4,2,true,d,false,true,0.0-2.0-0.39-0.356-3.356,0,1,1,68,false,stim,false,2,1603.390000294894,0,1,1,32111,WMM2,1626452,false,false,1432,image-keyboard-response,23
true,9,0,4,0,true,q,false,true,0.0-2.0-0.39-0.357-3.357,0,1,1,81,false,stim,false,0,652.4049998261034,0,0,2,32111,WMM2,1628653,false,false,1435,image-keyboard-response,24
true,9,0,4,0,true,q,false,true,0.0-2.0-0.39-0.358-3.358,0,1,1,81,false,stim,false,0,480.72499968111515,0,0,2,32111,WMM2,1630682,false,false,1438,image-keyboard-response,25
true,9,0,4,0,true,q,false,true,0.0-2.0-0.39-0.359-3.359,0,1,1,81,false,stim,false,0,480.69499991834164,0,0,2,32111,WMM2,1632722,false,false,1441,image-keyboard-response,26
true,9,2,4,2,true,d,false,true,0.0-2.0-0.40-0.360-3.360,0,1,1,68,false,stim,false,2,747.2000000998378,0,1,1,32111,WMM2,1635022,false,false,1444,image-keyboard-response,27
true,9,0,4,0,true,q,false,true,0.0-2.0-0.40-0.361-3.361,0,1,1,81,false,stim,false,0,1436.6499995812774,0,0,2,32111,WMM2,1638012,false,false,1447,image-keyboard-response,28
true,9,2,4,2,true,d,false,true,0.0-2.0-0.40-0.362-3.362,0,1,1,68,false,stim,false,2,1288.024999666959,0,1,1,32111,WMM2,1640853,false,false,1450,image-keyboard-response,29
true,9,2,4,2,true,d,false,true,0.0-2.0-0.40-0.363-3.363,0,1,1,68,false,stim,false,2,1310.5399999767542,0,1,0,32111,WMM2,1643712,false,false,1453,image-keyboard-response,30
true,9,0,4,0,true,q,false,true,0.0-2.0-0.40-0.364-3.364,0,1,1,81,false,stim,false,0,1483.4100003354251,0,0,2,32111,WMM2,1646753,false,false,1456,image-keyboard-response,31
true,10,2,3,2,true,d,false,true,0.0-2.0-0.40-0.365-3.365,1,1,0,68,true,stim,false,2,1273.92499987036,0,1,0,32111,WMM2,1649573,false,false,1459,image-keyboard-response,1
true,10,0,3,1,false,z,false,true,0.0-2.0-0.40-0.366-3.366,1,1,0,81,false,stim,true,0,2221.94500034675,0,0,2,32111,WMM2,1653374,false,true,1462,image-keyboard-response,2
true,10,2,3,2,true,d,false,true,0.0-2.0-0.40-0.367-3.367,1,1,0,68,false,stim,false,2,663.7699999846518,0,1,1,32111,WMM2,1655594,false,false,1465,image-keyboard-response,3
true,10,2,3,2,true,d,false,true,0.0-2.0-0.40-0.368-3.368,1,1,0,68,false,stim,false,2,1229.4649998657405,0,1,0,32111,WMM2,1658383,false,false,1468,image-keyboard-response,4
true,10,2,3,2,true,d,false,true,0.0-2.0-0.41-0.369-3.369,1,1,0,68,false,stim,false,2,1615.4699996113777,0,1,1,32111,WMM2,1661543,false,false,1471,image-keyboard-response,5
true,10,2,3,2,true,d,false,true,0.0-2.0-0.41-0.370-3.370,1,1,0,68,false,stim,false,2,1044.4299997761846,0,1,1,32111,WMM2,1664143,false,false,1474,image-keyboard-response,6
true,10,2,3,2,true,d,false,true,0.0-2.0-0.41-0.371-3.371,1,1,0,68,false,stim,false,2,864.3950000405312,0,1,0,32111,WMM2,1666573,false,false,1477,image-keyboard-response,7
true,10,0,3,1,false,z,false,true,0.0-2.0-0.41-0.372-3.372,1,1,0,81,false,stim,true,0,638.8550000265241,0,0,2,32111,WMM2,1668773,false,true,1480,image-keyboard-response,8
true,10,2,3,2,true,d,false,false,0.0-2.0-0.41-0.373-3.373,1,1,0,68,false,stim,false,2,1020.5500000156462,0,1,0,32111,WMM2,1671353,false,true,1483,image-keyboard-response,9
true,10,2,3,2,true,d,false,true,0.0-2.0-0.41-0.374-3.374,1,1,0,68,false,stim,false,2,1431.2100000679493,0,1,1,32111,WMM2,1674354,false,false,1486,image-keyboard-response,10
true,10,0,3,1,false,z,false,false,0.0-2.0-0.41-0.375-3.375,1,1,0,81,false,stim,true,0,672.2499998286366,0,0,2,32111,WMM2,1676594,false,false,1489,image-keyboard-response,11
true,10,2,3,2,true,d,false,true,0.0-2.0-0.41-0.376-3.376,1,1,0,68,false,stim,false,2,841.8550002388656,0,1,0,32111,WMM2,1678983,false,false,1492,image-keyboard-response,12
true,10,0,3,1,false,z,false,false,0.0-2.0-0.41-0.377-3.377,1,1,0,81,false,stim,true,0,1377.8099999763072,0,0,2,32111,WMM2,1681913,false,false,1495,image-keyboard-response,13
true,10,1,3,1,true,z,false,true,0.0-2.0-0.42-0.378-3.378,1,1,0,90,false,stim,false,0,562.7350001595914,0,0,2,32111,WMM2,1684033,false,false,1498,image-keyboard-response,14
true,10,1,3,1,true,z,false,true,0.0-2.0-0.42-0.379-3.379,1,1,0,90,false,stim,false,0,604.5749997720122,0,0,2,32111,WMM2,1686194,false,false,1501,image-keyboard-response,15
true,10,2,3,2,true,d,false,true,0.0-2.0-0.42-0.380-3.380,1,1,0,68,false,stim,false,2,1411.019999999553,0,1,0,32111,WMM2,1689173,false,false,1504,image-keyboard-response,16
true,10,2,3,2,true,d,false,true,0.0-2.0-0.42-0.381-3.381,1,1,0,68,false,stim,false,2,549.6400003321469,0,1,0,32111,WMM2,1691274,false,false,1507,image-keyboard-response,17
true,10,2,3,2,true,d,false,true,0.0-2.0-0.42-0.382-3.382,1,1,0,68,false,stim,false,2,571.765000000596,0,1,0,32111,WMM2,1693423,false,false,1510,image-keyboard-response,18
true,10,2,3,2,true,d,false,false,0.0-2.0-0.42-0.383-3.383,1,1,0,68,false,stim,false,2,2521.200000308454,0,1,1,32111,WMM2,1697496,false,true,1513,image-keyboard-response,19
true,10,1,3,2,false,d,true,true,0.0-2.0-0.42-0.384-3.384,1,1,0,90,false,stim,false,2,456.1449997127056,0,1,1,32111,WMM2,1699514,false,true,1516,image-keyboard-response,20
true,10,1,3,2,false,d,true,false,0.0-2.0-0.42-0.385-3.385,1,1,0,90,false,stim,false,2,529.8950001597404,0,1,1,32111,WMM2,1701604,false,false,1519,image-keyboard-response,21
true,10,1,3,1,true,z,false,true,0.0-2.0-0.42-0.386-3.386,1,1,0,90,false,stim,false,0,720.6049999222159,0,0,2,32111,WMM2,1703894,false,false,1522,image-keyboard-response,22
true,10,1,3,1,true,z,false,true,0.0-2.0-0.43-0.387-3.387,1,1,0,90,false,stim,false,0,392.6900001242757,0,0,2,32111,WMM2,1705855,false,false,1525,image-keyboard-response,23
true,10,1,3,2,false,d,true,false,0.0-2.0-0.43-0.388-3.388,1,1,0,90,false,stim,false,2,2100.434999912977,0,1,0,32111,WMM2,1709515,false,false,1528,image-keyboard-response,24
true,10,1,3,1,true,z,false,true,0.0-2.0-0.43-0.389-3.389,1,1,0,90,false,stim,false,0,1544.1800002008677,0,0,2,32111,WMM2,1712625,false,false,1531,image-keyboard-response,25
true,10,1,3,2,false,d,true,false,0.0-2.0-0.43-0.390-3.390,1,1,0,90,false,stim,false,2,1360.4600001126528,0,1,1,32111,WMM2,1715544,false,false,1534,image-keyboard-response,26
true,10,1,3,1,true,z,false,true,0.0-2.0-0.43-0.391-3.391,1,1,0,90,false,stim,false,0,754.0599997155368,0,0,2,32111,WMM2,1717864,false,false,1537,image-keyboard-response,27
true,10,2,3,2,true,d,false,true,0.0-2.0-0.43-0.392-3.392,1,1,0,68,false,stim,false,2,1571.5350001119077,0,1,0,32111,WMM2,1721014,false,false,1540,image-keyboard-response,28
true,10,1,3,2,false,d,true,false,0.0-2.0-0.43-0.393-3.393,1,1,0,90,false,stim,false,2,2081.9000001065433,0,1,1,32111,WMM2,1724654,false,false,1543,image-keyboard-response,29
true,10,2,3,2,true,d,false,true,0.0-2.0-0.43-0.394-3.394,1,1,0,68,false,stim,false,2,1977.415000088513,0,1,0,32111,WMM2,1728214,false,false,1546,image-keyboard-response,30
true,10,1,3,2,false,d,true,false,0.0-2.0-0.43-0.395-3.395,1,1,0,90,false,stim,false,2,1501.3000001199543,0,1,1,32111,WMM2,1731295,false,false,1549,image-keyboard-response,31
true,10,1,3,1,true,z,false,true,0.0-2.0-0.44-0.396-3.396,1,1,0,90,false,stim,false,0,1473.4100000932813,0,0,2,32111,WMM2,1734335,false,false,1552,image-keyboard-response,32
true,10,1,3,1,true,z,false,true,0.0-2.0-0.44-0.397-3.397,1,1,0,90,false,stim,false,0,582.8299997374415,0,0,2,32111,WMM2,1736485,false,false,1555,image-keyboard-response,33
true,10,2,3,2,true,d,false,true,0.0-2.0-0.44-0.398-3.398,1,1,0,68,false,stim,false,2,409.56499986350536,0,1,0,32111,WMM2,1738467,false,false,1558,image-keyboard-response,34
true,10,0,3,2,false,d,true,false,0.0-2.0-0.44-0.399-3.399,1,1,0,81,false,stim,false,2,759.3000000342727,0,1,1,32111,WMM2,1740805,false,false,1561,image-keyboard-response,35
true,10,1,3,2,false,d,true,false,0.0-2.0-0.44-0.400-3.400,1,1,0,90,false,stim,false,2,368.0149996653199,0,1,1,32111,WMM2,1742736,false,false,1564,image-keyboard-response,36
true,10,2,3,2,true,d,false,true,0.0-2.0-0.44-0.401-3.401,1,1,0,68,false,stim,false,2,1457.5000000186265,0,1,0,32111,WMM2,1745755,false,false,1567,image-keyboard-response,37
true,10,2,3,2,true,d,false,true,0.0-2.0-0.44-0.402-3.402,1,1,0,68,false,stim,false,2,503.8350000977516,0,1,0,32111,WMM2,1747815,false,false,1570,image-keyboard-response,38
true,10,0,3,2,false,d,true,false,0.0-2.0-0.44-0.403-3.403,1,1,0,81,false,stim,false,2,2565.0200000964105,0,1,1,32111,WMM2,1751944,false,false,1573,image-keyboard-response,39
true,10,1,3,1,true,z,false,true,0.0-2.0-0.44-0.404-3.404,1,1,0,90,false,stim,false,0,763.2149998098612,0,0,2,32111,WMM2,1754266,false,false,1576,image-keyboard-response,40
true,10,2,3,2,true,d,false,true,0.0-2.0-0.45-0.405-3.405,1,1,0,68,false,stim,false,2,442.1950001269579,0,1,0,32111,WMM2,1756266,false,false,1579,image-keyboard-response,41
true,10,1,3,1,true,z,false,true,0.0-2.0-0.45-0.406-3.406,1,1,0,90,false,stim,false,0,1019.4449997507036,0,0,2,32111,WMM2,1758866,false,false,1582,image-keyboard-response,42
true,10,2,3,2,true,d,false,true,0.0-2.0-0.45-0.407-3.407,1,1,0,68,false,stim,false,2,771.5449999086559,0,1,0,32111,WMM2,1761205,false,false,1585,image-keyboard-response,43
true,10,2,3,2,true,d,false,true,0.0-2.0-0.45-0.408-3.408,1,1,0,68,false,stim,false,2,1011.9449999183416,0,1,0,32111,WMM2,1763795,false,false,1588,image-keyboard-response,44
true,10,1,3,2,false,d,true,false,0.0-2.0-0.45-0.409-3.409,1,1,0,90,false,stim,false,2,687.7399999648333,0,1,1,32111,WMM2,1766056,false,false,1591,image-keyboard-response,45
true,10,2,3,2,true,d,false,true,0.0-2.0-0.45-0.410-3.410,1,1,0,68,false,stim,false,2,444.42000007256866,0,1,1,32111,WMM2,1768055,false,false,1594,image-keyboard-response,46
true,10,1,3,1,true,z,false,true,0.0-2.0-0.45-0.411-3.411,1,1,0,90,false,stim,false,0,1016.8500002473593,0,0,2,32111,WMM2,1770635,false,false,1597,image-keyboard-response,47
true,10,1,3,1,true,z,false,true,0.0-2.0-0.45-0.412-3.412,1,1,0,90,false,stim,false,0,610.0349999032915,0,0,2,32111,WMM2,1772815,false,false,1600,image-keyboard-response,48
true,10,2,3,2,true,d,false,true,0.0-2.0-0.45-0.413-3.413,1,1,0,68,false,stim,false,2,479.58499984815717,0,1,1,32111,WMM2,1774866,false,false,1603,image-keyboard-response,49
true,10,1,3,1,true,z,false,true,0.0-2.0-0.46-0.414-3.414,1,1,0,90,false,stim,false,0,523.05500023067,0,0,2,32111,WMM2,1776966,false,false,1606,image-keyboard-response,50
true,10,1,3,1,true,z,false,true,0.0-2.0-0.46-0.415-3.415,1,1,0,90,false,stim,false,0,893.1450000964105,0,0,2,32111,WMM2,1779435,false,false,1609,image-keyboard-response,51
true,10,2,3,2,true,d,false,true,0.0-2.0-0.46-0.416-3.416,1,1,0,68,false,stim,false,2,714.6149999462068,0,0,0,32111,WMM2,1781726,false,false,1612,image-keyboard-response,52
true,10,1,3,2,false,d,true,false,0.0-2.0-0.46-0.417-3.417,1,1,0,90,false,stim,false,2,2106.4100000075996,0,1,1,32111,WMM2,1785406,false,false,1615,image-keyboard-response,53
true,10,2,3,2,true,d,false,true,0.0-2.0-0.46-0.418-3.418,1,1,0,68,false,stim,false,2,536.8149997666478,0,0,0,32111,WMM2,1787516,false,false,1618,image-keyboard-response,54
true,10,2,3,2,true,d,false,true,0.0-2.0-0.46-0.419-3.419,1,1,0,68,false,stim,false,2,339.70999997109175,0,1,1,32111,WMM2,1789426,false,false,1621,image-keyboard-response,55
true,10,2,3,2,true,d,false,true,0.0-2.0-0.46-0.420-3.420,1,1,0,68,false,stim,false,2,429.64500002563,0,1,1,32111,WMM2,1791426,false,false,1624,image-keyboard-response,56
true,10,2,3,2,true,d,false,true,0.0-2.0-0.46-0.421-3.421,1,1,0,68,false,stim,false,2,462.7700001001358,0,0,0,32111,WMM2,1793446,false,false,1627,image-keyboard-response,57
true,10,1,3,1,true,z,false,true,0.0-2.0-0.46-0.422-3.422,1,1,0,90,false,stim,false,0,578.5250002518296,0,0,2,32111,WMM2,1795586,false,false,1630,image-keyboard-response,58
true,10,2,3,2,true,d,false,true,0.0-2.0-0.47-0.423-3.423,1,1,0,68,false,stim,false,2,839.0150000341237,0,1,1,32111,WMM2,1798006,false,false,1633,image-keyboard-response,59
true,11,2,1,0,false,q,false,false,0.0-2.0-0.47-0.424-3.424,0,1,0,68,true,stim,true,2,1428.1199998222291,0,0,0,32111,WMM2,1800987,false,false,1636,image-keyboard-response,1
true,11,1,1,0,false,q,false,false,0.0-2.0-0.47-0.425-3.425,0,1,0,90,false,stim,true,1,403.1799999065697,0,0,2,32111,WMM2,1802966,false,false,1639,image-keyboard-response,2
true,11,0,1,0,true,q,false,true,0.0-2.0-0.47-0.426-3.426,0,1,0,81,false,stim,false,2,1021.8650000169873,0,0,0,32111,WMM2,1805556,false,false,1642,image-keyboard-response,3
true,11,0,1,0,true,q,false,true,0.0-2.0-0.47-0.427-3.427,0,1,0,81,false,stim,false,1,1403.5050002858043,0,0,2,32111,WMM2,1808527,false,false,1645,image-keyboard-response,4
true,11,0,1,2,false,d,true,false,0.0-2.0-0.47-0.428-3.428,0,1,0,81,false,stim,false,2,1381.529999896884,0,1,1,32111,WMM2,1811477,false,false,1648,image-keyboard-response,5
true,11,0,1,0,true,q,false,true,0.0-2.0-0.47-0.429-3.429,0,1,0,81,false,stim,false,2,442.21000000834465,0,0,0,32111,WMM2,1813486,false,false,1651,image-keyboard-response,6
true,11,0,1,0,true,q,false,true,0.0-2.0-0.47-0.430-3.430,0,1,0,81,false,stim,false,1,513.9799998141825,0,0,2,32111,WMM2,1815576,false,false,1654,image-keyboard-response,7
true,11,1,1,2,false,d,true,false,0.0-2.0-0.47-0.431-3.431,0,1,0,90,false,stim,false,2,565.1699998416007,0,1,1,32111,WMM2,1817696,false,false,1657,image-keyboard-response,8
true,11,0,1,0,true,q,false,true,0.0-2.0-0.48-0.432-3.432,0,1,0,81,false,stim,false,2,461.78000001236796,0,0,0,32111,WMM2,1819736,false,false,1660,image-keyboard-response,9
true,11,0,1,0,true,q,false,true,0.0-2.0-0.48-0.433-3.433,0,1,0,81,false,stim,false,1,458.41499976813793,0,0,2,32111,WMM2,1821766,false,false,1663,image-keyboard-response,10
true,11,0,1,0,true,q,false,true,0.0-2.0-0.48-0.434-3.434,0,1,0,81,false,stim,false,1,926.804999820888,0,0,2,32111,WMM2,1824256,false,false,1666,image-keyboard-response,11
true,11,0,1,0,true,q,false,true,0.0-2.0-0.48-0.435-3.435,0,1,0,81,false,stim,false,2,594.634999986738,0,0,0,32111,WMM2,1826419,false,false,1669,image-keyboard-response,12
true,11,2,1,2,true,d,false,true,0.0-2.0-0.48-0.436-3.436,0,1,0,68,false,stim,false,2,416.96499986574054,0,1,1,32111,WMM2,1828407,false,false,1672,image-keyboard-response,13
true,11,0,1,0,true,q,false,false,0.0-2.0-0.48-0.437-3.437,0,1,0,81,false,stim,false,2,434.320000000298,0,0,0,32111,WMM2,1830408,false,true,1675,image-keyboard-response,14
true,11,2,1,2,true,d,false,true,0.0-2.0-0.48-0.438-3.438,0,1,0,68,false,stim,false,2,1125.5600000731647,0,1,1,32111,WMM2,1833108,false,false,1678,image-keyboard-response,15
true,11,2,1,2,true,d,false,true,0.0-2.0-0.48-0.439-3.439,0,1,0,68,false,stim,false,2,832.1450003422797,0,1,1,32111,WMM2,1835517,false,false,1681,image-keyboard-response,16
true,11,0,1,0,true,q,false,true,0.0-2.0-0.48-0.440-3.440,0,1,0,81,false,stim,false,1,1771.020000334829,0,0,2,32111,WMM2,1838867,false,false,1684,image-keyboard-response,17
true,11,0,1,0,true,q,false,true,0.0-2.0-0.49-0.441-3.441,0,1,0,81,false,stim,false,2,413.9450001530349,0,0,0,32111,WMM2,1840847,false,false,1687,image-keyboard-response,18
true,11,2,1,2,true,d,false,true,0.0-2.0-0.49-0.442-3.442,0,1,0,68,false,stim,false,2,2290.3300002217293,0,1,1,32111,WMM2,1844707,false,false,1690,image-keyboard-response,19
true,11,0,1,0,true,q,false,true,0.0-2.0-0.49-0.443-3.443,0,1,0,81,false,stim,false,1,655.3199999034405,0,0,2,32111,WMM2,1846938,false,false,1693,image-keyboard-response,20
true,11,0,1,0,true,q,false,true,0.0-2.0-0.49-0.444-3.444,0,1,0,81,false,stim,false,1,530.2149998024106,0,0,2,32111,WMM2,1849047,false,false,1696,image-keyboard-response,21
true,11,0,1,0,true,q,false,true,0.0-2.0-0.49-0.445-3.445,0,1,0,81,false,stim,false,1,487.29499988257885,0,0,2,32111,WMM2,1851117,false,false,1699,image-keyboard-response,22
true,11,0,1,0,true,q,false,false,0.0-2.0-0.49-0.446-3.446,0,1,0,81,false,stim,false,2,1060.5750000104308,0,1,0,32111,WMM2,1853737,false,true,1702,image-keyboard-response,23
true,11,2,1,2,true,d,false,true,0.0-2.0-0.49-0.447-3.447,0,1,0,68,false,stim,false,2,451.7299998551607,0,1,1,32111,WMM2,1855757,false,false,1705,image-keyboard-response,24
true,11,2,1,2,true,d,false,true,0.0-2.0-0.49-0.448-3.448,0,1,0,68,false,stim,false,2,759.725000243634,0,1,1,32111,WMM2,1858087,false,false,1708,image-keyboard-response,25
true,11,0,1,0,true,q,false,true,0.0-2.0-0.49-0.449-3.449,0,1,0,81,false,stim,false,2,942.1999999321997,0,1,0,32111,WMM2,1860607,false,false,1711,image-keyboard-response,26
true,11,0,1,0,true,q,false,false,0.0-2.0-0.50-0.450-3.450,0,1,0,81,false,stim,false,1,591.2600001320243,0,0,2,32111,WMM2,1862777,false,true,1714,image-keyboard-response,27
true,11,0,1,0,true,q,false,true,0.0-2.0-0.50-0.451-3.451,0,1,0,81,false,stim,false,1,1275.1050000078976,0,0,2,32111,WMM2,1865627,false,false,1717,image-keyboard-response,28
true,11,0,1,0,true,q,false,true,0.0-2.0-0.50-0.452-3.452,0,1,0,81,false,stim,false,2,1628.0350000597537,0,1,0,32111,WMM2,1868827,false,false,1720,image-keyboard-response,29
true,11,0,1,0,true,q,false,true,0.0-2.0-0.50-0.453-3.453,0,1,0,81,false,stim,false,1,1522.4649999290705,0,0,2,32111,WMM2,1871927,false,false,1723,image-keyboard-response,30
true,12,2,2,2,true,d,false,true,0.0-2.0-0.50-0.454-3.454,1,1,0,68,true,stim,false,2,904.7600002959371,0,1,1,32111,WMM2,1874398,false,false,1726,image-keyboard-response,1
true,12,2,2,2,true,d,false,true,0.0-2.0-0.50-0.455-3.455,1,1,0,68,false,stim,false,2,1019.4999999366701,0,1,1,32111,WMM2,1876988,false,false,1729,image-keyboard-response,2
true,12,0,2,0,true,q,false,true,0.0-2.0-0.50-0.456-3.456,1,1,0,81,false,stim,false,0,1206.474999897182,0,1,0,32111,WMM2,1879769,false,false,1732,image-keyboard-response,3
true,12,0,2,0,true,q,false,true,0.0-2.0-0.50-0.457-3.457,1,1,0,81,false,stim,false,0,485.75499979779124,0,1,0,32111,WMM2,1881838,false,false,1735,image-keyboard-response,4
true,12,2,2,2,true,d,false,true,0.0-2.0-0.50-0.458-3.458,1,1,0,68,false,stim,false,2,1232.2450000792742,0,1,1,32111,WMM2,1884649,false,false,1738,image-keyboard-response,5
true,12,0,2,0,true,q,false,true,0.0-2.0-0.51-0.459-3.459,1,1,0,81,false,stim,false,0,666.2099999375641,0,1,0,32111,WMM2,1886888,false,false,1741,image-keyboard-response,6
true,12,0,2,1,false,z,false,false,0.0-2.0-0.51-0.460-3.460,1,1,0,81,false,stim,true,0,418.7449999153614,0,0,2,32111,WMM2,1888878,false,false,1744,image-keyboard-response,7
true,12,2,2,2,true,d,false,true,0.0-2.0-0.51-0.461-3.461,1,1,0,68,false,stim,false,2,680.5399996228516,0,1,1,32111,WMM2,1891128,false,false,1747,image-keyboard-response,8
true,12,2,2,2,true,d,false,true,0.0-2.0-0.51-0.462-3.462,1,1,0,68,false,stim,false,2,1162.3599999584258,0,1,1,32111,WMM2,1893868,false,false,1750,image-keyboard-response,9
true,12,0,2,1,false,z,false,false,0.0-2.0-0.51-0.463-3.463,1,1,0,81,false,stim,true,0,1497.7000001817942,0,0,2,32111,WMM2,1896938,false,false,1753,image-keyboard-response,10
true,12,0,2,0,true,q,false,true,0.0-2.0-0.51-0.464-3.464,1,1,0,81,false,stim,false,0,398.9200000651181,0,1,0,32111,WMM2,1898918,false,false,1756,image-keyboard-response,11
true,12,2,2,2,true,d,false,true,0.0-2.0-0.51-0.465-3.465,1,1,0,68,false,stim,false,2,634.7099998965859,0,1,1,32111,WMM2,1901128,false,false,1759,image-keyboard-response,12
true,12,0,2,0,true,q,false,true,0.0-2.0-0.51-0.466-3.466,1,1,0,81,false,stim,false,0,1214.144999627024,0,1,0,32111,WMM2,1903908,false,false,1762,image-keyboard-response,13
true,12,1,2,1,true,z,false,true,0.0-2.0-0.51-0.467-3.467,1,1,0,90,false,stim,false,0,367.8800002671778,0,0,2,32111,WMM2,1905858,false,false,1765,image-keyboard-response,14
true,12,0,2,0,true,q,false,true,0.0-2.0-0.52-0.468-3.468,1,1,0,81,false,stim,false,0,653.3499998040497,0,1,0,32111,WMM2,1908088,false,false,1768,image-keyboard-response,15
true,12,1,2,1,true,z,false,true,0.0-2.0-0.52-0.469-3.469,1,1,0,90,false,stim,false,0,417.004999704659,0,0,2,32111,WMM2,1910088,false,false,1771,image-keyboard-response,16
true,12,1,2,1,true,z,false,true,0.0-2.0-0.52-0.470-3.470,1,1,0,90,false,stim,false,0,857.0999996736646,0,0,2,32111,WMM2,1912508,false,false,1774,image-keyboard-response,17
true,12,0,2,0,true,q,false,true,0.0-2.0-0.52-0.471-3.471,1,1,0,81,false,stim,false,0,874.6200003661215,0,1,0,32111,WMM2,1914958,false,false,1777,image-keyboard-response,18
true,12,2,2,2,true,d,false,true,0.0-2.0-0.52-0.472-3.472,1,1,0,68,false,stim,false,2,588.3900001645088,0,1,1,32111,WMM2,1917129,false,false,1780,image-keyboard-response,19
true,12,2,2,2,true,d,false,true,0.0-2.0-0.52-0.473-3.473,1,1,0,68,false,stim,false,2,557.5649999082088,0,1,1,32111,WMM2,1919259,false,false,1783,image-keyboard-response,20
true,12,2,2,2,true,d,false,true,0.0-2.0-0.52-0.474-3.474,1,1,0,68,false,stim,false,2,447.114999871701,0,1,1,32111,WMM2,1921279,false,false,1786,image-keyboard-response,21
true,12,1,2,1,true,z,false,true,0.0-2.0-0.52-0.475-3.475,1,1,0,90,false,stim,false,0,1679.4150001369417,0,1,2,32111,WMM2,1924529,false,false,1789,image-keyboard-response,22
true,12,0,2,0,true,q,false,true,0.0-2.0-0.52-0.476-3.476,1,1,0,81,false,stim,false,0,744.3650001659989,0,0,0,32111,WMM2,1926849,false,false,1792,image-keyboard-response,23
true,12,0,2,0,true,q,false,true,0.0-2.0-0.53-0.477-3.477,1,1,0,81,false,stim,false,0,601.1199997738004,0,0,0,32111,WMM2,1929029,false,false,1795,image-keyboard-response,24
true,12,1,2,1,true,z,false,true,0.0-2.0-0.53-0.478-3.478,1,1,0,90,false,stim,false,0,1769.66999983415,0,1,2,32111,WMM2,1932370,false,false,1798,image-keyboard-response,25
true,12,0,2,0,true,q,false,false,0.0-2.0-0.53-0.479-3.479,1,1,0,81,false,stim,false,0,1102.469999808818,0,0,0,32111,WMM2,1935049,false,true,1801,image-keyboard-response,26
true,12,1,2,1,true,z,false,false,0.0-2.0-0.53-0.480-3.480,1,1,0,90,false,stim,false,0,811.3899999298155,0,1,2,32111,WMM2,1937419,false,true,1804,image-keyboard-response,27
true,12,0,2,0,true,q,false,true,0.0-2.0-0.53-0.481-3.481,1,1,0,81,false,stim,false,0,1279.480000026524,0,0,0,32111,WMM2,1940269,false,false,1807,image-keyboard-response,28
true,12,2,2,2,true,d,false,true,0.0-2.0-0.53-0.482-3.482,1,1,0,68,false,stim,false,2,757.7399997971952,0,1,1,32111,WMM2,1942599,false,false,1810,image-keyboard-response,29
true,12,2,2,2,true,d,false,true,0.0-2.0-0.53-0.483-3.483,1,1,0,68,false,stim,false,2,725.1999997533858,0,1,1,32111,WMM2,1944899,false,false,1813,image-keyboard-response,30
true,13,1,2,1,true,z,false,false,0.0-2.0-0.53-0.484-3.484,0,1,1,90,true,stim,false,1,1732.8349999152124,0,1,2,32111,WMM2,1948209,false,true,1816,image-keyboard-response,1
true,13,2,2,2,true,d,false,true,0.0-2.0-0.53-0.485-3.485,0,1,1,68,false,stim,false,2,805.2349998615682,0,1,1,32111,WMM2,1950619,false,false,1819,image-keyboard-response,2
true,13,1,2,1,true,z,false,true,0.0-2.0-0.54-0.486-3.486,0,1,1,90,false,stim,false,0,998.1799996457994,0,0,0,32111,WMM2,1953199,false,false,1822,image-keyboard-response,3
true,13,0,2,1,false,z,true,false,0.0-2.0-0.54-0.487-3.487,0,1,1,81,false,stim,false,1,1309.3599998392165,0,1,2,32111,WMM2,1956079,false,false,1825,image-keyboard-response,4
true,13,2,2,2,true,d,false,true,0.0-2.0-0.54-0.488-3.488,0,1,1,68,false,stim,false,2,1286.650000140071,0,1,1,32111,WMM2,1958939,false,false,1828,image-keyboard-response,5
true,13,1,2,1,true,z,false,true,0.0-2.0-0.54-0.489-3.489,0,1,1,90,false,stim,false,1,1287.514999974519,0,1,2,32111,WMM2,1961810,false,false,1831,image-keyboard-response,6
true,13,1,2,1,true,z,false,true,0.0-2.0-0.54-0.490-3.490,0,1,1,90,false,stim,false,1,513.3799999020994,0,1,2,32111,WMM2,1963900,false,false,1834,image-keyboard-response,7
true,13,1,2,1,true,z,false,true,0.0-2.0-0.54-0.491-3.491,0,1,1,90,false,stim,false,0,508.0300001427531,0,0,0,32111,WMM2,1965980,false,false,1837,image-keyboard-response,8
true,13,1,2,1,true,z,false,true,0.0-2.0-0.54-0.492-3.492,0,1,1,90,false,stim,false,0,533.1549998372793,0,0,0,32111,WMM2,1968090,false,false,1840,image-keyboard-response,9
true,13,2,2,2,true,d,false,true,0.0-2.0-0.54-0.493-3.493,0,1,1,68,false,stim,false,2,1437.4199998565018,0,1,1,32111,WMM2,1971099,false,false,1843,image-keyboard-response,10
true,13,2,2,2,true,d,false,true,0.0-2.0-0.54-0.494-3.494,0,1,1,68,false,stim,false,2,833.4449999965727,0,1,1,32111,WMM2,1973501,false,false,1846,image-keyboard-response,11
true,13,2,2,2,true,d,false,true,0.0-2.0-0.55-0.495-3.495,0,1,1,68,false,stim,false,2,780.2849998697639,0,1,1,32111,WMM2,1975861,false,false,1849,image-keyboard-response,12
true,13,2,2,2,true,d,false,true,0.0-2.0-0.55-0.496-3.496,0,1,1,68,false,stim,false,2,422.8000002913177,0,1,1,32111,WMM2,1977840,false,false,1852,image-keyboard-response,13
true,13,1,2,1,true,z,false,true,0.0-2.0-0.55-0.497-3.497,0,1,1,90,false,stim,false,0,1012.8500000573695,0,0,0,32111,WMM2,1980420,false,false,1855,image-keyboard-response,14
true,13,1,2,1,true,z,false,true,0.0-2.0-0.55-0.498-3.498,0,1,1,90,false,stim,false,1,548.1799999251962,0,1,2,32111,WMM2,1982540,false,false,1858,image-keyboard-response,15
true,13,1,2,1,true,z,false,true,0.0-2.0-0.55-0.499-3.499,0,1,1,90,false,stim,false,0,549.5649999938905,0,0,0,32111,WMM2,1984670,false,false,1861,image-keyboard-response,16
true,13,1,2,1,true,z,false,true,0.0-2.0-0.55-0.500-3.500,0,1,1,90,false,stim,false,1,1157.2050000540912,0,1,2,32111,WMM2,1987391,false,false,1864,image-keyboard-response,17
true,13,1,2,1,true,z,false,true,0.0-2.0-0.55-0.501-3.501,0,1,1,90,false,stim,false,1,425.16000010073185,0,1,2,32111,WMM2,1989391,false,false,1867,image-keyboard-response,18
true,13,1,2,1,true,z,false,true,0.0-2.0-0.55-0.502-3.502,0,1,1,90,false,stim,false,0,1144.2100000567734,0,0,0,32111,WMM2,1992109,false,false,1870,image-keyboard-response,19
true,13,2,2,2,true,d,false,true,0.0-2.0-0.55-0.503-3.503,0,1,1,68,false,stim,false,2,635.0599997676909,0,1,1,32111,WMM2,1994319,false,false,1873,image-keyboard-response,20
true,13,2,2,2,true,d,false,true,0.0-2.0-0.56-0.504-3.504,0,1,1,68,false,stim,false,2,664.6199999377131,0,1,1,32111,WMM2,1996561,false,false,1876,image-keyboard-response,21
true,13,1,2,1,true,z,false,true,0.0-2.0-0.56-0.505-3.505,0,1,1,90,false,stim,false,0,1952.419999986887,0,1,0,32111,WMM2,2000091,false,false,1879,image-keyboard-response,22
true,13,1,2,1,true,z,false,true,0.0-2.0-0.56-0.506-3.506,0,1,1,90,false,stim,false,0,502.2300002165139,0,1,0,32111,WMM2,2002160,false,false,1882,image-keyboard-response,23
true,13,2,2,2,true,d,false,true,0.0-2.0-0.56-0.507-3.507,0,1,1,68,false,stim,false,2,1345.4750003293157,0,1,1,32111,WMM2,2005071,false,false,1885,image-keyboard-response,24
true,13,2,2,2,true,d,false,true,0.0-2.0-0.56-0.508-3.508,0,1,1,68,false,stim,false,2,574.7250001877546,0,1,1,32111,WMM2,2007231,false,false,1888,image-keyboard-response,25
true,13,1,2,1,true,z,false,true,0.0-2.0-0.56-0.509-3.509,0,1,1,90,false,stim,false,1,733.9449999853969,0,0,2,32111,WMM2,2009520,false,false,1891,image-keyboard-response,26
true,13,1,2,1,true,z,false,true,0.0-2.0-0.56-0.510-3.510,0,1,1,90,false,stim,false,0,1350.5899999290705,0,1,0,32111,WMM2,2012442,false,false,1894,image-keyboard-response,27
true,13,1,2,1,true,z,false,true,0.0-2.0-0.56-0.511-3.511,0,1,1,90,false,stim,false,1,1070.8949998952448,0,0,2,32111,WMM2,2015091,false,false,1897,image-keyboard-response,28
true,13,1,2,1,true,z,false,true,0.0-2.0-0.56-0.512-3.512,0,1,1,90,false,stim,false,1,440.0100000202656,0,0,2,32111,WMM2,2017111,false,false,1900,image-keyboard-response,29
true,13,2,2,2,true,d,false,true,0.0-2.0-0.57-0.513-3.513,0,1,1,68,false,stim,false,2,1068.7100002542138,0,1,1,32111,WMM2,2019761,false,false,1903,image-keyboard-response,30
true,14,0,0,1,false,z,true,false,0.0-2.0-0.57-0.514-3.514,1,1,0,81,true,stim,false,1,1580.8049999177456,0,0,2,32111,WMM2,2145863,false,false,2026,image-keyboard-response,1
true,14,1,0,2,false,d,true,false,0.0-2.0-0.57-0.515-3.515,1,1,0,90,false,stim,false,2,2268.190000206232,0,1,1,32111,WMM2,2149710,false,false,2029,image-keyboard-response,2
true,14,2,0,1,false,z,true,false,0.0-2.0-0.57-0.516-3.516,1,1,0,68,false,stim,false,1,774.3349997326732,0,1,0,32111,WMM2,2152061,false,false,2032,image-keyboard-response,3
true,14,2,0,1,false,z,true,false,0.0-2.0-0.57-0.517-3.517,1,1,0,68,false,stim,false,1,363.60500007867813,0,1,0,32111,WMM2,2154001,false,false,2035,image-keyboard-response,4
true,14,1,0,1,true,z,false,true,0.0-2.0-0.57-0.518-3.518,1,1,0,90,false,stim,false,1,1598.8949998281896,0,0,2,32111,WMM2,2157172,false,false,2038,image-keyboard-response,5
true,14,2,0,2,true,d,false,true,0.0-2.0-0.57-0.519-3.519,1,1,0,68,false,stim,false,2,1199.6200000867248,0,1,1,32111,WMM2,2159952,false,false,2041,image-keyboard-response,6
true,14,0,0,1,false,z,true,false,0.0-2.0-0.57-0.520-3.520,1,1,0,81,false,stim,false,1,805.6749999523163,0,1,0,32111,WMM2,2162342,false,false,2044,image-keyboard-response,7
true,14,1,0,1,true,z,false,true,0.0-2.0-0.57-0.521-3.521,1,1,0,90,false,stim,false,1,432.714999653399,0,0,2,32111,WMM2,2164362,false,false,2047,image-keyboard-response,8
true,14,1,0,1,true,z,false,true,0.0-2.0-0.58-0.522-3.522,1,1,0,90,false,stim,false,1,553.685000166297,0,0,2,32111,WMM2,2166502,false,false,2050,image-keyboard-response,9
true,14,2,0,1,false,z,true,false,0.0-2.0-0.58-0.523-3.523,1,1,0,68,false,stim,false,1,585.1300000213087,0,1,0,32111,WMM2,2168662,false,false,2053,image-keyboard-response,10
true,14,0,0,1,false,z,true,false,0.0-2.0-0.58-0.524-3.524,1,1,0,81,false,stim,false,1,1820.720000192523,0,1,0,32111,WMM2,2172060,false,false,2056,image-keyboard-response,11
true,14,1,0,1,true,z,false,true,0.0-2.0-0.58-0.525-3.525,1,1,0,90,false,stim,false,1,330.9749998152256,0,1,0,32111,WMM2,2173962,false,false,2059,image-keyboard-response,12
true,14,1,0,2,false,d,true,true,0.0-2.0-0.58-0.526-3.526,1,1,0,90,false,stim,false,2,446.6750002466142,0,1,1,32111,WMM2,2175982,false,true,2062,image-keyboard-response,13
true,14,2,0,1,false,z,true,false,0.0-2.0-0.58-0.527-3.527,1,1,0,68,false,stim,false,1,441.92499993368983,0,0,2,32111,WMM2,2178001,false,false,2065,image-keyboard-response,14
true,14,0,0,1,false,z,true,false,0.0-2.0-0.58-0.528-3.528,1,1,0,81,false,stim,false,1,1426.2400004081428,0,0,2,32111,WMM2,2181003,false,false,2068,image-keyboard-response,15
true,14,1,0,2,false,d,true,false,0.0-2.0-0.58-0.529-3.529,1,1,0,90,false,stim,false,2,321.7449998483062,0,1,1,32111,WMM2,2182902,false,false,2071,image-keyboard-response,16
true,14,1,0,2,false,d,true,false,0.0-2.0-0.58-0.530-3.530,1,1,0,90,false,stim,false,2,538.9200001955032,0,1,1,32111,WMM2,2185022,false,false,2074,image-keyboard-response,17
true,14,2,0,1,false,z,true,false,0.0-2.0-0.59-0.531-3.531,1,1,0,68,false,stim,false,1,1140.2549999766052,0,1,0,32111,WMM2,2187742,false,false,2077,image-keyboard-response,18
true,14,1,0,2,false,d,true,false,0.0-2.0-0.59-0.532-3.532,1,1,0,90,false,stim,false,2,1184.929999988526,0,1,1,32111,WMM2,2190512,false,false,2080,image-keyboard-response,19
true,14,0,0,2,false,d,true,false,0.0-2.0-0.59-0.533-3.533,1,1,0,81,false,stim,false,2,672.060000244528,0,1,1,32111,WMM2,2192752,false,false,2083,image-keyboard-response,20
true,14,1,0,2,false,d,true,false,0.0-2.0-0.59-0.534-3.534,1,1,0,90,false,stim,false,2,1516.4000000804663,0,1,1,32111,WMM2,2195852,false,false,2086,image-keyboard-response,21
true,14,1,0,1,true,z,false,true,0.0-2.0-0.59-0.535-3.535,1,1,0,90,false,stim,false,1,879.515000153333,0,0,2,32111,WMM2,2198312,false,false,2089,image-keyboard-response,22
true,14,1,0,1,true,z,false,false,0.0-2.0-0.59-0.536-3.536,1,1,0,90,false,stim,false,1,626.5500001609325,0,0,2,32111,WMM2,2200531,false,true,2092,image-keyboard-response,23
true,14,1,0,1,true,z,false,true,0.0-2.0-0.59-0.537-3.537,1,1,0,90,false,stim,false,1,359.69500010833144,0,0,2,32111,WMM2,2202473,false,false,2095,image-keyboard-response,24
true,14,2,0,1,false,z,true,true,0.0-2.0-0.59-0.538-3.538,1,1,0,68,false,stim,false,1,1634.7349998541176,0,1,0,32111,WMM2,2205692,false,true,2098,image-keyboard-response,25
true,14,2,0,1,false,z,true,true,0.0-2.0-0.59-0.539-3.539,1,1,0,68,false,stim,false,1,327.6199996471405,0,1,0,32111,WMM2,2207602,false,true,2101,image-keyboard-response,26
true,14,0,0,2,false,d,true,true,0.0-2.0-0.60-0.540-3.540,1,1,0,81,false,stim,false,2,712.060000281781,0,1,1,32111,WMM2,2209892,false,true,2104,image-keyboard-response,27
true,14,1,0,1,true,z,false,true,0.0-2.0-0.60-0.541-3.541,1,1,0,90,false,stim,false,1,1203.0699998140335,0,0,2,32111,WMM2,2212683,false,false,2107,image-keyboard-response,28
true,14,2,0,1,false,z,true,false,0.0-2.0-0.60-0.542-3.542,1,1,0,68,false,stim,false,1,1329.3449999764562,0,1,0,32111,WMM2,2215593,false,false,2110,image-keyboard-response,29
true,14,2,0,1,false,z,true,false,0.0-2.0-0.60-0.543-3.543,1,1,0,68,false,stim,false,1,363.8399997726083,0,1,0,32111,WMM2,2217543,false,false,2113,image-keyboard-response,30
true,14,1,0,1,true,z,false,true,0.0-2.0-0.60-0.544-3.544,1,1,0,90,false,stim,false,1,389.6249998360872,0,1,0,32111,WMM2,2219513,false,false,2116,image-keyboard-response,31
true,14,1,0,1,true,z,false,true,0.0-2.0-0.60-0.545-3.545,1,1,0,90,false,stim,false,1,583.9800001122057,0,0,2,32111,WMM2,2221683,false,false,2119,image-keyboard-response,32
true,14,0,0,2,false,d,true,false,0.0-2.0-0.60-0.546-3.546,1,1,0,81,false,stim,false,2,500.0199996866286,0,1,1,32111,WMM2,2223773,false,false,2122,image-keyboard-response,33
true,14,1,0,1,true,z,false,true,0.0-2.0-0.60-0.547-3.547,1,1,0,90,false,stim,false,1,875.4750001244247,0,0,2,32111,WMM2,2226233,false,false,2125,image-keyboard-response,34
true,14,1,0,2,false,d,true,false,0.0-2.0-0.60-0.548-3.548,1,1,0,90,false,stim,false,2,1608.7949997745454,0,1,1,32111,WMM2,2229433,false,false,2128,image-keyboard-response,35
true,14,0,0,2,false,d,true,false,0.0-2.0-0.61-0.549-3.549,1,1,0,81,false,stim,false,2,765.7300001010299,0,1,1,32111,WMM2,2231781,false,false,2131,image-keyboard-response,36
true,14,1,0,1,true,z,false,true,0.0-2.0-0.61-0.550-3.550,1,1,0,90,false,stim,false,1,705.8749999850988,0,0,2,32111,WMM2,2234063,false,false,2134,image-keyboard-response,37
true,14,1,0,1,true,z,false,true,0.0-2.0-0.61-0.551-3.551,1,1,0,90,false,stim,false,1,895.469999872148,0,1,0,32111,WMM2,2236543,false,false,2137,image-keyboard-response,38
true,14,2,0,2,true,d,false,true,0.0-2.0-0.61-0.552-3.552,1,1,0,68,false,stim,false,2,304.13500033318996,0,1,1,32111,WMM2,2238432,false,false,2140,image-keyboard-response,39
true,14,1,0,1,true,z,false,true,0.0-2.0-0.61-0.553-3.553,1,1,0,90,false,stim,false,1,508.26500030234456,0,0,2,32111,WMM2,2240536,false,false,2143,image-keyboard-response,40
true,14,1,0,1,true,z,false,true,0.0-2.0-0.61-0.554-3.554,1,1,0,90,false,stim,false,1,607.7499999664724,0,1,0,32111,WMM2,2242742,false,false,2146,image-keyboard-response,41
true,14,1,0,1,true,z,false,true,0.0-2.0-0.61-0.555-3.555,1,1,0,90,false,stim,false,1,587.8449999727309,0,0,2,32111,WMM2,2244922,false,false,2149,image-keyboard-response,42
true,14,2,0,1,false,z,true,false,0.0-2.0-0.61-0.556-3.556,1,1,0,68,false,stim,false,1,1729.2949999682605,0,1,0,32111,WMM2,2248233,false,false,2152,image-keyboard-response,43
true,14,2,0,2,true,d,false,true,0.0-2.0-0.61-0.557-3.557,1,1,0,68,false,stim,false,2,321.22999988496304,0,1,1,32111,WMM2,2250143,false,false,2155,image-keyboard-response,44
true,14,1,0,1,true,z,false,true,0.0-2.0-0.62-0.558-3.558,1,1,0,90,false,stim,false,1,1110.8650001697242,0,0,2,32111,WMM2,2252844,false,false,2158,image-keyboard-response,45
true,14,1,0,1,true,z,false,true,0.0-2.0-0.62-0.559-3.559,1,1,0,90,false,stim,false,1,774.8199999332428,0,0,2,32111,WMM2,2255204,false,false,2161,image-keyboard-response,46
true,14,2,0,2,true,d,false,true,0.0-2.0-0.62-0.560-3.560,1,1,0,68,false,stim,false,2,1461.335000116378,0,1,1,32111,WMM2,2258255,false,false,2164,image-keyboard-response,47
true,14,2,0,2,true,d,false,false,0.0-2.0-0.62-0.561-3.561,1,1,0,68,false,stim,false,2,1156.870000064373,0,1,1,32111,WMM2,2261005,false,true,2167,image-keyboard-response,48
true,14,1,0,1,true,z,false,false,0.0-2.0-0.62-0.562-3.562,1,1,0,90,false,stim,false,1,959.7000000067055,0,1,0,32111,WMM2,2263545,false,true,2170,image-keyboard-response,49
true,14,2,0,1,false,z,true,false,0.0-2.0-0.62-0.563-3.563,1,1,0,68,false,stim,false,1,486.78999999538064,0,1,0,32111,WMM2,2265624,false,false,2173,image-keyboard-response,50
true,14,2,0,1,false,z,true,false,0.0-2.0-0.62-0.564-3.564,1,1,0,68,false,stim,false,1,412.7349997870624,0,0,0,32111,WMM2,2267614,false,false,2176,image-keyboard-response,51
true,14,1,0,1,true,z,false,true,0.0-2.0-0.62-0.565-3.565,1,1,0,90,false,stim,false,1,655.4800001904368,0,1,2,32111,WMM2,2269845,false,false,2179,image-keyboard-response,52
true,14,2,0,2,true,d,false,true,0.0-2.0-0.62-0.566-3.566,1,1,0,68,false,stim,false,2,2414.025000296533,0,1,1,32111,WMM2,2273845,false,false,2182,image-keyboard-response,53
true,14,1,0,1,true,z,false,false,0.0-2.0-0.63-0.567-3.567,1,1,0,90,false,stim,false,1,681.2100000679493,0,1,2,32111,WMM2,2276104,false,true,2185,image-keyboard-response,54
true,14,1,0,1,true,z,false,true,0.0-2.0-0.63-0.568-3.568,1,1,0,90,false,stim,false,1,335.80500027164817,0,1,2,32111,WMM2,2278014,false,false,2188,image-keyboard-response,55
true,14,1,0,2,false,d,true,false,0.0-2.0-0.63-0.569-3.569,1,1,0,90,false,stim,false,2,1206.83000003919,0,1,1,32111,WMM2,2280794,false,false,2191,image-keyboard-response,56
true,14,2,0,2,true,d,false,true,0.0-2.0-0.63-0.570-3.570,1,1,0,68,false,stim,false,2,429.9750002101064,0,1,1,32111,WMM2,2282804,false,false,2194,image-keyboard-response,57
true,14,1,0,1,true,z,false,true,0.0-2.0-0.63-0.571-3.571,1,1,0,90,false,stim,false,1,976.5749997459352,0,0,0,32111,WMM2,2285365,false,false,2197,image-keyboard-response,58
true,14,2,0,2,true,d,false,true,0.0-2.0-0.63-0.572-3.572,1,1,0,68,false,stim,false,2,812.1399995870888,0,1,1,32111,WMM2,2287755,false,false,2200,image-keyboard-response,59
true,14,1,0,1,true,z,false,true,0.0-2.0-0.63-0.573-3.573,1,1,0,90,false,stim,false,1,833.5699997842312,0,1,2,32111,WMM2,2290174,false,false,2203,image-keyboard-response,60
true,15,2,4,1,false,z,true,false,0.0-2.0-0.63-0.574-3.574,0,1,1,68,true,stim,false,1,927.7049996890128,0,0,0,32111,WMM2,2292674,false,false,2206,image-keyboard-response,1
true,15,1,4,1,true,z,false,true,0.0-2.0-0.63-0.575-3.575,0,1,1,90,false,stim,false,1,366.7550003156066,0,0,0,32111,WMM2,2294624,false,false,2209,image-keyboard-response,2
true,15,1,4,1,true,z,false,true,0.0-2.0-0.64-0.576-3.576,0,1,1,90,false,stim,false,1,427.14500008150935,0,0,0,32111,WMM2,2296626,false,false,2212,image-keyboard-response,3
true,15,1,4,1,true,z,false,true,0.0-2.0-0.64-0.577-3.577,0,1,1,90,false,stim,false,1,1578.9399999193847,0,1,2,32111,WMM2,2299785,false,false,2215,image-keyboard-response,4
true,15,1,4,1,true,z,false,true,0.0-2.0-0.64-0.578-3.578,0,1,1,90,false,stim,false,1,1103.205000050366,0,0,0,32111,WMM2,2302465,false,false,2218,image-keyboard-response,5
true,15,2,4,2,true,d,false,true,0.0-2.0-0.64-0.579-3.579,0,1,1,68,false,stim,false,2,1007.2150002233684,0,1,1,32111,WMM2,2305055,false,false,2221,image-keyboard-response,6
true,15,1,4,1,true,z,false,true,0.0-2.0-0.64-0.580-3.580,0,1,1,90,false,stim,false,1,621.8050001189113,0,1,2,32111,WMM2,2307261,false,false,2224,image-keyboard-response,7
true,15,1,4,1,true,z,false,true,0.0-2.0-0.64-0.581-3.581,0,1,1,90,false,stim,false,1,1380.575000308454,0,0,0,32111,WMM2,2310225,false,false,2227,image-keyboard-response,8
true,15,2,4,2,true,d,false,true,0.0-2.0-0.64-0.582-3.582,0,1,1,68,false,stim,false,2,378.22500010952353,0,1,1,32111,WMM2,2312185,false,false,2230,image-keyboard-response,9
true,15,1,4,1,true,z,false,false,0.0-2.0-0.64-0.583-3.583,0,1,1,90,false,stim,false,1,848.6350001767278,0,1,2,32111,WMM2,2314605,false,true,2233,image-keyboard-response,10
