answered,blockNum,choice,condition,corResp,correct,correct_response,explo,fb,internal_node_id,isStable_1,isStable_2,isStable_3,key_press,newBlock,part,persev,persevResp,rt,sessNum,stableAS,stimulus,subject,task,time_elapsed,training,trap,trial_index,trial_type,trialsInBlock
true,1,1,0,2,false,d,true,false,0.0-2.0-0.0-0.0-3.0,0,0,0,90,true,stim,false,-1,745.9000000059605,1,0,2,32111,WMM2,762312,false,false,121,image-keyboard-response,1
true,1,1,0,1,true,z,false,true,0.0-2.0-0.0-0.1-3.1,0,0,0,90,false,stim,false,-1,1134.2999999970198,1,0,0,32111,WMM2,764961,false,false,124,image-keyboard-response,2
true,1,0,0,2,false,d,true,false,0.0-2.0-0.0-0.2-3.2,0,0,0,81,false,stim,false,-1,839.8999999910593,1,0,1,32111,WMM2,767321,false,false,127,image-keyboard-response,3
true,1,1,0,1,true,z,false,true,0.0-2.0-0.0-0.3-3.3,0,0,0,90,false,stim,false,-1,425.09999999403954,1,0,0,32111,WMM2,769251,false,false,130,image-keyboard-response,4
true,1,2,0,2,true,d,false,true,0.0-2.0-0.0-0.4-3.4,0,0,0,68,false,stim,false,-1,945.4000000059605,1,0,2,32111,WMM2,771712,false,false,133,image-keyboard-response,5
true,1,1,0,1,true,z,false,true,0.0-2.0-0.0-0.5-3.5,0,0,0,90,false,stim,false,-1,617.3999999910593,1,0,0,32111,WMM2,773841,false,false,136,image-keyboard-response,6
true,1,1,0,2,false,d,true,false,0.0-2.0-0.0-0.6-3.6,0,0,0,90,false,stim,false,-1,1836.0,1,0,1,32111,WMM2,777191,false,false,139,image-keyboard-response,7
true,1,0,0,2,false,d,true,false,0.0-2.0-0.0-0.7-3.7,0,0,0,81,false,stim,false,-1,1061.2000000029802,1,0,2,32111,WMM2,779771,false,false,142,image-keyboard-response,8
true,1,1,0,2,false,d,true,true,0.0-2.0-0.0-0.8-3.8,0,0,0,90,false,stim,false,-1,2218.7999999970198,1,0,1,32111,WMM2,783512,false,true,145,image-keyboard-response,9
true,1,1,0,1,true,z,false,true,0.0-2.0-0.1-0.9-3.9,0,0,0,90,false,stim,false,-1,1285.0,1,0,0,32111,WMM2,786312,false,false,148,image-keyboard-response,10
true,1,1,0,2,false,d,true,false,0.0-2.0-0.1-0.10-3.10,0,0,0,90,false,stim,false,-1,1811.7999999970198,1,0,1,32111,WMM2,789642,false,false,151,image-keyboard-response,11
true,1,0,0,2,false,d,true,false,0.0-2.0-0.1-0.11-3.11,0,0,0,81,false,stim,false,-1,737.7999999970198,1,0,1,32111,WMM2,791902,false,false,154,image-keyboard-response,12
true,1,1,0,2,false,d,true,false,0.0-2.0-0.1-0.12-3.12,0,0,0,90,false,stim,false,-1,1027.800000011921,1,0,2,32111,WMM2,794442,false,false,157,image-keyboard-response,13
true,1,1,0,2,false,d,true,false,0.0-2.0-0.1-0.13-3.13,0,0,0,90,false,stim,false,-1,1653.7999999970198,1,0,1,32111,WMM2,797612,false,false,160,image-keyboard-response,14
true,1,2,0,2,true,d,false,true,0.0-2.0-0.1-0.14-3.14,0,0,0,68,false,stim,false,-1,2187.0,1,0,2,32111,WMM2,801312,false,false,163,image-keyboard-response,15
true,1,2,0,1,false,z,true,false,0.0-2.0-0.1-0.15-3.15,0,0,0,68,false,stim,false,-1,1938.2999999970198,1,0,0,32111,WMM2,804763,false,false,166,image-keyboard-response,16
true,1,1,0,1,true,z,false,true,0.0-2.0-0.1-0.16-3.16,0,0,0,90,false,stim,false,-1,1426.3999999910593,1,0,0,32111,WMM2,807692,false,false,169,image-keyboard-response,17
true,1,2,0,2,true,d,false,true,0.0-2.0-0.1-0.17-3.17,0,0,0,68,false,stim,false,-1,1029.5999999940395,1,0,2,32111,WMM2,810232,false,false,172,image-keyboard-response,18
true,1,2,0,2,true,d,false,true,0.0-2.0-0.2-0.18-3.18,0,0,0,68,false,stim,false,-1,674.9000000059605,1,0,2,32111,WMM2,812432,false,false,175,image-keyboard-response,19
true,1,1,0,2,false,d,true,false,0.0-2.0-0.2-0.19-3.19,0,0,0,90,false,stim,false,-1,1768.9000000059605,1,0,1,32111,WMM2,815713,false,false,178,image-keyboard-response,20
true,1,2,0,2,true,d,false,true,0.0-2.0-0.2-0.20-3.20,0,0,0,68,false,stim,false,-1,1241.7999999970198,1,0,2,32111,WMM2,818462,false,false,181,image-keyboard-response,21
true,1,0,0,2,false,d,true,false,0.0-2.0-0.2-0.21-3.21,0,0,0,81,false,stim,false,-1,1110.2999999970198,1,0,1,32111,WMM2,821082,false,false,184,image-keyboard-response,22
true,1,1,0,1,true,z,false,true,0.0-2.0-0.2-0.22-3.22,0,0,0,90,false,stim,false,-1,1220.3999999910593,1,0,0,32111,WMM2,823813,false,false,187,image-keyboard-response,23
true,1,2,0,2,true,d,false,true,0.0-2.0-0.2-0.23-3.23,0,0,0,68,false,stim,false,-1,458.79999999701977,1,0,2,32111,WMM2,825793,false,false,190,image-keyboard-response,24
true,1,2,0,2,true,d,false,true,0.0-2.0-0.2-0.24-3.24,0,0,0,68,false,stim,false,-1,1007.5,1,0,1,32111,WMM2,828323,false,false,193,image-keyboard-response,25
true,1,1,0,1,true,z,false,true,0.0-2.0-0.2-0.25-3.25,0,0,0,90,false,stim,false,-1,2206.7000000029802,1,0,0,32111,WMM2,832043,false,false,196,image-keyboard-response,26
true,1,1,0,1,true,z,false,true,0.0-2.0-0.2-0.26-3.26,0,0,0,90,false,stim,false,-1,652.7000000029802,1,0,0,32111,WMM2,834213,false,false,199,image-keyboard-response,27
true,1,2,0,2,true,d,false,true,0.0-2.0-0.3-0.27-3.27,0,0,0,68,false,stim,false,-1,1874.7999999970198,1,0,1,32111,WMM2,837613,false,false,202,image-keyboard-response,28
true,1,2,0,2,true,d,false,true,0.0-2.0-0.3-0.28-3.28,0,0,0,68,false,stim,false,-1,1224.0999999940395,1,1,2,32111,WMM2,840344,false,false,205,image-keyboard-response,29
true,1,2,0,2,true,d,false,true,0.0-2.0-0.3-0.29-3.29,0,0,0,68,false,stim,false,-1,418.5,1,1,2,32111,WMM2,842274,false,false,208,image-keyboard-response,30
true,1,2,0,2,true,d,false,false,0.0-2.0-0.3-0.30-3.30,0,0,0,68,false,stim,false,-1,433.0,1,1,2,32111,WMM2,844214,false,true,211,image-keyboard-response,31
true,1,2,0,2,true,d,false,true,0.0-2.0-0.3-0.31-3.31,0,0,0,68,false,stim,false,-1,859.0,1,0,1,32111,WMM2,846593,false,false,214,image-keyboard-response,32
true,1,1,0,1,true,z,false,false,0.0-2.0-0.3-0.32-3.32,0,0,0,90,false,stim,false,-1,1069.1000000089407,1,1,0,32111,WMM2,849174,false,true,217,image-keyboard-response,33
true,1,2,0,2,true,d,false,true,0.0-2.0-0.3-0.33-3.33,0,0,0,68,false,stim,false,-1,1562.1000000089407,1,0,1,32111,WMM2,852254,false,false,220,image-keyboard-response,34
true,1,2,0,1,false,z,true,false,0.0-2.0-0.3-0.34-3.34,0,0,0,68,false,stim,false,-1,2450.5,1,1,0,32111,WMM2,856214,false,false,223,image-keyboard-response,35
true,1,1,0,1,true,z,false,true,0.0-2.0-0.3-0.35-3.35,0,0,0,90,false,stim,false,-1,528.0,1,1,0,32111,WMM2,858264,false,false,226,image-keyboard-response,36
true,1,2,0,2,true,d,false,true,0.0-2.0-0.4-0.36-3.36,0,0,0,68,false,stim,false,-1,934.9000000059605,1,0,1,32111,WMM2,860724,false,false,229,image-keyboard-response,37
true,1,2,0,2,true,d,false,true,0.0-2.0-0.4-0.37-3.37,0,0,0,68,false,stim,false,-1,741.5,1,1,2,32111,WMM2,862984,false,false,232,image-keyboard-response,38
true,2,1,4,1,true,z,false,false,0.0-2.0-0.4-0.38-3.38,1,0,1,90,true,stim,false,1,1462.1000000089407,1,1,0,32111,WMM2,865964,false,true,235,image-keyboard-response,1
true,2,2,4,2,true,d,false,true,0.0-2.0-0.4-0.39-3.39,1,0,1,68,false,stim,false,2,812.6000000089407,1,1,2,32111,WMM2,868284,false,false,238,image-keyboard-response,2
true,2,2,4,2,true,d,false,true,0.0-2.0-0.4-0.40-3.40,1,0,1,68,false,stim,false,2,1039.300000011921,1,0,1,32111,WMM2,870834,false,false,241,image-keyboard-response,3
true,2,0,4,1,false,z,true,true,0.0-2.0-0.4-0.41-3.41,1,0,1,81,false,stim,false,1,1429.7000000029802,1,1,0,32111,WMM2,873774,false,true,244,image-keyboard-response,4
true,2,0,4,1,false,z,true,false,0.0-2.0-0.4-0.42-3.42,1,0,1,81,false,stim,false,1,512.7000000029802,1,1,0,32111,WMM2,875794,false,false,247,image-keyboard-response,5
true,2,2,4,2,true,d,false,true,0.0-2.0-0.4-0.43-3.43,1,0,1,68,false,stim,false,2,1041.0,1,0,1,32111,WMM2,878354,false,false,250,image-keyboard-response,6
true,2,2,4,2,true,d,false,true,0.0-2.0-0.4-0.44-3.44,1,0,1,68,false,stim,false,2,439.90000000596046,1,1,2,32111,WMM2,880304,false,false,253,image-keyboard-response,7
true,2,0,4,1,false,z,true,true,0.0-2.0-0.5-0.45-3.45,1,0,1,81,false,stim,false,1,2463.2999999970198,1,1,0,32111,WMM2,884284,false,true,256,image-keyboard-response,8
true,2,2,4,2,true,d,false,false,0.0-2.0-0.5-0.46-3.46,1,0,1,68,false,stim,false,2,636.1000000089407,1,0,1,32111,WMM2,886443,false,true,259,image-keyboard-response,9
true,2,2,4,2,true,d,false,true,0.0-2.0-0.5-0.47-3.47,1,0,1,68,false,stim,false,2,594.6000000089407,1,0,1,32111,WMM2,888553,false,false,262,image-keyboard-response,10
true,2,2,4,2,true,d,false,true,0.0-2.0-0.5-0.48-3.48,1,0,1,68,false,stim,false,2,674.1000000089407,1,1,2,32111,WMM2,890733,false,false,265,image-keyboard-response,11
true,2,0,4,1,false,z,true,false,0.0-2.0-0.5-0.49-3.49,1,0,1,81,false,stim,false,1,1540.0999999940395,1,1,0,32111,WMM2,893794,false,false,268,image-keyboard-response,12
true,2,2,4,2,true,d,false,true,0.0-2.0-0.5-0.50-3.50,1,0,1,68,false,stim,false,2,1247.4000000059605,1,1,2,32111,WMM2,896545,false,false,271,image-keyboard-response,13
true,2,0,4,1,false,z,true,false,0.0-2.0-0.5-0.51-3.51,1,0,1,81,false,stim,false,1,932.5,1,1,0,32111,WMM2,899004,false,false,274,image-keyboard-response,14
true,2,2,4,2,true,d,false,true,0.0-2.0-0.5-0.52-3.52,1,0,1,68,false,stim,false,2,1784.7000000029802,1,0,1,32111,WMM2,902294,false,false,277,image-keyboard-response,15
true,2,2,4,2,true,d,false,true,0.0-2.0-0.5-0.53-3.53,1,0,1,68,false,stim,false,2,760.6999999880791,1,1,2,32111,WMM2,904574,false,false,280,image-keyboard-response,16
true,2,2,4,2,true,d,false,true,0.0-2.0-0.6-0.54-3.54,1,0,1,68,false,stim,false,2,491.70000000298023,1,1,2,32111,WMM2,906585,false,false,283,image-keyboard-response,17
true,2,2,4,2,true,d,false,false,0.0-2.0-0.6-0.55-3.55,1,0,1,68,false,stim,false,2,1942.7000000029802,1,0,1,32111,WMM2,910054,false,true,286,image-keyboard-response,18
true,2,1,4,2,false,d,true,false,0.0-2.0-0.6-0.56-3.56,1,0,1,90,false,stim,false,2,639.0999999940395,1,0,1,32111,WMM2,912204,false,false,289,image-keyboard-response,19
true,2,0,4,1,false,z,true,false,0.0-2.0-0.6-0.57-3.57,1,0,1,81,false,stim,false,1,1681.9000000059605,1,1,0,32111,WMM2,915404,false,false,292,image-keyboard-response,20
true,2,2,4,2,true,d,false,true,0.0-2.0-0.6-0.58-3.58,1,0,1,68,false,stim,false,2,707.2000000029802,1,1,2,32111,WMM2,917625,false,false,295,image-keyboard-response,21
true,2,2,4,2,true,d,false,true,0.0-2.0-0.6-0.59-3.59,1,0,1,68,false,stim,false,2,544.7999999970198,1,1,2,32111,WMM2,919684,false,false,298,image-keyboard-response,22
true,2,0,4,1,false,z,true,false,0.0-2.0-0.6-0.60-3.60,1,0,1,81,false,stim,false,1,2189.0999999940395,1,1,0,32111,WMM2,923394,false,false,301,image-keyboard-response,23
true,2,1,4,2,false,d,true,false,0.0-2.0-0.6-0.61-3.61,1,0,1,90,false,stim,false,2,948.1000000089407,1,0,1,32111,WMM2,925854,false,false,304,image-keyboard-response,24
true,2,2,4,1,false,z,true,false,0.0-2.0-0.6-0.62-3.62,1,0,1,68,false,stim,false,1,2182.5,1,1,0,32111,WMM2,929555,false,false,307,image-keyboard-response,25
true,2,0,4,2,false,d,true,false,0.0-2.0-0.7-0.63-3.63,1,0,1,81,false,stim,false,2,1848.5,1,0,1,32111,WMM2,932914,false,false,310,image-keyboard-response,26
true,2,2,4,2,true,d,false,true,0.0-2.0-0.7-0.64-3.64,1,0,1,68,false,stim,false,2,702.6999999880791,1,1,2,32111,WMM2,935134,false,false,313,image-keyboard-response,27
true,2,2,4,2,true,d,false,true,0.0-2.0-0.7-0.65-3.65,1,0,1,68,false,stim,false,2,424.69999998807907,1,1,2,32111,WMM2,937064,false,false,316,image-keyboard-response,28
true,2,1,4,2,false,d,true,true,0.0-2.0-0.7-0.66-3.66,1,0,1,90,false,stim,false,2,1304.5,1,0,1,32111,WMM2,939885,false,true,319,image-keyboard-response,29
true,2,2,4,2,true,d,false,true,0.0-2.0-0.7-0.67-3.67,1,0,1,68,false,stim,false,2,552.7999999970198,1,1,2,32111,WMM2,941954,false,false,322,image-keyboard-response,30
true,2,1,4,2,false,d,true,true,0.0-2.0-0.7-0.68-3.68,1,0,1,90,false,stim,false,2,524.1000000089407,1,0,1,32111,WMM2,943994,false,true,325,image-keyboard-response,31
true,2,0,4,1,false,z,true,false,0.0-2.0-0.7-0.69-3.69,1,0,1,81,false,stim,false,1,464.90000000596046,1,1,0,32111,WMM2,945974,false,false,328,image-keyboard-response,32
true,2,1,4,1,true,z,false,true,0.0-2.0-0.7-0.70-3.70,1,0,1,90,false,stim,false,1,520.7999999970198,1,1,0,32111,WMM2,948004,false,false,331,image-keyboard-response,33
true,2,1,4,1,true,z,false,true,0.0-2.0-0.7-0.71-3.71,1,0,1,90,false,stim,false,1,404.8999999910593,1,1,0,32111,WMM2,949914,false,false,334,image-keyboard-response,34
true,2,1,4,2,false,d,true,false,0.0-2.0-0.8-0.72-3.72,1,0,1,90,false,stim,false,2,709.2000000029802,1,0,1,32111,WMM2,952135,false,false,337,image-keyboard-response,35
true,2,2,4,2,true,d,false,true,0.0-2.0-0.8-0.73-3.73,1,0,1,68,false,stim,false,2,390.90000000596046,1,1,2,32111,WMM2,954045,false,false,340,image-keyboard-response,36
true,2,2,4,2,true,d,false,true,0.0-2.0-0.8-0.74-3.74,1,0,1,68,false,stim,false,2,559.1000000089407,1,1,2,32111,WMM2,956125,false,false,343,image-keyboard-response,37
true,2,1,4,1,true,z,false,true,0.0-2.0-0.8-0.75-3.75,1,0,1,90,false,stim,false,1,1124.9000000059605,1,1,0,32111,WMM2,958765,false,false,346,image-keyboard-response,38
true,2,1,4,2,false,d,true,false,0.0-2.0-0.8-0.76-3.76,1,0,1,90,false,stim,false,2,856.1000000089407,1,0,1,32111,WMM2,961146,false,false,349,image-keyboard-response,39
true,2,2,4,2,true,d,false,true,0.0-2.0-0.8-0.77-3.77,1,0,1,68,false,stim,false,2,522.4000000059605,1,1,2,32111,WMM2,963175,false,false,352,image-keyboard-response,40
true,2,1,4,1,true,z,false,false,0.0-2.0-0.8-0.78-3.78,1,0,1,90,false,stim,false,1,1417.0,1,1,0,32111,WMM2,966105,false,true,355,image-keyboard-response,41
true,2,1,4,2,false,d,true,false,0.0-2.0-0.8-0.79-3.79,1,0,1,90,false,stim,false,2,1191.1000000089407,1,0,1,32111,WMM2,968815,false,false,358,image-keyboard-response,42
true,2,0,4,1,false,z,true,false,0.0-2.0-0.8-0.80-3.80,1,0,1,81,false,stim,false,1,1198.300000011921,1,1,0,32111,WMM2,971526,false,false,361,image-keyboard-response,43
true,2,2,4,1,false,z,true,false,0.0-2.0-0.9-0.81-3.81,1,0,1,68,false,stim,false,1,701.1999999880791,1,1,0,32111,WMM2,973735,false,false,364,image-keyboard-response,44
true,2,2,4,2,true,d,false,true,0.0-2.0-0.9-0.82-3.82,1,0,1,68,false,stim,false,2,874.6999999880791,1,1,2,32111,WMM2,976125,false,false,367,image-keyboard-response,45
true,2,1,4,1,true,z,false,true,0.0-2.0-0.9-0.83-3.83,1,0,1,90,false,stim,false,1,806.4000000059605,1,1,0,32111,WMM2,978455,false,false,370,image-keyboard-response,46
true,2,1,4,2,false,d,true,false,0.0-2.0-0.9-0.84-3.84,1,0,1,90,false,stim,false,2,1053.5,1,0,1,32111,WMM2,981025,false,false,373,image-keyboard-response,47
true,2,1,4,1,true,z,false,true,0.0-2.0-0.9-0.85-3.85,1,0,1,90,false,stim,false,1,748.9000000059605,1,1,0,32111,WMM2,983295,false,false,376,image-keyboard-response,48
true,2,0,4,2,false,d,true,false,0.0-2.0-0.9-0.86-3.86,1,0,1,81,false,stim,false,2,1427.2999999970198,1,0,1,32111,WMM2,986245,false,false,379,image-keyboard-response,49
true,2,2,4,2,true,d,false,true,0.0-2.0-0.9-0.87-3.87,1,0,1,68,false,stim,false,2,638.0,1,1,2,32111,WMM2,988395,false,false,382,image-keyboard-response,50
true,2,2,4,2,true,d,false,true,0.0-2.0-0.9-0.88-3.88,1,0,1,68,false,stim,false,2,536.8999999910593,1,1,2,32111,WMM2,990445,false,false,385,image-keyboard-response,51
true,2,2,4,2,true,d,false,true,0.0-2.0-0.9-0.89-3.89,1,0,1,68,false,stim,false,2,538.3999999910593,1,1,1,32111,WMM2,992505,false,false,388,image-keyboard-response,52
true,2,2,4,2,true,d,false,true,0.0-2.0-0.10-0.90-3.90,1,0,1,68,false,stim,false,2,593.0999999940395,1,1,2,32111,WMM2,994616,false,false,391,image-keyboard-response,53
true,2,2,4,2,true,d,false,true,0.0-2.0-0.10-0.91-3.91,1,0,1,68,false,stim,false,2,504.69999998807907,1,1,1,32111,WMM2,996635,false,false,394,image-keyboard-response,54
true,2,1,4,1,true,z,false,true,0.0-2.0-0.10-0.92-3.92,1,0,1,90,false,stim,false,1,2320.8999999910593,1,0,0,32111,WMM2,1000465,false,false,397,image-keyboard-response,55
true,2,2,4,2,true,d,false,true,0.0-2.0-0.10-0.93-3.93,1,0,1,68,false,stim,false,2,1638.1000000089407,1,1,1,32111,WMM2,1003625,false,false,400,image-keyboard-response,56
true,2,1,4,1,true,z,false,false,0.0-2.0-0.10-0.94-3.94,1,0,1,90,false,stim,false,1,934.7999999970198,1,0,0,32111,WMM2,1006086,false,true,403,image-keyboard-response,57
true,2,0,4,1,false,z,true,false,0.0-2.0-0.10-0.95-3.95,1,0,1,81,false,stim,false,1,1702.2999999970198,1,0,0,32111,WMM2,1009306,false,false,406,image-keyboard-response,58
true,2,1,4,2,false,d,true,false,0.0-2.0-0.10-0.96-3.96,1,0,1,90,false,stim,false,2,2254.7000000029802,1,1,1,32111,WMM2,1013066,false,false,409,image-keyboard-response,59
true,2,2,4,2,true,d,false,false,0.0-2.0-0.10-0.97-3.97,1,0,1,68,false,stim,false,2,607.8999999910593,1,1,2,32111,WMM2,1015196,false,true,412,image-keyboard-response,60
true,3,2,3,2,true,d,false,true,0.0-2.0-0.10-0.98-3.98,0,1,1,68,true,stim,false,2,539.3000000119209,1,1,2,32111,WMM2,1017247,false,false,415,image-keyboard-response,1
true,3,2,3,2,true,d,false,false,0.0-2.0-0.11-0.99-3.99,0,1,1,68,false,stim,false,2,373.3999999910593,1,1,2,32111,WMM2,1019136,false,true,418,image-keyboard-response,2
true,3,2,3,2,true,d,false,true,0.0-2.0-0.11-0.100-3.100,0,1,1,68,false,stim,false,2,733.5,1,1,1,32111,WMM2,1021376,false,false,421,image-keyboard-response,3
true,3,2,3,0,false,q,true,false,0.0-2.0-0.11-0.101-3.101,0,1,1,68,false,stim,false,1,1483.0,1,0,0,32111,WMM2,1024366,false,false,424,image-keyboard-response,4
true,3,1,3,2,false,d,true,false,0.0-2.0-0.11-0.102-3.102,0,1,1,90,false,stim,false,2,908.0,1,1,1,32111,WMM2,1026796,false,false,427,image-keyboard-response,5
true,3,2,3,2,true,d,false,true,0.0-2.0-0.11-0.103-3.103,0,1,1,68,false,stim,false,2,575.7000000029802,1,1,2,32111,WMM2,1028887,false,false,430,image-keyboard-response,6
true,3,2,3,2,true,d,false,false,0.0-2.0-0.11-0.104-3.104,0,1,1,68,false,stim,false,2,387.20000000298023,1,1,1,32111,WMM2,1030786,false,true,433,image-keyboard-response,7
true,3,2,3,2,true,d,false,true,0.0-2.0-0.11-0.105-3.105,0,1,1,68,false,stim,false,2,584.1999999880791,1,1,2,32111,WMM2,1032886,false,false,436,image-keyboard-response,8
true,3,1,3,0,false,q,false,false,0.0-2.0-0.11-0.106-3.106,0,1,1,90,false,stim,true,1,1033.0,1,0,0,32111,WMM2,1035436,false,false,439,image-keyboard-response,9
true,3,2,3,0,false,q,true,false,0.0-2.0-0.11-0.107-3.107,0,1,1,68,false,stim,false,1,381.09999999403954,1,0,0,32111,WMM2,1037326,false,false,442,image-keyboard-response,10
true,3,0,3,0,true,q,false,true,0.0-2.0-0.12-0.108-3.108,0,1,1,81,false,stim,false,1,579.2999999970198,1,0,0,32111,WMM2,1039427,false,false,445,image-keyboard-response,11
true,3,2,3,2,true,d,false,true,0.0-2.0-0.12-0.109-3.109,0,1,1,68,false,stim,false,2,1269.699999988079,1,1,2,32111,WMM2,1042206,false,false,448,image-keyboard-response,12
true,3,1,3,2,false,d,true,false,0.0-2.0-0.12-0.110-3.110,0,1,1,90,false,stim,false,2,775.7000000029802,1,1,1,32111,WMM2,1044496,false,false,451,image-keyboard-response,13
true,3,2,3,2,true,d,false,false,0.0-2.0-0.12-0.111-3.111,0,1,1,68,false,stim,false,2,619.5999999940395,1,1,2,32111,WMM2,1046626,false,true,454,image-keyboard-response,14
true,3,2,3,2,true,d,false,false,0.0-2.0-0.12-0.112-3.112,0,1,1,68,false,stim,false,2,1110.5999999940395,1,1,1,32111,WMM2,1049256,false,true,457,image-keyboard-response,15
true,3,0,3,2,false,d,true,false,0.0-2.0-0.12-0.113-3.113,0,1,1,81,false,stim,false,2,551.2000000029802,1,1,1,32111,WMM2,1051326,false,false,460,image-keyboard-response,16
true,3,2,3,2,true,d,false,true,0.0-2.0-0.12-0.114-3.114,0,1,1,68,false,stim,false,2,802.7999999970198,1,1,2,32111,WMM2,1053646,false,false,463,image-keyboard-response,17
true,3,1,3,0,false,q,false,false,0.0-2.0-0.12-0.115-3.115,0,1,1,90,false,stim,true,1,1380.0,1,0,0,32111,WMM2,1056546,false,false,466,image-keyboard-response,18
true,3,2,3,0,false,q,true,false,0.0-2.0-0.12-0.116-3.116,0,1,1,68,false,stim,false,1,354.3999999910593,1,0,0,32111,WMM2,1058416,false,false,469,image-keyboard-response,19
true,3,2,3,2,true,d,false,true,0.0-2.0-0.13-0.117-3.117,0,1,1,68,false,stim,false,2,720.2000000029802,1,1,2,32111,WMM2,1060647,false,false,472,image-keyboard-response,20
true,3,0,3,0,true,q,false,true,0.0-2.0-0.13-0.118-3.118,0,1,1,81,false,stim,false,1,719.7999999970198,1,0,0,32111,WMM2,1062877,false,false,475,image-keyboard-response,21
true,3,0,3,0,true,q,false,true,0.0-2.0-0.13-0.119-3.119,0,1,1,81,false,stim,false,1,848.0,1,0,0,32111,WMM2,1065247,false,false,478,image-keyboard-response,22
true,3,0,3,2,false,d,true,false,0.0-2.0-0.13-0.120-3.120,0,1,1,81,false,stim,false,2,1600.7999999970198,1,1,1,32111,WMM2,1068367,false,false,481,image-keyboard-response,23
true,3,0,3,0,true,q,false,true,0.0-2.0-0.13-0.121-3.121,0,1,1,81,false,stim,false,1,938.1999999880791,1,0,0,32111,WMM2,1070817,false,false,484,image-keyboard-response,24
true,3,2,3,2,true,d,false,true,0.0-2.0-0.13-0.122-3.122,0,1,1,68,false,stim,false,2,1676.0,1,1,1,32111,WMM2,1074007,false,false,487,image-keyboard-response,25
true,3,2,3,2,true,d,false,true,0.0-2.0-0.13-0.123-3.123,0,1,1,68,false,stim,false,2,373.29999999701977,1,1,1,32111,WMM2,1075887,false,false,490,image-keyboard-response,26
true,3,2,3,2,true,d,false,true,0.0-2.0-0.13-0.124-3.124,0,1,1,68,false,stim,false,2,346.69999998807907,1,0,2,32111,WMM2,1077747,false,false,493,image-keyboard-response,27
true,3,2,3,2,true,d,false,true,0.0-2.0-0.13-0.125-3.125,0,1,1,68,false,stim,false,2,437.59999999403954,1,0,2,32111,WMM2,1079697,false,false,496,image-keyboard-response,28
true,3,2,3,2,true,d,false,true,0.0-2.0-0.14-0.126-3.126,0,1,1,68,false,stim,false,2,471.70000000298023,1,0,2,32111,WMM2,1081688,false,false,499,image-keyboard-response,29
true,3,2,3,2,true,d,false,true,0.0-2.0-0.14-0.127-3.127,0,1,1,68,false,stim,false,2,1144.300000011921,1,1,1,32111,WMM2,1084367,false,false,502,image-keyboard-response,30
true,3,0,3,0,true,q,false,true,0.0-2.0-0.14-0.128-3.128,0,1,1,81,false,stim,false,1,769.5,1,1,0,32111,WMM2,1086647,false,false,505,image-keyboard-response,31
true,3,0,3,0,true,q,false,true,0.0-2.0-0.14-0.129-3.129,0,1,1,81,false,stim,false,1,411.6000000089407,1,1,0,32111,WMM2,1088577,false,false,508,image-keyboard-response,32
true,3,0,3,0,true,q,false,true,0.0-2.0-0.14-0.130-3.130,0,1,1,81,false,stim,false,1,414.0,1,1,0,32111,WMM2,1090507,false,false,511,image-keyboard-response,33
true,3,2,3,2,true,d,false,true,0.0-2.0-0.14-0.131-3.131,0,1,1,68,false,stim,false,2,746.0,1,1,1,32111,WMM2,1092767,false,false,514,image-keyboard-response,34
true,3,2,3,2,true,d,false,true,0.0-2.0-0.14-0.132-3.132,0,1,1,68,false,stim,false,2,564.6000000089407,1,0,2,32111,WMM2,1094847,false,false,517,image-keyboard-response,35
true,3,2,3,2,true,d,false,true,0.0-2.0-0.14-0.133-3.133,0,1,1,68,false,stim,false,2,477.29999999701977,1,0,2,32111,WMM2,1096837,false,false,520,image-keyboard-response,36
true,4,0,4,2,false,d,true,true,0.0-2.0-0.14-0.134-3.134,1,1,0,81,true,stim,false,2,2048.0,1,1,1,32111,WMM2,1100397,false,true,523,image-keyboard-response,1
true,4,2,4,2,true,d,false,true,0.0-2.0-0.15-0.135-3.135,1,1,0,68,false,stim,false,2,702.5,1,0,2,32111,WMM2,1102617,false,false,526,image-keyboard-response,2
true,4,0,4,2,false,d,true,true,0.0-2.0-0.15-0.136-3.136,1,1,0,81,false,stim,false,2,956.0,1,1,1,32111,WMM2,1105087,false,true,529,image-keyboard-response,3
true,4,0,4,0,true,q,false,true,0.0-2.0-0.15-0.137-3.137,1,1,0,81,false,stim,false,0,1105.7000000029802,1,1,0,32111,WMM2,1107717,false,false,532,image-keyboard-response,4
true,4,2,4,2,true,d,false,true,0.0-2.0-0.15-0.138-3.138,1,1,0,68,false,stim,false,2,572.1999999880791,1,0,2,32111,WMM2,1109807,false,false,535,image-keyboard-response,5
true,4,0,4,0,true,q,false,true,0.0-2.0-0.15-0.139-3.139,1,1,0,81,false,stim,false,0,1586.2999999970198,1,1,0,32111,WMM2,1112907,false,false,538,image-keyboard-response,6
true,4,0,4,0,true,q,false,true,0.0-2.0-0.15-0.140-3.140,1,1,0,81,false,stim,false,0,461.09999999403954,1,1,0,32111,WMM2,1114877,false,false,541,image-keyboard-response,7
true,4,0,4,2,false,d,true,true,0.0-2.0-0.15-0.141-3.141,1,1,0,81,false,stim,false,2,499.20000000298023,1,1,1,32111,WMM2,1116888,false,true,544,image-keyboard-response,8
true,4,0,4,2,false,d,true,false,0.0-2.0-0.15-0.142-3.142,1,1,0,81,false,stim,false,2,469.19999998807907,1,1,1,32111,WMM2,1118878,false,false,547,image-keyboard-response,9
true,4,2,4,2,true,d,false,false,0.0-2.0-0.15-0.143-3.143,1,1,0,68,false,stim,false,2,673.7999999970198,1,0,2,32111,WMM2,1121058,false,true,550,image-keyboard-response,10
true,4,0,4,0,true,q,false,true,0.0-2.0-0.16-0.144-3.144,1,1,0,81,false,stim,false,0,1961.2000000029802,1,1,0,32111,WMM2,1124538,false,false,553,image-keyboard-response,11
true,4,1,4,2,false,d,true,false,0.0-2.0-0.16-0.145-3.145,1,1,0,90,false,stim,false,2,1345.2000000029802,1,0,2,32111,WMM2,1127399,false,false,556,image-keyboard-response,12
true,4,0,4,2,false,d,true,true,0.0-2.0-0.16-0.146-3.146,1,1,0,81,false,stim,false,2,1449.5999999940395,1,1,1,32111,WMM2,1130368,false,true,559,image-keyboard-response,13
true,4,0,4,2,false,d,true,false,0.0-2.0-0.16-0.147-3.147,1,1,0,81,false,stim,false,2,895.1000000089407,1,0,2,32111,WMM2,1132788,false,false,562,image-keyboard-response,14
true,4,0,4,2,false,d,true,false,0.0-2.0-0.16-0.148-3.148,1,1,0,81,false,stim,false,2,653.3999999910593,1,1,1,32111,WMM2,1134948,false,false,565,image-keyboard-response,15
true,4,2,4,2,true,d,false,true,0.0-2.0-0.16-0.149-3.149,1,1,0,68,false,stim,false,2,978.5999999940395,1,1,1,32111,WMM2,1137439,false,false,568,image-keyboard-response,16
true,4,2,4,2,true,d,false,true,0.0-2.0-0.16-0.150-3.150,1,1,0,68,false,stim,false,2,789.5999999940395,1,0,2,32111,WMM2,1139748,false,false,571,image-keyboard-response,17
true,4,2,4,0,false,q,true,false,0.0-2.0-0.16-0.151-3.151,1,1,0,68,false,stim,false,0,1832.0999999940395,1,1,0,32111,WMM2,1143088,false,false,574,image-keyboard-response,18
true,4,0,4,0,true,q,false,true,0.0-2.0-0.16-0.152-3.152,1,1,0,81,false,stim,false,0,839.5999999940395,1,1,0,32111,WMM2,1145448,false,false,577,image-keyboard-response,19
true,4,2,4,2,true,d,false,true,0.0-2.0-0.17-0.153-3.153,1,1,0,68,false,stim,false,2,748.7999999970198,1,0,2,32111,WMM2,1147708,false,false,580,image-keyboard-response,20
true,4,2,4,2,true,d,false,true,0.0-2.0-0.17-0.154-3.154,1,1,0,68,false,stim,false,2,788.5,1,0,2,32111,WMM2,1150018,false,false,583,image-keyboard-response,21
true,4,0,4,2,false,d,true,true,0.0-2.0-0.17-0.155-3.155,1,1,0,81,false,stim,false,2,1966.0999999940395,1,1,1,32111,WMM2,1153508,false,true,586,image-keyboard-response,22
true,4,2,4,0,false,q,true,false,0.0-2.0-0.17-0.156-3.156,1,1,0,68,false,stim,false,0,1375.8999999910593,1,1,0,32111,WMM2,1156398,false,false,589,image-keyboard-response,23
true,4,0,4,2,false,d,true,false,0.0-2.0-0.17-0.157-3.157,1,1,0,81,false,stim,false,2,708.2999999970198,1,1,1,32111,WMM2,1158619,false,false,592,image-keyboard-response,24
true,4,2,4,2,true,d,false,true,0.0-2.0-0.17-0.158-3.158,1,1,0,68,false,stim,false,2,784.2999999970198,1,0,2,32111,WMM2,1160918,false,false,595,image-keyboard-response,25
true,4,2,4,2,true,d,false,true,0.0-2.0-0.17-0.159-3.159,1,1,0,68,false,stim,false,2,891.7999999970198,1,1,1,32111,WMM2,1163318,false,false,598,image-keyboard-response,26
true,4,0,4,0,true,q,false,true,0.0-2.0-0.17-0.160-3.160,1,1,0,81,false,stim,false,0,1196.5999999940395,1,1,0,32111,WMM2,1166028,false,false,601,image-keyboard-response,27
true,4,0,4,0,true,q,false,true,0.0-2.0-0.17-0.161-3.161,1,1,0,81,false,stim,false,0,463.59999999403954,1,1,0,32111,WMM2,1167998,false,false,604,image-keyboard-response,28
true,4,2,4,2,true,d,false,true,0.0-2.0-0.18-0.162-3.162,1,1,0,68,false,stim,false,2,396.29999999701977,1,0,2,32111,WMM2,1169909,false,false,607,image-keyboard-response,29
true,4,2,4,2,true,d,false,true,0.0-2.0-0.18-0.163-3.163,1,1,0,68,false,stim,false,2,449.6000000089407,1,0,2,32111,WMM2,1171879,false,false,610,image-keyboard-response,30
true,4,2,4,2,true,d,false,true,0.0-2.0-0.18-0.164-3.164,1,1,0,68,false,stim,false,2,576.5999999940395,1,1,1,32111,WMM2,1173979,false,false,613,image-keyboard-response,31
true,4,0,4,0,true,q,false,true,0.0-2.0-0.18-0.165-3.165,1,1,0,81,false,stim,false,0,494.0,1,1,0,32111,WMM2,1175979,false,false,616,image-keyboard-response,32
true,4,0,4,0,true,q,false,true,0.0-2.0-0.18-0.166-3.166,1,1,0,81,false,stim,false,0,573.1999999880791,1,1,0,32111,WMM2,1178059,false,false,619,image-keyboard-response,33
true,4,2,4,2,true,d,false,true,0.0-2.0-0.18-0.167-3.167,1,1,0,68,false,stim,false,2,1063.0,1,0,1,32111,WMM2,1180639,false,false,622,image-keyboard-response,34
true,4,2,4,2,true,d,false,true,0.0-2.0-0.18-0.168-3.168,1,1,0,68,false,stim,false,2,497.79999999701977,1,0,2,32111,WMM2,1182649,false,false,625,image-keyboard-response,35
true,4,0,4,2,false,d,true,false,0.0-2.0-0.18-0.169-3.169,1,1,0,81,false,stim,false,2,2214.0999999940395,1,0,1,32111,WMM2,1186369,false,false,628,image-keyboard-response,36
true,4,0,4,0,true,q,false,true,0.0-2.0-0.18-0.170-3.170,1,1,0,81,false,stim,false,0,608.8999999910593,1,1,0,32111,WMM2,1188489,false,false,631,image-keyboard-response,37
true,4,0,4,0,true,q,false,false,0.0-2.0-0.19-0.171-3.171,1,1,0,81,false,stim,false,0,452.09999999403954,1,1,0,32111,WMM2,1190459,false,true,634,image-keyboard-response,38
true,4,0,4,0,true,q,false,true,0.0-2.0-0.19-0.172-3.172,1,1,0,81,false,stim,false,0,924.2000000029802,1,1,0,32111,WMM2,1192899,false,false,637,image-keyboard-response,39
true,4,0,4,0,true,q,false,true,0.0-2.0-0.19-0.173-3.173,1,1,0,81,false,stim,false,0,469.5,1,1,0,32111,WMM2,1194879,false,false,640,image-keyboard-response,40
true,4,2,4,2,true,d,false,true,0.0-2.0-0.19-0.174-3.174,1,1,0,68,false,stim,false,2,540.7000000029802,1,0,2,32111,WMM2,1196939,false,false,643,image-keyboard-response,41
true,5,2,1,1,false,z,false,false,0.0-2.0-0.19-0.175-3.175,1,0,0,68,true,stim,true,2,1233.5,1,0,1,32111,WMM2,1199689,false,false,646,image-keyboard-response,1
true,5,2,1,1,false,z,false,false,0.0-2.0-0.19-0.176-3.176,1,0,0,68,false,stim,true,2,424.29999999701977,1,0,1,32111,WMM2,1201629,false,false,649,image-keyboard-response,2
true,5,2,1,1,false,z,false,false,0.0-2.0-0.19-0.177-3.177,1,0,0,68,false,stim,true,2,560.8999999910593,1,0,2,32111,WMM2,1203699,false,false,652,image-keyboard-response,3
true,5,2,1,1,false,z,false,false,0.0-2.0-0.19-0.178-3.178,1,0,0,68,false,stim,true,2,1022.0,1,0,2,32111,WMM2,1206239,false,false,655,image-keyboard-response,4
true,5,1,1,1,true,z,false,true,0.0-2.0-0.19-0.179-3.179,1,0,0,90,false,stim,false,2,759.0999999940395,1,0,1,32111,WMM2,1208519,false,false,658,image-keyboard-response,5
true,5,0,1,0,true,q,false,true,0.0-2.0-0.20-0.180-3.180,1,0,0,81,false,stim,false,0,647.5999999940395,1,1,0,32111,WMM2,1210689,false,false,661,image-keyboard-response,6
true,5,1,1,1,true,z,false,false,0.0-2.0-0.20-0.181-3.181,1,0,0,90,false,stim,false,2,894.7999999970198,1,0,1,32111,WMM2,1213109,false,true,664,image-keyboard-response,7
true,5,1,1,0,false,q,true,false,0.0-2.0-0.20-0.182-3.182,1,0,0,90,false,stim,false,0,614.2000000029802,1,1,0,32111,WMM2,1215229,false,false,667,image-keyboard-response,8
true,5,2,1,1,false,z,false,false,0.0-2.0-0.20-0.183-3.183,1,0,0,68,false,stim,true,2,582.5999999940395,1,0,2,32111,WMM2,1217329,false,false,670,image-keyboard-response,9
true,5,1,1,1,true,z,false,true,0.0-2.0-0.20-0.184-3.184,1,0,0,90,false,stim,false,2,555.7999999970198,1,0,1,32111,WMM2,1219399,false,false,673,image-keyboard-response,10
true,5,1,1,1,true,z,false,true,0.0-2.0-0.20-0.185-3.185,1,0,0,90,false,stim,false,2,657.6999999880791,1,0,2,32111,WMM2,1221569,false,false,676,image-keyboard-response,11
true,5,0,1,0,true,q,false,true,0.0-2.0-0.20-0.186-3.186,1,0,0,81,false,stim,false,0,601.0,1,1,0,32111,WMM2,1223679,false,false,679,image-keyboard-response,12
true,5,1,1,1,true,z,false,true,0.0-2.0-0.20-0.187-3.187,1,0,0,90,false,stim,false,2,418.09999999403954,1,0,2,32111,WMM2,1225630,false,false,682,image-keyboard-response,13
true,5,1,1,1,true,z,false,true,0.0-2.0-0.20-0.188-3.188,1,0,0,90,false,stim,false,2,243.0,1,0,1,32111,WMM2,1227380,false,false,685,image-keyboard-response,14
true,5,1,1,1,true,z,false,true,0.0-2.0-0.21-0.189-3.189,1,0,0,90,false,stim,false,2,888.2000000029802,1,0,1,32111,WMM2,1229780,false,false,688,image-keyboard-response,15
true,5,1,1,1,true,z,false,true,0.0-2.0-0.21-0.190-3.190,1,0,0,90,false,stim,false,2,494.90000000596046,1,0,1,32111,WMM2,1231790,false,false,691,image-keyboard-response,16
true,5,0,1,0,true,q,false,true,0.0-2.0-0.21-0.191-3.191,1,0,0,81,false,stim,false,0,1066.7000000029802,1,1,0,32111,WMM2,1234370,false,false,694,image-keyboard-response,17
true,5,1,1,1,true,z,false,true,0.0-2.0-0.21-0.192-3.192,1,0,0,90,false,stim,false,2,768.5,1,0,2,32111,WMM2,1236650,false,false,697,image-keyboard-response,18
true,5,1,1,1,true,z,false,true,0.0-2.0-0.21-0.193-3.193,1,0,0,90,false,stim,false,2,1495.0999999940395,1,0,2,32111,WMM2,1239660,false,false,700,image-keyboard-response,19
true,5,1,1,1,true,z,false,true,0.0-2.0-0.21-0.194-3.194,1,0,0,90,false,stim,false,2,384.3999999910593,1,0,2,32111,WMM2,1241570,false,false,703,image-keyboard-response,20
true,5,1,1,0,false,q,true,true,0.0-2.0-0.21-0.195-3.195,1,0,0,90,false,stim,false,0,1581.4000000059605,1,1,0,32111,WMM2,1244670,false,true,706,image-keyboard-response,21
true,5,1,1,0,false,q,true,true,0.0-2.0-0.21-0.196-3.196,1,0,0,90,false,stim,false,0,495.3999999910593,1,1,0,32111,WMM2,1246680,false,true,709,image-keyboard-response,22
true,5,0,1,1,false,z,true,false,0.0-2.0-0.21-0.197-3.197,1,0,0,81,false,stim,false,2,1700.9000000059605,1,1,1,32111,WMM2,1249900,false,false,712,image-keyboard-response,23
true,5,0,1,0,true,q,false,true,0.0-2.0-0.22-0.198-3.198,1,0,0,81,false,stim,false,0,340.19999998807907,1,1,0,32111,WMM2,1251760,false,false,715,image-keyboard-response,24
true,5,1,1,1,true,z,false,true,0.0-2.0-0.22-0.199-3.199,1,0,0,90,false,stim,false,2,388.29999999701977,1,0,2,32111,WMM2,1253680,false,false,718,image-keyboard-response,25
true,5,1,1,0,false,q,true,false,0.0-2.0-0.22-0.200-3.200,1,0,0,90,false,stim,false,0,914.5999999940395,1,1,0,32111,WMM2,1256110,false,false,721,image-keyboard-response,26
true,5,2,1,1,false,z,false,false,0.0-2.0-0.22-0.201-3.201,1,0,0,68,false,stim,true,2,1596.2000000029802,1,0,2,32111,WMM2,1259220,false,false,724,image-keyboard-response,27
true,5,1,1,1,true,z,false,false,0.0-2.0-0.22-0.202-3.202,1,0,0,90,false,stim,false,2,1617.0,1,1,1,32111,WMM2,1262360,false,true,727,image-keyboard-response,28
true,5,0,1,1,false,z,true,false,0.0-2.0-0.22-0.203-3.203,1,0,0,81,false,stim,false,2,332.70000000298023,1,1,1,32111,WMM2,1264210,false,false,730,image-keyboard-response,29
true,5,1,1,1,true,z,false,true,0.0-2.0-0.22-0.204-3.204,1,0,0,90,false,stim,false,2,907.5999999940395,1,0,2,32111,WMM2,1266640,false,false,733,image-keyboard-response,30
true,6,0,3,0,true,q,false,true,0.0-2.0-0.22-0.205-3.205,1,1,0,81,true,stim,false,0,1895.9000000059605,1,1,0,32111,WMM2,1270050,false,false,736,image-keyboard-response,1
true,6,2,3,1,false,z,true,true,0.0-2.0-0.22-0.206-3.206,1,1,0,68,false,stim,false,1,692.7999999970198,1,1,1,32111,WMM2,1272260,false,true,739,image-keyboard-response,2
true,6,2,3,1,false,z,true,false,0.0-2.0-0.23-0.207-3.207,1,1,0,68,false,stim,false,1,350.79999999701977,1,1,1,32111,WMM2,1274130,false,false,742,image-keyboard-response,3
true,6,2,3,1,false,z,true,false,0.0-2.0-0.23-0.208-3.208,1,1,0,68,false,stim,false,1,400.09999999403954,1,1,1,32111,WMM2,1276040,false,false,745,image-keyboard-response,4
true,6,1,3,2,false,d,false,false,0.0-2.0-0.23-0.209-3.209,1,1,0,90,false,stim,true,1,663.0999999940395,1,0,2,32111,WMM2,1278220,false,false,748,image-keyboard-response,5
true,6,0,3,0,true,q,false,true,0.0-2.0-0.23-0.210-3.210,1,1,0,81,false,stim,false,0,960.5,1,1,0,32111,WMM2,1280701,false,false,751,image-keyboard-response,6
true,6,1,3,2,false,d,false,false,0.0-2.0-0.23-0.211-3.211,1,1,0,90,false,stim,true,1,1118.7000000029802,1,0,2,32111,WMM2,1283331,false,false,754,image-keyboard-response,7
true,6,0,3,1,false,z,true,true,0.0-2.0-0.23-0.212-3.212,1,1,0,81,false,stim,false,1,2224.0999999940395,1,1,1,32111,WMM2,1287071,false,true,757,image-keyboard-response,8
true,6,0,3,0,true,q,false,false,0.0-2.0-0.23-0.213-3.213,1,1,0,81,false,stim,false,0,862.0,1,1,0,32111,WMM2,1289441,false,true,760,image-keyboard-response,9
true,6,0,3,2,false,d,true,false,0.0-2.0-0.23-0.214-3.214,1,1,0,81,false,stim,false,1,1219.5,1,0,2,32111,WMM2,1292181,false,false,763,image-keyboard-response,10
true,6,0,3,0,true,q,false,false,0.0-2.0-0.23-0.215-3.215,1,1,0,81,false,stim,false,0,1982.199999988079,1,1,0,32111,WMM2,1295691,false,true,766,image-keyboard-response,11
true,6,2,3,2,true,d,false,true,0.0-2.0-0.24-0.216-3.216,1,1,0,68,false,stim,false,1,712.2000000029802,1,0,2,32111,WMM2,1297921,false,false,769,image-keyboard-response,12
true,6,0,3,0,true,q,false,false,0.0-2.0-0.24-0.217-3.217,1,1,0,81,false,stim,false,0,966.2999999970198,1,1,0,32111,WMM2,1300401,false,true,772,image-keyboard-response,13
true,6,1,3,1,true,z,false,true,0.0-2.0-0.24-0.218-3.218,1,1,0,90,false,stim,false,1,924.0,1,1,1,32111,WMM2,1302841,false,false,775,image-keyboard-response,14
true,6,1,3,1,true,z,false,true,0.0-2.0-0.24-0.219-3.219,1,1,0,90,false,stim,false,1,423.90000000596046,1,1,1,32111,WMM2,1304781,false,false,778,image-keyboard-response,15
true,6,2,3,2,true,d,false,true,0.0-2.0-0.24-0.220-3.220,1,1,0,68,false,stim,false,1,685.0999999940395,1,0,2,32111,WMM2,1306971,false,false,781,image-keyboard-response,16
true,6,0,3,0,true,q,false,true,0.0-2.0-0.24-0.221-3.221,1,1,0,81,false,stim,false,0,712.5,1,1,0,32111,WMM2,1309191,false,false,784,image-keyboard-response,17
true,6,2,3,2,true,d,false,true,0.0-2.0-0.24-0.222-3.222,1,1,0,68,false,stim,false,1,483.59999999403954,1,0,2,32111,WMM2,1311181,false,false,787,image-keyboard-response,18
true,6,0,3,1,false,z,true,false,0.0-2.0-0.24-0.223-3.223,1,1,0,81,false,stim,false,1,1110.699999988079,1,1,1,32111,WMM2,1313801,false,false,790,image-keyboard-response,19
true,6,0,3,0,true,q,false,true,0.0-2.0-0.24-0.224-3.224,1,1,0,81,false,stim,false,0,1248.2999999970198,1,1,0,32111,WMM2,1316571,false,false,793,image-keyboard-response,20
true,6,2,3,2,true,d,false,true,0.0-2.0-0.25-0.225-3.225,1,1,0,68,false,stim,false,1,1262.4000000059605,1,0,2,32111,WMM2,1319361,false,false,796,image-keyboard-response,21
true,6,2,3,2,true,d,false,true,0.0-2.0-0.25-0.226-3.226,1,1,0,68,false,stim,false,1,628.7000000029802,1,0,2,32111,WMM2,1321511,false,false,799,image-keyboard-response,22
true,6,1,3,1,true,z,false,true,0.0-2.0-0.25-0.227-3.227,1,1,0,90,false,stim,false,1,2013.2999999970198,1,1,1,32111,WMM2,1325041,false,false,802,image-keyboard-response,23
true,6,1,3,1,true,z,false,false,0.0-2.0-0.25-0.228-3.228,1,1,0,90,false,stim,false,1,542.5,1,1,1,32111,WMM2,1327101,false,true,805,image-keyboard-response,24
true,6,0,3,0,true,q,false,true,0.0-2.0-0.25-0.229-3.229,1,1,0,81,false,stim,false,0,1799.0,1,0,0,32111,WMM2,1330411,false,false,808,image-keyboard-response,25
true,6,2,3,2,true,d,false,true,0.0-2.0-0.25-0.230-3.230,1,1,0,68,false,stim,false,1,550.7000000029802,1,1,2,32111,WMM2,1332481,false,false,811,image-keyboard-response,26
true,6,0,3,0,true,q,false,true,0.0-2.0-0.25-0.231-3.231,1,1,0,81,false,stim,false,0,972.0999999940395,1,0,0,32111,WMM2,1334962,false,false,814,image-keyboard-response,27
true,6,1,3,1,true,z,false,true,0.0-2.0-0.25-0.232-3.232,1,1,0,90,false,stim,false,1,1158.4000000059605,1,1,1,32111,WMM2,1337632,false,false,817,image-keyboard-response,28
true,6,0,3,0,true,q,false,true,0.0-2.0-0.25-0.233-3.233,1,1,0,81,false,stim,false,0,1330.5,1,0,0,32111,WMM2,1340482,false,false,820,image-keyboard-response,29
true,6,2,3,2,true,d,false,true,0.0-2.0-0.26-0.234-3.234,1,1,0,68,false,stim,false,1,1055.7999999970198,1,1,2,32111,WMM2,1343052,false,false,823,image-keyboard-response,30
true,6,0,3,1,false,z,true,false,0.0-2.0-0.26-0.235-3.235,1,1,0,81,false,stim,false,1,1587.7999999970198,1,1,1,32111,WMM2,1346152,false,false,826,image-keyboard-response,31
true,6,0,3,0,true,q,false,true,0.0-2.0-0.26-0.236-3.236,1,1,0,81,false,stim,false,0,404.09999999403954,1,0,0,32111,WMM2,1348072,false,false,829,image-keyboard-response,32
true,6,1,3,1,true,z,false,true,0.0-2.0-0.26-0.237-3.237,1,1,0,90,false,stim,false,1,1184.1000000089407,1,1,1,32111,WMM2,1350772,false,false,832,image-keyboard-response,33
true,6,0,3,0,true,q,false,true,0.0-2.0-0.26-0.238-3.238,1,1,0,81,false,stim,false,0,855.7000000029802,1,0,0,32111,WMM2,1353152,false,false,835,image-keyboard-response,34
true,7,0,2,2,false,d,false,false,0.0-2.0-0.26-0.239-3.239,0,1,1,81,true,stim,true,0,509.70000000298023,1,0,0,32111,WMM2,1355182,false,false,838,image-keyboard-response,1
true,7,2,2,2,true,d,false,true,0.0-2.0-0.26-0.240-3.240,0,1,1,68,false,stim,false,2,545.4000000059605,1,1,2,32111,WMM2,1357232,false,false,841,image-keyboard-response,2
true,7,2,2,2,true,d,false,true,0.0-2.0-0.26-0.241-3.241,0,1,1,68,false,stim,false,2,640.7000000029802,1,1,2,32111,WMM2,1359382,false,false,844,image-keyboard-response,3
true,7,1,2,1,true,z,false,true,0.0-2.0-0.26-0.242-3.242,0,1,1,90,false,stim,false,1,2031.5999999940395,1,1,1,32111,WMM2,1362932,false,false,847,image-keyboard-response,4
true,7,2,2,2,true,d,false,true,0.0-2.0-0.27-0.243-3.243,0,1,1,68,false,stim,false,2,509.8999999910593,1,1,2,32111,WMM2,1364952,false,false,850,image-keyboard-response,5
true,7,0,2,2,false,d,false,false,0.0-2.0-0.27-0.244-3.244,0,1,1,81,false,stim,true,0,790.2999999970198,1,0,0,32111,WMM2,1367262,false,false,853,image-keyboard-response,6
true,7,2,2,1,false,z,true,false,0.0-2.0-0.27-0.245-3.245,0,1,1,68,false,stim,false,1,2493.4000000059605,1,1,1,32111,WMM2,1371263,false,false,856,image-keyboard-response,7
true,7,2,2,2,true,d,false,true,0.0-2.0-0.27-0.246-3.246,0,1,1,68,false,stim,false,2,399.0,1,1,2,32111,WMM2,1373182,false,false,859,image-keyboard-response,8
true,7,0,2,2,false,d,false,false,0.0-2.0-0.27-0.247-3.247,0,1,1,81,false,stim,true,0,1461.0999999940395,1,0,0,32111,WMM2,1376162,false,false,862,image-keyboard-response,9
true,7,1,2,1,true,z,false,false,0.0-2.0-0.27-0.248-3.248,0,1,1,90,false,stim,false,1,600.2999999970198,1,1,1,32111,WMM2,1378272,false,true,865,image-keyboard-response,10
true,7,1,2,2,false,d,true,false,0.0-2.0-0.27-0.249-3.249,0,1,1,90,false,stim,false,0,1002.5,1,0,0,32111,WMM2,1380782,false,false,868,image-keyboard-response,11
true,7,2,2,2,true,d,false,true,0.0-2.0-0.27-0.250-3.250,0,1,1,68,false,stim,false,2,962.7999999970198,1,1,2,32111,WMM2,1383262,false,false,871,image-keyboard-response,12
true,7,1,2,1,true,z,false,true,0.0-2.0-0.27-0.251-3.251,0,1,1,90,false,stim,false,1,531.0,1,1,1,32111,WMM2,1385313,false,false,874,image-keyboard-response,13
true,7,2,2,2,true,d,false,true,0.0-2.0-0.28-0.252-3.252,0,1,1,68,false,stim,false,2,601.0999999940395,1,1,2,32111,WMM2,1387433,false,false,877,image-keyboard-response,14
true,7,1,2,1,true,z,false,true,0.0-2.0-0.28-0.253-3.253,0,1,1,90,false,stim,false,1,926.9000000059605,1,1,1,32111,WMM2,1389873,false,false,880,image-keyboard-response,15
true,7,1,2,1,true,z,false,true,0.0-2.0-0.28-0.254-3.254,0,1,1,90,false,stim,false,1,504.70000000298023,1,1,1,32111,WMM2,1391893,false,false,883,image-keyboard-response,16
true,7,0,2,2,false,d,false,false,0.0-2.0-0.28-0.255-3.255,0,1,1,81,false,stim,true,0,1239.7999999970198,1,0,0,32111,WMM2,1394643,false,false,886,image-keyboard-response,17
true,7,1,2,1,true,z,false,true,0.0-2.0-0.28-0.256-3.256,0,1,1,90,false,stim,false,1,665.9000000059605,1,1,1,32111,WMM2,1396823,false,false,889,image-keyboard-response,18
true,7,2,2,2,true,d,false,true,0.0-2.0-0.28-0.257-3.257,0,1,1,68,false,stim,false,2,512.3000000119209,1,1,2,32111,WMM2,1398853,false,false,892,image-keyboard-response,19
true,7,1,2,2,false,d,true,false,0.0-2.0-0.28-0.258-3.258,0,1,1,90,false,stim,false,0,413.09999999403954,1,0,0,32111,WMM2,1400783,false,false,895,image-keyboard-response,20
true,7,2,2,2,true,d,false,true,0.0-2.0-0.28-0.259-3.259,0,1,1,68,false,stim,false,2,441.09999999403954,1,1,2,32111,WMM2,1402743,false,false,898,image-keyboard-response,21
true,7,2,2,2,true,d,false,true,0.0-2.0-0.28-0.260-3.260,0,1,1,68,false,stim,false,0,354.90000000596046,1,0,0,32111,WMM2,1404623,false,false,901,image-keyboard-response,22
true,7,1,2,1,true,z,false,true,0.0-2.0-0.29-0.261-3.261,0,1,1,90,false,stim,false,1,969.6000000089407,1,1,1,32111,WMM2,1407115,false,false,904,image-keyboard-response,23
true,7,1,2,1,true,z,false,true,0.0-2.0-0.29-0.262-3.262,0,1,1,90,false,stim,false,1,466.20000000298023,1,1,1,32111,WMM2,1409103,false,false,907,image-keyboard-response,24
true,7,2,2,2,true,d,false,true,0.0-2.0-0.29-0.263-3.263,0,1,1,68,false,stim,false,2,560.2000000029802,1,1,2,32111,WMM2,1411184,false,false,910,image-keyboard-response,25
true,7,1,2,1,true,z,false,true,0.0-2.0-0.29-0.264-3.264,0,1,1,90,false,stim,false,1,960.2000000029802,1,1,1,32111,WMM2,1413653,false,false,913,image-keyboard-response,26
true,7,2,2,2,true,d,false,true,0.0-2.0-0.29-0.265-3.265,0,1,1,68,false,stim,false,0,381.90000000596046,1,0,0,32111,WMM2,1415543,false,false,916,image-keyboard-response,27
true,7,2,2,2,true,d,false,true,0.0-2.0-0.29-0.266-3.266,0,1,1,68,false,stim,false,2,528.4000000059605,1,0,2,32111,WMM2,1417583,false,false,919,image-keyboard-response,28
true,7,1,2,2,false,d,true,false,0.0-2.0-0.29-0.267-3.267,0,1,1,90,false,stim,false,0,718.4000000059605,1,1,0,32111,WMM2,1419813,false,false,922,image-keyboard-response,29
true,7,2,2,2,true,d,false,true,0.0-2.0-0.29-0.268-3.268,0,1,1,68,false,stim,false,2,495.40000000596046,1,0,2,32111,WMM2,1421823,false,false,925,image-keyboard-response,30
true,7,1,2,2,false,d,true,false,0.0-2.0-0.29-0.269-3.269,0,1,1,90,false,stim,false,0,634.2000000029802,1,1,0,32111,WMM2,1423973,false,false,928,image-keyboard-response,31
true,7,1,2,1,true,z,false,false,0.0-2.0-0.30-0.270-3.270,0,1,1,90,false,stim,false,1,914.3000000119209,1,0,1,32111,WMM2,1426403,false,true,931,image-keyboard-response,32
true,7,2,2,2,true,d,false,true,0.0-2.0-0.30-0.271-3.271,0,1,1,68,false,stim,false,2,318.29999999701977,1,0,2,32111,WMM2,1428233,false,false,934,image-keyboard-response,33
true,7,2,2,2,true,d,false,true,0.0-2.0-0.30-0.272-3.272,0,1,1,68,false,stim,false,2,373.79999999701977,1,0,2,32111,WMM2,1430113,false,false,937,image-keyboard-response,34
true,7,2,2,2,true,d,false,true,0.0-2.0-0.30-0.273-3.273,0,1,1,68,false,stim,false,0,799.9000000059605,1,1,0,32111,WMM2,1432423,false,false,940,image-keyboard-response,35
true,7,2,2,2,true,d,false,true,0.0-2.0-0.30-0.274-3.274,0,1,1,68,false,stim,false,0,302.20000000298023,1,1,0,32111,WMM2,1434243,false,false,943,image-keyboard-response,36
true,7,1,2,1,true,z,false,true,0.0-2.0-0.30-0.275-3.275,0,1,1,90,false,stim,false,1,1306.0999999940395,1,0,1,32111,WMM2,1437063,false,false,946,image-keyboard-response,37
true,8,2,1,0,false,q,false,true,0.0-2.0-0.30-0.276-3.276,1,0,0,68,true,stim,true,2,503.1000000089407,1,0,2,32111,WMM2,1439074,false,true,949,image-keyboard-response,1
false,8,-1,1,2,false,d,true,false,0.0-2.0-0.30-0.277-3.277,1,0,0,,false,stim,false,1,,1,0,1,32111,WMM2,1443596,false,false,952,image-keyboard-response,2
true,8,1,1,2,false,d,true,false,0.0-2.0-0.30-0.278-3.278,1,0,0,90,false,stim,false,2,903.9000000059605,1,1,0,32111,WMM2,1446024,false,false,955,image-keyboard-response,3
true,8,2,1,0,false,q,false,false,0.0-2.0-0.31-0.279-3.279,1,0,0,68,false,stim,true,2,518.5,1,0,2,32111,WMM2,1448054,false,false,958,image-keyboard-response,4
true,8,1,1,2,false,d,true,false,0.0-2.0-0.31-0.280-3.280,1,0,0,90,false,stim,false,2,1624.5,1,1,0,32111,WMM2,1451194,false,false,961,image-keyboard-response,5
true,8,2,1,2,true,d,false,true,0.0-2.0-0.31-0.281-3.281,1,0,0,68,false,stim,false,1,1021.0,1,0,1,32111,WMM2,1453724,false,false,964,image-keyboard-response,6
true,8,2,1,2,true,d,false,true,0.0-2.0-0.31-0.282-3.282,1,0,0,68,false,stim,false,1,740.7000000029802,1,0,1,32111,WMM2,1455984,false,false,967,image-keyboard-response,7
true,8,2,1,2,true,d,false,false,0.0-2.0-0.31-0.283-3.283,1,0,0,68,false,stim,false,2,1732.4000000059605,1,1,0,32111,WMM2,1459224,false,true,970,image-keyboard-response,8
true,8,2,1,0,false,q,false,false,0.0-2.0-0.31-0.284-3.284,1,0,0,68,false,stim,true,2,933.8999999910593,1,0,2,32111,WMM2,1461674,false,false,973,image-keyboard-response,9
true,8,2,1,2,true,d,false,true,0.0-2.0-0.31-0.285-3.285,1,0,0,68,false,stim,false,2,1979.4000000059605,1,1,0,32111,WMM2,1465164,false,false,976,image-keyboard-response,10
true,8,2,1,2,true,d,false,true,0.0-2.0-0.31-0.286-3.286,1,0,0,68,false,stim,false,1,1313.4000000059605,1,0,1,32111,WMM2,1467994,false,false,979,image-keyboard-response,11
true,8,2,1,0,false,q,false,false,0.0-2.0-0.31-0.287-3.287,1,0,0,68,false,stim,true,2,1410.2000000029802,1,0,2,32111,WMM2,1470914,false,false,982,image-keyboard-response,12
true,8,1,1,0,false,q,true,false,0.0-2.0-0.32-0.288-3.288,1,0,0,90,false,stim,false,2,716.2999999970198,1,0,2,32111,WMM2,1473154,false,false,985,image-keyboard-response,13
true,8,2,1,2,true,d,false,true,0.0-2.0-0.32-0.289-3.289,1,0,0,68,false,stim,false,2,1133.4000000059605,1,1,0,32111,WMM2,1475804,false,false,988,image-keyboard-response,14
true,8,2,1,0,false,q,false,false,0.0-2.0-0.32-0.290-3.290,1,0,0,68,false,stim,true,2,1168.7999999970198,1,0,2,32111,WMM2,1478484,false,false,991,image-keyboard-response,15
true,8,1,1,0,false,q,true,false,0.0-2.0-0.32-0.291-3.291,1,0,0,90,false,stim,false,2,760.0,1,0,2,32111,WMM2,1480764,false,false,994,image-keyboard-response,16
true,8,2,1,2,true,d,false,true,0.0-2.0-0.32-0.292-3.292,1,0,0,68,false,stim,false,2,1300.9000000059605,1,1,0,32111,WMM2,1483574,false,false,997,image-keyboard-response,17
true,8,1,1,2,false,d,false,false,0.0-2.0-0.32-0.293-3.293,1,0,0,90,false,stim,true,1,2566.5,1,0,1,32111,WMM2,1487663,false,false,1000,image-keyboard-response,18
true,8,0,1,2,false,d,true,false,0.0-2.0-0.32-0.294-3.294,1,0,0,81,false,stim,false,2,1632.6000000089407,1,1,0,32111,WMM2,1490813,false,false,1003,image-keyboard-response,19
true,8,2,1,2,true,d,false,true,0.0-2.0-0.32-0.295-3.295,1,0,0,68,false,stim,false,1,1371.0999999940395,1,0,1,32111,WMM2,1493704,false,false,1006,image-keyboard-response,20
true,8,2,1,2,true,d,false,true,0.0-2.0-0.32-0.296-3.296,1,0,0,68,false,stim,false,1,368.79999999701977,1,0,1,32111,WMM2,1495584,false,false,1009,image-keyboard-response,21
true,8,0,1,0,true,q,false,true,0.0-2.0-0.33-0.297-3.297,1,0,0,81,false,stim,false,2,1639.300000011921,1,0,2,32111,WMM2,1498734,false,false,1012,image-keyboard-response,22
true,8,2,1,2,true,d,false,true,0.0-2.0-0.33-0.298-3.298,1,0,0,68,false,stim,false,1,658.4000000059605,1,0,1,32111,WMM2,1500904,false,false,1015,image-keyboard-response,23
true,8,1,1,2,false,d,true,false,0.0-2.0-0.33-0.299-3.299,1,0,0,90,false,stim,false,2,382.0,1,1,0,32111,WMM2,1502804,false,false,1018,image-keyboard-response,24
true,8,0,1,0,true,q,false,true,0.0-2.0-0.33-0.300-3.300,1,0,0,81,false,stim,false,2,1246.9000000059605,1,0,2,32111,WMM2,1505565,false,false,1021,image-keyboard-response,25
true,8,2,1,2,true,d,false,true,0.0-2.0-0.33-0.301-3.301,1,0,0,68,false,stim,false,2,887.8000000119209,1,1,0,32111,WMM2,1507974,false,false,1024,image-keyboard-response,26
true,8,0,1,0,true,q,false,true,0.0-2.0-0.33-0.302-3.302,1,0,0,81,false,stim,false,2,912.7000000029802,1,0,2,32111,WMM2,1510414,false,false,1027,image-keyboard-response,27
true,8,0,1,2,false,d,true,false,0.0-2.0-0.33-0.303-3.303,1,0,0,81,false,stim,false,2,1728.1000000089407,1,1,0,32111,WMM2,1513654,false,false,1030,image-keyboard-response,28
true,8,2,1,2,true,d,false,true,0.0-2.0-0.33-0.304-3.304,1,0,0,68,false,stim,false,1,2471.5999999940395,1,0,1,32111,WMM2,1517645,false,false,1033,image-keyboard-response,29
true,8,2,1,2,true,d,false,true,0.0-2.0-0.33-0.305-3.305,1,0,0,68,false,stim,false,1,604.2999999970198,1,0,1,32111,WMM2,1519754,false,false,1036,image-keyboard-response,30
true,8,0,1,2,false,d,true,false,0.0-2.0-0.34-0.306-3.306,1,0,0,81,false,stim,false,2,1814.5,1,1,0,32111,WMM2,1523084,false,false,1039,image-keyboard-response,31
true,8,2,1,2,true,d,false,false,0.0-2.0-0.34-0.307-3.307,1,0,0,68,false,stim,false,2,882.2000000029802,1,1,0,32111,WMM2,1525474,false,true,1042,image-keyboard-response,32
true,8,0,1,0,true,q,false,true,0.0-2.0-0.34-0.308-3.308,1,0,0,81,false,stim,false,2,1391.5,1,0,2,32111,WMM2,1528385,false,false,1045,image-keyboard-response,33
true,8,2,1,2,true,d,false,true,0.0-2.0-0.34-0.309-3.309,1,0,0,68,false,stim,false,1,1588.1000000089407,1,0,1,32111,WMM2,1531494,false,false,1048,image-keyboard-response,34
true,8,2,1,2,true,d,false,true,0.0-2.0-0.34-0.310-3.310,1,0,0,68,false,stim,false,1,639.5999999940395,1,0,1,32111,WMM2,1533654,false,false,1051,image-keyboard-response,35
true,8,0,1,0,true,q,false,false,0.0-2.0-0.34-0.311-3.311,1,0,0,81,false,stim,false,2,896.7999999970198,1,0,2,32111,WMM2,1536064,false,true,1054,image-keyboard-response,36
true,8,0,1,0,true,q,false,true,0.0-2.0-0.34-0.312-3.312,1,0,0,81,false,stim,false,2,1308.300000011921,1,0,2,32111,WMM2,1538894,false,false,1057,image-keyboard-response,37
true,8,1,1,2,false,d,true,false,0.0-2.0-0.34-0.313-3.313,1,0,0,90,false,stim,false,2,1602.5999999940395,1,1,0,32111,WMM2,1542014,false,false,1060,image-keyboard-response,38
true,8,2,1,2,true,d,false,true,0.0-2.0-0.34-0.314-3.314,1,0,0,68,false,stim,false,1,1536.7000000029802,1,0,1,32111,WMM2,1545064,false,false,1063,image-keyboard-response,39
true,8,0,1,2,false,d,true,false,0.0-2.0-0.35-0.315-3.315,1,0,0,81,false,stim,false,2,2489.7000000029802,1,1,0,32111,WMM2,1549065,false,false,1066,image-keyboard-response,40
true,8,0,1,2,false,d,true,true,0.0-2.0-0.35-0.316-3.316,1,0,0,81,false,stim,false,1,2186.6000000089407,1,0,1,32111,WMM2,1552766,false,true,1069,image-keyboard-response,41
true,8,1,1,2,false,d,true,false,0.0-2.0-0.35-0.317-3.317,1,0,0,90,false,stim,false,2,1981.8999999910593,1,1,0,32111,WMM2,1556256,false,false,1072,image-keyboard-response,42
true,8,0,1,0,true,q,false,true,0.0-2.0-0.35-0.318-3.318,1,0,0,81,false,stim,false,2,1248.7000000029802,1,0,2,32111,WMM2,1559026,false,false,1075,image-keyboard-response,43
true,8,0,1,0,true,q,false,true,0.0-2.0-0.35-0.319-3.319,1,0,0,81,false,stim,false,2,708.8999999910593,1,0,2,32111,WMM2,1561246,false,false,1078,image-keyboard-response,44
true,8,2,1,2,true,d,false,true,0.0-2.0-0.35-0.320-3.320,1,0,0,68,false,stim,false,1,2174.7999999970198,1,0,1,32111,WMM2,1564926,false,false,1081,image-keyboard-response,45
true,8,2,1,2,true,d,false,true,0.0-2.0-0.35-0.321-3.321,1,0,0,68,false,stim,false,1,602.5999999940395,1,0,1,32111,WMM2,1567036,false,false,1084,image-keyboard-response,46
true,8,0,1,0,true,q,false,true,0.0-2.0-0.35-0.322-3.322,1,0,0,81,false,stim,false,2,1341.7999999970198,1,0,2,32111,WMM2,1569886,false,false,1087,image-keyboard-response,47
true,8,2,1,2,true,d,false,true,0.0-2.0-0.35-0.323-3.323,1,0,0,68,false,stim,false,2,1846.2999999970198,1,1,0,32111,WMM2,1573256,false,false,1090,image-keyboard-response,48
true,8,2,1,2,true,d,false,true,0.0-2.0-0.36-0.324-3.324,1,0,0,68,false,stim,false,2,491.70000000298023,1,1,0,32111,WMM2,1575266,false,false,1093,image-keyboard-response,49
true,8,0,1,2,false,d,true,false,0.0-2.0-0.36-0.325-3.325,1,0,0,81,false,stim,false,1,2139.7999999970198,1,1,1,32111,WMM2,1578916,false,false,1096,image-keyboard-response,50
true,8,0,1,0,true,q,false,true,0.0-2.0-0.36-0.326-3.326,1,0,0,81,false,stim,false,2,898.1000000089407,1,1,2,32111,WMM2,1581326,false,false,1099,image-keyboard-response,51
true,8,2,1,2,true,d,false,true,0.0-2.0-0.36-0.327-3.327,1,0,0,68,false,stim,false,1,1557.300000011921,1,1,1,32111,WMM2,1584406,false,false,1102,image-keyboard-response,52
true,8,2,1,2,true,d,false,true,0.0-2.0-0.36-0.328-3.328,1,0,0,68,false,stim,false,1,442.79999999701977,1,1,1,32111,WMM2,1586366,false,false,1105,image-keyboard-response,53
true,8,2,1,2,true,d,false,true,0.0-2.0-0.36-0.329-3.329,1,0,0,68,false,stim,false,2,948.0,1,0,0,32111,WMM2,1588836,false,false,1108,image-keyboard-response,54
true,8,2,1,0,false,q,false,false,0.0-2.0-0.36-0.330-3.330,1,0,0,68,false,stim,true,2,604.2999999970198,1,1,2,32111,WMM2,1590946,false,false,1111,image-keyboard-response,55
true,8,0,1,0,true,q,false,true,0.0-2.0-0.36-0.331-3.331,1,0,0,81,false,stim,false,2,636.8999999910593,1,1,2,32111,WMM2,1593106,false,false,1114,image-keyboard-response,56
true,8,2,1,2,true,d,false,true,0.0-2.0-0.36-0.332-3.332,1,0,0,68,false,stim,false,2,764.7999999970198,1,0,0,32111,WMM2,1595396,false,false,1117,image-keyboard-response,57
true,8,2,1,2,true,d,false,true,0.0-2.0-0.37-0.333-3.333,1,0,0,68,false,stim,false,2,406.70000000298023,1,0,0,32111,WMM2,1597326,false,false,1120,image-keyboard-response,58
true,8,2,1,2,true,d,false,true,0.0-2.0-0.37-0.334-3.334,1,0,0,68,false,stim,false,1,1477.1000000089407,1,1,1,32111,WMM2,1600316,false,false,1123,image-keyboard-response,59
true,9,0,4,0,true,q,false,true,0.0-2.0-0.37-0.335-3.335,0,1,1,81,true,stim,false,0,1266.5,1,1,2,32111,WMM2,1603097,false,false,1126,image-keyboard-response,1
true,9,2,4,2,true,d,false,true,0.0-2.0-0.37-0.336-3.336,0,1,1,68,false,stim,false,2,546.1000000089407,1,1,1,32111,WMM2,1605167,false,false,1129,image-keyboard-response,2
true,9,0,4,0,true,q,false,true,0.0-2.0-0.37-0.337-3.337,0,1,1,81,false,stim,false,0,1278.199999988079,1,1,2,32111,WMM2,1607957,false,false,1132,image-keyboard-response,3
true,9,0,4,0,true,q,false,true,0.0-2.0-0.37-0.338-3.338,0,1,1,81,false,stim,false,0,1081.5,1,1,2,32111,WMM2,1610547,false,false,1135,image-keyboard-response,4
true,9,2,4,2,true,d,false,true,0.0-2.0-0.37-0.339-3.339,0,1,1,68,false,stim,false,2,962.4000000059605,1,1,1,32111,WMM2,1613027,false,false,1138,image-keyboard-response,5
true,9,2,4,2,true,d,false,false,0.0-2.0-0.37-0.340-3.340,0,1,1,68,false,stim,false,2,745.0999999940395,1,0,0,32111,WMM2,1615277,false,true,1141,image-keyboard-response,6
true,9,0,4,2,false,d,true,false,0.0-2.0-0.37-0.341-3.341,0,1,1,81,false,stim,false,2,1104.2999999970198,1,0,0,32111,WMM2,1617897,false,false,1144,image-keyboard-response,7
true,9,0,4,0,true,q,false,true,0.0-2.0-0.38-0.342-3.342,0,1,1,81,false,stim,false,0,863.9000000059605,1,1,2,32111,WMM2,1620277,false,false,1147,image-keyboard-response,8
true,9,2,4,2,true,d,false,false,0.0-2.0-0.38-0.343-3.343,0,1,1,68,false,stim,false,2,1469.5,1,1,1,32111,WMM2,1623257,false,true,1150,image-keyboard-response,9
true,9,0,4,0,true,q,false,true,0.0-2.0-0.38-0.344-3.344,0,1,1,81,false,stim,false,0,847.3999999910593,1,1,2,32111,WMM2,1625617,false,false,1153,image-keyboard-response,10
true,9,2,4,2,true,d,false,false,0.0-2.0-0.38-0.345-3.345,0,1,1,68,false,stim,false,2,1590.7000000029802,1,1,1,32111,WMM2,1628717,false,true,1156,image-keyboard-response,11
true,9,0,4,0,true,q,false,true,0.0-2.0-0.38-0.346-3.346,0,1,1,81,false,stim,false,0,1021.0999999940395,1,1,2,32111,WMM2,1631257,false,false,1159,image-keyboard-response,12
true,9,2,4,2,true,d,false,true,0.0-2.0-0.38-0.347-3.347,0,1,1,68,false,stim,false,2,1982.0,1,0,0,32111,WMM2,1634747,false,false,1162,image-keyboard-response,13
true,9,1,4,2,false,d,true,false,0.0-2.0-0.38-0.348-3.348,0,1,1,90,false,stim,false,2,952.2999999970198,1,1,1,32111,WMM2,1637207,false,false,1165,image-keyboard-response,14
true,9,0,4,2,false,d,true,false,0.0-2.0-0.38-0.349-3.349,0,1,1,81,false,stim,false,2,2054.8999999910593,1,0,0,32111,WMM2,1640777,false,false,1168,image-keyboard-response,15
true,9,2,4,2,true,d,false,true,0.0-2.0-0.38-0.350-3.350,0,1,1,68,false,stim,false,2,622.0,1,0,0,32111,WMM2,1642917,false,false,1171,image-keyboard-response,16
true,9,0,4,0,true,q,false,false,0.0-2.0-0.39-0.351-3.351,0,1,1,81,false,stim,false,0,908.7000000029802,1,1,2,32111,WMM2,1645337,false,true,1174,image-keyboard-response,17
true,9,2,4,2,true,d,false,true,0.0-2.0-0.39-0.352-3.352,0,1,1,68,false,stim,false,2,2084.3999999910593,1,0,0,32111,WMM2,1648937,false,false,1177,image-keyboard-response,18
true,9,2,4,2,true,d,false,false,0.0-2.0-0.39-0.353-3.353,0,1,1,68,false,stim,false,2,2087.8999999910593,1,1,1,32111,WMM2,1652537,false,true,1180,image-keyboard-response,19
true,9,1,4,2,false,d,true,false,0.0-2.0-0.39-0.354-3.354,0,1,1,90,false,stim,false,2,595.7000000029802,1,1,1,32111,WMM2,1654647,false,false,1183,image-keyboard-response,20
true,9,0,4,2,false,d,true,false,0.0-2.0-0.39-0.355-3.355,0,1,1,81,false,stim,false,2,474.09999999403954,1,1,1,32111,WMM2,1656627,false,false,1186,image-keyboard-response,21
true,9,2,4,2,true,d,false,true,0.0-2.0-0.39-0.356-3.356,0,1,1,68,false,stim,false,2,1393.5999999940395,1,0,0,32111,WMM2,1659538,false,false,1189,image-keyboard-response,22
true,9,0,4,0,true,q,false,false,0.0-2.0-0.39-0.357-3.357,0,1,1,81,false,stim,false,0,759.5999999940395,1,1,2,32111,WMM2,1661808,false,true,1192,image-keyboard-response,23
true,9,0,4,0,true,q,false,true,0.0-2.0-0.39-0.358-3.358,0,1,1,81,false,stim,false,0,629.7000000029802,1,1,2,32111,WMM2,1663958,false,false,1195,image-keyboard-response,24
true,9,2,4,2,true,d,false,true,0.0-2.0-0.39-0.359-3.359,0,1,1,68,false,stim,false,2,985.2999999970198,1,0,0,32111,WMM2,1666458,false,false,1198,image-keyboard-response,25
true,9,2,4,2,true,d,false,true,0.0-2.0-0.40-0.360-3.360,0,1,1,68,false,stim,false,2,523.7999999970198,1,0,0,32111,WMM2,1668508,false,false,1201,image-keyboard-response,26
true,9,0,4,2,false,d,true,false,0.0-2.0-0.40-0.361-3.361,0,1,1,81,false,stim,false,2,2524.5,1,1,1,32111,WMM2,1672548,false,false,1204,image-keyboard-response,27
true,9,2,4,2,true,d,false,true,0.0-2.0-0.40-0.362-3.362,0,1,1,68,false,stim,false,2,645.7000000029802,1,0,0,32111,WMM2,1674708,false,false,1207,image-keyboard-response,28
true,9,0,4,0,true,q,false,false,0.0-2.0-0.40-0.363-3.363,0,1,1,81,false,stim,false,0,742.0999999940395,1,1,2,32111,WMM2,1676978,false,true,1210,image-keyboard-response,29
true,9,2,4,2,true,d,false,true,0.0-2.0-0.40-0.364-3.364,0,1,1,68,false,stim,false,2,2470.0999999940395,1,1,1,32111,WMM2,1680958,false,false,1213,image-keyboard-response,30
true,9,0,4,0,true,q,false,true,0.0-2.0-0.40-0.365-3.365,0,1,1,81,false,stim,false,0,903.6000000089407,1,1,2,32111,WMM2,1683378,false,false,1216,image-keyboard-response,31
true,9,0,4,0,true,q,false,true,0.0-2.0-0.40-0.366-3.366,0,1,1,81,false,stim,false,0,556.7999999970198,1,1,2,32111,WMM2,1685448,false,false,1219,image-keyboard-response,32
true,9,2,4,2,true,d,false,true,0.0-2.0-0.40-0.367-3.367,0,1,1,68,false,stim,false,2,1272.8999999910593,1,0,0,32111,WMM2,1688228,false,false,1222,image-keyboard-response,33
true,9,2,4,2,true,d,false,true,0.0-2.0-0.40-0.368-3.368,0,1,1,68,false,stim,false,2,1895.1000000089407,1,1,1,32111,WMM2,1691648,false,false,1225,image-keyboard-response,34
true,9,2,4,2,true,d,false,true,0.0-2.0-0.41-0.369-3.369,0,1,1,68,false,stim,false,2,640.6999999880791,1,1,1,32111,WMM2,1693798,false,false,1228,image-keyboard-response,35
true,9,0,4,0,true,q,false,true,0.0-2.0-0.41-0.370-3.370,0,1,1,81,false,stim,false,0,958.5,1,0,2,32111,WMM2,1696278,false,false,1231,image-keyboard-response,36
true,9,2,4,2,true,d,false,false,0.0-2.0-0.41-0.371-3.371,0,1,1,68,false,stim,false,2,1289.7999999970198,1,1,0,32111,WMM2,1699088,false,true,1234,image-keyboard-response,37
true,9,0,4,2,false,d,true,false,0.0-2.0-0.41-0.372-3.372,0,1,1,81,false,stim,false,2,1657.7000000029802,1,1,1,32111,WMM2,1702258,false,false,1237,image-keyboard-response,38
true,9,2,4,2,true,d,false,true,0.0-2.0-0.41-0.373-3.373,0,1,1,68,false,stim,false,2,526.5,1,1,1,32111,WMM2,1704308,false,false,1240,image-keyboard-response,39
true,9,2,4,2,true,d,false,true,0.0-2.0-0.41-0.374-3.374,0,1,1,68,false,stim,false,2,2591.6000000089407,1,1,0,32111,WMM2,1708418,false,false,1243,image-keyboard-response,40
true,9,0,4,0,true,q,false,true,0.0-2.0-0.41-0.375-3.375,0,1,1,81,false,stim,false,0,661.2999999970198,1,0,2,32111,WMM2,1710599,false,false,1246,image-keyboard-response,41
true,9,0,4,0,true,q,false,true,0.0-2.0-0.41-0.376-3.376,0,1,1,81,false,stim,false,0,608.2999999970198,1,0,2,32111,WMM2,1712728,false,false,1249,image-keyboard-response,42
true,9,2,4,2,true,d,false,false,0.0-2.0-0.41-0.377-3.377,0,1,1,68,false,stim,false,2,1621.4000000059605,1,1,0,32111,WMM2,1715869,false,true,1252,image-keyboard-response,43
true,9,2,4,2,true,d,false,true,0.0-2.0-0.42-0.378-3.378,0,1,1,68,false,stim,false,2,432.69999998807907,1,1,0,32111,WMM2,1717819,false,false,1255,image-keyboard-response,44
true,10,2,3,2,true,d,false,false,0.0-2.0-0.42-0.379-3.379,1,1,0,68,true,stim,false,2,541.8999999910593,1,1,0,32111,WMM2,1719889,false,true,1258,image-keyboard-response,1
true,10,2,3,2,true,d,false,true,0.0-2.0-0.42-0.380-3.380,1,1,0,68,false,stim,false,2,942.5,1,1,0,32111,WMM2,1722339,false,false,1261,image-keyboard-response,2
true,10,0,3,1,false,z,false,false,0.0-2.0-0.42-0.381-3.381,1,1,0,81,false,stim,true,0,979.7999999970198,1,0,2,32111,WMM2,1724839,false,false,1264,image-keyboard-response,3
true,10,2,3,2,true,d,false,true,0.0-2.0-0.42-0.382-3.382,1,1,0,68,false,stim,false,2,1371.5,1,1,1,32111,WMM2,1727719,false,false,1267,image-keyboard-response,4
true,10,2,3,2,true,d,false,true,0.0-2.0-0.42-0.383-3.383,1,1,0,68,false,stim,false,2,707.0,1,1,1,32111,WMM2,1729938,false,false,1270,image-keyboard-response,5
true,10,0,3,1,false,z,false,false,0.0-2.0-0.42-0.384-3.384,1,1,0,81,false,stim,true,0,919.2000000029802,1,0,2,32111,WMM2,1732369,false,false,1273,image-keyboard-response,6
true,10,2,3,2,true,d,false,false,0.0-2.0-0.42-0.385-3.385,1,1,0,68,false,stim,false,2,1202.7999999970198,1,1,1,32111,WMM2,1735088,false,true,1276,image-keyboard-response,7
true,10,1,3,1,true,z,false,true,0.0-2.0-0.42-0.386-3.386,1,1,0,90,false,stim,false,0,742.0,1,0,2,32111,WMM2,1737348,false,false,1279,image-keyboard-response,8
true,10,2,3,2,true,d,false,true,0.0-2.0-0.43-0.387-3.387,1,1,0,68,false,stim,false,2,1071.2000000029802,1,1,1,32111,WMM2,1739938,false,false,1282,image-keyboard-response,9
true,10,1,3,1,true,z,false,true,0.0-2.0-0.43-0.388-3.388,1,1,0,90,false,stim,false,0,473.29999999701977,1,0,2,32111,WMM2,1741928,false,false,1285,image-keyboard-response,10
true,10,2,3,2,true,d,false,true,0.0-2.0-0.43-0.389-3.389,1,1,0,68,false,stim,false,2,1305.0,1,1,0,32111,WMM2,1744759,false,false,1288,image-keyboard-response,11
true,10,1,3,2,false,d,true,false,0.0-2.0-0.43-0.390-3.390,1,1,0,90,false,stim,false,2,2124.0,1,1,1,32111,WMM2,1748398,false,false,1291,image-keyboard-response,12
true,10,0,3,1,false,z,false,false,0.0-2.0-0.43-0.391-3.391,1,1,0,81,false,stim,true,0,2210.0,1,0,2,32111,WMM2,1752118,false,false,1294,image-keyboard-response,13
true,10,2,3,1,false,z,true,false,0.0-2.0-0.43-0.392-3.392,1,1,0,68,false,stim,false,0,932.7000000029802,1,0,2,32111,WMM2,1754558,false,false,1297,image-keyboard-response,14
true,10,2,3,2,true,d,false,true,0.0-2.0-0.43-0.393-3.393,1,1,0,68,false,stim,false,2,1271.6000000089407,1,1,0,32111,WMM2,1757349,false,false,1300,image-keyboard-response,15
true,10,2,3,2,true,d,false,true,0.0-2.0-0.43-0.394-3.394,1,1,0,68,false,stim,false,2,921.0,1,1,0,32111,WMM2,1759778,false,false,1303,image-keyboard-response,16
true,10,0,3,2,false,d,true,false,0.0-2.0-0.43-0.395-3.395,1,1,0,81,false,stim,false,2,2482.3999999910593,1,1,1,32111,WMM2,1763778,false,false,1306,image-keyboard-response,17
true,10,2,3,1,false,z,true,false,0.0-2.0-0.44-0.396-3.396,1,1,0,68,false,stim,false,0,1264.0,1,0,2,32111,WMM2,1766559,false,false,1309,image-keyboard-response,18
true,10,0,3,2,false,d,true,false,0.0-2.0-0.44-0.397-3.397,1,1,0,81,false,stim,false,2,1698.4000000059605,1,1,0,32111,WMM2,1769770,false,false,1312,image-keyboard-response,19
true,10,1,3,2,false,d,true,true,0.0-2.0-0.44-0.398-3.398,1,1,0,90,false,stim,false,2,787.0,1,1,1,32111,WMM2,1772079,false,true,1315,image-keyboard-response,20
true,10,1,3,2,false,d,true,false,0.0-2.0-0.44-0.399-3.399,1,1,0,90,false,stim,false,2,530.0,1,1,1,32111,WMM2,1774129,false,false,1318,image-keyboard-response,21
true,10,1,3,2,false,d,true,false,0.0-2.0-0.44-0.400-3.400,1,1,0,90,false,stim,false,2,423.6000000089407,1,1,1,32111,WMM2,1776069,false,false,1321,image-keyboard-response,22
true,10,1,3,2,false,d,true,false,0.0-2.0-0.44-0.401-3.401,1,1,0,90,false,stim,false,2,931.7000000029802,1,1,0,32111,WMM2,1778520,false,false,1324,image-keyboard-response,23
true,10,0,3,1,false,z,false,false,0.0-2.0-0.44-0.402-3.402,1,1,0,81,false,stim,true,0,1378.0,1,0,2,32111,WMM2,1781420,false,false,1327,image-keyboard-response,24
true,10,2,3,2,true,d,false,true,0.0-2.0-0.44-0.403-3.403,1,1,0,68,false,stim,false,2,1386.2999999970198,1,1,0,32111,WMM2,1784320,false,false,1330,image-keyboard-response,25
true,10,1,3,1,true,z,false,true,0.0-2.0-0.44-0.404-3.404,1,1,0,90,false,stim,false,0,1546.0,1,0,2,32111,WMM2,1787379,false,false,1333,image-keyboard-response,26
true,10,2,3,2,true,d,false,false,0.0-2.0-0.45-0.405-3.405,1,1,0,68,false,stim,false,2,1224.2000000029802,1,1,0,32111,WMM2,1790129,false,true,1336,image-keyboard-response,27
true,10,2,3,2,true,d,false,true,0.0-2.0-0.45-0.406-3.406,1,1,0,68,false,stim,false,2,470.90000000596046,1,1,0,32111,WMM2,1792119,false,false,1339,image-keyboard-response,28
true,10,2,3,2,true,d,false,true,0.0-2.0-0.45-0.407-3.407,1,1,0,68,false,stim,false,2,889.2999999970198,1,1,0,32111,WMM2,1794529,false,false,1342,image-keyboard-response,29
true,10,1,3,2,false,d,true,false,0.0-2.0-0.45-0.408-3.408,1,1,0,90,false,stim,false,2,2680.2999999970198,1,1,1,32111,WMM2,1798729,false,false,1345,image-keyboard-response,30
true,10,2,3,2,true,d,false,true,0.0-2.0-0.45-0.409-3.409,1,1,0,68,false,stim,false,2,1618.9000000059605,1,1,1,32111,WMM2,1801859,false,false,1348,image-keyboard-response,31
true,10,1,3,1,true,z,false,true,0.0-2.0-0.45-0.410-3.410,1,1,0,90,false,stim,false,0,2313.5,1,0,2,32111,WMM2,1805689,false,false,1351,image-keyboard-response,32
true,10,1,3,2,false,d,true,true,0.0-2.0-0.45-0.411-3.411,1,1,0,90,false,stim,false,2,1018.3999999910593,1,1,1,32111,WMM2,1808219,false,true,1354,image-keyboard-response,33
true,10,1,3,1,true,z,false,false,0.0-2.0-0.45-0.412-3.412,1,1,0,90,false,stim,false,0,638.1000000089407,1,0,2,32111,WMM2,1810369,false,true,1357,image-keyboard-response,34
true,10,0,3,1,false,z,false,false,0.0-2.0-0.45-0.413-3.413,1,1,0,81,false,stim,true,0,1013.8000000119209,1,0,2,32111,WMM2,1812900,false,false,1360,image-keyboard-response,35
true,10,2,3,1,false,z,true,false,0.0-2.0-0.46-0.414-3.414,1,1,0,68,false,stim,false,0,477.40000000596046,1,0,2,32111,WMM2,1814899,false,false,1363,image-keyboard-response,36
true,10,2,3,2,true,d,false,true,0.0-2.0-0.46-0.415-3.415,1,1,0,68,false,stim,false,2,1169.7000000029802,1,1,0,32111,WMM2,1817579,false,false,1366,image-keyboard-response,37
true,10,1,3,2,false,d,true,false,0.0-2.0-0.46-0.416-3.416,1,1,0,90,false,stim,false,2,861.4000000059605,1,1,1,32111,WMM2,1819959,false,false,1369,image-keyboard-response,38
true,10,0,3,1,false,z,false,false,0.0-2.0-0.46-0.417-3.417,1,1,0,81,false,stim,true,0,1112.699999988079,1,0,2,32111,WMM2,1822589,false,false,1372,image-keyboard-response,39
true,10,1,3,2,false,d,true,false,0.0-2.0-0.46-0.418-3.418,1,1,0,90,false,stim,false,2,1506.2999999970198,1,1,1,32111,WMM2,1825610,false,false,1375,image-keyboard-response,40
true,10,1,3,1,true,z,false,true,0.0-2.0-0.46-0.419-3.419,1,1,0,90,false,stim,false,0,1941.0,1,0,2,32111,WMM2,1829060,false,false,1378,image-keyboard-response,41
true,10,2,3,2,true,d,false,true,0.0-2.0-0.46-0.420-3.420,1,1,0,68,false,stim,false,2,1241.2999999970198,1,1,0,32111,WMM2,1831811,false,false,1381,image-keyboard-response,42
true,10,1,3,2,false,d,true,false,0.0-2.0-0.46-0.421-3.421,1,1,0,90,false,stim,false,2,910.5999999940395,1,1,1,32111,WMM2,1834240,false,false,1384,image-keyboard-response,43
true,10,1,3,2,false,d,true,false,0.0-2.0-0.46-0.422-3.422,1,1,0,90,false,stim,false,2,1716.1000000089407,1,1,0,32111,WMM2,1837470,false,false,1387,image-keyboard-response,44
true,10,1,3,1,true,z,false,true,0.0-2.0-0.47-0.423-3.423,1,1,0,90,false,stim,false,0,1918.5999999940395,1,0,2,32111,WMM2,1840900,false,false,1390,image-keyboard-response,45
true,10,1,3,1,true,z,false,false,0.0-2.0-0.47-0.424-3.424,1,1,0,90,false,stim,false,0,448.19999998807907,1,0,2,32111,WMM2,1842860,false,true,1393,image-keyboard-response,46
true,10,0,3,2,false,d,true,false,0.0-2.0-0.47-0.425-3.425,1,1,0,81,false,stim,false,2,1999.699999988079,1,1,1,32111,WMM2,1846370,false,false,1396,image-keyboard-response,47
true,10,0,3,2,false,d,true,false,0.0-2.0-0.47-0.426-3.426,1,1,0,81,false,stim,false,2,1292.5,1,1,0,32111,WMM2,1849180,false,false,1399,image-keyboard-response,48
true,10,1,3,1,true,z,false,true,0.0-2.0-0.47-0.427-3.427,1,1,0,90,false,stim,false,0,962.2999999970198,1,0,2,32111,WMM2,1851671,false,false,1402,image-keyboard-response,49
true,10,1,3,2,false,d,true,false,0.0-2.0-0.47-0.428-3.428,1,1,0,90,false,stim,false,2,1160.699999988079,1,1,1,32111,WMM2,1854341,false,false,1405,image-keyboard-response,50
true,10,2,3,2,true,d,false,true,0.0-2.0-0.47-0.429-3.429,1,1,0,68,false,stim,false,2,961.5999999940395,1,1,1,32111,WMM2,1856821,false,false,1408,image-keyboard-response,51
true,10,1,3,2,false,d,true,false,0.0-2.0-0.47-0.430-3.430,1,1,0,90,false,stim,false,2,1685.5,1,0,0,32111,WMM2,1860011,false,false,1411,image-keyboard-response,52
true,10,2,3,2,true,d,false,true,0.0-2.0-0.47-0.431-3.431,1,1,0,68,false,stim,false,2,835.5,1,0,0,32111,WMM2,1862361,false,false,1414,image-keyboard-response,53
true,10,1,3,2,false,d,true,false,0.0-2.0-0.48-0.432-3.432,1,1,0,90,false,stim,false,2,1218.199999988079,1,1,1,32111,WMM2,1865091,false,false,1417,image-keyboard-response,54
true,10,0,3,2,false,d,true,false,0.0-2.0-0.48-0.433-3.433,1,1,0,81,false,stim,false,2,1335.3999999910593,1,1,1,32111,WMM2,1867941,false,false,1420,image-keyboard-response,55
true,10,2,3,2,true,d,false,false,0.0-2.0-0.48-0.434-3.434,1,1,0,68,false,stim,false,2,2239.4000000059605,1,0,0,32111,WMM2,1871691,false,true,1423,image-keyboard-response,56
true,10,2,3,1,false,z,true,false,0.0-2.0-0.48-0.435-3.435,1,1,0,68,false,stim,false,0,1137.2999999970198,1,0,2,32111,WMM2,1874341,false,false,1426,image-keyboard-response,57
true,10,2,3,2,true,d,false,true,0.0-2.0-0.48-0.436-3.436,1,1,0,68,false,stim,false,2,1776.3999999910593,1,1,1,32111,WMM2,1877631,false,false,1429,image-keyboard-response,58
true,10,1,3,2,false,d,true,false,0.0-2.0-0.48-0.437-3.437,1,1,0,90,false,stim,false,2,1285.199999988079,1,0,0,32111,WMM2,1880432,false,false,1432,image-keyboard-response,59
true,10,0,3,1,false,z,false,false,0.0-2.0-0.48-0.438-3.438,1,1,0,81,false,stim,true,0,1237.2000000029802,1,0,2,32111,WMM2,1883192,false,false,1435,image-keyboard-response,60
true,11,1,1,0,false,q,false,false,0.0-2.0-0.48-0.439-3.439,0,1,0,90,true,stim,true,1,1411.7000000029802,1,0,2,32111,WMM2,1886122,false,false,1438,image-keyboard-response,1
true,11,2,1,0,false,q,false,false,0.0-2.0-0.48-0.440-3.440,0,1,0,68,false,stim,true,2,1904.0999999940395,1,0,0,32111,WMM2,1889532,false,false,1441,image-keyboard-response,2
true,11,1,1,2,false,d,true,false,0.0-2.0-0.49-0.441-3.441,0,1,0,90,false,stim,false,2,1423.5,1,1,1,32111,WMM2,1892482,false,false,1444,image-keyboard-response,3
true,11,2,1,0,false,q,true,false,0.0-2.0-0.49-0.442-3.442,0,1,0,68,false,stim,false,1,2348.7999999970198,1,0,2,32111,WMM2,1896342,false,false,1447,image-keyboard-response,4
true,11,0,1,2,false,d,true,false,0.0-2.0-0.49-0.443-3.443,0,1,0,81,false,stim,false,2,2044.199999988079,1,1,1,32111,WMM2,1899912,false,false,1450,image-keyboard-response,5
false,11,-1,1,0,false,q,true,false,0.0-2.0-0.49-0.444-3.444,0,1,0,,false,stim,false,2,,1,0,0,32111,WMM2,1904445,false,false,1453,image-keyboard-response,6
true,11,1,1,0,false,q,false,false,0.0-2.0-0.49-0.445-3.445,0,1,0,90,false,stim,true,1,773.7999999970198,1,0,2,32111,WMM2,1906732,false,false,1456,image-keyboard-response,7
true,11,0,1,0,true,q,false,true,0.0-2.0-0.49-0.446-3.446,0,1,0,81,false,stim,false,2,1208.3999999910593,1,0,0,32111,WMM2,1909462,false,false,1459,image-keyboard-response,8
true,11,1,1,2,false,d,true,false,0.0-2.0-0.49-0.447-3.447,0,1,0,90,false,stim,false,2,1372.7999999970198,1,1,1,32111,WMM2,1912351,false,false,1462,image-keyboard-response,9
true,11,2,1,0,false,q,true,true,0.0-2.0-0.49-0.448-3.448,0,1,0,68,false,stim,false,1,1119.199999988079,1,0,2,32111,WMM2,1914981,false,true,1465,image-keyboard-response,10
true,11,0,1,0,true,q,false,true,0.0-2.0-0.49-0.449-3.449,0,1,0,81,false,stim,false,2,1026.5,1,0,0,32111,WMM2,1917532,false,false,1468,image-keyboard-response,11
true,11,1,1,2,false,d,true,false,0.0-2.0-0.50-0.450-3.450,0,1,0,90,false,stim,false,2,795.6999999880791,1,1,1,32111,WMM2,1919851,false,false,1471,image-keyboard-response,12
true,11,0,1,2,false,d,true,false,0.0-2.0-0.50-0.451-3.451,0,1,0,81,false,stim,false,2,939.8999999910593,1,1,1,32111,WMM2,1922311,false,false,1474,image-keyboard-response,13
true,11,0,1,0,true,q,false,true,0.0-2.0-0.50-0.452-3.452,0,1,0,81,false,stim,false,2,1343.0,1,0,0,32111,WMM2,1925171,false,false,1477,image-keyboard-response,14
true,11,1,1,2,false,d,true,false,0.0-2.0-0.50-0.453-3.453,0,1,0,90,false,stim,false,2,1213.2000000029802,1,1,1,32111,WMM2,1927912,false,false,1480,image-keyboard-response,15
true,11,2,1,0,false,q,false,false,0.0-2.0-0.50-0.454-3.454,0,1,0,68,false,stim,true,2,1006.7999999970198,1,0,0,32111,WMM2,1930431,false,false,1483,image-keyboard-response,16
true,11,2,1,0,false,q,true,false,0.0-2.0-0.50-0.455-3.455,0,1,0,68,false,stim,false,1,908.5999999940395,1,0,2,32111,WMM2,1932862,false,false,1486,image-keyboard-response,17
true,11,0,1,0,true,q,false,true,0.0-2.0-0.50-0.456-3.456,0,1,0,81,false,stim,false,2,2178.5,1,0,0,32111,WMM2,1936562,false,false,1489,image-keyboard-response,18
true,11,2,1,0,false,q,true,false,0.0-2.0-0.50-0.457-3.457,0,1,0,68,false,stim,false,1,1186.1000000089407,1,0,2,32111,WMM2,1939262,false,false,1492,image-keyboard-response,19
true,11,2,1,0,false,q,true,false,0.0-2.0-0.50-0.458-3.458,0,1,0,68,false,stim,false,1,606.2000000029802,1,0,2,32111,WMM2,1941382,false,false,1495,image-keyboard-response,20
true,11,0,1,0,true,q,false,true,0.0-2.0-0.51-0.459-3.459,0,1,0,81,false,stim,false,1,461.29999999701977,1,0,2,32111,WMM2,1943362,false,false,1498,image-keyboard-response,21
true,11,0,1,0,true,q,false,true,0.0-2.0-0.51-0.460-3.460,0,1,0,81,false,stim,false,1,559.5999999940395,1,0,2,32111,WMM2,1945442,false,false,1501,image-keyboard-response,22
true,11,0,1,0,true,q,false,true,0.0-2.0-0.51-0.461-3.461,0,1,0,81,false,stim,false,1,489.40000000596046,1,0,2,32111,WMM2,1947442,false,false,1504,image-keyboard-response,23
true,11,1,1,0,false,q,true,false,0.0-2.0-0.51-0.462-3.462,0,1,0,90,false,stim,false,2,1555.7000000029802,1,0,0,32111,WMM2,1950523,false,false,1507,image-keyboard-response,24
true,11,0,1,2,false,d,true,false,0.0-2.0-0.51-0.463-3.463,0,1,0,81,false,stim,false,2,1027.2999999970198,1,1,1,32111,WMM2,1953062,false,false,1510,image-keyboard-response,25
true,11,2,1,2,true,d,false,true,0.0-2.0-0.51-0.464-3.464,0,1,0,68,false,stim,false,2,986.3999999910593,1,1,1,32111,WMM2,1955572,false,false,1513,image-keyboard-response,26
true,11,0,1,0,true,q,false,true,0.0-2.0-0.51-0.465-3.465,0,1,0,81,false,stim,false,2,1664.7000000029802,1,0,0,32111,WMM2,1958752,false,false,1516,image-keyboard-response,27
true,11,2,1,2,true,d,false,true,0.0-2.0-0.51-0.466-3.466,0,1,0,68,false,stim,false,2,882.4000000059605,1,1,1,32111,WMM2,1961142,false,false,1519,image-keyboard-response,28
true,11,0,1,0,true,q,false,true,0.0-2.0-0.51-0.467-3.467,0,1,0,81,false,stim,false,2,1217.0,1,0,0,32111,WMM2,1963872,false,false,1522,image-keyboard-response,29
true,11,2,1,0,false,q,true,false,0.0-2.0-0.52-0.468-3.468,0,1,0,68,false,stim,false,1,815.5999999940395,1,0,2,32111,WMM2,1966212,false,false,1525,image-keyboard-response,30
true,11,2,1,2,true,d,false,false,0.0-2.0-0.52-0.469-3.469,0,1,0,68,false,stim,false,2,2384.5999999940395,1,1,1,32111,WMM2,1970102,false,true,1528,image-keyboard-response,31
true,11,0,1,0,true,q,false,true,0.0-2.0-0.52-0.470-3.470,0,1,0,81,false,stim,false,2,1823.7000000029802,1,1,0,32111,WMM2,1973443,false,false,1531,image-keyboard-response,32
true,11,2,1,0,false,q,true,false,0.0-2.0-0.52-0.471-3.471,0,1,0,68,false,stim,false,1,1991.0,1,0,2,32111,WMM2,1976953,false,false,1534,image-keyboard-response,33
true,11,0,1,0,true,q,false,false,0.0-2.0-0.52-0.472-3.472,0,1,0,81,false,stim,false,2,2536.0,1,1,0,32111,WMM2,1980993,false,true,1537,image-keyboard-response,34
true,11,1,1,0,false,q,true,false,0.0-2.0-0.52-0.473-3.473,0,1,0,90,false,stim,false,2,2018.7000000029802,1,1,0,32111,WMM2,1984523,false,false,1540,image-keyboard-response,35
true,11,0,1,2,false,d,true,false,0.0-2.0-0.52-0.474-3.474,0,1,0,81,false,stim,false,2,1338.9000000059605,1,1,1,32111,WMM2,1987384,false,false,1543,image-keyboard-response,36
true,11,0,1,0,true,q,false,true,0.0-2.0-0.52-0.475-3.475,0,1,0,81,false,stim,false,1,1115.2999999970198,1,0,2,32111,WMM2,1990024,false,false,1546,image-keyboard-response,37
true,11,2,1,2,true,d,false,false,0.0-2.0-0.52-0.476-3.476,0,1,0,68,false,stim,false,2,2477.5,1,1,1,32111,WMM2,1994024,false,true,1549,image-keyboard-response,38
true,11,1,1,0,false,q,false,false,0.0-2.0-0.53-0.477-3.477,0,1,0,90,false,stim,true,1,1536.7000000029802,1,0,2,32111,WMM2,1997074,false,false,1552,image-keyboard-response,39
true,12,2,2,0,false,q,true,false,0.0-2.0-0.53-0.478-3.478,1,1,0,68,true,stim,false,0,2431.5999999940395,1,1,0,32111,WMM2,2001014,false,false,1555,image-keyboard-response,1
true,12,0,2,1,false,z,false,false,0.0-2.0-0.53-0.479-3.479,1,1,0,81,false,stim,true,0,1204.5,1,0,2,32111,WMM2,2003724,false,false,1558,image-keyboard-response,2
true,12,0,2,2,false,d,true,false,0.0-2.0-0.53-0.480-3.480,1,1,0,81,false,stim,false,2,1105.9000000059605,1,1,1,32111,WMM2,2006354,false,false,1561,image-keyboard-response,3
true,12,2,2,2,true,d,false,true,0.0-2.0-0.53-0.481-3.481,1,1,0,68,false,stim,false,2,728.0999999940395,1,1,1,32111,WMM2,2008594,false,false,1564,image-keyboard-response,4
true,12,1,2,0,false,q,true,false,0.0-2.0-0.53-0.482-3.482,1,1,0,90,false,stim,false,0,1198.7000000029802,1,1,0,32111,WMM2,2011304,false,false,1567,image-keyboard-response,5
true,12,2,2,2,true,d,false,true,0.0-2.0-0.53-0.483-3.483,1,1,0,68,false,stim,false,2,613.5999999940395,1,1,1,32111,WMM2,2013424,false,false,1570,image-keyboard-response,6
true,12,2,2,0,false,q,true,true,0.0-2.0-0.53-0.484-3.484,1,1,0,68,false,stim,false,0,620.5999999940395,1,1,0,32111,WMM2,2015554,false,true,1573,image-keyboard-response,7
true,12,0,2,1,false,z,false,false,0.0-2.0-0.53-0.485-3.485,1,1,0,81,false,stim,true,0,1982.5999999940395,1,0,2,32111,WMM2,2019044,false,false,1576,image-keyboard-response,8
true,12,1,2,1,true,z,false,true,0.0-2.0-0.54-0.486-3.486,1,1,0,90,false,stim,false,0,652.7000000029802,1,0,2,32111,WMM2,2021214,false,false,1579,image-keyboard-response,9
true,12,2,2,0,false,q,true,false,0.0-2.0-0.54-0.487-3.487,1,1,0,68,false,stim,false,0,692.2000000029802,1,1,0,32111,WMM2,2023414,false,false,1582,image-keyboard-response,10
true,12,2,2,2,true,d,false,true,0.0-2.0-0.54-0.488-3.488,1,1,0,68,false,stim,false,2,2010.2000000029802,1,1,1,32111,WMM2,2026944,false,false,1585,image-keyboard-response,11
true,12,0,2,1,false,z,false,false,0.0-2.0-0.54-0.489-3.489,1,1,0,81,false,stim,true,0,1261.9000000059605,1,0,2,32111,WMM2,2029714,false,false,1588,image-keyboard-response,12
true,12,1,2,1,true,z,false,true,0.0-2.0-0.54-0.490-3.490,1,1,0,90,false,stim,false,0,633.2000000029802,1,0,2,32111,WMM2,2031864,false,false,1591,image-keyboard-response,13
true,12,0,2,2,false,d,true,false,0.0-2.0-0.54-0.491-3.491,1,1,0,81,false,stim,false,2,2308.0999999940395,1,1,1,32111,WMM2,2035684,false,false,1594,image-keyboard-response,14
true,12,0,2,0,true,q,false,true,0.0-2.0-0.54-0.492-3.492,1,1,0,81,false,stim,false,0,875.0,1,1,0,32111,WMM2,2038084,false,false,1597,image-keyboard-response,15
true,12,0,2,0,true,q,false,true,0.0-2.0-0.54-0.493-3.493,1,1,0,81,false,stim,false,0,547.5,1,1,0,32111,WMM2,2040144,false,false,1600,image-keyboard-response,16
true,12,2,2,2,true,d,false,true,0.0-2.0-0.54-0.494-3.494,1,1,0,68,false,stim,false,2,940.9000000059605,1,1,1,32111,WMM2,2042614,false,false,1603,image-keyboard-response,17
true,12,1,2,1,true,z,false,true,0.0-2.0-0.55-0.495-3.495,1,1,0,90,false,stim,false,0,939.0999999940395,1,0,2,32111,WMM2,2045065,false,false,1606,image-keyboard-response,18
true,12,0,2,0,true,q,false,true,0.0-2.0-0.55-0.496-3.496,1,1,0,81,false,stim,false,0,1096.5999999940395,1,1,0,32111,WMM2,2047675,false,false,1609,image-keyboard-response,19
true,12,2,2,2,true,d,false,true,0.0-2.0-0.55-0.497-3.497,1,1,0,68,false,stim,false,2,746.7999999970198,1,1,1,32111,WMM2,2049945,false,false,1612,image-keyboard-response,20
true,12,1,2,1,true,z,false,true,0.0-2.0-0.55-0.498-3.498,1,1,0,90,false,stim,false,0,705.7999999970198,1,1,2,32111,WMM2,2052175,false,false,1615,image-keyboard-response,21
true,12,0,2,0,true,q,false,true,0.0-2.0-0.55-0.499-3.499,1,1,0,81,false,stim,false,0,1826.9000000059605,1,0,0,32111,WMM2,2055515,false,false,1618,image-keyboard-response,22
true,12,1,2,1,true,z,false,true,0.0-2.0-0.55-0.500-3.500,1,1,0,90,false,stim,false,0,1450.9000000059605,1,1,2,32111,WMM2,2058485,false,false,1621,image-keyboard-response,23
true,12,2,2,2,true,d,false,true,0.0-2.0-0.55-0.501-3.501,1,1,0,68,false,stim,false,2,610.5999999940395,1,1,1,32111,WMM2,2060615,false,false,1624,image-keyboard-response,24
true,12,2,2,2,true,d,false,true,0.0-2.0-0.55-0.502-3.502,1,1,0,68,false,stim,false,2,604.6000000089407,1,1,1,32111,WMM2,2062735,false,false,1627,image-keyboard-response,25
true,12,0,2,0,true,q,false,true,0.0-2.0-0.55-0.503-3.503,1,1,0,81,false,stim,false,0,1299.5999999940395,1,0,0,32111,WMM2,2065545,false,false,1630,image-keyboard-response,26
true,12,2,2,1,false,z,true,false,0.0-2.0-0.56-0.504-3.504,1,1,0,68,false,stim,false,0,1105.0,1,1,2,32111,WMM2,2068165,false,false,1633,image-keyboard-response,27
true,12,0,2,0,true,q,false,true,0.0-2.0-0.56-0.505-3.505,1,1,0,81,false,stim,false,0,1126.7000000029802,1,0,0,32111,WMM2,2070825,false,false,1636,image-keyboard-response,28
true,12,2,2,1,false,z,true,false,0.0-2.0-0.56-0.506-3.506,1,1,0,68,false,stim,false,0,1662.4000000059605,1,1,2,32111,WMM2,2073995,false,false,1639,image-keyboard-response,29
true,12,0,2,2,false,d,true,false,0.0-2.0-0.56-0.507-3.507,1,1,0,81,false,stim,false,2,1373.4000000059605,1,1,1,32111,WMM2,2076875,false,false,1642,image-keyboard-response,30
true,13,1,2,1,true,z,false,true,0.0-2.0-0.56-0.508-3.508,0,1,1,90,true,stim,false,1,1104.0,1,1,2,32111,WMM2,2079505,false,false,1645,image-keyboard-response,1
true,13,0,2,2,false,d,true,false,0.0-2.0-0.56-0.509-3.509,0,1,1,81,false,stim,false,2,2294.5999999940395,1,1,1,32111,WMM2,2083315,false,false,1648,image-keyboard-response,2
true,13,2,2,2,true,d,false,true,0.0-2.0-0.56-0.510-3.510,0,1,1,68,false,stim,false,2,951.1000000089407,1,1,1,32111,WMM2,2085775,false,false,1651,image-keyboard-response,3
true,13,0,2,1,false,z,false,false,0.0-2.0-0.56-0.511-3.511,0,1,1,81,false,stim,true,0,1472.0999999940395,1,0,0,32111,WMM2,2088765,false,false,1654,image-keyboard-response,4
true,13,0,2,1,false,z,false,false,0.0-2.0-0.56-0.512-3.512,0,1,1,81,false,stim,true,0,674.0999999940395,1,0,0,32111,WMM2,2090955,false,false,1657,image-keyboard-response,5
true,13,1,2,1,true,z,false,true,0.0-2.0-0.57-0.513-3.513,0,1,1,90,false,stim,false,0,803.0999999940395,1,0,0,32111,WMM2,2093275,false,false,1660,image-keyboard-response,6
true,13,1,2,1,true,z,false,true,0.0-2.0-0.57-0.514-3.514,0,1,1,90,false,stim,false,1,720.5999999940395,1,1,2,32111,WMM2,2095504,false,false,1663,image-keyboard-response,7
true,13,1,2,2,false,d,true,false,0.0-2.0-0.57-0.515-3.515,0,1,1,90,false,stim,false,2,433.19999998807907,1,1,1,32111,WMM2,2097465,false,false,1666,image-keyboard-response,8
true,13,1,2,1,true,z,false,true,0.0-2.0-0.57-0.516-3.516,0,1,1,90,false,stim,false,1,633.7999999970198,1,1,2,32111,WMM2,2099615,false,false,1669,image-keyboard-response,9
true,13,2,2,1,false,z,true,false,0.0-2.0-0.57-0.517-3.517,0,1,1,68,false,stim,false,0,941.2000000029802,1,0,0,32111,WMM2,2102075,false,false,1672,image-keyboard-response,10
true,13,1,2,2,false,d,true,false,0.0-2.0-0.57-0.518-3.518,0,1,1,90,false,stim,false,2,1347.2000000029802,1,1,1,32111,WMM2,2104936,false,false,1675,image-keyboard-response,11
true,13,1,2,1,true,z,false,true,0.0-2.0-0.57-0.519-3.519,0,1,1,90,false,stim,false,0,682.8000000119209,1,0,0,32111,WMM2,2107135,false,false,1678,image-keyboard-response,12
true,13,0,2,1,false,z,true,false,0.0-2.0-0.57-0.520-3.520,0,1,1,81,false,stim,false,1,1730.7999999970198,1,1,2,32111,WMM2,2110376,false,false,1681,image-keyboard-response,13
true,13,1,2,2,false,d,true,false,0.0-2.0-0.57-0.521-3.521,0,1,1,90,false,stim,false,2,295.40000000596046,1,1,1,32111,WMM2,2112185,false,false,1684,image-keyboard-response,14
true,13,1,2,1,true,z,false,false,0.0-2.0-0.58-0.522-3.522,0,1,1,90,false,stim,false,0,1683.7000000029802,1,0,0,32111,WMM2,2115386,false,true,1687,image-keyboard-response,15
true,13,1,2,2,false,d,true,false,0.0-2.0-0.58-0.523-3.523,0,1,1,90,false,stim,false,2,495.6000000089407,1,1,1,32111,WMM2,2117395,false,false,1690,image-keyboard-response,16
true,13,1,2,1,true,z,false,true,0.0-2.0-0.58-0.524-3.524,0,1,1,90,false,stim,false,1,369.20000000298023,1,1,2,32111,WMM2,2119286,false,false,1693,image-keyboard-response,17
true,13,0,2,2,false,d,true,false,0.0-2.0-0.58-0.525-3.525,0,1,1,81,false,stim,false,2,754.2999999970198,1,1,1,32111,WMM2,2121556,false,false,1696,image-keyboard-response,18
true,13,1,2,1,true,z,false,true,0.0-2.0-0.58-0.526-3.526,0,1,1,90,false,stim,false,1,859.8000000119209,1,1,2,32111,WMM2,2123925,false,false,1699,image-keyboard-response,19
true,13,2,2,1,false,z,true,false,0.0-2.0-0.58-0.527-3.527,0,1,1,68,false,stim,false,0,1284.800000011921,1,0,0,32111,WMM2,2126735,false,false,1702,image-keyboard-response,20
true,13,0,2,2,false,d,true,false,0.0-2.0-0.58-0.528-3.528,0,1,1,81,false,stim,false,2,1008.4000000059605,1,1,1,32111,WMM2,2129255,false,false,1705,image-keyboard-response,21
true,13,1,2,1,true,z,false,true,0.0-2.0-0.58-0.529-3.529,0,1,1,90,false,stim,false,0,1509.199999988079,1,0,0,32111,WMM2,2132286,false,false,1708,image-keyboard-response,22
true,13,1,2,1,true,z,false,true,0.0-2.0-0.58-0.530-3.530,0,1,1,90,false,stim,false,1,557.9000000059605,1,1,2,32111,WMM2,2134366,false,false,1711,image-keyboard-response,23
true,13,1,2,1,true,z,false,true,0.0-2.0-0.59-0.531-3.531,0,1,1,90,false,stim,false,1,427.79999999701977,1,1,2,32111,WMM2,2136316,false,false,1714,image-keyboard-response,24
true,13,1,2,1,true,z,false,true,0.0-2.0-0.59-0.532-3.532,0,1,1,90,false,stim,false,0,377.70000000298023,1,0,0,32111,WMM2,2138215,false,false,1717,image-keyboard-response,25
true,13,1,2,1,true,z,false,true,0.0-2.0-0.59-0.533-3.533,0,1,1,90,false,stim,false,0,395.79999999701977,1,0,0,32111,WMM2,2140136,false,false,1720,image-keyboard-response,26
true,13,1,2,2,false,d,true,false,0.0-2.0-0.59-0.534-3.534,0,1,1,90,false,stim,false,2,764.5,1,1,1,32111,WMM2,2142416,false,false,1723,image-keyboard-response,27
true,13,2,2,2,true,d,false,true,0.0-2.0-0.59-0.535-3.535,0,1,1,68,false,stim,false,2,305.29999999701977,1,1,1,32111,WMM2,2144245,false,false,1726,image-keyboard-response,28
true,13,2,2,2,true,d,false,true,0.0-2.0-0.59-0.536-3.536,0,1,1,68,false,stim,false,2,383.20000000298023,1,1,1,32111,WMM2,2146145,false,false,1729,image-keyboard-response,29
true,13,1,2,1,true,z,false,true,0.0-2.0-0.59-0.537-3.537,0,1,1,90,false,stim,false,1,559.7999999970198,1,0,2,32111,WMM2,2148225,false,false,1732,image-keyboard-response,30
true,13,1,2,1,true,z,false,true,0.0-2.0-0.59-0.538-3.538,0,1,1,90,false,stim,false,1,351.0,1,0,2,32111,WMM2,2150095,false,false,1735,image-keyboard-response,31
true,13,1,2,1,true,z,false,true,0.0-2.0-0.59-0.539-3.539,0,1,1,90,false,stim,false,0,702.8000000119209,1,1,0,32111,WMM2,2152305,false,false,1738,image-keyboard-response,32
true,13,1,2,1,true,z,false,true,0.0-2.0-0.60-0.540-3.540,0,1,1,90,false,stim,false,1,590.6000000089407,1,0,2,32111,WMM2,2154406,false,false,1741,image-keyboard-response,33
true,13,1,2,2,false,d,true,false,0.0-2.0-0.60-0.541-3.541,0,1,1,90,false,stim,false,2,476.40000000596046,1,1,1,32111,WMM2,2156396,false,false,1744,image-keyboard-response,34
true,13,1,2,2,false,d,true,false,0.0-2.0-0.60-0.542-3.542,0,1,1,90,false,stim,false,2,440.80000001192093,1,1,1,32111,WMM2,2158356,false,false,1747,image-keyboard-response,35
true,13,2,2,2,true,d,false,false,0.0-2.0-0.60-0.543-3.543,0,1,1,68,false,stim,false,2,670.0999999940395,1,1,1,32111,WMM2,2160546,false,true,1750,image-keyboard-response,36
true,13,1,2,1,true,z,false,true,0.0-2.0-0.60-0.544-3.544,0,1,1,90,false,stim,false,1,967.9000000059605,1,0,2,32111,WMM2,2163036,false,false,1753,image-keyboard-response,37
true,13,1,2,1,true,z,false,true,0.0-2.0-0.60-0.545-3.545,0,1,1,90,false,stim,false,0,342.79999999701977,1,1,0,32111,WMM2,2164886,false,false,1756,image-keyboard-response,38
true,13,0,2,1,false,z,true,false,0.0-2.0-0.60-0.546-3.546,0,1,1,81,false,stim,false,1,350.09999999403954,1,0,2,32111,WMM2,2166746,false,false,1759,image-keyboard-response,39
true,14,2,0,1,false,z,true,false,0.0-2.0-0.60-0.547-3.547,1,1,0,68,true,stim,false,1,1055.3999999910593,1,1,0,32111,WMM2,2290684,false,false,1882,image-keyboard-response,1
true,14,1,0,1,true,z,false,true,0.0-2.0-0.60-0.548-3.548,1,1,0,90,false,stim,false,1,606.2000000029802,1,1,0,32111,WMM2,2292812,false,false,1885,image-keyboard-response,2
true,14,0,0,2,false,d,true,false,0.0-2.0-0.61-0.549-3.549,1,1,0,81,false,stim,false,2,686.1000000089407,1,1,1,32111,WMM2,2295011,false,false,1888,image-keyboard-response,3
true,14,1,0,2,false,d,true,false,0.0-2.0-0.61-0.550-3.550,1,1,0,90,false,stim,false,2,384.79999999701977,1,1,1,32111,WMM2,2296912,false,false,1891,image-keyboard-response,4
true,14,1,0,1,true,z,false,true,0.0-2.0-0.61-0.551-3.551,1,1,0,90,false,stim,false,1,575.4000000059605,1,1,0,32111,WMM2,2299002,false,false,1894,image-keyboard-response,5
true,14,2,0,1,false,z,true,false,0.0-2.0-0.61-0.552-3.552,1,1,0,68,false,stim,false,1,1026.5,1,0,2,32111,WMM2,2301552,false,false,1897,image-keyboard-response,6
true,14,0,0,1,false,z,true,false,0.0-2.0-0.61-0.553-3.553,1,1,0,81,false,stim,false,1,699.7000000029802,1,0,2,32111,WMM2,2303762,false,false,1900,image-keyboard-response,7
true,14,1,0,1,true,z,false,true,0.0-2.0-0.61-0.554-3.554,1,1,0,90,false,stim,false,1,412.6000000089407,1,0,2,32111,WMM2,2305702,false,false,1903,image-keyboard-response,8
true,14,2,0,2,true,d,false,true,0.0-2.0-0.61-0.555-3.555,1,1,0,68,false,stim,false,2,1665.9000000059605,1,1,1,32111,WMM2,2308882,false,false,1906,image-keyboard-response,9
true,14,1,0,1,true,z,false,true,0.0-2.0-0.61-0.556-3.556,1,1,0,90,false,stim,false,1,717.8000000119209,1,1,0,32111,WMM2,2311122,false,false,1909,image-keyboard-response,10
true,14,1,0,1,true,z,false,true,0.0-2.0-0.61-0.557-3.557,1,1,0,90,false,stim,false,1,556.2999999970198,1,1,0,32111,WMM2,2313192,false,false,1912,image-keyboard-response,11
true,14,1,0,1,true,z,false,true,0.0-2.0-0.62-0.558-3.558,1,1,0,90,false,stim,false,1,464.30000001192093,1,1,0,32111,WMM2,2315172,false,false,1915,image-keyboard-response,12
true,14,2,0,2,true,d,false,true,0.0-2.0-0.62-0.559-3.559,1,1,0,68,false,stim,false,2,727.7999999970198,1,1,1,32111,WMM2,2317412,false,false,1918,image-keyboard-response,13
true,14,1,0,1,true,z,false,true,0.0-2.0-0.62-0.560-3.560,1,1,0,90,false,stim,false,1,877.8000000119209,1,0,2,32111,WMM2,2319802,false,false,1921,image-keyboard-response,14
true,14,1,0,2,false,d,true,false,0.0-2.0-0.62-0.561-3.561,1,1,0,90,false,stim,false,2,479.20000000298023,1,1,1,32111,WMM2,2321802,false,false,1924,image-keyboard-response,15
true,14,2,0,2,true,d,false,true,0.0-2.0-0.62-0.562-3.562,1,1,0,68,false,stim,false,2,746.6999999880791,1,1,1,32111,WMM2,2324072,false,false,1927,image-keyboard-response,16
true,14,1,0,1,true,z,false,true,0.0-2.0-0.62-0.563-3.563,1,1,0,90,false,stim,false,1,626.9000000059605,1,1,0,32111,WMM2,2326212,false,false,1930,image-keyboard-response,17
true,14,1,0,1,true,z,false,true,0.0-2.0-0.62-0.564-3.564,1,1,0,90,false,stim,false,1,626.4000000059605,1,1,0,32111,WMM2,2328352,false,false,1933,image-keyboard-response,18
true,14,2,0,1,false,z,true,false,0.0-2.0-0.62-0.565-3.565,1,1,0,68,false,stim,false,1,780.6000000089407,1,0,2,32111,WMM2,2330652,false,false,1936,image-keyboard-response,19
true,14,1,0,1,true,z,false,true,0.0-2.0-0.62-0.566-3.566,1,1,0,90,false,stim,false,1,643.2000000029802,1,0,2,32111,WMM2,2332812,false,false,1939,image-keyboard-response,20
true,14,1,0,1,true,z,false,true,0.0-2.0-0.63-0.567-3.567,1,1,0,90,false,stim,false,1,386.0,1,0,2,32111,WMM2,2334712,false,false,1942,image-keyboard-response,21
true,14,1,0,1,true,z,false,true,0.0-2.0-0.63-0.568-3.568,1,1,0,90,false,stim,false,1,510.90000000596046,1,0,2,32111,WMM2,2336742,false,false,1945,image-keyboard-response,22
true,14,2,0,2,true,d,false,true,0.0-2.0-0.63-0.569-3.569,1,1,0,68,false,stim,false,2,805.4000000059605,1,1,1,32111,WMM2,2339062,false,false,1948,image-keyboard-response,23
true,14,1,0,1,true,z,false,true,0.0-2.0-0.63-0.570-3.570,1,1,0,90,false,stim,false,1,656.1000000089407,1,1,2,32111,WMM2,2341242,false,false,1951,image-keyboard-response,24
true,14,2,0,2,true,d,false,true,0.0-2.0-0.63-0.571-3.571,1,1,0,68,false,stim,false,2,1573.2000000029802,1,1,1,32111,WMM2,2344323,false,false,1954,image-keyboard-response,25
true,14,2,0,2,true,d,false,true,0.0-2.0-0.63-0.572-3.572,1,1,0,68,false,stim,false,2,577.7999999970198,1,1,1,32111,WMM2,2346413,false,false,1957,image-keyboard-response,26
true,14,1,0,1,true,z,false,true,0.0-2.0-0.63-0.573-3.573,1,1,0,90,false,stim,false,1,722.7000000029802,1,0,0,32111,WMM2,2348653,false,false,1960,image-keyboard-response,27
true,14,1,0,1,true,z,false,true,0.0-2.0-0.63-0.574-3.574,1,1,0,90,false,stim,false,1,412.0,1,0,0,32111,WMM2,2350573,false,false,1963,image-keyboard-response,28
true,14,1,0,1,true,z,false,true,0.0-2.0-0.63-0.575-3.575,1,1,0,90,false,stim,false,1,378.20000000298023,1,0,0,32111,WMM2,2352473,false,false,1966,image-keyboard-response,29
true,14,2,0,2,true,d,false,true,0.0-2.0-0.64-0.576-3.576,1,1,0,68,false,stim,false,2,731.2000000029802,1,1,1,32111,WMM2,2354733,false,false,1969,image-keyboard-response,30
true,14,1,0,1,true,z,false,true,0.0-2.0-0.64-0.577-3.577,1,1,0,90,false,stim,false,1,952.0,1,0,0,32111,WMM2,2357193,false,false,1972,image-keyboard-response,31
true,14,1,0,1,true,z,false,true,0.0-2.0-0.64-0.578-3.578,1,1,0,90,false,stim,false,1,1115.7000000029802,1,1,2,32111,WMM2,2359823,false,false,1975,image-keyboard-response,32
true,14,1,0,1,true,z,false,true,0.0-2.0-0.64-0.579-3.579,1,1,0,90,false,stim,false,1,998.0999999940395,1,0,0,32111,WMM2,2362343,false,false,1978,image-keyboard-response,33
true,15,2,4,2,true,d,false,true,0.0-2.0-0.64-0.580-3.580,0,1,1,68,true,stim,false,2,630.9000000059605,1,1,1,32111,WMM2,2364483,false,false,1981,image-keyboard-response,1
true,15,2,4,2,true,d,false,false,0.0-2.0-0.64-0.581-3.581,0,1,1,68,false,stim,false,2,753.6000000089407,1,1,1,32111,WMM2,2366763,false,true,1984,image-keyboard-response,2
true,15,1,4,1,true,z,false,true,0.0-2.0-0.64-0.582-3.582,0,1,1,90,false,stim,false,1,744.0,1,1,2,32111,WMM2,2369033,false,false,1987,image-keyboard-response,3
true,15,1,4,1,true,z,false,false,0.0-2.0-0.64-0.583-3.583,0,1,1,90,false,stim,false,1,424.30000001192093,1,1,2,32111,WMM2,2370973,false,true,1990,image-keyboard-response,4
true,15,1,4,1,true,z,false,false,0.0-2.0-0.64-0.584-3.584,0,1,1,90,false,stim,false,1,1134.7000000029802,1,0,0,32111,WMM2,2373623,false,true,1993,image-keyboard-response,5
true,15,1,4,1,true,z,false,true,0.0-2.0-0.65-0.585-3.585,0,1,1,90,false,stim,false,1,455.90000000596046,1,0,0,32111,WMM2,2375593,false,false,1996,image-keyboard-response,6
true,15,1,4,1,true,z,false,true,0.0-2.0-0.65-0.586-3.586,0,1,1,90,false,stim,false,1,508.80000001192093,1,0,0,32111,WMM2,2377613,false,false,1999,image-keyboard-response,7
true,15,1,4,1,true,z,false,true,0.0-2.0-0.65-0.587-3.587,0,1,1,90,false,stim,false,1,438.3999999910593,1,1,2,32111,WMM2,2379573,false,false,2002,image-keyboard-response,8
true,15,2,4,2,true,d,false,true,0.0-2.0-0.65-0.588-3.588,0,1,1,68,false,stim,false,2,472.40000000596046,1,1,1,32111,WMM2,2381563,false,false,2005,image-keyboard-response,9
true,15,1,4,1,true,z,false,false,0.0-2.0-0.65-0.589-3.589,0,1,1,90,false,stim,false,1,617.2000000029802,1,1,2,32111,WMM2,2383703,false,true,2008,image-keyboard-response,10
true,15,2,4,2,true,d,false,true,0.0-2.0-0.65-0.590-3.590,0,1,1,68,false,stim,false,2,750.3000000119209,1,1,1,32111,WMM2,2385973,false,false,2011,image-keyboard-response,11
