answered,blockNum,choice,condition,corResp,correct,correct_response,explo,fb,internal_node_id,isStable_1,isStable_2,isStable_3,key_press,newBlock,part,persev,persevResp,rt,sessNum,stableAS,stimulus,subject,task,time_elapsed,training,trap,trial_index,trial_type,trialsInBlock
false,1,-1,0,2,false,d,false,false,0.0-2.0-0.0-0.0-3.0,0,0,0,,true,stim,true,-1,,2,0,2,32186,WMM2,338828,false,false,184,image-keyboard-response,1
false,1,-1,0,0,false,q,false,false,0.0-2.0-0.0-0.1-3.1,0,0,0,,false,stim,true,-1,,2,0,0,32186,WMM2,352875,false,false,188,image-keyboard-response,2
false,1,-1,0,2,false,d,false,false,0.0-2.0-0.0-0.2-3.2,0,0,0,,false,stim,true,-1,,2,0,1,32186,WMM2,357395,false,false,191,image-keyboard-response,3
true,1,1,0,2,false,d,true,false,0.0-2.0-0.0-0.3-3.3,0,0,0,90,false,stim,false,-1,1451.3000000044703,2,0,1,32186,WMM2,360365,false,false,194,image-keyboard-response,4
true,1,1,0,2,false,d,true,false,0.0-2.0-0.0-0.4-3.4,0,0,0,90,false,stim,false,-1,655.8000000044703,2,0,2,32186,WMM2,362540,false,false,197,image-keyboard-response,5
true,1,1,0,0,false,q,true,false,0.0-2.0-0.0-0.5-3.5,0,0,0,90,false,stim,false,-1,526.0,2,0,0,32186,WMM2,364586,false,false,200,image-keyboard-response,6
true,1,0,0,2,false,d,true,false,0.0-2.0-0.0-0.6-3.6,0,0,0,81,false,stim,false,-1,841.7000000029802,2,0,1,32186,WMM2,366952,false,false,203,image-keyboard-response,7
true,1,2,0,2,true,d,false,true,0.0-2.0-0.0-0.7-3.7,0,0,0,68,false,stim,false,-1,541.1000000014901,2,0,2,32186,WMM2,369014,false,false,206,image-keyboard-response,8
true,1,2,0,0,false,q,true,false,0.0-2.0-0.0-0.8-3.8,0,0,0,68,false,stim,false,-1,760.8000000044703,2,0,0,32186,WMM2,371290,false,false,209,image-keyboard-response,9
true,1,2,0,2,true,d,false,true,0.0-2.0-0.1-0.9-3.9,0,0,0,68,false,stim,false,-1,612.7000000029802,2,0,2,32186,WMM2,373421,false,false,212,image-keyboard-response,10
true,1,2,0,2,true,d,false,true,0.0-2.0-0.1-0.10-3.10,0,0,0,68,false,stim,false,-1,917.6000000014901,2,0,2,32186,WMM2,375861,false,false,215,image-keyboard-response,11
true,1,2,0,2,true,d,false,true,0.0-2.0-0.1-0.11-3.11,0,0,0,68,false,stim,false,-1,731.2000000029802,2,0,1,32186,WMM2,378107,false,false,218,image-keyboard-response,12
true,1,2,0,2,true,d,false,true,0.0-2.0-0.1-0.12-3.12,0,0,0,68,false,stim,false,-1,959.1000000014901,2,0,1,32186,WMM2,380584,false,false,221,image-keyboard-response,13
true,1,2,0,0,false,q,true,false,0.0-2.0-0.1-0.13-3.13,0,0,0,68,false,stim,false,-1,809.0,2,0,0,32186,WMM2,382912,false,false,224,image-keyboard-response,14
true,1,2,0,0,false,q,true,true,0.0-2.0-0.1-0.14-3.14,0,0,0,68,false,stim,false,-1,785.1000000014901,2,0,0,32186,WMM2,385217,false,true,227,image-keyboard-response,15
true,1,2,0,0,false,q,true,false,0.0-2.0-0.1-0.15-3.15,0,0,0,68,false,stim,false,-1,777.0,2,0,0,32186,WMM2,387517,false,false,230,image-keyboard-response,16
true,1,2,0,2,true,d,false,true,0.0-2.0-0.1-0.16-3.16,0,0,0,68,false,stim,false,-1,664.1000000014901,2,0,1,32186,WMM2,389704,false,false,233,image-keyboard-response,17
true,1,2,0,2,true,d,false,false,0.0-2.0-0.1-0.17-3.17,0,0,0,68,false,stim,false,-1,1074.5,2,0,2,32186,WMM2,392291,false,true,236,image-keyboard-response,18
true,1,2,0,0,false,q,true,false,0.0-2.0-0.2-0.18-3.18,0,0,0,68,false,stim,false,-1,1051.8999999985099,2,0,0,32186,WMM2,394857,false,false,239,image-keyboard-response,19
true,1,1,0,2,false,d,true,false,0.0-2.0-0.2-0.19-3.19,0,0,0,90,false,stim,false,-1,629.1000000014901,2,0,1,32186,WMM2,397020,false,false,242,image-keyboard-response,20
true,1,0,0,2,false,d,true,false,0.0-2.0-0.2-0.20-3.20,0,0,0,81,false,stim,false,-1,752.7999999970198,2,0,1,32186,WMM2,399290,false,false,245,image-keyboard-response,21
true,1,2,0,2,true,d,false,true,0.0-2.0-0.2-0.21-3.21,0,0,0,68,false,stim,false,-1,637.7999999970198,2,0,2,32186,WMM2,401441,false,false,248,image-keyboard-response,22
true,1,2,0,0,false,q,true,false,0.0-2.0-0.2-0.22-3.22,0,0,0,68,false,stim,false,-1,1300.5,2,0,0,32186,WMM2,404257,false,false,251,image-keyboard-response,23
true,1,2,0,0,false,q,true,false,0.0-2.0-0.2-0.23-3.23,0,0,0,68,false,stim,false,-1,1324.8000000044703,2,0,0,32186,WMM2,407094,false,false,254,image-keyboard-response,24
true,1,2,0,2,true,d,false,true,0.0-2.0-0.2-0.24-3.24,0,0,0,68,false,stim,false,-1,1755.7999999970198,2,0,1,32186,WMM2,410370,false,false,257,image-keyboard-response,25
true,1,2,0,2,true,d,false,true,0.0-2.0-0.2-0.25-3.25,0,0,0,68,false,stim,false,-1,1411.6000000014901,2,0,2,32186,WMM2,413307,false,false,260,image-keyboard-response,26
true,1,2,0,2,true,d,false,true,0.0-2.0-0.2-0.26-3.26,0,0,0,68,false,stim,false,-1,1684.8999999985099,2,0,2,32186,WMM2,416509,false,false,263,image-keyboard-response,27
true,1,2,0,0,false,q,true,false,0.0-2.0-0.3-0.27-3.27,0,0,0,68,false,stim,false,-1,1318.2000000029802,2,0,0,32186,WMM2,419346,false,false,266,image-keyboard-response,28
true,1,2,0,2,true,d,false,true,0.0-2.0-0.3-0.28-3.28,0,0,0,68,false,stim,false,-1,1090.0,2,0,1,32186,WMM2,421957,false,false,269,image-keyboard-response,29
true,1,2,0,2,true,d,false,true,0.0-2.0-0.3-0.29-3.29,0,0,0,68,false,stim,false,-1,1713.2999999970198,2,0,2,32186,WMM2,425190,false,false,272,image-keyboard-response,30
true,1,2,0,2,true,d,false,true,0.0-2.0-0.3-0.30-3.30,0,0,0,68,false,stim,false,-1,1671.1999999955297,2,0,1,32186,WMM2,428376,false,false,275,image-keyboard-response,31
true,1,2,0,0,false,q,true,false,0.0-2.0-0.3-0.31-3.31,0,0,0,68,false,stim,false,-1,1412.2000000029802,2,0,0,32186,WMM2,431309,false,false,278,image-keyboard-response,32
true,1,1,0,2,false,d,true,false,0.0-2.0-0.3-0.32-3.32,0,0,0,90,false,stim,false,-1,941.7000000029802,2,0,1,32186,WMM2,433769,false,false,281,image-keyboard-response,33
true,1,2,0,2,true,d,false,true,0.0-2.0-0.3-0.33-3.33,0,0,0,68,false,stim,false,-1,1047.6999999955297,2,0,2,32186,WMM2,436326,false,false,284,image-keyboard-response,34
true,1,2,0,2,true,d,false,true,0.0-2.0-0.3-0.34-3.34,0,0,0,68,false,stim,false,-1,761.3999999985099,2,0,2,32186,WMM2,438642,false,false,287,image-keyboard-response,35
true,1,2,0,0,false,q,true,false,0.0-2.0-0.3-0.35-3.35,0,0,0,68,false,stim,false,-1,861.7999999970198,2,0,0,32186,WMM2,441019,false,false,290,image-keyboard-response,36
true,1,0,0,2,false,d,true,false,0.0-2.0-0.4-0.36-3.36,0,0,0,81,false,stim,false,-1,920.5999999940395,2,0,1,32186,WMM2,443461,false,false,293,image-keyboard-response,37
true,1,2,0,0,false,q,true,false,0.0-2.0-0.4-0.37-3.37,0,0,0,68,false,stim,false,-1,808.0,2,0,0,32186,WMM2,445787,false,false,296,image-keyboard-response,38
true,1,2,0,2,true,d,false,false,0.0-2.0-0.4-0.38-3.38,0,0,0,68,false,stim,false,-1,907.5999999940395,2,0,2,32186,WMM2,448233,false,true,299,image-keyboard-response,39
true,1,1,0,0,false,q,true,false,0.0-2.0-0.4-0.39-3.39,0,0,0,90,false,stim,false,-1,923.5,2,0,0,32186,WMM2,450675,false,false,302,image-keyboard-response,40
true,1,0,0,2,false,d,true,true,0.0-2.0-0.4-0.40-3.40,0,0,0,81,false,stim,false,-1,1189.5999999940395,2,0,2,32186,WMM2,453382,false,true,305,image-keyboard-response,41
true,1,0,0,2,false,d,true,false,0.0-2.0-0.4-0.41-3.41,0,0,0,81,false,stim,false,-1,1206.3000000044703,2,0,1,32186,WMM2,456121,false,false,308,image-keyboard-response,42
true,1,0,0,2,false,d,true,false,0.0-2.0-0.4-0.42-3.42,0,0,0,81,false,stim,false,-1,856.3999999985099,2,0,2,32186,WMM2,458505,false,false,311,image-keyboard-response,43
true,1,0,0,0,true,q,false,true,0.0-2.0-0.4-0.43-3.43,0,0,0,81,false,stim,false,-1,905.1000000014901,2,0,0,32186,WMM2,460933,false,false,314,image-keyboard-response,44
true,1,0,0,2,false,d,true,false,0.0-2.0-0.4-0.44-3.44,0,0,0,81,false,stim,false,-1,1175.8999999985099,2,0,1,32186,WMM2,463624,false,false,317,image-keyboard-response,45
true,1,0,0,2,false,d,true,false,0.0-2.0-0.5-0.45-3.45,0,0,0,81,false,stim,false,-1,857.5,2,0,1,32186,WMM2,466007,false,false,320,image-keyboard-response,46
true,1,2,0,0,false,q,true,false,0.0-2.0-0.5-0.46-3.46,0,0,0,68,false,stim,false,-1,1396.3999999985099,2,0,0,32186,WMM2,468938,false,false,323,image-keyboard-response,47
true,1,0,0,0,true,q,false,true,0.0-2.0-0.5-0.47-3.47,0,0,0,81,false,stim,false,-1,815.1000000014901,2,0,0,32186,WMM2,471271,false,false,326,image-keyboard-response,48
true,1,0,0,2,false,d,true,false,0.0-2.0-0.5-0.48-3.48,0,0,0,81,false,stim,false,-1,1371.1000000014901,2,0,2,32186,WMM2,474162,false,false,329,image-keyboard-response,49
true,1,0,0,2,false,d,true,false,0.0-2.0-0.5-0.49-3.49,0,0,0,81,false,stim,false,-1,1732.2999999970198,2,0,1,32186,WMM2,477423,false,false,332,image-keyboard-response,50
true,1,0,0,2,false,d,true,false,0.0-2.0-0.5-0.50-3.50,0,0,0,81,false,stim,false,-1,425.79999999701977,2,0,1,32186,WMM2,479366,false,false,335,image-keyboard-response,51
true,1,1,0,2,false,d,true,false,0.0-2.0-0.5-0.51-3.51,0,0,0,90,false,stim,false,-1,1854.8999999985099,2,1,2,32186,WMM2,482737,false,false,338,image-keyboard-response,52
true,1,0,0,2,false,d,true,true,0.0-2.0-0.5-0.52-3.52,0,0,0,81,false,stim,false,-1,1370.8999999985099,2,1,2,32186,WMM2,485625,false,true,341,image-keyboard-response,53
true,1,0,0,0,true,q,false,true,0.0-2.0-0.5-0.53-3.53,0,0,0,81,false,stim,false,-1,1471.8000000044703,2,1,0,32186,WMM2,488622,false,false,344,image-keyboard-response,54
true,1,0,0,0,true,q,false,false,0.0-2.0-0.6-0.54-3.54,0,0,0,81,false,stim,false,-1,1000.8999999985099,2,1,0,32186,WMM2,491150,false,true,347,image-keyboard-response,55
true,1,0,0,2,false,d,true,false,0.0-2.0-0.6-0.55-3.55,0,0,0,81,false,stim,false,-1,1289.6999999955297,2,0,1,32186,WMM2,493957,false,false,350,image-keyboard-response,56
true,1,0,0,2,false,d,true,false,0.0-2.0-0.6-0.56-3.56,0,0,0,81,false,stim,false,-1,1333.8000000044703,2,1,2,32186,WMM2,496813,false,false,353,image-keyboard-response,57
true,1,2,0,2,true,d,false,false,0.0-2.0-0.6-0.57-3.57,0,0,0,68,false,stim,false,-1,560.2999999970198,2,0,1,32186,WMM2,498895,false,true,356,image-keyboard-response,58
true,1,2,0,2,true,d,false,true,0.0-2.0-0.6-0.58-3.58,0,0,0,68,false,stim,false,-1,813.8999999985099,2,1,2,32186,WMM2,501232,false,false,359,image-keyboard-response,59
true,1,2,0,2,true,d,false,true,0.0-2.0-0.6-0.59-3.59,0,0,0,68,false,stim,false,-1,807.7000000029802,2,1,2,32186,WMM2,503563,false,false,362,image-keyboard-response,60
true,2,2,3,0,false,q,true,false,0.0-2.0-0.6-0.60-3.60,1,0,1,68,true,stim,false,0,1028.4000000059605,2,1,0,32186,WMM2,506116,false,false,365,image-keyboard-response,1
true,2,0,3,0,true,q,false,true,0.0-2.0-0.6-0.61-3.61,1,0,1,81,false,stim,false,0,1131.3999999985099,2,1,0,32186,WMM2,508768,false,false,368,image-keyboard-response,2
true,2,0,3,0,true,q,false,true,0.0-2.0-0.6-0.62-3.62,1,0,1,81,false,stim,false,2,793.6000000014901,2,0,1,32186,WMM2,511079,false,false,371,image-keyboard-response,3
true,2,0,3,0,true,q,false,true,0.0-2.0-0.7-0.63-3.63,1,0,1,81,false,stim,false,2,1437.8000000044703,2,0,1,32186,WMM2,514034,false,false,374,image-keyboard-response,4
true,2,0,3,0,true,q,false,true,0.0-2.0-0.7-0.64-3.64,1,0,1,81,false,stim,false,2,890.0,2,0,1,32186,WMM2,516437,false,false,377,image-keyboard-response,5
true,2,0,3,2,false,d,true,true,0.0-2.0-0.7-0.65-3.65,1,0,1,81,false,stim,false,2,1134.5,2,1,2,32186,WMM2,519105,false,true,380,image-keyboard-response,6
true,2,0,3,0,true,q,false,true,0.0-2.0-0.7-0.66-3.66,1,0,1,81,false,stim,false,0,931.6000000014901,2,1,0,32186,WMM2,521559,false,false,383,image-keyboard-response,7
true,2,0,3,0,true,q,false,true,0.0-2.0-0.7-0.67-3.67,1,0,1,81,false,stim,false,0,1003.8000000044703,2,1,0,32186,WMM2,524082,false,false,386,image-keyboard-response,8
true,2,0,3,0,true,q,false,false,0.0-2.0-0.7-0.68-3.68,1,0,1,81,false,stim,false,0,1213.8000000044703,2,1,0,32186,WMM2,526818,false,true,389,image-keyboard-response,9
true,2,0,3,2,false,d,true,false,0.0-2.0-0.7-0.69-3.69,1,0,1,81,false,stim,false,2,1094.6000000014901,2,1,2,32186,WMM2,529435,false,false,392,image-keyboard-response,10
true,2,0,3,2,false,d,true,true,0.0-2.0-0.7-0.70-3.70,1,0,1,81,false,stim,false,2,828.0,2,1,2,32186,WMM2,531781,false,true,395,image-keyboard-response,11
true,2,0,3,0,true,q,false,true,0.0-2.0-0.7-0.71-3.71,1,0,1,81,false,stim,false,2,1616.0,2,0,1,32186,WMM2,534921,false,false,398,image-keyboard-response,12
true,2,0,3,2,false,d,true,false,0.0-2.0-0.8-0.72-3.72,1,0,1,81,false,stim,false,2,727.0,2,1,2,32186,WMM2,537171,false,false,401,image-keyboard-response,13
true,2,0,3,0,true,q,false,true,0.0-2.0-0.8-0.73-3.73,1,0,1,81,false,stim,false,0,1044.3999999985099,2,1,0,32186,WMM2,539728,false,false,404,image-keyboard-response,14
true,2,0,3,0,true,q,false,true,0.0-2.0-0.8-0.74-3.74,1,0,1,81,false,stim,false,2,1463.5,2,0,1,32186,WMM2,542707,false,false,407,image-keyboard-response,15
true,2,0,3,2,false,d,true,false,0.0-2.0-0.8-0.75-3.75,1,0,1,81,false,stim,false,2,1306.6000000014901,2,1,2,32186,WMM2,545524,false,false,410,image-keyboard-response,16
true,2,0,3,2,false,d,true,true,0.0-2.0-0.8-0.76-3.76,1,0,1,81,false,stim,false,2,1758.6000000014901,2,1,2,32186,WMM2,548796,false,true,413,image-keyboard-response,17
true,2,0,3,0,true,q,false,true,0.0-2.0-0.8-0.77-3.77,1,0,1,81,false,stim,false,2,1515.0,2,0,1,32186,WMM2,551829,false,false,416,image-keyboard-response,18
true,2,0,3,0,true,q,false,true,0.0-2.0-0.8-0.78-3.78,1,0,1,81,false,stim,false,2,1135.8999999985099,2,0,1,32186,WMM2,554486,false,false,419,image-keyboard-response,19
true,2,0,3,0,true,q,false,true,0.0-2.0-0.8-0.79-3.79,1,0,1,81,false,stim,false,0,1269.1999999955297,2,1,0,32186,WMM2,557269,false,false,422,image-keyboard-response,20
true,2,0,3,0,true,q,false,true,0.0-2.0-0.8-0.80-3.80,1,0,1,81,false,stim,false,0,1483.8999999985099,2,1,0,32186,WMM2,560281,false,false,425,image-keyboard-response,21
true,2,2,3,2,true,d,false,true,0.0-2.0-0.9-0.81-3.81,1,0,1,68,false,stim,false,2,1456.8999999985099,2,1,2,32186,WMM2,563292,false,false,428,image-keyboard-response,22
true,2,2,3,0,false,q,true,false,0.0-2.0-0.9-0.82-3.82,1,0,1,68,false,stim,false,0,1011.6000000014901,2,1,0,32186,WMM2,565831,false,false,431,image-keyboard-response,23
true,2,2,3,0,false,q,true,false,0.0-2.0-0.9-0.83-3.83,1,0,1,68,false,stim,false,0,881.3999999985099,2,1,0,32186,WMM2,568237,false,false,434,image-keyboard-response,24
true,2,0,3,0,true,q,false,true,0.0-2.0-0.9-0.84-3.84,1,0,1,81,false,stim,false,0,704.6999999955297,2,1,0,32186,WMM2,570478,false,false,437,image-keyboard-response,25
true,2,0,3,0,true,q,false,true,0.0-2.0-0.9-0.85-3.85,1,0,1,81,false,stim,false,2,1217.0,2,0,1,32186,WMM2,573222,false,false,440,image-keyboard-response,26
true,2,0,3,0,true,q,false,true,0.0-2.0-0.9-0.86-3.86,1,0,1,81,false,stim,false,2,1386.6000000014901,2,0,1,32186,WMM2,576129,false,false,443,image-keyboard-response,27
true,2,0,3,2,false,d,true,false,0.0-2.0-0.9-0.87-3.87,1,0,1,81,false,stim,false,2,1491.8999999985099,2,1,2,32186,WMM2,579149,false,false,446,image-keyboard-response,28
true,2,2,3,0,false,q,false,false,0.0-2.0-0.9-0.88-3.88,1,0,1,68,false,stim,true,2,1193.4000000059605,2,0,1,32186,WMM2,581862,false,false,449,image-keyboard-response,29
true,2,2,3,2,true,d,false,true,0.0-2.0-0.9-0.89-3.89,1,0,1,68,false,stim,false,2,1177.3999999985099,2,1,2,32186,WMM2,584559,false,false,452,image-keyboard-response,30
true,2,2,3,2,true,d,false,true,0.0-2.0-0.10-0.90-3.90,1,0,1,68,false,stim,false,2,1297.1000000014901,2,1,2,32186,WMM2,587376,false,false,455,image-keyboard-response,31
true,2,2,3,0,false,q,true,false,0.0-2.0-0.10-0.91-3.91,1,0,1,68,false,stim,false,0,1120.0,2,1,0,32186,WMM2,590025,false,false,458,image-keyboard-response,32
true,2,0,3,0,true,q,false,true,0.0-2.0-0.10-0.92-3.92,1,0,1,81,false,stim,false,2,1168.7000000029802,2,0,1,32186,WMM2,592714,false,false,461,image-keyboard-response,33
true,2,0,3,0,true,q,false,true,0.0-2.0-0.10-0.93-3.93,1,0,1,81,false,stim,false,0,1391.5,2,1,0,32186,WMM2,595621,false,false,464,image-keyboard-response,34
true,2,0,3,2,false,d,true,false,0.0-2.0-0.10-0.94-3.94,1,0,1,81,false,stim,false,2,1358.2999999970198,2,1,2,32186,WMM2,598504,false,false,467,image-keyboard-response,35
true,2,1,3,0,false,q,true,false,0.0-2.0-0.10-0.95-3.95,1,0,1,90,false,stim,false,2,1069.3999999985099,2,0,1,32186,WMM2,601093,false,false,470,image-keyboard-response,36
true,2,1,3,0,false,q,true,false,0.0-2.0-0.10-0.96-3.96,1,0,1,90,false,stim,false,0,703.5,2,1,0,32186,WMM2,603314,false,false,473,image-keyboard-response,37
true,2,2,3,0,false,q,false,false,0.0-2.0-0.10-0.97-3.97,1,0,1,68,false,stim,true,2,709.6000000014901,2,0,1,32186,WMM2,605546,false,false,476,image-keyboard-response,38
true,2,2,3,2,true,d,false,false,0.0-2.0-0.10-0.98-3.98,1,0,1,68,false,stim,false,2,733.5,2,1,2,32186,WMM2,607797,false,true,479,image-keyboard-response,39
true,2,0,3,0,true,q,false,true,0.0-2.0-0.11-0.99-3.99,1,0,1,81,false,stim,false,0,880.9000000059605,2,1,0,32186,WMM2,610229,false,false,482,image-keyboard-response,40
true,2,0,3,2,false,d,true,false,0.0-2.0-0.11-0.100-3.100,1,0,1,81,false,stim,false,2,992.5,2,1,2,32186,WMM2,612742,false,false,485,image-keyboard-response,41
true,2,0,3,0,true,q,false,true,0.0-2.0-0.11-0.101-3.101,1,0,1,81,false,stim,false,2,1489.8000000044703,2,0,1,32186,WMM2,615753,false,false,488,image-keyboard-response,42
true,2,0,3,2,false,d,true,false,0.0-2.0-0.11-0.102-3.102,1,0,1,81,false,stim,false,2,1263.5,2,1,2,32186,WMM2,618541,false,false,491,image-keyboard-response,43
true,2,0,3,0,true,q,false,true,0.0-2.0-0.11-0.103-3.103,1,0,1,81,false,stim,false,2,1300.3000000044703,2,0,1,32186,WMM2,621368,false,false,494,image-keyboard-response,44
true,2,0,3,0,true,q,false,true,0.0-2.0-0.11-0.104-3.104,1,0,1,81,false,stim,false,2,938.3999999985099,2,0,1,32186,WMM2,623826,false,false,497,image-keyboard-response,45
true,2,0,3,0,true,q,false,true,0.0-2.0-0.11-0.105-3.105,1,0,1,81,false,stim,false,0,2082.6999999955297,2,1,0,32186,WMM2,627428,false,false,500,image-keyboard-response,46
true,2,0,3,2,false,d,true,false,0.0-2.0-0.11-0.106-3.106,1,0,1,81,false,stim,false,2,1168.7999999970198,2,1,2,32186,WMM2,630126,false,false,503,image-keyboard-response,47
true,2,2,3,0,false,q,true,false,0.0-2.0-0.11-0.107-3.107,1,0,1,68,false,stim,false,0,632.8000000044703,2,1,0,32186,WMM2,632297,false,false,506,image-keyboard-response,48
true,2,2,3,0,false,q,false,false,0.0-2.0-0.12-0.108-3.108,1,0,1,68,false,stim,true,2,776.6000000014901,2,0,1,32186,WMM2,634615,false,false,509,image-keyboard-response,49
true,2,0,3,0,true,q,false,true,0.0-2.0-0.12-0.109-3.109,1,0,1,81,false,stim,false,0,960.7000000029802,2,1,0,32186,WMM2,637106,false,false,512,image-keyboard-response,50
true,2,0,3,0,true,q,false,true,0.0-2.0-0.12-0.110-3.110,1,0,1,81,false,stim,false,0,1401.3000000044703,2,0,0,32186,WMM2,640030,false,false,515,image-keyboard-response,51
true,2,0,3,2,false,d,true,false,0.0-2.0-0.12-0.111-3.111,1,0,1,81,false,stim,false,2,1616.5,2,1,2,32186,WMM2,643168,false,false,518,image-keyboard-response,52
true,2,2,3,0,false,q,false,false,0.0-2.0-0.12-0.112-3.112,1,0,1,68,false,stim,true,2,638.7000000029802,2,1,1,32186,WMM2,645330,false,false,521,image-keyboard-response,53
true,2,1,3,0,false,q,true,false,0.0-2.0-0.12-0.113-3.113,1,0,1,90,false,stim,false,2,697.2999999970198,2,1,1,32186,WMM2,647549,false,false,524,image-keyboard-response,54
true,2,1,3,2,false,d,true,false,0.0-2.0-0.12-0.114-3.114,1,0,1,90,false,stim,false,2,730.5,2,1,2,32186,WMM2,649798,false,false,527,image-keyboard-response,55
true,2,0,3,0,true,q,false,true,0.0-2.0-0.12-0.115-3.115,1,0,1,81,false,stim,false,0,984.6000000014901,2,0,0,32186,WMM2,652309,false,false,530,image-keyboard-response,56
true,2,0,3,2,false,d,true,false,0.0-2.0-0.12-0.116-3.116,1,0,1,81,false,stim,false,2,906.7999999970198,2,1,2,32186,WMM2,654742,false,false,533,image-keyboard-response,57
true,2,0,3,0,true,q,false,true,0.0-2.0-0.13-0.117-3.117,1,0,1,81,false,stim,false,2,1391.7000000029802,2,1,1,32186,WMM2,657653,false,false,536,image-keyboard-response,58
true,2,0,3,2,false,d,true,false,0.0-2.0-0.13-0.118-3.118,1,0,1,81,false,stim,false,2,1459.3999999985099,2,1,2,32186,WMM2,660637,false,false,539,image-keyboard-response,59
true,2,0,3,0,true,q,false,true,0.0-2.0-0.13-0.119-3.119,1,0,1,81,false,stim,false,0,733.3999999985099,2,0,0,32186,WMM2,662883,false,false,542,image-keyboard-response,60
true,3,0,4,0,true,q,false,true,0.0-2.0-0.13-0.120-3.120,0,1,1,81,true,stim,false,0,1257.1000000014901,2,0,0,32186,WMM2,665650,false,false,545,image-keyboard-response,1
true,3,0,4,2,false,d,true,false,0.0-2.0-0.13-0.121-3.121,0,1,1,81,false,stim,false,2,1485.6999999955297,2,1,2,32186,WMM2,668659,false,false,548,image-keyboard-response,2
true,3,0,4,0,true,q,false,true,0.0-2.0-0.13-0.122-3.122,0,1,1,81,false,stim,false,0,1745.7000000029802,2,0,0,32186,WMM2,671922,false,false,551,image-keyboard-response,3
true,3,0,4,0,true,q,false,true,0.0-2.0-0.13-0.123-3.123,0,1,1,81,false,stim,false,0,1731.5,2,1,1,32186,WMM2,675173,false,false,554,image-keyboard-response,4
true,3,0,4,2,false,d,true,false,0.0-2.0-0.13-0.124-3.124,0,1,1,81,false,stim,false,2,1081.3000000044703,2,1,2,32186,WMM2,677772,false,false,557,image-keyboard-response,5
true,3,0,4,0,true,q,false,false,0.0-2.0-0.13-0.125-3.125,0,1,1,81,false,stim,false,0,1015.8999999985099,2,1,1,32186,WMM2,680309,false,true,560,image-keyboard-response,6
true,3,0,4,2,false,d,true,false,0.0-2.0-0.14-0.126-3.126,0,1,1,81,false,stim,false,2,1056.1000000014901,2,1,2,32186,WMM2,682880,false,false,563,image-keyboard-response,7
true,3,0,4,2,false,d,true,false,0.0-2.0-0.14-0.127-3.127,0,1,1,81,false,stim,false,2,1423.7999999970198,2,1,2,32186,WMM2,685822,false,false,566,image-keyboard-response,8
true,3,0,4,0,true,q,false,true,0.0-2.0-0.14-0.128-3.128,0,1,1,81,false,stim,false,0,643.3000000044703,2,1,1,32186,WMM2,687989,false,false,569,image-keyboard-response,9
true,3,0,4,0,true,q,false,true,0.0-2.0-0.14-0.129-3.129,0,1,1,81,false,stim,false,0,1246.5,2,1,1,32186,WMM2,690757,false,false,572,image-keyboard-response,10
true,3,0,4,0,true,q,false,true,0.0-2.0-0.14-0.130-3.130,0,1,1,81,false,stim,false,0,1708.7000000029802,2,0,0,32186,WMM2,693984,false,false,575,image-keyboard-response,11
true,3,0,4,0,true,q,false,true,0.0-2.0-0.14-0.131-3.131,0,1,1,81,false,stim,false,0,1374.3999999985099,2,0,0,32186,WMM2,696882,false,false,578,image-keyboard-response,12
true,3,0,4,0,true,q,false,true,0.0-2.0-0.14-0.132-3.132,0,1,1,81,false,stim,false,0,1582.3999999985099,2,0,0,32186,WMM2,699984,false,false,581,image-keyboard-response,13
true,3,0,4,2,false,d,true,false,0.0-2.0-0.14-0.133-3.133,0,1,1,81,false,stim,false,2,1497.0,2,1,2,32186,WMM2,703003,false,false,584,image-keyboard-response,14
true,3,0,4,0,true,q,false,false,0.0-2.0-0.14-0.134-3.134,0,1,1,81,false,stim,false,0,1802.0999999940395,2,1,1,32186,WMM2,706328,false,true,587,image-keyboard-response,15
true,3,2,4,2,true,d,false,true,0.0-2.0-0.15-0.135-3.135,0,1,1,68,false,stim,false,2,1254.1000000014901,2,1,2,32186,WMM2,709112,false,false,590,image-keyboard-response,16
true,3,0,4,0,true,q,false,false,0.0-2.0-0.15-0.136-3.136,0,1,1,81,false,stim,false,0,627.0,2,0,0,32186,WMM2,711264,false,true,593,image-keyboard-response,17
true,3,2,4,0,false,q,true,false,0.0-2.0-0.15-0.137-3.137,0,1,1,68,false,stim,false,0,493.8999999985099,2,1,1,32186,WMM2,713282,false,false,596,image-keyboard-response,18
true,3,2,4,0,false,q,true,false,0.0-2.0-0.15-0.138-3.138,0,1,1,68,false,stim,false,0,781.6999999955297,2,0,0,32186,WMM2,715583,false,false,599,image-keyboard-response,19
true,3,0,4,2,false,d,true,false,0.0-2.0-0.15-0.139-3.139,0,1,1,81,false,stim,false,2,768.6999999955297,2,1,2,32186,WMM2,717884,false,false,602,image-keyboard-response,20
true,3,2,4,0,false,q,true,false,0.0-2.0-0.15-0.140-3.140,0,1,1,68,false,stim,false,0,931.1999999955297,2,1,1,32186,WMM2,720332,false,false,605,image-keyboard-response,21
true,3,0,4,0,true,q,false,true,0.0-2.0-0.15-0.141-3.141,0,1,1,81,false,stim,false,0,1388.5,2,1,1,32186,WMM2,723239,false,false,608,image-keyboard-response,22
true,3,0,4,0,true,q,false,true,0.0-2.0-0.15-0.142-3.142,0,1,1,81,false,stim,false,0,804.2000000029802,2,0,0,32186,WMM2,725578,false,false,611,image-keyboard-response,23
true,3,2,4,2,true,d,false,true,0.0-2.0-0.15-0.143-3.143,0,1,1,68,false,stim,false,2,803.6000000014901,2,1,2,32186,WMM2,727910,false,false,614,image-keyboard-response,24
true,3,2,4,2,true,d,false,false,0.0-2.0-0.16-0.144-3.144,0,1,1,68,false,stim,false,2,708.8000000044703,2,1,2,32186,WMM2,730141,false,true,617,image-keyboard-response,25
true,3,0,4,2,false,d,true,false,0.0-2.0-0.16-0.145-3.145,0,1,1,81,false,stim,false,2,849.6000000014901,2,1,2,32186,WMM2,732508,false,false,620,image-keyboard-response,26
true,3,1,4,2,false,d,true,false,0.0-2.0-0.16-0.146-3.146,0,1,1,90,false,stim,false,2,1188.8999999985099,2,1,2,32186,WMM2,735220,false,false,623,image-keyboard-response,27
true,3,1,4,0,false,q,true,false,0.0-2.0-0.16-0.147-3.147,0,1,1,90,false,stim,false,0,903.3999999985099,2,1,1,32186,WMM2,737662,false,false,626,image-keyboard-response,28
true,3,0,4,0,true,q,false,true,0.0-2.0-0.16-0.148-3.148,0,1,1,81,false,stim,false,0,882.1000000014901,2,0,0,32186,WMM2,740070,false,false,629,image-keyboard-response,29
true,3,0,4,0,true,q,false,true,0.0-2.0-0.16-0.149-3.149,0,1,1,81,false,stim,false,0,1122.1999999955297,2,1,1,32186,WMM2,742718,false,false,632,image-keyboard-response,30
true,3,1,4,0,false,q,true,false,0.0-2.0-0.16-0.150-3.150,0,1,1,90,false,stim,false,0,891.0,2,0,0,32186,WMM2,745139,false,false,635,image-keyboard-response,31
true,3,0,4,0,true,q,false,false,0.0-2.0-0.16-0.151-3.151,0,1,1,81,false,stim,false,0,778.6000000014901,2,1,1,32186,WMM2,747437,false,true,638,image-keyboard-response,32
true,3,0,4,0,true,q,false,true,0.0-2.0-0.16-0.152-3.152,0,1,1,81,false,stim,false,0,841.7000000029802,2,0,0,32186,WMM2,749805,false,false,641,image-keyboard-response,33
true,3,0,4,2,false,d,true,false,0.0-2.0-0.17-0.153-3.153,0,1,1,81,false,stim,false,2,900.1999999955297,2,1,2,32186,WMM2,752231,false,false,644,image-keyboard-response,34
true,3,2,4,0,false,q,true,false,0.0-2.0-0.17-0.154-3.154,0,1,1,68,false,stim,false,0,686.6000000014901,2,0,0,32186,WMM2,754437,false,false,647,image-keyboard-response,35
true,3,2,4,0,false,q,true,false,0.0-2.0-0.17-0.155-3.155,0,1,1,68,false,stim,false,0,1274.3000000044703,2,0,0,32186,WMM2,757241,false,false,650,image-keyboard-response,36
true,3,1,4,0,false,q,true,false,0.0-2.0-0.17-0.156-3.156,0,1,1,90,false,stim,false,0,593.1999999955297,2,1,1,32186,WMM2,759362,false,false,653,image-keyboard-response,37
true,3,0,4,0,true,q,false,true,0.0-2.0-0.17-0.157-3.157,0,1,1,81,false,stim,false,0,1050.7999999970198,2,1,1,32186,WMM2,761940,false,false,656,image-keyboard-response,38
true,3,0,4,2,false,d,true,false,0.0-2.0-0.17-0.158-3.158,0,1,1,81,false,stim,false,2,764.8000000044703,2,1,2,32186,WMM2,764222,false,false,659,image-keyboard-response,39
true,3,0,4,2,false,d,true,true,0.0-2.0-0.17-0.159-3.159,0,1,1,81,false,stim,false,2,789.2999999970198,2,1,2,32186,WMM2,766534,false,true,662,image-keyboard-response,40
true,3,1,4,0,false,q,true,false,0.0-2.0-0.17-0.160-3.160,0,1,1,90,false,stim,false,0,1598.4000000059605,2,1,1,32186,WMM2,769668,false,false,665,image-keyboard-response,41
true,3,0,4,0,true,q,false,true,0.0-2.0-0.17-0.161-3.161,0,1,1,81,false,stim,false,0,560.6999999955297,2,0,0,32186,WMM2,771761,false,false,668,image-keyboard-response,42
true,3,0,4,0,true,q,false,true,0.0-2.0-0.18-0.162-3.162,0,1,1,81,false,stim,false,0,721.8999999985099,2,0,0,32186,WMM2,774017,false,false,671,image-keyboard-response,43
true,3,2,4,2,true,d,false,true,0.0-2.0-0.18-0.163-3.163,0,1,1,68,false,stim,false,2,677.7999999970198,2,1,2,32186,WMM2,776224,false,false,674,image-keyboard-response,44
true,3,2,4,0,false,q,true,false,0.0-2.0-0.18-0.164-3.164,0,1,1,68,false,stim,false,0,661.6999999955297,2,0,0,32186,WMM2,778411,false,false,677,image-keyboard-response,45
true,3,1,4,0,false,q,true,false,0.0-2.0-0.18-0.165-3.165,0,1,1,90,false,stim,false,0,624.7000000029802,2,1,1,32186,WMM2,780563,false,false,680,image-keyboard-response,46
true,3,0,4,2,false,d,true,false,0.0-2.0-0.18-0.166-3.166,0,1,1,81,false,stim,false,2,477.20000000298023,2,1,2,32186,WMM2,782560,false,false,683,image-keyboard-response,47
true,3,0,4,0,true,q,false,true,0.0-2.0-0.18-0.167-3.167,0,1,1,81,false,stim,false,0,431.80000000447035,2,0,0,32186,WMM2,784612,false,false,686,image-keyboard-response,48
true,3,0,4,0,true,q,false,true,0.0-2.0-0.18-0.168-3.168,0,1,1,81,false,stim,false,0,579.7999999970198,2,1,1,32186,WMM2,786714,false,false,689,image-keyboard-response,49
true,3,0,4,0,true,q,false,true,0.0-2.0-0.18-0.169-3.169,0,1,1,81,false,stim,false,0,1791.1000000014901,2,1,1,32186,WMM2,790031,false,false,692,image-keyboard-response,50
true,3,2,4,2,true,d,false,false,0.0-2.0-0.18-0.170-3.170,0,1,1,68,false,stim,false,2,1336.3999999985099,2,0,2,32186,WMM2,792895,false,true,695,image-keyboard-response,51
true,3,1,4,2,false,d,true,false,0.0-2.0-0.19-0.171-3.171,0,1,1,90,false,stim,false,2,625.4000000059605,2,0,2,32186,WMM2,795039,false,false,698,image-keyboard-response,52
true,3,1,4,0,false,q,true,false,0.0-2.0-0.19-0.172-3.172,0,1,1,90,false,stim,false,0,728.1000000014901,2,1,0,32186,WMM2,797299,false,false,701,image-keyboard-response,53
true,3,0,4,2,false,d,true,false,0.0-2.0-0.19-0.173-3.173,0,1,1,81,false,stim,false,2,783.1000000014901,2,0,2,32186,WMM2,799606,false,false,704,image-keyboard-response,54
true,3,0,4,0,true,q,false,true,0.0-2.0-0.19-0.174-3.174,0,1,1,81,false,stim,false,0,597.6999999955297,2,1,0,32186,WMM2,801717,false,false,707,image-keyboard-response,55
true,3,0,4,0,true,q,false,false,0.0-2.0-0.19-0.175-3.175,0,1,1,81,false,stim,false,0,1028.6000000014901,2,0,1,32186,WMM2,804271,false,true,710,image-keyboard-response,56
true,3,2,4,2,true,d,false,true,0.0-2.0-0.19-0.176-3.176,0,1,1,68,false,stim,false,2,509.3999999985099,2,0,2,32186,WMM2,806303,false,false,713,image-keyboard-response,57
true,3,2,4,0,false,q,true,false,0.0-2.0-0.19-0.177-3.177,0,1,1,68,false,stim,false,0,1015.7999999970198,2,0,1,32186,WMM2,808840,false,false,716,image-keyboard-response,58
true,3,1,4,0,false,q,true,false,0.0-2.0-0.19-0.178-3.178,0,1,1,90,false,stim,false,0,775.2000000029802,2,1,0,32186,WMM2,811132,false,false,719,image-keyboard-response,59
true,3,0,4,0,true,q,false,true,0.0-2.0-0.19-0.179-3.179,0,1,1,81,false,stim,false,0,858.3999999985099,2,0,1,32186,WMM2,813504,false,false,722,image-keyboard-response,60
true,4,0,1,0,true,q,false,true,0.0-2.0-0.20-0.180-3.180,1,0,0,81,true,stim,false,0,763.4000000059605,2,1,0,32186,WMM2,815786,false,false,725,image-keyboard-response,1
true,4,2,1,0,false,q,true,true,0.0-2.0-0.20-0.181-3.181,1,0,0,68,false,stim,false,0,759.2000000029802,2,1,0,32186,WMM2,818070,false,true,728,image-keyboard-response,2
true,4,2,1,2,true,d,false,true,0.0-2.0-0.20-0.182-3.182,1,0,0,68,false,stim,false,0,1088.8000000044703,2,0,1,32186,WMM2,820687,false,false,731,image-keyboard-response,3
true,4,1,1,2,false,d,true,false,0.0-2.0-0.20-0.183-3.183,1,0,0,90,false,stim,false,0,868.6000000014901,2,0,1,32186,WMM2,823070,false,false,734,image-keyboard-response,4
true,4,0,1,0,true,q,false,true,0.0-2.0-0.20-0.184-3.184,1,0,0,81,false,stim,false,2,714.2999999970198,2,0,2,32186,WMM2,825312,false,false,737,image-keyboard-response,5
true,4,0,1,0,true,q,false,true,0.0-2.0-0.20-0.185-3.185,1,0,0,81,false,stim,false,2,797.6000000014901,2,0,2,32186,WMM2,827628,false,false,740,image-keyboard-response,6
true,4,0,1,0,true,q,false,true,0.0-2.0-0.20-0.186-3.186,1,0,0,81,false,stim,false,2,1043.8999999985099,2,0,2,32186,WMM2,830191,false,false,743,image-keyboard-response,7
true,4,0,1,2,false,d,false,false,0.0-2.0-0.20-0.187-3.187,1,0,0,81,false,stim,true,0,1438.6000000014901,2,0,1,32186,WMM2,833138,false,false,746,image-keyboard-response,8
true,4,0,1,0,true,q,false,false,0.0-2.0-0.20-0.188-3.188,1,0,0,81,false,stim,false,0,1087.5999999940395,2,1,0,32186,WMM2,835747,false,true,749,image-keyboard-response,9
true,4,2,1,2,true,d,false,true,0.0-2.0-0.21-0.189-3.189,1,0,0,68,false,stim,false,0,418.5,2,0,1,32186,WMM2,837684,false,false,752,image-keyboard-response,10
true,4,2,1,0,false,q,true,false,0.0-2.0-0.21-0.190-3.190,1,0,0,68,false,stim,false,0,1047.5,2,1,0,32186,WMM2,840246,false,false,755,image-keyboard-response,11
true,4,1,1,0,false,q,true,false,0.0-2.0-0.21-0.191-3.191,1,0,0,90,false,stim,false,2,932.5,2,0,2,32186,WMM2,842693,false,false,758,image-keyboard-response,12
true,4,0,1,0,true,q,false,true,0.0-2.0-0.21-0.192-3.192,1,0,0,81,false,stim,false,2,934.3999999985099,2,0,2,32186,WMM2,845150,false,false,761,image-keyboard-response,13
true,4,0,1,2,false,d,false,false,0.0-2.0-0.21-0.193-3.193,1,0,0,81,false,stim,true,0,1283.6000000014901,2,0,1,32186,WMM2,847953,false,false,764,image-keyboard-response,14
true,4,2,1,2,true,d,false,true,0.0-2.0-0.21-0.194-3.194,1,0,0,68,false,stim,false,0,863.5,2,0,1,32186,WMM2,850336,false,false,767,image-keyboard-response,15
true,4,1,1,0,false,q,true,false,0.0-2.0-0.21-0.195-3.195,1,0,0,90,false,stim,false,2,1007.3999999985099,2,0,2,32186,WMM2,852868,false,false,770,image-keyboard-response,16
true,4,1,1,0,false,q,true,false,0.0-2.0-0.21-0.196-3.196,1,0,0,90,false,stim,false,0,641.1999999955297,2,1,0,32186,WMM2,855024,false,false,773,image-keyboard-response,17
true,4,0,1,0,true,q,false,true,0.0-2.0-0.21-0.197-3.197,1,0,0,81,false,stim,false,0,961.7000000029802,2,1,0,32186,WMM2,857502,false,false,776,image-keyboard-response,18
true,4,0,1,2,false,d,false,false,0.0-2.0-0.22-0.198-3.198,1,0,0,81,false,stim,true,0,930.0,2,0,1,32186,WMM2,859959,false,false,779,image-keyboard-response,19
true,4,2,1,0,false,q,true,false,0.0-2.0-0.22-0.199-3.199,1,0,0,68,false,stim,false,0,948.7999999970198,2,1,0,32186,WMM2,862423,false,false,782,image-keyboard-response,20
true,4,2,1,0,false,q,true,false,0.0-2.0-0.22-0.200-3.200,1,0,0,68,false,stim,false,0,738.5,2,1,0,32186,WMM2,864679,false,false,785,image-keyboard-response,21
true,4,0,1,0,true,q,false,true,0.0-2.0-0.22-0.201-3.201,1,0,0,81,false,stim,false,0,1148.7000000029802,2,1,0,32186,WMM2,867346,false,false,788,image-keyboard-response,22
true,4,1,1,2,false,d,true,false,0.0-2.0-0.22-0.202-3.202,1,0,0,90,false,stim,false,0,1990.2000000029802,2,0,1,32186,WMM2,870856,false,false,791,image-keyboard-response,23
true,4,0,1,2,false,d,false,false,0.0-2.0-0.22-0.203-3.203,1,0,0,81,false,stim,true,0,2201.7000000029802,2,0,1,32186,WMM2,874589,false,false,794,image-keyboard-response,24
true,4,2,1,0,false,q,false,false,0.0-2.0-0.22-0.204-3.204,1,0,0,68,false,stim,true,2,1549.6000000014901,2,0,2,32186,WMM2,877657,false,false,797,image-keyboard-response,25
true,4,0,1,0,true,q,false,true,0.0-2.0-0.22-0.205-3.205,1,0,0,81,false,stim,false,2,1305.1999999955297,2,0,2,32186,WMM2,880489,false,false,800,image-keyboard-response,26
true,4,0,1,0,true,q,false,true,0.0-2.0-0.22-0.206-3.206,1,0,0,81,false,stim,false,2,1314.2000000029802,2,0,2,32186,WMM2,883342,false,false,803,image-keyboard-response,27
true,4,1,1,2,false,d,true,true,0.0-2.0-0.23-0.207-3.207,1,0,0,90,false,stim,false,0,1278.2000000029802,2,0,1,32186,WMM2,886141,false,true,806,image-keyboard-response,28
true,4,0,1,0,true,q,false,true,0.0-2.0-0.23-0.208-3.208,1,0,0,81,false,stim,false,0,1037.0,2,1,0,32186,WMM2,888712,false,false,809,image-keyboard-response,29
true,4,0,1,2,false,d,false,true,0.0-2.0-0.23-0.209-3.209,1,0,0,81,false,stim,true,0,1072.2999999970198,2,0,1,32186,WMM2,891309,false,true,812,image-keyboard-response,30
true,4,1,1,0,false,q,true,false,0.0-2.0-0.23-0.210-3.210,1,0,0,90,false,stim,false,2,752.3000000044703,2,0,2,32186,WMM2,893583,false,false,815,image-keyboard-response,31
true,4,0,1,0,true,q,false,true,0.0-2.0-0.23-0.211-3.211,1,0,0,81,false,stim,false,0,634.7000000029802,2,1,0,32186,WMM2,895749,false,false,818,image-keyboard-response,32
true,4,0,1,0,true,q,false,false,0.0-2.0-0.23-0.212-3.212,1,0,0,81,false,stim,false,0,1138.6999999955297,2,1,0,32186,WMM2,898413,false,true,821,image-keyboard-response,33
true,4,1,1,2,false,d,true,true,0.0-2.0-0.23-0.213-3.213,1,0,0,90,false,stim,false,0,461.1000000014901,2,0,1,32186,WMM2,900394,false,true,824,image-keyboard-response,34
true,4,0,1,0,true,q,false,true,0.0-2.0-0.23-0.214-3.214,1,0,0,81,false,stim,false,2,1106.7999999970198,2,0,2,32186,WMM2,903028,false,false,827,image-keyboard-response,35
true,4,1,1,0,false,q,true,false,0.0-2.0-0.23-0.215-3.215,1,0,0,90,false,stim,false,2,684.3999999985099,2,0,2,32186,WMM2,905243,false,false,830,image-keyboard-response,36
true,4,0,1,2,false,d,false,false,0.0-2.0-0.24-0.216-3.216,1,0,0,81,false,stim,true,0,789.5999999940395,2,0,1,32186,WMM2,907556,false,false,833,image-keyboard-response,37
true,4,2,1,0,false,q,false,true,0.0-2.0-0.24-0.217-3.217,1,0,0,68,false,stim,true,2,750.6999999955297,2,0,2,32186,WMM2,909828,false,true,836,image-keyboard-response,38
true,4,2,1,2,true,d,false,true,0.0-2.0-0.24-0.218-3.218,1,0,0,68,false,stim,false,0,1018.0,2,0,1,32186,WMM2,912370,false,false,839,image-keyboard-response,39
true,4,2,1,0,false,q,true,false,0.0-2.0-0.24-0.219-3.219,1,0,0,68,false,stim,false,0,1225.5,2,1,0,32186,WMM2,915118,false,false,842,image-keyboard-response,40
true,4,1,1,0,false,q,true,true,0.0-2.0-0.24-0.220-3.220,1,0,0,90,false,stim,false,0,685.2000000029802,2,1,0,32186,WMM2,917331,false,true,845,image-keyboard-response,41
true,4,1,1,0,false,q,true,false,0.0-2.0-0.24-0.221-3.221,1,0,0,90,false,stim,false,2,1241.3999999985099,2,0,2,32186,WMM2,920093,false,false,848,image-keyboard-response,42
true,4,0,1,0,true,q,false,true,0.0-2.0-0.24-0.222-3.222,1,0,0,81,false,stim,false,0,725.1999999955297,2,1,0,32186,WMM2,922340,false,false,851,image-keyboard-response,43
true,4,0,1,0,true,q,false,true,0.0-2.0-0.24-0.223-3.223,1,0,0,81,false,stim,false,2,1314.7000000029802,2,0,2,32186,WMM2,925177,false,false,854,image-keyboard-response,44
true,4,2,1,2,true,d,false,true,0.0-2.0-0.24-0.224-3.224,1,0,0,68,false,stim,false,0,881.1999999955297,2,0,1,32186,WMM2,927580,false,false,857,image-keyboard-response,45
true,4,0,1,0,true,q,false,true,0.0-2.0-0.25-0.225-3.225,1,0,0,81,false,stim,false,0,1121.0,2,1,0,32186,WMM2,930218,false,false,860,image-keyboard-response,46
true,4,0,1,2,false,d,false,false,0.0-2.0-0.25-0.226-3.226,1,0,0,81,false,stim,true,0,1093.3000000044703,2,0,1,32186,WMM2,932835,false,false,863,image-keyboard-response,47
true,4,1,1,0,false,q,true,false,0.0-2.0-0.25-0.227-3.227,1,0,0,90,false,stim,false,2,834.7999999970198,2,0,2,32186,WMM2,935193,false,false,866,image-keyboard-response,48
true,4,2,1,0,false,q,true,false,0.0-2.0-0.25-0.228-3.228,1,0,0,68,false,stim,false,0,1319.6999999955297,2,1,0,32186,WMM2,938035,false,false,869,image-keyboard-response,49
true,4,0,1,2,false,d,false,false,0.0-2.0-0.25-0.229-3.229,1,0,0,81,false,stim,true,0,824.1999999955297,2,0,1,32186,WMM2,940384,false,false,872,image-keyboard-response,50
true,4,0,1,0,true,q,false,true,0.0-2.0-0.25-0.230-3.230,1,0,0,81,false,stim,false,2,781.5,2,1,2,32186,WMM2,942690,false,false,875,image-keyboard-response,51
true,4,1,1,2,false,d,true,false,0.0-2.0-0.25-0.231-3.231,1,0,0,90,false,stim,false,0,1330.2000000029802,2,0,1,32186,WMM2,945542,false,false,878,image-keyboard-response,52
true,4,2,1,0,false,q,false,false,0.0-2.0-0.25-0.232-3.232,1,0,0,68,false,stim,true,2,862.8999999985099,2,1,2,32186,WMM2,947920,false,false,881,image-keyboard-response,53
true,4,0,1,0,true,q,false,false,0.0-2.0-0.25-0.233-3.233,1,0,0,81,false,stim,false,0,1086.2000000029802,2,0,0,32186,WMM2,950524,false,true,884,image-keyboard-response,54
true,4,1,1,0,false,q,true,false,0.0-2.0-0.26-0.234-3.234,1,0,0,90,false,stim,false,2,760.8000000044703,2,1,2,32186,WMM2,952799,false,false,887,image-keyboard-response,55
true,4,2,1,2,true,d,false,true,0.0-2.0-0.26-0.235-3.235,1,0,0,68,false,stim,false,0,738.0,2,0,1,32186,WMM2,955051,false,false,890,image-keyboard-response,56
true,4,2,1,0,false,q,false,false,0.0-2.0-0.26-0.236-3.236,1,0,0,68,false,stim,true,2,1009.1000000014901,2,1,2,32186,WMM2,957584,false,false,893,image-keyboard-response,57
true,4,0,1,0,true,q,false,true,0.0-2.0-0.26-0.237-3.237,1,0,0,81,false,stim,false,2,1248.7000000029802,2,1,2,32186,WMM2,960346,false,false,896,image-keyboard-response,58
true,4,0,1,2,false,d,false,false,0.0-2.0-0.26-0.238-3.238,1,0,0,81,false,stim,true,0,1232.5,2,0,1,32186,WMM2,963098,false,false,899,image-keyboard-response,59
true,4,2,1,0,false,q,true,false,0.0-2.0-0.26-0.239-3.239,1,0,0,68,false,stim,false,0,794.8999999985099,2,0,0,32186,WMM2,965421,false,false,902,image-keyboard-response,60
true,5,1,1,1,true,z,false,true,0.0-2.0-0.26-0.240-3.240,0,0,1,90,true,stim,false,0,1103.5999999940395,2,0,0,32186,WMM2,968048,false,false,905,image-keyboard-response,1
true,5,0,1,1,false,z,false,false,0.0-2.0-0.26-0.241-3.241,0,0,1,81,false,stim,true,0,963.1000000014901,2,0,0,32186,WMM2,970535,false,false,908,image-keyboard-response,2
true,5,1,1,0,false,q,true,false,0.0-2.0-0.26-0.242-3.242,0,0,1,90,false,stim,false,2,675.1000000014901,2,0,1,32186,WMM2,972742,false,false,911,image-keyboard-response,3
true,5,2,1,0,false,q,true,true,0.0-2.0-0.27-0.243-3.243,0,0,1,68,false,stim,false,0,533.5999999940395,2,1,2,32186,WMM2,974791,false,true,914,image-keyboard-response,4
true,5,2,1,0,false,q,false,false,0.0-2.0-0.27-0.244-3.244,0,0,1,68,false,stim,true,2,769.2000000029802,2,0,1,32186,WMM2,977081,false,false,917,image-keyboard-response,5
true,5,0,1,0,true,q,false,true,0.0-2.0-0.27-0.245-3.245,0,0,1,81,false,stim,false,0,612.5999999940395,2,1,2,32186,WMM2,979213,false,false,920,image-keyboard-response,6
true,5,0,1,0,true,q,false,true,0.0-2.0-0.27-0.246-3.246,0,0,1,81,false,stim,false,0,1088.1000000014901,2,1,2,32186,WMM2,981825,false,false,923,image-keyboard-response,7
true,5,1,1,1,true,z,false,true,0.0-2.0-0.27-0.247-3.247,0,0,1,90,false,stim,false,0,872.6000000014901,2,0,0,32186,WMM2,984221,false,false,926,image-keyboard-response,8
true,5,1,1,0,false,q,true,false,0.0-2.0-0.27-0.248-3.248,0,0,1,90,false,stim,false,2,1037.1999999955297,2,0,1,32186,WMM2,986779,false,false,929,image-keyboard-response,9
true,5,2,1,1,false,z,true,false,0.0-2.0-0.27-0.249-3.249,0,0,1,68,false,stim,false,0,823.7999999970198,2,0,0,32186,WMM2,989121,false,false,932,image-keyboard-response,10
true,5,0,1,1,false,z,false,false,0.0-2.0-0.27-0.250-3.250,0,0,1,81,false,stim,true,0,745.8999999985099,2,0,0,32186,WMM2,991388,false,false,935,image-keyboard-response,11
true,5,0,1,0,true,q,false,false,0.0-2.0-0.27-0.251-3.251,0,0,1,81,false,stim,false,2,924.3000000044703,2,0,1,32186,WMM2,993840,false,true,938,image-keyboard-response,12
true,5,2,1,0,false,q,true,false,0.0-2.0-0.28-0.252-3.252,0,0,1,68,false,stim,false,0,888.1000000014901,2,1,2,32186,WMM2,996246,false,false,941,image-keyboard-response,13
true,5,2,1,0,false,q,false,false,0.0-2.0-0.28-0.253-3.253,0,0,1,68,false,stim,true,2,1080.0999999940395,2,0,1,32186,WMM2,998845,false,false,944,image-keyboard-response,14
true,5,1,1,0,false,q,true,false,0.0-2.0-0.28-0.254-3.254,0,0,1,90,false,stim,false,2,782.5,2,0,1,32186,WMM2,1001141,false,false,947,image-keyboard-response,15
true,5,0,1,0,true,q,false,true,0.0-2.0-0.28-0.255-3.255,0,0,1,81,false,stim,false,0,875.3999999985099,2,1,2,32186,WMM2,1003533,false,false,950,image-keyboard-response,16
true,5,0,1,0,true,q,false,true,0.0-2.0-0.28-0.256-3.256,0,0,1,81,false,stim,false,0,1353.5999999940395,2,1,2,32186,WMM2,1006411,false,false,953,image-keyboard-response,17
true,5,0,1,0,true,q,false,true,0.0-2.0-0.28-0.257-3.257,0,0,1,81,false,stim,false,2,1378.2000000029802,2,0,1,32186,WMM2,1009304,false,false,956,image-keyboard-response,18
true,5,0,1,1,false,z,false,false,0.0-2.0-0.28-0.258-3.258,0,0,1,81,false,stim,true,0,1669.5999999940395,2,0,0,32186,WMM2,1012496,false,false,959,image-keyboard-response,19
true,5,0,1,1,false,z,false,false,0.0-2.0-0.28-0.259-3.259,0,0,1,81,false,stim,true,0,1243.4000000059605,2,0,0,32186,WMM2,1015259,false,false,962,image-keyboard-response,20
true,5,2,1,1,false,z,true,true,0.0-2.0-0.28-0.260-3.260,0,0,1,68,false,stim,false,0,888.5,2,0,0,32186,WMM2,1017670,false,true,965,image-keyboard-response,21
true,5,1,1,1,true,z,false,false,0.0-2.0-0.29-0.261-3.261,0,0,1,90,false,stim,false,0,2066.2999999970198,2,0,0,32186,WMM2,1021260,false,true,968,image-keyboard-response,22
true,5,0,1,0,true,q,false,true,0.0-2.0-0.29-0.262-3.262,0,0,1,81,false,stim,false,0,1009.5999999940395,2,1,2,32186,WMM2,1023791,false,false,971,image-keyboard-response,23
true,5,0,1,0,true,q,false,true,0.0-2.0-0.29-0.263-3.263,0,0,1,81,false,stim,false,2,1336.2999999970198,2,0,1,32186,WMM2,1026653,false,false,974,image-keyboard-response,24
true,5,1,1,0,false,q,true,false,0.0-2.0-0.29-0.264-3.264,0,0,1,90,false,stim,false,0,733.2999999970198,2,1,2,32186,WMM2,1028911,false,false,977,image-keyboard-response,25
true,5,0,1,1,false,z,false,true,0.0-2.0-0.29-0.265-3.265,0,0,1,81,false,stim,true,0,815.1999999955297,2,0,0,32186,WMM2,1031246,false,true,980,image-keyboard-response,26
true,5,0,1,1,false,z,false,false,0.0-2.0-0.29-0.266-3.266,0,0,1,81,false,stim,true,0,1088.1999999955297,2,0,0,32186,WMM2,1033864,false,false,983,image-keyboard-response,27
true,5,2,1,0,false,q,false,false,0.0-2.0-0.29-0.267-3.267,0,0,1,68,false,stim,true,2,1652.6000000014901,2,0,1,32186,WMM2,1037037,false,false,986,image-keyboard-response,28
true,5,2,1,0,false,q,true,true,0.0-2.0-0.29-0.268-3.268,0,0,1,68,false,stim,false,0,1061.7000000029802,2,1,2,32186,WMM2,1039619,false,true,989,image-keyboard-response,29
true,5,2,1,0,false,q,false,true,0.0-2.0-0.29-0.269-3.269,0,0,1,68,false,stim,true,2,1130.8999999985099,2,0,1,32186,WMM2,1042266,false,true,992,image-keyboard-response,30
true,5,2,1,0,false,q,false,true,0.0-2.0-0.30-0.270-3.270,0,0,1,68,false,stim,true,2,1000.1999999955297,2,0,1,32186,WMM2,1044789,false,true,995,image-keyboard-response,31
true,5,2,1,1,false,z,true,false,0.0-2.0-0.30-0.271-3.271,0,0,1,68,false,stim,false,0,1434.6999999955297,2,0,0,32186,WMM2,1047741,false,false,998,image-keyboard-response,32
true,5,1,1,0,false,q,true,false,0.0-2.0-0.30-0.272-3.272,0,0,1,90,false,stim,false,0,755.2000000029802,2,1,2,32186,WMM2,1050037,false,false,1001,image-keyboard-response,33
true,5,0,1,0,true,q,false,true,0.0-2.0-0.30-0.273-3.273,0,0,1,81,false,stim,false,0,797.8999999985099,2,1,2,32186,WMM2,1052359,false,false,1004,image-keyboard-response,34
true,5,0,1,1,false,z,false,false,0.0-2.0-0.30-0.274-3.274,0,0,1,81,false,stim,true,0,1305.7000000029802,2,0,0,32186,WMM2,1055188,false,false,1007,image-keyboard-response,35
true,5,2,1,0,false,q,false,false,0.0-2.0-0.30-0.275-3.275,0,0,1,68,false,stim,true,2,2154.39999999851,2,0,1,32186,WMM2,1058870,false,false,1010,image-keyboard-response,36
true,5,1,1,1,true,z,false,true,0.0-2.0-0.30-0.276-3.276,0,0,1,90,false,stim,false,0,863.0,2,0,0,32186,WMM2,1061262,false,false,1013,image-keyboard-response,37
true,5,0,1,0,true,q,false,false,0.0-2.0-0.30-0.277-3.277,0,0,1,81,false,stim,false,0,1171.2999999970198,2,1,2,32186,WMM2,1063960,false,true,1016,image-keyboard-response,38
true,5,1,1,0,false,q,true,false,0.0-2.0-0.30-0.278-3.278,0,0,1,90,false,stim,false,2,1267.6000000014901,2,0,1,32186,WMM2,1066758,false,false,1019,image-keyboard-response,39
true,5,2,1,1,false,z,true,false,0.0-2.0-0.31-0.279-3.279,0,0,1,68,false,stim,false,0,879.7000000029802,2,0,0,32186,WMM2,1069163,false,false,1022,image-keyboard-response,40
true,5,0,1,0,true,q,false,true,0.0-2.0-0.31-0.280-3.280,0,0,1,81,false,stim,false,2,1847.2999999970198,2,0,1,32186,WMM2,1072531,false,false,1025,image-keyboard-response,41
true,5,0,1,1,false,z,false,false,0.0-2.0-0.31-0.281-3.281,0,0,1,81,false,stim,true,0,980.3000000044703,2,0,0,32186,WMM2,1075038,false,false,1028,image-keyboard-response,42
true,5,1,1,0,false,q,true,false,0.0-2.0-0.31-0.282-3.282,0,0,1,90,false,stim,false,2,1083.2999999970198,2,0,1,32186,WMM2,1077645,false,false,1031,image-keyboard-response,43
true,5,2,1,0,false,q,true,false,0.0-2.0-0.31-0.283-3.283,0,0,1,68,false,stim,false,0,1120.8999999985099,2,1,2,32186,WMM2,1080297,false,false,1034,image-keyboard-response,44
true,5,0,1,0,true,q,false,true,0.0-2.0-0.31-0.284-3.284,0,0,1,81,false,stim,false,0,991.6999999955297,2,1,2,32186,WMM2,1082809,false,false,1037,image-keyboard-response,45
true,5,0,1,0,true,q,false,true,0.0-2.0-0.31-0.285-3.285,0,0,1,81,false,stim,false,0,1301.3999999985099,2,1,2,32186,WMM2,1085628,false,false,1040,image-keyboard-response,46
true,5,0,1,1,false,z,false,false,0.0-2.0-0.31-0.286-3.286,0,0,1,81,false,stim,true,0,963.5,2,0,0,32186,WMM2,1088120,false,false,1043,image-keyboard-response,47
true,5,1,1,0,false,q,true,false,0.0-2.0-0.31-0.287-3.287,0,0,1,90,false,stim,false,2,738.5,2,0,1,32186,WMM2,1090385,false,false,1046,image-keyboard-response,48
true,5,2,1,0,false,q,true,false,0.0-2.0-0.32-0.288-3.288,0,0,1,68,false,stim,false,0,893.5,2,1,2,32186,WMM2,1092798,false,false,1049,image-keyboard-response,49
true,5,0,1,0,true,q,false,true,0.0-2.0-0.32-0.289-3.289,0,0,1,81,false,stim,false,0,839.7999999970198,2,1,2,32186,WMM2,1095160,false,false,1052,image-keyboard-response,50
true,5,1,1,1,true,z,false,true,0.0-2.0-0.32-0.290-3.290,0,0,1,90,false,stim,false,0,1178.3000000044703,2,0,0,32186,WMM2,1097858,false,false,1055,image-keyboard-response,51
true,5,1,1,0,false,q,true,false,0.0-2.0-0.32-0.291-3.291,0,0,1,90,false,stim,false,2,1486.2000000029802,2,1,1,32186,WMM2,1100860,false,false,1058,image-keyboard-response,52
true,5,0,1,0,true,q,false,true,0.0-2.0-0.32-0.292-3.292,0,0,1,81,false,stim,false,0,843.0,2,1,2,32186,WMM2,1103221,false,false,1061,image-keyboard-response,53
true,5,2,1,1,false,z,true,false,0.0-2.0-0.32-0.293-3.293,0,0,1,68,false,stim,false,0,1543.8999999985099,2,0,0,32186,WMM2,1106279,false,false,1064,image-keyboard-response,54
true,5,0,1,0,true,q,false,true,0.0-2.0-0.32-0.294-3.294,0,0,1,81,false,stim,false,2,853.0,2,1,1,32186,WMM2,1108655,false,false,1067,image-keyboard-response,55
true,5,1,1,1,true,z,false,true,0.0-2.0-0.32-0.295-3.295,0,0,1,90,false,stim,false,0,888.3999999985099,2,0,0,32186,WMM2,1111081,false,false,1070,image-keyboard-response,56
true,5,0,1,0,true,q,false,false,0.0-2.0-0.32-0.296-3.296,0,0,1,81,false,stim,false,2,683.5,2,1,1,32186,WMM2,1113284,false,true,1073,image-keyboard-response,57
true,5,1,1,0,false,q,true,false,0.0-2.0-0.33-0.297-3.297,0,0,1,90,false,stim,false,0,835.3999999985099,2,1,2,32186,WMM2,1115640,false,false,1076,image-keyboard-response,58
true,5,2,1,0,false,q,true,false,0.0-2.0-0.33-0.298-3.298,0,0,1,68,false,stim,false,0,1021.6000000014901,2,1,2,32186,WMM2,1118183,false,false,1079,image-keyboard-response,59
true,5,1,1,0,false,q,true,false,0.0-2.0-0.33-0.299-3.299,0,0,1,90,false,stim,false,2,967.1000000014901,2,1,1,32186,WMM2,1120668,false,false,1082,image-keyboard-response,60
true,6,0,2,2,false,d,true,false,0.0-2.0-0.33-0.300-3.300,0,1,1,81,true,stim,false,1,1281.5,2,0,0,32186,WMM2,1123466,false,false,1085,image-keyboard-response,1
true,6,0,2,0,true,q,false,true,0.0-2.0-0.33-0.301-3.301,0,1,1,81,false,stim,false,0,2066.7000000029802,2,1,2,32186,WMM2,1127049,false,false,1088,image-keyboard-response,2
true,6,0,2,0,true,q,false,true,0.0-2.0-0.33-0.302-3.302,0,1,1,81,false,stim,false,0,1083.3999999985099,2,1,1,32186,WMM2,1129646,false,false,1091,image-keyboard-response,3
true,6,0,2,2,false,d,true,false,0.0-2.0-0.33-0.303-3.303,0,1,1,81,false,stim,false,1,912.3999999985099,2,0,0,32186,WMM2,1132078,false,false,1094,image-keyboard-response,4
true,6,1,2,2,false,d,false,false,0.0-2.0-0.33-0.304-3.304,0,1,1,90,false,stim,true,1,657.5,2,0,0,32186,WMM2,1134262,false,false,1097,image-keyboard-response,5
true,6,0,2,0,true,q,false,true,0.0-2.0-0.33-0.305-3.305,0,1,1,81,false,stim,false,0,985.6000000014901,2,1,1,32186,WMM2,1136772,false,false,1100,image-keyboard-response,6
true,6,2,2,2,true,d,false,true,0.0-2.0-0.34-0.306-3.306,0,1,1,68,false,stim,false,1,775.1000000014901,2,0,0,32186,WMM2,1139080,false,false,1103,image-keyboard-response,7
true,6,0,2,0,true,q,false,true,0.0-2.0-0.34-0.307-3.307,0,1,1,81,false,stim,false,0,1359.3000000044703,2,1,1,32186,WMM2,1141957,false,false,1106,image-keyboard-response,8
true,6,2,2,2,true,d,false,false,0.0-2.0-0.34-0.308-3.308,0,1,1,68,false,stim,false,1,952.1000000014901,2,0,0,32186,WMM2,1144429,false,true,1109,image-keyboard-response,9
true,6,0,2,2,false,d,true,false,0.0-2.0-0.34-0.309-3.309,0,1,1,81,false,stim,false,1,1106.0,2,0,0,32186,WMM2,1147055,false,false,1112,image-keyboard-response,10
true,6,1,2,0,false,q,true,false,0.0-2.0-0.34-0.310-3.310,0,1,1,90,false,stim,false,0,950.8000000044703,2,1,1,32186,WMM2,1149519,false,false,1115,image-keyboard-response,11
true,6,0,2,0,true,q,false,true,0.0-2.0-0.34-0.311-3.311,0,1,1,81,false,stim,false,0,863.3000000044703,2,1,2,32186,WMM2,1151906,false,false,1118,image-keyboard-response,12
true,6,2,2,0,false,q,true,false,0.0-2.0-0.34-0.312-3.312,0,1,1,68,false,stim,false,0,706.1999999955297,2,1,2,32186,WMM2,1154132,false,false,1121,image-keyboard-response,13
true,6,0,2,0,true,q,false,true,0.0-2.0-0.34-0.313-3.313,0,1,1,81,false,stim,false,0,1314.5,2,1,2,32186,WMM2,1156966,false,false,1124,image-keyboard-response,14
true,6,0,2,0,true,q,false,true,0.0-2.0-0.34-0.314-3.314,0,1,1,81,false,stim,false,0,1466.2000000029802,2,1,1,32186,WMM2,1159953,false,false,1127,image-keyboard-response,15
true,6,0,2,0,true,q,false,true,0.0-2.0-0.35-0.315-3.315,0,1,1,81,false,stim,false,0,1420.7999999970198,2,1,2,32186,WMM2,1162894,false,false,1130,image-keyboard-response,16
true,6,0,2,0,true,q,false,true,0.0-2.0-0.35-0.316-3.316,0,1,1,81,false,stim,false,0,1048.6999999955297,2,1,1,32186,WMM2,1165462,false,false,1133,image-keyboard-response,17
true,6,0,2,0,true,q,false,true,0.0-2.0-0.35-0.317-3.317,0,1,1,81,false,stim,false,0,1966.3999999985099,2,1,1,32186,WMM2,1168950,false,false,1136,image-keyboard-response,18
true,6,1,2,2,false,d,false,false,0.0-2.0-0.35-0.318-3.318,0,1,1,90,false,stim,true,1,1063.7000000029802,2,0,0,32186,WMM2,1171537,false,false,1139,image-keyboard-response,19
true,6,0,2,0,true,q,false,true,0.0-2.0-0.35-0.319-3.319,0,1,1,81,false,stim,false,0,716.8999999985099,2,1,2,32186,WMM2,1173774,false,false,1142,image-keyboard-response,20
true,6,0,2,2,false,d,true,true,0.0-2.0-0.35-0.320-3.320,0,1,1,81,false,stim,false,1,1476.8999999985099,2,0,0,32186,WMM2,1176776,false,true,1145,image-keyboard-response,21
true,6,0,2,0,true,q,false,true,0.0-2.0-0.35-0.321-3.321,0,1,1,81,false,stim,false,0,1793.8000000044703,2,1,1,32186,WMM2,1180090,false,false,1148,image-keyboard-response,22
true,6,0,2,0,true,q,false,true,0.0-2.0-0.35-0.322-3.322,0,1,1,81,false,stim,false,0,1541.5,2,1,2,32186,WMM2,1183162,false,false,1151,image-keyboard-response,23
true,6,0,2,2,false,d,true,false,0.0-2.0-0.35-0.323-3.323,0,1,1,81,false,stim,false,1,1080.1000000014901,2,0,0,32186,WMM2,1185774,false,false,1154,image-keyboard-response,24
true,6,1,2,0,false,q,true,false,0.0-2.0-0.36-0.324-3.324,0,1,1,90,false,stim,false,0,800.6000000014901,2,1,1,32186,WMM2,1188096,false,false,1157,image-keyboard-response,25
true,6,0,2,2,false,d,true,false,0.0-2.0-0.36-0.325-3.325,0,1,1,81,false,stim,false,1,1361.8999999985099,2,0,0,32186,WMM2,1190990,false,false,1160,image-keyboard-response,26
true,6,2,2,0,false,q,true,false,0.0-2.0-0.36-0.326-3.326,0,1,1,68,false,stim,false,0,717.4000000059605,2,1,1,32186,WMM2,1193235,false,false,1163,image-keyboard-response,27
true,6,0,2,2,false,d,true,false,0.0-2.0-0.36-0.327-3.327,0,1,1,81,false,stim,false,1,1272.3000000044703,2,0,0,32186,WMM2,1196027,false,false,1166,image-keyboard-response,28
true,6,1,2,0,false,q,true,false,0.0-2.0-0.36-0.328-3.328,0,1,1,90,false,stim,false,0,810.8999999985099,2,1,1,32186,WMM2,1198365,false,false,1169,image-keyboard-response,29
true,6,2,2,0,false,q,true,false,0.0-2.0-0.36-0.329-3.329,0,1,1,68,false,stim,false,0,1465.3999999985099,2,1,2,32186,WMM2,1201353,false,false,1172,image-keyboard-response,30
true,6,0,2,2,false,d,true,false,0.0-2.0-0.36-0.330-3.330,0,1,1,81,false,stim,false,1,634.6999999955297,2,0,0,32186,WMM2,1203519,false,false,1175,image-keyboard-response,31
true,6,1,2,0,false,q,true,false,0.0-2.0-0.36-0.331-3.331,0,1,1,90,false,stim,false,0,994.0,2,1,2,32186,WMM2,1206040,false,false,1178,image-keyboard-response,32
true,6,0,2,0,true,q,false,true,0.0-2.0-0.36-0.332-3.332,0,1,1,81,false,stim,false,0,682.6000000014901,2,1,2,32186,WMM2,1208248,false,false,1181,image-keyboard-response,33
true,6,0,2,2,false,d,true,false,0.0-2.0-0.37-0.333-3.333,0,1,1,81,false,stim,false,1,710.5,2,0,0,32186,WMM2,1210488,false,false,1184,image-keyboard-response,34
true,6,0,2,0,true,q,false,true,0.0-2.0-0.37-0.334-3.334,0,1,1,81,false,stim,false,0,1046.6999999955297,2,1,2,32186,WMM2,1213057,false,false,1187,image-keyboard-response,35
true,6,0,2,0,true,q,false,false,0.0-2.0-0.37-0.335-3.335,0,1,1,81,false,stim,false,0,1035.5,2,1,1,32186,WMM2,1215619,false,true,1190,image-keyboard-response,36
true,6,1,2,0,false,q,true,false,0.0-2.0-0.37-0.336-3.336,0,1,1,90,false,stim,false,0,729.6999999955297,2,1,1,32186,WMM2,1217874,false,false,1193,image-keyboard-response,37
true,6,2,2,2,true,d,false,true,0.0-2.0-0.37-0.337-3.337,0,1,1,68,false,stim,false,1,773.8999999985099,2,0,0,32186,WMM2,1220177,false,false,1196,image-keyboard-response,38
true,6,2,2,0,false,q,true,false,0.0-2.0-0.37-0.338-3.338,0,1,1,68,false,stim,false,0,1424.6000000014901,2,1,2,32186,WMM2,1223125,false,false,1199,image-keyboard-response,39
true,6,0,2,2,false,d,true,false,0.0-2.0-0.37-0.339-3.339,0,1,1,81,false,stim,false,1,1160.7000000029802,2,0,0,32186,WMM2,1225821,false,false,1202,image-keyboard-response,40
true,6,0,2,0,true,q,false,true,0.0-2.0-0.37-0.340-3.340,0,1,1,81,false,stim,false,0,1014.0,2,1,2,32186,WMM2,1228362,false,false,1205,image-keyboard-response,41
true,6,1,2,0,false,q,true,false,0.0-2.0-0.37-0.341-3.341,0,1,1,90,false,stim,false,0,822.1000000014901,2,1,1,32186,WMM2,1230704,false,false,1208,image-keyboard-response,42
true,6,0,2,2,false,d,true,false,0.0-2.0-0.38-0.342-3.342,0,1,1,81,false,stim,false,1,1018.1000000014901,2,0,0,32186,WMM2,1233244,false,false,1211,image-keyboard-response,43
true,6,2,2,0,false,q,true,false,0.0-2.0-0.38-0.343-3.343,0,1,1,68,false,stim,false,0,694.2000000029802,2,1,1,32186,WMM2,1235469,false,false,1214,image-keyboard-response,44
true,6,1,2,2,false,d,false,false,0.0-2.0-0.38-0.344-3.344,0,1,1,90,false,stim,true,1,818.1999999955297,2,0,0,32186,WMM2,1237820,false,false,1217,image-keyboard-response,45
true,6,0,2,0,true,q,false,true,0.0-2.0-0.38-0.345-3.345,0,1,1,81,false,stim,false,0,994.9000000059605,2,1,1,32186,WMM2,1240337,false,false,1220,image-keyboard-response,46
true,6,2,2,0,false,q,true,true,0.0-2.0-0.38-0.346-3.346,0,1,1,68,false,stim,false,0,1753.2999999970198,2,1,2,32186,WMM2,1243615,false,true,1223,image-keyboard-response,47
true,6,0,2,0,true,q,false,true,0.0-2.0-0.38-0.347-3.347,0,1,1,81,false,stim,false,0,1700.5,2,1,2,32186,WMM2,1246847,false,false,1226,image-keyboard-response,48
true,6,1,2,2,false,d,false,true,0.0-2.0-0.38-0.348-3.348,0,1,1,90,false,stim,true,1,1534.1000000014901,2,0,0,32186,WMM2,1249906,false,true,1229,image-keyboard-response,49
true,6,2,2,0,false,q,true,false,0.0-2.0-0.38-0.349-3.349,0,1,1,68,false,stim,false,0,1340.8999999985099,2,1,1,32186,WMM2,1252773,false,false,1232,image-keyboard-response,50
true,6,1,2,0,false,q,true,false,0.0-2.0-0.38-0.350-3.350,0,1,1,90,false,stim,false,0,639.3000000044703,2,0,2,32186,WMM2,1254940,false,false,1235,image-keyboard-response,51
true,6,0,2,0,true,q,false,true,0.0-2.0-0.39-0.351-3.351,0,1,1,81,false,stim,false,0,785.6000000014901,2,1,1,32186,WMM2,1257261,false,false,1238,image-keyboard-response,52
true,6,0,2,0,true,q,false,false,0.0-2.0-0.39-0.352-3.352,0,1,1,81,false,stim,false,0,975.5,2,0,2,32186,WMM2,1259752,false,true,1241,image-keyboard-response,53
true,6,0,2,0,true,q,false,true,0.0-2.0-0.39-0.353-3.353,0,1,1,81,false,stim,false,0,1162.2000000029802,2,0,2,32186,WMM2,1262429,false,false,1244,image-keyboard-response,54
true,6,0,2,0,true,q,false,false,0.0-2.0-0.39-0.354-3.354,0,1,1,81,false,stim,false,0,1028.3999999985099,2,1,1,32186,WMM2,1264976,false,true,1247,image-keyboard-response,55
true,6,1,2,0,false,q,true,false,0.0-2.0-0.39-0.355-3.355,0,1,1,90,false,stim,false,0,737.2000000029802,2,0,2,32186,WMM2,1267232,false,false,1250,image-keyboard-response,56
true,6,2,2,2,true,d,false,true,0.0-2.0-0.39-0.356-3.356,0,1,1,68,false,stim,false,1,685.3999999985099,2,1,0,32186,WMM2,1269440,false,false,1253,image-keyboard-response,57
true,6,0,2,0,true,q,false,true,0.0-2.0-0.39-0.357-3.357,0,1,1,81,false,stim,false,0,1005.4000000059605,2,1,1,32186,WMM2,1271967,false,false,1256,image-keyboard-response,58
true,6,0,2,2,false,d,true,false,0.0-2.0-0.39-0.358-3.358,0,1,1,81,false,stim,false,1,1146.6000000014901,2,1,0,32186,WMM2,1274628,false,false,1259,image-keyboard-response,59
true,6,2,2,2,true,d,false,true,0.0-2.0-0.39-0.359-3.359,0,1,1,68,false,stim,false,1,704.7999999970198,2,1,0,32186,WMM2,1276856,false,false,1262,image-keyboard-response,60
true,7,2,4,2,true,d,false,true,0.0-2.0-0.40-0.360-3.360,1,1,0,68,true,stim,false,2,752.0,2,1,0,32186,WMM2,1279126,false,false,1265,image-keyboard-response,1
true,7,2,4,0,false,q,true,false,0.0-2.0-0.40-0.361-3.361,1,1,0,68,false,stim,false,0,1070.2999999970198,2,0,2,32186,WMM2,1281724,false,false,1268,image-keyboard-response,2
true,7,0,4,2,false,d,true,true,0.0-2.0-0.40-0.362-3.362,1,1,0,81,false,stim,false,2,1082.7999999970198,2,1,0,32186,WMM2,1284320,false,true,1271,image-keyboard-response,3
true,7,0,4,0,true,q,false,false,0.0-2.0-0.40-0.363-3.363,1,1,0,81,false,stim,false,0,837.1000000014901,2,1,1,32186,WMM2,1286678,false,true,1274,image-keyboard-response,4
true,7,1,4,2,false,d,true,false,0.0-2.0-0.40-0.364-3.364,1,1,0,90,false,stim,false,2,937.0,2,1,0,32186,WMM2,1289136,false,false,1277,image-keyboard-response,5
true,7,0,4,0,true,q,false,true,0.0-2.0-0.40-0.365-3.365,1,1,0,81,false,stim,false,0,1364.0,2,0,2,32186,WMM2,1292017,false,false,1280,image-keyboard-response,6
true,7,0,4,0,true,q,false,true,0.0-2.0-0.40-0.366-3.366,1,1,0,81,false,stim,false,0,1075.2999999970198,2,0,2,32186,WMM2,1294613,false,false,1283,image-keyboard-response,7
true,7,2,4,0,false,q,true,true,0.0-2.0-0.40-0.367-3.367,1,1,0,68,false,stim,false,0,1033.0,2,1,1,32186,WMM2,1297165,false,true,1286,image-keyboard-response,8
true,7,2,4,0,false,q,true,true,0.0-2.0-0.40-0.368-3.368,1,1,0,68,false,stim,false,0,1084.7999999970198,2,1,1,32186,WMM2,1299768,false,true,1289,image-keyboard-response,9
true,7,0,4,0,true,q,false,true,0.0-2.0-0.41-0.369-3.369,1,1,0,81,false,stim,false,0,1141.0,2,0,2,32186,WMM2,1302431,false,false,1292,image-keyboard-response,10
true,7,0,4,0,true,q,false,true,0.0-2.0-0.41-0.370-3.370,1,1,0,81,false,stim,false,0,1000.2000000029802,2,1,1,32186,WMM2,1304957,false,false,1295,image-keyboard-response,11
true,7,2,4,0,false,q,true,false,0.0-2.0-0.41-0.371-3.371,1,1,0,68,false,stim,false,0,1025.2000000029802,2,0,2,32186,WMM2,1307505,false,false,1298,image-keyboard-response,12
true,7,2,4,2,true,d,false,true,0.0-2.0-0.41-0.372-3.372,1,1,0,68,false,stim,false,2,1445.7999999970198,2,1,0,32186,WMM2,1310488,false,false,1301,image-keyboard-response,13
true,7,2,4,2,true,d,false,false,0.0-2.0-0.41-0.373-3.373,1,1,0,68,false,stim,false,2,1018.7999999970198,2,1,0,32186,WMM2,1313022,false,true,1304,image-keyboard-response,14
true,7,0,4,0,true,q,false,false,0.0-2.0-0.41-0.374-3.374,1,1,0,81,false,stim,false,0,1216.3000000044703,2,1,1,32186,WMM2,1315760,false,true,1307,image-keyboard-response,15
true,7,0,4,0,true,q,false,true,0.0-2.0-0.41-0.375-3.375,1,1,0,81,false,stim,false,0,967.1000000014901,2,0,2,32186,WMM2,1318256,false,false,1310,image-keyboard-response,16
true,7,0,4,2,false,d,true,false,0.0-2.0-0.41-0.376-3.376,1,1,0,81,false,stim,false,2,1722.7999999970198,2,1,0,32186,WMM2,1321505,false,false,1313,image-keyboard-response,17
true,7,2,4,0,false,q,true,false,0.0-2.0-0.41-0.377-3.377,1,1,0,68,false,stim,false,0,1223.2999999970198,2,1,1,32186,WMM2,1324251,false,false,1316,image-keyboard-response,18
true,7,1,4,2,false,d,true,false,0.0-2.0-0.42-0.378-3.378,1,1,0,90,false,stim,false,2,782.2000000029802,2,1,0,32186,WMM2,1326552,false,false,1319,image-keyboard-response,19
true,7,1,4,2,false,d,true,false,0.0-2.0-0.42-0.379-3.379,1,1,0,90,false,stim,false,2,721.3999999985099,2,1,0,32186,WMM2,1328793,false,false,1322,image-keyboard-response,20
true,7,0,4,0,true,q,false,true,0.0-2.0-0.42-0.380-3.380,1,1,0,81,false,stim,false,0,1243.6000000014901,2,1,1,32186,WMM2,1331572,false,false,1325,image-keyboard-response,21
true,7,0,4,0,true,q,false,true,0.0-2.0-0.42-0.381-3.381,1,1,0,81,false,stim,false,0,949.2999999970198,2,1,1,32186,WMM2,1334043,false,false,1328,image-keyboard-response,22
true,7,2,4,0,false,q,true,false,0.0-2.0-0.42-0.382-3.382,1,1,0,68,false,stim,false,0,1014.6000000014901,2,0,2,32186,WMM2,1336589,false,false,1331,image-keyboard-response,23
true,7,0,4,0,true,q,false,true,0.0-2.0-0.42-0.383-3.383,1,1,0,81,false,stim,false,0,1142.7000000029802,2,0,2,32186,WMM2,1339265,false,false,1334,image-keyboard-response,24
true,7,0,4,0,true,q,false,false,0.0-2.0-0.42-0.384-3.384,1,1,0,81,false,stim,false,0,1266.5,2,1,1,32186,WMM2,1342062,false,true,1337,image-keyboard-response,25
true,7,1,4,2,false,d,true,false,0.0-2.0-0.42-0.385-3.385,1,1,0,90,false,stim,false,2,732.5,2,1,0,32186,WMM2,1344324,false,false,1340,image-keyboard-response,26
true,7,2,4,0,false,q,true,false,0.0-2.0-0.42-0.386-3.386,1,1,0,68,false,stim,false,0,1265.2999999970198,2,0,2,32186,WMM2,1347125,false,false,1343,image-keyboard-response,27
true,7,0,4,0,true,q,false,true,0.0-2.0-0.43-0.387-3.387,1,1,0,81,false,stim,false,0,562.2999999970198,2,1,1,32186,WMM2,1349216,false,false,1346,image-keyboard-response,28
true,7,0,4,2,false,d,true,false,0.0-2.0-0.43-0.388-3.388,1,1,0,81,false,stim,false,2,1296.7999999970198,2,1,0,32186,WMM2,1352034,false,false,1349,image-keyboard-response,29
true,7,0,4,2,false,d,true,true,0.0-2.0-0.43-0.389-3.389,1,1,0,81,false,stim,false,2,1178.0,2,1,0,32186,WMM2,1354736,false,true,1352,image-keyboard-response,30
true,7,0,4,0,true,q,false,true,0.0-2.0-0.43-0.390-3.390,1,1,0,81,false,stim,false,0,1073.8999999985099,2,1,1,32186,WMM2,1357338,false,false,1355,image-keyboard-response,31
true,7,0,4,2,false,d,true,false,0.0-2.0-0.43-0.391-3.391,1,1,0,81,false,stim,false,2,1964.2000000029802,2,1,0,32186,WMM2,1360829,false,false,1358,image-keyboard-response,32
true,7,2,4,0,false,q,true,false,0.0-2.0-0.43-0.392-3.392,1,1,0,68,false,stim,false,0,1139.6999999955297,2,0,2,32186,WMM2,1363495,false,false,1361,image-keyboard-response,33
true,7,0,4,0,true,q,false,true,0.0-2.0-0.43-0.393-3.393,1,1,0,81,false,stim,false,0,684.0,2,0,2,32186,WMM2,1365697,false,false,1364,image-keyboard-response,34
true,7,0,4,0,true,q,false,true,0.0-2.0-0.43-0.394-3.394,1,1,0,81,false,stim,false,0,906.1999999955297,2,1,1,32186,WMM2,1368143,false,false,1367,image-keyboard-response,35
true,7,1,4,0,false,q,true,true,0.0-2.0-0.43-0.395-3.395,1,1,0,90,false,stim,false,0,1303.5,2,0,2,32186,WMM2,1370970,false,true,1370,image-keyboard-response,36
true,7,1,4,0,false,q,true,false,0.0-2.0-0.44-0.396-3.396,1,1,0,90,false,stim,false,0,1044.9000000059605,2,1,1,32186,WMM2,1373537,false,false,1373,image-keyboard-response,37
true,7,0,4,0,true,q,false,true,0.0-2.0-0.44-0.397-3.397,1,1,0,81,false,stim,false,0,1023.6000000014901,2,0,2,32186,WMM2,1376084,false,false,1376,image-keyboard-response,38
true,7,0,4,0,true,q,false,true,0.0-2.0-0.44-0.398-3.398,1,1,0,81,false,stim,false,0,1184.0,2,1,1,32186,WMM2,1378790,false,false,1379,image-keyboard-response,39
true,7,0,4,2,false,d,true,false,0.0-2.0-0.44-0.399-3.399,1,1,0,81,false,stim,false,2,903.0999999940395,2,1,0,32186,WMM2,1381221,false,false,1382,image-keyboard-response,40
true,7,1,4,0,false,q,true,false,0.0-2.0-0.44-0.400-3.400,1,1,0,90,false,stim,false,0,739.6000000014901,2,1,1,32186,WMM2,1383483,false,false,1385,image-keyboard-response,41
true,7,2,4,0,false,q,true,false,0.0-2.0-0.44-0.401-3.401,1,1,0,68,false,stim,false,0,547.0,2,0,2,32186,WMM2,1385555,false,false,1388,image-keyboard-response,42
true,7,0,4,2,false,d,true,false,0.0-2.0-0.44-0.402-3.402,1,1,0,81,false,stim,false,2,1011.3999999985099,2,1,0,32186,WMM2,1388092,false,false,1391,image-keyboard-response,43
true,7,1,4,0,false,q,true,false,0.0-2.0-0.44-0.403-3.403,1,1,0,90,false,stim,false,0,770.2999999970198,2,0,2,32186,WMM2,1390398,false,false,1394,image-keyboard-response,44
true,7,1,4,2,false,d,true,false,0.0-2.0-0.44-0.404-3.404,1,1,0,90,false,stim,false,2,1132.3999999985099,2,1,0,32186,WMM2,1393059,false,false,1397,image-keyboard-response,45
true,7,0,4,2,false,d,true,false,0.0-2.0-0.45-0.405-3.405,1,1,0,81,false,stim,false,2,1155.1000000014901,2,1,0,32186,WMM2,1395747,false,false,1400,image-keyboard-response,46
true,7,0,4,2,false,d,true,false,0.0-2.0-0.45-0.406-3.406,1,1,0,81,false,stim,false,2,913.1000000014901,2,1,0,32186,WMM2,1398214,false,false,1403,image-keyboard-response,47
true,7,2,4,0,false,q,true,false,0.0-2.0-0.45-0.407-3.407,1,1,0,68,false,stim,false,0,1138.1000000014901,2,1,1,32186,WMM2,1400881,false,false,1406,image-keyboard-response,48
true,7,2,4,2,true,d,false,true,0.0-2.0-0.45-0.408-3.408,1,1,0,68,false,stim,false,2,1036.0,2,1,0,32186,WMM2,1403446,false,false,1409,image-keyboard-response,49
true,7,2,4,0,false,q,true,true,0.0-2.0-0.45-0.409-3.409,1,1,0,68,false,stim,false,0,1377.8000000044703,2,0,2,32186,WMM2,1406344,false,true,1412,image-keyboard-response,50
true,7,2,4,0,false,q,true,true,0.0-2.0-0.45-0.410-3.410,1,1,0,68,false,stim,false,0,1485.9000000059605,2,1,2,32186,WMM2,1409360,false,true,1415,image-keyboard-response,51
true,7,1,4,0,false,q,true,false,0.0-2.0-0.45-0.411-3.411,1,1,0,90,false,stim,false,0,2307.7999999970198,2,1,2,32186,WMM2,1413187,false,false,1418,image-keyboard-response,52
true,7,0,4,0,true,q,false,false,0.0-2.0-0.45-0.412-3.412,1,1,0,81,false,stim,false,0,1093.6000000014901,2,0,1,32186,WMM2,1415804,false,true,1421,image-keyboard-response,53
true,7,2,4,0,false,q,true,true,0.0-2.0-0.45-0.413-3.413,1,1,0,68,false,stim,false,0,665.6999999955297,2,0,1,32186,WMM2,1417985,false,true,1424,image-keyboard-response,54
true,7,2,4,0,false,q,true,true,0.0-2.0-0.46-0.414-3.414,1,1,0,68,false,stim,false,0,767.0,2,1,2,32186,WMM2,1420278,false,true,1427,image-keyboard-response,55
true,7,2,4,2,true,d,false,true,0.0-2.0-0.46-0.415-3.415,1,1,0,68,false,stim,false,2,923.0,2,1,0,32186,WMM2,1422719,false,false,1430,image-keyboard-response,56
true,7,2,4,0,false,q,true,false,0.0-2.0-0.46-0.416-3.416,1,1,0,68,false,stim,false,0,1211.3999999985099,2,0,1,32186,WMM2,1425464,false,false,1433,image-keyboard-response,57
true,7,2,4,2,true,d,false,true,0.0-2.0-0.46-0.417-3.417,1,1,0,68,false,stim,false,2,1525.1000000014901,2,1,0,32186,WMM2,1428506,false,false,1436,image-keyboard-response,58
true,7,2,4,2,true,d,false,true,0.0-2.0-0.46-0.418-3.418,1,1,0,68,false,stim,false,2,1091.6000000014901,2,1,0,32186,WMM2,1431117,false,false,1439,image-keyboard-response,59
true,7,2,4,0,false,q,true,false,0.0-2.0-0.46-0.419-3.419,1,1,0,68,false,stim,false,0,1247.0,2,1,2,32186,WMM2,1433885,false,false,1442,image-keyboard-response,60
true,8,0,3,1,false,z,false,false,0.0-2.0-0.46-0.420-3.420,1,0,1,81,true,stim,true,0,1337.6000000014901,2,0,1,32186,WMM2,1436736,false,false,1445,image-keyboard-response,1
true,8,0,3,1,false,z,false,false,0.0-2.0-0.46-0.421-3.421,1,0,1,81,false,stim,true,0,1006.2999999970198,2,0,1,32186,WMM2,1439272,false,false,1448,image-keyboard-response,2
true,8,1,3,0,false,q,true,false,0.0-2.0-0.46-0.422-3.422,1,0,1,90,false,stim,false,0,900.3999999985099,2,1,2,32186,WMM2,1441695,false,false,1451,image-keyboard-response,3
true,8,1,3,1,true,z,false,true,0.0-2.0-0.47-0.423-3.423,1,0,1,90,false,stim,false,0,1019.6000000014901,2,0,1,32186,WMM2,1444245,false,false,1454,image-keyboard-response,4
true,8,1,3,0,false,q,true,false,0.0-2.0-0.47-0.424-3.424,1,0,1,90,false,stim,false,0,1078.1000000014901,2,1,2,32186,WMM2,1446843,false,false,1457,image-keyboard-response,5
true,8,0,3,2,false,d,true,false,0.0-2.0-0.47-0.425-3.425,1,0,1,81,false,stim,false,2,811.8999999985099,2,1,0,32186,WMM2,1449178,false,false,1460,image-keyboard-response,6
true,8,2,3,2,true,d,false,true,0.0-2.0-0.47-0.426-3.426,1,0,1,68,false,stim,false,2,1135.7999999970198,2,1,0,32186,WMM2,1451832,false,false,1463,image-keyboard-response,7
true,8,2,3,1,false,z,true,false,0.0-2.0-0.47-0.427-3.427,1,0,1,68,false,stim,false,0,1497.7999999970198,2,0,1,32186,WMM2,1454847,false,false,1466,image-keyboard-response,8
true,8,0,3,2,false,d,true,true,0.0-2.0-0.47-0.428-3.428,1,0,1,81,false,stim,false,2,887.5,2,1,0,32186,WMM2,1457254,false,true,1469,image-keyboard-response,9
true,8,0,3,0,true,q,false,true,0.0-2.0-0.47-0.429-3.429,1,0,1,81,false,stim,false,0,1644.3999999985099,2,1,2,32186,WMM2,1460421,false,false,1472,image-keyboard-response,10
true,8,0,3,1,false,z,false,false,0.0-2.0-0.47-0.430-3.430,1,0,1,81,false,stim,true,0,835.0,2,0,1,32186,WMM2,1462779,false,false,1475,image-keyboard-response,11
true,8,1,3,0,false,q,true,false,0.0-2.0-0.47-0.431-3.431,1,0,1,90,false,stim,false,0,1016.1999999955297,2,1,2,32186,WMM2,1465314,false,false,1478,image-keyboard-response,12
true,8,1,3,0,false,q,true,true,0.0-2.0-0.48-0.432-3.432,1,0,1,90,false,stim,false,0,782.3999999985099,2,1,2,32186,WMM2,1467621,false,true,1481,image-keyboard-response,13
true,8,1,3,1,true,z,false,true,0.0-2.0-0.48-0.433-3.433,1,0,1,90,false,stim,false,0,946.3999999985099,2,0,1,32186,WMM2,1470083,false,false,1484,image-keyboard-response,14
true,8,1,3,2,false,d,true,false,0.0-2.0-0.48-0.434-3.434,1,0,1,90,false,stim,false,2,1074.5,2,1,0,32186,WMM2,1472679,false,false,1487,image-keyboard-response,15
true,8,2,3,0,false,q,true,false,0.0-2.0-0.48-0.435-3.435,1,0,1,68,false,stim,false,0,804.2000000029802,2,1,2,32186,WMM2,1475012,false,false,1490,image-keyboard-response,16
true,8,2,3,2,true,d,false,true,0.0-2.0-0.48-0.436-3.436,1,0,1,68,false,stim,false,2,463.0,2,1,0,32186,WMM2,1476993,false,false,1493,image-keyboard-response,17
true,8,2,3,2,true,d,false,true,0.0-2.0-0.48-0.437-3.437,1,0,1,68,false,stim,false,2,583.7000000029802,2,1,0,32186,WMM2,1479099,false,false,1496,image-keyboard-response,18
true,8,1,3,1,true,z,false,true,0.0-2.0-0.48-0.438-3.438,1,0,1,90,false,stim,false,0,526.1000000014901,2,0,1,32186,WMM2,1481145,false,false,1499,image-keyboard-response,19
true,8,2,3,0,false,q,true,false,0.0-2.0-0.48-0.439-3.439,1,0,1,68,false,stim,false,0,751.8999999985099,2,1,2,32186,WMM2,1483446,false,false,1502,image-keyboard-response,20
true,8,2,3,1,false,z,true,false,0.0-2.0-0.48-0.440-3.440,1,0,1,68,false,stim,false,0,616.7999999970198,2,0,1,32186,WMM2,1485591,false,false,1505,image-keyboard-response,21
true,8,0,3,0,true,q,false,false,0.0-2.0-0.49-0.441-3.441,1,0,1,81,false,stim,false,0,665.1999999955297,2,1,2,32186,WMM2,1487780,false,true,1508,image-keyboard-response,22
true,8,0,3,1,false,z,false,false,0.0-2.0-0.49-0.442-3.442,1,0,1,81,false,stim,true,0,736.7000000029802,2,0,1,32186,WMM2,1490042,false,false,1511,image-keyboard-response,23
true,8,1,3,2,false,d,true,false,0.0-2.0-0.49-0.443-3.443,1,0,1,90,false,stim,false,2,933.3999999985099,2,1,0,32186,WMM2,1492503,false,false,1514,image-keyboard-response,24
true,8,1,3,2,false,d,true,false,0.0-2.0-0.49-0.444-3.444,1,0,1,90,false,stim,false,2,610.0,2,1,0,32186,WMM2,1494644,false,false,1517,image-keyboard-response,25
true,8,2,3,0,false,q,true,false,0.0-2.0-0.49-0.445-3.445,1,0,1,68,false,stim,false,0,858.8999999985099,2,1,2,32186,WMM2,1497027,false,false,1520,image-keyboard-response,26
true,8,0,3,1,false,z,false,false,0.0-2.0-0.49-0.446-3.446,1,0,1,81,false,stim,true,0,788.7000000029802,2,0,1,32186,WMM2,1499347,false,false,1523,image-keyboard-response,27
true,8,0,3,2,false,d,true,false,0.0-2.0-0.49-0.447-3.447,1,0,1,81,false,stim,false,2,810.6000000014901,2,1,0,32186,WMM2,1501680,false,false,1526,image-keyboard-response,28
true,8,0,3,0,true,q,false,true,0.0-2.0-0.49-0.448-3.448,1,0,1,81,false,stim,false,0,1699.1000000014901,2,1,2,32186,WMM2,1504906,false,false,1529,image-keyboard-response,29
true,8,0,3,1,false,z,false,false,0.0-2.0-0.49-0.449-3.449,1,0,1,81,false,stim,true,0,1205.5999999940395,2,0,1,32186,WMM2,1507632,false,false,1532,image-keyboard-response,30
true,8,0,3,2,false,d,true,false,0.0-2.0-0.50-0.450-3.450,1,0,1,81,false,stim,false,2,694.0,2,1,0,32186,WMM2,1509849,false,false,1535,image-keyboard-response,31
true,8,1,3,1,true,z,false,true,0.0-2.0-0.50-0.451-3.451,1,0,1,90,false,stim,false,0,655.2999999970198,2,0,1,32186,WMM2,1512031,false,false,1538,image-keyboard-response,32
true,8,1,3,0,false,q,true,false,0.0-2.0-0.50-0.452-3.452,1,0,1,90,false,stim,false,0,1398.3000000044703,2,1,2,32186,WMM2,1514957,false,false,1541,image-keyboard-response,33
true,8,1,3,0,false,q,true,false,0.0-2.0-0.50-0.453-3.453,1,0,1,90,false,stim,false,0,985.5,2,1,2,32186,WMM2,1517479,false,false,1544,image-keyboard-response,34
true,8,2,3,0,false,q,true,true,0.0-2.0-0.50-0.454-3.454,1,0,1,68,false,stim,false,0,1245.8999999985099,2,1,2,32186,WMM2,1520251,false,true,1547,image-keyboard-response,35
true,8,2,3,2,true,d,false,true,0.0-2.0-0.50-0.455-3.455,1,0,1,68,false,stim,false,2,1493.0,2,1,0,32186,WMM2,1523266,false,false,1550,image-keyboard-response,36
true,8,2,3,1,false,z,true,false,0.0-2.0-0.50-0.456-3.456,1,0,1,68,false,stim,false,0,1140.8999999985099,2,0,1,32186,WMM2,1525939,false,false,1553,image-keyboard-response,37
true,8,0,3,2,false,d,true,true,0.0-2.0-0.50-0.457-3.457,1,0,1,81,false,stim,false,2,849.0,2,1,0,32186,WMM2,1528316,false,true,1556,image-keyboard-response,38
true,8,0,3,1,false,z,false,false,0.0-2.0-0.50-0.458-3.458,1,0,1,81,false,stim,true,0,1425.0,2,0,1,32186,WMM2,1531272,false,false,1559,image-keyboard-response,39
true,8,0,3,1,false,z,false,false,0.0-2.0-0.51-0.459-3.459,1,0,1,81,false,stim,true,0,824.8999999985099,2,0,1,32186,WMM2,1533623,false,false,1562,image-keyboard-response,40
true,8,1,3,2,false,d,true,false,0.0-2.0-0.51-0.460-3.460,1,0,1,90,false,stim,false,2,652.5,2,1,0,32186,WMM2,1535810,false,false,1565,image-keyboard-response,41
true,8,1,3,0,false,q,true,false,0.0-2.0-0.51-0.461-3.461,1,0,1,90,false,stim,false,0,704.8000000044703,2,1,2,32186,WMM2,1538051,false,false,1568,image-keyboard-response,42
true,8,2,3,2,true,d,false,false,0.0-2.0-0.51-0.462-3.462,1,0,1,68,false,stim,false,2,1172.6000000014901,2,1,0,32186,WMM2,1540753,false,true,1571,image-keyboard-response,43
true,8,0,3,0,true,q,false,true,0.0-2.0-0.51-0.463-3.463,1,0,1,81,false,stim,false,0,682.0,2,1,2,32186,WMM2,1542960,false,false,1574,image-keyboard-response,44
true,8,0,3,1,false,z,false,false,0.0-2.0-0.51-0.464-3.464,1,0,1,81,false,stim,true,0,763.1000000014901,2,0,1,32186,WMM2,1545250,false,false,1577,image-keyboard-response,45
true,8,0,3,0,true,q,false,true,0.0-2.0-0.51-0.465-3.465,1,0,1,81,false,stim,false,0,1371.2000000029802,2,1,2,32186,WMM2,1548147,false,false,1580,image-keyboard-response,46
true,8,0,3,1,false,z,false,false,0.0-2.0-0.51-0.466-3.466,1,0,1,81,false,stim,true,0,1255.5,2,0,1,32186,WMM2,1550934,false,false,1583,image-keyboard-response,47
true,8,0,3,2,false,d,true,false,0.0-2.0-0.51-0.467-3.467,1,0,1,81,false,stim,false,2,1040.3999999985099,2,1,0,32186,WMM2,1553500,false,false,1586,image-keyboard-response,48
true,8,1,3,1,true,z,false,true,0.0-2.0-0.52-0.468-3.468,1,0,1,90,false,stim,false,0,1174.6000000014901,2,0,1,32186,WMM2,1556212,false,false,1589,image-keyboard-response,49
true,8,2,3,1,false,z,true,false,0.0-2.0-0.52-0.469-3.469,1,0,1,68,false,stim,false,0,957.5,2,0,1,32186,WMM2,1558703,false,false,1592,image-keyboard-response,50
true,8,1,3,2,false,d,true,false,0.0-2.0-0.52-0.470-3.470,1,0,1,90,false,stim,false,2,907.3000000044703,2,0,0,32186,WMM2,1561145,false,false,1595,image-keyboard-response,51
true,8,0,3,2,false,d,true,false,0.0-2.0-0.52-0.471-3.471,1,0,1,81,false,stim,false,2,920.0,2,0,0,32186,WMM2,1563592,false,false,1598,image-keyboard-response,52
true,8,2,3,2,true,d,false,true,0.0-2.0-0.52-0.472-3.472,1,0,1,68,false,stim,false,2,1332.2000000029802,2,0,0,32186,WMM2,1566472,false,false,1601,image-keyboard-response,53
true,8,2,3,0,false,q,true,false,0.0-2.0-0.52-0.473-3.473,1,0,1,68,false,stim,false,0,1669.5,2,0,2,32186,WMM2,1569660,false,false,1604,image-keyboard-response,54
true,8,0,3,0,true,q,false,true,0.0-2.0-0.52-0.474-3.474,1,0,1,81,false,stim,false,0,1962.3000000044703,2,0,2,32186,WMM2,1573147,false,false,1607,image-keyboard-response,55
true,8,1,3,1,true,z,false,true,0.0-2.0-0.52-0.475-3.475,1,0,1,90,false,stim,false,0,1439.5,2,1,1,32186,WMM2,1576109,false,false,1610,image-keyboard-response,56
true,8,1,3,0,false,q,true,false,0.0-2.0-0.52-0.476-3.476,1,0,1,90,false,stim,false,0,1108.0,2,0,2,32186,WMM2,1578746,false,false,1613,image-keyboard-response,57
true,8,0,3,1,false,z,false,false,0.0-2.0-0.53-0.477-3.477,1,0,1,81,false,stim,true,0,2064.5,2,1,1,32186,WMM2,1582342,false,false,1616,image-keyboard-response,58
true,8,2,3,1,false,z,true,false,0.0-2.0-0.53-0.478-3.478,1,0,1,68,false,stim,false,0,606.0,2,1,1,32186,WMM2,1584469,false,false,1619,image-keyboard-response,59
true,8,1,3,2,false,d,true,false,0.0-2.0-0.53-0.479-3.479,1,0,1,90,false,stim,false,2,638.6000000014901,2,0,0,32186,WMM2,1586625,false,false,1622,image-keyboard-response,60
true,9,0,1,2,false,d,false,false,0.0-2.0-0.53-0.480-3.480,0,1,0,81,true,stim,true,0,1122.5999999940395,2,0,2,32186,WMM2,1589261,false,false,1625,image-keyboard-response,1
true,9,0,1,0,true,q,false,true,0.0-2.0-0.53-0.481-3.481,0,1,0,81,false,stim,false,2,1056.5,2,0,0,32186,WMM2,1591848,false,false,1628,image-keyboard-response,2
true,9,0,1,1,false,z,true,false,0.0-2.0-0.53-0.482-3.482,0,1,0,81,false,stim,false,1,1222.0,2,1,1,32186,WMM2,1594585,false,false,1631,image-keyboard-response,3
true,9,0,1,2,false,d,false,false,0.0-2.0-0.53-0.483-3.483,0,1,0,81,false,stim,true,0,968.7000000029802,2,0,2,32186,WMM2,1597077,false,false,1634,image-keyboard-response,4
true,9,2,1,0,false,q,false,false,0.0-2.0-0.53-0.484-3.484,0,1,0,68,false,stim,true,2,975.3000000044703,2,0,0,32186,WMM2,1599571,false,false,1637,image-keyboard-response,5
true,9,2,1,2,true,d,false,true,0.0-2.0-0.53-0.485-3.485,0,1,0,68,false,stim,false,0,1236.2999999970198,2,0,2,32186,WMM2,1602329,false,false,1640,image-keyboard-response,6
true,9,2,1,2,true,d,false,true,0.0-2.0-0.54-0.486-3.486,0,1,0,68,false,stim,false,0,889.9000000059605,2,0,2,32186,WMM2,1604733,false,false,1643,image-keyboard-response,7
true,9,2,1,0,false,q,false,false,0.0-2.0-0.54-0.487-3.487,0,1,0,68,false,stim,true,2,919.4000000059605,2,0,0,32186,WMM2,1607170,false,false,1646,image-keyboard-response,8
true,9,2,1,2,true,d,false,true,0.0-2.0-0.54-0.488-3.488,0,1,0,68,false,stim,false,0,1342.6000000014901,2,0,2,32186,WMM2,1610034,false,false,1649,image-keyboard-response,9
true,9,1,1,0,false,q,true,false,0.0-2.0-0.54-0.489-3.489,0,1,0,90,false,stim,false,2,1596.1000000014901,2,0,0,32186,WMM2,1613153,false,false,1652,image-keyboard-response,10
true,9,0,1,1,false,z,true,false,0.0-2.0-0.54-0.490-3.490,0,1,0,81,false,stim,false,1,1311.9000000059605,2,1,1,32186,WMM2,1615984,false,false,1655,image-keyboard-response,11
true,9,0,1,1,false,z,true,false,0.0-2.0-0.54-0.491-3.491,0,1,0,81,false,stim,false,1,1014.6999999955297,2,1,1,32186,WMM2,1618516,false,false,1658,image-keyboard-response,12
true,9,1,1,0,false,q,true,false,0.0-2.0-0.54-0.492-3.492,0,1,0,90,false,stim,false,2,1209.7000000029802,2,0,0,32186,WMM2,1621246,false,false,1661,image-keyboard-response,13
true,9,1,1,1,true,z,false,true,0.0-2.0-0.54-0.493-3.493,0,1,0,90,false,stim,false,1,1186.0999999940395,2,1,1,32186,WMM2,1623958,false,false,1664,image-keyboard-response,14
true,9,2,1,2,true,d,false,true,0.0-2.0-0.54-0.494-3.494,0,1,0,68,false,stim,false,0,1920.8999999985099,2,0,2,32186,WMM2,1627394,false,false,1667,image-keyboard-response,15
true,9,0,1,1,false,z,true,false,0.0-2.0-0.55-0.495-3.495,0,1,0,81,false,stim,false,1,998.1999999955297,2,1,1,32186,WMM2,1629916,false,false,1670,image-keyboard-response,16
true,9,0,1,0,true,q,false,true,0.0-2.0-0.55-0.496-3.496,0,1,0,81,false,stim,false,2,1392.3000000044703,2,0,0,32186,WMM2,1632827,false,false,1673,image-keyboard-response,17
true,9,2,1,2,true,d,false,false,0.0-2.0-0.55-0.497-3.497,0,1,0,68,false,stim,false,0,1336.0,2,0,2,32186,WMM2,1635687,false,true,1676,image-keyboard-response,18
true,9,1,1,1,true,z,false,true,0.0-2.0-0.55-0.498-3.498,0,1,0,90,false,stim,false,1,740.3999999985099,2,1,1,32186,WMM2,1637950,false,false,1679,image-keyboard-response,19
true,9,0,1,0,true,q,false,true,0.0-2.0-0.55-0.499-3.499,0,1,0,81,false,stim,false,2,1092.7000000029802,2,0,0,32186,WMM2,1640562,false,false,1682,image-keyboard-response,20
true,9,0,1,0,true,q,false,true,0.0-2.0-0.55-0.500-3.500,0,1,0,81,false,stim,false,2,1340.2000000029802,2,0,0,32186,WMM2,1643428,false,false,1685,image-keyboard-response,21
true,9,1,1,1,true,z,false,true,0.0-2.0-0.55-0.501-3.501,0,1,0,90,false,stim,false,1,1015.7000000029802,2,1,1,32186,WMM2,1645973,false,false,1688,image-keyboard-response,22
true,9,2,1,2,true,d,false,true,0.0-2.0-0.55-0.502-3.502,0,1,0,68,false,stim,false,0,1043.7999999970198,2,1,2,32186,WMM2,1648545,false,false,1691,image-keyboard-response,23
true,9,2,1,2,true,d,false,true,0.0-2.0-0.55-0.503-3.503,0,1,0,68,false,stim,false,0,1184.3999999985099,2,1,2,32186,WMM2,1651247,false,false,1694,image-keyboard-response,24
true,9,2,1,2,true,d,false,true,0.0-2.0-0.56-0.504-3.504,0,1,0,68,false,stim,false,0,1718.5,2,1,2,32186,WMM2,1654488,false,false,1697,image-keyboard-response,25
true,9,0,1,1,false,z,true,false,0.0-2.0-0.56-0.505-3.505,0,1,0,81,false,stim,false,1,1552.3999999985099,2,0,1,32186,WMM2,1657564,false,false,1700,image-keyboard-response,26
true,9,2,1,2,true,d,false,false,0.0-2.0-0.56-0.506-3.506,0,1,0,68,false,stim,false,0,1201.0,2,1,2,32186,WMM2,1660302,false,true,1703,image-keyboard-response,27
true,9,1,1,1,true,z,false,true,0.0-2.0-0.56-0.507-3.507,0,1,0,90,false,stim,false,1,1662.6000000014901,2,0,1,32186,WMM2,1663489,false,false,1706,image-keyboard-response,28
true,9,0,1,0,true,q,false,true,0.0-2.0-0.56-0.508-3.508,0,1,0,81,false,stim,false,2,1263.8000000044703,2,1,0,32186,WMM2,1666288,false,false,1709,image-keyboard-response,29
true,9,0,1,0,true,q,false,true,0.0-2.0-0.56-0.509-3.509,0,1,0,81,false,stim,false,2,1102.5,2,1,0,32186,WMM2,1668910,false,false,1712,image-keyboard-response,30
true,9,0,1,0,true,q,false,true,0.0-2.0-0.56-0.510-3.510,0,1,0,81,false,stim,false,2,975.0999999940395,2,1,0,32186,WMM2,1671421,false,false,1715,image-keyboard-response,31
true,9,2,1,2,true,d,false,true,0.0-2.0-0.56-0.511-3.511,0,1,0,68,false,stim,false,0,1600.9000000059605,2,1,2,32186,WMM2,1674548,false,false,1718,image-keyboard-response,32
true,10,0,4,1,false,z,true,false,0.0-2.0-0.56-0.512-3.512,1,0,1,81,true,stim,false,1,2007.3999999985099,2,0,1,32186,WMM2,1678074,false,false,1721,image-keyboard-response,1
true,10,1,4,1,true,z,false,true,0.0-2.0-0.57-0.513-3.513,1,0,1,90,false,stim,false,1,1227.1000000014901,2,0,1,32186,WMM2,1680820,false,false,1724,image-keyboard-response,2
true,10,2,4,2,true,d,false,false,0.0-2.0-0.57-0.514-3.514,1,0,1,68,false,stim,false,2,732.0,2,1,2,32186,WMM2,1683077,false,true,1727,image-keyboard-response,3
true,10,1,4,1,true,z,false,true,0.0-2.0-0.57-0.515-3.515,1,0,1,90,false,stim,false,1,796.2000000029802,2,0,1,32186,WMM2,1685393,false,false,1730,image-keyboard-response,4
true,10,0,4,1,false,z,true,false,0.0-2.0-0.57-0.516-3.516,1,0,1,81,false,stim,false,1,1407.0999999940395,2,0,1,32186,WMM2,1688325,false,false,1733,image-keyboard-response,5
true,10,0,4,0,true,q,false,true,0.0-2.0-0.57-0.517-3.517,1,0,1,81,false,stim,false,0,1347.8000000044703,2,1,0,32186,WMM2,1691187,false,false,1736,image-keyboard-response,6
true,10,0,4,0,true,q,false,true,0.0-2.0-0.57-0.518-3.518,1,0,1,81,false,stim,false,0,1323.5,2,1,0,32186,WMM2,1694034,false,false,1739,image-keyboard-response,7
true,10,2,4,2,true,d,false,true,0.0-2.0-0.57-0.519-3.519,1,0,1,68,false,stim,false,2,1443.1000000014901,2,1,2,32186,WMM2,1697000,false,false,1742,image-keyboard-response,8
true,10,0,4,0,true,q,false,true,0.0-2.0-0.57-0.520-3.520,1,0,1,81,false,stim,false,0,1749.2999999970198,2,1,0,32186,WMM2,1700276,false,false,1745,image-keyboard-response,9
true,10,2,4,2,true,d,false,true,0.0-2.0-0.57-0.521-3.521,1,0,1,68,false,stim,false,2,1480.8999999985099,2,1,2,32186,WMM2,1703277,false,false,1748,image-keyboard-response,10
true,10,0,4,0,true,q,false,false,0.0-2.0-0.58-0.522-3.522,1,0,1,81,false,stim,false,0,1130.7999999970198,2,1,0,32186,WMM2,1705928,false,true,1751,image-keyboard-response,11
true,10,1,4,0,false,q,true,false,0.0-2.0-0.58-0.523-3.523,1,0,1,90,false,stim,false,0,994.8999999985099,2,1,0,32186,WMM2,1708451,false,false,1754,image-keyboard-response,12
true,10,0,4,1,false,z,true,false,0.0-2.0-0.58-0.524-3.524,1,0,1,81,false,stim,false,1,1469.2999999970198,2,0,1,32186,WMM2,1711447,false,false,1757,image-keyboard-response,13
true,10,1,4,1,true,z,false,true,0.0-2.0-0.58-0.525-3.525,1,0,1,90,false,stim,false,1,1424.2999999970198,2,0,1,32186,WMM2,1714399,false,false,1760,image-keyboard-response,14
true,10,0,4,0,true,q,false,false,0.0-2.0-0.58-0.526-3.526,1,0,1,81,false,stim,false,0,1657.8999999985099,2,1,0,32186,WMM2,1717585,false,true,1763,image-keyboard-response,15
true,10,2,4,2,true,d,false,false,0.0-2.0-0.58-0.527-3.527,1,0,1,68,false,stim,false,2,1256.3999999985099,2,1,2,32186,WMM2,1720372,false,true,1766,image-keyboard-response,16
true,10,0,4,1,false,z,true,false,0.0-2.0-0.58-0.528-3.528,1,0,1,81,false,stim,false,1,1601.7999999970198,2,0,1,32186,WMM2,1723488,false,false,1769,image-keyboard-response,17
true,10,1,4,2,false,d,true,false,0.0-2.0-0.58-0.529-3.529,1,0,1,90,false,stim,false,2,1385.8999999985099,2,1,2,32186,WMM2,1726393,false,false,1772,image-keyboard-response,18
true,10,2,4,2,true,d,false,true,0.0-2.0-0.58-0.530-3.530,1,0,1,68,false,stim,false,2,1308.5,2,1,2,32186,WMM2,1729219,false,false,1775,image-keyboard-response,19
true,10,0,4,0,true,q,false,true,0.0-2.0-0.59-0.531-3.531,1,0,1,81,false,stim,false,0,2037.8000000044703,2,1,0,32186,WMM2,1732778,false,false,1778,image-keyboard-response,20
true,10,2,4,2,true,d,false,true,0.0-2.0-0.59-0.532-3.532,1,0,1,68,false,stim,false,2,1279.8999999985099,2,1,2,32186,WMM2,1735583,false,false,1781,image-keyboard-response,21
true,10,2,4,2,true,d,false,true,0.0-2.0-0.59-0.533-3.533,1,0,1,68,false,stim,false,2,1106.1999999955297,2,1,2,32186,WMM2,1738219,false,false,1784,image-keyboard-response,22
true,10,1,4,0,false,q,true,false,0.0-2.0-0.59-0.534-3.534,1,0,1,90,false,stim,false,0,1608.7000000029802,2,1,0,32186,WMM2,1741350,false,false,1787,image-keyboard-response,23
true,10,0,4,0,true,q,false,true,0.0-2.0-0.59-0.535-3.535,1,0,1,81,false,stim,false,0,1107.2999999970198,2,1,0,32186,WMM2,1743988,false,false,1790,image-keyboard-response,24
true,10,2,4,2,true,d,false,true,0.0-2.0-0.59-0.536-3.536,1,0,1,68,false,stim,false,2,1026.8999999985099,2,1,2,32186,WMM2,1746563,false,false,1793,image-keyboard-response,25
true,10,1,4,1,true,z,false,true,0.0-2.0-0.59-0.537-3.537,1,0,1,90,false,stim,false,1,1230.7999999970198,2,0,1,32186,WMM2,1749320,false,false,1796,image-keyboard-response,26
true,10,1,4,1,true,z,false,true,0.0-2.0-0.59-0.538-3.538,1,0,1,90,false,stim,false,1,980.1999999955297,2,0,1,32186,WMM2,1751830,false,false,1799,image-keyboard-response,27
true,10,1,4,1,true,z,false,true,0.0-2.0-0.59-0.539-3.539,1,0,1,90,false,stim,false,1,1130.0,2,0,1,32186,WMM2,1754509,false,false,1802,image-keyboard-response,28
true,10,2,4,2,true,d,false,true,0.0-2.0-0.60-0.540-3.540,1,0,1,68,false,stim,false,2,1639.1000000014901,2,1,2,32186,WMM2,1757680,false,false,1805,image-keyboard-response,29
true,10,0,4,0,true,q,false,true,0.0-2.0-0.60-0.541-3.541,1,0,1,81,false,stim,false,0,1717.5,2,1,0,32186,WMM2,1760926,false,false,1808,image-keyboard-response,30
true,10,1,4,1,true,z,false,true,0.0-2.0-0.60-0.542-3.542,1,0,1,90,false,stim,false,1,1090.5999999940395,2,1,1,32186,WMM2,1763552,false,false,1811,image-keyboard-response,31
true,10,2,4,1,false,z,true,false,0.0-2.0-0.60-0.543-3.543,1,0,1,68,false,stim,false,1,1027.2999999970198,2,1,1,32186,WMM2,1766104,false,false,1814,image-keyboard-response,32
true,10,2,4,2,true,d,false,true,0.0-2.0-0.60-0.544-3.544,1,0,1,68,false,stim,false,2,1026.2999999970198,2,1,2,32186,WMM2,1768651,false,false,1817,image-keyboard-response,33
true,10,2,4,2,true,d,false,true,0.0-2.0-0.60-0.545-3.545,1,0,1,68,false,stim,false,2,1147.8999999985099,2,1,2,32186,WMM2,1771317,false,false,1820,image-keyboard-response,34
true,10,0,4,0,true,q,false,true,0.0-2.0-0.60-0.546-3.546,1,0,1,81,false,stim,false,0,1877.1000000014901,2,0,0,32186,WMM2,1774709,false,false,1823,image-keyboard-response,35
true,10,0,4,0,true,q,false,true,0.0-2.0-0.60-0.547-3.547,1,0,1,81,false,stim,false,0,1427.0,2,0,0,32186,WMM2,1777656,false,false,1826,image-keyboard-response,36
true,10,1,4,1,true,z,false,true,0.0-2.0-0.60-0.548-3.548,1,0,1,90,false,stim,false,1,1699.2999999970198,2,1,1,32186,WMM2,1780877,false,false,1829,image-keyboard-response,37
true,10,2,4,2,true,d,false,true,0.0-2.0-0.61-0.549-3.549,1,0,1,68,false,stim,false,2,1293.6000000014901,2,1,2,32186,WMM2,1783692,false,false,1832,image-keyboard-response,38
true,10,2,4,2,true,d,false,true,0.0-2.0-0.61-0.550-3.550,1,0,1,68,false,stim,false,2,1194.6000000014901,2,1,2,32186,WMM2,1786417,false,false,1835,image-keyboard-response,39
true,10,1,4,1,true,z,false,false,0.0-2.0-0.61-0.551-3.551,1,0,1,90,false,stim,false,1,1756.6999999955297,2,1,1,32186,WMM2,1789694,false,true,1838,image-keyboard-response,40
true,11,0,2,1,false,z,true,false,0.0-2.0-0.61-0.552-3.552,0,1,1,81,true,stim,false,1,1113.5,2,1,1,32186,WMM2,1792335,false,false,1841,image-keyboard-response,1
true,11,0,2,2,false,d,false,true,0.0-2.0-0.61-0.553-3.553,0,1,1,81,false,stim,true,0,1879.5,2,0,0,32186,WMM2,1795736,false,true,1844,image-keyboard-response,2
true,11,0,2,2,false,d,false,false,0.0-2.0-0.61-0.554-3.554,0,1,1,81,false,stim,true,0,1201.1999999955297,2,0,0,32186,WMM2,1798463,false,false,1847,image-keyboard-response,3
true,11,1,2,1,true,z,false,true,0.0-2.0-0.61-0.555-3.555,0,1,1,90,false,stim,false,1,1566.7000000029802,2,1,1,32186,WMM2,1801555,false,false,1850,image-keyboard-response,4
true,11,0,2,2,false,d,false,false,0.0-2.0-0.61-0.556-3.556,0,1,1,81,false,stim,true,0,1287.5,2,0,0,32186,WMM2,1804370,false,false,1853,image-keyboard-response,5
true,11,2,2,2,true,d,false,true,0.0-2.0-0.61-0.557-3.557,0,1,1,68,false,stim,false,2,744.2000000029802,2,1,2,32186,WMM2,1806637,false,false,1856,image-keyboard-response,6
true,11,1,2,2,false,d,true,false,0.0-2.0-0.62-0.558-3.558,0,1,1,90,false,stim,false,0,1260.3999999985099,2,0,0,32186,WMM2,1809423,false,false,1859,image-keyboard-response,7
true,11,0,2,1,false,z,true,false,0.0-2.0-0.62-0.559-3.559,0,1,1,81,false,stim,false,1,1456.8999999985099,2,1,1,32186,WMM2,1812410,false,false,1862,image-keyboard-response,8
true,11,2,2,1,false,z,true,false,0.0-2.0-0.62-0.560-3.560,0,1,1,68,false,stim,false,1,763.2000000029802,2,1,1,32186,WMM2,1814696,false,false,1865,image-keyboard-response,9
true,11,1,2,2,false,d,true,false,0.0-2.0-0.62-0.561-3.561,0,1,1,90,false,stim,false,0,1161.8000000044703,2,0,0,32186,WMM2,1817382,false,false,1868,image-keyboard-response,10
true,11,2,2,2,true,d,false,true,0.0-2.0-0.62-0.562-3.562,0,1,1,68,false,stim,false,2,1141.1000000014901,2,1,2,32186,WMM2,1820042,false,false,1871,image-keyboard-response,11
true,11,0,2,1,false,z,true,true,0.0-2.0-0.62-0.563-3.563,0,1,1,81,false,stim,false,1,1717.8000000044703,2,1,1,32186,WMM2,1823281,false,true,1874,image-keyboard-response,12
true,11,0,2,2,false,d,true,false,0.0-2.0-0.62-0.564-3.564,0,1,1,81,false,stim,false,2,1326.0,2,1,2,32186,WMM2,1826131,false,false,1877,image-keyboard-response,13
true,11,2,2,2,true,d,false,true,0.0-2.0-0.62-0.565-3.565,0,1,1,68,false,stim,false,0,920.5,2,0,0,32186,WMM2,1828574,false,false,1880,image-keyboard-response,14
true,11,2,2,2,true,d,false,true,0.0-2.0-0.62-0.566-3.566,0,1,1,68,false,stim,false,2,1191.0,2,1,2,32186,WMM2,1831290,false,false,1883,image-keyboard-response,15
true,11,1,2,1,true,z,false,true,0.0-2.0-0.63-0.567-3.567,0,1,1,90,false,stim,false,1,1246.6000000014901,2,1,1,32186,WMM2,1834066,false,false,1886,image-keyboard-response,16
true,11,0,2,2,false,d,false,false,0.0-2.0-0.63-0.568-3.568,0,1,1,81,false,stim,true,0,1420.1000000014901,2,0,0,32186,WMM2,1837009,false,false,1889,image-keyboard-response,17
true,11,2,2,2,true,d,false,true,0.0-2.0-0.63-0.569-3.569,0,1,1,68,false,stim,false,2,1747.7000000029802,2,1,2,32186,WMM2,1840285,false,false,1892,image-keyboard-response,18
true,11,1,2,2,false,d,true,false,0.0-2.0-0.63-0.570-3.570,0,1,1,90,false,stim,false,0,1806.5999999940395,2,0,0,32186,WMM2,1843616,false,false,1895,image-keyboard-response,19
true,11,2,2,2,true,d,false,true,0.0-2.0-0.63-0.571-3.571,0,1,1,68,false,stim,false,2,1150.7999999970198,2,1,2,32186,WMM2,1846297,false,false,1898,image-keyboard-response,20
true,11,0,2,2,false,d,false,true,0.0-2.0-0.63-0.572-3.572,0,1,1,81,false,stim,true,0,1253.1000000014901,2,0,0,32186,WMM2,1849109,false,true,1901,image-keyboard-response,21
true,11,1,2,1,true,z,false,true,0.0-2.0-0.63-0.573-3.573,0,1,1,90,false,stim,false,1,1769.8999999985099,2,1,1,32186,WMM2,1852409,false,false,1904,image-keyboard-response,22
true,11,2,2,2,true,d,false,true,0.0-2.0-0.63-0.574-3.574,0,1,1,68,false,stim,false,2,1629.3999999985099,2,1,2,32186,WMM2,1855562,false,false,1907,image-keyboard-response,23
true,11,1,2,1,true,z,false,true,0.0-2.0-0.63-0.575-3.575,0,1,1,90,false,stim,false,1,1690.5,2,1,1,32186,WMM2,1858784,false,false,1910,image-keyboard-response,24
true,11,1,2,1,true,z,false,true,0.0-2.0-0.64-0.576-3.576,0,1,1,90,false,stim,false,1,2123.2000000029802,2,1,1,32186,WMM2,1862450,false,false,1913,image-keyboard-response,25
true,11,1,2,1,true,z,false,false,0.0-2.0-0.64-0.577-3.577,0,1,1,90,false,stim,false,1,1655.8000000044703,2,1,1,32186,WMM2,1865637,false,true,1916,image-keyboard-response,26
true,11,0,2,2,false,d,false,false,0.0-2.0-0.64-0.578-3.578,0,1,1,81,false,stim,true,0,1640.3999999985099,2,0,0,32186,WMM2,1868810,false,false,1919,image-keyboard-response,27
true,11,2,2,2,true,d,false,true,0.0-2.0-0.64-0.579-3.579,0,1,1,68,false,stim,false,2,1111.0,2,1,2,32186,WMM2,1871445,false,false,1922,image-keyboard-response,28
true,11,2,2,2,true,d,false,true,0.0-2.0-0.64-0.580-3.580,0,1,1,68,false,stim,false,2,2214.2999999970198,2,1,2,32186,WMM2,1875187,false,false,1925,image-keyboard-response,29
true,11,1,2,2,false,d,true,false,0.0-2.0-0.64-0.581-3.581,0,1,1,90,false,stim,false,0,1512.3999999985099,2,0,0,32186,WMM2,1878228,false,false,1928,image-keyboard-response,30
true,11,0,2,2,false,d,false,false,0.0-2.0-0.64-0.582-3.582,0,1,1,81,false,stim,true,0,908.8999999985099,2,0,0,32186,WMM2,1880666,false,false,1931,image-keyboard-response,31
true,11,2,2,2,true,d,false,true,0.0-2.0-0.64-0.583-3.583,0,1,1,68,false,stim,false,2,1213.7999999970198,2,1,2,32186,WMM2,1883407,false,false,1934,image-keyboard-response,32
true,11,1,2,1,true,z,false,true,0.0-2.0-0.64-0.584-3.584,0,1,1,90,false,stim,false,1,1256.8999999985099,2,1,1,32186,WMM2,1886197,false,false,1937,image-keyboard-response,33
true,11,0,2,2,false,d,false,false,0.0-2.0-0.65-0.585-3.585,0,1,1,81,false,stim,true,0,1205.6999999955297,2,0,0,32186,WMM2,1888934,false,false,1940,image-keyboard-response,34
true,11,2,2,2,true,d,false,true,0.0-2.0-0.65-0.586-3.586,0,1,1,68,false,stim,false,2,1085.3999999985099,2,1,2,32186,WMM2,1891567,false,false,1943,image-keyboard-response,35
true,11,2,2,2,true,d,false,true,0.0-2.0-0.65-0.587-3.587,0,1,1,68,false,stim,false,2,1376.8000000044703,2,1,2,32186,WMM2,1894482,false,false,1946,image-keyboard-response,36
true,11,1,2,2,false,d,true,false,0.0-2.0-0.65-0.588-3.588,0,1,1,90,false,stim,false,0,2200.10000000149,2,0,0,32186,WMM2,1898213,false,false,1949,image-keyboard-response,37
true,11,1,2,1,true,z,false,true,0.0-2.0-0.65-0.589-3.589,0,1,1,90,false,stim,false,1,1327.7000000029802,2,1,1,32186,WMM2,1901070,false,false,1952,image-keyboard-response,38
true,11,1,2,1,true,z,false,true,0.0-2.0-0.65-0.590-3.590,0,1,1,90,false,stim,false,1,1671.0,2,1,1,32186,WMM2,1904272,false,false,1955,image-keyboard-response,39
true,11,0,2,2,false,d,false,false,0.0-2.0-0.65-0.591-3.591,0,1,1,81,false,stim,true,0,1216.2999999970198,2,0,0,32186,WMM2,1907024,false,false,1958,image-keyboard-response,40
true,11,1,2,1,true,z,false,true,0.0-2.0-0.65-0.592-3.592,0,1,1,90,false,stim,false,1,1701.8999999985099,2,1,1,32186,WMM2,1910259,false,false,1961,image-keyboard-response,41
