answered,blockNum,choice,condition,corResp,correct,correct_response,explo,fb,internal_node_id,isStable_1,isStable_2,isStable_3,key_press,newBlock,part,persev,persevResp,rt,sessNum,stableAS,stimulus,subject,task,time_elapsed,training,trap,trial_index,trial_type,trialsInBlock
true,1,2,0,0,false,q,true,false,0.0-2.0-0.0-0.0-3.0,0,0,0,68,true,stim,false,-1,2644.0,3,0,0,32186,WMM2,221141,false,false,181,image-keyboard-response,1
true,1,2,0,2,true,d,false,true,0.0-2.0-0.0-0.1-3.1,0,0,0,68,false,stim,false,-1,1249.0,3,0,2,32186,WMM2,223896,false,false,184,image-keyboard-response,2
true,1,2,0,0,false,q,true,false,0.0-2.0-0.0-0.2-3.2,0,0,0,68,false,stim,false,-1,1458.0,3,0,0,32186,WMM2,226859,false,false,187,image-keyboard-response,3
true,1,0,0,2,false,d,true,false,0.0-2.0-0.0-0.3-3.3,0,0,0,81,false,stim,false,-1,1637.999999999971,3,0,1,32186,WMM2,230004,false,false,190,image-keyboard-response,4
true,1,2,0,2,true,d,false,true,0.0-2.0-0.0-0.4-3.4,0,0,0,68,false,stim,false,-1,880.0,3,0,2,32186,WMM2,232390,false,false,193,image-keyboard-response,5
true,1,1,0,0,false,q,true,false,0.0-2.0-0.0-0.5-3.5,0,0,0,90,false,stim,false,-1,1296.0,3,0,0,32186,WMM2,235193,false,false,196,image-keyboard-response,6
true,1,0,0,2,false,d,true,false,0.0-2.0-0.0-0.6-3.6,0,0,0,81,false,stim,false,-1,1505.0,3,0,1,32186,WMM2,238204,false,false,199,image-keyboard-response,7
true,1,2,0,2,true,d,false,true,0.0-2.0-0.0-0.7-3.7,0,0,0,68,false,stim,false,-1,810.0,3,0,2,32186,WMM2,240522,false,false,202,image-keyboard-response,8
true,1,2,0,2,true,d,false,true,0.0-2.0-0.0-0.8-3.8,0,0,0,68,false,stim,false,-1,1006.0,3,0,1,32186,WMM2,243034,false,false,205,image-keyboard-response,9
true,1,2,0,0,false,q,true,false,0.0-2.0-0.1-0.9-3.9,0,0,0,68,false,stim,false,-1,928.0,3,0,0,32186,WMM2,245468,false,false,208,image-keyboard-response,10
true,1,2,0,2,true,d,false,true,0.0-2.0-0.1-0.10-3.10,0,0,0,68,false,stim,false,-1,1067.0,3,0,2,32186,WMM2,248041,false,false,211,image-keyboard-response,11
true,1,2,0,0,false,q,true,false,0.0-2.0-0.1-0.11-3.11,0,0,0,68,false,stim,false,-1,1241.0,3,0,0,32186,WMM2,250788,false,false,214,image-keyboard-response,12
true,1,1,0,0,false,q,true,false,0.0-2.0-0.1-0.12-3.12,0,0,0,90,false,stim,false,-1,1135.0,3,0,0,32186,WMM2,253429,false,false,217,image-keyboard-response,13
true,1,2,0,2,true,d,false,true,0.0-2.0-0.1-0.13-3.13,0,0,0,68,false,stim,false,-1,971.9999999999709,3,0,1,32186,WMM2,255906,false,false,220,image-keyboard-response,14
true,1,2,0,2,true,d,false,true,0.0-2.0-0.1-0.14-3.14,0,0,0,68,false,stim,false,-1,924.0000000000582,3,0,1,32186,WMM2,258337,false,false,223,image-keyboard-response,15
true,1,2,0,2,true,d,false,true,0.0-2.0-0.1-0.15-3.15,0,0,0,68,false,stim,false,-1,1461.0,3,0,2,32186,WMM2,261303,false,false,226,image-keyboard-response,16
true,1,2,0,2,true,d,false,true,0.0-2.0-0.1-0.16-3.16,0,0,0,68,false,stim,false,-1,1519.9999999999418,3,0,1,32186,WMM2,264329,false,false,229,image-keyboard-response,17
true,1,2,0,2,true,d,false,true,0.0-2.0-0.1-0.17-3.17,0,0,0,68,false,stim,false,-1,1046.0,3,0,2,32186,WMM2,266882,false,false,232,image-keyboard-response,18
true,1,2,0,2,true,d,false,true,0.0-2.0-0.2-0.18-3.18,0,0,0,68,false,stim,false,-1,1343.0,3,0,2,32186,WMM2,269731,false,false,235,image-keyboard-response,19
true,1,2,0,2,true,d,false,true,0.0-2.0-0.2-0.19-3.19,0,0,0,68,false,stim,false,-1,1165.0,3,0,2,32186,WMM2,272401,false,false,238,image-keyboard-response,20
true,1,2,0,0,false,q,true,false,0.0-2.0-0.2-0.20-3.20,0,0,0,68,false,stim,false,-1,1069.0,3,0,0,32186,WMM2,274977,false,false,241,image-keyboard-response,21
true,1,2,0,2,true,d,false,true,0.0-2.0-0.2-0.21-3.21,0,0,0,68,false,stim,false,-1,1179.0,3,0,2,32186,WMM2,277661,false,false,244,image-keyboard-response,22
true,1,2,0,2,true,d,false,true,0.0-2.0-0.2-0.22-3.22,0,0,0,68,false,stim,false,-1,1138.0,3,0,1,32186,WMM2,280306,false,false,247,image-keyboard-response,23
true,1,2,0,2,true,d,false,true,0.0-2.0-0.2-0.23-3.23,0,0,0,68,false,stim,false,-1,1042.0,3,0,1,32186,WMM2,282855,false,false,250,image-keyboard-response,24
true,1,0,0,0,true,q,false,true,0.0-2.0-0.2-0.24-3.24,0,0,0,81,false,stim,false,-1,1351.0,3,0,0,32186,WMM2,285713,false,false,253,image-keyboard-response,25
true,1,2,0,2,true,d,false,true,0.0-2.0-0.2-0.25-3.25,0,0,0,68,false,stim,false,-1,795.0,3,0,1,32186,WMM2,288014,false,false,256,image-keyboard-response,26
true,1,0,0,0,true,q,false,true,0.0-2.0-0.2-0.26-3.26,0,0,0,81,false,stim,false,-1,1408.0,3,0,0,32186,WMM2,290929,false,false,259,image-keyboard-response,27
true,1,0,0,0,true,q,false,true,0.0-2.0-0.3-0.27-3.27,0,0,0,81,false,stim,false,-1,1373.0,3,1,0,32186,WMM2,293809,false,false,262,image-keyboard-response,28
true,1,2,0,2,true,d,false,true,0.0-2.0-0.3-0.28-3.28,0,0,0,68,false,stim,false,-1,1152.0,3,0,1,32186,WMM2,296466,false,false,265,image-keyboard-response,29
true,1,2,0,2,true,d,false,true,0.0-2.0-0.3-0.29-3.29,0,0,0,68,false,stim,false,-1,997.0,3,0,1,32186,WMM2,298970,false,false,268,image-keyboard-response,30
true,1,2,0,2,true,d,false,true,0.0-2.0-0.3-0.30-3.30,0,0,0,68,false,stim,false,-1,1286.9999999999418,3,1,2,32186,WMM2,301762,false,false,271,image-keyboard-response,31
true,1,0,0,0,true,q,false,false,0.0-2.0-0.3-0.31-3.31,0,0,0,81,false,stim,false,-1,1247.0,3,1,0,32186,WMM2,304515,false,true,274,image-keyboard-response,32
true,1,2,0,2,true,d,false,true,0.0-2.0-0.3-0.32-3.32,0,0,0,68,false,stim,false,-1,684.0,3,1,2,32186,WMM2,306705,false,false,277,image-keyboard-response,33
true,1,2,0,0,false,q,true,true,0.0-2.0-0.3-0.33-3.33,0,0,0,68,false,stim,false,-1,1146.0000000000582,3,1,0,32186,WMM2,309358,false,true,280,image-keyboard-response,34
true,1,2,0,2,true,d,false,false,0.0-2.0-0.3-0.34-3.34,0,0,0,68,false,stim,false,-1,1183.9999999999418,3,0,1,32186,WMM2,312047,false,true,283,image-keyboard-response,35
true,1,2,0,2,true,d,false,false,0.0-2.0-0.3-0.35-3.35,0,0,0,68,false,stim,false,-1,1173.0,3,1,2,32186,WMM2,314723,false,true,286,image-keyboard-response,36
true,1,2,0,2,true,d,false,true,0.0-2.0-0.4-0.36-3.36,0,0,0,68,false,stim,false,-1,1639.0,3,1,2,32186,WMM2,317865,false,false,289,image-keyboard-response,37
true,2,2,3,2,true,d,false,false,0.0-2.0-0.4-0.37-3.37,1,0,1,68,true,stim,false,2,1611.0,3,1,2,32186,WMM2,320979,false,true,292,image-keyboard-response,1
true,2,0,3,0,true,q,false,false,0.0-2.0-0.4-0.38-3.38,1,0,1,81,false,stim,false,0,1167.9999999999418,3,1,0,32186,WMM2,323650,false,true,295,image-keyboard-response,2
true,2,0,3,0,true,q,false,false,0.0-2.0-0.4-0.39-3.39,1,0,1,81,false,stim,false,0,1745.0,3,1,0,32186,WMM2,326899,false,true,298,image-keyboard-response,3
true,2,1,3,0,false,q,true,false,0.0-2.0-0.4-0.40-3.40,1,0,1,90,false,stim,false,2,1204.0000000000582,3,0,1,32186,WMM2,329608,false,false,301,image-keyboard-response,4
true,2,2,3,0,false,q,true,true,0.0-2.0-0.4-0.41-3.41,1,0,1,68,false,stim,false,0,1358.0,3,1,0,32186,WMM2,332469,false,true,304,image-keyboard-response,5
true,2,2,3,2,true,d,false,false,0.0-2.0-0.4-0.42-3.42,1,0,1,68,false,stim,false,2,954.0,3,1,2,32186,WMM2,334928,false,true,307,image-keyboard-response,6
true,2,2,3,0,false,q,false,false,0.0-2.0-0.4-0.43-3.43,1,0,1,68,false,stim,true,2,1096.9999999999418,3,0,1,32186,WMM2,337531,false,false,310,image-keyboard-response,7
true,2,1,3,0,false,q,true,false,0.0-2.0-0.4-0.44-3.44,1,0,1,90,false,stim,false,2,1446.0000000000582,3,0,1,32186,WMM2,340482,false,false,313,image-keyboard-response,8
true,2,0,3,0,true,q,false,true,0.0-2.0-0.5-0.45-3.45,1,0,1,81,false,stim,false,0,1376.0,3,1,0,32186,WMM2,343364,false,false,316,image-keyboard-response,9
true,2,1,3,2,false,d,true,false,0.0-2.0-0.5-0.46-3.46,1,0,1,90,false,stim,false,2,1722.9999999999418,3,1,2,32186,WMM2,346593,false,false,319,image-keyboard-response,10
true,2,0,3,2,false,d,true,false,0.0-2.0-0.5-0.47-3.47,1,0,1,81,false,stim,false,2,660.0,3,1,2,32186,WMM2,348759,false,false,322,image-keyboard-response,11
true,2,0,3,0,true,q,false,true,0.0-2.0-0.5-0.48-3.48,1,0,1,81,false,stim,false,2,862.0,3,0,1,32186,WMM2,351125,false,false,325,image-keyboard-response,12
true,2,0,3,2,false,d,true,true,0.0-2.0-0.5-0.49-3.49,1,0,1,81,false,stim,false,2,909.0,3,1,2,32186,WMM2,353540,false,true,328,image-keyboard-response,13
true,2,0,3,0,true,q,false,true,0.0-2.0-0.5-0.50-3.50,1,0,1,81,false,stim,false,0,1227.0,3,1,0,32186,WMM2,356272,false,false,331,image-keyboard-response,14
true,2,0,3,0,true,q,false,true,0.0-2.0-0.5-0.51-3.51,1,0,1,81,false,stim,false,2,923.0,3,0,1,32186,WMM2,358702,false,false,334,image-keyboard-response,15
true,2,0,3,0,true,q,false,true,0.0-2.0-0.5-0.52-3.52,1,0,1,81,false,stim,false,0,1019.0,3,1,0,32186,WMM2,361227,false,false,337,image-keyboard-response,16
true,2,0,3,0,true,q,false,true,0.0-2.0-0.5-0.53-3.53,1,0,1,81,false,stim,false,2,1460.9999999999418,3,0,1,32186,WMM2,364194,false,false,340,image-keyboard-response,17
true,2,0,3,0,true,q,false,true,0.0-2.0-0.6-0.54-3.54,1,0,1,81,false,stim,false,2,1052.0,3,0,1,32186,WMM2,366752,false,false,343,image-keyboard-response,18
true,2,0,3,0,true,q,false,true,0.0-2.0-0.6-0.55-3.55,1,0,1,81,false,stim,false,2,1137.9999999999418,3,0,1,32186,WMM2,369395,false,false,346,image-keyboard-response,19
true,2,0,3,0,true,q,false,true,0.0-2.0-0.6-0.56-3.56,1,0,1,81,false,stim,false,0,1452.0,3,1,0,32186,WMM2,372353,false,false,349,image-keyboard-response,20
true,2,0,3,0,true,q,false,true,0.0-2.0-0.6-0.57-3.57,1,0,1,81,false,stim,false,2,1792.0,3,0,1,32186,WMM2,375650,false,false,352,image-keyboard-response,21
true,2,0,3,2,false,d,true,false,0.0-2.0-0.6-0.58-3.58,1,0,1,81,false,stim,false,2,1523.0,3,1,2,32186,WMM2,378679,false,false,355,image-keyboard-response,22
true,2,0,3,2,false,d,true,false,0.0-2.0-0.6-0.59-3.59,1,0,1,81,false,stim,false,2,1127.0,3,1,2,32186,WMM2,381312,false,false,358,image-keyboard-response,23
true,2,0,3,0,true,q,false,true,0.0-2.0-0.6-0.60-3.60,1,0,1,81,false,stim,false,0,1223.0,3,1,0,32186,WMM2,384041,false,false,361,image-keyboard-response,24
true,2,0,3,2,false,d,true,false,0.0-2.0-0.6-0.61-3.61,1,0,1,81,false,stim,false,2,1681.9999999999418,3,1,2,32186,WMM2,387229,false,false,364,image-keyboard-response,25
true,2,0,3,0,true,q,false,true,0.0-2.0-0.6-0.62-3.62,1,0,1,81,false,stim,false,0,1748.0,3,1,0,32186,WMM2,390484,false,false,367,image-keyboard-response,26
true,2,0,3,0,true,q,false,true,0.0-2.0-0.7-0.63-3.63,1,0,1,81,false,stim,false,2,743.0000000000582,3,0,1,32186,WMM2,392733,false,false,370,image-keyboard-response,27
true,2,0,3,0,true,q,false,false,0.0-2.0-0.7-0.64-3.64,1,0,1,81,false,stim,false,0,1252.0,3,1,0,32186,WMM2,395492,false,true,373,image-keyboard-response,28
true,2,2,3,0,false,q,true,true,0.0-2.0-0.7-0.65-3.65,1,0,1,68,false,stim,false,0,1369.0,3,1,0,32186,WMM2,398367,false,true,376,image-keyboard-response,29
true,2,0,3,2,false,d,true,false,0.0-2.0-0.7-0.66-3.66,1,0,1,81,false,stim,false,2,950.0,3,1,2,32186,WMM2,400823,false,false,379,image-keyboard-response,30
true,2,2,3,0,false,q,true,false,0.0-2.0-0.7-0.67-3.67,1,0,1,68,false,stim,false,0,1182.0000000000582,3,1,0,32186,WMM2,403512,false,false,382,image-keyboard-response,31
true,2,0,3,2,false,d,true,false,0.0-2.0-0.7-0.68-3.68,1,0,1,81,false,stim,false,2,950.0,3,1,2,32186,WMM2,405967,false,false,385,image-keyboard-response,32
true,2,0,3,0,true,q,false,true,0.0-2.0-0.7-0.69-3.69,1,0,1,81,false,stim,false,2,1615.0,3,0,1,32186,WMM2,409089,false,false,388,image-keyboard-response,33
true,2,0,3,0,true,q,false,true,0.0-2.0-0.7-0.70-3.70,1,0,1,81,false,stim,false,2,906.0,3,0,1,32186,WMM2,411501,false,false,391,image-keyboard-response,34
true,2,2,3,2,true,d,false,true,0.0-2.0-0.7-0.71-3.71,1,0,1,68,false,stim,false,2,1541.0,3,1,2,32186,WMM2,414547,false,false,394,image-keyboard-response,35
true,2,0,3,0,true,q,false,true,0.0-2.0-0.8-0.72-3.72,1,0,1,81,false,stim,false,0,1020.0,3,1,0,32186,WMM2,417073,false,false,397,image-keyboard-response,36
true,2,0,3,0,true,q,false,true,0.0-2.0-0.8-0.73-3.73,1,0,1,81,false,stim,false,2,1726.0,3,0,1,32186,WMM2,420306,false,false,400,image-keyboard-response,37
true,2,0,3,0,true,q,false,true,0.0-2.0-0.8-0.74-3.74,1,0,1,81,false,stim,false,2,1131.0,3,0,1,32186,WMM2,422944,false,false,403,image-keyboard-response,38
true,2,0,3,0,true,q,false,true,0.0-2.0-0.8-0.75-3.75,1,0,1,81,false,stim,false,0,1375.0,3,1,0,32186,WMM2,425825,false,false,406,image-keyboard-response,39
true,2,2,3,2,true,d,false,true,0.0-2.0-0.8-0.76-3.76,1,0,1,68,false,stim,false,2,1351.0,3,1,2,32186,WMM2,428683,false,false,409,image-keyboard-response,40
true,2,0,3,0,true,q,false,true,0.0-2.0-0.8-0.77-3.77,1,0,1,81,false,stim,false,2,862.0,3,1,1,32186,WMM2,431052,false,false,412,image-keyboard-response,41
true,2,2,3,2,true,d,false,true,0.0-2.0-0.8-0.78-3.78,1,0,1,68,false,stim,false,2,1474.0,3,1,2,32186,WMM2,434032,false,false,415,image-keyboard-response,42
true,2,0,3,0,true,q,false,true,0.0-2.0-0.8-0.79-3.79,1,0,1,81,false,stim,false,0,919.0,3,0,0,32186,WMM2,436457,false,false,418,image-keyboard-response,43
true,2,2,3,2,true,d,false,true,0.0-2.0-0.8-0.80-3.80,1,0,1,68,false,stim,false,2,1223.0,3,1,2,32186,WMM2,439187,false,false,421,image-keyboard-response,44
true,2,0,3,0,true,q,false,true,0.0-2.0-0.9-0.81-3.81,1,0,1,81,false,stim,false,2,1162.0,3,1,1,32186,WMM2,441856,false,false,424,image-keyboard-response,45
true,2,2,3,2,true,d,false,true,0.0-2.0-0.9-0.82-3.82,1,0,1,68,false,stim,false,2,782.0000000000582,3,1,2,32186,WMM2,444144,false,false,427,image-keyboard-response,46
true,2,0,3,0,true,q,false,false,0.0-2.0-0.9-0.83-3.83,1,0,1,81,false,stim,false,2,915.0,3,1,1,32186,WMM2,446565,false,true,430,image-keyboard-response,47
true,2,2,3,0,false,q,false,false,0.0-2.0-0.9-0.84-3.84,1,0,1,68,false,stim,true,2,894.0,3,1,1,32186,WMM2,448963,false,false,433,image-keyboard-response,48
true,2,0,3,0,true,q,false,true,0.0-2.0-0.9-0.85-3.85,1,0,1,81,false,stim,false,0,926.0,3,0,0,32186,WMM2,451394,false,false,436,image-keyboard-response,49
true,2,2,3,2,true,d,false,false,0.0-2.0-0.9-0.86-3.86,1,0,1,68,false,stim,false,2,2051.0,3,1,2,32186,WMM2,454952,false,true,439,image-keyboard-response,50
true,3,0,4,0,true,q,false,true,0.0-2.0-0.9-0.87-3.87,0,1,1,81,true,stim,false,0,1161.0,3,0,0,32186,WMM2,457618,false,false,442,image-keyboard-response,1
true,3,0,4,2,false,d,true,true,0.0-2.0-0.9-0.88-3.88,0,1,1,81,false,stim,false,2,1108.9999999999418,3,1,2,32186,WMM2,460233,false,true,445,image-keyboard-response,2
true,3,0,4,0,true,q,false,false,0.0-2.0-0.9-0.89-3.89,0,1,1,81,false,stim,false,0,1424.0,3,0,0,32186,WMM2,463163,false,true,448,image-keyboard-response,3
true,3,0,4,2,false,d,true,true,0.0-2.0-0.10-0.90-3.90,0,1,1,81,false,stim,false,2,844.0,3,1,2,32186,WMM2,465513,false,true,451,image-keyboard-response,4
true,3,0,4,0,true,q,false,true,0.0-2.0-0.10-0.91-3.91,0,1,1,81,false,stim,false,0,1253.0,3,1,1,32186,WMM2,468273,false,false,454,image-keyboard-response,5
true,3,0,4,2,false,d,true,false,0.0-2.0-0.10-0.92-3.92,0,1,1,81,false,stim,false,2,1040.0,3,1,2,32186,WMM2,470820,false,false,457,image-keyboard-response,6
true,3,2,4,2,true,d,false,true,0.0-2.0-0.10-0.93-3.93,0,1,1,68,false,stim,false,2,2015.0,3,1,2,32186,WMM2,474341,false,false,460,image-keyboard-response,7
true,3,0,4,0,true,q,false,true,0.0-2.0-0.10-0.94-3.94,0,1,1,81,false,stim,false,0,671.0000000000582,3,0,0,32186,WMM2,476518,false,false,463,image-keyboard-response,8
true,3,0,4,0,true,q,false,true,0.0-2.0-0.10-0.95-3.95,0,1,1,81,false,stim,false,0,1079.0,3,1,1,32186,WMM2,479103,false,false,466,image-keyboard-response,9
true,3,0,4,0,true,q,false,false,0.0-2.0-0.10-0.96-3.96,0,1,1,81,false,stim,false,0,1379.0,3,1,1,32186,WMM2,481988,false,true,469,image-keyboard-response,10
true,3,0,4,0,true,q,false,true,0.0-2.0-0.10-0.97-3.97,0,1,1,81,false,stim,false,0,1060.9999999999418,3,0,0,32186,WMM2,484555,false,false,472,image-keyboard-response,11
true,3,0,4,0,true,q,false,true,0.0-2.0-0.10-0.98-3.98,0,1,1,81,false,stim,false,0,1039.0000000000582,3,0,0,32186,WMM2,487100,false,false,475,image-keyboard-response,12
true,3,0,4,0,true,q,false,true,0.0-2.0-0.11-0.99-3.99,0,1,1,81,false,stim,false,0,963.0,3,1,1,32186,WMM2,489569,false,false,478,image-keyboard-response,13
true,3,0,4,0,true,q,false,true,0.0-2.0-0.11-0.100-3.100,0,1,1,81,false,stim,false,0,832.0,3,1,1,32186,WMM2,491908,false,false,481,image-keyboard-response,14
true,3,0,4,0,true,q,false,true,0.0-2.0-0.11-0.101-3.101,0,1,1,81,false,stim,false,0,1384.0000000000582,3,1,1,32186,WMM2,494798,false,false,484,image-keyboard-response,15
true,3,2,4,2,true,d,false,true,0.0-2.0-0.11-0.102-3.102,0,1,1,68,false,stim,false,2,1440.9999999999418,3,1,2,32186,WMM2,497746,false,false,487,image-keyboard-response,16
true,3,0,4,0,true,q,false,true,0.0-2.0-0.11-0.103-3.103,0,1,1,81,false,stim,false,0,630.0000000000582,3,0,0,32186,WMM2,499882,false,false,490,image-keyboard-response,17
true,3,0,4,0,true,q,false,true,0.0-2.0-0.11-0.104-3.104,0,1,1,81,false,stim,false,0,1174.0,3,0,0,32186,WMM2,502562,false,false,493,image-keyboard-response,18
true,3,2,4,2,true,d,false,true,0.0-2.0-0.11-0.105-3.105,0,1,1,68,false,stim,false,2,1577.0,3,1,2,32186,WMM2,505646,false,false,496,image-keyboard-response,19
true,3,2,4,2,true,d,false,true,0.0-2.0-0.11-0.106-3.106,0,1,1,68,false,stim,false,2,1675.0,3,1,2,32186,WMM2,508827,false,false,499,image-keyboard-response,20
true,3,0,4,0,true,q,false,true,0.0-2.0-0.11-0.107-3.107,0,1,1,81,false,stim,false,0,1167.0,3,1,0,32186,WMM2,511502,false,false,502,image-keyboard-response,21
true,3,0,4,0,true,q,false,true,0.0-2.0-0.12-0.108-3.108,0,1,1,81,false,stim,false,0,967.0,3,1,0,32186,WMM2,513975,false,false,505,image-keyboard-response,22
true,3,0,4,0,true,q,false,true,0.0-2.0-0.12-0.109-3.109,0,1,1,81,false,stim,false,0,1178.0,3,0,1,32186,WMM2,516658,false,false,508,image-keyboard-response,23
true,3,0,4,0,true,q,false,true,0.0-2.0-0.12-0.110-3.110,0,1,1,81,false,stim,false,0,1362.0000000000582,3,1,0,32186,WMM2,519524,false,false,511,image-keyboard-response,24
true,3,0,4,0,true,q,false,true,0.0-2.0-0.12-0.111-3.111,0,1,1,81,false,stim,false,0,1416.9999999999418,3,0,1,32186,WMM2,522446,false,false,514,image-keyboard-response,25
true,3,2,4,2,true,d,false,true,0.0-2.0-0.12-0.112-3.112,0,1,1,68,false,stim,false,2,2064.9999999998836,3,0,2,32186,WMM2,526018,false,false,517,image-keyboard-response,26
true,3,0,4,0,true,q,false,true,0.0-2.0-0.12-0.113-3.113,0,1,1,81,false,stim,false,0,746.9999999998836,3,1,0,32186,WMM2,528271,false,false,520,image-keyboard-response,27
true,3,0,4,0,true,q,false,true,0.0-2.0-0.12-0.114-3.114,0,1,1,81,false,stim,false,0,998.0,3,0,1,32186,WMM2,530776,false,false,523,image-keyboard-response,28
true,3,2,4,2,true,d,false,true,0.0-2.0-0.12-0.115-3.115,0,1,1,68,false,stim,false,2,1415.0,3,0,2,32186,WMM2,533696,false,false,526,image-keyboard-response,29
true,3,2,4,2,true,d,false,true,0.0-2.0-0.12-0.116-3.116,0,1,1,68,false,stim,false,2,1462.9999999998836,3,0,2,32186,WMM2,536666,false,false,529,image-keyboard-response,30
true,4,2,1,0,false,q,false,false,0.0-2.0-0.13-0.117-3.117,1,0,0,68,true,stim,true,2,1281.0,3,0,2,32186,WMM2,539454,false,false,532,image-keyboard-response,1
true,4,0,1,0,true,q,false,false,0.0-2.0-0.13-0.118-3.118,1,0,0,81,false,stim,false,0,1079.0,3,1,0,32186,WMM2,542039,false,true,535,image-keyboard-response,2
true,4,2,1,0,false,q,false,false,0.0-2.0-0.13-0.119-3.119,1,0,0,68,false,stim,true,2,1051.0,3,0,2,32186,WMM2,544596,false,false,538,image-keyboard-response,3
true,4,0,1,2,false,d,false,false,0.0-2.0-0.13-0.120-3.120,1,0,0,81,false,stim,true,0,1715.9999999998836,3,0,1,32186,WMM2,547818,false,false,541,image-keyboard-response,4
true,4,1,1,0,false,q,true,false,0.0-2.0-0.13-0.121-3.121,1,0,0,90,false,stim,false,0,891.9999999998836,3,1,0,32186,WMM2,550214,false,false,544,image-keyboard-response,5
true,4,0,1,0,true,q,false,false,0.0-2.0-0.13-0.122-3.122,1,0,0,81,false,stim,false,0,873.0,3,1,0,32186,WMM2,552593,false,true,547,image-keyboard-response,6
true,4,2,1,2,true,d,false,true,0.0-2.0-0.13-0.123-3.123,1,0,0,68,false,stim,false,0,1072.0,3,0,1,32186,WMM2,555172,false,false,550,image-keyboard-response,7
true,4,2,1,0,false,q,false,true,0.0-2.0-0.13-0.124-3.124,1,0,0,68,false,stim,true,2,1001.0000000001164,3,0,2,32186,WMM2,557678,false,true,553,image-keyboard-response,8
true,4,2,1,2,true,d,false,true,0.0-2.0-0.13-0.125-3.125,1,0,0,68,false,stim,false,0,1321.0,3,0,1,32186,WMM2,560504,false,false,556,image-keyboard-response,9
true,4,2,1,2,true,d,false,true,0.0-2.0-0.14-0.126-3.126,1,0,0,68,false,stim,false,0,1050.0,3,0,1,32186,WMM2,563061,false,false,559,image-keyboard-response,10
true,4,2,1,0,false,q,true,false,0.0-2.0-0.14-0.127-3.127,1,0,0,68,false,stim,false,0,1029.0000000001164,3,1,0,32186,WMM2,565596,false,false,562,image-keyboard-response,11
true,4,2,1,0,false,q,false,false,0.0-2.0-0.14-0.128-3.128,1,0,0,68,false,stim,true,2,1350.0000000001164,3,0,2,32186,WMM2,568453,false,false,565,image-keyboard-response,12
true,4,2,1,0,false,q,true,false,0.0-2.0-0.14-0.129-3.129,1,0,0,68,false,stim,false,0,1358.0,3,1,0,32186,WMM2,571317,false,false,568,image-keyboard-response,13
true,4,0,1,0,true,q,false,true,0.0-2.0-0.14-0.130-3.130,1,0,0,81,false,stim,false,0,1418.9999999998836,3,1,0,32186,WMM2,574242,false,false,571,image-keyboard-response,14
true,4,2,1,0,false,q,false,true,0.0-2.0-0.14-0.131-3.131,1,0,0,68,false,stim,true,2,1334.0,3,0,2,32186,WMM2,577083,false,true,574,image-keyboard-response,15
true,4,2,1,0,false,q,false,false,0.0-2.0-0.14-0.132-3.132,1,0,0,68,false,stim,true,2,1365.0,3,0,2,32186,WMM2,579955,false,false,577,image-keyboard-response,16
true,4,0,1,2,false,d,false,false,0.0-2.0-0.14-0.133-3.133,1,0,0,81,false,stim,true,0,1156.0,3,0,1,32186,WMM2,582618,false,false,580,image-keyboard-response,17
true,4,0,1,2,false,d,false,false,0.0-2.0-0.14-0.134-3.134,1,0,0,81,false,stim,true,0,1795.0,3,0,1,32186,WMM2,585918,false,false,583,image-keyboard-response,18
true,4,2,1,0,false,q,false,false,0.0-2.0-0.15-0.135-3.135,1,0,0,68,false,stim,true,2,929.0,3,0,2,32186,WMM2,588353,false,false,586,image-keyboard-response,19
true,4,0,1,2,false,d,false,false,0.0-2.0-0.15-0.136-3.136,1,0,0,81,false,stim,true,0,1497.0,3,0,1,32186,WMM2,591355,false,false,589,image-keyboard-response,20
true,4,1,1,0,false,q,true,false,0.0-2.0-0.15-0.137-3.137,1,0,0,90,false,stim,false,0,1339.0,3,1,0,32186,WMM2,594201,false,false,592,image-keyboard-response,21
true,4,2,1,0,false,q,false,true,0.0-2.0-0.15-0.138-3.138,1,0,0,68,false,stim,true,2,1025.0,3,0,2,32186,WMM2,596733,false,true,595,image-keyboard-response,22
true,4,0,1,0,true,q,false,true,0.0-2.0-0.15-0.139-3.139,1,0,0,81,false,stim,false,0,1227.0,3,1,0,32186,WMM2,599466,false,false,598,image-keyboard-response,23
true,4,0,1,2,false,d,false,false,0.0-2.0-0.15-0.140-3.140,1,0,0,81,false,stim,true,0,1203.0000000001164,3,0,1,32186,WMM2,602178,false,false,601,image-keyboard-response,24
true,4,2,1,0,false,q,false,false,0.0-2.0-0.15-0.141-3.141,1,0,0,68,false,stim,true,2,1227.0,3,0,2,32186,WMM2,604911,false,false,604,image-keyboard-response,25
true,4,0,1,0,true,q,false,true,0.0-2.0-0.15-0.142-3.142,1,0,0,81,false,stim,false,0,1159.0,3,1,0,32186,WMM2,607577,false,false,607,image-keyboard-response,26
true,4,0,1,2,false,d,false,true,0.0-2.0-0.15-0.143-3.143,1,0,0,81,false,stim,true,0,1421.0,3,0,1,32186,WMM2,610505,false,true,610,image-keyboard-response,27
true,4,0,1,2,false,d,false,false,0.0-2.0-0.16-0.144-3.144,1,0,0,81,false,stim,true,0,855.0,3,0,1,32186,WMM2,612867,false,false,613,image-keyboard-response,28
true,4,0,1,0,true,q,false,true,0.0-2.0-0.16-0.145-3.145,1,0,0,81,false,stim,false,0,1496.0,3,1,0,32186,WMM2,615870,false,false,616,image-keyboard-response,29
true,4,2,1,0,false,q,false,false,0.0-2.0-0.16-0.146-3.146,1,0,0,68,false,stim,true,2,1912.0,3,0,2,32186,WMM2,619288,false,false,619,image-keyboard-response,30
true,4,0,1,0,true,q,false,true,0.0-2.0-0.16-0.147-3.147,1,0,0,81,false,stim,false,2,1354.0,3,0,2,32186,WMM2,622148,false,false,622,image-keyboard-response,31
true,4,0,1,2,false,d,false,false,0.0-2.0-0.16-0.148-3.148,1,0,0,81,false,stim,true,0,1286.9999999998836,3,0,1,32186,WMM2,624941,false,false,625,image-keyboard-response,32
true,4,0,1,2,false,d,false,false,0.0-2.0-0.16-0.149-3.149,1,0,0,81,false,stim,true,0,953.9999999998836,3,0,1,32186,WMM2,627401,false,false,628,image-keyboard-response,33
true,4,2,1,0,false,q,true,false,0.0-2.0-0.16-0.150-3.150,1,0,0,68,false,stim,false,0,1069.0000000001164,3,1,0,32186,WMM2,629976,false,false,631,image-keyboard-response,34
true,4,0,1,0,true,q,false,true,0.0-2.0-0.16-0.151-3.151,1,0,0,81,false,stim,false,2,881.0,3,0,2,32186,WMM2,632365,false,false,634,image-keyboard-response,35
true,4,0,1,0,true,q,false,true,0.0-2.0-0.16-0.152-3.152,1,0,0,81,false,stim,false,0,749.0000000001164,3,1,0,32186,WMM2,634620,false,false,637,image-keyboard-response,36
true,4,0,1,0,true,q,false,true,0.0-2.0-0.17-0.153-3.153,1,0,0,81,false,stim,false,0,1156.9999999998836,3,1,0,32186,WMM2,637282,false,false,640,image-keyboard-response,37
true,4,0,1,2,false,d,false,false,0.0-2.0-0.17-0.154-3.154,1,0,0,81,false,stim,true,0,1825.0,3,0,1,32186,WMM2,640614,false,false,643,image-keyboard-response,38
true,4,2,1,0,false,q,true,false,0.0-2.0-0.17-0.155-3.155,1,0,0,68,false,stim,false,0,1048.9999999998836,3,1,0,32186,WMM2,643169,false,false,646,image-keyboard-response,39
true,4,2,1,2,true,d,false,true,0.0-2.0-0.17-0.156-3.156,1,0,0,68,false,stim,false,0,1171.0000000001164,3,0,1,32186,WMM2,645847,false,false,649,image-keyboard-response,40
true,4,0,1,0,true,q,false,true,0.0-2.0-0.17-0.157-3.157,1,0,0,81,false,stim,false,0,1218.0,3,1,0,32186,WMM2,648571,false,false,652,image-keyboard-response,41
true,4,0,1,0,true,q,false,true,0.0-2.0-0.17-0.158-3.158,1,0,0,81,false,stim,false,2,1572.9999999998836,3,0,2,32186,WMM2,651651,false,false,655,image-keyboard-response,42
true,4,0,1,2,false,d,false,false,0.0-2.0-0.17-0.159-3.159,1,0,0,81,false,stim,true,0,1553.0,3,0,1,32186,WMM2,654711,false,false,658,image-keyboard-response,43
true,4,2,1,0,false,q,false,false,0.0-2.0-0.17-0.160-3.160,1,0,0,68,false,stim,true,2,1178.0,3,0,2,32186,WMM2,657396,false,false,661,image-keyboard-response,44
true,4,2,1,0,false,q,false,false,0.0-2.0-0.17-0.161-3.161,1,0,0,68,false,stim,true,2,1517.0,3,0,2,32186,WMM2,660420,false,false,664,image-keyboard-response,45
true,4,0,1,0,true,q,false,true,0.0-2.0-0.18-0.162-3.162,1,0,0,81,false,stim,false,0,978.0000000001164,3,1,0,32186,WMM2,662904,false,false,667,image-keyboard-response,46
true,4,0,1,2,false,d,false,false,0.0-2.0-0.18-0.163-3.163,1,0,0,81,false,stim,true,0,1477.0,3,0,1,32186,WMM2,665888,false,false,670,image-keyboard-response,47
true,4,1,1,0,false,q,true,false,0.0-2.0-0.18-0.164-3.164,1,0,0,90,false,stim,false,0,1624.0000000001164,3,1,0,32186,WMM2,669019,false,false,673,image-keyboard-response,48
true,4,2,1,0,false,q,false,false,0.0-2.0-0.18-0.165-3.165,1,0,0,68,false,stim,true,2,1074.0,3,0,2,32186,WMM2,671600,false,false,676,image-keyboard-response,49
true,4,0,1,0,true,q,false,true,0.0-2.0-0.18-0.166-3.166,1,0,0,81,false,stim,false,0,744.0,3,1,0,32186,WMM2,673850,false,false,679,image-keyboard-response,50
true,4,0,1,0,true,q,false,true,0.0-2.0-0.18-0.167-3.167,1,0,0,81,false,stim,false,2,1214.0,3,1,2,32186,WMM2,676572,false,false,682,image-keyboard-response,51
true,4,0,1,2,false,d,false,false,0.0-2.0-0.18-0.168-3.168,1,0,0,81,false,stim,true,0,1126.9999999998836,3,0,1,32186,WMM2,679205,false,false,685,image-keyboard-response,52
true,4,2,1,2,true,d,false,true,0.0-2.0-0.18-0.169-3.169,1,0,0,68,false,stim,false,0,811.0,3,0,1,32186,WMM2,681523,false,false,688,image-keyboard-response,53
true,4,2,1,0,false,q,false,false,0.0-2.0-0.18-0.170-3.170,1,0,0,68,false,stim,true,2,818.0000000001164,3,1,2,32186,WMM2,683847,false,false,691,image-keyboard-response,54
true,4,1,1,2,false,d,true,false,0.0-2.0-0.19-0.171-3.171,1,0,0,90,false,stim,false,0,846.0,3,0,1,32186,WMM2,686198,false,false,694,image-keyboard-response,55
true,4,0,1,0,true,q,false,true,0.0-2.0-0.19-0.172-3.172,1,0,0,81,false,stim,false,0,795.0,3,0,0,32186,WMM2,688499,false,false,697,image-keyboard-response,56
true,4,0,1,2,false,d,false,false,0.0-2.0-0.19-0.173-3.173,1,0,0,81,false,stim,true,0,1128.9999999998836,3,0,1,32186,WMM2,691134,false,false,700,image-keyboard-response,57
true,4,2,1,0,false,q,false,false,0.0-2.0-0.19-0.174-3.174,1,0,0,68,false,stim,true,2,781.0,3,1,2,32186,WMM2,693425,false,false,703,image-keyboard-response,58
true,4,0,1,0,true,q,false,true,0.0-2.0-0.19-0.175-3.175,1,0,0,81,false,stim,false,2,1070.0000000001164,3,1,2,32186,WMM2,696001,false,false,706,image-keyboard-response,59
true,4,1,1,0,false,q,true,false,0.0-2.0-0.19-0.176-3.176,1,0,0,90,false,stim,false,0,886.0,3,0,0,32186,WMM2,698393,false,false,709,image-keyboard-response,60
true,5,0,1,1,false,z,false,false,0.0-2.0-0.19-0.177-3.177,0,0,1,81,true,stim,true,0,876.0000000001164,3,0,0,32186,WMM2,700774,false,false,712,image-keyboard-response,1
true,5,2,1,0,false,q,false,false,0.0-2.0-0.19-0.178-3.178,0,0,1,68,false,stim,true,2,1120.0,3,0,1,32186,WMM2,703399,false,false,715,image-keyboard-response,2
true,5,1,1,0,false,q,true,false,0.0-2.0-0.19-0.179-3.179,0,0,1,90,false,stim,false,0,945.0,3,1,2,32186,WMM2,705850,false,false,718,image-keyboard-response,3
true,5,0,1,0,true,q,false,true,0.0-2.0-0.20-0.180-3.180,0,0,1,81,false,stim,false,0,937.0,3,1,2,32186,WMM2,708292,false,false,721,image-keyboard-response,4
true,5,0,1,1,false,z,false,false,0.0-2.0-0.20-0.181-3.181,0,0,1,81,false,stim,true,0,1120.9999999998836,3,0,0,32186,WMM2,710920,false,false,724,image-keyboard-response,5
true,5,2,1,0,false,q,true,false,0.0-2.0-0.20-0.182-3.182,0,0,1,68,false,stim,false,0,1285.0,3,1,2,32186,WMM2,713712,false,false,727,image-keyboard-response,6
true,5,1,1,0,false,q,true,false,0.0-2.0-0.20-0.183-3.183,0,0,1,90,false,stim,false,0,1013.0,3,1,2,32186,WMM2,716231,false,false,730,image-keyboard-response,7
true,5,0,1,0,true,q,false,true,0.0-2.0-0.20-0.184-3.184,0,0,1,81,false,stim,false,2,1444.0,3,0,1,32186,WMM2,719182,false,false,733,image-keyboard-response,8
true,5,0,1,0,true,q,false,true,0.0-2.0-0.20-0.185-3.185,0,0,1,81,false,stim,false,2,924.0,3,0,1,32186,WMM2,721612,false,false,736,image-keyboard-response,9
true,5,0,1,1,false,z,false,false,0.0-2.0-0.20-0.186-3.186,0,0,1,81,false,stim,true,0,837.0,3,0,0,32186,WMM2,723956,false,false,739,image-keyboard-response,10
true,5,2,1,0,false,q,false,false,0.0-2.0-0.20-0.187-3.187,0,0,1,68,false,stim,true,2,819.0,3,0,1,32186,WMM2,726282,false,false,742,image-keyboard-response,11
true,5,1,1,1,true,z,false,true,0.0-2.0-0.20-0.188-3.188,0,0,1,90,false,stim,false,0,1065.0,3,0,0,32186,WMM2,728854,false,false,745,image-keyboard-response,12
true,5,0,1,0,true,q,false,true,0.0-2.0-0.21-0.189-3.189,0,0,1,81,false,stim,false,0,1046.0,3,1,2,32186,WMM2,731406,false,false,748,image-keyboard-response,13
true,5,0,1,1,false,z,false,false,0.0-2.0-0.21-0.190-3.190,0,0,1,81,false,stim,true,0,1008.0000000001164,3,0,0,32186,WMM2,733919,false,false,751,image-keyboard-response,14
true,5,2,1,0,false,q,false,true,0.0-2.0-0.21-0.191-3.191,0,0,1,68,false,stim,true,2,951.0,3,0,1,32186,WMM2,736377,false,true,754,image-keyboard-response,15
true,5,2,1,0,false,q,true,false,0.0-2.0-0.21-0.192-3.192,0,0,1,68,false,stim,false,0,934.0,3,1,2,32186,WMM2,738816,false,false,757,image-keyboard-response,16
true,5,0,1,0,true,q,false,true,0.0-2.0-0.21-0.193-3.193,0,0,1,81,false,stim,false,0,1144.0,3,1,2,32186,WMM2,741466,false,false,760,image-keyboard-response,17
true,5,0,1,1,false,z,false,false,0.0-2.0-0.21-0.194-3.194,0,0,1,81,false,stim,true,0,1494.0000000001164,3,0,0,32186,WMM2,744466,false,false,763,image-keyboard-response,18
true,5,0,1,1,false,z,false,false,0.0-2.0-0.21-0.195-3.195,0,0,1,81,false,stim,true,0,1152.0,3,0,0,32186,WMM2,747124,false,false,766,image-keyboard-response,19
true,5,2,1,0,false,q,false,false,0.0-2.0-0.21-0.196-3.196,0,0,1,68,false,stim,true,2,1106.9999999998836,3,0,1,32186,WMM2,749737,false,false,769,image-keyboard-response,20
true,5,1,1,0,false,q,true,false,0.0-2.0-0.21-0.197-3.197,0,0,1,90,false,stim,false,2,718.0,3,0,1,32186,WMM2,751962,false,false,772,image-keyboard-response,21
true,5,0,1,0,true,q,false,false,0.0-2.0-0.22-0.198-3.198,0,0,1,81,false,stim,false,2,989.0,3,0,1,32186,WMM2,754457,false,true,775,image-keyboard-response,22
true,5,2,1,1,false,z,true,false,0.0-2.0-0.22-0.199-3.199,0,0,1,68,false,stim,false,0,998.0,3,0,0,32186,WMM2,756961,false,false,778,image-keyboard-response,23
true,5,1,1,0,false,q,true,false,0.0-2.0-0.22-0.200-3.200,0,0,1,90,false,stim,false,0,953.0,3,1,2,32186,WMM2,759421,false,false,781,image-keyboard-response,24
true,5,0,1,0,true,q,false,true,0.0-2.0-0.22-0.201-3.201,0,0,1,81,false,stim,false,0,1042.0,3,1,2,32186,WMM2,761970,false,false,784,image-keyboard-response,25
true,5,0,1,1,false,z,false,true,0.0-2.0-0.22-0.202-3.202,0,0,1,81,false,stim,true,0,952.0,3,0,0,32186,WMM2,764429,false,true,787,image-keyboard-response,26
true,5,0,1,0,true,q,false,true,0.0-2.0-0.22-0.203-3.203,0,0,1,81,false,stim,false,2,918.0,3,0,1,32186,WMM2,766854,false,false,790,image-keyboard-response,27
true,5,0,1,0,true,q,false,true,0.0-2.0-0.22-0.204-3.204,0,0,1,81,false,stim,false,2,1147.0,3,0,1,32186,WMM2,769507,false,false,793,image-keyboard-response,28
true,5,0,1,1,false,z,false,false,0.0-2.0-0.22-0.205-3.205,0,0,1,81,false,stim,true,0,1282.0,3,0,0,32186,WMM2,772296,false,false,796,image-keyboard-response,29
true,5,2,1,0,false,q,true,false,0.0-2.0-0.22-0.206-3.206,0,0,1,68,false,stim,false,0,606.9999999998836,3,1,2,32186,WMM2,774410,false,false,799,image-keyboard-response,30
true,5,0,1,1,false,z,false,false,0.0-2.0-0.23-0.207-3.207,0,0,1,81,false,stim,true,0,1254.0,3,0,0,32186,WMM2,777174,false,false,802,image-keyboard-response,31
true,5,0,1,1,false,z,false,false,0.0-2.0-0.23-0.208-3.208,0,0,1,81,false,stim,true,0,990.0,3,0,0,32186,WMM2,779671,false,false,805,image-keyboard-response,32
true,5,0,1,0,true,q,false,true,0.0-2.0-0.23-0.209-3.209,0,0,1,81,false,stim,false,0,1818.9999999998836,3,1,2,32186,WMM2,782997,false,false,808,image-keyboard-response,33
true,5,0,1,0,true,q,false,true,0.0-2.0-0.23-0.210-3.210,0,0,1,81,false,stim,false,0,965.0,3,1,2,32186,WMM2,785470,false,false,811,image-keyboard-response,34
true,5,0,1,0,true,q,false,true,0.0-2.0-0.23-0.211-3.211,0,0,1,81,false,stim,false,2,867.9999999998836,3,0,1,32186,WMM2,787844,false,false,814,image-keyboard-response,35
true,5,0,1,0,true,q,false,true,0.0-2.0-0.23-0.212-3.212,0,0,1,81,false,stim,false,2,849.9999999998836,3,0,1,32186,WMM2,790201,false,false,817,image-keyboard-response,36
true,5,2,1,1,false,z,true,false,0.0-2.0-0.23-0.213-3.213,0,0,1,68,false,stim,false,0,1161.0,3,0,0,32186,WMM2,792870,false,false,820,image-keyboard-response,37
true,5,0,1,0,true,q,false,true,0.0-2.0-0.23-0.214-3.214,0,0,1,81,false,stim,false,2,918.0,3,0,1,32186,WMM2,795294,false,false,823,image-keyboard-response,38
true,5,0,1,0,true,q,false,true,0.0-2.0-0.23-0.215-3.215,0,0,1,81,false,stim,false,0,1029.0,3,1,2,32186,WMM2,797831,false,false,826,image-keyboard-response,39
true,5,0,1,1,false,z,false,false,0.0-2.0-0.24-0.216-3.216,0,0,1,81,false,stim,true,0,1620.0,3,0,0,32186,WMM2,800959,false,false,829,image-keyboard-response,40
true,5,0,1,0,true,q,false,true,0.0-2.0-0.24-0.217-3.217,0,0,1,81,false,stim,false,2,807.0,3,0,1,32186,WMM2,803273,false,false,832,image-keyboard-response,41
true,5,0,1,0,true,q,false,false,0.0-2.0-0.24-0.218-3.218,0,0,1,81,false,stim,false,0,1123.0,3,1,2,32186,WMM2,805904,false,true,835,image-keyboard-response,42
true,5,0,1,1,false,z,false,false,0.0-2.0-0.24-0.219-3.219,0,0,1,81,false,stim,true,0,1110.0,3,0,0,32186,WMM2,808521,false,false,838,image-keyboard-response,43
true,5,0,1,0,true,q,false,true,0.0-2.0-0.24-0.220-3.220,0,0,1,81,false,stim,false,2,1335.0,3,0,1,32186,WMM2,811362,false,false,841,image-keyboard-response,44
true,5,0,1,0,true,q,false,true,0.0-2.0-0.24-0.221-3.221,0,0,1,81,false,stim,false,0,1192.0,3,1,2,32186,WMM2,814061,false,false,844,image-keyboard-response,45
true,5,1,1,1,true,z,false,true,0.0-2.0-0.24-0.222-3.222,0,0,1,90,false,stim,false,0,1200.0,3,0,0,32186,WMM2,816769,false,false,847,image-keyboard-response,46
true,5,0,1,0,true,q,false,false,0.0-2.0-0.24-0.223-3.223,0,0,1,81,false,stim,false,2,1619.0000000001164,3,0,1,32186,WMM2,819894,false,true,850,image-keyboard-response,47
true,5,0,1,0,true,q,false,true,0.0-2.0-0.24-0.224-3.224,0,0,1,81,false,stim,false,0,1720.0,3,1,2,32186,WMM2,823337,false,false,853,image-keyboard-response,48
true,5,1,1,1,true,z,false,true,0.0-2.0-0.25-0.225-3.225,0,0,1,90,false,stim,false,0,1029.0,3,0,0,32186,WMM2,825874,false,false,856,image-keyboard-response,49
true,5,1,1,1,true,z,false,true,0.0-2.0-0.25-0.226-3.226,0,0,1,90,false,stim,false,0,1266.0,3,0,0,32186,WMM2,828648,false,false,859,image-keyboard-response,50
true,5,0,1,0,true,q,false,true,0.0-2.0-0.25-0.227-3.227,0,0,1,81,false,stim,false,2,1147.0,3,1,1,32186,WMM2,831301,false,false,862,image-keyboard-response,51
true,5,0,1,0,true,q,false,true,0.0-2.0-0.25-0.228-3.228,0,0,1,81,false,stim,false,0,1840.0,3,1,2,32186,WMM2,834646,false,false,865,image-keyboard-response,52
true,5,0,1,0,true,q,false,true,0.0-2.0-0.25-0.229-3.229,0,0,1,81,false,stim,false,0,1292.0,3,1,2,32186,WMM2,837444,false,false,868,image-keyboard-response,53
true,5,0,1,0,true,q,false,true,0.0-2.0-0.25-0.230-3.230,0,0,1,81,false,stim,false,2,1278.0,3,1,1,32186,WMM2,840229,false,false,871,image-keyboard-response,54
true,5,0,1,0,true,q,false,true,0.0-2.0-0.25-0.231-3.231,0,0,1,81,false,stim,false,2,1379.0,3,1,1,32186,WMM2,843114,false,false,874,image-keyboard-response,55
true,5,0,1,0,true,q,false,true,0.0-2.0-0.25-0.232-3.232,0,0,1,81,false,stim,false,0,1269.0,3,1,2,32186,WMM2,845889,false,false,877,image-keyboard-response,56
true,5,1,1,1,true,z,false,true,0.0-2.0-0.25-0.233-3.233,0,0,1,90,false,stim,false,0,1398.0000000001164,3,0,0,32186,WMM2,848793,false,false,880,image-keyboard-response,57
true,5,0,1,1,false,z,false,false,0.0-2.0-0.26-0.234-3.234,0,0,1,81,false,stim,true,0,1061.0,3,0,0,32186,WMM2,851362,false,false,883,image-keyboard-response,58
true,5,0,1,0,true,q,false,true,0.0-2.0-0.26-0.235-3.235,0,0,1,81,false,stim,false,2,863.0,3,1,1,32186,WMM2,853732,false,false,886,image-keyboard-response,59
true,6,0,2,0,true,q,false,true,0.0-2.0-0.26-0.236-3.236,0,1,1,81,true,stim,false,0,1012.0,3,1,2,32186,WMM2,856249,false,false,889,image-keyboard-response,1
true,6,0,2,0,true,q,false,true,0.0-2.0-0.26-0.237-3.237,0,1,1,81,false,stim,false,0,1405.9999999998836,3,1,2,32186,WMM2,859162,false,false,892,image-keyboard-response,2
true,6,0,2,0,true,q,false,true,0.0-2.0-0.26-0.238-3.238,0,1,1,81,false,stim,false,0,1539.9999999998836,3,1,1,32186,WMM2,862209,false,false,895,image-keyboard-response,3
true,6,0,2,0,true,q,false,true,0.0-2.0-0.26-0.239-3.239,0,1,1,81,false,stim,false,0,1063.0,3,1,1,32186,WMM2,864780,false,false,898,image-keyboard-response,4
true,6,1,2,2,false,d,false,false,0.0-2.0-0.26-0.240-3.240,0,1,1,90,false,stim,true,1,1256.0,3,0,0,32186,WMM2,867548,false,false,901,image-keyboard-response,5
true,6,1,2,0,false,q,true,true,0.0-2.0-0.26-0.241-3.241,0,1,1,90,false,stim,false,0,859.0000000001164,3,1,2,32186,WMM2,869914,false,true,904,image-keyboard-response,6
true,6,0,2,2,false,d,true,false,0.0-2.0-0.26-0.242-3.242,0,1,1,81,false,stim,false,1,836.0,3,0,0,32186,WMM2,872256,false,false,907,image-keyboard-response,7
true,6,0,2,0,true,q,false,true,0.0-2.0-0.27-0.243-3.243,0,1,1,81,false,stim,false,0,1289.9999999998836,3,1,1,32186,WMM2,875054,false,false,910,image-keyboard-response,8
true,6,0,2,0,true,q,false,true,0.0-2.0-0.27-0.244-3.244,0,1,1,81,false,stim,false,0,916.0000000001164,3,1,2,32186,WMM2,877477,false,false,913,image-keyboard-response,9
true,6,0,2,0,true,q,false,true,0.0-2.0-0.27-0.245-3.245,0,1,1,81,false,stim,false,0,761.0,3,1,2,32186,WMM2,879743,false,false,916,image-keyboard-response,10
true,6,1,2,2,false,d,false,false,0.0-2.0-0.27-0.246-3.246,0,1,1,90,false,stim,true,1,1286.0,3,0,0,32186,WMM2,882535,false,false,919,image-keyboard-response,11
true,6,0,2,2,false,d,true,false,0.0-2.0-0.27-0.247-3.247,0,1,1,81,false,stim,false,1,1031.0,3,0,0,32186,WMM2,885073,false,false,922,image-keyboard-response,12
true,6,2,2,2,true,d,false,true,0.0-2.0-0.27-0.248-3.248,0,1,1,68,false,stim,false,1,1407.0,3,0,0,32186,WMM2,887987,false,false,925,image-keyboard-response,13
true,6,0,2,0,true,q,false,false,0.0-2.0-0.27-0.249-3.249,0,1,1,81,false,stim,false,0,1634.0,3,1,1,32186,WMM2,891127,false,true,928,image-keyboard-response,14
true,6,0,2,0,true,q,false,false,0.0-2.0-0.27-0.250-3.250,0,1,1,81,false,stim,false,0,1703.0,3,1,2,32186,WMM2,894335,false,true,931,image-keyboard-response,15
true,6,2,2,0,false,q,true,false,0.0-2.0-0.27-0.251-3.251,0,1,1,68,false,stim,false,0,1096.0,3,1,1,32186,WMM2,896938,false,false,934,image-keyboard-response,16
true,6,2,2,0,false,q,true,false,0.0-2.0-0.28-0.252-3.252,0,1,1,68,false,stim,false,0,1114.0,3,1,2,32186,WMM2,899560,false,false,937,image-keyboard-response,17
true,6,0,2,0,true,q,false,true,0.0-2.0-0.28-0.253-3.253,0,1,1,81,false,stim,false,0,1163.0,3,1,2,32186,WMM2,902230,false,false,940,image-keyboard-response,18
true,6,2,2,2,true,d,false,true,0.0-2.0-0.28-0.254-3.254,0,1,1,68,false,stim,false,1,1561.0,3,0,0,32186,WMM2,905297,false,false,943,image-keyboard-response,19
true,6,0,2,0,true,q,false,true,0.0-2.0-0.28-0.255-3.255,0,1,1,81,false,stim,false,0,1296.0,3,1,1,32186,WMM2,908101,false,false,946,image-keyboard-response,20
true,6,0,2,0,true,q,false,true,0.0-2.0-0.28-0.256-3.256,0,1,1,81,false,stim,false,0,1140.0,3,1,1,32186,WMM2,910747,false,false,949,image-keyboard-response,21
true,6,2,2,2,true,d,false,true,0.0-2.0-0.28-0.257-3.257,0,1,1,68,false,stim,false,1,1137.0,3,0,0,32186,WMM2,913392,false,false,952,image-keyboard-response,22
true,6,2,2,2,true,d,false,true,0.0-2.0-0.28-0.258-3.258,0,1,1,68,false,stim,false,1,1133.9999999998836,3,0,0,32186,WMM2,916033,false,false,955,image-keyboard-response,23
true,6,0,2,0,true,q,false,true,0.0-2.0-0.28-0.259-3.259,0,1,1,81,false,stim,false,0,1441.0,3,1,2,32186,WMM2,918981,false,false,958,image-keyboard-response,24
true,6,0,2,0,true,q,false,true,0.0-2.0-0.28-0.260-3.260,0,1,1,81,false,stim,false,0,1405.0,3,1,1,32186,WMM2,921894,false,false,961,image-keyboard-response,25
true,6,0,2,0,true,q,false,false,0.0-2.0-0.29-0.261-3.261,0,1,1,81,false,stim,false,0,1181.0,3,1,1,32186,WMM2,924583,false,true,964,image-keyboard-response,26
true,6,0,2,0,true,q,false,false,0.0-2.0-0.29-0.262-3.262,0,1,1,81,false,stim,false,0,1311.0,3,0,2,32186,WMM2,927401,false,true,967,image-keyboard-response,27
true,6,0,2,0,true,q,false,true,0.0-2.0-0.29-0.263-3.263,0,1,1,81,false,stim,false,0,1429.0,3,1,1,32186,WMM2,930338,false,false,970,image-keyboard-response,28
true,6,0,2,0,true,q,false,true,0.0-2.0-0.29-0.264-3.264,0,1,1,81,false,stim,false,0,1083.0,3,0,2,32186,WMM2,932928,false,false,973,image-keyboard-response,29
true,6,2,2,2,true,d,false,true,0.0-2.0-0.29-0.265-3.265,0,1,1,68,false,stim,false,1,1402.0,3,1,0,32186,WMM2,935837,false,false,976,image-keyboard-response,30
true,6,2,2,2,true,d,false,true,0.0-2.0-0.29-0.266-3.266,0,1,1,68,false,stim,false,1,1079.0000000001164,3,1,0,32186,WMM2,938424,false,false,979,image-keyboard-response,31
true,6,2,2,2,true,d,false,false,0.0-2.0-0.29-0.267-3.267,0,1,1,68,false,stim,false,1,1039.0,3,1,0,32186,WMM2,940970,false,true,982,image-keyboard-response,32
true,6,0,2,0,true,q,false,true,0.0-2.0-0.29-0.268-3.268,0,1,1,81,false,stim,false,0,1107.9999999998836,3,0,2,32186,WMM2,943585,false,false,985,image-keyboard-response,33
true,6,0,2,0,true,q,false,true,0.0-2.0-0.29-0.269-3.269,0,1,1,81,false,stim,false,0,906.9999999998836,3,1,1,32186,WMM2,945998,false,false,988,image-keyboard-response,34
true,7,0,4,0,true,q,false,true,0.0-2.0-0.30-0.270-3.270,1,1,0,81,true,stim,false,0,1485.9999999998836,3,1,1,32186,WMM2,948991,false,false,991,image-keyboard-response,1
true,7,0,4,0,true,q,false,false,0.0-2.0-0.30-0.271-3.271,1,1,0,81,false,stim,false,0,1372.0,3,0,2,32186,WMM2,951869,false,true,994,image-keyboard-response,2
true,7,2,4,2,true,d,false,true,0.0-2.0-0.30-0.272-3.272,1,1,0,68,false,stim,false,2,1149.9999999998836,3,1,0,32186,WMM2,954525,false,false,997,image-keyboard-response,3
true,7,0,4,0,true,q,false,false,0.0-2.0-0.30-0.273-3.273,1,1,0,81,false,stim,false,0,1194.0000000001164,3,0,2,32186,WMM2,957227,false,true,1000,image-keyboard-response,4
true,7,2,4,0,false,q,true,false,0.0-2.0-0.30-0.274-3.274,1,1,0,68,false,stim,false,0,2137.0,3,0,2,32186,WMM2,960873,false,false,1003,image-keyboard-response,5
true,7,2,4,2,true,d,false,true,0.0-2.0-0.30-0.275-3.275,1,1,0,68,false,stim,false,2,832.9999999998836,3,1,0,32186,WMM2,963213,false,false,1006,image-keyboard-response,6
true,7,0,4,2,false,d,true,false,0.0-2.0-0.30-0.276-3.276,1,1,0,81,false,stim,false,2,1084.0000000001164,3,1,0,32186,WMM2,965804,false,false,1009,image-keyboard-response,7
true,7,2,4,0,false,q,true,false,0.0-2.0-0.30-0.277-3.277,1,1,0,68,false,stim,false,0,898.0,3,1,1,32186,WMM2,968209,false,false,1012,image-keyboard-response,8
true,7,1,4,0,false,q,true,true,0.0-2.0-0.30-0.278-3.278,1,1,0,90,false,stim,false,0,730.0,3,1,1,32186,WMM2,970446,false,true,1015,image-keyboard-response,9
true,7,2,4,2,true,d,false,true,0.0-2.0-0.31-0.279-3.279,1,1,0,68,false,stim,false,2,1240.0,3,1,0,32186,WMM2,973193,false,false,1018,image-keyboard-response,10
true,7,1,4,0,false,q,true,false,0.0-2.0-0.31-0.280-3.280,1,1,0,90,false,stim,false,0,1093.0,3,1,1,32186,WMM2,975793,false,false,1021,image-keyboard-response,11
true,7,0,4,0,true,q,false,true,0.0-2.0-0.31-0.281-3.281,1,1,0,81,false,stim,false,0,1220.0000000001164,3,0,2,32186,WMM2,978520,false,false,1024,image-keyboard-response,12
true,7,0,4,0,true,q,false,false,0.0-2.0-0.31-0.282-3.282,1,1,0,81,false,stim,false,0,1190.0000000001164,3,0,2,32186,WMM2,981217,false,true,1027,image-keyboard-response,13
true,7,2,4,2,true,d,false,true,0.0-2.0-0.31-0.283-3.283,1,1,0,68,false,stim,false,2,1123.0,3,1,0,32186,WMM2,983843,false,false,1030,image-keyboard-response,14
true,7,2,4,2,true,d,false,true,0.0-2.0-0.31-0.284-3.284,1,1,0,68,false,stim,false,2,1157.0,3,1,0,32186,WMM2,986506,false,false,1033,image-keyboard-response,15
true,7,0,4,0,true,q,false,true,0.0-2.0-0.31-0.285-3.285,1,1,0,81,false,stim,false,0,1303.9999999998836,3,0,2,32186,WMM2,989318,false,false,1036,image-keyboard-response,16
true,7,0,4,0,true,q,false,false,0.0-2.0-0.31-0.286-3.286,1,1,0,81,false,stim,false,0,1545.0,3,1,1,32186,WMM2,992370,false,true,1039,image-keyboard-response,17
true,7,0,4,0,true,q,false,true,0.0-2.0-0.31-0.287-3.287,1,1,0,81,false,stim,false,0,1959.0,3,1,1,32186,WMM2,995835,false,false,1042,image-keyboard-response,18
true,7,2,4,2,true,d,false,false,0.0-2.0-0.32-0.288-3.288,1,1,0,68,false,stim,false,2,1325.0,3,1,0,32186,WMM2,998668,false,true,1045,image-keyboard-response,19
true,7,0,4,0,true,q,false,false,0.0-2.0-0.32-0.289-3.289,1,1,0,81,false,stim,false,0,1086.0,3,1,1,32186,WMM2,1001261,false,true,1048,image-keyboard-response,20
true,7,2,4,2,true,d,false,true,0.0-2.0-0.32-0.290-3.290,1,1,0,68,false,stim,false,2,1356.0,3,1,0,32186,WMM2,1004125,false,false,1051,image-keyboard-response,21
true,7,0,4,0,true,q,false,true,0.0-2.0-0.32-0.291-3.291,1,1,0,81,false,stim,false,0,1399.0,3,1,2,32186,WMM2,1007031,false,false,1054,image-keyboard-response,22
true,7,2,4,0,false,q,true,false,0.0-2.0-0.32-0.292-3.292,1,1,0,68,false,stim,false,0,1630.0,3,0,1,32186,WMM2,1010167,false,false,1057,image-keyboard-response,23
true,7,0,4,0,true,q,false,false,0.0-2.0-0.32-0.293-3.293,1,1,0,81,false,stim,false,0,1469.9999999998836,3,1,2,32186,WMM2,1013144,false,true,1060,image-keyboard-response,24
true,7,1,4,0,false,q,true,false,0.0-2.0-0.32-0.294-3.294,1,1,0,90,false,stim,false,0,967.0,3,0,1,32186,WMM2,1015618,false,false,1063,image-keyboard-response,25
true,7,2,4,2,true,d,false,true,0.0-2.0-0.32-0.295-3.295,1,1,0,68,false,stim,false,2,1029.0,3,1,0,32186,WMM2,1018153,false,false,1066,image-keyboard-response,26
true,7,0,4,0,true,q,false,true,0.0-2.0-0.32-0.296-3.296,1,1,0,81,false,stim,false,0,1671.0,3,1,2,32186,WMM2,1021332,false,false,1069,image-keyboard-response,27
true,7,0,4,0,true,q,false,true,0.0-2.0-0.33-0.297-3.297,1,1,0,81,false,stim,false,0,1742.9999999998836,3,1,2,32186,WMM2,1024579,false,false,1072,image-keyboard-response,28
true,7,0,4,0,true,q,false,true,0.0-2.0-0.33-0.298-3.298,1,1,0,81,false,stim,false,0,963.9999999998836,3,1,2,32186,WMM2,1027049,false,false,1075,image-keyboard-response,29
true,7,1,4,0,false,q,true,false,0.0-2.0-0.33-0.299-3.299,1,1,0,90,false,stim,false,0,1619.9999999998836,3,0,1,32186,WMM2,1030177,false,false,1078,image-keyboard-response,30
true,8,0,3,1,false,z,false,false,0.0-2.0-0.33-0.300-3.300,1,0,1,81,true,stim,true,0,1696.0,3,0,1,32186,WMM2,1033379,false,false,1081,image-keyboard-response,1
true,8,2,3,0,false,q,true,false,0.0-2.0-0.33-0.301-3.301,1,0,1,68,false,stim,false,0,1148.0,3,1,2,32186,WMM2,1036033,false,false,1084,image-keyboard-response,2
true,8,1,3,2,false,d,true,true,0.0-2.0-0.33-0.302-3.302,1,0,1,90,false,stim,false,2,981.0,3,1,0,32186,WMM2,1038521,false,true,1087,image-keyboard-response,3
true,8,1,3,2,false,d,true,false,0.0-2.0-0.33-0.303-3.303,1,0,1,90,false,stim,false,2,1113.9999999997672,3,1,0,32186,WMM2,1041141,false,false,1090,image-keyboard-response,4
true,8,0,3,2,false,d,true,false,0.0-2.0-0.33-0.304-3.304,1,0,1,81,false,stim,false,2,826.0,3,1,0,32186,WMM2,1043474,false,false,1093,image-keyboard-response,5
true,8,2,3,1,false,z,true,false,0.0-2.0-0.33-0.305-3.305,1,0,1,68,false,stim,false,0,900.9999999997672,3,0,1,32186,WMM2,1045881,false,false,1096,image-keyboard-response,6
true,8,0,3,0,true,q,false,true,0.0-2.0-0.34-0.306-3.306,1,0,1,81,false,stim,false,0,1469.0,3,1,2,32186,WMM2,1048859,false,false,1099,image-keyboard-response,7
true,8,0,3,0,true,q,false,true,0.0-2.0-0.34-0.307-3.307,1,0,1,81,false,stim,false,0,1028.0,3,1,2,32186,WMM2,1051399,false,false,1102,image-keyboard-response,8
true,8,0,3,2,false,d,true,true,0.0-2.0-0.34-0.308-3.308,1,0,1,81,false,stim,false,2,1220.0,3,1,0,32186,WMM2,1054126,false,true,1105,image-keyboard-response,9
true,8,0,3,2,false,d,true,true,0.0-2.0-0.34-0.309-3.309,1,0,1,81,false,stim,false,2,971.0,3,1,0,32186,WMM2,1056604,false,true,1108,image-keyboard-response,10
true,8,2,3,0,false,q,true,false,0.0-2.0-0.34-0.310-3.310,1,0,1,68,false,stim,false,0,1525.0,3,1,2,32186,WMM2,1059637,false,false,1111,image-keyboard-response,11
true,8,0,3,1,false,z,false,false,0.0-2.0-0.34-0.311-3.311,1,0,1,81,false,stim,true,0,975.0,3,0,1,32186,WMM2,1062118,false,false,1114,image-keyboard-response,12
true,8,1,3,1,true,z,false,true,0.0-2.0-0.34-0.312-3.312,1,0,1,90,false,stim,false,0,1249.0,3,0,1,32186,WMM2,1064873,false,false,1117,image-keyboard-response,13
true,8,1,3,1,true,z,false,true,0.0-2.0-0.34-0.313-3.313,1,0,1,90,false,stim,false,0,923.0,3,0,1,32186,WMM2,1067302,false,false,1120,image-keyboard-response,14
true,8,0,3,2,false,d,true,false,0.0-2.0-0.34-0.314-3.314,1,0,1,81,false,stim,false,2,1680.0,3,1,0,32186,WMM2,1070489,false,false,1123,image-keyboard-response,15
true,8,1,3,1,true,z,false,true,0.0-2.0-0.35-0.315-3.315,1,0,1,90,false,stim,false,0,906.0,3,0,1,32186,WMM2,1072902,false,false,1126,image-keyboard-response,16
true,8,1,3,1,true,z,false,true,0.0-2.0-0.35-0.316-3.316,1,0,1,90,false,stim,false,0,888.0,3,0,1,32186,WMM2,1075296,false,false,1129,image-keyboard-response,17
true,8,2,3,2,true,d,false,true,0.0-2.0-0.35-0.317-3.317,1,0,1,68,false,stim,false,2,1601.0,3,1,0,32186,WMM2,1078404,false,false,1132,image-keyboard-response,18
true,8,0,3,0,true,q,false,false,0.0-2.0-0.35-0.318-3.318,1,0,1,81,false,stim,false,0,1121.9999999997672,3,1,2,32186,WMM2,1081034,false,true,1135,image-keyboard-response,19
true,8,2,3,0,false,q,true,false,0.0-2.0-0.35-0.319-3.319,1,0,1,68,false,stim,false,0,1183.0,3,1,2,32186,WMM2,1083723,false,false,1138,image-keyboard-response,20
true,8,2,3,2,true,d,false,true,0.0-2.0-0.35-0.320-3.320,1,0,1,68,false,stim,false,2,958.0,3,1,0,32186,WMM2,1086189,false,false,1141,image-keyboard-response,21
true,8,2,3,0,false,q,true,false,0.0-2.0-0.35-0.321-3.321,1,0,1,68,false,stim,false,0,1435.0,3,1,2,32186,WMM2,1089132,false,false,1144,image-keyboard-response,22
true,8,1,3,2,false,d,true,false,0.0-2.0-0.35-0.322-3.322,1,0,1,90,false,stim,false,2,1632.0,3,1,0,32186,WMM2,1092272,false,false,1147,image-keyboard-response,23
true,8,0,3,1,false,z,false,false,0.0-2.0-0.35-0.323-3.323,1,0,1,81,false,stim,true,0,1505.0,3,0,1,32186,WMM2,1095285,false,false,1150,image-keyboard-response,24
true,8,2,3,0,false,q,true,false,0.0-2.0-0.36-0.324-3.324,1,0,1,68,false,stim,false,0,1625.0,3,1,2,32186,WMM2,1098417,false,false,1153,image-keyboard-response,25
true,8,1,3,0,false,q,true,false,0.0-2.0-0.36-0.325-3.325,1,0,1,90,false,stim,false,0,1385.0,3,1,2,32186,WMM2,1101310,false,false,1156,image-keyboard-response,26
true,8,0,3,2,false,d,true,false,0.0-2.0-0.36-0.326-3.326,1,0,1,81,false,stim,false,2,1216.0,3,1,0,32186,WMM2,1104034,false,false,1159,image-keyboard-response,27
true,8,1,3,2,false,d,true,false,0.0-2.0-0.36-0.327-3.327,1,0,1,90,false,stim,false,2,1125.0,3,1,0,32186,WMM2,1106665,false,false,1162,image-keyboard-response,28
true,8,2,3,1,false,z,true,false,0.0-2.0-0.36-0.328-3.328,1,0,1,68,false,stim,false,0,1105.0,3,0,1,32186,WMM2,1109278,false,false,1165,image-keyboard-response,29
true,8,1,3,1,true,z,false,true,0.0-2.0-0.36-0.329-3.329,1,0,1,90,false,stim,false,0,1136.0000000002328,3,0,1,32186,WMM2,1111920,false,false,1168,image-keyboard-response,30
true,8,1,3,1,true,z,false,true,0.0-2.0-0.36-0.330-3.330,1,0,1,90,false,stim,false,0,918.0,3,0,1,32186,WMM2,1114346,false,false,1171,image-keyboard-response,31
true,8,2,3,2,true,d,false,true,0.0-2.0-0.36-0.331-3.331,1,0,1,68,false,stim,false,2,1982.9999999997672,3,1,0,32186,WMM2,1117837,false,false,1174,image-keyboard-response,32
true,8,2,3,0,false,q,true,false,0.0-2.0-0.36-0.332-3.332,1,0,1,68,false,stim,false,0,1364.0000000002328,3,1,2,32186,WMM2,1120710,false,false,1177,image-keyboard-response,33
true,8,2,3,1,false,z,true,false,0.0-2.0-0.37-0.333-3.333,1,0,1,68,false,stim,false,0,827.0,3,0,1,32186,WMM2,1123045,false,false,1180,image-keyboard-response,34
true,8,2,3,0,false,q,true,true,0.0-2.0-0.37-0.334-3.334,1,0,1,68,false,stim,false,0,935.0,3,1,2,32186,WMM2,1125488,false,true,1183,image-keyboard-response,35
true,8,2,3,1,false,z,true,true,0.0-2.0-0.37-0.335-3.335,1,0,1,68,false,stim,false,0,1083.0,3,0,1,32186,WMM2,1128080,false,true,1186,image-keyboard-response,36
true,8,2,3,0,false,q,true,true,0.0-2.0-0.37-0.336-3.336,1,0,1,68,false,stim,false,0,1637.0,3,1,2,32186,WMM2,1131225,false,true,1189,image-keyboard-response,37
true,8,2,3,2,true,d,false,false,0.0-2.0-0.37-0.337-3.337,1,0,1,68,false,stim,false,2,1180.0,3,1,0,32186,WMM2,1133913,false,true,1192,image-keyboard-response,38
true,8,1,3,2,false,d,true,false,0.0-2.0-0.37-0.338-3.338,1,0,1,90,false,stim,false,2,1294.9999999997672,3,1,0,32186,WMM2,1136716,false,false,1195,image-keyboard-response,39
true,8,2,3,0,false,q,true,false,0.0-2.0-0.37-0.339-3.339,1,0,1,68,false,stim,false,0,889.0,3,1,2,32186,WMM2,1139112,false,false,1198,image-keyboard-response,40
true,8,1,3,2,false,d,true,false,0.0-2.0-0.37-0.340-3.340,1,0,1,90,false,stim,false,2,775.0,3,1,0,32186,WMM2,1141401,false,false,1201,image-keyboard-response,41
true,8,0,3,1,false,z,false,false,0.0-2.0-0.37-0.341-3.341,1,0,1,81,false,stim,true,0,917.0000000002328,3,0,1,32186,WMM2,1143824,false,false,1204,image-keyboard-response,42
true,8,2,3,2,true,d,false,true,0.0-2.0-0.38-0.342-3.342,1,0,1,68,false,stim,false,2,940.0,3,1,0,32186,WMM2,1146273,false,false,1207,image-keyboard-response,43
true,8,2,3,0,false,q,true,false,0.0-2.0-0.38-0.343-3.343,1,0,1,68,false,stim,false,0,1006.0000000002328,3,1,2,32186,WMM2,1148786,false,false,1210,image-keyboard-response,44
true,8,1,3,1,true,z,false,true,0.0-2.0-0.38-0.344-3.344,1,0,1,90,false,stim,false,0,676.0,3,0,1,32186,WMM2,1150969,false,false,1213,image-keyboard-response,45
true,8,1,3,2,false,d,true,false,0.0-2.0-0.38-0.345-3.345,1,0,1,90,false,stim,false,2,1085.0,3,1,0,32186,WMM2,1153562,false,false,1216,image-keyboard-response,46
true,8,2,3,2,true,d,false,true,0.0-2.0-0.38-0.346-3.346,1,0,1,68,false,stim,false,2,885.0,3,1,0,32186,WMM2,1155956,false,false,1219,image-keyboard-response,47
true,8,2,3,0,false,q,true,false,0.0-2.0-0.38-0.347-3.347,1,0,1,68,false,stim,false,0,1080.0,3,1,2,32186,WMM2,1158544,false,false,1222,image-keyboard-response,48
true,8,1,3,1,true,z,false,true,0.0-2.0-0.38-0.348-3.348,1,0,1,90,false,stim,false,0,1011.0,3,0,1,32186,WMM2,1161063,false,false,1225,image-keyboard-response,49
true,8,1,3,1,true,z,false,true,0.0-2.0-0.38-0.349-3.349,1,0,1,90,false,stim,false,0,1221.0,3,0,1,32186,WMM2,1163792,false,false,1228,image-keyboard-response,50
true,8,0,3,0,true,q,false,true,0.0-2.0-0.38-0.350-3.350,1,0,1,81,false,stim,false,0,1084.0,3,0,2,32186,WMM2,1166384,false,false,1231,image-keyboard-response,51
true,8,0,3,1,false,z,false,false,0.0-2.0-0.39-0.351-3.351,1,0,1,81,false,stim,true,0,1122.0,3,1,1,32186,WMM2,1169014,false,false,1234,image-keyboard-response,52
true,8,1,3,2,false,d,true,false,0.0-2.0-0.39-0.352-3.352,1,0,1,90,false,stim,false,2,1082.0,3,0,0,32186,WMM2,1171603,false,false,1237,image-keyboard-response,53
true,8,2,3,2,true,d,false,true,0.0-2.0-0.39-0.353-3.353,1,0,1,68,false,stim,false,2,1473.0,3,0,0,32186,WMM2,1174583,false,false,1240,image-keyboard-response,54
true,8,1,3,1,true,z,false,true,0.0-2.0-0.39-0.354-3.354,1,0,1,90,false,stim,false,0,1481.0,3,1,1,32186,WMM2,1177570,false,false,1243,image-keyboard-response,55
true,8,0,3,0,true,q,false,false,0.0-2.0-0.39-0.355-3.355,1,0,1,81,false,stim,false,0,1328.0,3,0,2,32186,WMM2,1180406,false,true,1246,image-keyboard-response,56
true,8,1,3,0,false,q,true,false,0.0-2.0-0.39-0.356-3.356,1,0,1,90,false,stim,false,0,854.9999999997672,3,0,2,32186,WMM2,1182766,false,false,1249,image-keyboard-response,57
true,8,2,3,1,false,z,true,true,0.0-2.0-0.39-0.357-3.357,1,0,1,68,false,stim,false,0,756.0,3,1,1,32186,WMM2,1185029,false,true,1252,image-keyboard-response,58
true,8,2,3,0,false,q,true,false,0.0-2.0-0.39-0.358-3.358,1,0,1,68,false,stim,false,0,1558.0000000002328,3,0,2,32186,WMM2,1188094,false,false,1255,image-keyboard-response,59
true,8,1,3,2,false,d,true,true,0.0-2.0-0.39-0.359-3.359,1,0,1,90,false,stim,false,2,851.0,3,0,0,32186,WMM2,1190451,false,true,1258,image-keyboard-response,60
true,9,1,1,2,false,d,true,true,0.0-2.0-0.40-0.360-3.360,0,1,0,90,true,stim,false,0,1214.0,3,0,2,32186,WMM2,1193171,false,true,1261,image-keyboard-response,1
true,9,1,1,2,false,d,true,false,0.0-2.0-0.40-0.361-3.361,0,1,0,90,false,stim,false,0,1168.0,3,0,2,32186,WMM2,1195846,false,false,1264,image-keyboard-response,2
true,9,1,1,1,true,z,false,true,0.0-2.0-0.40-0.362-3.362,0,1,0,90,false,stim,false,1,994.9999999997672,3,1,1,32186,WMM2,1198348,false,false,1267,image-keyboard-response,3
true,9,1,1,0,false,q,true,false,0.0-2.0-0.40-0.363-3.363,0,1,0,90,false,stim,false,2,1928.0,3,0,0,32186,WMM2,1201782,false,false,1270,image-keyboard-response,4
true,9,2,1,1,false,z,true,false,0.0-2.0-0.40-0.364-3.364,0,1,0,68,false,stim,false,1,1298.0,3,1,1,32186,WMM2,1204586,false,false,1273,image-keyboard-response,5
true,9,0,1,1,false,z,true,false,0.0-2.0-0.40-0.365-3.365,0,1,0,81,false,stim,false,1,1516.9999999997672,3,1,1,32186,WMM2,1207611,false,false,1276,image-keyboard-response,6
true,9,0,1,0,true,q,false,true,0.0-2.0-0.40-0.366-3.366,0,1,0,81,false,stim,false,2,1053.0,3,0,0,32186,WMM2,1210170,false,false,1279,image-keyboard-response,7
true,9,0,1,0,true,q,false,true,0.0-2.0-0.40-0.367-3.367,0,1,0,81,false,stim,false,2,922.0,3,0,0,32186,WMM2,1212597,false,false,1282,image-keyboard-response,8
true,9,0,1,2,false,d,false,false,0.0-2.0-0.40-0.368-3.368,0,1,0,81,false,stim,true,0,765.0,3,0,2,32186,WMM2,1214869,false,false,1285,image-keyboard-response,9
true,9,0,1,2,false,d,false,false,0.0-2.0-0.41-0.369-3.369,0,1,0,81,false,stim,true,0,1269.0,3,0,2,32186,WMM2,1217646,false,false,1288,image-keyboard-response,10
true,9,2,1,0,false,q,false,false,0.0-2.0-0.41-0.370-3.370,0,1,0,68,false,stim,true,2,1876.0,3,0,0,32186,WMM2,1221028,false,false,1291,image-keyboard-response,11
true,9,2,1,2,true,d,false,true,0.0-2.0-0.41-0.371-3.371,0,1,0,68,false,stim,false,0,1514.0,3,0,2,32186,WMM2,1224048,false,false,1294,image-keyboard-response,12
true,9,2,1,1,false,z,true,false,0.0-2.0-0.41-0.372-3.372,0,1,0,68,false,stim,false,1,1301.9999999997672,3,1,1,32186,WMM2,1226857,false,false,1297,image-keyboard-response,13
true,9,1,1,2,false,d,true,false,0.0-2.0-0.41-0.373-3.373,0,1,0,90,false,stim,false,0,1071.9999999997672,3,0,2,32186,WMM2,1229435,false,false,1300,image-keyboard-response,14
true,9,0,1,0,true,q,false,true,0.0-2.0-0.41-0.374-3.374,0,1,0,81,false,stim,false,2,928.0,3,0,0,32186,WMM2,1231876,false,false,1303,image-keyboard-response,15
true,9,2,1,1,false,z,true,true,0.0-2.0-0.41-0.375-3.375,0,1,0,68,false,stim,false,1,1389.9999999997672,3,1,1,32186,WMM2,1234772,false,true,1306,image-keyboard-response,16
true,9,2,1,1,false,z,true,false,0.0-2.0-0.41-0.376-3.376,0,1,0,68,false,stim,false,1,1379.0,3,1,1,32186,WMM2,1237659,false,false,1309,image-keyboard-response,17
true,9,1,1,0,false,q,true,true,0.0-2.0-0.41-0.377-3.377,0,1,0,90,false,stim,false,2,950.0,3,0,0,32186,WMM2,1240116,false,true,1312,image-keyboard-response,18
true,9,0,1,1,false,z,true,false,0.0-2.0-0.42-0.378-3.378,0,1,0,81,false,stim,false,1,1294.0,3,1,1,32186,WMM2,1242918,false,false,1315,image-keyboard-response,19
true,9,1,1,1,true,z,false,true,0.0-2.0-0.42-0.379-3.379,0,1,0,90,false,stim,false,1,1307.0,3,1,1,32186,WMM2,1245732,false,false,1318,image-keyboard-response,20
true,9,0,1,2,false,d,false,false,0.0-2.0-0.42-0.380-3.380,0,1,0,81,false,stim,true,0,1440.0,3,0,2,32186,WMM2,1248680,false,false,1321,image-keyboard-response,21
true,9,2,1,0,false,q,false,false,0.0-2.0-0.42-0.381-3.381,0,1,0,68,false,stim,true,2,1345.0,3,0,0,32186,WMM2,1251533,false,false,1324,image-keyboard-response,22
true,9,1,1,2,false,d,true,false,0.0-2.0-0.42-0.382-3.382,0,1,0,90,false,stim,false,0,842.0000000002328,3,0,2,32186,WMM2,1253882,false,false,1327,image-keyboard-response,23
true,9,1,1,0,false,q,true,false,0.0-2.0-0.42-0.383-3.383,0,1,0,90,false,stim,false,2,1066.0,3,0,0,32186,WMM2,1256456,false,false,1330,image-keyboard-response,24
true,9,1,1,0,false,q,true,false,0.0-2.0-0.42-0.384-3.384,0,1,0,90,false,stim,false,2,1261.0,3,0,0,32186,WMM2,1259224,false,false,1333,image-keyboard-response,25
true,9,0,1,2,false,d,false,false,0.0-2.0-0.42-0.385-3.385,0,1,0,81,false,stim,true,0,1412.0,3,0,2,32186,WMM2,1262144,false,false,1336,image-keyboard-response,26
true,9,0,1,1,false,z,true,false,0.0-2.0-0.42-0.386-3.386,0,1,0,81,false,stim,false,1,1587.0,3,1,1,32186,WMM2,1265239,false,false,1339,image-keyboard-response,27
true,9,2,1,2,true,d,false,true,0.0-2.0-0.43-0.387-3.387,0,1,0,68,false,stim,false,0,851.9999999997672,3,0,2,32186,WMM2,1267599,false,false,1342,image-keyboard-response,28
true,9,2,1,2,true,d,false,true,0.0-2.0-0.43-0.388-3.388,0,1,0,68,false,stim,false,0,1047.0,3,0,2,32186,WMM2,1270153,false,false,1345,image-keyboard-response,29
true,9,2,1,2,true,d,false,true,0.0-2.0-0.43-0.389-3.389,0,1,0,68,false,stim,false,0,1152.0,3,0,2,32186,WMM2,1272815,false,false,1348,image-keyboard-response,30
true,9,2,1,0,false,q,false,false,0.0-2.0-0.43-0.390-3.390,0,1,0,68,false,stim,true,2,1033.0,3,0,0,32186,WMM2,1275355,false,false,1351,image-keyboard-response,31
true,9,2,1,1,false,z,true,false,0.0-2.0-0.43-0.391-3.391,0,1,0,68,false,stim,false,1,869.9999999997672,3,1,1,32186,WMM2,1277734,false,false,1354,image-keyboard-response,32
true,9,2,1,1,false,z,true,false,0.0-2.0-0.43-0.392-3.392,0,1,0,68,false,stim,false,1,906.0,3,1,1,32186,WMM2,1280148,false,false,1357,image-keyboard-response,33
true,9,2,1,0,false,q,false,false,0.0-2.0-0.43-0.393-3.393,0,1,0,68,false,stim,true,2,1118.0,3,0,0,32186,WMM2,1282774,false,false,1360,image-keyboard-response,34
true,9,0,1,0,true,q,false,true,0.0-2.0-0.43-0.394-3.394,0,1,0,81,false,stim,false,2,1365.0,3,0,0,32186,WMM2,1285647,false,false,1363,image-keyboard-response,35
true,9,0,1,1,false,z,true,false,0.0-2.0-0.43-0.395-3.395,0,1,0,81,false,stim,false,1,1028.0,3,1,1,32186,WMM2,1288183,false,false,1366,image-keyboard-response,36
true,9,2,1,2,true,d,false,true,0.0-2.0-0.44-0.396-3.396,0,1,0,68,false,stim,false,0,1611.0,3,0,2,32186,WMM2,1291302,false,false,1369,image-keyboard-response,37
true,9,2,1,2,true,d,false,true,0.0-2.0-0.44-0.397-3.397,0,1,0,68,false,stim,false,0,1190.0,3,0,2,32186,WMM2,1294000,false,false,1372,image-keyboard-response,38
true,9,0,1,1,false,z,true,false,0.0-2.0-0.44-0.398-3.398,0,1,0,81,false,stim,false,1,1283.9999999997672,3,1,1,32186,WMM2,1296793,false,false,1375,image-keyboard-response,39
true,9,0,1,0,true,q,false,true,0.0-2.0-0.44-0.399-3.399,0,1,0,81,false,stim,false,2,1361.0000000002328,3,0,0,32186,WMM2,1299664,false,false,1378,image-keyboard-response,40
true,9,1,1,1,true,z,false,true,0.0-2.0-0.44-0.400-3.400,0,1,0,90,false,stim,false,1,1423.0,3,1,1,32186,WMM2,1302597,false,false,1381,image-keyboard-response,41
true,9,0,1,0,true,q,false,true,0.0-2.0-0.44-0.401-3.401,0,1,0,81,false,stim,false,2,1025.0,3,0,0,32186,WMM2,1305131,false,false,1384,image-keyboard-response,42
true,9,1,1,1,true,z,false,true,0.0-2.0-0.44-0.402-3.402,0,1,0,90,false,stim,false,1,883.0000000002328,3,1,1,32186,WMM2,1307522,false,false,1387,image-keyboard-response,43
true,9,0,1,0,true,q,false,false,0.0-2.0-0.44-0.403-3.403,0,1,0,81,false,stim,false,2,1034.0,3,1,0,32186,WMM2,1310066,false,true,1390,image-keyboard-response,44
true,9,2,1,2,true,d,false,true,0.0-2.0-0.44-0.404-3.404,0,1,0,68,false,stim,false,0,1315.9999999997672,3,1,2,32186,WMM2,1312889,false,false,1393,image-keyboard-response,45
true,9,1,1,1,true,z,false,true,0.0-2.0-0.45-0.405-3.405,0,1,0,90,false,stim,false,1,1263.0,3,0,1,32186,WMM2,1315659,false,false,1396,image-keyboard-response,46
true,9,1,1,1,true,z,false,true,0.0-2.0-0.45-0.406-3.406,0,1,0,90,false,stim,false,1,1061.0,3,0,1,32186,WMM2,1318228,false,false,1399,image-keyboard-response,47
true,9,0,1,0,true,q,false,false,0.0-2.0-0.45-0.407-3.407,0,1,0,81,false,stim,false,2,2446.0,3,1,0,32186,WMM2,1322186,false,true,1402,image-keyboard-response,48
true,9,2,1,2,true,d,false,false,0.0-2.0-0.45-0.408-3.408,0,1,0,68,false,stim,false,0,1494.0,3,1,2,32186,WMM2,1325188,false,true,1405,image-keyboard-response,49
true,9,2,1,2,true,d,false,true,0.0-2.0-0.45-0.409-3.409,0,1,0,68,false,stim,false,0,1116.0,3,1,2,32186,WMM2,1327811,false,false,1408,image-keyboard-response,50
true,9,2,1,2,true,d,false,true,0.0-2.0-0.45-0.410-3.410,0,1,0,68,false,stim,false,0,1061.0,3,1,2,32186,WMM2,1330379,false,false,1411,image-keyboard-response,51
true,9,2,1,0,false,q,false,false,0.0-2.0-0.45-0.411-3.411,0,1,0,68,false,stim,true,2,1093.0,3,1,0,32186,WMM2,1332979,false,false,1414,image-keyboard-response,52
true,9,1,1,0,false,q,true,false,0.0-2.0-0.45-0.412-3.412,0,1,0,90,false,stim,false,2,741.0,3,1,0,32186,WMM2,1335227,false,false,1417,image-keyboard-response,53
true,10,1,4,1,true,z,false,true,0.0-2.0-0.45-0.413-3.413,1,0,1,90,true,stim,false,1,957.0000000002328,3,0,1,32186,WMM2,1337690,false,false,1420,image-keyboard-response,1
true,10,1,4,1,true,z,false,true,0.0-2.0-0.46-0.414-3.414,1,0,1,90,false,stim,false,1,1300.0,3,0,1,32186,WMM2,1340497,false,false,1423,image-keyboard-response,2
true,10,0,4,0,true,q,false,true,0.0-2.0-0.46-0.415-3.415,1,0,1,81,false,stim,false,0,1376.0,3,1,0,32186,WMM2,1343381,false,false,1426,image-keyboard-response,3
true,10,2,4,2,true,d,false,false,0.0-2.0-0.46-0.416-3.416,1,0,1,68,false,stim,false,2,1214.0,3,1,2,32186,WMM2,1346103,false,true,1429,image-keyboard-response,4
true,10,0,4,0,true,q,false,false,0.0-2.0-0.46-0.417-3.417,1,0,1,81,false,stim,false,0,1520.0,3,1,0,32186,WMM2,1349129,false,true,1432,image-keyboard-response,5
true,10,1,4,2,false,d,true,false,0.0-2.0-0.46-0.418-3.418,1,0,1,90,false,stim,false,2,1009.0000000002328,3,1,2,32186,WMM2,1351643,false,false,1435,image-keyboard-response,6
true,10,1,4,0,false,q,true,true,0.0-2.0-0.46-0.419-3.419,1,0,1,90,false,stim,false,0,1445.0000000002328,3,1,0,32186,WMM2,1354596,false,true,1438,image-keyboard-response,7
true,10,2,4,2,true,d,false,true,0.0-2.0-0.46-0.420-3.420,1,0,1,68,false,stim,false,2,766.0,3,1,2,32186,WMM2,1356868,false,false,1441,image-keyboard-response,8
true,10,0,4,1,false,z,true,false,0.0-2.0-0.46-0.421-3.421,1,0,1,81,false,stim,false,1,1997.0,3,0,1,32186,WMM2,1360372,false,false,1444,image-keyboard-response,9
true,10,1,4,1,true,z,false,true,0.0-2.0-0.46-0.422-3.422,1,0,1,90,false,stim,false,1,971.0,3,0,1,32186,WMM2,1362852,false,false,1447,image-keyboard-response,10
true,10,2,4,0,false,q,true,false,0.0-2.0-0.47-0.423-3.423,1,0,1,68,false,stim,false,0,1244.0,3,1,0,32186,WMM2,1365603,false,false,1450,image-keyboard-response,11
true,10,2,4,2,true,d,false,true,0.0-2.0-0.47-0.424-3.424,1,0,1,68,false,stim,false,2,1489.0,3,1,2,32186,WMM2,1368599,false,false,1453,image-keyboard-response,12
true,10,1,4,1,true,z,false,true,0.0-2.0-0.47-0.425-3.425,1,0,1,90,false,stim,false,1,1314.0,3,0,1,32186,WMM2,1371421,false,false,1456,image-keyboard-response,13
true,10,0,4,2,false,d,true,false,0.0-2.0-0.47-0.426-3.426,1,0,1,81,false,stim,false,2,921.0,3,1,2,32186,WMM2,1373849,false,false,1459,image-keyboard-response,14
true,10,2,4,0,false,q,true,false,0.0-2.0-0.47-0.427-3.427,1,0,1,68,false,stim,false,0,896.0,3,1,0,32186,WMM2,1376252,false,false,1462,image-keyboard-response,15
true,10,1,4,1,true,z,false,true,0.0-2.0-0.47-0.428-3.428,1,0,1,90,false,stim,false,1,1160.0,3,0,1,32186,WMM2,1378920,false,false,1465,image-keyboard-response,16
true,10,1,4,1,true,z,false,true,0.0-2.0-0.47-0.429-3.429,1,0,1,90,false,stim,false,1,1399.0,3,0,1,32186,WMM2,1381824,false,false,1468,image-keyboard-response,17
true,10,1,4,2,false,d,true,false,0.0-2.0-0.47-0.430-3.430,1,0,1,90,false,stim,false,2,1377.0,3,1,2,32186,WMM2,1384708,false,false,1471,image-keyboard-response,18
true,10,2,4,0,false,q,true,true,0.0-2.0-0.47-0.431-3.431,1,0,1,68,false,stim,false,0,806.0,3,1,0,32186,WMM2,1387022,false,true,1474,image-keyboard-response,19
true,10,2,4,2,true,d,false,true,0.0-2.0-0.48-0.432-3.432,1,0,1,68,false,stim,false,2,1264.0,3,1,2,32186,WMM2,1389792,false,false,1477,image-keyboard-response,20
true,10,2,4,2,true,d,false,true,0.0-2.0-0.48-0.433-3.433,1,0,1,68,false,stim,false,2,1008.0,3,1,2,32186,WMM2,1392308,false,false,1480,image-keyboard-response,21
true,10,2,4,2,true,d,false,true,0.0-2.0-0.48-0.434-3.434,1,0,1,68,false,stim,false,2,898.0,3,1,2,32186,WMM2,1394713,false,false,1483,image-keyboard-response,22
true,10,1,4,1,true,z,false,true,0.0-2.0-0.48-0.435-3.435,1,0,1,90,false,stim,false,1,1742.0,3,0,1,32186,WMM2,1397962,false,false,1486,image-keyboard-response,23
true,10,2,4,0,false,q,true,false,0.0-2.0-0.48-0.436-3.436,1,0,1,68,false,stim,false,0,1530.0,3,1,0,32186,WMM2,1401002,false,false,1489,image-keyboard-response,24
true,10,0,4,1,false,z,true,false,0.0-2.0-0.48-0.437-3.437,1,0,1,81,false,stim,false,1,1610.0,3,0,1,32186,WMM2,1404120,false,false,1492,image-keyboard-response,25
true,10,2,4,0,false,q,true,false,0.0-2.0-0.48-0.438-3.438,1,0,1,68,false,stim,false,0,831.0,3,1,0,32186,WMM2,1406459,false,false,1495,image-keyboard-response,26
true,10,1,4,0,false,q,true,false,0.0-2.0-0.48-0.439-3.439,1,0,1,90,false,stim,false,0,784.0,3,1,0,32186,WMM2,1408752,false,false,1498,image-keyboard-response,27
true,10,0,4,1,false,z,true,false,0.0-2.0-0.48-0.440-3.440,1,0,1,81,false,stim,false,1,1187.0000000002328,3,0,1,32186,WMM2,1411451,false,false,1501,image-keyboard-response,28
true,10,2,4,0,false,q,true,false,0.0-2.0-0.49-0.441-3.441,1,0,1,68,false,stim,false,0,900.0,3,1,0,32186,WMM2,1413860,false,false,1504,image-keyboard-response,29
true,10,2,4,2,true,d,false,true,0.0-2.0-0.49-0.442-3.442,1,0,1,68,false,stim,false,2,1228.0,3,1,2,32186,WMM2,1416597,false,false,1507,image-keyboard-response,30
true,10,2,4,0,false,q,true,true,0.0-2.0-0.49-0.443-3.443,1,0,1,68,false,stim,false,0,1035.9999999997672,3,1,0,32186,WMM2,1419141,false,true,1510,image-keyboard-response,31
true,10,2,4,0,false,q,true,false,0.0-2.0-0.49-0.444-3.444,1,0,1,68,false,stim,false,0,1118.0,3,1,0,32186,WMM2,1421766,false,false,1513,image-keyboard-response,32
true,10,2,4,2,true,d,false,true,0.0-2.0-0.49-0.445-3.445,1,0,1,68,false,stim,false,2,1206.0,3,1,2,32186,WMM2,1424480,false,false,1516,image-keyboard-response,33
true,10,0,4,1,false,z,true,false,0.0-2.0-0.49-0.446-3.446,1,0,1,81,false,stim,false,1,1543.0,3,0,1,32186,WMM2,1427531,false,false,1519,image-keyboard-response,34
true,10,1,4,1,true,z,false,true,0.0-2.0-0.49-0.447-3.447,1,0,1,90,false,stim,false,1,1247.0,3,0,1,32186,WMM2,1430285,false,false,1522,image-keyboard-response,35
true,10,1,4,1,true,z,false,true,0.0-2.0-0.49-0.448-3.448,1,0,1,90,false,stim,false,1,1450.0,3,0,1,32186,WMM2,1433242,false,false,1525,image-keyboard-response,36
true,10,2,4,2,true,d,false,true,0.0-2.0-0.49-0.449-3.449,1,0,1,68,false,stim,false,2,1602.0,3,1,2,32186,WMM2,1436354,false,false,1528,image-keyboard-response,37
true,10,2,4,1,false,z,true,false,0.0-2.0-0.50-0.450-3.450,1,0,1,68,false,stim,false,1,931.0,3,0,1,32186,WMM2,1438794,false,false,1531,image-keyboard-response,38
true,10,1,4,0,false,q,true,false,0.0-2.0-0.50-0.451-3.451,1,0,1,90,false,stim,false,0,1988.0,3,1,0,32186,WMM2,1442289,false,false,1534,image-keyboard-response,39
true,10,2,4,2,true,d,false,true,0.0-2.0-0.50-0.452-3.452,1,0,1,68,false,stim,false,2,909.9999999997672,3,1,2,32186,WMM2,1444708,false,false,1537,image-keyboard-response,40
true,10,0,4,1,false,z,true,false,0.0-2.0-0.50-0.453-3.453,1,0,1,81,false,stim,false,1,1430.0,3,0,1,32186,WMM2,1447646,false,false,1540,image-keyboard-response,41
true,10,2,4,0,false,q,true,false,0.0-2.0-0.50-0.454-3.454,1,0,1,68,false,stim,false,0,1012.0,3,1,0,32186,WMM2,1450167,false,false,1543,image-keyboard-response,42
true,10,2,4,2,true,d,false,false,0.0-2.0-0.50-0.455-3.455,1,0,1,68,false,stim,false,2,924.0,3,1,2,32186,WMM2,1452599,false,true,1546,image-keyboard-response,43
true,10,2,4,0,false,q,true,false,0.0-2.0-0.50-0.456-3.456,1,0,1,68,false,stim,false,0,1547.0,3,1,0,32186,WMM2,1455654,false,false,1549,image-keyboard-response,44
true,10,1,4,2,false,d,true,false,0.0-2.0-0.50-0.457-3.457,1,0,1,90,false,stim,false,2,1288.0,3,1,2,32186,WMM2,1458450,false,false,1552,image-keyboard-response,45
true,10,2,4,1,false,z,true,false,0.0-2.0-0.50-0.458-3.458,1,0,1,68,false,stim,false,1,1573.0,3,0,1,32186,WMM2,1461531,false,false,1555,image-keyboard-response,46
true,10,1,4,0,false,q,true,false,0.0-2.0-0.51-0.459-3.459,1,0,1,90,false,stim,false,0,1211.0,3,1,0,32186,WMM2,1464251,false,false,1558,image-keyboard-response,47
true,10,0,4,1,false,z,true,true,0.0-2.0-0.51-0.460-3.460,1,0,1,81,false,stim,false,1,949.9999999997672,3,0,1,32186,WMM2,1466709,false,true,1561,image-keyboard-response,48
true,10,0,4,1,false,z,true,false,0.0-2.0-0.51-0.461-3.461,1,0,1,81,false,stim,false,1,1042.0,3,0,1,32186,WMM2,1469258,false,false,1564,image-keyboard-response,49
true,10,0,4,0,true,q,false,true,0.0-2.0-0.51-0.462-3.462,1,0,1,81,false,stim,false,0,1000.0,3,1,0,32186,WMM2,1471766,false,false,1567,image-keyboard-response,50
true,10,2,4,2,true,d,false,true,0.0-2.0-0.51-0.463-3.463,1,0,1,68,false,stim,false,2,1712.0,3,1,2,32186,WMM2,1474987,false,false,1570,image-keyboard-response,51
true,10,0,4,1,false,z,true,false,0.0-2.0-0.51-0.464-3.464,1,0,1,81,false,stim,false,1,1522.0,3,1,1,32186,WMM2,1478017,false,false,1573,image-keyboard-response,52
true,10,0,4,0,true,q,false,true,0.0-2.0-0.51-0.465-3.465,1,0,1,81,false,stim,false,0,1749.0,3,0,0,32186,WMM2,1481274,false,false,1576,image-keyboard-response,53
true,10,2,4,2,true,d,false,true,0.0-2.0-0.51-0.466-3.466,1,0,1,68,false,stim,false,2,1382.0,3,1,2,32186,WMM2,1484162,false,false,1579,image-keyboard-response,54
true,10,0,4,2,false,d,true,false,0.0-2.0-0.51-0.467-3.467,1,0,1,81,false,stim,false,2,1038.0,3,1,2,32186,WMM2,1486707,false,false,1582,image-keyboard-response,55
true,10,0,4,2,false,d,true,false,0.0-2.0-0.52-0.468-3.468,1,0,1,81,false,stim,false,2,1259.0,3,1,2,32186,WMM2,1489474,false,false,1585,image-keyboard-response,56
true,10,2,4,1,false,z,true,false,0.0-2.0-0.52-0.469-3.469,1,0,1,68,false,stim,false,1,1259.0000000002328,3,1,1,32186,WMM2,1492240,false,false,1588,image-keyboard-response,57
true,10,1,4,0,false,q,true,true,0.0-2.0-0.52-0.470-3.470,1,0,1,90,false,stim,false,0,1177.0,3,0,0,32186,WMM2,1494925,false,true,1591,image-keyboard-response,58
true,10,1,4,0,false,q,true,false,0.0-2.0-0.52-0.471-3.471,1,0,1,90,false,stim,false,0,1150.9999999997672,3,0,0,32186,WMM2,1497583,false,false,1594,image-keyboard-response,59
true,10,2,4,2,true,d,false,true,0.0-2.0-0.52-0.472-3.472,1,0,1,68,false,stim,false,2,1581.0,3,1,2,32186,WMM2,1500671,false,false,1597,image-keyboard-response,60
true,11,2,2,2,true,d,false,true,0.0-2.0-0.52-0.473-3.473,0,1,1,68,true,stim,false,2,1517.0,3,1,2,32186,WMM2,1503696,false,false,1600,image-keyboard-response,1
true,11,1,2,1,true,z,false,true,0.0-2.0-0.52-0.474-3.474,0,1,1,90,false,stim,false,1,1647.0,3,1,1,32186,WMM2,1506856,false,false,1603,image-keyboard-response,2
true,11,0,2,2,false,d,false,true,0.0-2.0-0.52-0.475-3.475,0,1,1,81,false,stim,true,0,666.0,3,0,0,32186,WMM2,1509029,false,true,1606,image-keyboard-response,3
true,11,1,2,1,true,z,false,true,0.0-2.0-0.52-0.476-3.476,0,1,1,90,false,stim,false,1,1086.0,3,1,1,32186,WMM2,1511622,false,false,1609,image-keyboard-response,4
true,11,0,2,2,false,d,true,true,0.0-2.0-0.53-0.477-3.477,0,1,1,81,false,stim,false,2,1143.0,3,1,2,32186,WMM2,1514273,false,true,1612,image-keyboard-response,5
true,11,1,2,2,false,d,true,false,0.0-2.0-0.53-0.478-3.478,0,1,1,90,false,stim,false,0,1283.9999999997672,3,0,0,32186,WMM2,1517063,false,false,1615,image-keyboard-response,6
true,11,0,2,2,false,d,false,false,0.0-2.0-0.53-0.479-3.479,0,1,1,81,false,stim,true,0,1393.0,3,0,0,32186,WMM2,1519963,false,false,1618,image-keyboard-response,7
true,11,1,2,1,true,z,false,true,0.0-2.0-0.53-0.480-3.480,0,1,1,90,false,stim,false,1,1662.0,3,1,1,32186,WMM2,1523131,false,false,1621,image-keyboard-response,8
true,11,1,2,1,true,z,false,false,0.0-2.0-0.53-0.481-3.481,0,1,1,90,false,stim,false,1,1387.0,3,1,1,32186,WMM2,1526026,false,true,1624,image-keyboard-response,9
true,11,1,2,1,true,z,false,true,0.0-2.0-0.53-0.482-3.482,0,1,1,90,false,stim,false,1,1515.0000000002328,3,1,1,32186,WMM2,1529047,false,false,1627,image-keyboard-response,10
true,11,1,2,2,false,d,true,false,0.0-2.0-0.53-0.483-3.483,0,1,1,90,false,stim,false,0,1394.0,3,0,0,32186,WMM2,1531948,false,false,1630,image-keyboard-response,11
true,11,2,2,2,true,d,false,true,0.0-2.0-0.53-0.484-3.484,0,1,1,68,false,stim,false,2,1319.0,3,1,2,32186,WMM2,1534775,false,false,1633,image-keyboard-response,12
true,11,2,2,2,true,d,false,true,0.0-2.0-0.53-0.485-3.485,0,1,1,68,false,stim,false,2,763.0,3,1,2,32186,WMM2,1537045,false,false,1636,image-keyboard-response,13
true,11,2,2,2,true,d,false,true,0.0-2.0-0.54-0.486-3.486,0,1,1,68,false,stim,false,2,1686.0,3,1,2,32186,WMM2,1540239,false,false,1639,image-keyboard-response,14
true,11,2,2,2,true,d,false,true,0.0-2.0-0.54-0.487-3.487,0,1,1,68,false,stim,false,2,711.0,3,1,2,32186,WMM2,1542457,false,false,1642,image-keyboard-response,15
true,11,1,2,1,true,z,false,true,0.0-2.0-0.54-0.488-3.488,0,1,1,90,false,stim,false,1,1401.0000000002328,3,1,1,32186,WMM2,1545365,false,false,1645,image-keyboard-response,16
true,11,2,2,2,true,d,false,true,0.0-2.0-0.54-0.489-3.489,0,1,1,68,false,stim,false,0,1649.0,3,0,0,32186,WMM2,1548522,false,false,1648,image-keyboard-response,17
true,11,2,2,2,true,d,false,true,0.0-2.0-0.54-0.490-3.490,0,1,1,68,false,stim,false,2,1445.0,3,1,2,32186,WMM2,1551474,false,false,1651,image-keyboard-response,18
true,11,1,2,2,false,d,true,false,0.0-2.0-0.54-0.491-3.491,0,1,1,90,false,stim,false,0,1148.0,3,0,0,32186,WMM2,1554129,false,false,1654,image-keyboard-response,19
true,11,2,2,1,false,z,true,true,0.0-2.0-0.54-0.492-3.492,0,1,1,68,false,stim,false,1,1273.0,3,1,1,32186,WMM2,1556910,false,true,1657,image-keyboard-response,20
true,11,2,2,1,false,z,true,false,0.0-2.0-0.54-0.493-3.493,0,1,1,68,false,stim,false,1,1688.0000000002328,3,1,1,32186,WMM2,1560106,false,false,1660,image-keyboard-response,21
true,11,1,2,2,false,d,true,false,0.0-2.0-0.54-0.494-3.494,0,1,1,90,false,stim,false,0,735.0,3,0,0,32186,WMM2,1562350,false,false,1663,image-keyboard-response,22
true,11,0,2,2,false,d,true,false,0.0-2.0-0.55-0.495-3.495,0,1,1,81,false,stim,false,2,664.0,3,1,2,32186,WMM2,1564523,false,false,1666,image-keyboard-response,23
true,11,2,2,2,true,d,false,true,0.0-2.0-0.55-0.496-3.496,0,1,1,68,false,stim,false,2,2192.0,3,1,2,32186,WMM2,1568223,false,false,1669,image-keyboard-response,24
true,11,2,2,2,true,d,false,true,0.0-2.0-0.55-0.497-3.497,0,1,1,68,false,stim,false,0,2665.999999999767,3,0,0,32186,WMM2,1572397,false,false,1672,image-keyboard-response,25
true,11,2,2,2,true,d,false,true,0.0-2.0-0.55-0.498-3.498,0,1,1,68,false,stim,false,0,1646.0,3,0,0,32186,WMM2,1575552,false,false,1675,image-keyboard-response,26
true,11,2,2,2,true,d,false,true,0.0-2.0-0.55-0.499-3.499,0,1,1,68,false,stim,false,2,2845.000000000233,3,1,2,32186,WMM2,1579904,false,false,1678,image-keyboard-response,27
true,11,1,2,1,true,z,false,true,0.0-2.0-0.55-0.500-3.500,0,1,1,90,false,stim,false,1,2013.0,3,1,1,32186,WMM2,1583424,false,false,1681,image-keyboard-response,28
true,11,1,2,1,true,z,false,true,0.0-2.0-0.55-0.501-3.501,0,1,1,90,false,stim,false,1,1504.0,3,1,1,32186,WMM2,1586436,false,false,1684,image-keyboard-response,29
true,11,1,2,1,true,z,false,false,0.0-2.0-0.55-0.502-3.502,0,1,1,90,false,stim,false,1,1111.0,3,1,1,32186,WMM2,1589056,false,true,1687,image-keyboard-response,30
true,11,2,2,2,true,d,false,true,0.0-2.0-0.55-0.503-3.503,0,1,1,68,false,stim,false,0,1124.0,3,0,0,32186,WMM2,1591686,false,false,1690,image-keyboard-response,31
true,11,2,2,2,true,d,false,true,0.0-2.0-0.56-0.504-3.504,0,1,1,68,false,stim,false,0,1211.0,3,0,0,32186,WMM2,1594405,false,false,1693,image-keyboard-response,32
true,11,1,2,2,false,d,true,false,0.0-2.0-0.56-0.505-3.505,0,1,1,90,false,stim,false,2,1344.0,3,1,2,32186,WMM2,1597257,false,false,1696,image-keyboard-response,33
true,11,2,2,2,true,d,false,true,0.0-2.0-0.56-0.506-3.506,0,1,1,68,false,stim,false,0,645.0,3,0,0,32186,WMM2,1599409,false,false,1699,image-keyboard-response,34
true,11,2,2,2,true,d,false,true,0.0-2.0-0.56-0.507-3.507,0,1,1,68,false,stim,false,2,1584.9999999997672,3,1,2,32186,WMM2,1602508,false,false,1702,image-keyboard-response,35
true,11,2,2,2,true,d,false,true,0.0-2.0-0.56-0.508-3.508,0,1,1,68,false,stim,false,2,1304.0,3,1,2,32186,WMM2,1605319,false,false,1705,image-keyboard-response,36
true,11,2,2,1,false,z,true,false,0.0-2.0-0.56-0.509-3.509,0,1,1,68,false,stim,false,1,1087.9999999997672,3,1,1,32186,WMM2,1607915,false,false,1708,image-keyboard-response,37
true,11,1,2,2,false,d,true,false,0.0-2.0-0.56-0.510-3.510,0,1,1,90,false,stim,false,0,1055.0,3,0,0,32186,WMM2,1610477,false,false,1711,image-keyboard-response,38
true,11,2,2,1,false,z,true,false,0.0-2.0-0.56-0.511-3.511,0,1,1,68,false,stim,false,1,1278.0,3,1,1,32186,WMM2,1613262,false,false,1714,image-keyboard-response,39
true,12,0,3,1,false,z,true,true,0.0-2.0-0.56-0.512-3.512,0,1,1,81,true,stim,false,1,807.0,3,1,1,32186,WMM2,1615576,false,true,1717,image-keyboard-response,1
true,12,0,3,2,false,d,true,false,0.0-2.0-0.57-0.513-3.513,0,1,1,81,false,stim,false,2,1055.0,3,1,2,32186,WMM2,1618139,false,false,1720,image-keyboard-response,2
true,12,2,3,1,false,z,true,false,0.0-2.0-0.57-0.514-3.514,0,1,1,68,false,stim,false,1,962.0,3,1,1,32186,WMM2,1620608,false,false,1723,image-keyboard-response,3
true,12,2,3,2,true,d,false,false,0.0-2.0-0.57-0.515-3.515,0,1,1,68,false,stim,false,2,1606.0000000002328,3,1,2,32186,WMM2,1623721,false,true,1726,image-keyboard-response,4
true,12,0,3,1,false,z,true,false,0.0-2.0-0.57-0.516-3.516,0,1,1,81,false,stim,false,1,1349.0000000002328,3,1,1,32186,WMM2,1626578,false,false,1729,image-keyboard-response,5
true,12,2,3,1,false,z,false,false,0.0-2.0-0.57-0.517-3.517,0,1,1,68,false,stim,true,2,1406.0000000002328,3,0,0,32186,WMM2,1629491,false,false,1732,image-keyboard-response,6
true,12,2,3,2,true,d,false,true,0.0-2.0-0.57-0.518-3.518,0,1,1,68,false,stim,false,2,947.0,3,1,2,32186,WMM2,1631947,false,false,1735,image-keyboard-response,7
true,12,1,3,1,true,z,false,true,0.0-2.0-0.57-0.519-3.519,0,1,1,90,false,stim,false,2,1127.9999999997672,3,0,0,32186,WMM2,1634582,false,false,1738,image-keyboard-response,8
true,12,1,3,1,true,z,false,true,0.0-2.0-0.57-0.520-3.520,0,1,1,90,false,stim,false,2,1339.0,3,0,0,32186,WMM2,1637427,false,false,1741,image-keyboard-response,9
true,12,0,3,1,false,z,true,true,0.0-2.0-0.57-0.521-3.521,0,1,1,81,false,stim,false,1,1527.0000000002328,3,1,1,32186,WMM2,1640462,false,true,1744,image-keyboard-response,10
true,12,0,3,1,false,z,true,false,0.0-2.0-0.58-0.522-3.522,0,1,1,81,false,stim,false,1,1131.0,3,1,1,32186,WMM2,1643101,false,false,1747,image-keyboard-response,11
true,12,1,3,1,true,z,false,true,0.0-2.0-0.58-0.523-3.523,0,1,1,90,false,stim,false,2,1489.0,3,0,0,32186,WMM2,1646098,false,false,1750,image-keyboard-response,12
true,12,1,3,1,true,z,false,true,0.0-2.0-0.58-0.524-3.524,0,1,1,90,false,stim,false,1,1960.0,3,1,1,32186,WMM2,1649566,false,false,1753,image-keyboard-response,13
true,12,1,3,1,true,z,false,true,0.0-2.0-0.58-0.525-3.525,0,1,1,90,false,stim,false,2,1379.0000000002328,3,0,0,32186,WMM2,1652452,false,false,1756,image-keyboard-response,14
true,12,2,3,2,true,d,false,true,0.0-2.0-0.58-0.526-3.526,0,1,1,68,false,stim,false,2,1429.0,3,1,2,32186,WMM2,1655388,false,false,1759,image-keyboard-response,15
true,12,1,3,1,true,z,false,false,0.0-2.0-0.58-0.527-3.527,0,1,1,90,false,stim,false,2,1077.9999999997672,3,0,0,32186,WMM2,1657974,false,true,1762,image-keyboard-response,16
true,12,2,3,2,true,d,false,true,0.0-2.0-0.58-0.528-3.528,0,1,1,68,false,stim,false,2,841.0,3,1,2,32186,WMM2,1660323,false,false,1765,image-keyboard-response,17
true,12,2,3,2,true,d,false,true,0.0-2.0-0.58-0.529-3.529,0,1,1,68,false,stim,false,2,1269.0,3,1,2,32186,WMM2,1663099,false,false,1768,image-keyboard-response,18
true,12,1,3,1,true,z,false,true,0.0-2.0-0.58-0.530-3.530,0,1,1,90,false,stim,false,1,1685.0,3,1,1,32186,WMM2,1666293,false,false,1771,image-keyboard-response,19
true,12,1,3,1,true,z,false,true,0.0-2.0-0.59-0.531-3.531,0,1,1,90,false,stim,false,2,1241.0,3,0,0,32186,WMM2,1669043,false,false,1774,image-keyboard-response,20
true,12,1,3,1,true,z,false,true,0.0-2.0-0.59-0.532-3.532,0,1,1,90,false,stim,false,2,1268.0000000002328,3,1,0,32186,WMM2,1671818,false,false,1777,image-keyboard-response,21
true,12,1,3,1,true,z,false,true,0.0-2.0-0.59-0.533-3.533,0,1,1,90,false,stim,false,1,1330.0,3,0,1,32186,WMM2,1674655,false,false,1780,image-keyboard-response,22
true,12,1,3,1,true,z,false,true,0.0-2.0-0.59-0.534-3.534,0,1,1,90,false,stim,false,1,1077.0,3,0,1,32186,WMM2,1677239,false,false,1783,image-keyboard-response,23
true,12,2,3,2,true,d,false,false,0.0-2.0-0.59-0.535-3.535,0,1,1,68,false,stim,false,2,1331.0000000002328,3,1,2,32186,WMM2,1680078,false,true,1786,image-keyboard-response,24
true,12,2,3,2,true,d,false,true,0.0-2.0-0.59-0.536-3.536,0,1,1,68,false,stim,false,2,1605.0,3,1,2,32186,WMM2,1683190,false,false,1789,image-keyboard-response,25
true,12,1,3,1,true,z,false,true,0.0-2.0-0.59-0.537-3.537,0,1,1,90,false,stim,false,2,1342.0,3,1,0,32186,WMM2,1686040,false,false,1792,image-keyboard-response,26
true,12,1,3,1,true,z,false,true,0.0-2.0-0.59-0.538-3.538,0,1,1,90,false,stim,false,1,2143.0,3,0,1,32186,WMM2,1689689,false,false,1795,image-keyboard-response,27
true,12,2,3,2,true,d,false,true,0.0-2.0-0.59-0.539-3.539,0,1,1,68,false,stim,false,2,1149.0000000002328,3,1,2,32186,WMM2,1692347,false,false,1798,image-keyboard-response,28
true,12,2,3,2,true,d,false,false,0.0-2.0-0.60-0.540-3.540,0,1,1,68,false,stim,false,2,1323.0000000002328,3,1,2,32186,WMM2,1695184,false,true,1801,image-keyboard-response,29
true,12,1,3,1,true,z,false,true,0.0-2.0-0.60-0.541-3.541,0,1,1,90,false,stim,false,2,746.0,3,1,0,32186,WMM2,1697437,false,false,1804,image-keyboard-response,30
true,13,1,2,1,true,z,false,false,0.0-2.0-0.60-0.542-3.542,1,0,1,90,true,stim,false,1,919.0,3,1,0,32186,WMM2,1699864,false,true,1807,image-keyboard-response,1
true,13,2,2,2,true,d,false,true,0.0-2.0-0.60-0.543-3.543,1,0,1,68,false,stim,false,2,1262.0,3,1,2,32186,WMM2,1702632,false,false,1810,image-keyboard-response,2
true,13,2,2,1,false,z,true,false,0.0-2.0-0.60-0.544-3.544,1,0,1,68,false,stim,false,1,1598.0,3,1,0,32186,WMM2,1705737,false,false,1813,image-keyboard-response,3
true,13,1,2,2,false,d,false,false,0.0-2.0-0.60-0.545-3.545,1,0,1,90,false,stim,true,1,1009.0,3,0,1,32186,WMM2,1708252,false,false,1816,image-keyboard-response,4
true,13,2,2,2,true,d,false,true,0.0-2.0-0.60-0.546-3.546,1,0,1,68,false,stim,false,1,1233.9999999997672,3,0,1,32186,WMM2,1710995,false,false,1819,image-keyboard-response,5
true,13,2,2,2,true,d,false,true,0.0-2.0-0.60-0.547-3.547,1,0,1,68,false,stim,false,1,1204.9999999997672,3,0,1,32186,WMM2,1713706,false,false,1822,image-keyboard-response,6
true,13,2,2,2,true,d,false,true,0.0-2.0-0.60-0.548-3.548,1,0,1,68,false,stim,false,2,744.9999999997672,3,1,2,32186,WMM2,1715957,false,false,1825,image-keyboard-response,7
true,13,1,2,1,true,z,false,true,0.0-2.0-0.61-0.549-3.549,1,0,1,90,false,stim,false,1,1764.0,3,1,0,32186,WMM2,1719230,false,false,1828,image-keyboard-response,8
true,13,1,2,1,true,z,false,true,0.0-2.0-0.61-0.550-3.550,1,0,1,90,false,stim,false,1,1344.0,3,1,0,32186,WMM2,1722081,false,false,1831,image-keyboard-response,9
true,13,2,2,2,true,d,false,true,0.0-2.0-0.61-0.551-3.551,1,0,1,68,false,stim,false,1,1080.0,3,0,1,32186,WMM2,1724669,false,false,1834,image-keyboard-response,10
true,13,2,2,2,true,d,false,true,0.0-2.0-0.61-0.552-3.552,1,0,1,68,false,stim,false,2,986.0,3,1,2,32186,WMM2,1727163,false,false,1837,image-keyboard-response,11
true,13,1,2,1,true,z,false,false,0.0-2.0-0.61-0.553-3.553,1,0,1,90,false,stim,false,1,2087.0,3,1,0,32186,WMM2,1730757,false,true,1840,image-keyboard-response,12
true,13,2,2,2,true,d,false,true,0.0-2.0-0.61-0.554-3.554,1,0,1,68,false,stim,false,2,860.0,3,1,2,32186,WMM2,1733125,false,false,1843,image-keyboard-response,13
true,13,2,2,2,true,d,false,true,0.0-2.0-0.61-0.555-3.555,1,0,1,68,false,stim,false,1,1133.0,3,0,1,32186,WMM2,1735765,false,false,1846,image-keyboard-response,14
true,13,2,2,2,true,d,false,true,0.0-2.0-0.61-0.556-3.556,1,0,1,68,false,stim,false,1,1313.0,3,0,1,32186,WMM2,1738586,false,false,1849,image-keyboard-response,15
true,13,2,2,2,true,d,false,true,0.0-2.0-0.61-0.557-3.557,1,0,1,68,false,stim,false,2,1446.0,3,1,2,32186,WMM2,1741539,false,false,1852,image-keyboard-response,16
true,13,1,2,1,true,z,false,true,0.0-2.0-0.62-0.558-3.558,1,0,1,90,false,stim,false,1,1557.0,3,1,0,32186,WMM2,1744604,false,false,1855,image-keyboard-response,17
true,13,2,2,2,true,d,false,true,0.0-2.0-0.62-0.559-3.559,1,0,1,68,false,stim,false,1,997.0,3,0,1,32186,WMM2,1747108,false,false,1858,image-keyboard-response,18
true,13,2,2,2,true,d,false,true,0.0-2.0-0.62-0.560-3.560,1,0,1,68,false,stim,false,2,995.0,3,1,2,32186,WMM2,1749610,false,false,1861,image-keyboard-response,19
true,13,2,2,2,true,d,false,true,0.0-2.0-0.62-0.561-3.561,1,0,1,68,false,stim,false,1,1231.0,3,0,1,32186,WMM2,1752348,false,false,1864,image-keyboard-response,20
true,13,2,2,2,true,d,false,true,0.0-2.0-0.62-0.562-3.562,1,0,1,68,false,stim,false,1,2075.999999999767,3,1,1,32186,WMM2,1755933,false,false,1867,image-keyboard-response,21
true,13,2,2,2,true,d,false,true,0.0-2.0-0.62-0.563-3.563,1,0,1,68,false,stim,false,2,1699.0,3,0,2,32186,WMM2,1759138,false,false,1870,image-keyboard-response,22
true,13,1,2,1,true,z,false,true,0.0-2.0-0.62-0.564-3.564,1,0,1,90,false,stim,false,1,1377.9999999997672,3,1,0,32186,WMM2,1762024,false,false,1873,image-keyboard-response,23
true,13,2,2,1,false,z,true,false,0.0-2.0-0.62-0.565-3.565,1,0,1,68,false,stim,false,1,1061.0,3,1,0,32186,WMM2,1764592,false,false,1876,image-keyboard-response,24
true,13,2,2,2,true,d,false,true,0.0-2.0-0.62-0.566-3.566,1,0,1,68,false,stim,false,2,972.0,3,0,2,32186,WMM2,1767072,false,false,1879,image-keyboard-response,25
true,13,2,2,2,true,d,false,true,0.0-2.0-0.63-0.567-3.567,1,0,1,68,false,stim,false,1,1390.9999999997672,3,1,1,32186,WMM2,1769970,false,false,1882,image-keyboard-response,26
true,13,2,2,2,true,d,false,true,0.0-2.0-0.63-0.568-3.568,1,0,1,68,false,stim,false,1,1492.0,3,1,1,32186,WMM2,1772970,false,false,1885,image-keyboard-response,27
true,13,1,2,1,true,z,false,true,0.0-2.0-0.63-0.569-3.569,1,0,1,90,false,stim,false,1,1833.0,3,1,0,32186,WMM2,1776311,false,false,1888,image-keyboard-response,28
true,13,2,2,2,true,d,false,true,0.0-2.0-0.63-0.570-3.570,1,0,1,68,false,stim,false,1,975.9999999997672,3,1,1,32186,WMM2,1778795,false,false,1891,image-keyboard-response,29
true,13,1,2,2,false,d,true,false,0.0-2.0-0.63-0.571-3.571,1,0,1,90,false,stim,false,2,1631.0,3,0,2,32186,WMM2,1781933,false,false,1894,image-keyboard-response,30
false,14,-1,0,1,false,z,true,false,0.0-2.0-0.63-0.572-3.572,1,1,0,,true,stim,false,1,,3,1,0,32186,WMM2,1867180,false,false,1978,image-keyboard-response,1
true,14,2,0,2,true,d,false,true,0.0-2.0-0.63-0.573-3.573,1,1,0,68,false,stim,false,2,2688.000000000233,3,0,2,32186,WMM2,1871377,false,false,1981,image-keyboard-response,2
true,14,2,0,2,true,d,false,true,0.0-2.0-0.63-0.574-3.574,1,1,0,68,false,stim,false,2,1746.0,3,0,2,32186,WMM2,1874630,false,false,1984,image-keyboard-response,3
true,14,0,0,1,false,z,true,false,0.0-2.0-0.63-0.575-3.575,1,1,0,81,false,stim,false,1,1848.0,3,1,0,32186,WMM2,1877986,false,false,1987,image-keyboard-response,4
true,14,1,0,2,false,d,true,false,0.0-2.0-0.64-0.576-3.576,1,1,0,90,false,stim,false,2,1666.0,3,1,1,32186,WMM2,1881160,false,false,1990,image-keyboard-response,5
true,14,0,0,1,false,z,true,false,0.0-2.0-0.64-0.577-3.577,1,1,0,81,false,stim,false,1,870.0,3,1,0,32186,WMM2,1883537,false,false,1993,image-keyboard-response,6
true,14,1,0,1,true,z,false,true,0.0-2.0-0.64-0.578-3.578,1,1,0,90,false,stim,false,1,1490.0,3,1,0,32186,WMM2,1886536,false,false,1996,image-keyboard-response,7
true,14,2,0,2,true,d,false,true,0.0-2.0-0.64-0.579-3.579,1,1,0,68,false,stim,false,2,1382.0000000002328,3,0,2,32186,WMM2,1889425,false,false,1999,image-keyboard-response,8
true,14,1,0,1,true,z,false,true,0.0-2.0-0.64-0.580-3.580,1,1,0,90,false,stim,false,1,868.0,3,1,0,32186,WMM2,1891808,false,false,2002,image-keyboard-response,9
true,14,2,0,2,true,d,false,true,0.0-2.0-0.64-0.581-3.581,1,1,0,68,false,stim,false,2,703.0,3,0,2,32186,WMM2,1894018,false,false,2005,image-keyboard-response,10
true,14,2,0,2,true,d,false,true,0.0-2.0-0.64-0.582-3.582,1,1,0,68,false,stim,false,2,1035.0,3,1,1,32186,WMM2,1896562,false,false,2008,image-keyboard-response,11
true,14,2,0,2,true,d,false,true,0.0-2.0-0.64-0.583-3.583,1,1,0,68,false,stim,false,2,1212.0,3,1,1,32186,WMM2,1899281,false,false,2011,image-keyboard-response,12
true,14,2,0,2,true,d,false,true,0.0-2.0-0.64-0.584-3.584,1,1,0,68,false,stim,false,2,1361.0,3,0,2,32186,WMM2,1902150,false,false,2014,image-keyboard-response,13
true,14,1,0,1,true,z,false,true,0.0-2.0-0.65-0.585-3.585,1,1,0,90,false,stim,false,1,888.0,3,1,0,32186,WMM2,1904546,false,false,2017,image-keyboard-response,14
true,14,2,0,2,true,d,false,true,0.0-2.0-0.65-0.586-3.586,1,1,0,68,false,stim,false,2,952.0,3,0,2,32186,WMM2,1907005,false,false,2020,image-keyboard-response,15
true,14,1,0,2,false,d,true,true,0.0-2.0-0.65-0.587-3.587,1,1,0,90,false,stim,false,2,1245.9999999997672,3,1,1,32186,WMM2,1909758,false,true,2023,image-keyboard-response,16
true,14,2,0,2,true,d,false,true,0.0-2.0-0.65-0.588-3.588,1,1,0,68,false,stim,false,2,924.0,3,1,1,32186,WMM2,1912189,false,false,2026,image-keyboard-response,17
true,14,2,0,1,false,z,true,false,0.0-2.0-0.65-0.589-3.589,1,1,0,68,false,stim,false,1,1511.0,3,1,0,32186,WMM2,1915208,false,false,2029,image-keyboard-response,18
true,14,2,0,2,true,d,false,true,0.0-2.0-0.65-0.590-3.590,1,1,0,68,false,stim,false,2,1249.0,3,0,2,32186,WMM2,1917965,false,false,2032,image-keyboard-response,19
true,14,2,0,2,true,d,false,true,0.0-2.0-0.65-0.591-3.591,1,1,0,68,false,stim,false,2,1222.9999999997672,3,0,2,32186,WMM2,1920697,false,false,2035,image-keyboard-response,20
true,14,1,0,2,false,d,true,false,0.0-2.0-0.65-0.592-3.592,1,1,0,90,false,stim,false,2,1413.0,3,1,1,32186,WMM2,1923619,false,false,2038,image-keyboard-response,21
true,14,1,0,1,true,z,false,true,0.0-2.0-0.65-0.593-3.593,1,1,0,90,false,stim,false,1,1301.9999999997672,3,1,0,32186,WMM2,1926430,false,false,2041,image-keyboard-response,22
true,14,2,0,2,true,d,false,true,0.0-2.0-0.66-0.594-3.594,1,1,0,68,false,stim,false,2,842.0,3,1,1,32186,WMM2,1928782,false,false,2044,image-keyboard-response,23
true,14,2,0,2,true,d,false,true,0.0-2.0-0.66-0.595-3.595,1,1,0,68,false,stim,false,2,914.0,3,1,1,32186,WMM2,1931205,false,false,2047,image-keyboard-response,24
true,14,1,0,1,true,z,false,true,0.0-2.0-0.66-0.596-3.596,1,1,0,90,false,stim,false,1,1249.0,3,1,0,32186,WMM2,1933962,false,false,2050,image-keyboard-response,25
true,14,1,0,1,true,z,false,false,0.0-2.0-0.66-0.597-3.597,1,1,0,90,false,stim,false,1,1434.0,3,0,0,32186,WMM2,1936904,false,true,2053,image-keyboard-response,26
true,14,1,0,1,true,z,false,true,0.0-2.0-0.66-0.598-3.598,1,1,0,90,false,stim,false,1,1078.0,3,0,0,32186,WMM2,1939489,false,false,2056,image-keyboard-response,27
true,14,1,0,2,false,d,true,false,0.0-2.0-0.66-0.599-3.599,1,1,0,90,false,stim,false,2,1184.0,3,1,1,32186,WMM2,1942180,false,false,2059,image-keyboard-response,28
true,14,2,0,2,true,d,false,true,0.0-2.0-0.66-0.600-3.600,1,1,0,68,false,stim,false,2,736.0,3,0,2,32186,WMM2,1944424,false,false,2062,image-keyboard-response,29
true,14,2,0,2,true,d,false,true,0.0-2.0-0.66-0.601-3.601,1,1,0,68,false,stim,false,2,1365.0,3,0,2,32186,WMM2,1947296,false,false,2065,image-keyboard-response,30
true,14,2,0,2,true,d,false,true,0.0-2.0-0.66-0.602-3.602,1,1,0,68,false,stim,false,2,1282.0,3,0,2,32186,WMM2,1950086,false,false,2068,image-keyboard-response,31
true,14,2,0,2,true,d,false,true,0.0-2.0-0.67-0.603-3.603,1,1,0,68,false,stim,false,2,1164.0,3,0,2,32186,WMM2,1952759,false,false,2071,image-keyboard-response,32
true,14,2,0,2,true,d,false,true,0.0-2.0-0.67-0.604-3.604,1,1,0,68,false,stim,false,2,1253.0,3,1,1,32186,WMM2,1955519,false,false,2074,image-keyboard-response,33
true,14,2,0,2,true,d,false,true,0.0-2.0-0.67-0.605-3.605,1,1,0,68,false,stim,false,2,1240.0,3,0,2,32186,WMM2,1958268,false,false,2077,image-keyboard-response,34
true,14,1,0,1,true,z,false,true,0.0-2.0-0.67-0.606-3.606,1,1,0,90,false,stim,false,1,1018.0,3,0,0,32186,WMM2,1960793,false,false,2080,image-keyboard-response,35
true,15,2,1,1,false,z,false,false,0.0-2.0-0.67-0.607-3.607,0,1,0,68,true,stim,true,2,1299.0,3,0,2,32186,WMM2,1963597,false,false,2083,image-keyboard-response,1
true,15,1,1,0,false,q,false,false,0.0-2.0-0.67-0.608-3.608,0,1,0,90,false,stim,true,1,2058.0,3,0,0,32186,WMM2,1967162,false,false,2086,image-keyboard-response,2
true,15,2,1,2,true,d,false,false,0.0-2.0-0.67-0.609-3.609,0,1,0,68,false,stim,false,2,863.0,3,1,1,32186,WMM2,1969532,false,true,2089,image-keyboard-response,3
true,15,1,1,2,false,d,true,false,0.0-2.0-0.67-0.610-3.610,0,1,0,90,false,stim,false,2,1246.0,3,1,1,32186,WMM2,1972285,false,false,2092,image-keyboard-response,4
true,15,1,1,0,false,q,false,false,0.0-2.0-0.67-0.611-3.611,0,1,0,90,false,stim,true,1,1423.0,3,0,0,32186,WMM2,1975216,false,false,2095,image-keyboard-response,5
true,15,2,1,1,false,z,false,false,0.0-2.0-0.68-0.612-3.612,0,1,0,68,false,stim,true,2,868.9999999997672,3,0,2,32186,WMM2,1977593,false,false,2098,image-keyboard-response,6
true,15,0,1,0,true,q,false,true,0.0-2.0-0.68-0.613-3.613,0,1,0,81,false,stim,false,1,2058.0,3,0,0,32186,WMM2,1981164,false,false,2101,image-keyboard-response,7
true,15,0,1,2,false,d,true,false,0.0-2.0-0.68-0.614-3.614,0,1,0,81,false,stim,false,2,1529.0,3,1,1,32186,WMM2,1984200,false,false,2104,image-keyboard-response,8
true,15,2,1,2,true,d,false,true,0.0-2.0-0.68-0.615-3.615,0,1,0,68,false,stim,false,2,885.0,3,1,1,32186,WMM2,1986592,false,false,2107,image-keyboard-response,9
true,15,0,1,2,false,d,true,false,0.0-2.0-0.68-0.616-3.616,0,1,0,81,false,stim,false,2,1567.0,3,1,1,32186,WMM2,1989666,false,false,2110,image-keyboard-response,10
