answered,blockNum,choice,condition,corResp,correct,correct_response,explo,fb,internal_node_id,isStable_1,isStable_2,isStable_3,key_press,newBlock,part,persev,persevResp,rt,sessNum,stableAS,stimulus,subject,task,time_elapsed,training,trap,trial_index,trial_type,trialsInBlock
true,1,2,0,1,false,z,true,false,0.0-2.0-0.0-0.0-3.0,0,0,0,68,true,stim,false,-1,1356.9999999998836,0,0,0,38966,WMM1,541549,false,false,300,image-keyboard-response,1
true,1,1,0,1,true,z,false,true,0.0-2.0-0.0-0.1-3.1,0,0,0,90,false,stim,false,-1,580.0,0,0,2,38966,WMM1,543640,false,false,303,image-keyboard-response,2
true,1,0,0,1,false,z,true,false,0.0-2.0-0.0-0.2-3.2,0,0,0,81,false,stim,false,-1,1532.0,0,0,0,38966,WMM1,546679,false,false,306,image-keyboard-response,3
true,1,2,0,1,false,z,true,false,0.0-2.0-0.0-0.3-3.3,0,0,0,68,false,stim,false,-1,565.0,0,0,2,38966,WMM1,548752,false,false,309,image-keyboard-response,4
true,1,2,0,0,false,q,true,false,0.0-2.0-0.0-0.4-3.4,0,0,0,68,false,stim,false,-1,885.0,0,0,1,38966,WMM1,551144,false,false,312,image-keyboard-response,5
true,1,1,0,1,true,z,false,true,0.0-2.0-0.0-0.5-3.5,0,0,0,90,false,stim,false,-1,656.0,0,0,2,38966,WMM1,553308,false,false,315,image-keyboard-response,6
true,1,1,0,1,true,z,false,false,0.0-2.0-0.0-0.6-3.6,0,0,0,90,false,stim,false,-1,775.9999999998836,0,0,0,38966,WMM1,555593,false,true,318,image-keyboard-response,7
true,1,0,0,0,true,q,false,true,0.0-2.0-0.0-0.7-3.7,0,0,0,81,false,stim,false,-1,546.0,0,0,1,38966,WMM1,557647,false,false,321,image-keyboard-response,8
true,1,0,0,0,true,q,false,true,0.0-2.0-0.0-0.8-3.8,0,0,0,81,false,stim,false,-1,715.0,0,0,1,38966,WMM1,559870,false,false,324,image-keyboard-response,9
true,1,0,0,1,false,z,true,false,0.0-2.0-0.1-0.9-3.9,0,0,0,81,false,stim,false,-1,941.0,0,0,0,38966,WMM1,562320,false,false,327,image-keyboard-response,10
true,1,2,0,1,false,z,true,false,0.0-2.0-0.1-0.10-3.10,0,0,0,68,false,stim,false,-1,540.0,0,0,0,38966,WMM1,564367,false,false,330,image-keyboard-response,11
true,1,1,0,0,false,q,true,false,0.0-2.0-0.1-0.11-3.11,0,0,0,90,false,stim,false,-1,1065.0,0,0,1,38966,WMM1,566940,false,false,333,image-keyboard-response,12
true,1,0,0,1,false,z,true,false,0.0-2.0-0.1-0.12-3.12,0,0,0,81,false,stim,false,-1,821.0,0,0,0,38966,WMM1,569269,false,false,336,image-keyboard-response,13
true,1,2,0,1,false,z,true,false,0.0-2.0-0.1-0.13-3.13,0,0,0,68,false,stim,false,-1,576.0,0,0,2,38966,WMM1,571352,false,false,339,image-keyboard-response,14
true,1,1,0,1,true,z,false,true,0.0-2.0-0.1-0.14-3.14,0,0,0,90,false,stim,false,-1,671.0,0,0,2,38966,WMM1,573532,false,false,342,image-keyboard-response,15
true,1,2,0,0,false,q,true,false,0.0-2.0-0.1-0.15-3.15,0,0,0,68,false,stim,false,-1,1352.0,0,0,1,38966,WMM1,576391,false,false,345,image-keyboard-response,16
true,1,0,0,1,false,z,true,false,0.0-2.0-0.1-0.16-3.16,0,0,0,81,false,stim,false,-1,591.0,0,0,2,38966,WMM1,578491,false,false,348,image-keyboard-response,17
true,1,0,0,0,true,q,false,true,0.0-2.0-0.1-0.17-3.17,0,0,0,81,false,stim,false,-1,1038.9999999998836,0,0,1,38966,WMM1,581037,false,false,351,image-keyboard-response,18
true,1,0,0,0,true,q,false,true,0.0-2.0-0.2-0.18-3.18,0,0,0,81,false,stim,false,-1,418.0,0,0,1,38966,WMM1,582964,false,false,354,image-keyboard-response,19
true,1,1,0,1,true,z,false,false,0.0-2.0-0.2-0.19-3.19,0,0,0,90,false,stim,false,-1,787.0,0,0,2,38966,WMM1,585259,false,true,357,image-keyboard-response,20
true,1,2,0,1,false,z,true,false,0.0-2.0-0.2-0.20-3.20,0,0,0,68,false,stim,false,-1,787.9999999998836,0,0,0,38966,WMM1,587556,false,false,360,image-keyboard-response,21
true,1,1,0,0,false,q,true,false,0.0-2.0-0.2-0.21-3.21,0,0,0,90,false,stim,false,-1,653.0,0,0,1,38966,WMM1,589718,false,false,363,image-keyboard-response,22
true,1,1,0,0,false,q,true,false,0.0-2.0-0.2-0.22-3.22,0,0,0,90,false,stim,false,-1,926.0,0,0,1,38966,WMM1,592153,false,false,366,image-keyboard-response,23
true,1,0,0,1,false,z,true,false,0.0-2.0-0.2-0.23-3.23,0,0,0,81,false,stim,false,-1,1247.0,0,0,2,38966,WMM1,594909,false,false,369,image-keyboard-response,24
true,1,2,0,1,false,z,true,false,0.0-2.0-0.2-0.24-3.24,0,0,0,68,false,stim,false,-1,1328.0,0,0,0,38966,WMM1,597745,false,false,372,image-keyboard-response,25
true,1,1,0,1,true,z,false,true,0.0-2.0-0.2-0.25-3.25,0,0,0,90,false,stim,false,-1,1168.0,0,0,2,38966,WMM1,600422,false,false,375,image-keyboard-response,26
true,1,0,0,1,false,z,true,false,0.0-2.0-0.2-0.26-3.26,0,0,0,81,false,stim,false,-1,1093.0,0,0,0,38966,WMM1,603023,false,false,378,image-keyboard-response,27
true,1,2,0,1,false,z,true,false,0.0-2.0-0.3-0.27-3.27,0,0,0,68,false,stim,false,-1,936.0,0,0,2,38966,WMM1,605467,false,false,381,image-keyboard-response,28
true,1,1,0,0,false,q,true,false,0.0-2.0-0.3-0.28-3.28,0,0,0,90,false,stim,false,-1,639.0,0,0,1,38966,WMM1,607615,false,false,384,image-keyboard-response,29
true,1,2,0,1,false,z,true,false,0.0-2.0-0.3-0.29-3.29,0,0,0,68,false,stim,false,-1,1438.0,0,0,0,38966,WMM1,610562,false,false,387,image-keyboard-response,30
true,1,0,0,0,true,q,false,true,0.0-2.0-0.3-0.30-3.30,0,0,0,81,false,stim,false,-1,1662.0,0,0,1,38966,WMM1,613730,false,false,390,image-keyboard-response,31
true,1,2,0,1,false,z,true,false,0.0-2.0-0.3-0.31-3.31,0,0,0,68,false,stim,false,-1,1091.0,0,0,2,38966,WMM1,616329,false,false,393,image-keyboard-response,32
true,1,2,0,1,false,z,true,false,0.0-2.0-0.3-0.32-3.32,0,0,0,68,false,stim,false,-1,1665.0,0,0,0,38966,WMM1,619503,false,false,396,image-keyboard-response,33
true,1,1,0,1,true,z,false,false,0.0-2.0-0.3-0.33-3.33,0,0,0,90,false,stim,false,-1,933.0,0,0,0,38966,WMM1,621943,false,true,399,image-keyboard-response,34
true,1,0,0,1,false,z,true,false,0.0-2.0-0.3-0.34-3.34,0,0,0,81,false,stim,false,-1,1392.0,0,0,2,38966,WMM1,624847,false,false,402,image-keyboard-response,35
true,1,0,0,0,true,q,false,true,0.0-2.0-0.3-0.35-3.35,0,0,0,81,false,stim,false,-1,1391.0000000001164,0,0,1,38966,WMM1,627747,false,false,405,image-keyboard-response,36
true,1,0,0,0,true,q,false,true,0.0-2.0-0.4-0.36-3.36,0,0,0,81,false,stim,false,-1,459.0,0,0,1,38966,WMM1,629716,false,false,408,image-keyboard-response,37
true,1,1,0,1,true,z,false,false,0.0-2.0-0.4-0.37-3.37,0,0,0,90,false,stim,false,-1,1266.0,0,0,2,38966,WMM1,632490,false,true,411,image-keyboard-response,38
true,1,1,0,0,false,q,true,false,0.0-2.0-0.4-0.38-3.38,0,0,0,90,false,stim,false,-1,1101.0,0,0,1,38966,WMM1,635101,false,false,414,image-keyboard-response,39
true,1,0,0,0,true,q,false,true,0.0-2.0-0.4-0.39-3.39,0,0,0,81,false,stim,false,-1,514.0,0,0,1,38966,WMM1,637123,false,false,417,image-keyboard-response,40
true,1,2,0,1,false,z,true,true,0.0-2.0-0.4-0.40-3.40,0,0,0,68,false,stim,false,-1,1173.0,0,0,0,38966,WMM1,639806,false,true,420,image-keyboard-response,41
true,1,0,0,1,false,z,true,true,0.0-2.0-0.4-0.41-3.41,0,0,0,81,false,stim,false,-1,1121.9999999998836,0,0,2,38966,WMM1,642436,false,true,423,image-keyboard-response,42
true,1,0,0,1,false,z,true,false,0.0-2.0-0.4-0.42-3.42,0,0,0,81,false,stim,false,-1,1015.0,0,0,0,38966,WMM1,644960,false,false,426,image-keyboard-response,43
true,1,0,0,1,false,z,true,false,0.0-2.0-0.4-0.43-3.43,0,0,0,81,false,stim,false,-1,1252.0,0,0,2,38966,WMM1,647721,false,false,429,image-keyboard-response,44
true,1,2,0,1,false,z,true,false,0.0-2.0-0.4-0.44-3.44,0,0,0,68,false,stim,false,-1,1754.0,0,0,0,38966,WMM1,650984,false,false,432,image-keyboard-response,45
true,1,0,0,0,true,q,false,true,0.0-2.0-0.5-0.45-3.45,0,0,0,81,false,stim,false,-1,729.0,0,0,1,38966,WMM1,653222,false,false,435,image-keyboard-response,46
true,1,1,0,1,true,z,false,true,0.0-2.0-0.5-0.46-3.46,0,0,0,90,false,stim,false,-1,954.0,0,0,2,38966,WMM1,655684,false,false,438,image-keyboard-response,47
true,1,2,0,1,false,z,true,false,0.0-2.0-0.5-0.47-3.47,0,0,0,68,false,stim,false,-1,1054.0000000001164,0,0,0,38966,WMM1,658247,false,false,441,image-keyboard-response,48
true,1,0,0,1,false,z,true,false,0.0-2.0-0.5-0.48-3.48,0,0,0,81,false,stim,false,-1,1228.0,0,0,2,38966,WMM1,660983,false,false,444,image-keyboard-response,49
true,1,2,0,1,false,z,true,false,0.0-2.0-0.5-0.49-3.49,0,0,0,68,false,stim,false,-1,751.9999999998836,0,0,0,38966,WMM1,663244,false,false,447,image-keyboard-response,50
true,1,0,0,0,true,q,false,true,0.0-2.0-0.5-0.50-3.50,0,0,0,81,false,stim,false,-1,722.0,0,0,1,38966,WMM1,665475,false,false,450,image-keyboard-response,51
true,1,0,0,0,true,q,false,true,0.0-2.0-0.5-0.51-3.51,0,0,0,81,false,stim,false,-1,535.0,0,0,1,38966,WMM1,667518,false,false,453,image-keyboard-response,52
true,1,2,0,1,false,z,true,true,0.0-2.0-0.5-0.52-3.52,0,0,0,68,false,stim,false,-1,1094.0,0,1,2,38966,WMM1,670121,false,true,456,image-keyboard-response,53
true,1,2,0,1,false,z,true,false,0.0-2.0-0.5-0.53-3.53,0,0,0,68,false,stim,false,-1,742.0000000001164,0,0,0,38966,WMM1,672371,false,false,459,image-keyboard-response,54
true,1,0,0,1,false,z,true,false,0.0-2.0-0.6-0.54-3.54,0,0,0,81,false,stim,false,-1,618.0,0,0,0,38966,WMM1,674499,false,false,462,image-keyboard-response,55
true,1,1,0,0,false,q,true,false,0.0-2.0-0.6-0.55-3.55,0,0,0,90,false,stim,false,-1,362.0,0,0,1,38966,WMM1,676368,false,false,465,image-keyboard-response,56
true,1,2,0,1,false,z,true,false,0.0-2.0-0.6-0.56-3.56,0,0,0,68,false,stim,false,-1,607.0,0,1,2,38966,WMM1,678484,false,false,468,image-keyboard-response,57
true,1,0,0,0,true,q,false,true,0.0-2.0-0.6-0.57-3.57,0,0,0,81,false,stim,false,-1,1033.0,0,0,1,38966,WMM1,681025,false,false,471,image-keyboard-response,58
true,1,2,0,1,false,z,true,false,0.0-2.0-0.6-0.58-3.58,0,0,0,68,false,stim,false,-1,1257.0,0,1,2,38966,WMM1,683790,false,false,474,image-keyboard-response,59
true,1,1,0,0,false,q,true,false,0.0-2.0-0.6-0.59-3.59,0,0,0,90,false,stim,false,-1,708.0,0,0,1,38966,WMM1,686006,false,false,477,image-keyboard-response,60
true,2,0,3,2,false,d,true,true,0.0-2.0-0.6-0.60-3.60,0,0,1,81,true,stim,false,1,463.0,0,0,0,38966,WMM1,687977,false,true,480,image-keyboard-response,1
true,2,0,3,2,false,d,true,false,0.0-2.0-0.6-0.61-3.61,0,0,1,81,false,stim,false,1,587.0,0,0,0,38966,WMM1,690072,false,false,483,image-keyboard-response,2
true,2,0,3,1,false,z,true,false,0.0-2.0-0.6-0.62-3.62,0,0,1,81,false,stim,false,1,1229.0,0,1,2,38966,WMM1,692808,false,false,486,image-keyboard-response,3
true,2,2,3,2,true,d,false,true,0.0-2.0-0.7-0.63-3.63,0,0,1,68,false,stim,false,0,799.0,0,0,1,38966,WMM1,695115,false,false,489,image-keyboard-response,4
true,2,2,3,1,false,z,true,false,0.0-2.0-0.7-0.64-3.64,0,0,1,68,false,stim,false,1,610.0,0,1,2,38966,WMM1,697232,false,false,492,image-keyboard-response,5
true,2,2,3,1,false,z,true,false,0.0-2.0-0.7-0.65-3.65,0,0,1,68,false,stim,false,1,415.0,0,1,2,38966,WMM1,699155,false,false,495,image-keyboard-response,6
true,2,1,3,1,true,z,false,true,0.0-2.0-0.7-0.66-3.66,0,0,1,90,false,stim,false,1,543.0,0,1,2,38966,WMM1,701205,false,false,498,image-keyboard-response,7
true,2,2,3,2,true,d,false,true,0.0-2.0-0.7-0.67-3.67,0,0,1,68,false,stim,false,1,1105.9999999998836,0,0,0,38966,WMM1,703822,false,false,501,image-keyboard-response,8
true,2,2,3,2,true,d,false,true,0.0-2.0-0.7-0.68-3.68,0,0,1,68,false,stim,false,1,949.0,0,0,0,38966,WMM1,706279,false,false,504,image-keyboard-response,9
true,2,0,3,2,false,d,false,false,0.0-2.0-0.7-0.69-3.69,0,0,1,81,false,stim,true,0,1262.0,0,0,1,38966,WMM1,709050,false,false,507,image-keyboard-response,10
true,2,2,3,2,true,d,false,true,0.0-2.0-0.7-0.70-3.70,0,0,1,68,false,stim,false,1,938.9999999998836,0,0,0,38966,WMM1,711497,false,false,510,image-keyboard-response,11
true,2,1,3,2,false,d,true,true,0.0-2.0-0.7-0.71-3.71,0,0,1,90,false,stim,false,0,1016.0,0,0,1,38966,WMM1,714020,false,true,513,image-keyboard-response,12
true,2,1,3,2,false,d,true,true,0.0-2.0-0.8-0.72-3.72,0,0,1,90,false,stim,false,0,1067.0000000001164,0,0,1,38966,WMM1,716597,false,true,516,image-keyboard-response,13
true,2,1,3,1,true,z,false,true,0.0-2.0-0.8-0.73-3.73,0,0,1,90,false,stim,false,1,1043.0,0,1,2,38966,WMM1,719149,false,false,519,image-keyboard-response,14
true,2,0,3,2,false,d,true,false,0.0-2.0-0.8-0.74-3.74,0,0,1,81,false,stim,false,1,997.0,0,0,0,38966,WMM1,721655,false,false,522,image-keyboard-response,15
true,2,1,3,1,true,z,false,true,0.0-2.0-0.8-0.75-3.75,0,0,1,90,false,stim,false,1,486.0,0,1,2,38966,WMM1,723648,false,false,525,image-keyboard-response,16
true,2,1,3,2,false,d,false,false,0.0-2.0-0.8-0.76-3.76,0,0,1,90,false,stim,true,1,590.0,0,0,0,38966,WMM1,725746,false,false,528,image-keyboard-response,17
true,2,2,3,2,true,d,false,true,0.0-2.0-0.8-0.77-3.77,0,0,1,68,false,stim,false,0,577.0,0,0,1,38966,WMM1,727832,false,false,531,image-keyboard-response,18
true,2,2,3,2,true,d,false,false,0.0-2.0-0.8-0.78-3.78,0,0,1,68,false,stim,false,0,549.0000000001164,0,0,1,38966,WMM1,729889,false,true,534,image-keyboard-response,19
true,2,2,3,2,true,d,false,true,0.0-2.0-0.8-0.79-3.79,0,0,1,68,false,stim,false,1,1290.0000000001164,0,0,0,38966,WMM1,732687,false,false,537,image-keyboard-response,20
true,2,2,3,1,false,z,true,false,0.0-2.0-0.8-0.80-3.80,0,0,1,68,false,stim,false,1,734.0,0,1,2,38966,WMM1,734929,false,false,540,image-keyboard-response,21
true,2,1,3,2,false,d,true,false,0.0-2.0-0.9-0.81-3.81,0,0,1,90,false,stim,false,0,441.0,0,0,1,38966,WMM1,736880,false,false,543,image-keyboard-response,22
true,2,0,3,2,false,d,true,false,0.0-2.0-0.9-0.82-3.82,0,0,1,81,false,stim,false,1,1252.9999999998836,0,0,0,38966,WMM1,739642,false,false,546,image-keyboard-response,23
true,2,2,3,2,true,d,false,true,0.0-2.0-0.9-0.83-3.83,0,0,1,68,false,stim,false,0,881.0,0,0,1,38966,WMM1,742032,false,false,549,image-keyboard-response,24
true,2,2,3,2,true,d,false,true,0.0-2.0-0.9-0.84-3.84,0,0,1,68,false,stim,false,0,1010.0,0,0,1,38966,WMM1,744552,false,false,552,image-keyboard-response,25
true,2,2,3,1,false,z,true,false,0.0-2.0-0.9-0.85-3.85,0,0,1,68,false,stim,false,1,599.9999999998836,0,1,2,38966,WMM1,746662,false,false,555,image-keyboard-response,26
true,2,0,3,2,false,d,true,false,0.0-2.0-0.9-0.86-3.86,0,0,1,81,false,stim,false,1,1008.0,0,0,0,38966,WMM1,749179,false,false,558,image-keyboard-response,27
true,2,2,3,2,true,d,false,true,0.0-2.0-0.9-0.87-3.87,0,0,1,68,false,stim,false,1,1167.9999999998836,0,0,0,38966,WMM1,751855,false,false,561,image-keyboard-response,28
true,2,2,3,1,false,z,true,false,0.0-2.0-0.9-0.88-3.88,0,0,1,68,false,stim,false,1,830.0,0,1,2,38966,WMM1,754193,false,false,564,image-keyboard-response,29
true,2,1,3,1,true,z,false,true,0.0-2.0-0.9-0.89-3.89,0,0,1,90,false,stim,false,1,1160.0,0,1,2,38966,WMM1,756861,false,false,567,image-keyboard-response,30
true,2,2,3,2,true,d,false,true,0.0-2.0-0.10-0.90-3.90,0,0,1,68,false,stim,false,1,1222.9999999998836,0,0,0,38966,WMM1,759592,false,false,570,image-keyboard-response,31
true,2,0,3,2,false,d,false,false,0.0-2.0-0.10-0.91-3.91,0,0,1,81,false,stim,true,0,1349.0,0,0,1,38966,WMM1,762450,false,false,573,image-keyboard-response,32
true,2,2,3,2,true,d,false,true,0.0-2.0-0.10-0.92-3.92,0,0,1,68,false,stim,false,1,832.0,0,0,0,38966,WMM1,764790,false,false,576,image-keyboard-response,33
true,2,1,3,2,false,d,true,false,0.0-2.0-0.10-0.93-3.93,0,0,1,90,false,stim,false,0,612.0,0,0,1,38966,WMM1,766911,false,false,579,image-keyboard-response,34
true,2,2,3,1,false,z,true,false,0.0-2.0-0.10-0.94-3.94,0,0,1,68,false,stim,false,1,1122.0000000001164,0,1,2,38966,WMM1,769543,false,false,582,image-keyboard-response,35
true,2,2,3,2,true,d,false,true,0.0-2.0-0.10-0.95-3.95,0,0,1,68,false,stim,false,1,1316.0,0,0,0,38966,WMM1,772368,false,false,585,image-keyboard-response,36
true,2,2,3,1,false,z,true,false,0.0-2.0-0.10-0.96-3.96,0,0,1,68,false,stim,false,1,805.0,0,1,2,38966,WMM1,774682,false,false,588,image-keyboard-response,37
true,2,2,3,2,true,d,false,true,0.0-2.0-0.10-0.97-3.97,0,0,1,68,false,stim,false,0,1005.9999999998836,0,0,1,38966,WMM1,777197,false,false,591,image-keyboard-response,38
true,2,1,3,1,true,z,false,true,0.0-2.0-0.10-0.98-3.98,0,0,1,90,false,stim,false,1,1052.0000000001164,0,1,2,38966,WMM1,779758,false,false,594,image-keyboard-response,39
true,2,2,3,1,false,z,true,false,0.0-2.0-0.11-0.99-3.99,0,0,1,68,false,stim,false,1,1463.0,0,1,2,38966,WMM1,782730,false,false,597,image-keyboard-response,40
true,2,2,3,2,true,d,false,true,0.0-2.0-0.11-0.100-3.100,0,0,1,68,false,stim,false,1,1250.0,0,0,0,38966,WMM1,785488,false,false,600,image-keyboard-response,41
true,2,2,3,2,true,d,false,true,0.0-2.0-0.11-0.101-3.101,0,0,1,68,false,stim,false,1,535.0000000001164,0,0,0,38966,WMM1,787537,false,false,603,image-keyboard-response,42
true,2,1,3,2,false,d,false,false,0.0-2.0-0.11-0.102-3.102,0,0,1,90,false,stim,true,1,1023.0,0,0,0,38966,WMM1,790070,false,false,606,image-keyboard-response,43
true,2,2,3,2,true,d,false,true,0.0-2.0-0.11-0.103-3.103,0,0,1,68,false,stim,false,0,1011.9999999998836,0,0,1,38966,WMM1,792593,false,false,609,image-keyboard-response,44
true,2,2,3,1,false,z,true,false,0.0-2.0-0.11-0.104-3.104,0,0,1,68,false,stim,false,1,1099.0,0,1,2,38966,WMM1,795201,false,false,612,image-keyboard-response,45
true,2,1,3,2,false,d,true,false,0.0-2.0-0.11-0.105-3.105,0,0,1,90,false,stim,false,0,581.0000000001164,0,0,1,38966,WMM1,797292,false,false,615,image-keyboard-response,46
true,2,0,3,2,false,d,false,false,0.0-2.0-0.11-0.106-3.106,0,0,1,81,false,stim,true,0,1465.0,0,0,1,38966,WMM1,800266,false,false,618,image-keyboard-response,47
true,2,2,3,1,false,z,true,false,0.0-2.0-0.11-0.107-3.107,0,0,1,68,false,stim,false,1,867.0000000001164,0,1,2,38966,WMM1,802643,false,false,621,image-keyboard-response,48
true,2,1,3,2,false,d,false,false,0.0-2.0-0.12-0.108-3.108,0,0,1,90,false,stim,true,1,840.0000000001164,0,0,0,38966,WMM1,804994,false,false,624,image-keyboard-response,49
true,2,2,3,1,false,z,true,false,0.0-2.0-0.12-0.109-3.109,0,0,1,68,false,stim,false,1,493.0,0,1,2,38966,WMM1,806997,false,false,627,image-keyboard-response,50
true,2,2,3,2,true,d,false,true,0.0-2.0-0.12-0.110-3.110,0,0,1,68,false,stim,false,0,1055.0,0,0,1,38966,WMM1,809562,false,false,630,image-keyboard-response,51
true,2,2,3,1,false,z,true,false,0.0-2.0-0.12-0.111-3.111,0,0,1,68,false,stim,false,1,502.0,0,0,2,38966,WMM1,811573,false,false,633,image-keyboard-response,52
true,2,1,3,2,false,d,true,false,0.0-2.0-0.12-0.112-3.112,0,0,1,90,false,stim,false,0,570.0,0,0,1,38966,WMM1,813651,false,false,636,image-keyboard-response,53
true,2,0,3,1,false,z,true,false,0.0-2.0-0.12-0.113-3.113,0,0,1,81,false,stim,false,1,1349.0,0,0,2,38966,WMM1,816509,false,false,639,image-keyboard-response,54
true,2,2,3,2,true,d,false,true,0.0-2.0-0.12-0.114-3.114,0,0,1,68,false,stim,false,0,1057.9999999998836,0,0,1,38966,WMM1,819076,false,false,642,image-keyboard-response,55
true,2,2,3,2,true,d,false,true,0.0-2.0-0.12-0.115-3.115,0,0,1,68,false,stim,false,1,1109.9999999998836,0,0,0,38966,WMM1,821694,false,false,645,image-keyboard-response,56
true,2,2,3,2,true,d,false,true,0.0-2.0-0.12-0.116-3.116,0,0,1,68,false,stim,false,1,511.0,0,0,0,38966,WMM1,823713,false,false,648,image-keyboard-response,57
true,2,2,3,2,true,d,false,true,0.0-2.0-0.13-0.117-3.117,0,0,1,68,false,stim,false,1,760.0,0,0,0,38966,WMM1,825983,false,false,651,image-keyboard-response,58
true,2,2,3,2,true,d,false,true,0.0-2.0-0.13-0.118-3.118,0,0,1,68,false,stim,false,1,471.0,0,0,0,38966,WMM1,827962,false,false,654,image-keyboard-response,59
true,2,1,3,2,false,d,true,false,0.0-2.0-0.13-0.119-3.119,0,0,1,90,false,stim,false,0,803.0,0,0,1,38966,WMM1,830275,false,false,657,image-keyboard-response,60
true,3,1,1,2,false,d,false,false,0.0-2.0-0.13-0.120-3.120,0,0,0,90,true,stim,true,1,1277.0,0,0,2,38966,WMM1,833061,false,false,660,image-keyboard-response,1
true,3,2,1,2,true,d,false,true,0.0-2.0-0.13-0.121-3.121,0,0,0,68,false,stim,false,1,686.0,0,0,2,38966,WMM1,835254,false,false,663,image-keyboard-response,2
true,3,2,1,0,false,q,false,false,0.0-2.0-0.13-0.122-3.122,0,0,0,68,false,stim,true,2,713.9999999998836,0,0,1,38966,WMM1,837476,false,false,666,image-keyboard-response,3
true,3,2,1,2,true,d,false,true,0.0-2.0-0.13-0.123-3.123,0,0,0,68,false,stim,false,1,763.0,0,0,2,38966,WMM1,839748,false,false,669,image-keyboard-response,4
true,3,2,1,0,false,q,false,false,0.0-2.0-0.13-0.124-3.124,0,0,0,68,false,stim,true,2,606.0,0,0,1,38966,WMM1,841863,false,false,672,image-keyboard-response,5
true,3,2,1,1,false,z,false,false,0.0-2.0-0.13-0.125-3.125,0,0,0,68,false,stim,true,2,865.0,0,0,0,38966,WMM1,844236,false,false,675,image-keyboard-response,6
true,3,0,1,1,false,z,true,false,0.0-2.0-0.14-0.126-3.126,0,0,0,81,false,stim,false,2,991.0,0,0,0,38966,WMM1,846735,false,false,678,image-keyboard-response,7
true,3,1,1,1,true,z,false,false,0.0-2.0-0.14-0.127-3.127,0,0,0,90,false,stim,false,2,452.9999999998836,0,0,0,38966,WMM1,848696,false,true,681,image-keyboard-response,8
true,3,2,1,0,false,q,false,true,0.0-2.0-0.14-0.128-3.128,0,0,0,68,false,stim,true,2,1064.0000000001164,0,0,1,38966,WMM1,851267,false,true,684,image-keyboard-response,9
true,3,1,1,0,false,q,true,true,0.0-2.0-0.14-0.129-3.129,0,0,0,90,false,stim,false,2,835.0,0,0,1,38966,WMM1,853610,false,true,687,image-keyboard-response,10
true,3,1,1,0,false,q,true,true,0.0-2.0-0.14-0.130-3.130,0,0,0,90,false,stim,false,2,630.0,0,0,1,38966,WMM1,855749,false,true,690,image-keyboard-response,11
true,3,0,1,2,false,d,true,false,0.0-2.0-0.14-0.131-3.131,0,0,0,81,false,stim,false,1,1073.0,0,0,2,38966,WMM1,858330,false,false,693,image-keyboard-response,12
true,3,2,1,2,true,d,false,true,0.0-2.0-0.14-0.132-3.132,0,0,0,68,false,stim,false,1,544.9999999998836,0,0,2,38966,WMM1,860383,false,false,696,image-keyboard-response,13
true,3,2,1,2,true,d,false,true,0.0-2.0-0.14-0.133-3.133,0,0,0,68,false,stim,false,1,894.0,0,0,2,38966,WMM1,862785,false,false,699,image-keyboard-response,14
true,3,2,1,1,false,z,false,false,0.0-2.0-0.14-0.134-3.134,0,0,0,68,false,stim,true,2,647.0,0,0,0,38966,WMM1,864953,false,false,702,image-keyboard-response,15
true,3,2,1,2,true,d,false,true,0.0-2.0-0.15-0.135-3.135,0,0,0,68,false,stim,false,1,757.9999999998836,0,0,2,38966,WMM1,867226,false,false,705,image-keyboard-response,16
true,3,1,1,1,true,z,false,true,0.0-2.0-0.15-0.136-3.136,0,0,0,90,false,stim,false,2,1421.0,0,0,0,38966,WMM1,870156,false,false,708,image-keyboard-response,17
true,3,0,1,0,true,q,false,true,0.0-2.0-0.15-0.137-3.137,0,0,0,81,false,stim,false,2,1106.9999999998836,0,0,1,38966,WMM1,872772,false,false,711,image-keyboard-response,18
true,3,1,1,1,true,z,false,true,0.0-2.0-0.15-0.138-3.138,0,0,0,90,false,stim,false,2,758.0,0,0,0,38966,WMM1,875039,false,false,714,image-keyboard-response,19
true,3,1,1,2,false,d,false,false,0.0-2.0-0.15-0.139-3.139,0,0,0,90,false,stim,true,1,684.0,0,0,2,38966,WMM1,877234,false,false,717,image-keyboard-response,20
true,3,2,1,0,false,q,false,false,0.0-2.0-0.15-0.140-3.140,0,0,0,68,false,stim,true,2,968.0,0,0,1,38966,WMM1,879713,false,false,720,image-keyboard-response,21
true,3,0,1,0,true,q,false,true,0.0-2.0-0.15-0.141-3.141,0,0,0,81,false,stim,false,2,439.0,0,0,1,38966,WMM1,881662,false,false,723,image-keyboard-response,22
true,3,2,1,1,false,z,false,false,0.0-2.0-0.15-0.142-3.142,0,0,0,68,false,stim,true,2,1508.0,0,0,0,38966,WMM1,884680,false,false,726,image-keyboard-response,23
true,3,2,1,2,true,d,false,false,0.0-2.0-0.15-0.143-3.143,0,0,0,68,false,stim,false,1,1091.0,0,0,2,38966,WMM1,887281,false,true,729,image-keyboard-response,24
true,3,0,1,0,true,q,false,false,0.0-2.0-0.16-0.144-3.144,0,0,0,81,false,stim,false,2,1833.0,0,0,1,38966,WMM1,890625,false,true,732,image-keyboard-response,25
true,3,0,1,0,true,q,false,true,0.0-2.0-0.16-0.145-3.145,0,0,0,81,false,stim,false,2,602.0000000001164,0,0,1,38966,WMM1,892736,false,false,735,image-keyboard-response,26
true,3,2,1,1,false,z,false,false,0.0-2.0-0.16-0.146-3.146,0,0,0,68,false,stim,true,2,1115.0,0,0,0,38966,WMM1,895360,false,false,738,image-keyboard-response,27
true,3,2,1,2,true,d,false,true,0.0-2.0-0.16-0.147-3.147,0,0,0,68,false,stim,false,1,874.0,0,0,2,38966,WMM1,897743,false,false,741,image-keyboard-response,28
true,3,2,1,0,false,q,false,false,0.0-2.0-0.16-0.148-3.148,0,0,0,68,false,stim,true,2,579.0000000001164,0,0,1,38966,WMM1,899832,false,false,744,image-keyboard-response,29
true,3,2,1,2,true,d,false,true,0.0-2.0-0.16-0.149-3.149,0,0,0,68,false,stim,false,1,1152.9999999998836,0,0,2,38966,WMM1,902496,false,false,747,image-keyboard-response,30
true,3,0,1,2,false,d,true,false,0.0-2.0-0.16-0.150-3.150,0,0,0,81,false,stim,false,1,1531.0,0,0,2,38966,WMM1,905538,false,false,750,image-keyboard-response,31
true,3,1,1,1,true,z,false,true,0.0-2.0-0.16-0.151-3.151,0,0,0,90,false,stim,false,2,1126.0,0,0,0,38966,WMM1,908174,false,false,753,image-keyboard-response,32
true,3,1,1,1,true,z,false,true,0.0-2.0-0.16-0.152-3.152,0,0,0,90,false,stim,false,2,845.0000000001164,0,0,0,38966,WMM1,910530,false,false,756,image-keyboard-response,33
true,3,2,1,2,true,d,false,true,0.0-2.0-0.17-0.153-3.153,0,0,0,68,false,stim,false,1,992.0,0,0,2,38966,WMM1,913033,false,false,759,image-keyboard-response,34
true,3,1,1,2,false,d,false,false,0.0-2.0-0.17-0.154-3.154,0,0,0,90,false,stim,true,1,1002.0,0,0,2,38966,WMM1,915545,false,false,762,image-keyboard-response,35
true,3,1,1,1,true,z,false,true,0.0-2.0-0.17-0.155-3.155,0,0,0,90,false,stim,false,2,1440.0,0,0,0,38966,WMM1,918495,false,false,765,image-keyboard-response,36
true,3,0,1,0,true,q,false,true,0.0-2.0-0.17-0.156-3.156,0,0,0,81,false,stim,false,2,1303.0,0,0,1,38966,WMM1,921308,false,false,768,image-keyboard-response,37
true,3,0,1,0,true,q,false,true,0.0-2.0-0.17-0.157-3.157,0,0,0,81,false,stim,false,2,574.0,0,0,1,38966,WMM1,923393,false,false,771,image-keyboard-response,38
true,3,2,1,1,false,z,false,false,0.0-2.0-0.17-0.158-3.158,0,0,0,68,false,stim,true,2,1514.0,0,0,0,38966,WMM1,926417,false,false,774,image-keyboard-response,39
true,3,1,1,1,true,z,false,true,0.0-2.0-0.17-0.159-3.159,0,0,0,90,false,stim,false,2,861.0,0,0,0,38966,WMM1,928787,false,false,777,image-keyboard-response,40
true,3,1,1,2,false,d,false,false,0.0-2.0-0.17-0.160-3.160,0,0,0,90,false,stim,true,1,1467.0,0,0,2,38966,WMM1,931765,false,false,780,image-keyboard-response,41
true,3,0,1,0,true,q,false,false,0.0-2.0-0.17-0.161-3.161,0,0,0,81,false,stim,false,2,936.0,0,0,1,38966,WMM1,934211,false,true,783,image-keyboard-response,42
true,3,0,1,0,true,q,false,true,0.0-2.0-0.18-0.162-3.162,0,0,0,81,false,stim,false,2,424.0,0,0,1,38966,WMM1,936147,false,false,786,image-keyboard-response,43
true,3,1,1,1,true,z,false,true,0.0-2.0-0.18-0.163-3.163,0,0,0,90,false,stim,false,2,1394.0,0,0,0,38966,WMM1,939052,false,false,789,image-keyboard-response,44
true,3,2,1,2,true,d,false,true,0.0-2.0-0.18-0.164-3.164,0,0,0,68,false,stim,false,1,809.0,0,0,2,38966,WMM1,941370,false,false,792,image-keyboard-response,45
true,3,1,1,0,false,q,true,false,0.0-2.0-0.18-0.165-3.165,0,0,0,90,false,stim,false,2,995.0,0,0,1,38966,WMM1,943876,false,false,795,image-keyboard-response,46
true,3,1,1,2,false,d,false,false,0.0-2.0-0.18-0.166-3.166,0,0,0,90,false,stim,true,1,1361.9999999998836,0,0,2,38966,WMM1,946746,false,false,798,image-keyboard-response,47
true,3,2,1,0,false,q,false,false,0.0-2.0-0.18-0.167-3.167,0,0,0,68,false,stim,true,2,986.9999999998836,0,0,1,38966,WMM1,949245,false,false,801,image-keyboard-response,48
true,3,1,1,1,true,z,false,true,0.0-2.0-0.18-0.168-3.168,0,0,0,90,false,stim,false,2,1046.0,0,0,0,38966,WMM1,951800,false,false,804,image-keyboard-response,49
true,3,1,1,1,true,z,false,true,0.0-2.0-0.18-0.169-3.169,0,0,0,90,false,stim,false,2,1494.0,0,0,0,38966,WMM1,954803,false,false,807,image-keyboard-response,50
true,3,2,1,2,true,d,false,true,0.0-2.0-0.18-0.170-3.170,0,0,0,68,false,stim,false,1,1360.0,0,0,2,38966,WMM1,957672,false,false,810,image-keyboard-response,51
true,3,1,1,1,true,z,false,true,0.0-2.0-0.19-0.171-3.171,0,0,0,90,false,stim,false,2,1069.0000000001164,0,0,0,38966,WMM1,960251,false,false,813,image-keyboard-response,52
true,3,1,1,2,false,d,false,false,0.0-2.0-0.19-0.172-3.172,0,0,0,90,false,stim,true,1,937.0,0,0,2,38966,WMM1,962695,false,false,816,image-keyboard-response,53
true,3,0,1,0,true,q,false,true,0.0-2.0-0.19-0.173-3.173,0,0,0,81,false,stim,false,2,1138.0,0,0,1,38966,WMM1,965341,false,false,819,image-keyboard-response,54
true,3,2,1,2,true,d,false,true,0.0-2.0-0.19-0.174-3.174,0,0,0,68,false,stim,false,1,1668.0,0,0,2,38966,WMM1,968517,false,false,822,image-keyboard-response,55
true,3,2,1,2,true,d,false,true,0.0-2.0-0.19-0.175-3.175,0,0,0,68,false,stim,false,1,645.0,0,0,2,38966,WMM1,970670,false,false,825,image-keyboard-response,56
true,3,1,1,1,true,z,false,true,0.0-2.0-0.19-0.176-3.176,0,0,0,90,false,stim,false,2,847.0,0,0,0,38966,WMM1,973026,false,false,828,image-keyboard-response,57
true,3,1,1,1,true,z,false,true,0.0-2.0-0.19-0.177-3.177,0,0,0,90,false,stim,false,2,928.0,0,0,0,38966,WMM1,975464,false,false,831,image-keyboard-response,58
true,3,0,1,0,true,q,false,true,0.0-2.0-0.19-0.178-3.178,0,0,0,81,false,stim,false,2,1644.0,0,0,1,38966,WMM1,978618,false,false,834,image-keyboard-response,59
true,3,0,1,0,true,q,false,true,0.0-2.0-0.19-0.179-3.179,0,0,0,81,false,stim,false,2,553.0,0,0,1,38966,WMM1,980680,false,false,837,image-keyboard-response,60
true,4,2,4,0,false,q,false,false,0.0-2.0-0.20-0.180-3.180,0,0,0,68,true,stim,true,2,1392.0,0,0,2,38966,WMM1,983582,false,false,840,image-keyboard-response,1
true,4,1,4,1,true,z,false,true,0.0-2.0-0.20-0.181-3.181,0,0,0,90,false,stim,false,0,1232.0,0,0,1,38966,WMM1,986323,false,false,843,image-keyboard-response,2
true,4,1,4,1,true,z,false,true,0.0-2.0-0.20-0.182-3.182,0,0,0,90,false,stim,false,0,624.0000000001164,0,0,1,38966,WMM1,988455,false,false,846,image-keyboard-response,3
true,4,2,4,0,false,q,false,false,0.0-2.0-0.20-0.183-3.183,0,0,0,68,false,stim,true,2,960.0,0,0,2,38966,WMM1,990926,false,false,849,image-keyboard-response,4
true,4,1,4,0,false,q,false,false,0.0-2.0-0.20-0.184-3.184,0,0,0,90,false,stim,true,1,1238.0,0,0,0,38966,WMM1,993673,false,false,852,image-keyboard-response,5
true,4,0,4,1,false,z,false,false,0.0-2.0-0.20-0.185-3.185,0,0,0,81,false,stim,true,0,1155.9999999998836,0,0,1,38966,WMM1,996337,false,false,855,image-keyboard-response,6
true,4,1,4,0,false,q,false,false,0.0-2.0-0.20-0.186-3.186,0,0,0,90,false,stim,true,1,1555.0,0,0,0,38966,WMM1,999400,false,false,858,image-keyboard-response,7
true,4,2,4,0,false,q,true,false,0.0-2.0-0.20-0.187-3.187,0,0,0,68,false,stim,false,1,836.0,0,0,0,38966,WMM1,1001745,false,false,861,image-keyboard-response,8
true,4,2,4,0,false,q,false,true,0.0-2.0-0.20-0.188-3.188,0,0,0,68,false,stim,true,2,1183.0,0,0,2,38966,WMM1,1004438,false,true,864,image-keyboard-response,9
true,4,0,4,1,false,z,false,false,0.0-2.0-0.21-0.189-3.189,0,0,0,81,false,stim,true,0,935.0000000001164,0,0,1,38966,WMM1,1006882,false,false,867,image-keyboard-response,10
true,4,2,4,0,false,q,false,false,0.0-2.0-0.21-0.190-3.190,0,0,0,68,false,stim,true,2,813.0,0,0,2,38966,WMM1,1009205,false,false,870,image-keyboard-response,11
true,4,0,4,0,true,q,false,true,0.0-2.0-0.21-0.191-3.191,0,0,0,81,false,stim,false,1,1275.0,0,0,0,38966,WMM1,1011989,false,false,873,image-keyboard-response,12
true,4,0,4,0,true,q,false,true,0.0-2.0-0.21-0.192-3.192,0,0,0,81,false,stim,false,1,516.0000000001164,0,0,0,38966,WMM1,1014015,false,false,876,image-keyboard-response,13
true,4,2,4,1,false,z,true,false,0.0-2.0-0.21-0.193-3.193,0,0,0,68,false,stim,false,0,1108.0,0,0,1,38966,WMM1,1016632,false,false,879,image-keyboard-response,14
true,4,0,4,0,true,q,false,true,0.0-2.0-0.21-0.194-3.194,0,0,0,81,false,stim,false,2,1388.0000000001164,0,0,2,38966,WMM1,1019530,false,false,882,image-keyboard-response,15
true,4,1,4,1,true,z,false,true,0.0-2.0-0.21-0.195-3.195,0,0,0,90,false,stim,false,0,1375.0,0,0,1,38966,WMM1,1022414,false,false,885,image-keyboard-response,16
true,4,0,4,0,true,q,false,false,0.0-2.0-0.21-0.196-3.196,0,0,0,81,false,stim,false,1,1457.0000000001164,0,0,0,38966,WMM1,1025380,false,true,888,image-keyboard-response,17
true,4,2,4,0,false,q,false,false,0.0-2.0-0.21-0.197-3.197,0,0,0,68,false,stim,true,2,872.0000000001164,0,0,2,38966,WMM1,1027761,false,false,891,image-keyboard-response,18
true,4,1,4,0,false,q,true,true,0.0-2.0-0.22-0.198-3.198,0,0,0,90,false,stim,false,2,1051.9999999998836,0,0,2,38966,WMM1,1030323,false,true,894,image-keyboard-response,19
true,4,0,4,0,true,q,false,true,0.0-2.0-0.22-0.199-3.199,0,0,0,81,false,stim,false,1,1171.0000000001164,0,0,0,38966,WMM1,1033002,false,false,897,image-keyboard-response,20
true,4,1,4,1,true,z,false,true,0.0-2.0-0.22-0.200-3.200,0,0,0,90,false,stim,false,0,1298.0,0,0,1,38966,WMM1,1035810,false,false,900,image-keyboard-response,21
true,4,0,4,0,true,q,false,true,0.0-2.0-0.22-0.201-3.201,0,0,0,81,false,stim,false,1,1202.9999999998836,0,0,0,38966,WMM1,1038529,false,false,903,image-keyboard-response,22
true,4,1,4,0,false,q,true,false,0.0-2.0-0.22-0.202-3.202,0,0,0,90,false,stim,false,2,787.0,0,0,2,38966,WMM1,1040827,false,false,906,image-keyboard-response,23
true,4,0,4,0,true,q,false,true,0.0-2.0-0.22-0.203-3.203,0,0,0,81,false,stim,false,1,771.0,0,0,0,38966,WMM1,1043108,false,false,909,image-keyboard-response,24
true,4,2,4,0,false,q,false,false,0.0-2.0-0.22-0.204-3.204,0,0,0,68,false,stim,true,2,1262.0,0,0,2,38966,WMM1,1045880,false,false,912,image-keyboard-response,25
true,4,0,4,1,false,z,false,false,0.0-2.0-0.22-0.205-3.205,0,0,0,81,false,stim,true,0,972.0,0,0,1,38966,WMM1,1048362,false,false,915,image-keyboard-response,26
true,4,1,4,1,true,z,false,true,0.0-2.0-0.22-0.206-3.206,0,0,0,90,false,stim,false,0,606.0,0,0,1,38966,WMM1,1050479,false,false,918,image-keyboard-response,27
true,4,0,4,0,true,q,false,true,0.0-2.0-0.23-0.207-3.207,0,0,0,81,false,stim,false,1,1391.0,0,0,0,38966,WMM1,1053382,false,false,921,image-keyboard-response,28
true,4,0,4,0,true,q,false,true,0.0-2.0-0.23-0.208-3.208,0,0,0,81,false,stim,false,1,792.0,0,0,0,38966,WMM1,1055685,false,false,924,image-keyboard-response,29
true,4,1,4,0,false,q,true,false,0.0-2.0-0.23-0.209-3.209,0,0,0,90,false,stim,false,2,483.0,0,0,2,38966,WMM1,1057678,false,false,927,image-keyboard-response,30
true,4,1,4,1,true,z,false,false,0.0-2.0-0.23-0.210-3.210,0,0,0,90,false,stim,false,0,1848.0,0,0,1,38966,WMM1,1061036,false,true,930,image-keyboard-response,31
true,4,2,4,1,false,z,true,false,0.0-2.0-0.23-0.211-3.211,0,0,0,68,false,stim,false,0,700.0,0,0,1,38966,WMM1,1063248,false,false,933,image-keyboard-response,32
true,4,0,4,1,false,z,false,false,0.0-2.0-0.23-0.212-3.212,0,0,0,81,false,stim,true,0,352.99999999976717,0,0,1,38966,WMM1,1065111,false,false,936,image-keyboard-response,33
true,4,0,4,0,true,q,false,true,0.0-2.0-0.23-0.213-3.213,0,0,0,81,false,stim,false,1,1578.0,0,0,0,38966,WMM1,1068200,false,false,939,image-keyboard-response,34
true,4,0,4,0,true,q,false,true,0.0-2.0-0.23-0.214-3.214,0,0,0,81,false,stim,false,2,1567.0,0,0,2,38966,WMM1,1071276,false,false,942,image-keyboard-response,35
true,4,0,4,0,true,q,false,true,0.0-2.0-0.23-0.215-3.215,0,0,0,81,false,stim,false,2,849.0,0,0,2,38966,WMM1,1073634,false,false,945,image-keyboard-response,36
true,4,1,4,0,false,q,false,false,0.0-2.0-0.24-0.216-3.216,0,0,0,90,false,stim,true,1,1705.0,0,0,0,38966,WMM1,1076851,false,false,948,image-keyboard-response,37
true,4,0,4,0,true,q,false,true,0.0-2.0-0.24-0.217-3.217,0,0,0,81,false,stim,false,2,1226.0,0,0,2,38966,WMM1,1079587,false,false,951,image-keyboard-response,38
true,4,0,4,0,true,q,false,true,0.0-2.0-0.24-0.218-3.218,0,0,0,81,false,stim,false,1,744.0,0,0,0,38966,WMM1,1081843,false,false,954,image-keyboard-response,39
true,4,0,4,0,true,q,false,true,0.0-2.0-0.24-0.219-3.219,0,0,0,81,false,stim,false,2,710.0,0,0,2,38966,WMM1,1084063,false,false,957,image-keyboard-response,40
true,4,0,4,1,false,z,false,true,0.0-2.0-0.24-0.220-3.220,0,0,0,81,false,stim,true,0,482.00000000023283,0,0,1,38966,WMM1,1086056,false,true,960,image-keyboard-response,41
true,4,0,4,0,true,q,false,true,0.0-2.0-0.24-0.221-3.221,0,0,0,81,false,stim,false,1,1260.0,0,0,0,38966,WMM1,1088827,false,false,963,image-keyboard-response,42
true,4,0,4,0,true,q,false,true,0.0-2.0-0.24-0.222-3.222,0,0,0,81,false,stim,false,2,565.0,0,0,2,38966,WMM1,1090903,false,false,966,image-keyboard-response,43
true,4,0,4,1,false,z,false,false,0.0-2.0-0.24-0.223-3.223,0,0,0,81,false,stim,true,0,474.99999999976717,0,0,1,38966,WMM1,1092887,false,false,969,image-keyboard-response,44
true,4,0,4,1,false,z,false,false,0.0-2.0-0.24-0.224-3.224,0,0,0,81,false,stim,true,0,388.0,0,0,1,38966,WMM1,1094785,false,false,972,image-keyboard-response,45
true,4,0,4,0,true,q,false,false,0.0-2.0-0.25-0.225-3.225,0,0,0,81,false,stim,false,1,1030.0,0,0,0,38966,WMM1,1097326,false,true,975,image-keyboard-response,46
true,4,0,4,0,true,q,false,true,0.0-2.0-0.25-0.226-3.226,0,0,0,81,false,stim,false,2,731.0,0,0,2,38966,WMM1,1099568,false,false,978,image-keyboard-response,47
true,4,0,4,1,false,z,false,false,0.0-2.0-0.25-0.227-3.227,0,0,0,81,false,stim,true,0,812.0,0,0,1,38966,WMM1,1101891,false,false,981,image-keyboard-response,48
true,4,2,4,1,false,z,true,false,0.0-2.0-0.25-0.228-3.228,0,0,0,68,false,stim,false,0,871.0,0,0,1,38966,WMM1,1104271,false,false,984,image-keyboard-response,49
true,4,0,4,0,true,q,false,true,0.0-2.0-0.25-0.229-3.229,0,0,0,81,false,stim,false,1,793.0,0,0,0,38966,WMM1,1106572,false,false,987,image-keyboard-response,50
true,4,2,4,1,false,z,true,false,0.0-2.0-0.25-0.230-3.230,0,0,0,68,false,stim,false,0,853.0,0,0,1,38966,WMM1,1108935,false,false,990,image-keyboard-response,51
true,4,0,4,0,true,q,false,true,0.0-2.0-0.25-0.231-3.231,0,0,0,81,false,stim,false,2,979.0,0,0,2,38966,WMM1,1111423,false,false,993,image-keyboard-response,52
true,4,0,4,0,true,q,false,true,0.0-2.0-0.25-0.232-3.232,0,0,0,81,false,stim,false,1,1020.0,0,1,0,38966,WMM1,1113951,false,false,996,image-keyboard-response,53
true,4,0,4,0,true,q,false,true,0.0-2.0-0.25-0.233-3.233,0,0,0,81,false,stim,false,2,794.0,0,0,2,38966,WMM1,1116255,false,false,999,image-keyboard-response,54
true,4,0,4,0,true,q,false,true,0.0-2.0-0.26-0.234-3.234,0,0,0,81,false,stim,false,1,1235.0000000002328,0,1,0,38966,WMM1,1119008,false,false,1002,image-keyboard-response,55
true,4,0,4,1,false,z,false,false,0.0-2.0-0.26-0.235-3.235,0,0,0,81,false,stim,true,0,927.9999999997672,0,0,1,38966,WMM1,1121445,false,false,1005,image-keyboard-response,56
true,4,0,4,0,true,q,false,true,0.0-2.0-0.26-0.236-3.236,0,0,0,81,false,stim,false,1,1001.0,0,1,0,38966,WMM1,1123954,false,false,1008,image-keyboard-response,57
true,4,2,4,1,false,z,true,false,0.0-2.0-0.26-0.237-3.237,0,0,0,68,false,stim,false,0,1226.0,0,0,1,38966,WMM1,1126689,false,false,1011,image-keyboard-response,58
true,4,0,4,0,true,q,false,true,0.0-2.0-0.26-0.238-3.238,0,0,0,81,false,stim,false,2,1010.0,0,0,2,38966,WMM1,1129208,false,false,1014,image-keyboard-response,59
true,4,1,4,1,true,z,false,true,0.0-2.0-0.26-0.239-3.239,0,0,0,90,false,stim,false,0,568.0,0,0,1,38966,WMM1,1131285,false,false,1017,image-keyboard-response,60
true,5,0,3,1,false,z,false,false,0.0-2.0-0.26-0.240-3.240,1,0,0,81,true,stim,true,0,960.0,0,0,2,38966,WMM1,1133755,false,false,1020,image-keyboard-response,1
true,5,0,3,0,true,q,false,true,0.0-2.0-0.26-0.241-3.241,1,0,0,81,false,stim,false,0,1139.0,0,1,0,38966,WMM1,1136404,false,false,1023,image-keyboard-response,2
true,5,0,3,1,false,z,false,true,0.0-2.0-0.26-0.242-3.242,1,0,0,81,false,stim,true,0,1441.0,0,0,2,38966,WMM1,1139354,false,true,1026,image-keyboard-response,3
true,5,0,3,0,true,q,false,true,0.0-2.0-0.27-0.243-3.243,1,0,0,81,false,stim,false,0,1267.0000000002328,0,1,0,38966,WMM1,1142132,false,false,1029,image-keyboard-response,4
true,5,0,3,1,false,z,false,false,0.0-2.0-0.27-0.244-3.244,1,0,0,81,false,stim,true,0,884.0,0,0,2,38966,WMM1,1144525,false,false,1032,image-keyboard-response,5
true,5,0,3,0,true,q,false,false,0.0-2.0-0.27-0.245-3.245,1,0,0,81,false,stim,false,0,1199.0,0,1,0,38966,WMM1,1147233,false,true,1035,image-keyboard-response,6
true,5,1,3,1,true,z,false,true,0.0-2.0-0.27-0.246-3.246,1,0,0,90,false,stim,false,0,1224.0,0,0,2,38966,WMM1,1149966,false,false,1038,image-keyboard-response,7
true,5,1,3,2,false,d,false,true,0.0-2.0-0.27-0.247-3.247,1,0,0,90,false,stim,true,1,748.0,0,0,1,38966,WMM1,1152224,false,true,1041,image-keyboard-response,8
true,5,1,3,2,false,d,false,false,0.0-2.0-0.27-0.248-3.248,1,0,0,90,false,stim,true,1,653.0,0,0,1,38966,WMM1,1154387,false,false,1044,image-keyboard-response,9
true,5,1,3,1,true,z,false,true,0.0-2.0-0.27-0.249-3.249,1,0,0,90,false,stim,false,0,578.0,0,0,2,38966,WMM1,1156475,false,false,1047,image-keyboard-response,10
true,5,1,3,2,false,d,false,false,0.0-2.0-0.27-0.250-3.250,1,0,0,90,false,stim,true,1,938.0,0,0,1,38966,WMM1,1158922,false,false,1050,image-keyboard-response,11
true,5,1,3,0,false,q,true,false,0.0-2.0-0.27-0.251-3.251,1,0,0,90,false,stim,false,0,1356.0,0,1,0,38966,WMM1,1161788,false,false,1053,image-keyboard-response,12
true,5,1,3,1,true,z,false,true,0.0-2.0-0.28-0.252-3.252,1,0,0,90,false,stim,false,0,928.0,0,0,2,38966,WMM1,1164227,false,false,1056,image-keyboard-response,13
true,5,1,3,2,false,d,false,false,0.0-2.0-0.28-0.253-3.253,1,0,0,90,false,stim,true,1,1231.0,0,0,1,38966,WMM1,1166967,false,false,1059,image-keyboard-response,14
true,5,1,3,1,true,z,false,true,0.0-2.0-0.28-0.254-3.254,1,0,0,90,false,stim,false,0,609.9999999997672,0,0,2,38966,WMM1,1169088,false,false,1062,image-keyboard-response,15
true,5,1,3,1,true,z,false,true,0.0-2.0-0.28-0.255-3.255,1,0,0,90,false,stim,false,0,683.0,0,0,2,38966,WMM1,1171280,false,false,1065,image-keyboard-response,16
true,5,2,3,2,true,d,false,true,0.0-2.0-0.28-0.256-3.256,1,0,0,68,false,stim,false,1,1325.0,0,0,1,38966,WMM1,1174115,false,false,1068,image-keyboard-response,17
true,5,0,3,0,true,q,false,true,0.0-2.0-0.28-0.257-3.257,1,0,0,81,false,stim,false,0,1720.0,0,1,0,38966,WMM1,1177345,false,false,1071,image-keyboard-response,18
true,5,2,3,2,true,d,false,true,0.0-2.0-0.28-0.258-3.258,1,0,0,68,false,stim,false,1,1125.9999999997672,0,0,1,38966,WMM1,1179978,false,false,1074,image-keyboard-response,19
true,5,2,3,0,false,q,true,false,0.0-2.0-0.28-0.259-3.259,1,0,0,68,false,stim,false,0,1785.0,0,1,0,38966,WMM1,1183271,false,false,1077,image-keyboard-response,20
true,5,0,3,0,true,q,false,true,0.0-2.0-0.28-0.260-3.260,1,0,0,81,false,stim,false,0,713.0,0,1,0,38966,WMM1,1185494,false,false,1080,image-keyboard-response,21
true,5,0,3,0,true,q,false,true,0.0-2.0-0.29-0.261-3.261,1,0,0,81,false,stim,false,0,399.0,0,1,0,38966,WMM1,1187404,false,false,1083,image-keyboard-response,22
true,5,0,3,0,true,q,false,true,0.0-2.0-0.29-0.262-3.262,1,0,0,81,false,stim,false,0,641.0,0,0,0,38966,WMM1,1189555,false,false,1086,image-keyboard-response,23
true,5,2,3,2,true,d,false,true,0.0-2.0-0.29-0.263-3.263,1,0,0,68,false,stim,false,1,1599.0,0,0,1,38966,WMM1,1192662,false,false,1089,image-keyboard-response,24
true,5,1,3,1,true,z,false,true,0.0-2.0-0.29-0.264-3.264,1,0,0,90,false,stim,false,0,790.0,0,0,2,38966,WMM1,1194960,false,false,1092,image-keyboard-response,25
true,5,0,3,0,true,q,false,true,0.0-2.0-0.29-0.265-3.265,1,0,0,81,false,stim,false,0,1018.0000000002328,0,0,0,38966,WMM1,1197487,false,false,1095,image-keyboard-response,26
true,5,0,3,1,false,z,false,false,0.0-2.0-0.29-0.266-3.266,1,0,0,81,false,stim,true,0,1399.9999999997672,0,0,2,38966,WMM1,1200396,false,false,1098,image-keyboard-response,27
true,5,1,3,1,true,z,false,true,0.0-2.0-0.29-0.267-3.267,1,0,0,90,false,stim,false,0,850.0,0,0,2,38966,WMM1,1202764,false,false,1101,image-keyboard-response,28
true,5,2,3,2,true,d,false,true,0.0-2.0-0.29-0.268-3.268,1,0,0,68,false,stim,false,1,700.0,0,0,1,38966,WMM1,1204974,false,false,1104,image-keyboard-response,29
true,5,2,3,2,true,d,false,true,0.0-2.0-0.29-0.269-3.269,1,0,0,68,false,stim,false,1,643.0,0,0,1,38966,WMM1,1207126,false,false,1107,image-keyboard-response,30
true,5,2,3,2,true,d,false,true,0.0-2.0-0.30-0.270-3.270,1,0,0,68,false,stim,false,1,466.0,0,0,1,38966,WMM1,1209108,false,false,1110,image-keyboard-response,31
true,5,1,3,0,false,q,true,false,0.0-2.0-0.30-0.271-3.271,1,0,0,90,false,stim,false,0,1566.0,0,0,0,38966,WMM1,1212185,false,false,1113,image-keyboard-response,32
true,6,2,1,0,false,q,false,false,0.0-2.0-0.30-0.272-3.272,0,0,0,68,true,stim,true,2,1012.0,0,0,1,38966,WMM1,1214710,false,false,1116,image-keyboard-response,1
true,6,0,1,0,true,q,false,true,0.0-2.0-0.30-0.273-3.273,0,0,0,81,false,stim,false,1,839.0,0,0,2,38966,WMM1,1217059,false,false,1119,image-keyboard-response,2
true,6,0,1,0,true,q,false,true,0.0-2.0-0.30-0.274-3.274,0,0,0,81,false,stim,false,1,1133.9999999997672,0,0,2,38966,WMM1,1219706,false,false,1122,image-keyboard-response,3
true,6,0,1,0,true,q,false,true,0.0-2.0-0.30-0.275-3.275,0,0,0,81,false,stim,false,1,649.0,0,0,2,38966,WMM1,1221865,false,false,1125,image-keyboard-response,4
true,6,0,1,2,false,d,false,false,0.0-2.0-0.30-0.276-3.276,0,0,0,81,false,stim,true,0,1067.0,0,0,0,38966,WMM1,1224443,false,false,1128,image-keyboard-response,5
true,6,1,1,2,false,d,true,false,0.0-2.0-0.30-0.277-3.277,0,0,0,90,false,stim,false,0,722.0,0,0,0,38966,WMM1,1226676,false,false,1131,image-keyboard-response,6
true,6,2,1,0,false,q,false,false,0.0-2.0-0.30-0.278-3.278,0,0,0,68,false,stim,true,2,1596.0,0,0,1,38966,WMM1,1229782,false,false,1134,image-keyboard-response,7
true,6,2,1,2,true,d,false,true,0.0-2.0-0.31-0.279-3.279,0,0,0,68,false,stim,false,0,1114.0000000002328,0,0,0,38966,WMM1,1232408,false,false,1137,image-keyboard-response,8
true,6,2,1,2,true,d,false,true,0.0-2.0-0.31-0.280-3.280,0,0,0,68,false,stim,false,0,664.0,0,0,0,38966,WMM1,1234583,false,false,1140,image-keyboard-response,9
true,6,2,1,2,true,d,false,true,0.0-2.0-0.31-0.281-3.281,0,0,0,68,false,stim,false,0,1118.0,0,0,0,38966,WMM1,1237211,false,false,1143,image-keyboard-response,10
true,6,2,1,0,false,q,true,false,0.0-2.0-0.31-0.282-3.282,0,0,0,68,false,stim,false,1,940.0,0,0,2,38966,WMM1,1239661,false,false,1146,image-keyboard-response,11
true,6,1,1,0,false,q,false,false,0.0-2.0-0.31-0.283-3.283,0,0,0,90,false,stim,true,1,713.0,0,0,2,38966,WMM1,1241886,false,false,1149,image-keyboard-response,12
true,6,2,1,0,false,q,false,false,0.0-2.0-0.31-0.284-3.284,0,0,0,68,false,stim,true,2,916.0000000002328,0,0,1,38966,WMM1,1244313,false,false,1152,image-keyboard-response,13
true,6,0,1,0,true,q,false,true,0.0-2.0-0.31-0.285-3.285,0,0,0,81,false,stim,false,1,1212.0,0,0,2,38966,WMM1,1247034,false,false,1155,image-keyboard-response,14
true,6,2,1,0,false,q,false,false,0.0-2.0-0.31-0.286-3.286,0,0,0,68,false,stim,true,2,1589.0,0,0,1,38966,WMM1,1250130,false,false,1158,image-keyboard-response,15
true,6,1,1,0,false,q,true,false,0.0-2.0-0.31-0.287-3.287,0,0,0,90,false,stim,false,2,511.0,0,0,1,38966,WMM1,1252154,false,false,1161,image-keyboard-response,16
true,6,0,1,0,true,q,false,true,0.0-2.0-0.32-0.288-3.288,0,0,0,81,false,stim,false,2,839.0,0,0,1,38966,WMM1,1254502,false,false,1164,image-keyboard-response,17
true,6,0,1,0,true,q,false,false,0.0-2.0-0.32-0.289-3.289,0,0,0,81,false,stim,false,1,659.0,0,0,2,38966,WMM1,1256671,false,true,1167,image-keyboard-response,18
true,6,0,1,2,false,d,false,true,0.0-2.0-0.32-0.290-3.290,0,0,0,81,false,stim,true,0,768.0,0,0,0,38966,WMM1,1258947,false,true,1170,image-keyboard-response,19
true,6,0,1,2,false,d,false,false,0.0-2.0-0.32-0.291-3.291,0,0,0,81,false,stim,true,0,616.0,0,0,0,38966,WMM1,1261073,false,false,1173,image-keyboard-response,20
true,6,0,1,0,true,q,false,true,0.0-2.0-0.32-0.292-3.292,0,0,0,81,false,stim,false,1,1003.0,0,0,2,38966,WMM1,1263591,false,false,1176,image-keyboard-response,21
true,6,2,1,0,false,q,false,false,0.0-2.0-0.32-0.293-3.293,0,0,0,68,false,stim,true,2,1141.0000000002328,0,0,1,38966,WMM1,1266244,false,false,1179,image-keyboard-response,22
true,6,1,1,0,false,q,true,false,0.0-2.0-0.32-0.294-3.294,0,0,0,90,false,stim,false,2,680.0,0,0,1,38966,WMM1,1268435,false,false,1182,image-keyboard-response,23
true,6,0,1,0,true,q,false,true,0.0-2.0-0.32-0.295-3.295,0,0,0,81,false,stim,false,1,1412.0,0,0,2,38966,WMM1,1271359,false,false,1185,image-keyboard-response,24
true,6,0,1,2,false,d,false,false,0.0-2.0-0.32-0.296-3.296,0,0,0,81,false,stim,true,0,1328.0,0,0,0,38966,WMM1,1274199,false,false,1188,image-keyboard-response,25
true,6,1,1,2,false,d,true,false,0.0-2.0-0.33-0.297-3.297,0,0,0,90,false,stim,false,0,763.0,0,0,0,38966,WMM1,1276476,false,false,1191,image-keyboard-response,26
true,6,0,1,0,true,q,false,true,0.0-2.0-0.33-0.298-3.298,0,0,0,81,false,stim,false,2,1060.0,0,0,1,38966,WMM1,1279050,false,false,1194,image-keyboard-response,27
true,6,0,1,0,true,q,false,true,0.0-2.0-0.33-0.299-3.299,0,0,0,81,false,stim,false,2,462.0,0,0,1,38966,WMM1,1281022,false,false,1197,image-keyboard-response,28
true,6,0,1,0,true,q,false,true,0.0-2.0-0.33-0.300-3.300,0,0,0,81,false,stim,false,2,509.0,0,0,1,38966,WMM1,1283044,false,false,1200,image-keyboard-response,29
true,6,2,1,0,false,q,true,false,0.0-2.0-0.33-0.301-3.301,0,0,0,68,false,stim,false,1,1076.0000000002328,0,0,2,38966,WMM1,1285639,false,false,1203,image-keyboard-response,30
true,6,1,1,0,false,q,false,false,0.0-2.0-0.33-0.302-3.302,0,0,0,90,false,stim,true,1,638.0,0,0,2,38966,WMM1,1287786,false,false,1206,image-keyboard-response,31
true,6,0,1,0,true,q,false,true,0.0-2.0-0.33-0.303-3.303,0,0,0,81,false,stim,false,1,376.0,0,0,2,38966,WMM1,1289676,false,false,1209,image-keyboard-response,32
true,6,0,1,2,false,d,false,false,0.0-2.0-0.33-0.304-3.304,0,0,0,81,false,stim,true,0,420.99999999976717,0,0,0,38966,WMM1,1291607,false,false,1212,image-keyboard-response,33
true,6,0,1,2,false,d,false,false,0.0-2.0-0.33-0.305-3.305,0,0,0,81,false,stim,true,0,462.0,0,0,0,38966,WMM1,1293579,false,false,1215,image-keyboard-response,34
true,6,1,1,0,false,q,true,false,0.0-2.0-0.34-0.306-3.306,0,0,0,90,false,stim,false,2,305.0,0,0,1,38966,WMM1,1295397,false,false,1218,image-keyboard-response,35
true,6,0,1,0,true,q,false,true,0.0-2.0-0.34-0.307-3.307,0,0,0,81,false,stim,false,1,569.9999999997672,0,0,2,38966,WMM1,1297477,false,false,1221,image-keyboard-response,36
true,6,0,1,2,false,d,false,false,0.0-2.0-0.34-0.308-3.308,0,0,0,81,false,stim,true,0,697.0,0,0,0,38966,WMM1,1299684,false,false,1224,image-keyboard-response,37
true,6,0,1,0,true,q,false,true,0.0-2.0-0.34-0.309-3.309,0,0,0,81,false,stim,false,2,827.0,0,0,1,38966,WMM1,1302020,false,false,1227,image-keyboard-response,38
true,6,2,1,2,true,d,false,true,0.0-2.0-0.34-0.310-3.310,0,0,0,68,false,stim,false,0,1350.9999999997672,0,0,0,38966,WMM1,1304884,false,false,1230,image-keyboard-response,39
true,6,2,1,2,true,d,false,true,0.0-2.0-0.34-0.311-3.311,0,0,0,68,false,stim,false,0,1018.0,0,0,0,38966,WMM1,1307414,false,false,1233,image-keyboard-response,40
true,6,1,1,0,false,q,false,false,0.0-2.0-0.34-0.312-3.312,0,0,0,90,false,stim,true,1,1482.0,0,0,2,38966,WMM1,1310406,false,false,1236,image-keyboard-response,41
true,6,0,1,0,true,q,false,true,0.0-2.0-0.34-0.313-3.313,0,0,0,81,false,stim,false,2,1007.0,0,0,1,38966,WMM1,1312924,false,false,1239,image-keyboard-response,42
true,6,0,1,0,true,q,false,true,0.0-2.0-0.34-0.314-3.314,0,0,0,81,false,stim,false,1,529.0000000002328,0,0,2,38966,WMM1,1314964,false,false,1242,image-keyboard-response,43
true,6,0,1,0,true,q,false,true,0.0-2.0-0.35-0.315-3.315,0,0,0,81,false,stim,false,2,371.0,0,0,1,38966,WMM1,1316848,false,false,1245,image-keyboard-response,44
true,6,2,1,2,true,d,false,true,0.0-2.0-0.35-0.316-3.316,0,0,0,68,false,stim,false,0,999.0,0,0,0,38966,WMM1,1319359,false,false,1248,image-keyboard-response,45
true,6,0,1,0,true,q,false,true,0.0-2.0-0.35-0.317-3.317,0,0,0,81,false,stim,false,1,714.0,0,0,2,38966,WMM1,1321585,false,false,1251,image-keyboard-response,46
true,6,0,1,0,true,q,false,true,0.0-2.0-0.35-0.318-3.318,0,0,0,81,false,stim,false,1,768.0,0,0,2,38966,WMM1,1323865,false,false,1254,image-keyboard-response,47
true,6,2,1,2,true,d,false,true,0.0-2.0-0.35-0.319-3.319,0,0,0,68,false,stim,false,0,969.0,0,0,0,38966,WMM1,1326345,false,false,1257,image-keyboard-response,48
true,6,2,1,2,true,d,false,true,0.0-2.0-0.35-0.320-3.320,0,0,0,68,false,stim,false,0,737.0,0,0,0,38966,WMM1,1328591,false,false,1260,image-keyboard-response,49
true,6,0,1,0,true,q,false,true,0.0-2.0-0.35-0.321-3.321,0,0,0,81,false,stim,false,2,1155.0,0,0,1,38966,WMM1,1331256,false,false,1263,image-keyboard-response,50
true,6,0,1,0,true,q,false,true,0.0-2.0-0.35-0.322-3.322,0,0,0,81,false,stim,false,2,923.0,0,0,1,38966,WMM1,1333689,false,false,1266,image-keyboard-response,51
true,6,0,1,0,true,q,false,true,0.0-2.0-0.35-0.323-3.323,0,0,0,81,false,stim,false,1,563.0,0,0,2,38966,WMM1,1335762,false,false,1269,image-keyboard-response,52
true,6,0,1,0,true,q,false,true,0.0-2.0-0.36-0.324-3.324,0,0,0,81,false,stim,false,2,637.0,0,0,1,38966,WMM1,1337911,false,false,1272,image-keyboard-response,53
true,6,0,1,0,true,q,false,true,0.0-2.0-0.36-0.325-3.325,0,0,0,81,false,stim,false,1,678.0000000002328,0,0,2,38966,WMM1,1340099,false,false,1275,image-keyboard-response,54
true,6,0,1,0,true,q,false,true,0.0-2.0-0.36-0.326-3.326,0,0,0,81,false,stim,false,1,622.0,0,0,2,38966,WMM1,1342232,false,false,1278,image-keyboard-response,55
true,6,0,1,0,true,q,false,true,0.0-2.0-0.36-0.327-3.327,0,0,0,81,false,stim,false,2,553.9999999997672,0,0,1,38966,WMM1,1344297,false,false,1281,image-keyboard-response,56
true,7,0,1,2,false,d,false,false,0.0-2.0-0.36-0.328-3.328,0,0,0,81,true,stim,true,0,663.0,0,0,2,38966,WMM1,1346471,false,false,1284,image-keyboard-response,1
true,7,2,1,1,false,z,false,false,0.0-2.0-0.36-0.329-3.329,0,0,0,68,false,stim,true,2,1471.0,0,0,0,38966,WMM1,1349452,false,false,1287,image-keyboard-response,2
true,7,2,1,1,false,z,false,false,0.0-2.0-0.36-0.330-3.330,0,0,0,68,false,stim,true,2,528.0,0,0,0,38966,WMM1,1351490,false,false,1290,image-keyboard-response,3
true,7,0,1,1,false,z,false,false,0.0-2.0-0.36-0.331-3.331,0,0,0,81,false,stim,true,0,1133.0,0,0,1,38966,WMM1,1354133,false,false,1293,image-keyboard-response,4
true,7,1,1,1,true,z,false,true,0.0-2.0-0.36-0.332-3.332,0,0,0,90,false,stim,false,2,939.0,0,0,0,38966,WMM1,1356584,false,false,1296,image-keyboard-response,5
true,7,1,1,2,false,d,true,false,0.0-2.0-0.37-0.333-3.333,0,0,0,90,false,stim,false,0,1562.0,0,0,2,38966,WMM1,1359659,false,false,1299,image-keyboard-response,6
true,7,1,1,1,true,z,false,true,0.0-2.0-0.37-0.334-3.334,0,0,0,90,false,stim,false,2,798.0,0,0,0,38966,WMM1,1361980,false,false,1302,image-keyboard-response,7
true,7,2,1,1,false,z,true,false,0.0-2.0-0.37-0.335-3.335,0,0,0,68,false,stim,false,0,790.0,0,0,1,38966,WMM1,1364280,false,false,1305,image-keyboard-response,8
true,7,0,1,1,false,z,false,false,0.0-2.0-0.37-0.336-3.336,0,0,0,81,false,stim,true,0,855.0,0,0,1,38966,WMM1,1366644,false,false,1308,image-keyboard-response,9
true,7,1,1,1,true,z,false,true,0.0-2.0-0.37-0.337-3.337,0,0,0,90,false,stim,false,2,434.0,0,0,0,38966,WMM1,1368591,false,false,1311,image-keyboard-response,10
true,7,1,1,2,false,d,true,false,0.0-2.0-0.37-0.338-3.338,0,0,0,90,false,stim,false,0,411.00000000023283,0,0,2,38966,WMM1,1370512,false,false,1314,image-keyboard-response,11
true,7,1,1,1,true,z,false,true,0.0-2.0-0.37-0.339-3.339,0,0,0,90,false,stim,false,2,1011.0,0,0,0,38966,WMM1,1373033,false,false,1317,image-keyboard-response,12
true,7,2,1,2,true,d,false,true,0.0-2.0-0.37-0.340-3.340,0,0,0,68,false,stim,false,0,649.0000000002328,0,0,2,38966,WMM1,1375193,false,false,1320,image-keyboard-response,13
true,7,1,1,1,true,z,false,true,0.0-2.0-0.37-0.341-3.341,0,0,0,90,false,stim,false,0,1498.0,0,0,1,38966,WMM1,1378201,false,false,1323,image-keyboard-response,14
true,7,1,1,1,true,z,false,true,0.0-2.0-0.38-0.342-3.342,0,0,0,90,false,stim,false,2,756.0,0,0,0,38966,WMM1,1380468,false,false,1326,image-keyboard-response,15
true,7,1,1,1,true,z,false,true,0.0-2.0-0.38-0.343-3.343,0,0,0,90,false,stim,false,2,770.0,0,0,0,38966,WMM1,1382749,false,false,1329,image-keyboard-response,16
true,7,1,1,1,true,z,false,true,0.0-2.0-0.38-0.344-3.344,0,0,0,90,false,stim,false,0,1249.0,0,0,1,38966,WMM1,1385508,false,false,1332,image-keyboard-response,17
true,7,1,1,1,true,z,false,false,0.0-2.0-0.38-0.345-3.345,0,0,0,90,false,stim,false,2,740.0,0,0,0,38966,WMM1,1387759,false,true,1335,image-keyboard-response,18
true,7,2,1,2,true,d,false,true,0.0-2.0-0.38-0.346-3.346,0,0,0,68,false,stim,false,0,1093.0,0,0,2,38966,WMM1,1390363,false,false,1338,image-keyboard-response,19
true,7,1,1,1,true,z,false,true,0.0-2.0-0.38-0.347-3.347,0,0,0,90,false,stim,false,0,591.0,0,0,1,38966,WMM1,1392464,false,false,1341,image-keyboard-response,20
true,7,1,1,2,false,d,true,false,0.0-2.0-0.38-0.348-3.348,0,0,0,90,false,stim,false,0,784.0000000002328,0,0,2,38966,WMM1,1394761,false,false,1344,image-keyboard-response,21
true,7,1,1,1,true,z,false,true,0.0-2.0-0.38-0.349-3.349,0,0,0,90,false,stim,false,0,626.0000000002328,0,0,1,38966,WMM1,1396895,false,false,1347,image-keyboard-response,22
true,7,2,1,2,true,d,false,true,0.0-2.0-0.38-0.350-3.350,0,0,0,68,false,stim,false,0,470.0,0,0,2,38966,WMM1,1398877,false,false,1350,image-keyboard-response,23
true,7,1,1,1,true,z,false,false,0.0-2.0-0.39-0.351-3.351,0,0,0,90,false,stim,false,2,791.0,0,0,0,38966,WMM1,1401180,false,true,1353,image-keyboard-response,24
true,7,2,1,2,true,d,false,true,0.0-2.0-0.39-0.352-3.352,0,0,0,68,false,stim,false,0,721.0,0,0,2,38966,WMM1,1403411,false,false,1356,image-keyboard-response,25
true,7,2,1,2,true,d,false,true,0.0-2.0-0.39-0.353-3.353,0,0,0,68,false,stim,false,0,579.0,0,0,2,38966,WMM1,1405500,false,false,1359,image-keyboard-response,26
true,7,1,1,1,true,z,false,true,0.0-2.0-0.39-0.354-3.354,0,0,0,90,false,stim,false,0,723.0,0,0,1,38966,WMM1,1407736,false,false,1362,image-keyboard-response,27
true,7,1,1,1,true,z,false,true,0.0-2.0-0.39-0.355-3.355,0,0,0,90,false,stim,false,2,962.0,0,0,0,38966,WMM1,1410209,false,false,1365,image-keyboard-response,28
true,7,1,1,1,true,z,false,true,0.0-2.0-0.39-0.356-3.356,0,0,0,90,false,stim,false,2,732.0,0,0,0,38966,WMM1,1412451,false,false,1368,image-keyboard-response,29
true,7,1,1,1,true,z,false,true,0.0-2.0-0.39-0.357-3.357,0,0,0,90,false,stim,false,0,626.0,0,0,1,38966,WMM1,1414589,false,false,1371,image-keyboard-response,30
true,8,2,2,1,false,z,false,true,0.0-2.0-0.39-0.358-3.358,0,0,0,68,true,stim,true,2,563.0,0,0,2,38966,WMM1,1416662,false,true,1374,image-keyboard-response,1
true,8,1,2,2,false,d,false,false,0.0-2.0-0.39-0.359-3.359,0,0,0,90,false,stim,true,1,796.0,0,0,1,38966,WMM1,1418968,false,false,1377,image-keyboard-response,2
true,8,1,2,2,false,d,false,false,0.0-2.0-0.40-0.360-3.360,0,0,0,90,false,stim,true,1,442.0,0,0,1,38966,WMM1,1420922,false,false,1380,image-keyboard-response,3
true,8,1,2,0,false,q,false,false,0.0-2.0-0.40-0.361-3.361,0,0,0,90,false,stim,true,1,963.0,0,0,0,38966,WMM1,1423398,false,false,1383,image-keyboard-response,4
true,8,1,2,0,false,q,false,false,0.0-2.0-0.40-0.362-3.362,0,0,0,90,false,stim,true,1,712.0,0,0,0,38966,WMM1,1425623,false,false,1386,image-keyboard-response,5
true,8,2,2,1,false,z,false,true,0.0-2.0-0.40-0.363-3.363,0,0,0,68,false,stim,true,2,815.0,0,0,2,38966,WMM1,1427947,false,true,1389,image-keyboard-response,6
true,8,2,2,1,false,z,false,false,0.0-2.0-0.40-0.364-3.364,0,0,0,68,false,stim,true,2,1077.0,0,0,2,38966,WMM1,1430534,false,false,1392,image-keyboard-response,7
true,8,2,2,0,false,q,true,false,0.0-2.0-0.40-0.365-3.365,0,0,0,68,false,stim,false,1,654.0,0,0,0,38966,WMM1,1432698,false,false,1395,image-keyboard-response,8
true,8,2,2,2,true,d,false,true,0.0-2.0-0.40-0.366-3.366,0,0,0,68,false,stim,false,1,686.0000000002328,0,0,1,38966,WMM1,1434894,false,false,1398,image-keyboard-response,9
true,8,2,2,1,false,z,false,false,0.0-2.0-0.40-0.367-3.367,0,0,0,68,false,stim,true,2,1269.0,0,0,2,38966,WMM1,1437685,false,false,1401,image-keyboard-response,10
true,8,2,2,2,true,d,false,true,0.0-2.0-0.40-0.368-3.368,0,0,0,68,false,stim,false,1,743.0,0,0,1,38966,WMM1,1439938,false,false,1404,image-keyboard-response,11
true,8,2,2,2,true,d,false,true,0.0-2.0-0.41-0.369-3.369,0,0,0,68,false,stim,false,1,562.0,0,0,1,38966,WMM1,1442012,false,false,1407,image-keyboard-response,12
true,8,2,2,2,true,d,false,true,0.0-2.0-0.41-0.370-3.370,0,0,0,68,false,stim,false,1,597.0,0,0,1,38966,WMM1,1444120,false,false,1410,image-keyboard-response,13
false,8,-1,2,0,false,q,true,false,0.0-2.0-0.41-0.371-3.371,0,0,0,,false,stim,false,1,,0,0,0,38966,WMM1,1448632,false,false,1413,image-keyboard-response,14
true,8,0,2,0,true,q,false,true,0.0-2.0-0.41-0.372-3.372,0,0,0,81,false,stim,false,1,430.0,0,0,0,38966,WMM1,1450573,false,false,1416,image-keyboard-response,15
true,8,0,2,2,false,d,true,false,0.0-2.0-0.41-0.373-3.373,0,0,0,81,false,stim,false,1,582.0,0,0,1,38966,WMM1,1452665,false,false,1419,image-keyboard-response,16
true,8,2,2,0,false,q,true,false,0.0-2.0-0.41-0.374-3.374,0,0,0,68,false,stim,false,1,481.0,0,0,0,38966,WMM1,1454656,false,false,1422,image-keyboard-response,17
true,8,2,2,1,false,z,false,false,0.0-2.0-0.41-0.375-3.375,0,0,0,68,false,stim,true,2,899.0,0,0,2,38966,WMM1,1457065,false,false,1425,image-keyboard-response,18
true,8,1,2,1,true,z,false,true,0.0-2.0-0.41-0.376-3.376,0,0,0,90,false,stim,false,2,504.99999999976717,0,0,2,38966,WMM1,1459082,false,false,1428,image-keyboard-response,19
true,8,1,2,1,true,z,false,true,0.0-2.0-0.41-0.377-3.377,0,0,0,90,false,stim,false,2,397.0,0,0,2,38966,WMM1,1460992,false,false,1431,image-keyboard-response,20
true,8,0,2,0,true,q,false,false,0.0-2.0-0.42-0.378-3.378,0,0,0,81,false,stim,false,1,938.0,0,0,0,38966,WMM1,1463444,false,true,1434,image-keyboard-response,21
true,8,1,2,1,true,z,false,true,0.0-2.0-0.42-0.379-3.379,0,0,0,90,false,stim,false,2,804.0,0,0,2,38966,WMM1,1465761,false,false,1437,image-keyboard-response,22
true,8,2,2,2,true,d,false,true,0.0-2.0-0.42-0.380-3.380,0,0,0,68,false,stim,false,1,950.0,0,0,1,38966,WMM1,1468226,false,false,1440,image-keyboard-response,23
true,8,2,2,1,false,z,false,false,0.0-2.0-0.42-0.381-3.381,0,0,0,68,false,stim,true,2,679.0,0,0,2,38966,WMM1,1470417,false,false,1443,image-keyboard-response,24
true,8,1,2,2,false,d,false,false,0.0-2.0-0.42-0.382-3.382,0,0,0,90,false,stim,true,1,866.0,0,0,1,38966,WMM1,1472796,false,false,1446,image-keyboard-response,25
true,8,0,2,2,false,d,true,true,0.0-2.0-0.42-0.383-3.383,0,0,0,81,false,stim,false,1,1786.0,0,0,1,38966,WMM1,1476094,false,true,1449,image-keyboard-response,26
true,8,0,2,0,true,q,false,false,0.0-2.0-0.42-0.384-3.384,0,0,0,81,false,stim,false,1,913.0,0,0,0,38966,WMM1,1478519,false,true,1452,image-keyboard-response,27
true,8,2,2,1,false,z,false,false,0.0-2.0-0.42-0.385-3.385,0,0,0,68,false,stim,true,2,1045.0,0,0,2,38966,WMM1,1481072,false,false,1455,image-keyboard-response,28
true,8,0,2,0,true,q,false,true,0.0-2.0-0.42-0.386-3.386,0,0,0,81,false,stim,false,1,1189.9999999997672,0,0,0,38966,WMM1,1483775,false,false,1458,image-keyboard-response,29
true,8,1,2,1,true,z,false,true,0.0-2.0-0.43-0.387-3.387,0,0,0,90,false,stim,false,2,1329.0,0,0,2,38966,WMM1,1486620,false,false,1461,image-keyboard-response,30
true,8,0,2,0,true,q,false,true,0.0-2.0-0.43-0.388-3.388,0,0,0,81,false,stim,false,1,927.9999999997672,0,0,0,38966,WMM1,1489061,false,false,1464,image-keyboard-response,31
true,8,0,2,0,true,q,false,true,0.0-2.0-0.43-0.389-3.389,0,0,0,81,false,stim,false,1,825.9999999997672,0,0,0,38966,WMM1,1491402,false,false,1467,image-keyboard-response,32
true,8,1,2,1,true,z,false,true,0.0-2.0-0.43-0.390-3.390,0,0,0,90,false,stim,false,2,1097.0,0,0,2,38966,WMM1,1494011,false,false,1470,image-keyboard-response,33
true,8,0,2,2,false,d,true,true,0.0-2.0-0.43-0.391-3.391,0,0,0,81,false,stim,false,1,1230.0,0,0,1,38966,WMM1,1496754,false,true,1473,image-keyboard-response,34
true,8,0,2,2,false,d,true,false,0.0-2.0-0.43-0.392-3.392,0,0,0,81,false,stim,false,1,542.0,0,0,1,38966,WMM1,1498809,false,false,1476,image-keyboard-response,35
true,8,1,2,1,true,z,false,true,0.0-2.0-0.43-0.393-3.393,0,0,0,90,false,stim,false,2,965.0000000002328,0,0,2,38966,WMM1,1501287,false,false,1479,image-keyboard-response,36
true,8,1,2,2,false,d,false,false,0.0-2.0-0.43-0.394-3.394,0,0,0,90,false,stim,true,1,628.0,0,0,1,38966,WMM1,1503427,false,false,1482,image-keyboard-response,37
true,8,0,2,0,true,q,false,true,0.0-2.0-0.43-0.395-3.395,0,0,0,81,false,stim,false,1,876.0000000002328,0,0,0,38966,WMM1,1505816,false,false,1485,image-keyboard-response,38
true,8,0,2,0,true,q,false,true,0.0-2.0-0.44-0.396-3.396,0,0,0,81,false,stim,false,1,691.0,0,0,0,38966,WMM1,1508023,false,false,1488,image-keyboard-response,39
true,8,1,2,1,true,z,false,true,0.0-2.0-0.44-0.397-3.397,0,0,0,90,false,stim,false,2,1359.0,0,0,2,38966,WMM1,1510897,false,false,1491,image-keyboard-response,40
true,8,1,2,1,true,z,false,false,0.0-2.0-0.44-0.398-3.398,0,0,0,90,false,stim,false,2,554.0,0,0,2,38966,WMM1,1512964,false,true,1494,image-keyboard-response,41
true,8,1,2,1,true,z,false,true,0.0-2.0-0.44-0.399-3.399,0,0,0,90,false,stim,false,2,596.0,0,0,2,38966,WMM1,1515074,false,false,1497,image-keyboard-response,42
true,8,2,2,2,true,d,false,true,0.0-2.0-0.44-0.400-3.400,0,0,0,68,false,stim,false,1,577.0,0,0,1,38966,WMM1,1517163,false,false,1500,image-keyboard-response,43
true,8,2,2,2,true,d,false,true,0.0-2.0-0.44-0.401-3.401,0,0,0,68,false,stim,false,1,559.0,0,0,1,38966,WMM1,1519247,false,false,1503,image-keyboard-response,44
true,8,0,2,0,true,q,false,true,0.0-2.0-0.44-0.402-3.402,0,0,0,81,false,stim,false,1,974.0,0,0,0,38966,WMM1,1521733,false,false,1506,image-keyboard-response,45
true,8,2,2,2,true,d,false,true,0.0-2.0-0.44-0.403-3.403,0,0,0,68,false,stim,false,1,899.0000000002328,0,0,1,38966,WMM1,1524143,false,false,1509,image-keyboard-response,46
true,8,0,2,0,true,q,false,true,0.0-2.0-0.44-0.404-3.404,0,0,0,81,false,stim,false,1,954.0,0,0,0,38966,WMM1,1526608,false,false,1512,image-keyboard-response,47
true,8,2,2,2,true,d,false,true,0.0-2.0-0.45-0.405-3.405,0,0,0,68,false,stim,false,1,756.0,0,0,1,38966,WMM1,1528876,false,false,1515,image-keyboard-response,48
true,8,2,2,2,true,d,false,true,0.0-2.0-0.45-0.406-3.406,0,0,0,68,false,stim,false,1,982.0,0,0,1,38966,WMM1,1531369,false,false,1518,image-keyboard-response,49
true,8,1,2,1,true,z,false,true,0.0-2.0-0.45-0.407-3.407,0,0,0,90,false,stim,false,2,1102.0,0,0,2,38966,WMM1,1533983,false,false,1521,image-keyboard-response,50
true,8,0,2,2,false,d,true,false,0.0-2.0-0.45-0.408-3.408,0,0,0,81,false,stim,false,1,1171.0,0,0,1,38966,WMM1,1536666,false,false,1524,image-keyboard-response,51
true,8,1,2,1,true,z,false,true,0.0-2.0-0.45-0.409-3.409,0,0,0,90,false,stim,false,2,954.0,0,0,2,38966,WMM1,1539131,false,false,1527,image-keyboard-response,52
true,8,0,2,0,true,q,false,true,0.0-2.0-0.45-0.410-3.410,0,0,0,81,false,stim,false,1,1513.9999999997672,0,0,0,38966,WMM1,1542156,false,false,1530,image-keyboard-response,53
true,8,0,2,0,true,q,false,true,0.0-2.0-0.45-0.411-3.411,0,0,0,81,false,stim,false,1,677.0,0,0,0,38966,WMM1,1544347,false,false,1533,image-keyboard-response,54
true,9,0,1,1,false,z,false,false,0.0-2.0-0.45-0.412-3.412,0,0,0,81,true,stim,true,0,535.0,0,0,0,38966,WMM1,1546392,false,false,1536,image-keyboard-response,1
true,9,2,1,0,false,q,true,false,0.0-2.0-0.45-0.413-3.413,0,0,0,68,false,stim,false,1,760.0000000002328,0,0,2,38966,WMM1,1548660,false,false,1539,image-keyboard-response,2
true,9,1,1,0,false,q,false,true,0.0-2.0-0.46-0.414-3.414,0,0,0,90,false,stim,true,1,813.0,0,0,2,38966,WMM1,1550985,false,true,1542,image-keyboard-response,3
true,9,2,1,1,false,z,true,false,0.0-2.0-0.46-0.415-3.415,0,0,0,68,false,stim,false,0,972.0000000002328,0,0,0,38966,WMM1,1553469,false,false,1545,image-keyboard-response,4
true,9,0,1,0,true,q,false,true,0.0-2.0-0.46-0.416-3.416,0,0,0,81,false,stim,false,2,1624.0000000002328,0,0,1,38966,WMM1,1556604,false,false,1548,image-keyboard-response,5
true,9,1,1,0,false,q,false,false,0.0-2.0-0.46-0.417-3.417,0,0,0,90,false,stim,true,1,1086.0000000002328,0,0,2,38966,WMM1,1559199,false,false,1551,image-keyboard-response,6
true,9,0,1,0,true,q,false,true,0.0-2.0-0.46-0.418-3.418,0,0,0,81,false,stim,false,2,947.0,0,0,1,38966,WMM1,1561659,false,false,1554,image-keyboard-response,7
true,9,0,1,0,true,q,false,true,0.0-2.0-0.46-0.419-3.419,0,0,0,81,false,stim,false,1,913.9999999997672,0,0,2,38966,WMM1,1564085,false,false,1557,image-keyboard-response,8
true,9,0,1,0,true,q,false,false,0.0-2.0-0.46-0.420-3.420,0,0,0,81,false,stim,false,2,588.0,0,0,1,38966,WMM1,1566184,false,true,1560,image-keyboard-response,9
true,9,0,1,1,false,z,false,false,0.0-2.0-0.46-0.421-3.421,0,0,0,81,false,stim,true,0,698.0,0,0,0,38966,WMM1,1568392,false,false,1563,image-keyboard-response,10
true,9,2,1,1,false,z,true,false,0.0-2.0-0.46-0.422-3.422,0,0,0,68,false,stim,false,0,477.0,0,0,0,38966,WMM1,1570380,false,false,1566,image-keyboard-response,11
true,9,1,1,1,true,z,false,true,0.0-2.0-0.47-0.423-3.423,0,0,0,90,false,stim,false,0,362.0,0,0,0,38966,WMM1,1572251,false,false,1569,image-keyboard-response,12
true,9,1,1,0,false,q,true,false,0.0-2.0-0.47-0.424-3.424,0,0,0,90,false,stim,false,2,1329.0,0,0,1,38966,WMM1,1575089,false,false,1572,image-keyboard-response,13
true,9,0,1,0,true,q,false,true,0.0-2.0-0.47-0.425-3.425,0,0,0,81,false,stim,false,1,1116.0,0,0,2,38966,WMM1,1577718,false,false,1575,image-keyboard-response,14
true,9,0,1,0,true,q,false,true,0.0-2.0-0.47-0.426-3.426,0,0,0,81,false,stim,false,1,1277.0000000002328,0,0,2,38966,WMM1,1580506,false,false,1578,image-keyboard-response,15
true,9,0,1,0,true,q,false,true,0.0-2.0-0.47-0.427-3.427,0,0,0,81,false,stim,false,2,913.0000000002328,0,0,1,38966,WMM1,1582930,false,false,1581,image-keyboard-response,16
true,9,0,1,1,false,z,false,false,0.0-2.0-0.47-0.428-3.428,0,0,0,81,false,stim,true,0,770.0,0,0,0,38966,WMM1,1585214,false,false,1584,image-keyboard-response,17
true,9,1,1,0,false,q,false,true,0.0-2.0-0.47-0.429-3.429,0,0,0,90,false,stim,true,1,1036.0,0,0,2,38966,WMM1,1587761,false,true,1587,image-keyboard-response,18
true,9,1,1,1,true,z,false,true,0.0-2.0-0.47-0.430-3.430,0,0,0,90,false,stim,false,0,806.0,0,0,0,38966,WMM1,1590078,false,false,1590,image-keyboard-response,19
true,9,1,1,0,false,q,true,false,0.0-2.0-0.47-0.431-3.431,0,0,0,90,false,stim,false,2,950.0,0,0,1,38966,WMM1,1592540,false,false,1593,image-keyboard-response,20
true,9,2,1,0,false,q,true,false,0.0-2.0-0.48-0.432-3.432,0,0,0,68,false,stim,false,1,641.0,0,0,2,38966,WMM1,1594698,false,false,1596,image-keyboard-response,21
true,9,1,1,1,true,z,false,true,0.0-2.0-0.48-0.433-3.433,0,0,0,90,false,stim,false,0,835.0,0,0,0,38966,WMM1,1597045,false,false,1599,image-keyboard-response,22
true,9,1,1,1,true,z,false,true,0.0-2.0-0.48-0.434-3.434,0,0,0,90,false,stim,false,0,495.0,0,0,0,38966,WMM1,1599063,false,false,1602,image-keyboard-response,23
true,9,0,1,0,true,q,false,true,0.0-2.0-0.48-0.435-3.435,0,0,0,81,false,stim,false,2,1149.0000000002328,0,0,1,38966,WMM1,1601728,false,false,1605,image-keyboard-response,24
true,9,2,1,0,false,q,true,false,0.0-2.0-0.48-0.436-3.436,0,0,0,68,false,stim,false,1,920.0,0,0,2,38966,WMM1,1604160,false,false,1608,image-keyboard-response,25
true,9,0,1,0,true,q,false,true,0.0-2.0-0.48-0.437-3.437,0,0,0,81,false,stim,false,2,908.0000000002328,0,0,1,38966,WMM1,1606582,false,false,1611,image-keyboard-response,26
true,9,1,1,1,true,z,false,true,0.0-2.0-0.48-0.438-3.438,0,0,0,90,false,stim,false,0,839.0,0,0,0,38966,WMM1,1608933,false,false,1614,image-keyboard-response,27
true,9,0,1,0,true,q,false,true,0.0-2.0-0.48-0.439-3.439,0,0,0,81,false,stim,false,2,1126.0,0,0,1,38966,WMM1,1611572,false,false,1617,image-keyboard-response,28
true,9,1,1,0,false,q,false,false,0.0-2.0-0.48-0.440-3.440,0,0,0,90,false,stim,true,1,935.0,0,0,2,38966,WMM1,1614021,false,false,1620,image-keyboard-response,29
true,9,0,1,0,true,q,false,true,0.0-2.0-0.49-0.441-3.441,0,0,0,81,false,stim,false,1,1109.0,0,0,2,38966,WMM1,1616641,false,false,1623,image-keyboard-response,30
true,9,2,1,1,false,z,true,false,0.0-2.0-0.49-0.442-3.442,0,0,0,68,false,stim,false,0,1037.0,0,0,0,38966,WMM1,1619192,false,false,1626,image-keyboard-response,31
true,9,1,1,0,false,q,false,false,0.0-2.0-0.49-0.443-3.443,0,0,0,90,false,stim,true,1,356.0,0,0,2,38966,WMM1,1621060,false,false,1629,image-keyboard-response,32
true,9,0,1,1,false,z,false,false,0.0-2.0-0.49-0.444-3.444,0,0,0,81,false,stim,true,0,695.0,0,0,0,38966,WMM1,1623267,false,false,1632,image-keyboard-response,33
true,9,1,1,0,false,q,true,false,0.0-2.0-0.49-0.445-3.445,0,0,0,90,false,stim,false,2,1063.0,0,0,1,38966,WMM1,1625843,false,false,1635,image-keyboard-response,34
true,9,0,1,1,false,z,false,false,0.0-2.0-0.49-0.446-3.446,0,0,0,81,false,stim,true,0,1249.0,0,0,0,38966,WMM1,1628603,false,false,1638,image-keyboard-response,35
true,9,2,1,0,false,q,false,true,0.0-2.0-0.49-0.447-3.447,0,0,0,68,false,stim,true,2,1180.0,0,0,1,38966,WMM1,1631298,false,true,1641,image-keyboard-response,36
true,9,2,1,0,false,q,false,false,0.0-2.0-0.49-0.448-3.448,0,0,0,68,false,stim,true,2,620.0,0,0,1,38966,WMM1,1633431,false,false,1644,image-keyboard-response,37
true,9,2,1,0,false,q,true,false,0.0-2.0-0.49-0.449-3.449,0,0,0,68,false,stim,false,1,972.0,0,0,2,38966,WMM1,1635917,false,false,1647,image-keyboard-response,38
true,9,0,1,0,true,q,false,true,0.0-2.0-0.50-0.450-3.450,0,0,0,81,false,stim,false,1,797.0,0,0,2,38966,WMM1,1638229,false,false,1650,image-keyboard-response,39
true,9,0,1,0,true,q,false,true,0.0-2.0-0.50-0.451-3.451,0,0,0,81,false,stim,false,1,676.0,0,0,2,38966,WMM1,1640413,false,false,1653,image-keyboard-response,40
true,9,1,1,1,true,z,false,true,0.0-2.0-0.50-0.452-3.452,0,0,0,90,false,stim,false,0,1220.0,0,0,0,38966,WMM1,1643145,false,false,1656,image-keyboard-response,41
true,9,2,1,0,false,q,false,false,0.0-2.0-0.50-0.453-3.453,0,0,0,68,false,stim,true,2,1199.0,0,0,1,38966,WMM1,1645855,false,false,1659,image-keyboard-response,42
true,9,1,1,0,false,q,true,false,0.0-2.0-0.50-0.454-3.454,0,0,0,90,false,stim,false,2,645.0,0,0,1,38966,WMM1,1648013,false,false,1662,image-keyboard-response,43
true,9,1,1,0,false,q,false,false,0.0-2.0-0.50-0.455-3.455,0,0,0,90,false,stim,true,1,1374.0000000002328,0,0,2,38966,WMM1,1650899,false,false,1665,image-keyboard-response,44
true,9,0,1,1,false,z,false,false,0.0-2.0-0.50-0.456-3.456,0,0,0,81,false,stim,true,0,623.0,0,0,0,38966,WMM1,1653034,false,false,1668,image-keyboard-response,45
true,9,1,1,0,false,q,true,true,0.0-2.0-0.50-0.457-3.457,0,0,0,90,false,stim,false,2,1411.0,0,0,1,38966,WMM1,1655957,false,true,1671,image-keyboard-response,46
true,9,0,1,1,false,z,false,false,0.0-2.0-0.50-0.458-3.458,0,0,0,81,false,stim,true,0,1287.0,0,0,0,38966,WMM1,1658757,false,false,1674,image-keyboard-response,47
true,9,1,1,1,true,z,false,true,0.0-2.0-0.51-0.459-3.459,0,0,0,90,false,stim,false,0,474.0,0,0,0,38966,WMM1,1660746,false,false,1677,image-keyboard-response,48
true,9,2,1,0,false,q,false,false,0.0-2.0-0.51-0.460-3.460,0,0,0,68,false,stim,true,2,1433.0,0,0,1,38966,WMM1,1663691,false,false,1680,image-keyboard-response,49
true,9,1,1,0,false,q,true,false,0.0-2.0-0.51-0.461-3.461,0,0,0,90,false,stim,false,2,455.0,0,0,1,38966,WMM1,1665659,false,false,1683,image-keyboard-response,50
true,9,1,1,0,false,q,true,false,0.0-2.0-0.51-0.462-3.462,0,0,0,90,false,stim,false,2,744.0,0,0,1,38966,WMM1,1667916,false,false,1686,image-keyboard-response,51
true,9,1,1,1,true,z,false,false,0.0-2.0-0.51-0.463-3.463,0,0,0,90,false,stim,false,0,1215.0,0,0,0,38966,WMM1,1670644,false,true,1689,image-keyboard-response,52
true,9,1,1,1,true,z,false,true,0.0-2.0-0.51-0.464-3.464,0,0,0,90,false,stim,false,0,505.0,0,0,0,38966,WMM1,1672660,false,false,1692,image-keyboard-response,53
true,9,1,1,0,false,q,false,false,0.0-2.0-0.51-0.465-3.465,0,0,0,90,false,stim,true,1,979.0,0,0,2,38966,WMM1,1675151,false,false,1695,image-keyboard-response,54
true,9,1,1,0,false,q,false,true,0.0-2.0-0.51-0.466-3.466,0,0,0,90,false,stim,true,1,445.0,0,0,2,38966,WMM1,1677109,false,true,1698,image-keyboard-response,55
true,9,1,1,0,false,q,false,false,0.0-2.0-0.51-0.467-3.467,0,0,0,90,false,stim,true,1,547.0,0,0,2,38966,WMM1,1679179,false,false,1701,image-keyboard-response,56
true,9,1,1,1,true,z,false,true,0.0-2.0-0.52-0.468-3.468,0,0,0,90,false,stim,false,0,527.0,0,0,0,38966,WMM1,1681218,false,false,1704,image-keyboard-response,57
true,9,1,1,0,false,q,false,false,0.0-2.0-0.52-0.469-3.469,0,0,0,90,false,stim,true,1,490.0,0,0,2,38966,WMM1,1683219,false,false,1707,image-keyboard-response,58
true,9,1,1,0,false,q,true,false,0.0-2.0-0.52-0.470-3.470,0,0,0,90,false,stim,false,2,1437.0,0,0,1,38966,WMM1,1686166,false,false,1710,image-keyboard-response,59
true,9,0,1,1,false,z,false,false,0.0-2.0-0.52-0.471-3.471,0,0,0,81,false,stim,true,0,467.99999999976717,0,0,0,38966,WMM1,1688145,false,false,1713,image-keyboard-response,60
true,10,1,2,0,false,q,false,false,0.0-2.0-0.52-0.472-3.472,0,0,0,90,true,stim,true,1,621.0,0,0,0,38966,WMM1,1690276,false,false,1716,image-keyboard-response,1
true,10,0,2,2,false,d,false,false,0.0-2.0-0.52-0.473-3.473,0,0,0,81,false,stim,true,0,1446.0,0,0,1,38966,WMM1,1693232,false,false,1719,image-keyboard-response,2
true,10,2,2,1,false,z,true,false,0.0-2.0-0.52-0.474-3.474,0,0,0,68,false,stim,false,0,978.0,0,0,2,38966,WMM1,1695724,false,false,1722,image-keyboard-response,3
true,10,1,2,1,true,z,false,true,0.0-2.0-0.52-0.475-3.475,0,0,0,90,false,stim,false,0,1034.0,0,0,2,38966,WMM1,1698269,false,false,1725,image-keyboard-response,4
true,10,2,2,2,true,d,false,true,0.0-2.0-0.52-0.476-3.476,0,0,0,68,false,stim,false,0,1229.0,0,0,1,38966,WMM1,1701006,false,false,1728,image-keyboard-response,5
true,10,2,2,2,true,d,false,true,0.0-2.0-0.53-0.477-3.477,0,0,0,68,false,stim,false,0,636.0,0,0,1,38966,WMM1,1703153,false,false,1731,image-keyboard-response,6
true,10,2,2,2,true,d,false,true,0.0-2.0-0.53-0.478-3.478,0,0,0,68,false,stim,false,0,417.0,0,0,1,38966,WMM1,1705081,false,false,1734,image-keyboard-response,7
true,10,1,2,1,true,z,false,true,0.0-2.0-0.53-0.479-3.479,0,0,0,90,false,stim,false,0,1271.0,0,0,2,38966,WMM1,1707856,false,false,1737,image-keyboard-response,8
true,10,2,2,2,true,d,false,true,0.0-2.0-0.53-0.480-3.480,0,0,0,68,false,stim,false,0,1096.0,0,0,1,38966,WMM1,1710463,false,false,1740,image-keyboard-response,9
true,10,0,2,0,true,q,false,true,0.0-2.0-0.53-0.481-3.481,0,0,0,81,false,stim,false,1,1252.0000000002328,0,0,0,38966,WMM1,1713224,false,false,1743,image-keyboard-response,10
true,10,0,2,0,true,q,false,true,0.0-2.0-0.53-0.482-3.482,0,0,0,81,false,stim,false,1,571.9999999997672,0,0,0,38966,WMM1,1715306,false,false,1746,image-keyboard-response,11
true,10,1,2,1,true,z,false,true,0.0-2.0-0.53-0.483-3.483,0,0,0,90,false,stim,false,0,793.0000000002328,0,0,2,38966,WMM1,1717609,false,false,1749,image-keyboard-response,12
true,10,0,2,0,true,q,false,true,0.0-2.0-0.53-0.484-3.484,0,0,0,81,false,stim,false,1,1029.0,0,0,0,38966,WMM1,1720146,false,false,1752,image-keyboard-response,13
true,10,1,2,1,true,z,false,true,0.0-2.0-0.53-0.485-3.485,0,0,0,90,false,stim,false,0,752.9999999997672,0,0,2,38966,WMM1,1722410,false,false,1755,image-keyboard-response,14
true,10,1,2,1,true,z,false,true,0.0-2.0-0.54-0.486-3.486,0,0,0,90,false,stim,false,0,517.0,0,0,2,38966,WMM1,1724439,false,false,1758,image-keyboard-response,15
true,10,0,2,0,true,q,false,true,0.0-2.0-0.54-0.487-3.487,0,0,0,81,false,stim,false,1,965.0,0,0,0,38966,WMM1,1726916,false,false,1761,image-keyboard-response,16
true,10,1,2,2,false,d,true,false,0.0-2.0-0.54-0.488-3.488,0,0,0,90,false,stim,false,0,841.0,0,0,1,38966,WMM1,1729268,false,false,1764,image-keyboard-response,17
true,10,2,2,2,true,d,false,true,0.0-2.0-0.54-0.489-3.489,0,0,0,68,false,stim,false,0,592.0,0,0,1,38966,WMM1,1731371,false,false,1767,image-keyboard-response,18
true,10,0,2,0,true,q,false,true,0.0-2.0-0.54-0.490-3.490,0,0,0,81,false,stim,false,1,758.0,0,0,0,38966,WMM1,1733640,false,false,1770,image-keyboard-response,19
true,10,1,2,1,true,z,false,true,0.0-2.0-0.54-0.491-3.491,0,0,0,90,false,stim,false,0,939.0,0,0,2,38966,WMM1,1736091,false,false,1773,image-keyboard-response,20
true,10,0,2,0,true,q,false,true,0.0-2.0-0.54-0.492-3.492,0,0,0,81,false,stim,false,1,507.0,0,0,0,38966,WMM1,1738110,false,false,1776,image-keyboard-response,21
true,10,1,2,1,true,z,false,false,0.0-2.0-0.54-0.493-3.493,0,0,0,90,false,stim,false,0,863.0,0,0,2,38966,WMM1,1740486,false,true,1779,image-keyboard-response,22
true,10,0,2,2,false,d,false,false,0.0-2.0-0.54-0.494-3.494,0,0,0,81,false,stim,true,0,1599.0,0,0,1,38966,WMM1,1743600,false,false,1782,image-keyboard-response,23
true,10,0,2,0,true,q,false,true,0.0-2.0-0.55-0.495-3.495,0,0,0,81,false,stim,false,1,737.0,0,0,0,38966,WMM1,1745852,false,false,1785,image-keyboard-response,24
true,10,2,2,2,true,d,false,true,0.0-2.0-0.55-0.496-3.496,0,0,0,68,false,stim,false,0,580.0,0,0,1,38966,WMM1,1747946,false,false,1788,image-keyboard-response,25
true,10,1,2,1,true,z,false,true,0.0-2.0-0.55-0.497-3.497,0,0,0,90,false,stim,false,0,826.0,0,0,2,38966,WMM1,1750283,false,false,1791,image-keyboard-response,26
true,10,0,2,0,true,q,false,true,0.0-2.0-0.55-0.498-3.498,0,0,0,81,false,stim,false,1,1126.0,0,0,0,38966,WMM1,1752921,false,false,1794,image-keyboard-response,27
true,10,1,2,1,true,z,false,true,0.0-2.0-0.55-0.499-3.499,0,0,0,90,false,stim,false,0,848.0,0,0,2,38966,WMM1,1755284,false,false,1797,image-keyboard-response,28
true,10,2,2,2,true,d,false,true,0.0-2.0-0.55-0.500-3.500,0,0,0,68,false,stim,false,0,736.0,0,0,1,38966,WMM1,1757532,false,false,1800,image-keyboard-response,29
true,10,2,2,2,true,d,false,true,0.0-2.0-0.55-0.501-3.501,0,0,0,68,false,stim,false,0,545.0,0,0,1,38966,WMM1,1759602,false,false,1803,image-keyboard-response,30
true,10,1,2,1,true,z,false,true,0.0-2.0-0.55-0.502-3.502,0,0,0,90,false,stim,false,0,714.0,0,1,2,38966,WMM1,1761827,false,false,1806,image-keyboard-response,31
true,10,0,2,0,true,q,false,true,0.0-2.0-0.55-0.503-3.503,0,0,0,81,false,stim,false,1,750.0,0,0,0,38966,WMM1,1764089,false,false,1809,image-keyboard-response,32
true,10,1,2,2,false,d,true,false,0.0-2.0-0.56-0.504-3.504,0,0,0,90,false,stim,false,0,621.0000000002328,0,0,1,38966,WMM1,1766223,false,false,1812,image-keyboard-response,33
true,10,2,2,1,false,z,true,false,0.0-2.0-0.56-0.505-3.505,0,0,0,68,false,stim,false,0,448.0,0,1,2,38966,WMM1,1768186,false,false,1815,image-keyboard-response,34
true,10,2,2,2,true,d,false,true,0.0-2.0-0.56-0.506-3.506,0,0,0,68,false,stim,false,0,1401.0000000002328,0,0,1,38966,WMM1,1771099,false,false,1818,image-keyboard-response,35
true,10,1,2,0,false,q,false,false,0.0-2.0-0.56-0.507-3.507,0,0,0,90,false,stim,true,1,1429.0,0,0,0,38966,WMM1,1774038,false,false,1821,image-keyboard-response,36
true,10,0,2,1,false,z,false,false,0.0-2.0-0.56-0.508-3.508,0,0,0,81,false,stim,true,0,813.0,0,1,2,38966,WMM1,1776365,false,false,1824,image-keyboard-response,37
true,10,1,2,0,false,q,false,true,0.0-2.0-0.56-0.509-3.509,0,0,0,90,false,stim,true,1,2493.999999999767,0,0,0,38966,WMM1,1780372,false,true,1827,image-keyboard-response,38
true,10,0,2,1,false,z,false,false,0.0-2.0-0.56-0.510-3.510,0,0,0,81,false,stim,true,0,1167.0000000002328,0,1,2,38966,WMM1,1783050,false,false,1830,image-keyboard-response,39
true,11,1,3,2,false,d,true,false,0.0-2.0-0.56-0.511-3.511,0,0,1,90,true,stim,false,0,663.0,0,0,0,38966,WMM1,1785225,false,false,1833,image-keyboard-response,1
true,11,0,3,0,true,q,false,true,0.0-2.0-0.56-0.512-3.512,0,0,1,81,false,stim,false,2,1286.0,0,0,1,38966,WMM1,1788023,false,false,1836,image-keyboard-response,2
true,11,2,3,2,true,d,false,true,0.0-2.0-0.57-0.513-3.513,0,0,1,68,false,stim,false,0,1088.0,0,0,0,38966,WMM1,1790625,false,false,1839,image-keyboard-response,3
true,11,0,3,0,true,q,false,true,0.0-2.0-0.57-0.514-3.514,0,0,1,81,false,stim,false,2,1106.0,0,0,1,38966,WMM1,1793242,false,false,1842,image-keyboard-response,4
true,11,0,3,0,true,q,false,true,0.0-2.0-0.57-0.515-3.515,0,0,1,81,false,stim,false,2,1884.0,0,0,1,38966,WMM1,1796637,false,false,1845,image-keyboard-response,5
true,11,2,3,2,true,d,false,true,0.0-2.0-0.57-0.516-3.516,0,0,1,68,false,stim,false,0,1089.0,0,0,0,38966,WMM1,1799239,false,false,1848,image-keyboard-response,6
true,11,0,3,0,true,q,false,true,0.0-2.0-0.57-0.517-3.517,0,0,1,81,false,stim,false,2,799.9999999997672,0,0,1,38966,WMM1,1801550,false,false,1851,image-keyboard-response,7
true,11,1,3,1,true,z,false,true,0.0-2.0-0.57-0.518-3.518,0,0,1,90,false,stim,false,1,635.0,0,1,2,38966,WMM1,1803697,false,false,1854,image-keyboard-response,8
true,11,1,3,1,true,z,false,true,0.0-2.0-0.57-0.519-3.519,0,0,1,90,false,stim,false,1,760.0,0,1,2,38966,WMM1,1805970,false,false,1857,image-keyboard-response,9
true,11,2,3,2,true,d,false,true,0.0-2.0-0.57-0.520-3.520,0,0,1,68,false,stim,false,0,1734.9999999997672,0,0,0,38966,WMM1,1809217,false,false,1860,image-keyboard-response,10
true,11,1,3,1,true,z,false,true,0.0-2.0-0.57-0.521-3.521,0,0,1,90,false,stim,false,1,842.0,0,1,2,38966,WMM1,1811570,false,false,1863,image-keyboard-response,11
true,11,1,3,1,true,z,false,true,0.0-2.0-0.58-0.522-3.522,0,0,1,90,false,stim,false,1,1042.0,0,1,2,38966,WMM1,1814124,false,false,1866,image-keyboard-response,12
true,11,1,3,1,true,z,false,true,0.0-2.0-0.58-0.523-3.523,0,0,1,90,false,stim,false,1,830.0,0,1,2,38966,WMM1,1816465,false,false,1869,image-keyboard-response,13
true,11,0,3,2,false,d,false,false,0.0-2.0-0.58-0.524-3.524,0,0,1,81,false,stim,true,0,1044.0000000002328,0,0,0,38966,WMM1,1819020,false,false,1872,image-keyboard-response,14
true,11,2,3,2,true,d,false,true,0.0-2.0-0.58-0.525-3.525,0,0,1,68,false,stim,false,0,493.0,0,0,0,38966,WMM1,1821024,false,false,1875,image-keyboard-response,15
true,11,1,3,1,true,z,false,true,0.0-2.0-0.58-0.526-3.526,0,0,1,90,false,stim,false,1,716.0000000002328,0,1,2,38966,WMM1,1823251,false,false,1878,image-keyboard-response,16
true,11,0,3,0,true,q,false,false,0.0-2.0-0.58-0.527-3.527,0,0,1,81,false,stim,false,2,489.00000000023283,0,0,1,38966,WMM1,1825251,false,true,1881,image-keyboard-response,17
true,11,2,3,0,false,q,false,false,0.0-2.0-0.58-0.528-3.528,0,0,1,68,false,stim,true,2,646.0,0,0,1,38966,WMM1,1827408,false,false,1884,image-keyboard-response,18
true,11,2,3,2,true,d,false,true,0.0-2.0-0.58-0.529-3.529,0,0,1,68,false,stim,false,0,705.0,0,0,0,38966,WMM1,1829624,false,false,1887,image-keyboard-response,19
true,11,1,3,0,false,q,true,false,0.0-2.0-0.58-0.530-3.530,0,0,1,90,false,stim,false,2,1076.0,0,0,1,38966,WMM1,1832215,false,false,1890,image-keyboard-response,20
true,11,1,3,0,false,q,true,true,0.0-2.0-0.59-0.531-3.531,0,0,1,90,false,stim,false,2,806.0,0,0,1,38966,WMM1,1834536,false,true,1893,image-keyboard-response,21
true,11,1,3,1,true,z,false,true,0.0-2.0-0.59-0.532-3.532,0,0,1,90,false,stim,false,1,1189.9999999997672,0,1,2,38966,WMM1,1837238,false,false,1896,image-keyboard-response,22
true,11,2,3,2,true,d,false,false,0.0-2.0-0.59-0.533-3.533,0,0,1,68,false,stim,false,0,764.9999999997672,0,0,0,38966,WMM1,1839516,false,true,1899,image-keyboard-response,23
true,11,1,3,1,true,z,false,true,0.0-2.0-0.59-0.534-3.534,0,0,1,90,false,stim,false,1,991.0,0,1,2,38966,WMM1,1842032,false,false,1902,image-keyboard-response,24
true,11,1,3,0,false,q,true,false,0.0-2.0-0.59-0.535-3.535,0,0,1,90,false,stim,false,2,1084.9999999997672,0,0,1,38966,WMM1,1844633,false,false,1905,image-keyboard-response,25
true,11,2,3,2,true,d,false,true,0.0-2.0-0.59-0.536-3.536,0,0,1,68,false,stim,false,0,1190.0,0,0,0,38966,WMM1,1847338,false,false,1908,image-keyboard-response,26
true,11,1,3,0,false,q,true,false,0.0-2.0-0.59-0.537-3.537,0,0,1,90,false,stim,false,2,1067.0,0,0,1,38966,WMM1,1849919,false,false,1911,image-keyboard-response,27
true,11,1,3,1,true,z,false,true,0.0-2.0-0.59-0.538-3.538,0,0,1,90,false,stim,false,1,1226.0,0,1,2,38966,WMM1,1852657,false,false,1914,image-keyboard-response,28
true,11,2,3,2,true,d,false,true,0.0-2.0-0.59-0.539-3.539,0,0,1,68,false,stim,false,0,1052.0000000002328,0,0,0,38966,WMM1,1855220,false,false,1917,image-keyboard-response,29
true,11,1,3,1,true,z,false,true,0.0-2.0-0.60-0.540-3.540,0,0,1,90,false,stim,false,1,1283.0000000002328,0,1,2,38966,WMM1,1858017,false,false,1920,image-keyboard-response,30
true,11,1,3,1,true,z,false,true,0.0-2.0-0.60-0.541-3.541,0,0,1,90,false,stim,false,1,927.0,0,1,2,38966,WMM1,1860459,false,false,1923,image-keyboard-response,31
true,11,1,3,0,false,q,true,false,0.0-2.0-0.60-0.542-3.542,0,0,1,90,false,stim,false,2,804.0,0,0,1,38966,WMM1,1862777,false,false,1926,image-keyboard-response,32
true,11,0,3,0,true,q,false,true,0.0-2.0-0.60-0.543-3.543,0,0,1,81,false,stim,false,2,744.0,0,0,1,38966,WMM1,1865031,false,false,1929,image-keyboard-response,33
true,11,1,3,1,true,z,false,true,0.0-2.0-0.60-0.544-3.544,0,0,1,90,false,stim,false,1,1293.0,0,1,2,38966,WMM1,1867833,false,false,1932,image-keyboard-response,34
true,11,2,3,2,true,d,false,true,0.0-2.0-0.60-0.545-3.545,0,0,1,68,false,stim,false,0,1334.0,0,0,0,38966,WMM1,1870681,false,false,1935,image-keyboard-response,35
true,11,2,3,2,true,d,false,true,0.0-2.0-0.60-0.546-3.546,0,0,1,68,false,stim,false,0,1397.0,0,0,0,38966,WMM1,1873586,false,false,1938,image-keyboard-response,36
true,11,2,3,2,true,d,false,true,0.0-2.0-0.60-0.547-3.547,0,0,1,68,false,stim,false,0,662.0,0,0,0,38966,WMM1,1875760,false,false,1941,image-keyboard-response,37
true,11,0,3,0,true,q,false,false,0.0-2.0-0.60-0.548-3.548,0,0,1,81,false,stim,false,2,846.0000000002328,0,0,1,38966,WMM1,1878120,false,true,1944,image-keyboard-response,38
true,11,2,3,2,true,d,false,false,0.0-2.0-0.61-0.549-3.549,0,0,1,68,false,stim,false,0,669.0,0,1,0,38966,WMM1,1880305,false,true,1947,image-keyboard-response,39
true,11,1,3,1,true,z,false,true,0.0-2.0-0.61-0.550-3.550,0,0,1,90,false,stim,false,1,980.0,0,0,2,38966,WMM1,1882796,false,false,1950,image-keyboard-response,40
true,11,2,3,0,false,q,false,false,0.0-2.0-0.61-0.551-3.551,0,0,1,68,false,stim,true,2,999.0,0,0,1,38966,WMM1,1885308,false,false,1953,image-keyboard-response,41
true,11,0,3,0,true,q,false,true,0.0-2.0-0.61-0.552-3.552,0,0,1,81,false,stim,false,2,606.9999999997672,0,0,1,38966,WMM1,1887428,false,false,1956,image-keyboard-response,42
true,11,0,3,2,false,d,false,false,0.0-2.0-0.61-0.553-3.553,0,0,1,81,false,stim,true,0,659.0,0,1,0,38966,WMM1,1889598,false,false,1959,image-keyboard-response,43
true,11,1,3,1,true,z,false,true,0.0-2.0-0.61-0.554-3.554,0,0,1,90,false,stim,false,1,659.0,0,0,2,38966,WMM1,1891769,false,false,1962,image-keyboard-response,44
true,11,1,3,1,true,z,false,true,0.0-2.0-0.61-0.555-3.555,0,0,1,90,false,stim,false,1,1063.0,0,0,2,38966,WMM1,1894347,false,false,1965,image-keyboard-response,45
true,11,2,3,2,true,d,false,true,0.0-2.0-0.61-0.556-3.556,0,0,1,68,false,stim,false,0,1012.9999999997672,0,1,0,38966,WMM1,1896872,false,false,1968,image-keyboard-response,46
true,11,0,3,0,true,q,false,true,0.0-2.0-0.61-0.557-3.557,0,0,1,81,false,stim,false,2,1381.0,0,0,1,38966,WMM1,1899765,false,false,1971,image-keyboard-response,47
true,11,0,3,0,true,q,false,true,0.0-2.0-0.62-0.558-3.558,0,0,1,81,false,stim,false,2,452.0,0,0,1,38966,WMM1,1901733,false,false,1974,image-keyboard-response,48
true,12,1,3,0,false,q,false,false,0.0-2.0-0.62-0.559-3.559,1,0,0,90,true,stim,true,1,1167.0,0,0,2,38966,WMM1,1904411,false,false,1977,image-keyboard-response,1
true,12,1,3,0,false,q,false,false,0.0-2.0-0.62-0.560-3.560,1,0,0,90,false,stim,true,1,671.0,0,0,2,38966,WMM1,1906593,false,false,1980,image-keyboard-response,2
true,12,2,3,2,true,d,false,true,0.0-2.0-0.62-0.561-3.561,1,0,0,68,false,stim,false,2,1327.9999999997672,0,1,0,38966,WMM1,1909436,false,false,1983,image-keyboard-response,3
true,12,0,3,1,false,z,false,false,0.0-2.0-0.62-0.562-3.562,1,0,0,81,false,stim,true,0,1423.0,0,0,1,38966,WMM1,1912370,false,false,1986,image-keyboard-response,4
true,12,2,3,0,false,q,true,false,0.0-2.0-0.62-0.563-3.563,1,0,0,68,false,stim,false,1,1398.0,0,0,2,38966,WMM1,1915279,false,false,1989,image-keyboard-response,5
true,12,0,3,1,false,z,false,false,0.0-2.0-0.62-0.564-3.564,1,0,0,81,false,stim,true,0,1025.0,0,0,1,38966,WMM1,1917818,false,false,1992,image-keyboard-response,6
true,12,0,3,2,false,d,true,false,0.0-2.0-0.62-0.565-3.565,1,0,0,81,false,stim,false,2,585.0000000002328,0,1,0,38966,WMM1,1919915,false,false,1995,image-keyboard-response,7
true,12,2,3,2,true,d,false,true,0.0-2.0-0.62-0.566-3.566,1,0,0,68,false,stim,false,2,440.00000000023283,0,1,0,38966,WMM1,1921868,false,false,1998,image-keyboard-response,8
true,12,2,3,2,true,d,false,true,0.0-2.0-0.63-0.567-3.567,1,0,0,68,false,stim,false,2,486.99999999976717,0,1,0,38966,WMM1,1923883,false,false,2001,image-keyboard-response,9
true,12,2,3,2,true,d,false,true,0.0-2.0-0.63-0.568-3.568,1,0,0,68,false,stim,false,2,382.0,0,1,0,38966,WMM1,1925777,false,false,2004,image-keyboard-response,10
true,12,0,3,0,true,q,false,true,0.0-2.0-0.63-0.569-3.569,1,0,0,81,false,stim,false,1,1195.0,0,0,2,38966,WMM1,1928484,false,false,2007,image-keyboard-response,11
true,12,2,3,2,true,d,false,true,0.0-2.0-0.63-0.570-3.570,1,0,0,68,false,stim,false,2,1299.0,0,1,0,38966,WMM1,1931294,false,false,2010,image-keyboard-response,12
true,12,0,3,0,true,q,false,true,0.0-2.0-0.63-0.571-3.571,1,0,0,81,false,stim,false,1,982.0,0,0,2,38966,WMM1,1933787,false,false,2013,image-keyboard-response,13
true,12,0,3,1,false,z,false,false,0.0-2.0-0.63-0.572-3.572,1,0,0,81,false,stim,true,0,745.0,0,0,1,38966,WMM1,1936044,false,false,2016,image-keyboard-response,14
true,12,2,3,1,false,z,true,false,0.0-2.0-0.63-0.573-3.573,1,0,0,68,false,stim,false,0,727.0,0,0,1,38966,WMM1,1938281,false,false,2019,image-keyboard-response,15
true,12,0,3,0,true,q,false,true,0.0-2.0-0.63-0.574-3.574,1,0,0,81,false,stim,false,1,1175.0,0,0,2,38966,WMM1,1940968,false,false,2022,image-keyboard-response,16
true,12,0,3,1,false,z,false,false,0.0-2.0-0.63-0.575-3.575,1,0,0,81,false,stim,true,0,958.9999999997672,0,0,1,38966,WMM1,1943440,false,false,2025,image-keyboard-response,17
true,12,0,3,1,false,z,false,false,0.0-2.0-0.64-0.576-3.576,1,0,0,81,false,stim,true,0,424.99999999976717,0,0,1,38966,WMM1,1945379,false,false,2028,image-keyboard-response,18
true,12,2,3,2,true,d,false,true,0.0-2.0-0.64-0.577-3.577,1,0,0,68,false,stim,false,2,1052.0000000002328,0,1,0,38966,WMM1,1947943,false,false,2031,image-keyboard-response,19
true,12,1,3,1,true,z,false,false,0.0-2.0-0.64-0.578-3.578,1,0,0,90,false,stim,false,0,1410.0,0,0,1,38966,WMM1,1950865,false,true,2034,image-keyboard-response,20
true,12,2,3,2,true,d,false,true,0.0-2.0-0.64-0.579-3.579,1,0,0,68,false,stim,false,2,720.0,0,1,0,38966,WMM1,1953098,false,false,2037,image-keyboard-response,21
true,12,0,3,0,true,q,false,true,0.0-2.0-0.64-0.580-3.580,1,0,0,81,false,stim,false,1,1112.0,0,0,2,38966,WMM1,1955724,false,false,2040,image-keyboard-response,22
true,12,0,3,0,true,q,false,true,0.0-2.0-0.64-0.581-3.581,1,0,0,81,false,stim,false,1,720.0,0,0,2,38966,WMM1,1957957,false,false,2043,image-keyboard-response,23
true,12,2,3,1,false,z,true,false,0.0-2.0-0.64-0.582-3.582,1,0,0,68,false,stim,false,0,895.0,0,0,1,38966,WMM1,1960365,false,false,2046,image-keyboard-response,24
true,12,2,3,2,true,d,false,true,0.0-2.0-0.64-0.583-3.583,1,0,0,68,false,stim,false,2,1423.0,0,1,0,38966,WMM1,1963301,false,false,2049,image-keyboard-response,25
true,12,1,3,0,false,q,false,true,0.0-2.0-0.64-0.584-3.584,1,0,0,90,false,stim,true,1,1071.0,0,0,2,38966,WMM1,1965887,false,true,2052,image-keyboard-response,26
true,12,1,3,0,false,q,false,false,0.0-2.0-0.65-0.585-3.585,1,0,0,90,false,stim,true,1,874.0,0,0,2,38966,WMM1,1968276,false,false,2055,image-keyboard-response,27
true,12,2,3,2,true,d,false,true,0.0-2.0-0.65-0.586-3.586,1,0,0,68,false,stim,false,2,929.0000000002328,0,1,0,38966,WMM1,1970722,false,false,2058,image-keyboard-response,28
true,12,2,3,2,true,d,false,true,0.0-2.0-0.65-0.587-3.587,1,0,0,68,false,stim,false,2,703.0,0,1,0,38966,WMM1,1972938,false,false,2061,image-keyboard-response,29
true,12,0,3,1,false,z,false,false,0.0-2.0-0.65-0.588-3.588,1,0,0,81,false,stim,true,0,898.9999999997672,0,0,1,38966,WMM1,1975351,false,false,2064,image-keyboard-response,30
true,12,1,3,1,true,z,false,true,0.0-2.0-0.65-0.589-3.589,1,0,0,90,false,stim,false,0,607.0000000002328,0,0,1,38966,WMM1,1977472,false,false,2067,image-keyboard-response,31
true,12,2,3,0,false,q,true,false,0.0-2.0-0.65-0.590-3.590,1,0,0,68,false,stim,false,1,1192.0,0,0,2,38966,WMM1,1980177,false,false,2070,image-keyboard-response,32
true,12,1,3,1,true,z,false,true,0.0-2.0-0.65-0.591-3.591,1,0,0,90,false,stim,false,0,1109.0,0,0,1,38966,WMM1,1982801,false,false,2073,image-keyboard-response,33
true,12,0,3,0,true,q,false,true,0.0-2.0-0.65-0.592-3.592,1,0,0,81,false,stim,false,1,735.0000000002328,0,0,2,38966,WMM1,1985049,false,false,2076,image-keyboard-response,34
true,12,2,3,2,true,d,false,true,0.0-2.0-0.65-0.593-3.593,1,0,0,68,false,stim,false,2,723.0,0,1,0,38966,WMM1,1987282,false,false,2079,image-keyboard-response,35
true,12,1,3,0,false,q,false,false,0.0-2.0-0.66-0.594-3.594,1,0,0,90,false,stim,true,1,878.9999999997672,0,0,2,38966,WMM1,1989677,false,false,2082,image-keyboard-response,36
true,12,0,3,0,true,q,false,true,0.0-2.0-0.66-0.595-3.595,1,0,0,81,false,stim,false,1,750.0,0,0,2,38966,WMM1,1991939,false,false,2085,image-keyboard-response,37
true,12,1,3,1,true,z,false,true,0.0-2.0-0.66-0.596-3.596,1,0,0,90,false,stim,false,0,1091.9999999997672,0,0,1,38966,WMM1,1994544,false,false,2088,image-keyboard-response,38
true,12,2,3,2,true,d,false,true,0.0-2.0-0.66-0.597-3.597,1,0,0,68,false,stim,false,2,856.0,0,1,0,38966,WMM1,1996913,false,false,2091,image-keyboard-response,39
true,12,2,3,2,true,d,false,true,0.0-2.0-0.66-0.598-3.598,1,0,0,68,false,stim,false,2,748.0,0,1,0,38966,WMM1,1999175,false,false,2094,image-keyboard-response,40
true,12,0,3,1,false,z,false,false,0.0-2.0-0.66-0.599-3.599,1,0,0,81,false,stim,true,0,1791.0000000002328,0,0,1,38966,WMM1,2002481,false,false,2097,image-keyboard-response,41
true,12,1,3,1,true,z,false,true,0.0-2.0-0.66-0.600-3.600,1,0,0,90,false,stim,false,0,510.0,0,0,1,38966,WMM1,2004505,false,false,2100,image-keyboard-response,42
true,12,0,3,0,true,q,false,true,0.0-2.0-0.66-0.601-3.601,1,0,0,81,false,stim,false,1,1733.9999999997672,0,0,2,38966,WMM1,2007762,false,false,2103,image-keyboard-response,43
true,12,2,3,2,true,d,false,true,0.0-2.0-0.66-0.602-3.602,1,0,0,68,false,stim,false,2,842.0000000002328,0,1,0,38966,WMM1,2010115,false,false,2106,image-keyboard-response,44
true,12,1,3,1,true,z,false,true,0.0-2.0-0.67-0.603-3.603,1,0,0,90,false,stim,false,0,1620.0,0,0,1,38966,WMM1,2013248,false,false,2109,image-keyboard-response,45
true,12,0,3,0,true,q,false,true,0.0-2.0-0.67-0.604-3.604,1,0,0,81,false,stim,false,1,1449.0,0,0,2,38966,WMM1,2016210,false,false,2112,image-keyboard-response,46
true,12,2,3,2,true,d,false,true,0.0-2.0-0.67-0.605-3.605,1,0,0,68,false,stim,false,2,655.9999999997672,0,0,0,38966,WMM1,2018377,false,false,2115,image-keyboard-response,47
true,12,2,3,2,true,d,false,true,0.0-2.0-0.67-0.606-3.606,1,0,0,68,false,stim,false,2,713.0,0,0,0,38966,WMM1,2020600,false,false,2118,image-keyboard-response,48
true,12,1,3,1,true,z,false,true,0.0-2.0-0.67-0.607-3.607,1,0,0,90,false,stim,false,0,1645.0,0,0,1,38966,WMM1,2023756,false,false,2121,image-keyboard-response,49
true,12,0,3,0,true,q,false,true,0.0-2.0-0.67-0.608-3.608,1,0,0,81,false,stim,false,1,894.0,0,0,2,38966,WMM1,2026161,false,false,2124,image-keyboard-response,50
true,12,2,3,2,true,d,false,false,0.0-2.0-0.67-0.609-3.609,1,0,0,68,false,stim,false,2,982.0000000002328,0,0,0,38966,WMM1,2028653,false,true,2127,image-keyboard-response,51
true,12,1,3,0,false,q,false,false,0.0-2.0-0.67-0.610-3.610,1,0,0,90,false,stim,true,1,1710.9999999997672,0,0,2,38966,WMM1,2031873,false,false,2130,image-keyboard-response,52
true,12,0,3,1,false,z,false,false,0.0-2.0-0.67-0.611-3.611,1,0,0,81,false,stim,true,0,905.0,0,0,1,38966,WMM1,2034288,false,false,2133,image-keyboard-response,53
true,12,2,3,0,false,q,true,false,0.0-2.0-0.68-0.612-3.612,1,0,0,68,false,stim,false,1,1445.0,0,0,2,38966,WMM1,2037245,false,false,2136,image-keyboard-response,54
true,12,0,3,2,false,d,true,false,0.0-2.0-0.68-0.613-3.613,1,0,0,81,false,stim,false,2,1223.9999999995343,0,0,0,38966,WMM1,2039981,false,false,2139,image-keyboard-response,55
true,13,0,2,1,false,z,false,false,0.0-2.0-0.68-0.614-3.614,0,0,0,81,true,stim,true,0,1210.0,0,0,2,38966,WMM1,2042707,false,false,2142,image-keyboard-response,1
true,13,0,2,2,false,d,true,false,0.0-2.0-0.68-0.615-3.615,0,0,0,81,false,stim,false,1,793.9999999997672,0,0,1,38966,WMM1,2045013,false,false,2145,image-keyboard-response,2
true,13,1,2,0,false,q,true,true,0.0-2.0-0.68-0.616-3.616,0,0,0,90,false,stim,false,2,1316.0000000002328,0,0,0,38966,WMM1,2047837,false,true,2148,image-keyboard-response,3
