answered,blockNum,choice,condition,corResp,correct,correct_response,explo,fb,internal_node_id,isStable_1,isStable_2,isStable_3,key_press,newBlock,part,persev,persevResp,rt,sessNum,stableAS,stimulus,subject,task,time_elapsed,training,trap,trial_index,trial_type,trialsInBlock
true,1,1,0,1,true,z,false,true,0.0-2.0-0.0-0.0-3.0,0,0,0,90,true,stim,false,-1,1365.0,1,0,0,38966,WMM1,218807,false,false,146,image-keyboard-response,1
true,1,0,0,0,true,q,false,true,0.0-2.0-0.0-0.1-3.1,0,0,0,81,false,stim,false,-1,1710.0,1,0,1,38966,WMM1,222020,false,false,149,image-keyboard-response,2
true,1,1,0,1,true,z,false,true,0.0-2.0-0.0-0.2-3.2,0,0,0,90,false,stim,false,-1,1469.0,1,0,2,38966,WMM1,224991,false,false,152,image-keyboard-response,3
true,1,1,0,1,true,z,false,true,0.0-2.0-0.0-0.3-3.3,0,0,0,90,false,stim,false,-1,1156.0,1,0,2,38966,WMM1,227650,false,false,155,image-keyboard-response,4
true,1,0,0,0,true,q,false,true,0.0-2.0-0.0-0.4-3.4,0,0,0,81,false,stim,false,-1,1312.0,1,0,1,38966,WMM1,230465,false,false,158,image-keyboard-response,5
true,1,0,0,0,true,q,false,true,0.0-2.0-0.0-0.5-3.5,0,0,0,81,false,stim,false,-1,727.0,1,0,1,38966,WMM1,232695,false,false,161,image-keyboard-response,6
true,1,1,0,1,true,z,false,true,0.0-2.0-0.0-0.6-3.6,0,0,0,90,false,stim,false,-1,1426.0,1,0,2,38966,WMM1,235623,false,false,164,image-keyboard-response,7
true,1,1,0,1,true,z,false,true,0.0-2.0-0.0-0.7-3.7,0,0,0,90,false,stim,false,-1,1376.0,1,0,0,38966,WMM1,238502,false,false,167,image-keyboard-response,8
true,1,1,0,1,true,z,false,true,0.0-2.0-0.0-0.8-3.8,0,0,0,90,false,stim,false,-1,1417.000000000029,1,0,0,38966,WMM1,241421,false,false,170,image-keyboard-response,9
true,1,1,0,1,true,z,false,true,0.0-2.0-0.1-0.9-3.9,0,0,0,90,false,stim,false,-1,1115.0,1,0,2,38966,WMM1,244039,false,false,173,image-keyboard-response,10
true,1,1,0,0,false,q,true,false,0.0-2.0-0.1-0.10-3.10,0,0,0,90,false,stim,false,-1,1226.0,1,0,1,38966,WMM1,246768,false,false,176,image-keyboard-response,11
true,1,1,0,1,true,z,false,true,0.0-2.0-0.1-0.11-3.11,0,0,0,90,false,stim,false,-1,1091.0,1,0,0,38966,WMM1,249362,false,false,179,image-keyboard-response,12
true,1,1,0,1,true,z,false,true,0.0-2.0-0.1-0.12-3.12,0,0,0,90,false,stim,false,-1,804.0,1,0,2,38966,WMM1,251668,false,false,182,image-keyboard-response,13
true,1,1,0,1,true,z,false,false,0.0-2.0-0.1-0.13-3.13,0,0,0,90,false,stim,false,-1,1528.9999999999418,1,0,0,38966,WMM1,254700,false,true,185,image-keyboard-response,14
true,1,1,0,1,true,z,false,true,0.0-2.0-0.1-0.14-3.14,0,0,0,90,false,stim,false,-1,1135.999999999971,1,0,0,38966,WMM1,257339,false,false,188,image-keyboard-response,15
true,1,1,0,1,true,z,false,false,0.0-2.0-0.1-0.15-3.15,0,0,0,90,false,stim,false,-1,1248.0,1,0,2,38966,WMM1,260089,false,true,191,image-keyboard-response,16
true,1,0,0,0,true,q,false,true,0.0-2.0-0.1-0.16-3.16,0,0,0,81,false,stim,false,-1,917.0000000000582,1,0,1,38966,WMM1,262508,false,false,194,image-keyboard-response,17
true,1,0,0,0,true,q,false,true,0.0-2.0-0.1-0.17-3.17,0,0,0,81,false,stim,false,-1,1413.0,1,0,1,38966,WMM1,265423,false,false,197,image-keyboard-response,18
true,1,0,0,0,true,q,false,true,0.0-2.0-0.2-0.18-3.18,0,0,0,81,false,stim,false,-1,1620.0,1,0,1,38966,WMM1,268545,false,false,200,image-keyboard-response,19
true,1,1,0,1,true,z,false,true,0.0-2.0-0.2-0.19-3.19,0,0,0,90,false,stim,false,-1,1264.0,1,0,0,38966,WMM1,271313,false,false,203,image-keyboard-response,20
true,1,0,0,0,true,q,false,true,0.0-2.0-0.2-0.20-3.20,0,0,0,81,false,stim,false,-1,1628.0,1,0,1,38966,WMM1,274443,false,false,206,image-keyboard-response,21
true,1,0,0,0,true,q,false,true,0.0-2.0-0.2-0.21-3.21,0,0,0,81,false,stim,false,-1,1176.0,1,0,1,38966,WMM1,277122,false,false,209,image-keyboard-response,22
true,1,1,0,1,true,z,false,true,0.0-2.0-0.2-0.22-3.22,0,0,0,90,false,stim,false,-1,1137.0,1,1,2,38966,WMM1,279762,false,false,212,image-keyboard-response,23
true,1,1,0,1,true,z,false,true,0.0-2.0-0.2-0.23-3.23,0,0,0,90,false,stim,false,-1,2106.0,1,0,0,38966,WMM1,283370,false,false,215,image-keyboard-response,24
true,1,1,0,1,true,z,false,true,0.0-2.0-0.2-0.24-3.24,0,0,0,90,false,stim,false,-1,1813.0000000000582,1,0,0,38966,WMM1,286686,false,false,218,image-keyboard-response,25
true,1,1,0,1,true,z,false,true,0.0-2.0-0.2-0.25-3.25,0,0,0,90,false,stim,false,-1,2389.0,1,1,2,38966,WMM1,290577,false,false,221,image-keyboard-response,26
true,1,1,0,1,true,z,false,false,0.0-2.0-0.2-0.26-3.26,0,0,0,90,false,stim,false,-1,1368.0000000000582,1,1,2,38966,WMM1,293448,false,true,224,image-keyboard-response,27
true,1,1,0,1,true,z,false,true,0.0-2.0-0.3-0.27-3.27,0,0,0,90,false,stim,false,-1,979.0000000000582,1,1,2,38966,WMM1,295931,false,false,227,image-keyboard-response,28
true,1,1,0,1,true,z,false,true,0.0-2.0-0.3-0.28-3.28,0,0,0,90,false,stim,false,-1,1065.0,1,0,0,38966,WMM1,298499,false,false,230,image-keyboard-response,29
true,1,0,0,0,true,q,false,true,0.0-2.0-0.3-0.29-3.29,0,0,0,81,false,stim,false,-1,1170.0,1,0,1,38966,WMM1,301172,false,false,233,image-keyboard-response,30
true,2,1,3,2,false,d,false,false,0.0-2.0-0.3-0.30-3.30,0,0,1,90,true,stim,true,1,1870.0,1,0,0,38966,WMM1,304545,false,false,236,image-keyboard-response,1
true,2,0,3,2,false,d,false,false,0.0-2.0-0.3-0.31-3.31,0,0,1,81,false,stim,true,0,1139.0000000000582,1,0,1,38966,WMM1,307186,false,false,239,image-keyboard-response,2
true,2,1,3,2,false,d,false,false,0.0-2.0-0.3-0.32-3.32,0,0,1,90,false,stim,true,1,1250.0,1,0,0,38966,WMM1,309939,false,false,242,image-keyboard-response,3
true,2,1,3,2,false,d,true,false,0.0-2.0-0.3-0.33-3.33,0,0,1,90,false,stim,false,0,1373.0,1,0,1,38966,WMM1,312815,false,false,245,image-keyboard-response,4
true,2,1,3,1,true,z,false,false,0.0-2.0-0.3-0.34-3.34,0,0,1,90,false,stim,false,1,1051.0,1,1,2,38966,WMM1,315370,false,true,248,image-keyboard-response,5
true,2,2,3,1,false,z,true,false,0.0-2.0-0.3-0.35-3.35,0,0,1,68,false,stim,false,1,1136.0000000000582,1,1,2,38966,WMM1,318008,false,false,251,image-keyboard-response,6
true,2,0,3,1,false,z,true,false,0.0-2.0-0.4-0.36-3.36,0,0,1,81,false,stim,false,1,572.0,1,1,2,38966,WMM1,320082,false,false,254,image-keyboard-response,7
false,2,-1,3,2,false,d,true,false,0.0-2.0-0.4-0.37-3.37,0,0,1,,false,stim,false,1,,1,0,0,38966,WMM1,324584,false,false,257,image-keyboard-response,8
true,2,0,3,2,false,d,true,false,0.0-2.0-0.4-0.38-3.38,0,0,1,81,false,stim,false,1,1410.0,1,0,0,38966,WMM1,327497,false,false,260,image-keyboard-response,9
true,2,1,3,1,true,z,false,false,0.0-2.0-0.4-0.39-3.39,0,0,1,90,false,stim,false,1,924.0,1,1,2,38966,WMM1,329925,false,true,263,image-keyboard-response,10
true,2,2,3,2,true,d,false,true,0.0-2.0-0.4-0.40-3.40,0,0,1,68,false,stim,false,0,1551.0,1,0,1,38966,WMM1,332980,false,false,266,image-keyboard-response,11
true,2,0,3,2,false,d,true,false,0.0-2.0-0.4-0.41-3.41,0,0,1,81,false,stim,false,1,1809.0,1,0,0,38966,WMM1,336292,false,false,269,image-keyboard-response,12
true,2,2,3,2,true,d,false,true,0.0-2.0-0.4-0.42-3.42,0,0,1,68,false,stim,false,0,1182.0,1,0,1,38966,WMM1,338978,false,false,272,image-keyboard-response,13
true,2,2,3,1,false,z,true,false,0.0-2.0-0.4-0.43-3.43,0,0,1,68,false,stim,false,1,1084.0,1,1,2,38966,WMM1,341565,false,false,275,image-keyboard-response,14
true,2,2,3,2,true,d,false,true,0.0-2.0-0.4-0.44-3.44,0,0,1,68,false,stim,false,0,1417.0,1,0,1,38966,WMM1,344485,false,false,278,image-keyboard-response,15
true,2,0,3,1,false,z,true,false,0.0-2.0-0.5-0.45-3.45,0,0,1,81,false,stim,false,1,893.0000000000582,1,1,2,38966,WMM1,346883,false,false,281,image-keyboard-response,16
true,2,2,3,2,true,d,false,true,0.0-2.0-0.5-0.46-3.46,0,0,1,68,false,stim,false,0,1348.0,1,0,1,38966,WMM1,349735,false,false,284,image-keyboard-response,17
true,2,0,3,2,false,d,true,false,0.0-2.0-0.5-0.47-3.47,0,0,1,81,false,stim,false,1,1726.0,1,0,0,38966,WMM1,352963,false,false,287,image-keyboard-response,18
true,2,2,3,1,false,z,true,true,0.0-2.0-0.5-0.48-3.48,0,0,1,68,false,stim,false,1,1566.9999999999418,1,1,2,38966,WMM1,356034,false,true,290,image-keyboard-response,19
true,2,2,3,2,true,d,false,true,0.0-2.0-0.5-0.49-3.49,0,0,1,68,false,stim,false,1,893.0,1,0,0,38966,WMM1,358430,false,false,293,image-keyboard-response,20
true,2,2,3,2,true,d,false,true,0.0-2.0-0.5-0.50-3.50,0,0,1,68,false,stim,false,0,510.0000000000582,1,0,1,38966,WMM1,360443,false,false,296,image-keyboard-response,21
true,2,2,3,2,true,d,false,true,0.0-2.0-0.5-0.51-3.51,0,0,1,68,false,stim,false,1,890.0,1,0,0,38966,WMM1,362836,false,false,299,image-keyboard-response,22
true,2,2,3,1,false,z,true,false,0.0-2.0-0.5-0.52-3.52,0,0,1,68,false,stim,false,1,972.0,1,1,2,38966,WMM1,365312,false,false,302,image-keyboard-response,23
true,2,2,3,2,true,d,false,true,0.0-2.0-0.5-0.53-3.53,0,0,1,68,false,stim,false,0,606.0,1,0,1,38966,WMM1,367421,false,false,305,image-keyboard-response,24
true,2,2,3,2,true,d,false,true,0.0-2.0-0.6-0.54-3.54,0,0,1,68,false,stim,false,1,1120.0,1,0,0,38966,WMM1,370044,false,false,308,image-keyboard-response,25
true,2,2,3,2,true,d,false,false,0.0-2.0-0.6-0.55-3.55,0,0,1,68,false,stim,false,1,785.0,1,0,0,38966,WMM1,372331,false,true,311,image-keyboard-response,26
true,2,2,3,2,true,d,false,true,0.0-2.0-0.6-0.56-3.56,0,0,1,68,false,stim,false,0,1396.0,1,0,1,38966,WMM1,375229,false,false,314,image-keyboard-response,27
true,2,2,3,1,false,z,true,false,0.0-2.0-0.6-0.57-3.57,0,0,1,68,false,stim,false,1,1280.0,1,1,2,38966,WMM1,378013,false,false,317,image-keyboard-response,28
true,2,0,3,1,false,z,true,false,0.0-2.0-0.6-0.58-3.58,0,0,1,81,false,stim,false,1,784.0,1,1,2,38966,WMM1,380299,false,false,320,image-keyboard-response,29
true,2,2,3,2,true,d,false,true,0.0-2.0-0.6-0.59-3.59,0,0,1,68,false,stim,false,1,983.0,1,0,0,38966,WMM1,382785,false,false,323,image-keyboard-response,30
true,2,1,3,1,true,z,false,true,0.0-2.0-0.6-0.60-3.60,0,0,1,90,false,stim,false,1,1049.0,1,1,2,38966,WMM1,385337,false,false,326,image-keyboard-response,31
true,2,2,3,2,true,d,false,true,0.0-2.0-0.6-0.61-3.61,0,0,1,68,false,stim,false,0,743.0,1,0,1,38966,WMM1,387582,false,false,329,image-keyboard-response,32
true,2,2,3,2,true,d,false,true,0.0-2.0-0.6-0.62-3.62,0,0,1,68,false,stim,false,0,1265.0,1,0,1,38966,WMM1,390350,false,false,332,image-keyboard-response,33
true,2,2,3,2,true,d,false,true,0.0-2.0-0.7-0.63-3.63,0,0,1,68,false,stim,false,0,1118.0,1,0,1,38966,WMM1,392972,false,false,335,image-keyboard-response,34
true,2,2,3,1,false,z,true,true,0.0-2.0-0.7-0.64-3.64,0,0,1,68,false,stim,false,1,1354.0,1,1,2,38966,WMM1,395828,false,true,338,image-keyboard-response,35
true,2,2,3,2,true,d,false,true,0.0-2.0-0.7-0.65-3.65,0,0,1,68,false,stim,false,0,1635.0000000000582,1,0,1,38966,WMM1,398966,false,false,341,image-keyboard-response,36
true,2,1,3,2,false,d,false,false,0.0-2.0-0.7-0.66-3.66,0,0,1,90,false,stim,true,1,1753.0,1,0,0,38966,WMM1,402222,false,false,344,image-keyboard-response,37
true,2,2,3,1,false,z,true,false,0.0-2.0-0.7-0.67-3.67,0,0,1,68,false,stim,false,1,554.0,1,1,2,38966,WMM1,404279,false,false,347,image-keyboard-response,38
true,2,2,3,2,true,d,false,true,0.0-2.0-0.7-0.68-3.68,0,0,1,68,false,stim,false,1,1865.9999999999418,1,0,0,38966,WMM1,407647,false,false,350,image-keyboard-response,39
true,2,1,3,1,true,z,false,false,0.0-2.0-0.7-0.69-3.69,0,0,1,90,false,stim,false,1,878.0,1,1,2,38966,WMM1,410029,false,true,353,image-keyboard-response,40
true,2,2,3,2,true,d,false,false,0.0-2.0-0.7-0.70-3.70,0,0,1,68,false,stim,false,1,830.0,1,0,0,38966,WMM1,412363,false,true,356,image-keyboard-response,41
true,2,2,3,2,true,d,false,true,0.0-2.0-0.7-0.71-3.71,0,0,1,68,false,stim,false,0,774.9999999999418,1,0,1,38966,WMM1,414640,false,false,359,image-keyboard-response,42
true,2,1,3,1,true,z,false,true,0.0-2.0-0.8-0.72-3.72,0,0,1,90,false,stim,false,1,1601.0,1,1,2,38966,WMM1,417744,false,false,362,image-keyboard-response,43
true,2,2,3,2,true,d,false,true,0.0-2.0-0.8-0.73-3.73,0,0,1,68,false,stim,false,0,689.0,1,0,1,38966,WMM1,419936,false,false,365,image-keyboard-response,44
true,2,2,3,2,true,d,false,true,0.0-2.0-0.8-0.74-3.74,0,0,1,68,false,stim,false,0,1686.0,1,0,1,38966,WMM1,423125,false,false,368,image-keyboard-response,45
true,2,2,3,2,true,d,false,false,0.0-2.0-0.8-0.75-3.75,0,0,1,68,false,stim,false,1,1724.0,1,0,0,38966,WMM1,426352,false,true,371,image-keyboard-response,46
true,2,2,3,2,true,d,false,true,0.0-2.0-0.8-0.76-3.76,0,0,1,68,false,stim,false,0,1580.0,1,0,1,38966,WMM1,429436,false,false,374,image-keyboard-response,47
true,2,2,3,2,true,d,false,true,0.0-2.0-0.8-0.77-3.77,0,0,1,68,false,stim,false,1,1391.0,1,0,0,38966,WMM1,432330,false,false,377,image-keyboard-response,48
true,2,1,3,1,true,z,false,true,0.0-2.0-0.8-0.78-3.78,0,0,1,90,false,stim,false,1,1378.0,1,0,2,38966,WMM1,435211,false,false,380,image-keyboard-response,49
true,2,1,3,1,true,z,false,true,0.0-2.0-0.8-0.79-3.79,0,0,1,90,false,stim,false,1,1226.0,1,0,2,38966,WMM1,437940,false,false,383,image-keyboard-response,50
true,2,2,3,2,true,d,false,true,0.0-2.0-0.8-0.80-3.80,0,0,1,68,false,stim,false,1,1579.0,1,0,0,38966,WMM1,441022,false,false,386,image-keyboard-response,51
true,2,2,3,2,true,d,false,true,0.0-2.0-0.9-0.81-3.81,0,0,1,68,false,stim,false,0,1925.0,1,0,1,38966,WMM1,444450,false,false,389,image-keyboard-response,52
true,2,2,3,2,true,d,false,true,0.0-2.0-0.9-0.82-3.82,0,0,1,68,false,stim,false,0,1358.0000000000582,1,0,1,38966,WMM1,447310,false,false,392,image-keyboard-response,53
true,3,1,1,2,false,d,false,false,0.0-2.0-0.9-0.83-3.83,0,0,0,90,true,stim,true,1,1634.0000000000582,1,0,2,38966,WMM1,450447,false,false,395,image-keyboard-response,1
true,3,2,1,1,false,z,false,false,0.0-2.0-0.9-0.84-3.84,0,0,0,68,false,stim,true,2,1037.0,1,0,0,38966,WMM1,452988,false,false,398,image-keyboard-response,2
true,3,2,1,2,true,d,false,false,0.0-2.0-0.9-0.85-3.85,0,0,0,68,false,stim,false,1,945.0,1,0,2,38966,WMM1,455438,false,true,401,image-keyboard-response,3
true,3,2,1,1,false,z,false,false,0.0-2.0-0.9-0.86-3.86,0,0,0,68,false,stim,true,2,1154.0,1,0,0,38966,WMM1,458096,false,false,404,image-keyboard-response,4
true,3,1,1,2,false,d,false,false,0.0-2.0-0.9-0.87-3.87,0,0,0,90,false,stim,true,1,1135.0,1,0,2,38966,WMM1,460734,false,false,407,image-keyboard-response,5
true,3,2,1,0,false,q,false,false,0.0-2.0-0.9-0.88-3.88,0,0,0,68,false,stim,true,2,1012.0,1,0,1,38966,WMM1,463248,false,false,410,image-keyboard-response,6
true,3,2,1,1,false,z,false,false,0.0-2.0-0.9-0.89-3.89,0,0,0,68,false,stim,true,2,1018.0000000000582,1,0,0,38966,WMM1,465769,false,false,413,image-keyboard-response,7
true,3,2,1,0,false,q,false,false,0.0-2.0-0.10-0.90-3.90,0,0,0,68,false,stim,true,2,1071.0,1,0,1,38966,WMM1,468342,false,false,416,image-keyboard-response,8
true,3,0,1,1,false,z,true,false,0.0-2.0-0.10-0.91-3.91,0,0,0,81,false,stim,false,2,1114.9999999999418,1,0,0,38966,WMM1,470961,false,false,419,image-keyboard-response,9
true,3,0,1,2,false,d,true,false,0.0-2.0-0.10-0.92-3.92,0,0,0,81,false,stim,false,1,1247.0,1,0,2,38966,WMM1,473711,false,false,422,image-keyboard-response,10
true,3,2,1,2,true,d,false,true,0.0-2.0-0.10-0.93-3.93,0,0,0,68,false,stim,false,1,1040.0,1,0,2,38966,WMM1,476255,false,false,425,image-keyboard-response,11
true,3,0,1,0,true,q,false,true,0.0-2.0-0.10-0.94-3.94,0,0,0,81,false,stim,false,2,1289.0,1,0,1,38966,WMM1,479047,false,false,428,image-keyboard-response,12
true,3,2,1,1,false,z,false,false,0.0-2.0-0.10-0.95-3.95,0,0,0,68,false,stim,true,2,1629.0,1,0,0,38966,WMM1,482178,false,false,431,image-keyboard-response,13
true,3,0,1,0,true,q,false,true,0.0-2.0-0.10-0.96-3.96,0,0,0,81,false,stim,false,2,2170.0,1,0,1,38966,WMM1,485851,false,false,434,image-keyboard-response,14
true,3,1,1,1,true,z,false,true,0.0-2.0-0.10-0.97-3.97,0,0,0,90,false,stim,false,2,1051.0000000000582,1,0,0,38966,WMM1,488406,false,false,437,image-keyboard-response,15
true,3,2,1,2,true,d,false,true,0.0-2.0-0.10-0.98-3.98,0,0,0,68,false,stim,false,1,1013.0,1,0,2,38966,WMM1,490922,false,false,440,image-keyboard-response,16
true,3,1,1,1,true,z,false,true,0.0-2.0-0.11-0.99-3.99,0,0,0,90,false,stim,false,2,1437.0,1,0,0,38966,WMM1,493862,false,false,443,image-keyboard-response,17
true,3,1,1,1,true,z,false,true,0.0-2.0-0.11-0.100-3.100,0,0,0,90,false,stim,false,2,600.0,1,0,0,38966,WMM1,495967,false,false,446,image-keyboard-response,18
true,3,2,1,2,true,d,false,true,0.0-2.0-0.11-0.101-3.101,0,0,0,68,false,stim,false,1,1088.0,1,0,2,38966,WMM1,498558,false,false,449,image-keyboard-response,19
true,3,1,1,1,true,z,false,true,0.0-2.0-0.11-0.102-3.102,0,0,0,90,false,stim,false,2,1122.0,1,0,0,38966,WMM1,501183,false,false,452,image-keyboard-response,20
true,3,2,1,0,false,q,false,false,0.0-2.0-0.11-0.103-3.103,0,0,0,68,false,stim,true,2,1421.0,1,0,1,38966,WMM1,504106,false,false,455,image-keyboard-response,21
true,3,2,1,2,true,d,false,true,0.0-2.0-0.11-0.104-3.104,0,0,0,68,false,stim,false,1,1325.0,1,0,2,38966,WMM1,506936,false,false,458,image-keyboard-response,22
true,3,0,1,0,true,q,false,true,0.0-2.0-0.11-0.105-3.105,0,0,0,81,false,stim,false,2,1671.0,1,0,1,38966,WMM1,510109,false,false,461,image-keyboard-response,23
true,3,2,1,2,true,d,false,true,0.0-2.0-0.11-0.106-3.106,0,0,0,68,false,stim,false,1,1780.9999999999418,1,0,2,38966,WMM1,513394,false,false,464,image-keyboard-response,24
true,3,0,1,0,true,q,false,true,0.0-2.0-0.11-0.107-3.107,0,0,0,81,false,stim,false,2,1375.0,1,0,1,38966,WMM1,516271,false,false,467,image-keyboard-response,25
true,3,2,1,2,true,d,false,true,0.0-2.0-0.12-0.108-3.108,0,0,0,68,false,stim,false,1,852.9999999999418,1,0,2,38966,WMM1,518627,false,false,470,image-keyboard-response,26
true,3,0,1,0,true,q,false,true,0.0-2.0-0.12-0.109-3.109,0,0,0,81,false,stim,false,2,1856.0,1,0,1,38966,WMM1,521987,false,false,473,image-keyboard-response,27
true,3,2,1,2,true,d,false,true,0.0-2.0-0.12-0.110-3.110,0,0,0,68,false,stim,false,1,1298.0,1,0,2,38966,WMM1,524787,false,false,476,image-keyboard-response,28
true,3,1,1,1,true,z,false,true,0.0-2.0-0.12-0.111-3.111,0,0,0,90,false,stim,false,2,1245.0,1,0,0,38966,WMM1,527534,false,false,479,image-keyboard-response,29
true,3,1,1,1,true,z,false,true,0.0-2.0-0.12-0.112-3.112,0,0,0,90,false,stim,false,2,1529.9999999998836,1,0,0,38966,WMM1,530566,false,false,482,image-keyboard-response,30
true,4,2,4,0,false,q,false,true,0.0-2.0-0.12-0.113-3.113,0,0,0,68,true,stim,true,2,1614.0,1,0,2,38966,WMM1,533683,false,true,485,image-keyboard-response,1
true,4,2,4,0,false,q,true,false,0.0-2.0-0.12-0.114-3.114,0,0,0,68,false,stim,false,1,1074.0,1,0,0,38966,WMM1,536261,false,false,488,image-keyboard-response,2
true,4,0,4,1,false,z,false,false,0.0-2.0-0.12-0.115-3.115,0,0,0,81,false,stim,true,0,1213.0,1,0,1,38966,WMM1,538976,false,false,491,image-keyboard-response,3
true,4,0,4,1,false,z,false,false,0.0-2.0-0.12-0.116-3.116,0,0,0,81,false,stim,true,0,645.0,1,0,1,38966,WMM1,541124,false,false,494,image-keyboard-response,4
true,4,1,4,0,false,q,false,false,0.0-2.0-0.13-0.117-3.117,0,0,0,90,false,stim,true,1,823.0,1,0,0,38966,WMM1,543451,false,false,497,image-keyboard-response,5
true,4,2,4,0,false,q,false,true,0.0-2.0-0.13-0.118-3.118,0,0,0,68,false,stim,true,2,1328.9999999998836,1,0,2,38966,WMM1,546283,false,true,500,image-keyboard-response,6
true,4,2,4,0,false,q,false,false,0.0-2.0-0.13-0.119-3.119,0,0,0,68,false,stim,true,2,794.0,1,0,2,38966,WMM1,548582,false,false,503,image-keyboard-response,7
true,4,0,4,1,false,z,false,false,0.0-2.0-0.13-0.120-3.120,0,0,0,81,false,stim,true,0,1471.0,1,0,1,38966,WMM1,551556,false,false,506,image-keyboard-response,8
true,4,1,4,1,true,z,false,false,0.0-2.0-0.13-0.121-3.121,0,0,0,90,false,stim,false,0,804.9999999998836,1,0,1,38966,WMM1,553865,false,true,509,image-keyboard-response,9
true,4,2,4,1,false,z,true,false,0.0-2.0-0.13-0.122-3.122,0,0,0,68,false,stim,false,0,605.0,1,0,1,38966,WMM1,555973,false,false,512,image-keyboard-response,10
true,4,0,4,0,true,q,false,true,0.0-2.0-0.13-0.123-3.123,0,0,0,81,false,stim,false,2,1431.0,1,0,2,38966,WMM1,558907,false,false,515,image-keyboard-response,11
true,4,0,4,0,true,q,false,false,0.0-2.0-0.13-0.124-3.124,0,0,0,81,false,stim,false,1,788.0,1,0,0,38966,WMM1,561198,false,true,518,image-keyboard-response,12
true,4,2,4,0,false,q,true,false,0.0-2.0-0.13-0.125-3.125,0,0,0,68,false,stim,false,1,734.0000000001164,1,0,0,38966,WMM1,563435,false,false,521,image-keyboard-response,13
true,4,0,4,0,true,q,false,true,0.0-2.0-0.14-0.126-3.126,0,0,0,81,false,stim,false,2,2044.0000000001164,1,0,2,38966,WMM1,566983,false,false,524,image-keyboard-response,14
true,4,0,4,0,true,q,false,true,0.0-2.0-0.14-0.127-3.127,0,0,0,81,false,stim,false,2,611.0,1,0,2,38966,WMM1,569097,false,false,527,image-keyboard-response,15
true,4,0,4,1,false,z,false,false,0.0-2.0-0.14-0.128-3.128,0,0,0,81,false,stim,true,0,1521.0,1,0,1,38966,WMM1,572121,false,false,530,image-keyboard-response,16
true,4,1,4,0,false,q,false,false,0.0-2.0-0.14-0.129-3.129,0,0,0,90,false,stim,true,1,1122.0,1,0,0,38966,WMM1,574747,false,false,533,image-keyboard-response,17
true,4,2,4,0,false,q,true,false,0.0-2.0-0.14-0.130-3.130,0,0,0,68,false,stim,false,1,710.0,1,0,0,38966,WMM1,576959,false,false,536,image-keyboard-response,18
true,4,2,4,0,false,q,true,false,0.0-2.0-0.14-0.131-3.131,0,0,0,68,false,stim,false,1,571.0,1,0,0,38966,WMM1,579032,false,false,539,image-keyboard-response,19
true,4,0,4,0,true,q,false,false,0.0-2.0-0.14-0.132-3.132,0,0,0,81,false,stim,false,2,1521.0,1,0,2,38966,WMM1,582056,false,true,542,image-keyboard-response,20
true,4,1,4,1,true,z,false,true,0.0-2.0-0.14-0.133-3.133,0,0,0,90,false,stim,false,0,1503.9999999998836,1,0,1,38966,WMM1,585063,false,false,545,image-keyboard-response,21
true,4,1,4,1,true,z,false,true,0.0-2.0-0.14-0.134-3.134,0,0,0,90,false,stim,false,0,810.0,1,0,1,38966,WMM1,587376,false,false,548,image-keyboard-response,22
true,4,0,4,0,true,q,false,true,0.0-2.0-0.15-0.135-3.135,0,0,0,81,false,stim,false,2,1357.0,1,0,2,38966,WMM1,590236,false,false,551,image-keyboard-response,23
true,4,0,4,0,true,q,false,false,0.0-2.0-0.15-0.136-3.136,0,0,0,81,false,stim,false,1,1988.0000000001164,1,0,0,38966,WMM1,593728,false,true,554,image-keyboard-response,24
true,4,1,4,1,true,z,false,true,0.0-2.0-0.15-0.137-3.137,0,0,0,90,false,stim,false,0,1192.0,1,0,1,38966,WMM1,596423,false,false,557,image-keyboard-response,25
true,4,1,4,1,true,z,false,true,0.0-2.0-0.15-0.138-3.138,0,0,0,90,false,stim,false,0,984.0,1,0,1,38966,WMM1,598910,false,false,560,image-keyboard-response,26
true,4,1,4,0,false,q,false,false,0.0-2.0-0.15-0.139-3.139,0,0,0,90,false,stim,true,1,1459.0,1,0,0,38966,WMM1,601873,false,false,563,image-keyboard-response,27
true,4,1,4,0,false,q,true,false,0.0-2.0-0.15-0.140-3.140,0,0,0,90,false,stim,false,2,1780.0,1,0,2,38966,WMM1,605156,false,false,566,image-keyboard-response,28
true,4,0,4,0,true,q,false,true,0.0-2.0-0.15-0.141-3.141,0,0,0,81,false,stim,false,2,2156.0,1,0,2,38966,WMM1,608816,false,false,569,image-keyboard-response,29
true,4,1,4,0,false,q,false,false,0.0-2.0-0.15-0.142-3.142,0,0,0,90,false,stim,true,1,2238.0,1,0,0,38966,WMM1,612557,false,false,572,image-keyboard-response,30
true,4,0,4,1,false,z,false,false,0.0-2.0-0.15-0.143-3.143,0,0,0,81,false,stim,true,0,1950.0000000001164,1,0,1,38966,WMM1,616012,false,false,575,image-keyboard-response,31
true,4,1,4,1,true,z,false,true,0.0-2.0-0.16-0.144-3.144,0,0,0,90,false,stim,false,0,1435.0,1,0,1,38966,WMM1,618951,false,false,578,image-keyboard-response,32
true,4,2,4,0,false,q,true,false,0.0-2.0-0.16-0.145-3.145,0,0,0,68,false,stim,false,1,1079.9999999998836,1,0,0,38966,WMM1,621533,false,false,581,image-keyboard-response,33
true,4,1,4,1,true,z,false,true,0.0-2.0-0.16-0.146-3.146,0,0,0,90,false,stim,false,0,1229.0,1,0,1,38966,WMM1,624265,false,false,584,image-keyboard-response,34
true,4,2,4,0,false,q,true,false,0.0-2.0-0.16-0.147-3.147,0,0,0,68,false,stim,false,1,1782.0,1,0,0,38966,WMM1,627550,false,false,587,image-keyboard-response,35
true,4,1,4,1,true,z,false,true,0.0-2.0-0.16-0.148-3.148,0,0,0,90,false,stim,false,0,1881.0000000001164,1,0,1,38966,WMM1,630935,false,false,590,image-keyboard-response,36
false,4,-1,4,0,false,q,true,true,0.0-2.0-0.16-0.149-3.149,0,0,0,,false,stim,false,2,,1,0,2,38966,WMM1,635439,false,true,593,image-keyboard-response,37
true,4,0,4,0,true,q,false,false,0.0-2.0-0.16-0.150-3.150,0,0,0,81,false,stim,false,2,1418.0,1,0,2,38966,WMM1,638360,false,true,596,image-keyboard-response,38
true,4,1,4,0,false,q,false,false,0.0-2.0-0.16-0.151-3.151,0,0,0,90,false,stim,true,1,1149.0,1,0,0,38966,WMM1,641012,false,false,599,image-keyboard-response,39
true,4,2,4,0,false,q,false,false,0.0-2.0-0.16-0.152-3.152,0,0,0,68,false,stim,true,2,2641.0,1,0,2,38966,WMM1,645158,false,false,602,image-keyboard-response,40
true,4,0,4,1,false,z,false,false,0.0-2.0-0.17-0.153-3.153,0,0,0,81,false,stim,true,0,1944.0,1,0,1,38966,WMM1,648605,false,false,605,image-keyboard-response,41
true,4,1,4,0,false,q,true,false,0.0-2.0-0.17-0.154-3.154,0,0,0,90,false,stim,false,2,2164.0,1,0,2,38966,WMM1,652274,false,false,608,image-keyboard-response,42
true,4,0,4,0,true,q,false,true,0.0-2.0-0.17-0.155-3.155,0,0,0,81,false,stim,false,1,1153.0,1,0,0,38966,WMM1,654931,false,false,611,image-keyboard-response,43
true,4,0,4,0,true,q,false,true,0.0-2.0-0.17-0.156-3.156,0,0,0,81,false,stim,false,1,920.9999999998836,1,0,0,38966,WMM1,657356,false,false,614,image-keyboard-response,44
true,4,1,4,0,false,q,true,false,0.0-2.0-0.17-0.157-3.157,0,0,0,90,false,stim,false,2,1444.0,1,0,2,38966,WMM1,660303,false,false,617,image-keyboard-response,45
true,4,2,4,1,false,z,true,false,0.0-2.0-0.17-0.158-3.158,0,0,0,68,false,stim,false,0,1455.0000000001164,1,0,1,38966,WMM1,663261,false,false,620,image-keyboard-response,46
true,4,0,4,1,false,z,false,false,0.0-2.0-0.17-0.159-3.159,0,0,0,81,false,stim,true,0,2331.0,1,0,1,38966,WMM1,667096,false,false,623,image-keyboard-response,47
true,4,1,4,0,false,q,true,false,0.0-2.0-0.17-0.160-3.160,0,0,0,90,false,stim,false,2,774.0,1,0,2,38966,WMM1,669374,false,false,626,image-keyboard-response,48
true,4,0,4,0,true,q,false,true,0.0-2.0-0.17-0.161-3.161,0,0,0,81,false,stim,false,1,1242.0,1,0,0,38966,WMM1,672119,false,false,629,image-keyboard-response,49
true,4,0,4,0,true,q,false,true,0.0-2.0-0.18-0.162-3.162,0,0,0,81,false,stim,false,1,542.0,1,0,0,38966,WMM1,674165,false,false,632,image-keyboard-response,50
true,4,2,4,0,false,q,false,false,0.0-2.0-0.18-0.163-3.163,0,0,0,68,false,stim,true,2,945.0,1,0,2,38966,WMM1,676613,false,false,635,image-keyboard-response,51
true,4,0,4,1,false,z,false,false,0.0-2.0-0.18-0.164-3.164,0,0,0,81,false,stim,true,0,1163.0,1,0,1,38966,WMM1,679279,false,false,638,image-keyboard-response,52
true,4,0,4,0,true,q,false,true,0.0-2.0-0.18-0.165-3.165,0,0,0,81,false,stim,false,1,1470.0,1,1,0,38966,WMM1,682252,false,false,641,image-keyboard-response,53
true,4,0,4,0,true,q,false,true,0.0-2.0-0.18-0.166-3.166,0,0,0,81,false,stim,false,1,671.0,1,1,0,38966,WMM1,684426,false,false,644,image-keyboard-response,54
true,4,2,4,0,false,q,false,false,0.0-2.0-0.18-0.167-3.167,0,0,0,68,false,stim,true,2,1207.0,1,0,2,38966,WMM1,687136,false,false,647,image-keyboard-response,55
true,4,2,4,0,false,q,false,false,0.0-2.0-0.18-0.168-3.168,0,0,0,68,false,stim,true,2,1780.0,1,0,2,38966,WMM1,690419,false,false,650,image-keyboard-response,56
true,4,0,4,1,false,z,false,false,0.0-2.0-0.18-0.169-3.169,0,0,0,81,false,stim,true,0,1938.0,1,0,1,38966,WMM1,693859,false,false,653,image-keyboard-response,57
true,4,1,4,1,true,z,false,true,0.0-2.0-0.18-0.170-3.170,0,0,0,90,false,stim,false,0,892.0,1,0,1,38966,WMM1,696255,false,false,656,image-keyboard-response,58
true,4,1,4,1,true,z,false,true,0.0-2.0-0.19-0.171-3.171,0,0,0,90,false,stim,false,0,1249.0000000001164,1,0,1,38966,WMM1,699006,false,false,659,image-keyboard-response,59
true,4,0,4,0,true,q,false,false,0.0-2.0-0.19-0.172-3.172,0,0,0,81,false,stim,false,1,918.0,1,1,0,38966,WMM1,701429,false,true,662,image-keyboard-response,60
true,5,2,3,0,false,q,true,false,0.0-2.0-0.19-0.173-3.173,1,0,0,68,true,stim,false,0,637.0,1,1,0,38966,WMM1,703568,false,false,665,image-keyboard-response,1
true,5,2,3,1,false,z,true,false,0.0-2.0-0.19-0.174-3.174,1,0,0,68,false,stim,false,0,1614.0000000001164,1,0,2,38966,WMM1,706684,false,false,668,image-keyboard-response,2
true,5,1,3,1,true,z,false,true,0.0-2.0-0.19-0.175-3.175,1,0,0,90,false,stim,false,0,1913.0,1,0,2,38966,WMM1,710099,false,false,671,image-keyboard-response,3
true,5,1,3,0,false,q,true,false,0.0-2.0-0.19-0.176-3.176,1,0,0,90,false,stim,false,0,1292.9999999998836,1,1,0,38966,WMM1,712895,false,false,674,image-keyboard-response,4
true,5,1,3,1,true,z,false,true,0.0-2.0-0.19-0.177-3.177,1,0,0,90,false,stim,false,0,889.0,1,0,2,38966,WMM1,715288,false,false,677,image-keyboard-response,5
true,5,1,3,2,false,d,false,false,0.0-2.0-0.19-0.178-3.178,1,0,0,90,false,stim,true,1,629.0,1,0,1,38966,WMM1,717420,false,false,680,image-keyboard-response,6
true,5,1,3,2,false,d,false,false,0.0-2.0-0.19-0.179-3.179,1,0,0,90,false,stim,true,1,550.0,1,0,1,38966,WMM1,719473,false,false,683,image-keyboard-response,7
true,5,0,3,1,false,z,false,false,0.0-2.0-0.20-0.180-3.180,1,0,0,81,false,stim,true,0,835.0,1,0,2,38966,WMM1,721810,false,false,686,image-keyboard-response,8
true,5,0,3,2,false,d,true,false,0.0-2.0-0.20-0.181-3.181,1,0,0,81,false,stim,false,1,967.0,1,0,1,38966,WMM1,724281,false,false,689,image-keyboard-response,9
true,5,1,3,1,true,z,false,true,0.0-2.0-0.20-0.182-3.182,1,0,0,90,false,stim,false,0,1082.0,1,0,2,38966,WMM1,726868,false,false,692,image-keyboard-response,10
true,5,0,3,0,true,q,false,true,0.0-2.0-0.20-0.183-3.183,1,0,0,81,false,stim,false,0,1120.0,1,1,0,38966,WMM1,729492,false,false,695,image-keyboard-response,11
true,5,2,3,2,true,d,false,true,0.0-2.0-0.20-0.184-3.184,1,0,0,68,false,stim,false,1,2091.0,1,0,1,38966,WMM1,733085,false,false,698,image-keyboard-response,12
true,5,1,3,1,true,z,false,true,0.0-2.0-0.20-0.185-3.185,1,0,0,90,false,stim,false,0,1424.0,1,0,2,38966,WMM1,736014,false,false,701,image-keyboard-response,13
true,5,0,3,0,true,q,false,true,0.0-2.0-0.20-0.186-3.186,1,0,0,81,false,stim,false,0,798.0,1,1,0,38966,WMM1,738314,false,false,704,image-keyboard-response,14
true,5,0,3,0,true,q,false,true,0.0-2.0-0.20-0.187-3.187,1,0,0,81,false,stim,false,0,1743.0,1,1,0,38966,WMM1,741561,false,false,707,image-keyboard-response,15
true,5,2,3,2,true,d,false,true,0.0-2.0-0.20-0.188-3.188,1,0,0,68,false,stim,false,1,1366.0,1,0,1,38966,WMM1,744431,false,false,710,image-keyboard-response,16
true,5,1,3,1,true,z,false,true,0.0-2.0-0.21-0.189-3.189,1,0,0,90,false,stim,false,0,974.9999999998836,1,0,2,38966,WMM1,746909,false,false,713,image-keyboard-response,17
true,5,1,3,2,false,d,false,true,0.0-2.0-0.21-0.190-3.190,1,0,0,90,false,stim,true,1,1189.0000000001164,1,0,1,38966,WMM1,749602,false,true,716,image-keyboard-response,18
true,5,0,3,0,true,q,false,true,0.0-2.0-0.21-0.191-3.191,1,0,0,81,false,stim,false,0,1468.0,1,1,0,38966,WMM1,752573,false,false,719,image-keyboard-response,19
true,5,0,3,2,false,d,true,false,0.0-2.0-0.21-0.192-3.192,1,0,0,81,false,stim,false,1,966.0,1,0,1,38966,WMM1,755042,false,false,722,image-keyboard-response,20
true,5,1,3,1,true,z,false,true,0.0-2.0-0.21-0.193-3.193,1,0,0,90,false,stim,false,0,1469.0,1,0,2,38966,WMM1,758016,false,false,725,image-keyboard-response,21
true,5,2,3,1,false,z,true,false,0.0-2.0-0.21-0.194-3.194,1,0,0,68,false,stim,false,0,2107.0000000001164,1,0,2,38966,WMM1,761626,false,false,728,image-keyboard-response,22
true,5,0,3,2,false,d,true,false,0.0-2.0-0.21-0.195-3.195,1,0,0,81,false,stim,false,1,819.0,1,0,1,38966,WMM1,763949,false,false,731,image-keyboard-response,23
true,5,0,3,0,true,q,false,true,0.0-2.0-0.21-0.196-3.196,1,0,0,81,false,stim,false,0,1235.0,1,1,0,38966,WMM1,766687,false,false,734,image-keyboard-response,24
true,5,0,3,0,true,q,false,true,0.0-2.0-0.21-0.197-3.197,1,0,0,81,false,stim,false,0,786.0000000001164,1,1,0,38966,WMM1,768977,false,false,737,image-keyboard-response,25
true,5,1,3,2,false,d,false,false,0.0-2.0-0.22-0.198-3.198,1,0,0,90,false,stim,true,1,2588.9999999998836,1,0,1,38966,WMM1,773071,false,false,740,image-keyboard-response,26
true,5,0,3,0,true,q,false,true,0.0-2.0-0.22-0.199-3.199,1,0,0,81,false,stim,false,0,1534.0,1,1,0,38966,WMM1,776109,false,false,743,image-keyboard-response,27
true,5,0,3,0,true,q,false,true,0.0-2.0-0.22-0.200-3.200,1,0,0,81,false,stim,false,0,1496.0,1,1,0,38966,WMM1,779109,false,false,746,image-keyboard-response,28
true,5,1,3,1,true,z,false,true,0.0-2.0-0.22-0.201-3.201,1,0,0,90,false,stim,false,0,1557.0,1,0,2,38966,WMM1,782170,false,false,749,image-keyboard-response,29
true,5,0,3,0,true,q,false,true,0.0-2.0-0.22-0.202-3.202,1,0,0,81,false,stim,false,0,843.0,1,1,0,38966,WMM1,784518,false,false,752,image-keyboard-response,30
true,5,2,3,1,false,z,true,false,0.0-2.0-0.22-0.203-3.203,1,0,0,68,false,stim,false,0,1088.0,1,0,2,38966,WMM1,787110,false,false,755,image-keyboard-response,31
true,5,2,3,2,true,d,false,true,0.0-2.0-0.22-0.204-3.204,1,0,0,68,false,stim,false,1,1130.0,1,0,1,38966,WMM1,789744,false,false,758,image-keyboard-response,32
true,5,2,3,2,true,d,false,true,0.0-2.0-0.22-0.205-3.205,1,0,0,68,false,stim,false,1,647.0,1,0,1,38966,WMM1,791894,false,false,761,image-keyboard-response,33
true,5,1,3,1,true,z,false,true,0.0-2.0-0.22-0.206-3.206,1,0,0,90,false,stim,false,0,584.0,1,0,2,38966,WMM1,793982,false,false,764,image-keyboard-response,34
true,5,0,3,0,true,q,false,true,0.0-2.0-0.23-0.207-3.207,1,0,0,81,false,stim,false,0,762.0,1,1,0,38966,WMM1,796247,false,false,767,image-keyboard-response,35
true,5,1,3,1,true,z,false,true,0.0-2.0-0.23-0.208-3.208,1,0,0,90,false,stim,false,0,938.0,1,0,2,38966,WMM1,798689,false,false,770,image-keyboard-response,36
true,5,1,3,0,false,q,true,false,0.0-2.0-0.23-0.209-3.209,1,0,0,90,false,stim,false,0,1609.0,1,0,0,38966,WMM1,801803,false,false,773,image-keyboard-response,37
true,5,2,3,2,true,d,false,true,0.0-2.0-0.23-0.210-3.210,1,0,0,68,false,stim,false,1,1310.0,1,0,1,38966,WMM1,804616,false,false,776,image-keyboard-response,38
true,5,2,3,2,true,d,false,true,0.0-2.0-0.23-0.211-3.211,1,0,0,68,false,stim,false,1,856.0000000001164,1,0,1,38966,WMM1,806976,false,false,779,image-keyboard-response,39
true,5,1,3,1,true,z,false,true,0.0-2.0-0.23-0.212-3.212,1,0,0,90,false,stim,false,0,1087.0,1,0,2,38966,WMM1,809567,false,false,782,image-keyboard-response,40
true,5,1,3,1,true,z,false,true,0.0-2.0-0.23-0.213-3.213,1,0,0,90,false,stim,false,0,2208.9999999998836,1,0,2,38966,WMM1,813282,false,false,785,image-keyboard-response,41
true,5,0,3,0,true,q,false,true,0.0-2.0-0.23-0.214-3.214,1,0,0,81,false,stim,false,0,1458.0,1,0,0,38966,WMM1,816243,false,false,788,image-keyboard-response,42
true,5,2,3,2,true,d,false,true,0.0-2.0-0.23-0.215-3.215,1,0,0,68,false,stim,false,1,1480.0000000001164,1,0,1,38966,WMM1,819227,false,false,791,image-keyboard-response,43
true,5,0,3,0,true,q,false,true,0.0-2.0-0.24-0.216-3.216,1,0,0,81,false,stim,false,0,1199.0,1,0,0,38966,WMM1,821929,false,false,794,image-keyboard-response,44
true,5,0,3,0,true,q,false,true,0.0-2.0-0.24-0.217-3.217,1,0,0,81,false,stim,false,0,823.0000000001164,1,0,0,38966,WMM1,824255,false,false,797,image-keyboard-response,45
true,5,2,3,1,false,z,true,false,0.0-2.0-0.24-0.218-3.218,1,0,0,68,false,stim,false,0,1325.0,1,0,2,38966,WMM1,827083,false,false,800,image-keyboard-response,46
true,6,2,1,0,false,q,false,false,0.0-2.0-0.24-0.219-3.219,0,0,0,68,true,stim,true,2,1941.0,1,0,1,38966,WMM1,830530,false,false,803,image-keyboard-response,1
true,6,1,1,0,false,q,false,false,0.0-2.0-0.24-0.220-3.220,0,0,0,90,false,stim,true,1,513.0,1,0,2,38966,WMM1,832546,false,false,806,image-keyboard-response,2
true,6,1,1,0,false,q,false,false,0.0-2.0-0.24-0.221-3.221,0,0,0,90,false,stim,true,1,1100.0,1,0,2,38966,WMM1,835460,false,false,809,image-keyboard-response,3
true,6,2,1,0,false,q,false,false,0.0-2.0-0.24-0.222-3.222,0,0,0,68,false,stim,true,2,1401.0,1,0,1,38966,WMM1,838364,false,false,812,image-keyboard-response,4
true,6,0,1,0,true,q,false,true,0.0-2.0-0.24-0.223-3.223,0,0,0,81,false,stim,false,2,832.0,1,0,1,38966,WMM1,840702,false,false,815,image-keyboard-response,5
true,6,0,1,2,false,d,false,false,0.0-2.0-0.24-0.224-3.224,0,0,0,81,false,stim,true,0,953.0,1,0,0,38966,WMM1,843161,false,false,818,image-keyboard-response,6
true,6,0,1,0,true,q,false,true,0.0-2.0-0.25-0.225-3.225,0,0,0,81,false,stim,false,1,1162.0000000001164,1,0,2,38966,WMM1,845828,false,false,821,image-keyboard-response,7
true,6,0,1,0,true,q,false,false,0.0-2.0-0.25-0.226-3.226,0,0,0,81,false,stim,false,1,1018.0,1,0,2,38966,WMM1,848352,false,true,824,image-keyboard-response,8
true,6,0,1,0,true,q,false,true,0.0-2.0-0.25-0.227-3.227,0,0,0,81,false,stim,false,2,922.0,1,0,1,38966,WMM1,850777,false,false,827,image-keyboard-response,9
true,6,1,1,2,false,d,true,false,0.0-2.0-0.25-0.228-3.228,0,0,0,90,false,stim,false,0,1151.0000000001164,1,0,0,38966,WMM1,853433,false,false,830,image-keyboard-response,10
true,6,2,1,2,true,d,false,false,0.0-2.0-0.25-0.229-3.229,0,0,0,68,false,stim,false,0,960.0,1,0,0,38966,WMM1,855897,false,true,833,image-keyboard-response,11
true,6,1,1,2,false,d,true,false,0.0-2.0-0.25-0.230-3.230,0,0,0,90,false,stim,false,0,749.0,1,0,0,38966,WMM1,858149,false,false,836,image-keyboard-response,12
true,6,0,1,0,true,q,false,true,0.0-2.0-0.25-0.231-3.231,0,0,0,81,false,stim,false,2,429.0,1,0,1,38966,WMM1,860083,false,false,839,image-keyboard-response,13
true,6,0,1,0,true,q,false,true,0.0-2.0-0.25-0.232-3.232,0,0,0,81,false,stim,false,1,959.0,1,0,2,38966,WMM1,862545,false,false,842,image-keyboard-response,14
true,6,0,1,0,true,q,false,true,0.0-2.0-0.25-0.233-3.233,0,0,0,81,false,stim,false,2,844.0000000001164,1,0,1,38966,WMM1,864893,false,false,845,image-keyboard-response,15
true,6,0,1,2,false,d,false,false,0.0-2.0-0.26-0.234-3.234,0,0,0,81,false,stim,true,0,1075.0,1,0,0,38966,WMM1,867473,false,false,848,image-keyboard-response,16
true,6,0,1,0,true,q,false,true,0.0-2.0-0.26-0.235-3.235,0,0,0,81,false,stim,false,2,1081.0,1,0,1,38966,WMM1,870058,false,false,851,image-keyboard-response,17
true,6,0,1,0,true,q,false,true,0.0-2.0-0.26-0.236-3.236,0,0,0,81,false,stim,false,1,799.0000000001164,1,0,2,38966,WMM1,872360,false,false,854,image-keyboard-response,18
true,6,0,1,2,false,d,false,false,0.0-2.0-0.26-0.237-3.237,0,0,0,81,false,stim,true,0,1296.0,1,0,0,38966,WMM1,875160,false,false,857,image-keyboard-response,19
true,6,0,1,0,true,q,false,true,0.0-2.0-0.26-0.238-3.238,0,0,0,81,false,stim,false,2,1099.0,1,0,1,38966,WMM1,877762,false,false,860,image-keyboard-response,20
true,6,2,1,2,true,d,false,true,0.0-2.0-0.26-0.239-3.239,0,0,0,68,false,stim,false,0,1060.0,1,0,0,38966,WMM1,880326,false,false,863,image-keyboard-response,21
true,6,0,1,0,true,q,false,false,0.0-2.0-0.26-0.240-3.240,0,0,0,81,false,stim,false,1,1132.0000000001164,1,0,2,38966,WMM1,882962,false,true,866,image-keyboard-response,22
true,6,0,1,0,true,q,false,true,0.0-2.0-0.26-0.241-3.241,0,0,0,81,false,stim,false,2,1479.0,1,0,1,38966,WMM1,885945,false,false,869,image-keyboard-response,23
true,6,0,1,0,true,q,false,false,0.0-2.0-0.26-0.242-3.242,0,0,0,81,false,stim,false,1,1338.0,1,0,2,38966,WMM1,888788,false,true,872,image-keyboard-response,24
true,6,2,1,2,true,d,false,true,0.0-2.0-0.27-0.243-3.243,0,0,0,68,false,stim,false,0,1459.9999999998836,1,0,0,38966,WMM1,891755,false,false,875,image-keyboard-response,25
true,6,0,1,0,true,q,false,true,0.0-2.0-0.27-0.244-3.244,0,0,0,81,false,stim,false,2,1092.0,1,0,1,38966,WMM1,894350,false,false,878,image-keyboard-response,26
true,6,0,1,0,true,q,false,true,0.0-2.0-0.27-0.245-3.245,0,0,0,81,false,stim,false,2,807.0,1,0,1,38966,WMM1,896661,false,false,881,image-keyboard-response,27
true,6,0,1,2,false,d,false,false,0.0-2.0-0.27-0.246-3.246,0,0,0,81,false,stim,true,0,1826.0,1,0,0,38966,WMM1,899990,false,false,884,image-keyboard-response,28
true,6,1,1,0,false,q,false,false,0.0-2.0-0.27-0.247-3.247,0,0,0,90,false,stim,true,1,1313.0,1,0,2,38966,WMM1,902809,false,false,887,image-keyboard-response,29
true,6,1,1,0,false,q,false,false,0.0-2.0-0.27-0.248-3.248,0,0,0,90,false,stim,true,1,1352.0000000001164,1,0,2,38966,WMM1,905665,false,false,890,image-keyboard-response,30
true,6,2,1,2,true,d,false,true,0.0-2.0-0.27-0.249-3.249,0,0,0,68,false,stim,false,0,965.0,1,0,0,38966,WMM1,908134,false,false,893,image-keyboard-response,31
true,6,0,1,0,true,q,false,true,0.0-2.0-0.27-0.250-3.250,0,0,0,81,false,stim,false,1,610.0,1,0,2,38966,WMM1,910248,false,false,896,image-keyboard-response,32
true,6,0,1,0,true,q,false,true,0.0-2.0-0.27-0.251-3.251,0,0,0,81,false,stim,false,2,446.0,1,0,1,38966,WMM1,912197,false,false,899,image-keyboard-response,33
true,6,0,1,0,true,q,false,true,0.0-2.0-0.28-0.252-3.252,0,0,0,81,false,stim,false,1,732.0,1,0,2,38966,WMM1,914442,false,false,902,image-keyboard-response,34
true,6,0,1,2,false,d,false,false,0.0-2.0-0.28-0.253-3.253,0,0,0,81,false,stim,true,0,1035.0,1,0,0,38966,WMM1,916980,false,false,905,image-keyboard-response,35
true,7,0,1,2,false,d,false,false,0.0-2.0-0.28-0.254-3.254,0,0,0,81,true,stim,true,0,1935.0,1,0,2,38966,WMM1,920421,false,false,908,image-keyboard-response,1
true,7,0,1,1,false,z,false,false,0.0-2.0-0.28-0.255-3.255,0,0,0,81,false,stim,true,0,1060.9999999998836,1,0,1,38966,WMM1,922988,false,false,911,image-keyboard-response,2
true,7,0,1,1,false,z,false,false,0.0-2.0-0.28-0.256-3.256,0,0,0,81,false,stim,true,0,758.0,1,0,1,38966,WMM1,925249,false,false,914,image-keyboard-response,3
true,7,0,1,1,false,z,true,false,0.0-2.0-0.28-0.257-3.257,0,0,0,81,false,stim,false,2,1361.9999999998836,1,0,0,38966,WMM1,928114,false,false,917,image-keyboard-response,4
true,7,1,1,1,true,z,false,false,0.0-2.0-0.28-0.258-3.258,0,0,0,90,false,stim,false,2,627.0,1,0,0,38966,WMM1,930246,false,true,920,image-keyboard-response,5
true,7,2,1,2,true,d,false,false,0.0-2.0-0.28-0.259-3.259,0,0,0,68,false,stim,false,0,1569.0,1,0,2,38966,WMM1,933317,false,true,923,image-keyboard-response,6
true,7,1,1,1,true,z,false,true,0.0-2.0-0.28-0.260-3.260,0,0,0,90,false,stim,false,0,577.0,1,0,1,38966,WMM1,935398,false,false,926,image-keyboard-response,7
true,7,1,1,1,true,z,false,true,0.0-2.0-0.29-0.261-3.261,0,0,0,90,false,stim,false,2,1282.0000000001164,1,0,0,38966,WMM1,938183,false,false,929,image-keyboard-response,8
true,7,1,1,2,false,d,true,false,0.0-2.0-0.29-0.262-3.262,0,0,0,90,false,stim,false,0,892.0,1,0,2,38966,WMM1,940577,false,false,932,image-keyboard-response,9
true,7,1,1,1,true,z,false,true,0.0-2.0-0.29-0.263-3.263,0,0,0,90,false,stim,false,2,915.0000000001164,1,0,0,38966,WMM1,942997,false,false,935,image-keyboard-response,10
true,7,1,1,1,true,z,false,false,0.0-2.0-0.29-0.264-3.264,0,0,0,90,false,stim,false,0,1322.0,1,0,1,38966,WMM1,945822,false,true,938,image-keyboard-response,11
true,7,1,1,1,true,z,false,false,0.0-2.0-0.29-0.265-3.265,0,0,0,90,false,stim,false,0,510.0,1,0,1,38966,WMM1,947835,false,true,941,image-keyboard-response,12
true,7,1,1,2,false,d,true,false,0.0-2.0-0.29-0.266-3.266,0,0,0,90,false,stim,false,0,1680.0,1,0,2,38966,WMM1,951019,false,false,944,image-keyboard-response,13
true,7,0,1,2,false,d,false,false,0.0-2.0-0.29-0.267-3.267,0,0,0,81,false,stim,true,0,641.0,1,0,2,38966,WMM1,953164,false,false,947,image-keyboard-response,14
true,7,1,1,1,true,z,false,false,0.0-2.0-0.29-0.268-3.268,0,0,0,90,false,stim,false,2,1195.0000000001164,1,0,0,38966,WMM1,955862,false,true,950,image-keyboard-response,15
true,7,2,1,1,false,z,true,true,0.0-2.0-0.29-0.269-3.269,0,0,0,68,false,stim,false,0,1399.0,1,0,1,38966,WMM1,958764,false,true,953,image-keyboard-response,16
true,7,2,1,2,true,d,false,true,0.0-2.0-0.30-0.270-3.270,0,0,0,68,false,stim,false,0,722.0,1,0,2,38966,WMM1,960989,false,false,956,image-keyboard-response,17
true,7,2,1,2,true,d,false,true,0.0-2.0-0.30-0.271-3.271,0,0,0,68,false,stim,false,0,532.0,1,0,2,38966,WMM1,963024,false,false,959,image-keyboard-response,18
true,7,2,1,1,false,z,false,true,0.0-2.0-0.30-0.272-3.272,0,0,0,68,false,stim,true,2,719.0000000001164,1,0,0,38966,WMM1,965246,false,true,962,image-keyboard-response,19
true,7,2,1,1,false,z,true,false,0.0-2.0-0.30-0.273-3.273,0,0,0,68,false,stim,false,0,804.0,1,0,1,38966,WMM1,967552,false,false,965,image-keyboard-response,20
true,7,2,1,2,true,d,false,true,0.0-2.0-0.30-0.274-3.274,0,0,0,68,false,stim,false,0,775.0,1,0,2,38966,WMM1,969831,false,false,968,image-keyboard-response,21
true,7,2,1,1,false,z,true,false,0.0-2.0-0.30-0.275-3.275,0,0,0,68,false,stim,false,0,701.0,1,0,1,38966,WMM1,972036,false,false,971,image-keyboard-response,22
true,7,2,1,1,false,z,false,false,0.0-2.0-0.30-0.276-3.276,0,0,0,68,false,stim,true,2,2101.0,1,0,0,38966,WMM1,975642,false,false,974,image-keyboard-response,23
true,7,1,1,1,true,z,false,true,0.0-2.0-0.30-0.277-3.277,0,0,0,90,false,stim,false,0,607.0,1,0,1,38966,WMM1,977756,false,false,977,image-keyboard-response,24
true,7,2,1,1,false,z,false,false,0.0-2.0-0.30-0.278-3.278,0,0,0,68,false,stim,true,2,1957.0,1,0,0,38966,WMM1,981217,false,false,980,image-keyboard-response,25
true,7,0,1,1,false,z,true,false,0.0-2.0-0.31-0.279-3.279,0,0,0,81,false,stim,false,2,524.0,1,0,0,38966,WMM1,983245,false,false,983,image-keyboard-response,26
true,7,2,1,2,true,d,false,true,0.0-2.0-0.31-0.280-3.280,0,0,0,68,false,stim,false,0,1225.0,1,0,2,38966,WMM1,985975,false,false,986,image-keyboard-response,27
true,7,1,1,1,true,z,false,true,0.0-2.0-0.31-0.281-3.281,0,0,0,90,false,stim,false,2,1296.0,1,0,0,38966,WMM1,988775,false,false,989,image-keyboard-response,28
true,7,1,1,1,true,z,false,true,0.0-2.0-0.31-0.282-3.282,0,0,0,90,false,stim,false,2,1660.0,1,0,0,38966,WMM1,991940,false,false,992,image-keyboard-response,29
true,7,2,1,2,true,d,false,true,0.0-2.0-0.31-0.283-3.283,0,0,0,68,false,stim,false,0,1188.0,1,0,2,38966,WMM1,994632,false,false,995,image-keyboard-response,30
true,7,1,1,1,true,z,false,true,0.0-2.0-0.31-0.284-3.284,0,0,0,90,false,stim,false,0,591.0000000001164,1,0,1,38966,WMM1,996727,false,false,998,image-keyboard-response,31
true,7,1,1,1,true,z,false,true,0.0-2.0-0.31-0.285-3.285,0,0,0,90,false,stim,false,0,776.9999999998836,1,0,1,38966,WMM1,999014,false,false,1001,image-keyboard-response,32
true,7,1,1,1,true,z,false,true,0.0-2.0-0.31-0.286-3.286,0,0,0,90,false,stim,false,0,2309.0,1,0,1,38966,WMM1,1002828,false,false,1004,image-keyboard-response,33
true,7,1,1,2,false,d,true,false,0.0-2.0-0.31-0.287-3.287,0,0,0,90,false,stim,false,0,1473.0,1,0,2,38966,WMM1,1005804,false,false,1007,image-keyboard-response,34
true,7,2,1,2,true,d,false,true,0.0-2.0-0.32-0.288-3.288,0,0,0,68,false,stim,false,0,976.9999999998836,1,0,2,38966,WMM1,1008285,false,false,1010,image-keyboard-response,35
true,7,1,1,1,true,z,false,true,0.0-2.0-0.32-0.289-3.289,0,0,0,90,false,stim,false,0,660.0000000001164,1,0,1,38966,WMM1,1010448,false,false,1013,image-keyboard-response,36
true,7,2,1,1,false,z,true,false,0.0-2.0-0.32-0.290-3.290,0,0,0,68,false,stim,false,0,1647.0,1,0,1,38966,WMM1,1013598,false,false,1016,image-keyboard-response,37
true,7,1,1,1,true,z,false,true,0.0-2.0-0.32-0.291-3.291,0,0,0,90,false,stim,false,2,767.0,1,0,0,38966,WMM1,1015868,false,false,1019,image-keyboard-response,38
true,7,1,1,1,true,z,false,true,0.0-2.0-0.32-0.292-3.292,0,0,0,90,false,stim,false,2,1289.9999999998836,1,0,0,38966,WMM1,1018661,false,false,1022,image-keyboard-response,39
true,7,1,1,1,true,z,false,true,0.0-2.0-0.32-0.293-3.293,0,0,0,90,false,stim,false,2,1212.0,1,0,0,38966,WMM1,1021379,false,false,1025,image-keyboard-response,40
true,7,1,1,2,false,d,true,false,0.0-2.0-0.32-0.294-3.294,0,0,0,90,false,stim,false,0,904.0,1,0,2,38966,WMM1,1023787,false,false,1028,image-keyboard-response,41
true,8,2,2,1,false,z,false,false,0.0-2.0-0.32-0.295-3.295,0,0,0,68,true,stim,true,2,572.0000000001164,1,0,2,38966,WMM1,1025864,false,false,1031,image-keyboard-response,1
true,8,1,2,2,false,d,false,false,0.0-2.0-0.32-0.296-3.296,0,0,0,90,false,stim,true,1,655.0,1,0,1,38966,WMM1,1028025,false,false,1034,image-keyboard-response,2
true,8,1,2,0,false,q,false,false,0.0-2.0-0.33-0.297-3.297,0,0,0,90,false,stim,true,1,995.9999999998836,1,0,0,38966,WMM1,1030526,false,false,1037,image-keyboard-response,3
true,8,0,2,0,true,q,false,true,0.0-2.0-0.33-0.298-3.298,0,0,0,81,false,stim,false,1,908.0,1,0,0,38966,WMM1,1032938,false,false,1040,image-keyboard-response,4
true,8,0,2,2,false,d,true,false,0.0-2.0-0.33-0.299-3.299,0,0,0,81,false,stim,false,1,1530.0,1,0,1,38966,WMM1,1035971,false,false,1043,image-keyboard-response,5
true,8,0,2,1,false,z,true,false,0.0-2.0-0.33-0.300-3.300,0,0,0,81,false,stim,false,2,1719.0,1,0,2,38966,WMM1,1039194,false,false,1046,image-keyboard-response,6
true,8,1,2,1,true,z,false,true,0.0-2.0-0.33-0.301-3.301,0,0,0,90,false,stim,false,2,915.9999999998836,1,0,2,38966,WMM1,1041612,false,false,1049,image-keyboard-response,7
true,8,1,2,2,false,d,false,false,0.0-2.0-0.33-0.302-3.302,0,0,0,90,false,stim,true,1,1457.9999999997672,1,0,1,38966,WMM1,1044574,false,false,1052,image-keyboard-response,8
true,8,1,2,2,false,d,false,false,0.0-2.0-0.33-0.303-3.303,0,0,0,90,false,stim,true,1,922.0000000001164,1,0,1,38966,WMM1,1047000,false,false,1055,image-keyboard-response,9
true,8,2,2,1,false,z,false,true,0.0-2.0-0.33-0.304-3.304,0,0,0,68,false,stim,true,2,1359.0,1,0,2,38966,WMM1,1049864,false,true,1058,image-keyboard-response,10
true,8,0,2,0,true,q,false,true,0.0-2.0-0.33-0.305-3.305,0,0,0,81,false,stim,false,1,1223.0,1,0,0,38966,WMM1,1052592,false,false,1061,image-keyboard-response,11
true,8,2,2,2,true,d,false,false,0.0-2.0-0.34-0.306-3.306,0,0,0,68,false,stim,false,1,1085.0,1,0,1,38966,WMM1,1055182,false,true,1064,image-keyboard-response,12
true,8,0,2,0,true,q,false,true,0.0-2.0-0.34-0.307-3.307,0,0,0,81,false,stim,false,1,1039.0,1,0,0,38966,WMM1,1057725,false,false,1067,image-keyboard-response,13
true,8,0,2,0,true,q,false,true,0.0-2.0-0.34-0.308-3.308,0,0,0,81,false,stim,false,1,700.0,1,0,0,38966,WMM1,1059928,false,false,1070,image-keyboard-response,14
true,8,0,2,2,false,d,true,false,0.0-2.0-0.34-0.309-3.309,0,0,0,81,false,stim,false,1,997.0,1,0,1,38966,WMM1,1062429,false,false,1073,image-keyboard-response,15
true,8,1,2,1,true,z,false,true,0.0-2.0-0.34-0.310-3.310,0,0,0,90,false,stim,false,2,1566.0,1,0,2,38966,WMM1,1065499,false,false,1076,image-keyboard-response,16
true,8,1,2,2,false,d,false,false,0.0-2.0-0.34-0.311-3.311,0,0,0,90,false,stim,true,1,1387.0,1,0,1,38966,WMM1,1068388,false,false,1079,image-keyboard-response,17
true,8,0,2,0,true,q,false,true,0.0-2.0-0.34-0.312-3.312,0,0,0,81,false,stim,false,1,1487.0,1,0,0,38966,WMM1,1071379,false,false,1082,image-keyboard-response,18
true,8,1,2,1,true,z,false,true,0.0-2.0-0.34-0.313-3.313,0,0,0,90,false,stim,false,2,908.0,1,0,2,38966,WMM1,1073790,false,false,1085,image-keyboard-response,19
true,8,2,2,1,false,z,false,true,0.0-2.0-0.34-0.314-3.314,0,0,0,68,false,stim,true,2,1164.0,1,0,2,38966,WMM1,1076457,false,true,1088,image-keyboard-response,20
true,8,2,2,1,false,z,false,false,0.0-2.0-0.35-0.315-3.315,0,0,0,68,false,stim,true,2,1237.0,1,0,2,38966,WMM1,1079199,false,false,1091,image-keyboard-response,21
true,8,1,2,1,true,z,false,true,0.0-2.0-0.35-0.316-3.316,0,0,0,90,false,stim,false,2,793.0,1,0,2,38966,WMM1,1081496,false,false,1094,image-keyboard-response,22
true,8,1,2,2,false,d,false,false,0.0-2.0-0.35-0.317-3.317,0,0,0,90,false,stim,true,1,2420.0,1,0,1,38966,WMM1,1085421,false,false,1097,image-keyboard-response,23
true,8,2,2,0,false,q,true,false,0.0-2.0-0.35-0.318-3.318,0,0,0,68,false,stim,false,1,2001.0,1,0,0,38966,WMM1,1088928,false,false,1100,image-keyboard-response,24
true,8,1,2,2,false,d,false,false,0.0-2.0-0.35-0.319-3.319,0,0,0,90,false,stim,true,1,2455.0,1,0,1,38966,WMM1,1092890,false,false,1103,image-keyboard-response,25
true,8,1,2,1,true,z,false,false,0.0-2.0-0.35-0.320-3.320,0,0,0,90,false,stim,false,2,942.0,1,0,2,38966,WMM1,1095337,false,true,1106,image-keyboard-response,26
true,8,0,2,2,false,d,true,false,0.0-2.0-0.35-0.321-3.321,0,0,0,81,false,stim,false,1,1016.0,1,0,1,38966,WMM1,1097856,false,false,1109,image-keyboard-response,27
true,8,0,2,0,true,q,false,true,0.0-2.0-0.35-0.322-3.322,0,0,0,81,false,stim,false,1,1214.0000000002328,1,0,0,38966,WMM1,1100574,false,false,1112,image-keyboard-response,28
true,8,0,2,0,true,q,false,true,0.0-2.0-0.35-0.323-3.323,0,0,0,81,false,stim,false,1,674.0,1,0,0,38966,WMM1,1102752,false,false,1115,image-keyboard-response,29
true,8,2,2,2,true,d,false,true,0.0-2.0-0.36-0.324-3.324,0,0,0,68,false,stim,false,1,678.0,1,0,1,38966,WMM1,1104935,false,false,1118,image-keyboard-response,30
true,8,0,2,0,true,q,false,true,0.0-2.0-0.36-0.325-3.325,0,0,0,81,false,stim,false,1,1097.0000000002328,1,0,0,38966,WMM1,1107537,false,false,1121,image-keyboard-response,31
true,8,1,2,1,true,z,false,true,0.0-2.0-0.36-0.326-3.326,0,0,0,90,false,stim,false,2,1411.0,1,0,2,38966,WMM1,1110454,false,false,1124,image-keyboard-response,32
true,8,1,2,2,false,d,false,false,0.0-2.0-0.36-0.327-3.327,0,0,0,90,false,stim,true,1,1047.0,1,0,1,38966,WMM1,1113006,false,false,1127,image-keyboard-response,33
true,8,2,2,2,true,d,false,true,0.0-2.0-0.36-0.328-3.328,0,0,0,68,false,stim,false,1,845.0,1,0,1,38966,WMM1,1115355,false,false,1130,image-keyboard-response,34
true,8,0,2,0,true,q,false,true,0.0-2.0-0.36-0.329-3.329,0,0,0,81,false,stim,false,1,1766.0,1,0,0,38966,WMM1,1118625,false,false,1133,image-keyboard-response,35
true,8,1,2,1,true,z,false,true,0.0-2.0-0.36-0.330-3.330,0,0,0,90,false,stim,false,2,624.0,1,0,2,38966,WMM1,1120754,false,false,1136,image-keyboard-response,36
true,8,1,2,0,false,q,false,false,0.0-2.0-0.36-0.331-3.331,0,0,0,90,false,stim,true,1,479.0,1,0,0,38966,WMM1,1122738,false,false,1139,image-keyboard-response,37
true,8,1,2,1,true,z,false,true,0.0-2.0-0.36-0.332-3.332,0,0,0,90,false,stim,false,2,666.0,1,0,2,38966,WMM1,1124908,false,false,1142,image-keyboard-response,38
true,8,0,2,0,true,q,false,true,0.0-2.0-0.37-0.333-3.333,0,0,0,81,false,stim,false,1,1374.0000000002328,1,0,0,38966,WMM1,1127786,false,false,1145,image-keyboard-response,39
true,8,0,2,0,true,q,false,true,0.0-2.0-0.37-0.334-3.334,0,0,0,81,false,stim,false,1,1441.0,1,0,0,38966,WMM1,1130733,false,false,1148,image-keyboard-response,40
true,8,0,2,0,true,q,false,false,0.0-2.0-0.37-0.335-3.335,0,0,0,81,false,stim,false,1,1059.0,1,0,0,38966,WMM1,1133298,false,true,1151,image-keyboard-response,41
true,8,1,2,2,false,d,false,false,0.0-2.0-0.37-0.336-3.336,0,0,0,90,false,stim,true,1,2085.0,1,0,1,38966,WMM1,1136887,false,false,1154,image-keyboard-response,42
true,8,2,2,2,true,d,false,true,0.0-2.0-0.37-0.337-3.337,0,0,0,68,false,stim,false,1,653.0,1,0,1,38966,WMM1,1139044,false,false,1157,image-keyboard-response,43
true,8,2,2,2,true,d,false,true,0.0-2.0-0.37-0.338-3.338,0,0,0,68,false,stim,false,1,819.0,1,0,1,38966,WMM1,1141366,false,false,1160,image-keyboard-response,44
true,8,1,2,1,true,z,false,true,0.0-2.0-0.37-0.339-3.339,0,0,0,90,false,stim,false,2,2676.0,1,0,2,38966,WMM1,1145547,false,false,1163,image-keyboard-response,45
true,8,1,2,1,true,z,false,true,0.0-2.0-0.37-0.340-3.340,0,0,0,90,false,stim,false,2,506.0,1,0,2,38966,WMM1,1147557,false,false,1166,image-keyboard-response,46
true,8,1,2,1,true,z,false,true,0.0-2.0-0.37-0.341-3.341,0,0,0,90,false,stim,false,2,564.0,1,0,2,38966,WMM1,1149626,false,false,1169,image-keyboard-response,47
true,8,0,2,0,true,q,false,true,0.0-2.0-0.38-0.342-3.342,0,0,0,81,false,stim,false,1,1565.9999999997672,1,0,0,38966,WMM1,1152699,false,false,1172,image-keyboard-response,48
true,8,0,2,0,true,q,false,true,0.0-2.0-0.38-0.343-3.343,0,0,0,81,false,stim,false,1,600.0,1,0,0,38966,WMM1,1154803,false,false,1175,image-keyboard-response,49
true,8,2,2,2,true,d,false,true,0.0-2.0-0.38-0.344-3.344,0,0,0,68,false,stim,false,1,1082.0,1,0,1,38966,WMM1,1157389,false,false,1178,image-keyboard-response,50
true,8,0,2,0,true,q,false,true,0.0-2.0-0.38-0.345-3.345,0,0,0,81,false,stim,false,1,968.0,1,0,0,38966,WMM1,1159860,false,false,1181,image-keyboard-response,51
true,8,1,2,1,true,z,false,true,0.0-2.0-0.38-0.346-3.346,0,0,0,90,false,stim,false,2,1101.0,1,0,2,38966,WMM1,1162465,false,false,1184,image-keyboard-response,52
true,8,1,2,1,true,z,false,false,0.0-2.0-0.38-0.347-3.347,0,0,0,90,false,stim,false,2,1220.0,1,0,2,38966,WMM1,1165190,false,true,1187,image-keyboard-response,53
true,8,2,2,2,true,d,false,false,0.0-2.0-0.38-0.348-3.348,0,0,0,68,false,stim,false,1,1488.0,1,0,1,38966,WMM1,1168183,false,true,1190,image-keyboard-response,54
true,9,1,1,0,false,q,false,false,0.0-2.0-0.38-0.349-3.349,0,0,0,90,true,stim,true,1,1601.0000000002328,1,0,2,38966,WMM1,1171286,false,false,1193,image-keyboard-response,1
true,9,1,1,0,false,q,true,false,0.0-2.0-0.38-0.350-3.350,0,0,0,90,false,stim,false,2,1072.0,1,0,1,38966,WMM1,1173864,false,false,1196,image-keyboard-response,2
true,9,0,1,1,false,z,false,false,0.0-2.0-0.39-0.351-3.351,0,0,0,81,false,stim,true,0,1335.0,1,0,0,38966,WMM1,1176703,false,false,1199,image-keyboard-response,3
true,9,2,1,0,false,q,false,false,0.0-2.0-0.39-0.352-3.352,0,0,0,68,false,stim,true,2,896.0,1,0,1,38966,WMM1,1179109,false,false,1202,image-keyboard-response,4
true,9,0,1,1,false,z,false,false,0.0-2.0-0.39-0.353-3.353,0,0,0,81,false,stim,true,0,1539.0,1,0,0,38966,WMM1,1182152,false,false,1205,image-keyboard-response,5
true,9,1,1,0,false,q,true,false,0.0-2.0-0.39-0.354-3.354,0,0,0,90,false,stim,false,2,1104.0,1,0,1,38966,WMM1,1184759,false,false,1208,image-keyboard-response,6
true,9,1,1,1,true,z,false,true,0.0-2.0-0.39-0.355-3.355,0,0,0,90,false,stim,false,0,731.0,1,0,0,38966,WMM1,1186994,false,false,1211,image-keyboard-response,7
true,9,1,1,0,false,q,false,false,0.0-2.0-0.39-0.356-3.356,0,0,0,90,false,stim,true,1,635.0,1,0,2,38966,WMM1,1189133,false,false,1214,image-keyboard-response,8
true,9,2,1,0,false,q,true,false,0.0-2.0-0.39-0.357-3.357,0,0,0,68,false,stim,false,1,970.0,1,0,2,38966,WMM1,1191607,false,false,1217,image-keyboard-response,9
true,9,0,1,0,true,q,false,true,0.0-2.0-0.39-0.358-3.358,0,0,0,81,false,stim,false,1,510.0,1,0,2,38966,WMM1,1193621,false,false,1220,image-keyboard-response,10
true,9,0,1,0,true,q,false,true,0.0-2.0-0.39-0.359-3.359,0,0,0,81,false,stim,false,2,1261.0,1,0,1,38966,WMM1,1196387,false,false,1223,image-keyboard-response,11
true,9,1,1,1,true,z,false,true,0.0-2.0-0.40-0.360-3.360,0,0,0,90,false,stim,false,0,1150.0,1,0,0,38966,WMM1,1199042,false,false,1226,image-keyboard-response,12
true,9,0,1,0,true,q,false,true,0.0-2.0-0.40-0.361-3.361,0,0,0,81,false,stim,false,1,572.0,1,0,2,38966,WMM1,1201118,false,false,1229,image-keyboard-response,13
true,9,0,1,0,true,q,false,true,0.0-2.0-0.40-0.362-3.362,0,0,0,81,false,stim,false,2,1319.0,1,0,1,38966,WMM1,1203942,false,false,1232,image-keyboard-response,14
true,9,0,1,1,false,z,false,false,0.0-2.0-0.40-0.363-3.363,0,0,0,81,false,stim,true,0,1550.0,1,0,0,38966,WMM1,1206996,false,false,1235,image-keyboard-response,15
true,9,1,1,1,true,z,false,false,0.0-2.0-0.40-0.364-3.364,0,0,0,90,false,stim,false,0,2147.0,1,0,0,38966,WMM1,1210647,false,true,1238,image-keyboard-response,16
true,9,0,1,0,true,q,false,true,0.0-2.0-0.40-0.365-3.365,0,0,0,81,false,stim,false,1,461.0,1,0,2,38966,WMM1,1212614,false,false,1241,image-keyboard-response,17
true,9,1,1,0,false,q,false,false,0.0-2.0-0.40-0.366-3.366,0,0,0,90,false,stim,true,1,1967.0000000002328,1,0,2,38966,WMM1,1216084,false,false,1244,image-keyboard-response,18
true,9,1,1,0,false,q,true,true,0.0-2.0-0.40-0.367-3.367,0,0,0,90,false,stim,false,2,726.0,1,0,1,38966,WMM1,1218315,false,true,1247,image-keyboard-response,19
true,9,2,1,0,false,q,false,false,0.0-2.0-0.40-0.368-3.368,0,0,0,68,false,stim,true,2,1829.0,1,0,1,38966,WMM1,1221646,false,false,1250,image-keyboard-response,20
true,9,0,1,1,false,z,false,false,0.0-2.0-0.41-0.369-3.369,0,0,0,81,false,stim,true,0,781.0,1,0,0,38966,WMM1,1223933,false,false,1253,image-keyboard-response,21
true,9,1,1,0,false,q,true,false,0.0-2.0-0.41-0.370-3.370,0,0,0,90,false,stim,false,2,1468.9999999997672,1,0,1,38966,WMM1,1226908,false,false,1256,image-keyboard-response,22
false,9,-1,1,0,false,q,true,false,0.0-2.0-0.41-0.371-3.371,0,0,0,,false,stim,false,1,,1,0,2,38966,WMM1,1231414,false,false,1259,image-keyboard-response,23
true,9,1,1,0,false,q,false,false,0.0-2.0-0.41-0.372-3.372,0,0,0,90,false,stim,true,1,1677.0,1,0,2,38966,WMM1,1234596,false,false,1262,image-keyboard-response,24
true,9,1,1,1,true,z,false,false,0.0-2.0-0.41-0.373-3.373,0,0,0,90,false,stim,false,0,699.0,1,0,0,38966,WMM1,1236800,false,true,1265,image-keyboard-response,25
true,9,1,1,0,false,q,true,false,0.0-2.0-0.41-0.374-3.374,0,0,0,90,false,stim,false,2,807.0,1,0,1,38966,WMM1,1239113,false,false,1268,image-keyboard-response,26
true,9,2,1,0,false,q,false,false,0.0-2.0-0.41-0.375-3.375,0,0,0,68,false,stim,true,2,631.0,1,0,1,38966,WMM1,1241248,false,false,1271,image-keyboard-response,27
true,9,0,1,0,true,q,false,false,0.0-2.0-0.41-0.376-3.376,0,0,0,81,false,stim,false,1,518.0,1,0,2,38966,WMM1,1243272,false,true,1274,image-keyboard-response,28
true,9,0,1,1,false,z,false,false,0.0-2.0-0.41-0.377-3.377,0,0,0,81,false,stim,true,0,692.9999999997672,1,0,0,38966,WMM1,1245469,false,false,1277,image-keyboard-response,29
true,9,0,1,0,true,q,false,false,0.0-2.0-0.42-0.378-3.378,0,0,0,81,false,stim,false,1,1237.0,1,0,2,38966,WMM1,1248212,false,true,1280,image-keyboard-response,30
true,9,2,1,0,false,q,false,true,0.0-2.0-0.42-0.379-3.379,0,0,0,68,false,stim,true,2,853.0,1,0,1,38966,WMM1,1250569,false,true,1283,image-keyboard-response,31
true,9,2,1,0,false,q,false,false,0.0-2.0-0.42-0.380-3.380,0,0,0,68,false,stim,true,2,544.0,1,0,1,38966,WMM1,1252615,false,false,1286,image-keyboard-response,32
true,9,2,1,0,false,q,true,false,0.0-2.0-0.42-0.381-3.381,0,0,0,68,false,stim,false,1,1730.0,1,0,2,38966,WMM1,1255849,false,false,1289,image-keyboard-response,33
true,9,2,1,1,false,z,true,false,0.0-2.0-0.42-0.382-3.382,0,0,0,68,false,stim,false,0,650.0,1,0,0,38966,WMM1,1258005,false,false,1292,image-keyboard-response,34
true,9,2,1,0,false,q,false,false,0.0-2.0-0.42-0.383-3.383,0,0,0,68,false,stim,true,2,1033.0,1,0,1,38966,WMM1,1260543,false,false,1295,image-keyboard-response,35
true,9,2,1,1,false,z,true,false,0.0-2.0-0.42-0.384-3.384,0,0,0,68,false,stim,false,0,1594.0,1,0,0,38966,WMM1,1263643,false,false,1298,image-keyboard-response,36
true,9,0,1,0,true,q,false,true,0.0-2.0-0.42-0.385-3.385,0,0,0,81,false,stim,false,1,1096.0,1,0,2,38966,WMM1,1266249,false,false,1301,image-keyboard-response,37
true,9,0,1,1,false,z,false,false,0.0-2.0-0.42-0.386-3.386,0,0,0,81,false,stim,true,0,505.0,1,0,0,38966,WMM1,1268259,false,false,1304,image-keyboard-response,38
true,9,0,1,0,true,q,false,true,0.0-2.0-0.43-0.387-3.387,0,0,0,81,false,stim,false,2,1080.0,1,0,1,38966,WMM1,1270844,false,false,1307,image-keyboard-response,39
true,9,0,1,0,true,q,false,true,0.0-2.0-0.43-0.388-3.388,0,0,0,81,false,stim,false,2,770.0,1,0,1,38966,WMM1,1273118,false,false,1310,image-keyboard-response,40
true,9,1,1,0,false,q,true,false,0.0-2.0-0.43-0.389-3.389,0,0,0,90,false,stim,false,2,1257.0,1,0,1,38966,WMM1,1275881,false,false,1313,image-keyboard-response,41
true,9,1,1,1,true,z,false,true,0.0-2.0-0.43-0.390-3.390,0,0,0,90,false,stim,false,0,1335.0,1,0,0,38966,WMM1,1278721,false,false,1316,image-keyboard-response,42
true,9,1,1,1,true,z,false,true,0.0-2.0-0.43-0.391-3.391,0,0,0,90,false,stim,false,0,1534.0,1,0,0,38966,WMM1,1281759,false,false,1319,image-keyboard-response,43
true,9,0,1,0,true,q,false,true,0.0-2.0-0.43-0.392-3.392,0,0,0,81,false,stim,false,1,1620.0,1,0,2,38966,WMM1,1284884,false,false,1322,image-keyboard-response,44
true,9,0,1,1,false,z,false,true,0.0-2.0-0.43-0.393-3.393,0,0,0,81,false,stim,true,0,1824.0,1,0,0,38966,WMM1,1288213,false,true,1325,image-keyboard-response,45
true,9,2,1,0,false,q,true,false,0.0-2.0-0.43-0.394-3.394,0,0,0,68,false,stim,false,1,1791.0,1,0,2,38966,WMM1,1291507,false,false,1328,image-keyboard-response,46
true,9,0,1,0,true,q,false,true,0.0-2.0-0.43-0.395-3.395,0,0,0,81,false,stim,false,1,586.0,1,0,2,38966,WMM1,1293598,false,false,1331,image-keyboard-response,47
true,9,1,1,1,true,z,false,true,0.0-2.0-0.44-0.396-3.396,0,0,0,90,false,stim,false,0,1117.0,1,0,0,38966,WMM1,1296220,false,false,1334,image-keyboard-response,48
true,9,0,1,0,true,q,false,true,0.0-2.0-0.44-0.397-3.397,0,0,0,81,false,stim,false,2,1304.0,1,0,1,38966,WMM1,1299030,false,false,1337,image-keyboard-response,49
true,9,0,1,0,true,q,false,true,0.0-2.0-0.44-0.398-3.398,0,0,0,81,false,stim,false,1,2374.000000000233,1,0,2,38966,WMM1,1302910,false,false,1340,image-keyboard-response,50
false,9,-1,1,0,false,q,true,false,0.0-2.0-0.44-0.399-3.399,0,0,0,,false,stim,false,1,,1,0,2,38966,WMM1,1307415,false,false,1343,image-keyboard-response,51
true,9,1,1,1,true,z,false,false,0.0-2.0-0.44-0.400-3.400,0,0,0,90,false,stim,false,0,702.0,1,0,0,38966,WMM1,1309623,false,true,1346,image-keyboard-response,52
true,9,0,1,0,true,q,false,true,0.0-2.0-0.44-0.401-3.401,0,0,0,81,false,stim,false,2,917.0,1,0,1,38966,WMM1,1312043,false,false,1349,image-keyboard-response,53
true,9,1,1,0,false,q,false,false,0.0-2.0-0.44-0.402-3.402,0,0,0,90,false,stim,true,1,833.0,1,0,2,38966,WMM1,1314380,false,false,1352,image-keyboard-response,54
true,9,0,1,1,false,z,false,false,0.0-2.0-0.44-0.403-3.403,0,0,0,81,false,stim,true,0,726.0,1,0,0,38966,WMM1,1316610,false,false,1355,image-keyboard-response,55
true,9,0,1,0,true,q,false,true,0.0-2.0-0.44-0.404-3.404,0,0,0,81,false,stim,false,2,993.0,1,0,1,38966,WMM1,1319107,false,false,1358,image-keyboard-response,56
true,9,0,1,0,true,q,false,false,0.0-2.0-0.45-0.405-3.405,0,0,0,81,false,stim,false,1,813.0,1,0,2,38966,WMM1,1321425,false,true,1361,image-keyboard-response,57
true,9,0,1,0,true,q,false,true,0.0-2.0-0.45-0.406-3.406,0,0,0,81,false,stim,false,2,1517.0,1,0,1,38966,WMM1,1324445,false,false,1364,image-keyboard-response,58
true,9,1,1,0,false,q,false,true,0.0-2.0-0.45-0.407-3.407,0,0,0,90,false,stim,true,1,1499.0,1,0,2,38966,WMM1,1327450,false,true,1367,image-keyboard-response,59
true,9,1,1,1,true,z,false,true,0.0-2.0-0.45-0.408-3.408,0,0,0,90,false,stim,false,0,817.0,1,0,0,38966,WMM1,1329771,false,false,1370,image-keyboard-response,60
true,10,2,2,1,false,z,true,false,0.0-2.0-0.45-0.409-3.409,0,0,0,68,true,stim,false,0,2323.0,1,0,2,38966,WMM1,1333596,false,false,1373,image-keyboard-response,1
true,10,1,2,0,false,q,false,false,0.0-2.0-0.45-0.410-3.410,0,0,0,90,false,stim,true,1,832.9999999997672,1,0,0,38966,WMM1,1335935,false,false,1376,image-keyboard-response,2
true,10,1,2,0,false,q,false,false,0.0-2.0-0.45-0.411-3.411,0,0,0,90,false,stim,true,1,987.0,1,0,0,38966,WMM1,1338426,false,false,1379,image-keyboard-response,3
true,10,2,2,2,true,d,false,true,0.0-2.0-0.45-0.412-3.412,0,0,0,68,false,stim,false,0,1674.0,1,0,1,38966,WMM1,1341605,false,false,1382,image-keyboard-response,4
false,10,-1,2,2,false,d,true,false,0.0-2.0-0.45-0.413-3.413,0,0,0,,false,stim,false,0,,1,0,1,38966,WMM1,1346111,false,false,1385,image-keyboard-response,5
true,10,1,2,1,true,z,false,true,0.0-2.0-0.46-0.414-3.414,0,0,0,90,false,stim,false,0,767.0,1,0,2,38966,WMM1,1348382,false,false,1388,image-keyboard-response,6
true,10,1,2,1,true,z,false,true,0.0-2.0-0.46-0.415-3.415,0,0,0,90,false,stim,false,0,648.0,1,0,2,38966,WMM1,1350533,false,false,1391,image-keyboard-response,7
true,10,1,2,2,false,d,true,true,0.0-2.0-0.46-0.416-3.416,0,0,0,90,false,stim,false,0,1210.0000000002328,1,0,1,38966,WMM1,1353246,false,true,1394,image-keyboard-response,8
true,10,1,2,0,false,q,false,false,0.0-2.0-0.46-0.417-3.417,0,0,0,90,false,stim,true,1,1228.0,1,0,0,38966,WMM1,1355979,false,false,1397,image-keyboard-response,9
true,10,0,2,0,true,q,false,true,0.0-2.0-0.46-0.418-3.418,0,0,0,81,false,stim,false,1,1592.0,1,0,0,38966,WMM1,1359075,false,false,1400,image-keyboard-response,10
false,10,-1,2,0,false,q,true,false,0.0-2.0-0.46-0.419-3.419,0,0,0,,false,stim,false,1,,1,0,0,38966,WMM1,1363584,false,false,1403,image-keyboard-response,11
true,10,1,2,1,true,z,false,true,0.0-2.0-0.46-0.420-3.420,0,0,0,90,false,stim,false,0,583.0,1,0,2,38966,WMM1,1365672,false,false,1406,image-keyboard-response,12
true,10,2,2,2,true,d,false,true,0.0-2.0-0.46-0.421-3.421,0,0,0,68,false,stim,false,0,1525.0,1,0,1,38966,WMM1,1368702,false,false,1409,image-keyboard-response,13
true,10,2,2,2,true,d,false,true,0.0-2.0-0.46-0.422-3.422,0,0,0,68,false,stim,false,0,613.0,1,0,1,38966,WMM1,1370819,false,false,1412,image-keyboard-response,14
true,10,2,2,2,true,d,false,true,0.0-2.0-0.47-0.423-3.423,0,0,0,68,false,stim,false,0,730.0000000002328,1,0,1,38966,WMM1,1373054,false,false,1415,image-keyboard-response,15
true,10,2,2,0,false,q,true,false,0.0-2.0-0.47-0.424-3.424,0,0,0,68,false,stim,false,1,1005.0000000002328,1,0,0,38966,WMM1,1375563,false,false,1418,image-keyboard-response,16
true,10,0,2,1,false,z,false,false,0.0-2.0-0.47-0.425-3.425,0,0,0,81,false,stim,true,0,1765.0000000002328,1,0,2,38966,WMM1,1378833,false,false,1421,image-keyboard-response,17
true,10,1,2,1,true,z,false,true,0.0-2.0-0.47-0.426-3.426,0,0,0,90,false,stim,false,0,1257.0,1,0,2,38966,WMM1,1381592,false,false,1424,image-keyboard-response,18
true,10,1,2,2,false,d,true,false,0.0-2.0-0.47-0.427-3.427,0,0,0,90,false,stim,false,0,1272.0,1,0,1,38966,WMM1,1384368,false,false,1427,image-keyboard-response,19
true,10,1,2,0,false,q,false,false,0.0-2.0-0.47-0.428-3.428,0,0,0,90,false,stim,true,1,1030.0,1,0,0,38966,WMM1,1386906,false,false,1430,image-keyboard-response,20
true,10,1,2,1,true,z,false,true,0.0-2.0-0.47-0.429-3.429,0,0,0,90,false,stim,false,0,851.0,1,0,2,38966,WMM1,1389261,false,false,1433,image-keyboard-response,21
true,10,2,2,0,false,q,true,true,0.0-2.0-0.47-0.430-3.430,0,0,0,68,false,stim,false,1,889.0,1,0,0,38966,WMM1,1391655,false,true,1436,image-keyboard-response,22
true,10,2,2,2,true,d,false,true,0.0-2.0-0.47-0.431-3.431,0,0,0,68,false,stim,false,0,1851.9999999997672,1,0,1,38966,WMM1,1395012,false,false,1439,image-keyboard-response,23
true,10,2,2,1,false,z,true,false,0.0-2.0-0.48-0.432-3.432,0,0,0,68,false,stim,false,0,835.0,1,0,2,38966,WMM1,1397353,false,false,1442,image-keyboard-response,24
true,10,1,2,2,false,d,true,false,0.0-2.0-0.48-0.433-3.433,0,0,0,90,false,stim,false,0,1999.0,1,0,1,38966,WMM1,1400858,false,false,1445,image-keyboard-response,25
false,10,-1,2,2,false,d,true,false,0.0-2.0-0.48-0.434-3.434,0,0,0,,false,stim,false,0,,1,0,1,38966,WMM1,1405362,false,false,1448,image-keyboard-response,26
true,10,1,2,0,false,q,false,false,0.0-2.0-0.48-0.435-3.435,0,0,0,90,false,stim,true,1,1089.0,1,0,0,38966,WMM1,1407956,false,false,1451,image-keyboard-response,27
true,10,1,2,0,false,q,false,false,0.0-2.0-0.48-0.436-3.436,0,0,0,90,false,stim,true,1,696.0,1,0,0,38966,WMM1,1410156,false,false,1454,image-keyboard-response,28
true,10,0,2,1,false,z,false,true,0.0-2.0-0.48-0.437-3.437,0,0,0,81,false,stim,true,0,1148.0,1,0,2,38966,WMM1,1412810,false,true,1457,image-keyboard-response,29
true,10,0,2,2,false,d,false,true,0.0-2.0-0.48-0.438-3.438,0,0,0,81,false,stim,true,0,702.0,1,0,1,38966,WMM1,1415020,false,true,1460,image-keyboard-response,30
true,10,0,2,1,false,z,false,false,0.0-2.0-0.48-0.439-3.439,0,0,0,81,false,stim,true,0,804.0,1,0,2,38966,WMM1,1417329,false,false,1463,image-keyboard-response,31
true,10,0,2,0,true,q,false,true,0.0-2.0-0.48-0.440-3.440,0,0,0,81,false,stim,false,1,867.0,1,0,0,38966,WMM1,1419701,false,false,1466,image-keyboard-response,32
true,10,0,2,1,false,z,false,false,0.0-2.0-0.49-0.441-3.441,0,0,0,81,false,stim,true,0,746.9999999997672,1,0,2,38966,WMM1,1421955,false,false,1469,image-keyboard-response,33
true,10,2,2,2,true,d,false,true,0.0-2.0-0.49-0.442-3.442,0,0,0,68,false,stim,false,0,1204.0,1,0,1,38966,WMM1,1424663,false,false,1472,image-keyboard-response,34
true,10,1,2,1,true,z,false,true,0.0-2.0-0.49-0.443-3.443,0,0,0,90,false,stim,false,0,1857.0,1,0,2,38966,WMM1,1428027,false,false,1475,image-keyboard-response,35
true,10,1,2,0,false,q,false,false,0.0-2.0-0.49-0.444-3.444,0,0,0,90,false,stim,true,1,1231.0,1,0,0,38966,WMM1,1430765,false,false,1478,image-keyboard-response,36
true,10,0,2,0,true,q,false,true,0.0-2.0-0.49-0.445-3.445,0,0,0,81,false,stim,false,1,707.0,1,0,0,38966,WMM1,1432977,false,false,1481,image-keyboard-response,37
true,10,0,2,2,false,d,false,false,0.0-2.0-0.49-0.446-3.446,0,0,0,81,false,stim,true,0,2630.0,1,0,1,38966,WMM1,1437114,false,false,1484,image-keyboard-response,38
true,10,1,2,0,false,q,false,false,0.0-2.0-0.49-0.447-3.447,0,0,0,90,false,stim,true,1,829.0,1,0,0,38966,WMM1,1439450,false,false,1487,image-keyboard-response,39
true,10,0,2,1,false,z,false,false,0.0-2.0-0.49-0.448-3.448,0,0,0,81,false,stim,true,0,1033.0,1,0,2,38966,WMM1,1441991,false,false,1490,image-keyboard-response,40
true,10,1,2,2,false,d,true,true,0.0-2.0-0.49-0.449-3.449,0,0,0,90,false,stim,false,0,1659.0,1,0,1,38966,WMM1,1445157,false,true,1493,image-keyboard-response,41
true,10,1,2,2,false,d,true,false,0.0-2.0-0.50-0.450-3.450,0,0,0,90,false,stim,false,0,828.0,1,0,1,38966,WMM1,1447493,false,false,1496,image-keyboard-response,42
true,10,1,2,2,false,d,true,false,0.0-2.0-0.50-0.451-3.451,0,0,0,90,false,stim,false,0,574.0,1,0,1,38966,WMM1,1449573,false,false,1499,image-keyboard-response,43
true,10,1,2,0,false,q,false,false,0.0-2.0-0.50-0.452-3.452,0,0,0,90,false,stim,true,1,869.0,1,0,0,38966,WMM1,1451953,false,false,1502,image-keyboard-response,44
true,10,1,2,1,true,z,false,true,0.0-2.0-0.50-0.453-3.453,0,0,0,90,false,stim,false,0,911.0,1,0,2,38966,WMM1,1454371,false,false,1505,image-keyboard-response,45
true,10,1,2,1,true,z,false,false,0.0-2.0-0.50-0.454-3.454,0,0,0,90,false,stim,false,0,792.0,1,0,2,38966,WMM1,1456671,false,true,1508,image-keyboard-response,46
true,10,2,2,0,false,q,true,false,0.0-2.0-0.50-0.455-3.455,0,0,0,68,false,stim,false,1,1065.0,1,0,0,38966,WMM1,1459242,false,false,1511,image-keyboard-response,47
true,10,0,2,0,true,q,false,false,0.0-2.0-0.50-0.456-3.456,0,0,0,81,false,stim,false,1,1804.0,1,0,0,38966,WMM1,1462552,false,true,1514,image-keyboard-response,48
true,10,0,2,2,false,d,false,false,0.0-2.0-0.50-0.457-3.457,0,0,0,81,false,stim,true,0,2009.0,1,0,1,38966,WMM1,1466066,false,false,1517,image-keyboard-response,49
true,10,2,2,1,false,z,true,false,0.0-2.0-0.50-0.458-3.458,0,0,0,68,false,stim,false,0,1101.9999999997672,1,0,2,38966,WMM1,1468675,false,false,1520,image-keyboard-response,50
true,10,2,2,2,true,d,false,true,0.0-2.0-0.51-0.459-3.459,0,0,0,68,false,stim,false,0,1019.0,1,0,1,38966,WMM1,1471201,false,false,1523,image-keyboard-response,51
true,10,2,2,1,false,z,true,true,0.0-2.0-0.51-0.460-3.460,0,0,0,68,false,stim,false,0,819.9999999997672,1,1,2,38966,WMM1,1473526,false,true,1526,image-keyboard-response,52
true,10,2,2,0,false,q,true,false,0.0-2.0-0.51-0.461-3.461,0,0,0,68,false,stim,false,1,683.0,1,0,0,38966,WMM1,1475714,false,false,1529,image-keyboard-response,53
true,10,2,2,1,false,z,true,false,0.0-2.0-0.51-0.462-3.462,0,0,0,68,false,stim,false,0,699.0,1,1,2,38966,WMM1,1477917,false,false,1532,image-keyboard-response,54
true,10,2,2,1,false,z,true,false,0.0-2.0-0.51-0.463-3.463,0,0,0,68,false,stim,false,0,965.0,1,1,2,38966,WMM1,1480386,false,false,1535,image-keyboard-response,55
true,10,0,2,0,true,q,false,true,0.0-2.0-0.51-0.464-3.464,0,0,0,81,false,stim,false,1,1398.0,1,0,0,38966,WMM1,1483288,false,false,1538,image-keyboard-response,56
true,10,0,2,2,false,d,false,false,0.0-2.0-0.51-0.465-3.465,0,0,0,81,false,stim,true,0,741.0,1,0,1,38966,WMM1,1485534,false,false,1541,image-keyboard-response,57
true,10,0,2,0,true,q,false,false,0.0-2.0-0.51-0.466-3.466,0,0,0,81,false,stim,false,1,1312.0000000002328,1,0,0,38966,WMM1,1488350,false,true,1544,image-keyboard-response,58
true,10,0,2,2,false,d,false,false,0.0-2.0-0.51-0.467-3.467,0,0,0,81,false,stim,true,0,976.0,1,0,1,38966,WMM1,1490830,false,false,1547,image-keyboard-response,59
true,10,0,2,0,true,q,false,true,0.0-2.0-0.52-0.468-3.468,0,0,0,81,false,stim,false,1,1009.0,1,0,0,38966,WMM1,1493347,false,false,1550,image-keyboard-response,60
true,11,0,3,2,false,d,false,false,0.0-2.0-0.52-0.469-3.469,0,0,1,81,true,stim,true,0,487.0,1,0,0,38966,WMM1,1495339,false,false,1553,image-keyboard-response,1
true,11,2,3,0,false,q,false,false,0.0-2.0-0.52-0.470-3.470,0,0,1,68,false,stim,true,2,566.0,1,0,1,38966,WMM1,1497410,false,false,1556,image-keyboard-response,2
true,11,2,3,1,false,z,true,false,0.0-2.0-0.52-0.471-3.471,0,0,1,68,false,stim,false,1,619.0,1,1,2,38966,WMM1,1499535,false,false,1559,image-keyboard-response,3
true,11,2,3,1,false,z,true,false,0.0-2.0-0.52-0.472-3.472,0,0,1,68,false,stim,false,1,499.0,1,1,2,38966,WMM1,1501537,false,false,1562,image-keyboard-response,4
true,11,1,3,1,true,z,false,true,0.0-2.0-0.52-0.473-3.473,0,0,1,90,false,stim,false,1,958.9999999997672,1,1,2,38966,WMM1,1504002,false,false,1565,image-keyboard-response,5
true,11,2,3,0,false,q,false,false,0.0-2.0-0.52-0.474-3.474,0,0,1,68,false,stim,true,2,534.0,1,0,1,38966,WMM1,1506040,false,false,1568,image-keyboard-response,6
true,11,1,3,0,false,q,true,false,0.0-2.0-0.52-0.475-3.475,0,0,1,90,false,stim,false,2,544.0,1,0,1,38966,WMM1,1508089,false,false,1571,image-keyboard-response,7
true,11,0,3,2,false,d,false,false,0.0-2.0-0.52-0.476-3.476,0,0,1,81,false,stim,true,0,1172.0,1,0,0,38966,WMM1,1510767,false,false,1574,image-keyboard-response,8
true,11,2,3,2,true,d,false,true,0.0-2.0-0.53-0.477-3.477,0,0,1,68,false,stim,false,0,890.9999999997672,1,0,0,38966,WMM1,1513165,false,false,1577,image-keyboard-response,9
true,11,2,3,0,false,q,false,false,0.0-2.0-0.53-0.478-3.478,0,0,1,68,false,stim,true,2,2083.000000000233,1,0,1,38966,WMM1,1516755,false,false,1580,image-keyboard-response,10
true,11,2,3,2,true,d,false,true,0.0-2.0-0.53-0.479-3.479,0,0,1,68,false,stim,false,0,1360.0000000002328,1,0,0,38966,WMM1,1519621,false,false,1583,image-keyboard-response,11
true,11,2,3,0,false,q,false,false,0.0-2.0-0.53-0.480-3.480,0,0,1,68,false,stim,true,2,634.0,1,0,1,38966,WMM1,1521759,false,false,1586,image-keyboard-response,12
true,11,1,3,1,true,z,false,true,0.0-2.0-0.53-0.481-3.481,0,0,1,90,false,stim,false,1,1696.0,1,1,2,38966,WMM1,1524958,false,false,1589,image-keyboard-response,13
true,11,0,3,0,true,q,false,true,0.0-2.0-0.53-0.482-3.482,0,0,1,81,false,stim,false,2,942.0,1,0,1,38966,WMM1,1527407,false,false,1592,image-keyboard-response,14
true,11,0,3,2,false,d,false,false,0.0-2.0-0.53-0.483-3.483,0,0,1,81,false,stim,true,0,2108.0,1,0,0,38966,WMM1,1531021,false,false,1595,image-keyboard-response,15
true,11,1,3,1,true,z,false,true,0.0-2.0-0.53-0.484-3.484,0,0,1,90,false,stim,false,1,1816.0,1,1,2,38966,WMM1,1534343,false,false,1598,image-keyboard-response,16
true,11,1,3,1,true,z,false,true,0.0-2.0-0.53-0.485-3.485,0,0,1,90,false,stim,false,1,556.0,1,1,2,38966,WMM1,1536411,false,false,1601,image-keyboard-response,17
true,11,2,3,0,false,q,false,true,0.0-2.0-0.54-0.486-3.486,0,0,1,68,false,stim,true,2,1068.9999999997672,1,0,1,38966,WMM1,1538987,false,true,1604,image-keyboard-response,18
true,11,1,3,2,false,d,true,false,0.0-2.0-0.54-0.487-3.487,0,0,1,90,false,stim,false,0,751.9999999997672,1,0,0,38966,WMM1,1541247,false,false,1607,image-keyboard-response,19
true,11,2,3,2,true,d,false,true,0.0-2.0-0.54-0.488-3.488,0,0,1,68,false,stim,false,0,817.0,1,0,0,38966,WMM1,1543567,false,false,1610,image-keyboard-response,20
true,11,2,3,1,false,z,true,false,0.0-2.0-0.54-0.489-3.489,0,0,1,68,false,stim,false,1,1021.0,1,1,2,38966,WMM1,1546093,false,false,1613,image-keyboard-response,21
true,11,2,3,0,false,q,false,false,0.0-2.0-0.54-0.490-3.490,0,0,1,68,false,stim,true,2,879.0,1,0,1,38966,WMM1,1548477,false,false,1616,image-keyboard-response,22
true,11,0,3,0,true,q,false,true,0.0-2.0-0.54-0.491-3.491,0,0,1,81,false,stim,false,2,1661.0,1,0,1,38966,WMM1,1551641,false,false,1619,image-keyboard-response,23
true,11,0,3,2,false,d,false,false,0.0-2.0-0.54-0.492-3.492,0,0,1,81,false,stim,true,0,1933.0,1,0,0,38966,WMM1,1555079,false,false,1622,image-keyboard-response,24
true,11,1,3,1,true,z,false,true,0.0-2.0-0.54-0.493-3.493,0,0,1,90,false,stim,false,1,1714.0,1,1,2,38966,WMM1,1558297,false,false,1625,image-keyboard-response,25
true,11,1,3,1,true,z,false,true,0.0-2.0-0.54-0.494-3.494,0,0,1,90,false,stim,false,1,1331.0,1,1,2,38966,WMM1,1561132,false,false,1628,image-keyboard-response,26
true,11,1,3,1,true,z,false,false,0.0-2.0-0.55-0.495-3.495,0,0,1,90,false,stim,false,1,706.0,1,1,2,38966,WMM1,1563341,false,true,1631,image-keyboard-response,27
false,11,-1,3,2,false,d,true,true,0.0-2.0-0.55-0.496-3.496,0,0,1,,false,stim,false,0,,1,0,0,38966,WMM1,1567846,false,true,1634,image-keyboard-response,28
true,11,0,3,0,true,q,false,true,0.0-2.0-0.55-0.497-3.497,0,0,1,81,false,stim,false,2,2175.0,1,0,1,38966,WMM1,1571528,false,false,1637,image-keyboard-response,29
true,11,1,3,1,true,z,false,true,0.0-2.0-0.55-0.498-3.498,0,0,1,90,false,stim,false,1,1280.0000000002328,1,1,2,38966,WMM1,1574312,false,false,1640,image-keyboard-response,30
true,11,1,3,2,false,d,true,false,0.0-2.0-0.55-0.499-3.499,0,0,1,90,false,stim,false,0,2204.0,1,0,0,38966,WMM1,1578020,false,false,1643,image-keyboard-response,31
true,11,0,3,0,true,q,false,true,0.0-2.0-0.55-0.500-3.500,0,0,1,81,false,stim,false,2,1924.0,1,0,1,38966,WMM1,1581450,false,false,1646,image-keyboard-response,32
true,11,0,3,0,true,q,false,true,0.0-2.0-0.55-0.501-3.501,0,0,1,81,false,stim,false,2,755.9999999997672,1,0,1,38966,WMM1,1583712,false,false,1649,image-keyboard-response,33
true,11,2,3,2,true,d,false,false,0.0-2.0-0.55-0.502-3.502,0,0,1,68,false,stim,false,0,1501.0,1,0,0,38966,WMM1,1586718,false,true,1652,image-keyboard-response,34
false,11,-1,3,1,false,z,true,false,0.0-2.0-0.55-0.503-3.503,0,0,1,,false,stim,false,1,,1,1,2,38966,WMM1,1591223,false,false,1655,image-keyboard-response,35
true,11,0,3,0,true,q,false,false,0.0-2.0-0.56-0.504-3.504,0,0,1,81,false,stim,false,2,1533.0,1,0,1,38966,WMM1,1594262,false,true,1658,image-keyboard-response,36
true,11,2,3,0,false,q,false,false,0.0-2.0-0.56-0.505-3.505,0,0,1,68,false,stim,true,2,502.0,1,0,1,38966,WMM1,1596269,false,false,1661,image-keyboard-response,37
true,11,2,3,2,true,d,false,true,0.0-2.0-0.56-0.506-3.506,0,0,1,68,false,stim,false,0,1406.0,1,0,0,38966,WMM1,1599182,false,false,1664,image-keyboard-response,38
true,11,1,3,1,true,z,false,true,0.0-2.0-0.56-0.507-3.507,0,0,1,90,false,stim,false,1,1051.0,1,1,2,38966,WMM1,1601740,false,false,1667,image-keyboard-response,39
true,11,2,3,2,true,d,false,false,0.0-2.0-0.56-0.508-3.508,0,0,1,68,false,stim,false,0,1684.0,1,0,0,38966,WMM1,1604931,false,true,1670,image-keyboard-response,40
true,11,2,3,2,true,d,false,false,0.0-2.0-0.56-0.509-3.509,0,0,1,68,false,stim,false,0,568.0,1,0,0,38966,WMM1,1607005,false,true,1673,image-keyboard-response,41
true,11,0,3,0,true,q,false,false,0.0-2.0-0.56-0.510-3.510,0,0,1,81,false,stim,false,2,1765.0,1,0,1,38966,WMM1,1610277,false,true,1676,image-keyboard-response,42
true,11,1,3,1,true,z,false,true,0.0-2.0-0.56-0.511-3.511,0,0,1,90,false,stim,false,1,1234.0,1,1,2,38966,WMM1,1613018,false,false,1679,image-keyboard-response,43
true,11,1,3,1,true,z,false,true,0.0-2.0-0.56-0.512-3.512,0,0,1,90,false,stim,false,1,1311.9999999997672,1,1,2,38966,WMM1,1615835,false,false,1682,image-keyboard-response,44
true,11,1,3,1,true,z,false,true,0.0-2.0-0.57-0.513-3.513,0,0,1,90,false,stim,false,1,552.0,1,1,2,38966,WMM1,1617896,false,false,1685,image-keyboard-response,45
true,11,1,3,0,false,q,true,true,0.0-2.0-0.57-0.514-3.514,0,0,1,90,false,stim,false,2,1950.0,1,0,1,38966,WMM1,1621353,false,true,1688,image-keyboard-response,46
true,11,1,3,0,false,q,true,false,0.0-2.0-0.57-0.515-3.515,0,0,1,90,false,stim,false,2,450.99999999976717,1,0,1,38966,WMM1,1623310,false,false,1691,image-keyboard-response,47
true,11,1,3,1,true,z,false,true,0.0-2.0-0.57-0.516-3.516,0,0,1,90,false,stim,false,1,705.0,1,1,2,38966,WMM1,1625520,false,false,1694,image-keyboard-response,48
true,11,1,3,0,false,q,true,false,0.0-2.0-0.57-0.517-3.517,0,0,1,90,false,stim,false,2,460.0,1,0,1,38966,WMM1,1627489,false,false,1697,image-keyboard-response,49
true,11,1,3,1,true,z,false,true,0.0-2.0-0.57-0.518-3.518,0,0,1,90,false,stim,false,1,924.9999999997672,1,1,2,38966,WMM1,1629919,false,false,1700,image-keyboard-response,50
true,11,0,3,2,false,d,false,false,0.0-2.0-0.57-0.519-3.519,0,0,1,81,false,stim,true,0,2095.0,1,1,0,38966,WMM1,1633527,false,false,1703,image-keyboard-response,51
true,11,2,3,2,true,d,false,true,0.0-2.0-0.57-0.520-3.520,0,0,1,68,false,stim,false,0,563.0,1,1,0,38966,WMM1,1635594,false,false,1706,image-keyboard-response,52
true,11,2,3,2,true,d,false,true,0.0-2.0-0.57-0.521-3.521,0,0,1,68,false,stim,false,0,480.0,1,1,0,38966,WMM1,1637579,false,false,1709,image-keyboard-response,53
true,11,1,3,1,true,z,false,true,0.0-2.0-0.58-0.522-3.522,0,0,1,90,false,stim,false,1,1688.0,1,0,2,38966,WMM1,1640772,false,false,1712,image-keyboard-response,54
true,11,2,3,2,true,d,false,true,0.0-2.0-0.58-0.523-3.523,0,0,1,68,false,stim,false,0,875.0,1,1,0,38966,WMM1,1643152,false,false,1715,image-keyboard-response,55
true,11,1,3,0,false,q,true,false,0.0-2.0-0.58-0.524-3.524,0,0,1,90,false,stim,false,2,1901.0000000002328,1,0,1,38966,WMM1,1646561,false,false,1718,image-keyboard-response,56
true,11,0,3,0,true,q,false,true,0.0-2.0-0.58-0.525-3.525,0,0,1,81,false,stim,false,2,1615.0,1,0,1,38966,WMM1,1649680,false,false,1721,image-keyboard-response,57
true,11,2,3,2,true,d,false,true,0.0-2.0-0.58-0.526-3.526,0,0,1,68,false,stim,false,0,1616.0,1,1,0,38966,WMM1,1652801,false,false,1724,image-keyboard-response,58
true,11,0,3,0,true,q,false,true,0.0-2.0-0.58-0.527-3.527,0,0,1,81,false,stim,false,2,1380.0,1,0,1,38966,WMM1,1655687,false,false,1727,image-keyboard-response,59
true,11,1,3,1,true,z,false,true,0.0-2.0-0.58-0.528-3.528,0,0,1,90,false,stim,false,1,1271.0,1,0,2,38966,WMM1,1658462,false,false,1730,image-keyboard-response,60
true,12,2,3,2,true,d,false,true,0.0-2.0-0.58-0.529-3.529,1,0,0,68,true,stim,false,2,1266.0000000002328,1,1,0,38966,WMM1,1661234,false,false,1733,image-keyboard-response,1
true,12,1,3,0,false,q,false,false,0.0-2.0-0.58-0.530-3.530,1,0,0,90,false,stim,true,1,758.0,1,0,2,38966,WMM1,1663498,false,false,1736,image-keyboard-response,2
true,12,0,3,1,false,z,false,false,0.0-2.0-0.59-0.531-3.531,1,0,0,81,false,stim,true,0,1446.9999999997672,1,0,1,38966,WMM1,1666450,false,false,1739,image-keyboard-response,3
true,12,2,3,2,true,d,false,true,0.0-2.0-0.59-0.532-3.532,1,0,0,68,false,stim,false,2,1856.0,1,1,0,38966,WMM1,1669810,false,false,1742,image-keyboard-response,4
true,12,1,3,0,false,q,false,false,0.0-2.0-0.59-0.533-3.533,1,0,0,90,false,stim,true,1,1440.0,1,0,2,38966,WMM1,1672756,false,false,1745,image-keyboard-response,5
true,12,2,3,0,false,q,true,false,0.0-2.0-0.59-0.534-3.534,1,0,0,68,false,stim,false,1,1364.0,1,0,2,38966,WMM1,1675625,false,false,1748,image-keyboard-response,6
true,12,2,3,1,false,z,true,true,0.0-2.0-0.59-0.535-3.535,1,0,0,68,false,stim,false,0,1624.0,1,0,1,38966,WMM1,1678755,false,true,1751,image-keyboard-response,7
true,12,2,3,0,false,q,true,false,0.0-2.0-0.59-0.536-3.536,1,0,0,68,false,stim,false,1,2342.0,1,0,2,38966,WMM1,1682602,false,false,1754,image-keyboard-response,8
true,12,2,3,2,true,d,false,true,0.0-2.0-0.59-0.537-3.537,1,0,0,68,false,stim,false,2,1358.0000000002328,1,1,0,38966,WMM1,1685465,false,false,1757,image-keyboard-response,9
true,12,2,3,2,true,d,false,false,0.0-2.0-0.59-0.538-3.538,1,0,0,68,false,stim,false,2,1040.0,1,1,0,38966,WMM1,1688011,false,true,1760,image-keyboard-response,10
true,12,0,3,1,false,z,false,false,0.0-2.0-0.59-0.539-3.539,1,0,0,81,false,stim,true,0,1560.0,1,0,1,38966,WMM1,1691077,false,false,1763,image-keyboard-response,11
true,12,2,3,0,false,q,true,false,0.0-2.0-0.60-0.540-3.540,1,0,0,68,false,stim,false,1,1383.0,1,0,2,38966,WMM1,1693967,false,false,1766,image-keyboard-response,12
true,12,2,3,2,true,d,false,true,0.0-2.0-0.60-0.541-3.541,1,0,0,68,false,stim,false,2,827.0000000002328,1,1,0,38966,WMM1,1696301,false,false,1769,image-keyboard-response,13
true,12,2,3,2,true,d,false,true,0.0-2.0-0.60-0.542-3.542,1,0,0,68,false,stim,false,2,676.0000000002328,1,1,0,38966,WMM1,1698484,false,false,1772,image-keyboard-response,14
true,12,1,3,0,false,q,false,false,0.0-2.0-0.60-0.543-3.543,1,0,0,90,false,stim,true,1,1468.0,1,0,2,38966,WMM1,1701458,false,false,1775,image-keyboard-response,15
false,12,-1,3,0,false,q,true,true,0.0-2.0-0.60-0.544-3.544,1,0,0,,false,stim,false,1,,1,0,2,38966,WMM1,1705965,false,true,1778,image-keyboard-response,16
true,12,1,3,2,false,d,true,true,0.0-2.0-0.60-0.545-3.545,1,0,0,90,false,stim,false,2,962.0,1,1,0,38966,WMM1,1708432,false,true,1781,image-keyboard-response,17
true,12,2,3,1,false,z,true,false,0.0-2.0-0.60-0.546-3.546,1,0,0,68,false,stim,false,0,1182.0,1,0,1,38966,WMM1,1711121,false,false,1784,image-keyboard-response,18
true,12,0,3,1,false,z,false,false,0.0-2.0-0.60-0.547-3.547,1,0,0,81,false,stim,true,0,747.9999999997672,1,0,1,38966,WMM1,1713376,false,false,1787,image-keyboard-response,19
true,12,1,3,1,true,z,false,true,0.0-2.0-0.60-0.548-3.548,1,0,0,90,false,stim,false,0,1451.0,1,0,1,38966,WMM1,1716334,false,false,1790,image-keyboard-response,20
true,12,1,3,1,true,z,false,true,0.0-2.0-0.61-0.549-3.549,1,0,0,90,false,stim,false,0,1406.0,1,0,1,38966,WMM1,1719248,false,false,1793,image-keyboard-response,21
true,12,0,3,2,false,d,true,false,0.0-2.0-0.61-0.550-3.550,1,0,0,81,false,stim,false,2,1490.0,1,1,0,38966,WMM1,1722245,false,false,1796,image-keyboard-response,22
true,12,1,3,1,true,z,false,true,0.0-2.0-0.61-0.551-3.551,1,0,0,90,false,stim,false,0,1386.0000000002328,1,0,1,38966,WMM1,1725137,false,false,1799,image-keyboard-response,23
true,12,2,3,0,false,q,true,false,0.0-2.0-0.61-0.552-3.552,1,0,0,68,false,stim,false,1,2355.0,1,0,2,38966,WMM1,1729003,false,false,1802,image-keyboard-response,24
true,12,1,3,2,false,d,true,false,0.0-2.0-0.61-0.553-3.553,1,0,0,90,false,stim,false,2,1688.0000000002328,1,1,0,38966,WMM1,1732195,false,false,1805,image-keyboard-response,25
true,12,0,3,0,true,q,false,true,0.0-2.0-0.61-0.554-3.554,1,0,0,81,false,stim,false,1,990.0,1,0,2,38966,WMM1,1734690,false,false,1808,image-keyboard-response,26
true,12,0,3,1,false,z,false,false,0.0-2.0-0.61-0.555-3.555,1,0,0,81,false,stim,true,0,2974.999999999767,1,0,1,38966,WMM1,1739170,false,false,1811,image-keyboard-response,27
true,12,2,3,2,true,d,false,true,0.0-2.0-0.61-0.556-3.556,1,0,0,68,false,stim,false,2,1048.0,1,1,0,38966,WMM1,1741724,false,false,1814,image-keyboard-response,28
true,12,2,3,0,false,q,true,true,0.0-2.0-0.61-0.557-3.557,1,0,0,68,false,stim,false,1,1716.0000000002328,1,0,2,38966,WMM1,1744945,false,true,1817,image-keyboard-response,29
true,12,1,3,1,true,z,false,true,0.0-2.0-0.62-0.558-3.558,1,0,0,90,false,stim,false,0,1044.0,1,0,1,38966,WMM1,1747494,false,false,1820,image-keyboard-response,30
true,12,2,3,0,false,q,true,false,0.0-2.0-0.62-0.559-3.559,1,0,0,68,false,stim,false,1,2735.0,1,0,2,38966,WMM1,1751736,false,false,1823,image-keyboard-response,31
true,12,1,3,2,false,d,true,false,0.0-2.0-0.62-0.560-3.560,1,0,0,90,false,stim,false,2,1319.0000000002328,1,1,0,38966,WMM1,1754560,false,false,1826,image-keyboard-response,32
true,12,2,3,0,false,q,true,false,0.0-2.0-0.62-0.561-3.561,1,0,0,68,false,stim,false,1,1024.0000000002328,1,0,2,38966,WMM1,1757089,false,false,1829,image-keyboard-response,33
true,12,1,3,1,true,z,false,true,0.0-2.0-0.62-0.562-3.562,1,0,0,90,false,stim,false,0,1265.0,1,0,1,38966,WMM1,1759859,false,false,1832,image-keyboard-response,34
true,12,0,3,2,false,d,true,false,0.0-2.0-0.62-0.563-3.563,1,0,0,81,false,stim,false,2,2190.0,1,1,0,38966,WMM1,1763554,false,false,1835,image-keyboard-response,35
true,12,2,3,2,true,d,false,true,0.0-2.0-0.62-0.564-3.564,1,0,0,68,false,stim,false,2,2588.000000000233,1,1,0,38966,WMM1,1767647,false,false,1838,image-keyboard-response,36
true,12,1,3,1,true,z,false,false,0.0-2.0-0.62-0.565-3.565,1,0,0,90,false,stim,false,0,2613.0,1,0,1,38966,WMM1,1771768,false,true,1841,image-keyboard-response,37
false,12,-1,3,0,false,q,true,false,0.0-2.0-0.62-0.566-3.566,1,0,0,,false,stim,false,1,,1,0,2,38966,WMM1,1776275,false,false,1844,image-keyboard-response,38
true,12,0,3,1,false,z,false,false,0.0-2.0-0.63-0.567-3.567,1,0,0,81,false,stim,true,0,724.9999999997672,1,0,1,38966,WMM1,1778507,false,false,1847,image-keyboard-response,39
true,12,2,3,2,true,d,false,true,0.0-2.0-0.63-0.568-3.568,1,0,0,68,false,stim,false,2,1943.0,1,1,0,38966,WMM1,1781955,false,false,1850,image-keyboard-response,40
true,12,0,3,0,true,q,false,true,0.0-2.0-0.63-0.569-3.569,1,0,0,81,false,stim,false,1,1598.0000000002328,1,0,2,38966,WMM1,1785060,false,false,1853,image-keyboard-response,41
true,12,1,3,1,true,z,false,true,0.0-2.0-0.63-0.570-3.570,1,0,0,90,false,stim,false,0,1029.0,1,0,1,38966,WMM1,1787596,false,false,1856,image-keyboard-response,42
true,12,2,3,0,false,q,true,false,0.0-2.0-0.63-0.571-3.571,1,0,0,68,false,stim,false,1,1584.0,1,0,2,38966,WMM1,1790688,false,false,1859,image-keyboard-response,43
true,12,2,3,2,true,d,false,false,0.0-2.0-0.63-0.572-3.572,1,0,0,68,false,stim,false,2,1681.0,1,1,0,38966,WMM1,1793871,false,true,1862,image-keyboard-response,44
true,12,0,3,0,true,q,false,true,0.0-2.0-0.63-0.573-3.573,1,0,0,81,false,stim,false,1,1731.0,1,0,2,38966,WMM1,1797106,false,false,1865,image-keyboard-response,45
true,12,1,3,2,false,d,true,false,0.0-2.0-0.63-0.574-3.574,1,0,0,90,false,stim,false,2,2064.000000000233,1,1,0,38966,WMM1,1800676,false,false,1868,image-keyboard-response,46
true,12,1,3,1,true,z,false,false,0.0-2.0-0.63-0.575-3.575,1,0,0,90,false,stim,false,0,1534.0000000002328,1,0,1,38966,WMM1,1803714,false,true,1871,image-keyboard-response,47
true,12,2,3,2,true,d,false,true,0.0-2.0-0.64-0.576-3.576,1,0,0,68,false,stim,false,2,1696.0,1,1,0,38966,WMM1,1806915,false,false,1874,image-keyboard-response,48
true,12,1,3,1,true,z,false,true,0.0-2.0-0.64-0.577-3.577,1,0,0,90,false,stim,false,0,1286.0,1,0,1,38966,WMM1,1809706,false,false,1877,image-keyboard-response,49
true,12,0,3,0,true,q,false,true,0.0-2.0-0.64-0.578-3.578,1,0,0,81,false,stim,false,1,966.0,1,0,2,38966,WMM1,1812177,false,false,1880,image-keyboard-response,50
true,12,1,3,1,true,z,false,true,0.0-2.0-0.64-0.579-3.579,1,0,0,90,false,stim,false,0,913.0,1,0,1,38966,WMM1,1814596,false,false,1883,image-keyboard-response,51
true,12,2,3,2,true,d,false,true,0.0-2.0-0.64-0.580-3.580,1,0,0,68,false,stim,false,2,1803.0,1,0,0,38966,WMM1,1817907,false,false,1886,image-keyboard-response,52
true,12,2,3,0,false,q,true,false,0.0-2.0-0.64-0.581-3.581,1,0,0,68,false,stim,false,1,2034.0,1,0,2,38966,WMM1,1821446,false,false,1889,image-keyboard-response,53
true,12,2,3,2,true,d,false,true,0.0-2.0-0.64-0.582-3.582,1,0,0,68,false,stim,false,2,1623.0,1,0,0,38966,WMM1,1824574,false,false,1892,image-keyboard-response,54
true,12,1,3,1,true,z,false,true,0.0-2.0-0.64-0.583-3.583,1,0,0,90,false,stim,false,0,1406.9999999997672,1,0,1,38966,WMM1,1827486,false,false,1895,image-keyboard-response,55
true,12,0,3,0,true,q,false,true,0.0-2.0-0.64-0.584-3.584,1,0,0,81,false,stim,false,1,1291.0,1,0,2,38966,WMM1,1830282,false,false,1898,image-keyboard-response,56
true,12,0,3,0,true,q,false,true,0.0-2.0-0.65-0.585-3.585,1,0,0,81,false,stim,false,1,464.0,1,0,2,38966,WMM1,1832256,false,false,1901,image-keyboard-response,57
true,12,0,3,2,false,d,true,false,0.0-2.0-0.65-0.586-3.586,1,0,0,81,false,stim,false,2,2302.0,1,0,0,38966,WMM1,1836061,false,false,1904,image-keyboard-response,58
true,12,1,3,1,true,z,false,true,0.0-2.0-0.65-0.587-3.587,1,0,0,90,false,stim,false,0,894.0,1,0,1,38966,WMM1,1838460,false,false,1907,image-keyboard-response,59
true,12,0,3,0,true,q,false,true,0.0-2.0-0.65-0.588-3.588,1,0,0,81,false,stim,false,1,1721.9999999997672,1,0,2,38966,WMM1,1841686,false,false,1910,image-keyboard-response,60
true,13,0,2,1,false,z,false,false,0.0-2.0-0.65-0.589-3.589,0,0,0,81,true,stim,true,0,1683.0,1,0,2,38966,WMM1,1844875,false,false,1913,image-keyboard-response,1
true,13,2,2,0,false,q,false,false,0.0-2.0-0.65-0.590-3.590,0,0,0,68,false,stim,true,2,2006.0,1,0,0,38966,WMM1,1848386,false,false,1916,image-keyboard-response,2
true,13,1,2,2,false,d,false,false,0.0-2.0-0.65-0.591-3.591,0,0,0,90,false,stim,true,1,1002.0,1,0,1,38966,WMM1,1850894,false,false,1919,image-keyboard-response,3
true,13,1,2,2,false,d,false,false,0.0-2.0-0.65-0.592-3.592,0,0,0,90,false,stim,true,1,1139.0,1,0,1,38966,WMM1,1853536,false,false,1922,image-keyboard-response,4
true,13,2,2,0,false,q,false,false,0.0-2.0-0.65-0.593-3.593,0,0,0,68,false,stim,true,2,1387.9999999997672,1,0,0,38966,WMM1,1856428,false,false,1925,image-keyboard-response,5
true,13,0,2,2,false,d,true,true,0.0-2.0-0.66-0.594-3.594,0,0,0,81,false,stim,false,1,1497.0,1,0,1,38966,WMM1,1859432,false,true,1928,image-keyboard-response,6
true,13,0,2,1,false,z,false,false,0.0-2.0-0.66-0.595-3.595,0,0,0,81,false,stim,true,0,895.0,1,0,2,38966,WMM1,1861832,false,false,1931,image-keyboard-response,7
true,13,0,2,0,true,q,false,true,0.0-2.0-0.66-0.596-3.596,0,0,0,81,false,stim,false,2,1323.0,1,0,0,38966,WMM1,1864662,false,false,1934,image-keyboard-response,8
true,13,0,2,0,true,q,false,true,0.0-2.0-0.66-0.597-3.597,0,0,0,81,false,stim,false,2,947.0,1,0,0,38966,WMM1,1867113,false,false,1937,image-keyboard-response,9
true,13,0,2,2,false,d,true,false,0.0-2.0-0.66-0.598-3.598,0,0,0,81,false,stim,false,1,1392.9999999997672,1,0,1,38966,WMM1,1870010,false,false,1940,image-keyboard-response,10
true,13,0,2,2,false,d,true,false,0.0-2.0-0.66-0.599-3.599,0,0,0,81,false,stim,false,1,1308.0,1,0,1,38966,WMM1,1872822,false,false,1943,image-keyboard-response,11
true,13,0,2,0,true,q,false,true,0.0-2.0-0.66-0.600-3.600,0,0,0,81,false,stim,false,2,1200.0,1,0,0,38966,WMM1,1875528,false,false,1946,image-keyboard-response,12
true,13,0,2,1,false,z,false,false,0.0-2.0-0.66-0.601-3.601,0,0,0,81,false,stim,true,0,889.0,1,0,2,38966,WMM1,1877921,false,false,1949,image-keyboard-response,13
true,13,1,2,1,true,z,false,true,0.0-2.0-0.66-0.602-3.602,0,0,0,90,false,stim,false,0,799.9999999997672,1,0,2,38966,WMM1,1880225,false,false,1952,image-keyboard-response,14
true,13,0,2,0,true,q,false,false,0.0-2.0-0.67-0.603-3.603,0,0,0,81,false,stim,false,2,1460.0,1,0,0,38966,WMM1,1883190,false,true,1955,image-keyboard-response,15
true,13,2,2,2,true,d,false,true,0.0-2.0-0.67-0.604-3.604,0,0,0,68,false,stim,false,1,1181.0000000002328,1,0,1,38966,WMM1,1885876,false,false,1958,image-keyboard-response,16
true,13,0,2,0,true,q,false,false,0.0-2.0-0.67-0.605-3.605,0,0,0,81,false,stim,false,2,1276.0,1,0,0,38966,WMM1,1888657,false,true,1961,image-keyboard-response,17
true,13,0,2,0,true,q,false,true,0.0-2.0-0.67-0.606-3.606,0,0,0,81,false,stim,false,2,924.0,1,0,0,38966,WMM1,1891084,false,false,1964,image-keyboard-response,18
true,13,2,2,2,true,d,false,true,0.0-2.0-0.67-0.607-3.607,0,0,0,68,false,stim,false,1,2136.999999999767,1,0,1,38966,WMM1,1894725,false,false,1967,image-keyboard-response,19
true,13,2,2,2,true,d,false,true,0.0-2.0-0.67-0.608-3.608,0,0,0,68,false,stim,false,1,522.0000000002328,1,0,1,38966,WMM1,1896751,false,false,1970,image-keyboard-response,20
true,13,1,2,1,true,z,false,true,0.0-2.0-0.67-0.609-3.609,0,0,0,90,false,stim,false,0,1303.0,1,0,2,38966,WMM1,1899561,false,false,1973,image-keyboard-response,21
true,13,1,2,1,true,z,false,true,0.0-2.0-0.67-0.610-3.610,0,0,0,90,false,stim,false,0,1971.0,1,1,2,38966,WMM1,1903037,false,false,1976,image-keyboard-response,22
false,13,-1,2,1,false,z,true,false,0.0-2.0-0.67-0.611-3.611,0,0,0,,false,stim,false,0,,1,1,2,38966,WMM1,1907542,false,false,1979,image-keyboard-response,23
true,13,0,2,0,true,q,false,false,0.0-2.0-0.68-0.612-3.612,0,0,0,81,false,stim,false,2,1199.0,1,1,0,38966,WMM1,1910247,false,true,1982,image-keyboard-response,24
false,13,-1,2,2,false,d,true,false,0.0-2.0-0.68-0.613-3.613,0,0,0,,false,stim,false,1,,1,1,1,38966,WMM1,1914751,false,false,1985,image-keyboard-response,25
true,13,2,2,1,false,z,true,false,0.0-2.0-0.68-0.614-3.614,0,0,0,68,false,stim,false,0,2375.0,1,1,2,38966,WMM1,1918631,false,false,1988,image-keyboard-response,26
true,13,1,2,2,false,d,false,false,0.0-2.0-0.68-0.615-3.615,0,0,0,90,false,stim,true,1,1672.0000000002328,1,1,1,38966,WMM1,1921809,false,false,1991,image-keyboard-response,27
true,13,0,2,0,true,q,false,true,0.0-2.0-0.68-0.616-3.616,0,0,0,81,false,stim,false,2,1744.0,1,1,0,38966,WMM1,1925056,false,false,1994,image-keyboard-response,28
true,13,2,2,2,true,d,false,true,0.0-2.0-0.68-0.617-3.617,0,0,0,68,false,stim,false,1,1330.0,1,1,1,38966,WMM1,1927890,false,false,1997,image-keyboard-response,29
true,13,2,2,1,false,z,true,true,0.0-2.0-0.68-0.618-3.618,0,0,0,68,false,stim,false,0,1791.9999999997672,1,1,2,38966,WMM1,1931187,false,true,2000,image-keyboard-response,30
