answered,blockNum,choice,condition,corResp,correct,correct_response,explo,fb,internal_node_id,isStable_1,isStable_2,isStable_3,key_press,newBlock,part,persev,persevResp,rt,sessNum,stableAS,stimulus,subject,task,time_elapsed,training,trap,trial_index,trial_type,trialsInBlock
true,1,0,0,2,false,d,true,false,0.0-2.0-0.0-0.0-3.0,0,0,0,81,true,stim,false,-1,983.0,3,0,0,41387,WMM1,104725,false,false,106,image-keyboard-response,1
true,1,0,0,1,false,z,true,false,0.0-2.0-0.0-0.1-3.1,0,0,0,81,false,stim,false,-1,809.1999999880791,3,0,2,41387,WMM1,107062,false,false,109,image-keyboard-response,2
true,1,1,0,1,true,z,false,true,0.0-2.0-0.0-0.2-3.2,0,0,0,90,false,stim,false,-1,982.1000000238419,3,0,2,41387,WMM1,109551,false,false,112,image-keyboard-response,3
true,1,1,0,0,false,q,true,false,0.0-2.0-0.0-0.3-3.3,0,0,0,90,false,stim,false,-1,1166.5999999642372,3,0,1,41387,WMM1,112229,false,false,115,image-keyboard-response,4
true,1,1,0,2,false,d,true,false,0.0-2.0-0.0-0.4-3.4,0,0,0,90,false,stim,false,-1,981.0,3,0,0,41387,WMM1,114726,false,false,118,image-keyboard-response,5
true,1,1,0,1,true,z,false,true,0.0-2.0-0.0-0.5-3.5,0,0,0,90,false,stim,false,-1,758.0,3,0,2,41387,WMM1,117000,false,false,121,image-keyboard-response,6
true,1,2,0,2,true,d,false,true,0.0-2.0-0.0-0.6-3.6,0,0,0,68,false,stim,false,-1,1288.800000011921,3,0,0,41387,WMM1,119797,false,false,124,image-keyboard-response,7
true,1,2,0,0,false,q,true,false,0.0-2.0-0.0-0.7-3.7,0,0,0,68,false,stim,false,-1,419.60000002384186,3,0,1,41387,WMM1,121736,false,false,127,image-keyboard-response,8
true,1,2,0,0,false,q,true,false,0.0-2.0-0.0-0.8-3.8,0,0,0,68,false,stim,false,-1,564.3000000119209,3,0,1,41387,WMM1,123821,false,false,130,image-keyboard-response,9
true,1,2,0,0,false,q,true,false,0.0-2.0-0.1-0.9-3.9,0,0,0,68,false,stim,false,-1,949.7000000476837,3,0,1,41387,WMM1,126289,false,false,133,image-keyboard-response,10
true,1,1,0,1,true,z,false,true,0.0-2.0-0.1-0.10-3.10,0,0,0,90,false,stim,false,-1,656.4000000357628,3,0,2,41387,WMM1,128465,false,false,136,image-keyboard-response,11
true,1,0,0,2,false,d,true,true,0.0-2.0-0.1-0.11-3.11,0,0,0,81,false,stim,false,-1,521.8000000119209,3,0,0,41387,WMM1,130510,false,true,139,image-keyboard-response,12
true,1,0,0,0,true,q,false,true,0.0-2.0-0.1-0.12-3.12,0,0,0,81,false,stim,false,-1,462.30000001192093,3,0,1,41387,WMM1,132502,false,false,142,image-keyboard-response,13
true,1,0,0,0,true,q,false,true,0.0-2.0-0.1-0.13-3.13,0,0,0,81,false,stim,false,-1,524.3000000119209,3,0,1,41387,WMM1,134549,false,false,145,image-keyboard-response,14
true,1,1,0,1,true,z,false,true,0.0-2.0-0.1-0.14-3.14,0,0,0,90,false,stim,false,-1,1167.8999999761581,3,0,2,41387,WMM1,137229,false,false,148,image-keyboard-response,15
true,1,0,0,2,false,d,true,false,0.0-2.0-0.1-0.15-3.15,0,0,0,81,false,stim,false,-1,866.1000000238419,3,0,0,41387,WMM1,139611,false,false,151,image-keyboard-response,16
true,1,1,0,1,true,z,false,false,0.0-2.0-0.1-0.16-3.16,0,0,0,90,false,stim,false,-1,494.19999998807907,3,0,2,41387,WMM1,141633,false,true,154,image-keyboard-response,17
true,1,0,0,2,false,d,true,false,0.0-2.0-0.1-0.17-3.17,0,0,0,81,false,stim,false,-1,995.0,3,0,0,41387,WMM1,144144,false,false,157,image-keyboard-response,18
true,1,0,0,0,true,q,false,true,0.0-2.0-0.2-0.18-3.18,0,0,0,81,false,stim,false,-1,1046.199999988079,3,0,1,41387,WMM1,146706,false,false,160,image-keyboard-response,19
true,1,0,0,2,false,d,true,false,0.0-2.0-0.2-0.19-3.19,0,0,0,81,false,stim,false,-1,1169.0,3,0,0,41387,WMM1,149394,false,false,163,image-keyboard-response,20
true,1,2,0,0,false,q,true,false,0.0-2.0-0.2-0.20-3.20,0,0,0,68,false,stim,false,-1,923.6999999880791,3,0,1,41387,WMM1,151839,false,false,166,image-keyboard-response,21
true,1,0,0,2,false,d,true,false,0.0-2.0-0.2-0.21-3.21,0,0,0,81,false,stim,false,-1,921.5999999642372,3,0,0,41387,WMM1,154278,false,false,169,image-keyboard-response,22
true,1,0,0,0,true,q,false,true,0.0-2.0-0.2-0.22-3.22,0,0,0,81,false,stim,false,-1,1177.9000000357628,3,0,1,41387,WMM1,156980,false,false,172,image-keyboard-response,23
true,1,1,0,1,true,z,false,true,0.0-2.0-0.2-0.23-3.23,0,0,0,90,false,stim,false,-1,590.3999999761581,3,0,2,41387,WMM1,159081,false,false,175,image-keyboard-response,24
true,1,0,0,2,false,d,true,false,0.0-2.0-0.2-0.24-3.24,0,0,0,81,false,stim,false,-1,815.1999999880791,3,0,0,41387,WMM1,161407,false,false,178,image-keyboard-response,25
true,1,1,0,1,true,z,false,false,0.0-2.0-0.2-0.25-3.25,0,0,0,90,false,stim,false,-1,550.9000000357628,3,0,2,41387,WMM1,163473,false,true,181,image-keyboard-response,26
true,1,1,0,1,true,z,false,true,0.0-2.0-0.2-0.26-3.26,0,0,0,90,false,stim,false,-1,660.5,3,0,2,41387,WMM1,165650,false,false,184,image-keyboard-response,27
true,1,0,0,2,false,d,true,false,0.0-2.0-0.3-0.27-3.27,0,0,0,81,false,stim,false,-1,1662.699999988079,3,0,0,41387,WMM1,168822,false,false,187,image-keyboard-response,28
true,1,1,0,1,true,z,false,true,0.0-2.0-0.3-0.28-3.28,0,0,0,90,false,stim,false,-1,436.19999998807907,3,0,2,41387,WMM1,170776,false,false,190,image-keyboard-response,29
true,1,2,0,2,true,d,false,true,0.0-2.0-0.3-0.29-3.29,0,0,0,68,false,stim,false,-1,504.30000001192093,3,0,0,41387,WMM1,172811,false,false,193,image-keyboard-response,30
true,1,2,0,0,false,q,true,false,0.0-2.0-0.3-0.30-3.30,0,0,0,68,false,stim,false,-1,537.6000000238419,3,0,1,41387,WMM1,174875,false,false,196,image-keyboard-response,31
true,1,0,0,0,true,q,false,true,0.0-2.0-0.3-0.31-3.31,0,0,0,81,false,stim,false,-1,962.3000000119209,3,0,1,41387,WMM1,177360,false,false,199,image-keyboard-response,32
true,1,1,0,1,true,z,false,true,0.0-2.0-0.3-0.32-3.32,0,0,0,90,false,stim,false,-1,485.10000002384186,3,0,2,41387,WMM1,179362,false,false,202,image-keyboard-response,33
true,1,0,0,0,true,q,false,true,0.0-2.0-0.3-0.33-3.33,0,0,0,81,false,stim,false,-1,428.69999998807907,3,0,1,41387,WMM1,181301,false,false,205,image-keyboard-response,34
true,1,2,0,2,true,d,false,true,0.0-2.0-0.3-0.34-3.34,0,0,0,68,false,stim,false,-1,532.3999999761581,3,0,0,41387,WMM1,183355,false,false,208,image-keyboard-response,35
true,1,1,0,1,true,z,false,true,0.0-2.0-0.3-0.35-3.35,0,0,0,90,false,stim,false,-1,614.3000000119209,3,0,2,41387,WMM1,185484,false,false,211,image-keyboard-response,36
true,1,1,0,1,true,z,false,true,0.0-2.0-0.4-0.36-3.36,0,0,0,90,false,stim,false,-1,364.0,3,0,2,41387,WMM1,187369,false,false,214,image-keyboard-response,37
true,1,2,0,2,true,d,false,true,0.0-2.0-0.4-0.37-3.37,0,0,0,68,false,stim,false,-1,1107.199999988079,3,0,0,41387,WMM1,189987,false,false,217,image-keyboard-response,38
true,1,1,0,1,true,z,false,true,0.0-2.0-0.4-0.38-3.38,0,0,0,90,false,stim,false,-1,787.0,3,0,2,41387,WMM1,192297,false,false,220,image-keyboard-response,39
true,1,2,0,0,false,q,true,false,0.0-2.0-0.4-0.39-3.39,0,0,0,68,false,stim,false,-1,894.1000000238419,3,0,1,41387,WMM1,194713,false,false,223,image-keyboard-response,40
true,1,1,0,0,false,q,true,true,0.0-2.0-0.4-0.40-3.40,0,0,0,90,false,stim,false,-1,723.9000000357628,3,0,1,41387,WMM1,196956,false,true,226,image-keyboard-response,41
true,1,1,0,0,false,q,true,true,0.0-2.0-0.4-0.41-3.41,0,0,0,90,false,stim,false,-1,389.89999997615814,3,0,1,41387,WMM1,198865,false,true,229,image-keyboard-response,42
true,1,1,0,1,true,z,false,true,0.0-2.0-0.4-0.42-3.42,0,0,0,90,false,stim,false,-1,385.0,3,0,2,41387,WMM1,200774,false,false,232,image-keyboard-response,43
true,1,2,0,2,true,d,false,true,0.0-2.0-0.4-0.43-3.43,0,0,0,68,false,stim,false,-1,1153.0999999642372,3,0,0,41387,WMM1,203443,false,false,235,image-keyboard-response,44
true,1,2,0,2,true,d,false,true,0.0-2.0-0.4-0.44-3.44,0,0,0,68,false,stim,false,-1,374.0,3,0,0,41387,WMM1,205335,false,false,238,image-keyboard-response,45
true,2,1,1,1,true,z,false,true,0.0-2.0-0.5-0.45-3.45,0,0,0,90,true,stim,false,0,626.3000000119209,3,0,1,41387,WMM1,207478,false,false,241,image-keyboard-response,1
true,2,1,1,0,false,q,false,false,0.0-2.0-0.5-0.46-3.46,0,0,0,90,false,stim,true,1,467.5,3,0,2,41387,WMM1,209462,false,false,244,image-keyboard-response,2
true,2,2,1,0,false,q,false,false,0.0-2.0-0.5-0.47-3.47,0,0,0,68,false,stim,true,2,921.7000000476837,3,0,0,41387,WMM1,211916,false,false,247,image-keyboard-response,3
true,2,2,1,0,false,q,false,false,0.0-2.0-0.5-0.48-3.48,0,0,0,68,false,stim,true,2,585.0,3,0,0,41387,WMM1,214024,false,false,250,image-keyboard-response,4
true,2,2,1,0,false,q,false,true,0.0-2.0-0.5-0.49-3.49,0,0,0,68,false,stim,true,2,451.60000002384186,3,0,0,41387,WMM1,215991,false,true,253,image-keyboard-response,5
true,2,1,1,1,true,z,false,true,0.0-2.0-0.5-0.50-3.50,0,0,0,90,false,stim,false,0,937.8000000119209,3,0,1,41387,WMM1,218442,false,false,256,image-keyboard-response,6
true,2,1,1,0,false,q,false,false,0.0-2.0-0.5-0.51-3.51,0,0,0,90,false,stim,true,1,374.5,3,0,2,41387,WMM1,220329,false,false,259,image-keyboard-response,7
true,2,1,1,0,false,q,false,false,0.0-2.0-0.5-0.52-3.52,0,0,0,90,false,stim,true,1,454.80000001192093,3,0,2,41387,WMM1,222296,false,false,262,image-keyboard-response,8
true,2,1,1,1,true,z,false,true,0.0-2.0-0.5-0.53-3.53,0,0,0,90,false,stim,false,0,700.8000000119209,3,0,1,41387,WMM1,224515,false,false,265,image-keyboard-response,9
true,2,1,1,0,false,q,false,false,0.0-2.0-0.6-0.54-3.54,0,0,0,90,false,stim,true,1,569.3000000119209,3,0,2,41387,WMM1,226610,false,false,268,image-keyboard-response,10
true,2,1,1,1,true,z,false,true,0.0-2.0-0.6-0.55-3.55,0,0,0,90,false,stim,false,0,531.1999999880791,3,0,1,41387,WMM1,228653,false,false,271,image-keyboard-response,11
true,2,1,1,0,false,q,false,true,0.0-2.0-0.6-0.56-3.56,0,0,0,90,false,stim,true,1,468.5,3,0,2,41387,WMM1,230644,false,true,274,image-keyboard-response,12
true,2,1,1,1,true,z,false,true,0.0-2.0-0.6-0.57-3.57,0,0,0,90,false,stim,false,0,380.89999997615814,3,0,1,41387,WMM1,232542,false,false,277,image-keyboard-response,13
true,2,1,1,0,false,q,false,false,0.0-2.0-0.6-0.58-3.58,0,0,0,90,false,stim,true,1,455.19999998807907,3,0,2,41387,WMM1,234517,false,false,280,image-keyboard-response,14
true,2,2,1,0,false,q,false,false,0.0-2.0-0.6-0.59-3.59,0,0,0,68,false,stim,true,2,633.6999999880791,3,0,0,41387,WMM1,236671,false,false,283,image-keyboard-response,15
true,2,0,1,0,true,q,false,true,0.0-2.0-0.6-0.60-3.60,0,0,0,81,false,stim,false,2,565.9000000357628,3,0,0,41387,WMM1,238746,false,false,286,image-keyboard-response,16
true,2,0,1,0,true,q,false,true,0.0-2.0-0.6-0.61-3.61,0,0,0,81,false,stim,false,2,532.1000000238419,3,0,0,41387,WMM1,240801,false,false,289,image-keyboard-response,17
true,2,1,1,1,true,z,false,true,0.0-2.0-0.6-0.62-3.62,0,0,0,90,false,stim,false,0,799.2999999523163,3,0,1,41387,WMM1,243115,false,false,292,image-keyboard-response,18
true,2,1,1,1,true,z,false,true,0.0-2.0-0.7-0.63-3.63,0,0,0,90,false,stim,false,0,598.2999999523163,3,0,1,41387,WMM1,245232,false,false,295,image-keyboard-response,19
true,2,1,1,0,false,q,false,false,0.0-2.0-0.7-0.64-3.64,0,0,0,90,false,stim,true,1,2773.199999988079,3,0,2,41387,WMM1,249519,false,false,298,image-keyboard-response,20
true,2,1,1,0,false,q,false,false,0.0-2.0-0.7-0.65-3.65,0,0,0,90,false,stim,true,1,702.1999999880791,3,0,2,41387,WMM1,251747,false,false,301,image-keyboard-response,21
true,2,0,1,0,true,q,false,true,0.0-2.0-0.7-0.66-3.66,0,0,0,81,false,stim,false,2,785.6000000238419,3,0,0,41387,WMM1,254046,false,false,304,image-keyboard-response,22
true,2,0,1,0,true,q,false,true,0.0-2.0-0.7-0.67-3.67,0,0,0,81,false,stim,false,2,466.39999997615814,3,0,0,41387,WMM1,256030,false,false,307,image-keyboard-response,23
true,2,0,1,1,false,z,false,false,0.0-2.0-0.7-0.68-3.68,0,0,0,81,false,stim,true,0,1114.0,3,0,1,41387,WMM1,258664,false,false,310,image-keyboard-response,24
true,2,1,1,0,false,q,false,false,0.0-2.0-0.7-0.69-3.69,0,0,0,90,false,stim,true,1,415.9000000357628,3,0,2,41387,WMM1,260600,false,false,313,image-keyboard-response,25
true,2,1,1,0,false,q,true,false,0.0-2.0-0.7-0.70-3.70,0,0,0,90,false,stim,false,2,913.3999999761581,3,0,0,41387,WMM1,263028,false,false,316,image-keyboard-response,26
true,2,1,1,1,true,z,false,true,0.0-2.0-0.7-0.71-3.71,0,0,0,90,false,stim,false,0,351.60000002384186,3,0,1,41387,WMM1,264888,false,false,319,image-keyboard-response,27
true,2,1,1,0,false,q,false,false,0.0-2.0-0.8-0.72-3.72,0,0,0,90,false,stim,true,1,563.5999999642372,3,0,2,41387,WMM1,266958,false,false,322,image-keyboard-response,28
true,2,0,1,1,false,z,false,false,0.0-2.0-0.8-0.73-3.73,0,0,0,81,false,stim,true,0,799.6999999880791,3,0,1,41387,WMM1,269275,false,false,325,image-keyboard-response,29
true,2,2,1,0,false,q,true,false,0.0-2.0-0.8-0.74-3.74,0,0,0,68,false,stim,false,1,644.5999999642372,3,0,2,41387,WMM1,271441,false,false,328,image-keyboard-response,30
true,2,1,1,1,true,z,false,true,0.0-2.0-0.8-0.75-3.75,0,0,0,90,false,stim,false,0,1333.699999988079,3,0,1,41387,WMM1,274298,false,false,331,image-keyboard-response,31
true,2,1,1,1,true,z,false,true,0.0-2.0-0.8-0.76-3.76,0,0,0,90,false,stim,false,0,445.7999999523163,3,0,1,41387,WMM1,276253,false,false,334,image-keyboard-response,32
true,2,0,1,0,true,q,false,true,0.0-2.0-0.8-0.77-3.77,0,0,0,81,false,stim,false,2,621.7000000476837,3,0,0,41387,WMM1,278390,false,false,337,image-keyboard-response,33
true,2,0,1,0,true,q,false,true,0.0-2.0-0.8-0.78-3.78,0,0,0,81,false,stim,false,2,539.9000000357628,3,0,0,41387,WMM1,280455,false,false,340,image-keyboard-response,34
true,2,0,1,0,true,q,false,true,0.0-2.0-0.8-0.79-3.79,0,0,0,81,false,stim,false,2,493.30000001192093,3,0,0,41387,WMM1,282460,false,false,343,image-keyboard-response,35
true,2,2,1,0,false,q,true,false,0.0-2.0-0.8-0.80-3.80,0,0,0,68,false,stim,false,1,945.0999999642372,3,0,2,41387,WMM1,284925,false,false,346,image-keyboard-response,36
true,2,0,1,0,true,q,false,true,0.0-2.0-0.9-0.81-3.81,0,0,0,81,false,stim,false,2,1037.5999999642372,3,0,0,41387,WMM1,287485,false,false,349,image-keyboard-response,37
true,2,0,1,0,true,q,false,true,0.0-2.0-0.9-0.82-3.82,0,0,0,81,false,stim,false,2,506.19999998807907,3,0,0,41387,WMM1,289518,false,false,352,image-keyboard-response,38
true,2,1,1,1,true,z,false,false,0.0-2.0-0.9-0.83-3.83,0,0,0,90,false,stim,false,0,654.8999999761581,3,0,1,41387,WMM1,291694,false,true,355,image-keyboard-response,39
true,2,1,1,0,false,q,false,false,0.0-2.0-0.9-0.84-3.84,0,0,0,90,false,stim,true,1,778.8000000119209,3,0,2,41387,WMM1,293998,false,false,358,image-keyboard-response,40
true,2,0,1,1,false,z,false,false,0.0-2.0-0.9-0.85-3.85,0,0,0,81,false,stim,true,0,531.2000000476837,3,0,1,41387,WMM1,296035,false,false,361,image-keyboard-response,41
true,2,0,1,1,false,z,false,false,0.0-2.0-0.9-0.86-3.86,0,0,0,81,false,stim,true,0,2309.100000023842,3,0,1,41387,WMM1,299858,false,false,364,image-keyboard-response,42
true,2,0,1,0,true,q,false,true,0.0-2.0-0.9-0.87-3.87,0,0,0,81,false,stim,false,1,463.69999998807907,3,0,2,41387,WMM1,301847,false,false,367,image-keyboard-response,43
true,2,0,1,0,true,q,false,true,0.0-2.0-0.9-0.88-3.88,0,0,0,81,false,stim,false,1,399.89999997615814,3,0,2,41387,WMM1,303756,false,false,370,image-keyboard-response,44
true,2,0,1,0,true,q,false,true,0.0-2.0-0.9-0.89-3.89,0,0,0,81,false,stim,false,2,512.4000000357628,3,0,0,41387,WMM1,305784,false,false,373,image-keyboard-response,45
true,2,0,1,0,true,q,false,true,0.0-2.0-0.10-0.90-3.90,0,0,0,81,false,stim,false,1,658.0,3,0,2,41387,WMM1,307962,false,false,376,image-keyboard-response,46
true,2,0,1,0,true,q,false,true,0.0-2.0-0.10-0.91-3.91,0,0,0,81,false,stim,false,1,370.0,3,0,2,41387,WMM1,309854,false,false,379,image-keyboard-response,47
true,2,0,1,0,true,q,false,true,0.0-2.0-0.10-0.92-3.92,0,0,0,81,false,stim,false,2,365.30000001192093,3,0,0,41387,WMM1,311730,false,false,382,image-keyboard-response,48
true,2,0,1,0,true,q,false,true,0.0-2.0-0.10-0.93-3.93,0,0,0,81,false,stim,false,1,391.60000002384186,3,0,2,41387,WMM1,313655,false,false,385,image-keyboard-response,49
true,2,0,1,1,false,z,false,false,0.0-2.0-0.10-0.94-3.94,0,0,0,81,false,stim,true,0,963.6999999880791,3,0,1,41387,WMM1,316141,false,false,388,image-keyboard-response,50
true,2,1,1,1,true,z,false,true,0.0-2.0-0.10-0.95-3.95,0,0,0,90,false,stim,false,0,930.0999999642372,3,0,1,41387,WMM1,318588,false,false,391,image-keyboard-response,51
true,2,1,1,1,true,z,false,true,0.0-2.0-0.10-0.96-3.96,0,0,0,90,false,stim,false,0,380.0,3,0,1,41387,WMM1,320488,false,false,394,image-keyboard-response,52
true,2,0,1,0,true,q,false,true,0.0-2.0-0.10-0.97-3.97,0,0,0,81,false,stim,false,2,519.1999999880791,3,1,0,41387,WMM1,322550,false,false,397,image-keyboard-response,53
true,2,0,1,0,true,q,false,false,0.0-2.0-0.10-0.98-3.98,0,0,0,81,false,stim,false,2,371.4000000357628,3,1,0,41387,WMM1,324441,false,true,400,image-keyboard-response,54
true,2,1,1,1,true,z,false,true,0.0-2.0-0.11-0.99-3.99,0,0,0,90,false,stim,false,0,935.5,3,0,1,41387,WMM1,326896,false,false,403,image-keyboard-response,55
true,2,0,1,0,true,q,false,true,0.0-2.0-0.11-0.100-3.100,0,0,0,81,false,stim,false,1,646.4000000357628,3,0,2,41387,WMM1,329054,false,false,406,image-keyboard-response,56
true,2,0,1,0,true,q,false,true,0.0-2.0-0.11-0.101-3.101,0,0,0,81,false,stim,false,2,449.19999998807907,3,1,0,41387,WMM1,331009,false,false,409,image-keyboard-response,57
true,2,0,1,0,true,q,false,true,0.0-2.0-0.11-0.102-3.102,0,0,0,81,false,stim,false,2,416.19999998807907,3,1,0,41387,WMM1,332948,false,false,412,image-keyboard-response,58
true,2,0,1,1,false,z,false,false,0.0-2.0-0.11-0.103-3.103,0,0,0,81,false,stim,true,0,1566.5,3,0,1,41387,WMM1,336037,false,false,415,image-keyboard-response,59
true,2,0,1,0,true,q,false,true,0.0-2.0-0.11-0.104-3.104,0,0,0,81,false,stim,false,1,872.0999999642372,3,0,2,41387,WMM1,338421,false,false,418,image-keyboard-response,60
true,3,1,3,2,false,d,false,false,0.0-2.0-0.11-0.105-3.105,1,0,0,90,true,stim,true,1,620.3000000119209,3,0,1,41387,WMM1,340555,false,false,421,image-keyboard-response,1
true,3,0,3,1,false,z,false,false,0.0-2.0-0.11-0.106-3.106,1,0,0,81,false,stim,true,0,588.8000000119209,3,0,2,41387,WMM1,342668,false,false,424,image-keyboard-response,2
true,3,0,3,0,true,q,false,true,0.0-2.0-0.11-0.107-3.107,1,0,0,81,false,stim,false,0,562.3000000119209,3,1,0,41387,WMM1,344742,false,false,427,image-keyboard-response,3
true,3,0,3,0,true,q,false,true,0.0-2.0-0.12-0.108-3.108,1,0,0,81,false,stim,false,0,440.5999999642372,3,1,0,41387,WMM1,346704,false,false,430,image-keyboard-response,4
true,3,1,3,2,false,d,false,false,0.0-2.0-0.12-0.109-3.109,1,0,0,90,false,stim,true,1,797.1999999880791,3,0,1,41387,WMM1,349033,false,false,433,image-keyboard-response,5
true,3,2,3,1,false,z,true,false,0.0-2.0-0.12-0.110-3.110,1,0,0,68,false,stim,false,0,948.1999999880791,3,0,2,41387,WMM1,351500,false,false,436,image-keyboard-response,6
true,3,1,3,1,true,z,false,true,0.0-2.0-0.12-0.111-3.111,1,0,0,90,false,stim,false,0,798.3000000119209,3,0,2,41387,WMM1,353821,false,false,439,image-keyboard-response,7
true,3,0,3,0,true,q,false,false,0.0-2.0-0.12-0.112-3.112,1,0,0,81,false,stim,false,0,698.0,3,1,0,41387,WMM1,356032,false,true,442,image-keyboard-response,8
true,3,0,3,0,true,q,false,true,0.0-2.0-0.12-0.113-3.113,1,0,0,81,false,stim,false,0,899.6000000238419,3,1,0,41387,WMM1,358443,false,false,445,image-keyboard-response,9
true,3,0,3,2,false,d,true,false,0.0-2.0-0.12-0.114-3.114,1,0,0,81,false,stim,false,1,1659.699999988079,3,0,1,41387,WMM1,361637,false,false,448,image-keyboard-response,10
true,3,1,3,2,false,d,false,false,0.0-2.0-0.12-0.115-3.115,1,0,0,90,false,stim,true,1,386.5,3,0,1,41387,WMM1,363541,false,false,451,image-keyboard-response,11
true,3,1,3,1,true,z,false,true,0.0-2.0-0.12-0.116-3.116,1,0,0,90,false,stim,false,0,1591.699999988079,3,0,2,41387,WMM1,366647,false,false,454,image-keyboard-response,12
true,3,1,3,1,true,z,false,true,0.0-2.0-0.13-0.117-3.117,1,0,0,90,false,stim,false,0,692.0999999642372,3,0,2,41387,WMM1,368865,false,false,457,image-keyboard-response,13
true,3,2,3,2,true,d,false,true,0.0-2.0-0.13-0.118-3.118,1,0,0,68,false,stim,false,1,584.6000000238419,3,0,1,41387,WMM1,370960,false,false,460,image-keyboard-response,14
true,3,0,3,0,true,q,false,true,0.0-2.0-0.13-0.119-3.119,1,0,0,81,false,stim,false,0,632.2999999523163,3,1,0,41387,WMM1,373111,false,false,463,image-keyboard-response,15
true,3,0,3,0,true,q,false,true,0.0-2.0-0.13-0.120-3.120,1,0,0,81,false,stim,false,0,466.80000001192093,3,1,0,41387,WMM1,375104,false,false,466,image-keyboard-response,16
true,3,2,3,2,true,d,false,true,0.0-2.0-0.13-0.121-3.121,1,0,0,68,false,stim,false,1,1353.1000000238419,3,0,1,41387,WMM1,377967,false,false,469,image-keyboard-response,17
true,3,2,3,2,true,d,false,true,0.0-2.0-0.13-0.122-3.122,1,0,0,68,false,stim,false,1,634.8999999761581,3,0,1,41387,WMM1,380129,false,false,472,image-keyboard-response,18
true,3,1,3,0,false,q,true,false,0.0-2.0-0.13-0.123-3.123,1,0,0,90,false,stim,false,0,802.5,3,1,0,41387,WMM1,382462,false,false,475,image-keyboard-response,19
true,3,0,3,1,false,z,false,false,0.0-2.0-0.13-0.124-3.124,1,0,0,81,false,stim,true,0,1009.4000000357628,3,0,2,41387,WMM1,384991,false,false,478,image-keyboard-response,20
true,3,1,3,1,true,z,false,false,0.0-2.0-0.13-0.125-3.125,1,0,0,90,false,stim,false,0,666.5999999642372,3,0,2,41387,WMM1,387171,false,true,481,image-keyboard-response,21
true,3,2,3,1,false,z,true,false,0.0-2.0-0.14-0.126-3.126,1,0,0,68,false,stim,false,0,460.19999998807907,3,0,2,41387,WMM1,389136,false,false,484,image-keyboard-response,22
true,3,2,3,2,true,d,false,true,0.0-2.0-0.14-0.127-3.127,1,0,0,68,false,stim,false,1,1903.3999999761581,3,0,1,41387,WMM1,392577,false,false,487,image-keyboard-response,23
true,3,2,3,2,true,d,false,true,0.0-2.0-0.14-0.128-3.128,1,0,0,68,false,stim,false,1,375.30000001192093,3,0,1,41387,WMM1,394477,false,false,490,image-keyboard-response,24
true,3,0,3,1,false,z,false,false,0.0-2.0-0.14-0.129-3.129,1,0,0,81,false,stim,true,0,1054.300000011921,3,0,2,41387,WMM1,397064,false,false,493,image-keyboard-response,25
true,3,0,3,1,false,z,false,false,0.0-2.0-0.14-0.130-3.130,1,0,0,81,false,stim,true,0,1086.6000000238419,3,0,2,41387,WMM1,399675,false,false,496,image-keyboard-response,26
true,3,2,3,2,true,d,false,true,0.0-2.0-0.14-0.131-3.131,1,0,0,68,false,stim,false,1,627.6000000238419,3,0,1,41387,WMM1,401813,false,false,499,image-keyboard-response,27
true,3,1,3,0,false,q,true,false,0.0-2.0-0.14-0.132-3.132,1,0,0,90,false,stim,false,0,1251.1000000238419,3,1,0,41387,WMM1,404591,false,false,502,image-keyboard-response,28
true,3,0,3,0,true,q,false,true,0.0-2.0-0.14-0.133-3.133,1,0,0,81,false,stim,false,0,456.10000002384186,3,1,0,41387,WMM1,406572,false,false,505,image-keyboard-response,29
true,3,0,3,0,true,q,false,true,0.0-2.0-0.14-0.134-3.134,1,0,0,81,false,stim,false,0,358.39999997615814,3,1,0,41387,WMM1,408455,false,false,508,image-keyboard-response,30
true,3,2,3,2,true,d,false,true,0.0-2.0-0.15-0.135-3.135,1,0,0,68,false,stim,false,1,720.0,3,0,1,41387,WMM1,410698,false,false,511,image-keyboard-response,31
true,3,0,3,0,true,q,false,true,0.0-2.0-0.15-0.136-3.136,1,0,0,81,false,stim,false,0,681.6999999880791,3,1,0,41387,WMM1,412897,false,false,514,image-keyboard-response,32
true,3,2,3,2,true,d,false,true,0.0-2.0-0.15-0.137-3.137,1,0,0,68,false,stim,false,1,563.6999999880791,3,0,1,41387,WMM1,414986,false,false,517,image-keyboard-response,33
true,3,1,3,1,true,z,false,true,0.0-2.0-0.15-0.138-3.138,1,0,0,90,false,stim,false,0,637.7000000476837,3,0,2,41387,WMM1,417150,false,false,520,image-keyboard-response,34
true,3,1,3,1,true,z,false,true,0.0-2.0-0.15-0.139-3.139,1,0,0,90,false,stim,false,0,404.80000001192093,3,0,2,41387,WMM1,419063,false,false,523,image-keyboard-response,35
true,3,2,3,2,true,d,false,true,0.0-2.0-0.15-0.140-3.140,1,0,0,68,false,stim,false,1,630.1000000238419,3,0,1,41387,WMM1,421216,false,false,526,image-keyboard-response,36
true,3,0,3,0,true,q,false,true,0.0-2.0-0.15-0.141-3.141,1,0,0,81,false,stim,false,0,531.1999999880791,3,0,0,41387,WMM1,423263,false,false,529,image-keyboard-response,37
true,3,0,3,0,true,q,false,true,0.0-2.0-0.15-0.142-3.142,1,0,0,81,false,stim,false,0,553.3000000119209,3,0,0,41387,WMM1,425322,false,false,532,image-keyboard-response,38
true,3,1,3,1,true,z,false,true,0.0-2.0-0.15-0.143-3.143,1,0,0,90,false,stim,false,0,474.19999998807907,3,0,2,41387,WMM1,427322,false,false,535,image-keyboard-response,39
true,3,0,3,0,true,q,false,true,0.0-2.0-0.16-0.144-3.144,1,0,0,81,false,stim,false,0,742.5,3,0,0,41387,WMM1,429587,false,false,538,image-keyboard-response,40
true,3,0,3,0,true,q,false,true,0.0-2.0-0.16-0.145-3.145,1,0,0,81,false,stim,false,0,480.0,3,0,0,41387,WMM1,431593,false,false,541,image-keyboard-response,41
true,3,2,3,2,true,d,false,true,0.0-2.0-0.16-0.146-3.146,1,0,0,68,false,stim,false,1,588.0,3,0,1,41387,WMM1,433701,false,false,544,image-keyboard-response,42
true,3,2,3,2,true,d,false,true,0.0-2.0-0.16-0.147-3.147,1,0,0,68,false,stim,false,1,525.5,3,0,1,41387,WMM1,435744,false,false,547,image-keyboard-response,43
true,3,1,3,1,true,z,false,true,0.0-2.0-0.16-0.148-3.148,1,0,0,90,false,stim,false,0,608.6000000238419,3,0,2,41387,WMM1,437877,false,false,550,image-keyboard-response,44
true,3,1,3,1,true,z,false,true,0.0-2.0-0.16-0.149-3.149,1,0,0,90,false,stim,false,0,484.5,3,0,2,41387,WMM1,439884,false,false,553,image-keyboard-response,45
true,4,1,1,2,false,d,false,false,0.0-2.0-0.16-0.150-3.150,0,0,0,90,true,stim,true,1,444.2999999523163,3,0,2,41387,WMM1,441842,false,false,556,image-keyboard-response,1
true,4,0,1,1,false,z,false,false,0.0-2.0-0.16-0.151-3.151,0,0,0,81,false,stim,true,0,640.5,3,0,0,41387,WMM1,443995,false,false,559,image-keyboard-response,2
true,4,2,1,0,false,q,false,false,0.0-2.0-0.16-0.152-3.152,0,0,0,68,false,stim,true,2,629.6000000238419,3,0,1,41387,WMM1,446156,false,false,562,image-keyboard-response,3
true,4,2,1,0,false,q,false,false,0.0-2.0-0.17-0.153-3.153,0,0,0,68,false,stim,true,2,551.6000000238419,3,0,1,41387,WMM1,448224,false,false,565,image-keyboard-response,4
true,4,1,1,2,false,d,false,true,0.0-2.0-0.17-0.154-3.154,0,0,0,90,false,stim,true,1,494.60000002384186,3,0,2,41387,WMM1,450232,false,true,568,image-keyboard-response,5
true,4,0,1,1,false,z,false,false,0.0-2.0-0.17-0.155-3.155,0,0,0,81,false,stim,true,0,453.80000001192093,3,0,0,41387,WMM1,452208,false,false,571,image-keyboard-response,6
true,4,0,1,1,false,z,false,false,0.0-2.0-0.17-0.156-3.156,0,0,0,81,false,stim,true,0,496.89999997615814,3,0,0,41387,WMM1,454234,false,false,574,image-keyboard-response,7
true,4,2,1,0,false,q,false,false,0.0-2.0-0.17-0.157-3.157,0,0,0,68,false,stim,true,2,685.9000000357628,3,0,1,41387,WMM1,456431,false,false,577,image-keyboard-response,8
true,4,1,1,2,false,d,false,false,0.0-2.0-0.17-0.158-3.158,0,0,0,90,false,stim,true,1,564.8000000119209,3,0,2,41387,WMM1,458508,false,false,580,image-keyboard-response,9
true,4,0,1,1,false,z,false,false,0.0-2.0-0.17-0.159-3.159,0,0,0,81,false,stim,true,0,539.1999999880791,3,0,0,41387,WMM1,460575,false,false,583,image-keyboard-response,10
true,4,1,1,2,false,d,false,false,0.0-2.0-0.17-0.160-3.160,0,0,0,90,false,stim,true,1,834.1999999880791,3,0,2,41387,WMM1,462935,false,false,586,image-keyboard-response,11
true,4,2,1,0,false,q,false,false,0.0-2.0-0.17-0.161-3.161,0,0,0,68,false,stim,true,2,626.5,3,0,1,41387,WMM1,465074,false,false,589,image-keyboard-response,12
true,4,1,1,2,false,d,false,false,0.0-2.0-0.18-0.162-3.162,0,0,0,90,false,stim,true,1,551.5,3,0,2,41387,WMM1,467151,false,false,592,image-keyboard-response,13
true,4,1,1,2,false,d,false,false,0.0-2.0-0.18-0.163-3.163,0,0,0,90,false,stim,true,1,464.80000001192093,3,0,2,41387,WMM1,469146,false,false,595,image-keyboard-response,14
true,4,0,1,1,false,z,false,false,0.0-2.0-0.18-0.164-3.164,0,0,0,81,false,stim,true,0,434.80000001192093,3,0,0,41387,WMM1,471099,false,false,598,image-keyboard-response,15
true,4,2,1,0,false,q,false,false,0.0-2.0-0.18-0.165-3.165,0,0,0,68,false,stim,true,2,680.6000000238419,3,0,1,41387,WMM1,473297,false,false,601,image-keyboard-response,16
true,4,0,1,2,false,d,true,false,0.0-2.0-0.18-0.166-3.166,0,0,0,81,false,stim,false,1,475.89999997615814,3,0,2,41387,WMM1,475287,false,false,604,image-keyboard-response,17
true,4,0,1,0,true,q,false,true,0.0-2.0-0.18-0.167-3.167,0,0,0,81,false,stim,false,2,381.4000000357628,3,0,1,41387,WMM1,477200,false,false,607,image-keyboard-response,18
true,4,0,1,1,false,z,false,false,0.0-2.0-0.18-0.168-3.168,0,0,0,81,false,stim,true,0,447.5,3,0,0,41387,WMM1,479165,false,false,610,image-keyboard-response,19
true,4,0,1,0,true,q,false,true,0.0-2.0-0.18-0.169-3.169,0,0,0,81,false,stim,false,2,533.5999999642372,3,0,1,41387,WMM1,481223,false,false,613,image-keyboard-response,20
true,4,1,1,1,true,z,false,true,0.0-2.0-0.18-0.170-3.170,0,0,0,90,false,stim,false,0,629.3000000119209,3,0,0,41387,WMM1,483383,false,false,616,image-keyboard-response,21
true,4,0,1,0,true,q,false,false,0.0-2.0-0.19-0.171-3.171,0,0,0,81,false,stim,false,2,758.5,3,0,1,41387,WMM1,485669,false,true,619,image-keyboard-response,22
true,4,0,1,0,true,q,false,true,0.0-2.0-0.19-0.172-3.172,0,0,0,81,false,stim,false,2,597.0999999642372,3,0,1,41387,WMM1,487794,false,false,622,image-keyboard-response,23
true,4,1,1,2,false,d,false,false,0.0-2.0-0.19-0.173-3.173,0,0,0,90,false,stim,true,1,971.1000000238419,3,0,2,41387,WMM1,490284,false,false,625,image-keyboard-response,24
true,4,1,1,1,true,z,false,true,0.0-2.0-0.19-0.174-3.174,0,0,0,90,false,stim,false,0,487.39999997615814,3,0,0,41387,WMM1,492291,false,false,628,image-keyboard-response,25
true,4,2,1,2,true,d,false,false,0.0-2.0-0.19-0.175-3.175,0,0,0,68,false,stim,false,1,853.8999999761581,3,0,2,41387,WMM1,494673,false,true,631,image-keyboard-response,26
true,4,1,1,1,true,z,false,true,0.0-2.0-0.19-0.176-3.176,0,0,0,90,false,stim,false,0,613.9000000357628,3,0,0,41387,WMM1,496804,false,false,634,image-keyboard-response,27
true,4,1,1,1,true,z,false,true,0.0-2.0-0.19-0.177-3.177,0,0,0,90,false,stim,false,0,460.4000000357628,3,0,0,41387,WMM1,498790,false,false,637,image-keyboard-response,28
true,4,0,1,2,false,d,true,false,0.0-2.0-0.19-0.178-3.178,0,0,0,81,false,stim,false,1,793.0,3,0,2,41387,WMM1,501113,false,false,640,image-keyboard-response,29
true,4,0,1,0,true,q,false,false,0.0-2.0-0.19-0.179-3.179,0,0,0,81,false,stim,false,2,1385.8999999761581,3,0,1,41387,WMM1,504030,false,true,643,image-keyboard-response,30
true,4,1,1,1,true,z,false,true,0.0-2.0-0.20-0.180-3.180,0,0,0,90,false,stim,false,0,472.5,3,0,0,41387,WMM1,506018,false,false,646,image-keyboard-response,31
true,4,1,1,2,false,d,false,false,0.0-2.0-0.20-0.181-3.181,0,0,0,90,false,stim,true,1,526.5,3,0,2,41387,WMM1,508065,false,false,649,image-keyboard-response,32
true,4,0,1,2,false,d,true,false,0.0-2.0-0.20-0.182-3.182,0,0,0,81,false,stim,false,1,1051.199999988079,3,0,2,41387,WMM1,510642,false,false,652,image-keyboard-response,33
true,4,0,1,0,true,q,false,true,0.0-2.0-0.20-0.183-3.183,0,0,0,81,false,stim,false,2,1297.2000000476837,3,0,1,41387,WMM1,513448,false,false,655,image-keyboard-response,34
true,4,1,1,1,true,z,false,true,0.0-2.0-0.20-0.184-3.184,0,0,0,90,false,stim,false,0,516.3999999761581,3,0,0,41387,WMM1,515482,false,false,658,image-keyboard-response,35
true,4,1,1,1,true,z,false,true,0.0-2.0-0.20-0.185-3.185,0,0,0,90,false,stim,false,0,389.80000001192093,3,0,0,41387,WMM1,517390,false,false,661,image-keyboard-response,36
true,4,0,1,0,true,q,false,true,0.0-2.0-0.20-0.186-3.186,0,0,0,81,false,stim,false,2,605.3999999761581,3,0,1,41387,WMM1,519519,false,false,664,image-keyboard-response,37
true,4,2,1,2,true,d,false,true,0.0-2.0-0.20-0.187-3.187,0,0,0,68,false,stim,false,1,1096.199999988079,3,0,2,41387,WMM1,522123,false,false,667,image-keyboard-response,38
true,4,0,1,0,true,q,false,false,0.0-2.0-0.20-0.188-3.188,0,0,0,81,false,stim,false,2,964.4000000357628,3,0,1,41387,WMM1,524613,false,true,670,image-keyboard-response,39
true,4,1,1,1,true,z,false,true,0.0-2.0-0.21-0.189-3.189,0,0,0,90,false,stim,false,0,412.89999997615814,3,0,0,41387,WMM1,526543,false,false,673,image-keyboard-response,40
true,4,2,1,2,true,d,false,true,0.0-2.0-0.21-0.190-3.190,0,0,0,68,false,stim,false,1,527.1999999880791,3,0,2,41387,WMM1,528581,false,false,676,image-keyboard-response,41
true,4,0,1,0,true,q,false,true,0.0-2.0-0.21-0.191-3.191,0,0,0,81,false,stim,false,2,761.6999999880791,3,0,1,41387,WMM1,530867,false,false,679,image-keyboard-response,42
true,4,2,1,2,true,d,false,true,0.0-2.0-0.21-0.192-3.192,0,0,0,68,false,stim,false,1,687.1000000238419,3,0,2,41387,WMM1,533087,false,false,682,image-keyboard-response,43
true,4,0,1,0,true,q,false,true,0.0-2.0-0.21-0.193-3.193,0,0,0,81,false,stim,false,2,750.5,3,0,1,41387,WMM1,535348,false,false,685,image-keyboard-response,44
true,4,1,1,1,true,z,false,true,0.0-2.0-0.21-0.194-3.194,0,0,0,90,false,stim,false,0,401.10000002384186,3,0,0,41387,WMM1,537272,false,false,688,image-keyboard-response,45
true,4,2,1,2,true,d,false,false,0.0-2.0-0.21-0.195-3.195,0,0,0,68,false,stim,false,1,396.5999999642372,3,0,2,41387,WMM1,539185,false,true,691,image-keyboard-response,46
true,4,1,1,1,true,z,false,true,0.0-2.0-0.21-0.196-3.196,0,0,0,90,false,stim,false,0,1115.4000000357628,3,0,0,41387,WMM1,541816,false,false,694,image-keyboard-response,47
true,4,0,1,0,true,q,false,true,0.0-2.0-0.21-0.197-3.197,0,0,0,81,false,stim,false,2,443.0,3,0,1,41387,WMM1,543782,false,false,697,image-keyboard-response,48
true,4,1,1,1,true,z,false,true,0.0-2.0-0.22-0.198-3.198,0,0,0,90,false,stim,false,0,536.8000000119209,3,0,0,41387,WMM1,545847,false,false,700,image-keyboard-response,49
true,4,2,1,2,true,d,false,true,0.0-2.0-0.22-0.199-3.199,0,0,0,68,false,stim,false,1,779.7000000476837,3,0,2,41387,WMM1,548154,false,false,703,image-keyboard-response,50
true,4,2,1,2,true,d,false,true,0.0-2.0-0.22-0.200-3.200,0,0,0,68,false,stim,false,1,480.80000001192093,3,0,2,41387,WMM1,550145,false,false,706,image-keyboard-response,51
true,5,0,2,2,false,d,false,false,0.0-2.0-0.22-0.201-3.201,0,0,0,81,true,stim,true,0,972.8999999761581,3,0,1,41387,WMM1,552650,false,false,709,image-keyboard-response,1
true,5,2,2,1,false,z,false,false,0.0-2.0-0.22-0.202-3.202,0,0,0,68,false,stim,true,2,568.8999999761581,3,0,2,41387,WMM1,554733,false,false,712,image-keyboard-response,2
true,5,0,2,2,false,d,false,false,0.0-2.0-0.22-0.203-3.203,0,0,0,81,false,stim,true,0,1175.5999999642372,3,0,1,41387,WMM1,557427,false,false,715,image-keyboard-response,3
true,5,0,2,2,false,d,false,false,0.0-2.0-0.22-0.204-3.204,0,0,0,81,false,stim,true,0,699.5,3,0,1,41387,WMM1,559631,false,false,718,image-keyboard-response,4
true,5,1,2,0,false,q,false,false,0.0-2.0-0.22-0.205-3.205,0,0,0,90,false,stim,true,1,888.3000000119209,3,0,0,41387,WMM1,562035,false,false,721,image-keyboard-response,5
true,5,1,2,0,false,q,false,false,0.0-2.0-0.22-0.206-3.206,0,0,0,90,false,stim,true,1,569.2000000476837,3,0,0,41387,WMM1,564124,false,false,724,image-keyboard-response,6
true,5,0,2,2,false,d,false,true,0.0-2.0-0.23-0.207-3.207,0,0,0,81,false,stim,true,0,885.0,3,0,1,41387,WMM1,566534,false,true,727,image-keyboard-response,7
true,5,2,2,1,false,z,false,false,0.0-2.0-0.23-0.208-3.208,0,0,0,68,false,stim,true,2,567.3999999761581,3,0,2,41387,WMM1,568615,false,false,730,image-keyboard-response,8
true,5,1,2,0,false,q,false,false,0.0-2.0-0.23-0.209-3.209,0,0,0,90,false,stim,true,1,778.5,3,0,0,41387,WMM1,570916,false,false,733,image-keyboard-response,9
true,5,0,2,2,false,d,false,false,0.0-2.0-0.23-0.210-3.210,0,0,0,81,false,stim,true,0,722.6999999880791,3,0,1,41387,WMM1,573175,false,false,736,image-keyboard-response,10
true,5,0,2,0,true,q,false,true,0.0-2.0-0.23-0.211-3.211,0,0,0,81,false,stim,false,1,489.4000000357628,3,0,0,41387,WMM1,575193,false,false,739,image-keyboard-response,11
true,5,0,2,1,false,z,true,true,0.0-2.0-0.23-0.212-3.212,0,0,0,81,false,stim,false,2,590.8000000119209,3,0,2,41387,WMM1,577313,false,true,742,image-keyboard-response,12
true,5,0,2,2,false,d,false,false,0.0-2.0-0.23-0.213-3.213,0,0,0,81,false,stim,true,0,422.10000002384186,3,0,1,41387,WMM1,579268,false,false,745,image-keyboard-response,13
true,5,0,2,1,false,z,true,true,0.0-2.0-0.23-0.214-3.214,0,0,0,81,false,stim,false,2,476.5999999642372,3,0,2,41387,WMM1,581277,false,true,748,image-keyboard-response,14
true,5,0,2,0,true,q,false,true,0.0-2.0-0.23-0.215-3.215,0,0,0,81,false,stim,false,1,384.19999998807907,3,0,0,41387,WMM1,583173,false,false,751,image-keyboard-response,15
true,5,1,2,1,true,z,false,true,0.0-2.0-0.24-0.216-3.216,0,0,0,90,false,stim,false,2,657.1999999880791,3,0,2,41387,WMM1,585351,false,false,754,image-keyboard-response,16
true,5,0,2,0,true,q,false,true,0.0-2.0-0.24-0.217-3.217,0,0,0,81,false,stim,false,1,448.4000000357628,3,0,0,41387,WMM1,587312,false,false,757,image-keyboard-response,17
true,5,0,2,2,false,d,false,false,0.0-2.0-0.24-0.218-3.218,0,0,0,81,false,stim,true,0,525.5,3,0,1,41387,WMM1,589358,false,false,760,image-keyboard-response,18
true,5,0,2,1,false,z,true,false,0.0-2.0-0.24-0.219-3.219,0,0,0,81,false,stim,false,2,1277.699999988079,3,0,2,41387,WMM1,592155,false,false,763,image-keyboard-response,19
true,5,0,2,0,true,q,false,true,0.0-2.0-0.24-0.220-3.220,0,0,0,81,false,stim,false,1,477.0,3,0,0,41387,WMM1,594147,false,false,766,image-keyboard-response,20
true,5,0,2,0,true,q,false,true,0.0-2.0-0.24-0.221-3.221,0,0,0,81,false,stim,false,1,475.5999999642372,3,0,0,41387,WMM1,596152,false,false,769,image-keyboard-response,21
true,5,1,2,2,false,d,true,false,0.0-2.0-0.24-0.222-3.222,0,0,0,90,false,stim,false,0,1157.0,3,0,1,41387,WMM1,598831,false,false,772,image-keyboard-response,22
true,5,1,2,1,true,z,false,true,0.0-2.0-0.24-0.223-3.223,0,0,0,90,false,stim,false,2,598.3000000119209,3,0,2,41387,WMM1,600962,false,false,775,image-keyboard-response,23
true,5,2,2,2,true,d,false,true,0.0-2.0-0.24-0.224-3.224,0,0,0,68,false,stim,false,0,1312.5,3,0,1,41387,WMM1,603797,false,false,778,image-keyboard-response,24
true,5,1,2,1,true,z,false,true,0.0-2.0-0.25-0.225-3.225,0,0,0,90,false,stim,false,2,682.3999999761581,3,0,2,41387,WMM1,606006,false,false,781,image-keyboard-response,25
true,5,1,2,1,true,z,false,true,0.0-2.0-0.25-0.226-3.226,0,0,0,90,false,stim,false,2,443.30000001192093,3,0,2,41387,WMM1,607969,false,false,784,image-keyboard-response,26
true,5,1,2,1,true,z,false,false,0.0-2.0-0.25-0.227-3.227,0,0,0,90,false,stim,false,2,370.5,3,0,2,41387,WMM1,609859,false,true,787,image-keyboard-response,27
true,5,0,2,0,true,q,false,true,0.0-2.0-0.25-0.228-3.228,0,0,0,81,false,stim,false,1,567.0,3,0,0,41387,WMM1,611949,false,false,790,image-keyboard-response,28
true,5,2,2,2,true,d,false,true,0.0-2.0-0.25-0.229-3.229,0,0,0,68,false,stim,false,0,688.8999999761581,3,0,1,41387,WMM1,614150,false,false,793,image-keyboard-response,29
true,5,2,2,2,true,d,false,true,0.0-2.0-0.25-0.230-3.230,0,0,0,68,false,stim,false,0,418.5,3,0,1,41387,WMM1,616100,false,false,796,image-keyboard-response,30
true,5,0,2,0,true,q,false,false,0.0-2.0-0.25-0.231-3.231,0,0,0,81,false,stim,false,1,742.3999999761581,3,1,0,41387,WMM1,618378,false,true,799,image-keyboard-response,31
true,5,2,2,2,true,d,false,true,0.0-2.0-0.25-0.232-3.232,0,0,0,68,false,stim,false,0,852.3000000119209,3,0,1,41387,WMM1,620757,false,false,802,image-keyboard-response,32
true,5,1,2,0,false,q,false,true,0.0-2.0-0.25-0.233-3.233,0,0,0,90,false,stim,true,1,1071.5999999642372,3,1,0,41387,WMM1,623346,false,true,805,image-keyboard-response,33
true,5,1,2,0,false,q,false,false,0.0-2.0-0.26-0.234-3.234,0,0,0,90,false,stim,true,1,400.89999997615814,3,1,0,41387,WMM1,625262,false,false,808,image-keyboard-response,34
true,5,0,2,1,false,z,true,false,0.0-2.0-0.26-0.235-3.235,0,0,0,81,false,stim,false,2,703.5,3,0,2,41387,WMM1,627481,false,false,811,image-keyboard-response,35
true,5,1,2,0,false,q,false,false,0.0-2.0-0.26-0.236-3.236,0,0,0,90,false,stim,true,1,526.0999999642372,3,1,0,41387,WMM1,629542,false,false,814,image-keyboard-response,36
true,5,1,2,0,false,q,false,false,0.0-2.0-0.26-0.237-3.237,0,0,0,90,false,stim,true,1,894.5,3,1,0,41387,WMM1,631943,false,false,817,image-keyboard-response,37
true,5,2,2,2,true,d,false,true,0.0-2.0-0.26-0.238-3.238,0,0,0,68,false,stim,false,0,841.5,3,0,1,41387,WMM1,634292,false,false,820,image-keyboard-response,38
true,5,0,2,1,false,z,true,false,0.0-2.0-0.26-0.239-3.239,0,0,0,81,false,stim,false,2,750.3999999761581,3,0,2,41387,WMM1,636566,false,false,823,image-keyboard-response,39
true,6,1,3,2,false,d,false,false,0.0-2.0-0.26-0.240-3.240,1,0,0,90,true,stim,true,1,709.3999999761581,3,0,2,41387,WMM1,638805,false,false,826,image-keyboard-response,1
true,6,2,3,0,false,q,false,false,0.0-2.0-0.26-0.241-3.241,1,0,0,68,false,stim,true,2,749.5,3,0,1,41387,WMM1,641076,false,false,829,image-keyboard-response,2
true,6,1,3,0,false,q,true,false,0.0-2.0-0.26-0.242-3.242,1,0,0,90,false,stim,false,2,441.69999998807907,3,0,1,41387,WMM1,643055,false,false,832,image-keyboard-response,3
true,6,1,3,0,false,q,true,false,0.0-2.0-0.27-0.243-3.243,1,0,0,90,false,stim,false,2,369.69999998807907,3,0,1,41387,WMM1,644959,false,false,835,image-keyboard-response,4
true,6,0,3,0,true,q,false,false,0.0-2.0-0.27-0.244-3.244,1,0,0,81,false,stim,false,0,773.6000000238419,3,1,0,41387,WMM1,647244,false,true,838,image-keyboard-response,5
true,6,0,3,0,true,q,false,true,0.0-2.0-0.27-0.245-3.245,1,0,0,81,false,stim,false,2,586.5,3,0,1,41387,WMM1,649345,false,false,841,image-keyboard-response,6
true,6,0,3,2,false,d,true,false,0.0-2.0-0.27-0.246-3.246,1,0,0,81,false,stim,false,1,541.3000000119209,3,0,2,41387,WMM1,651406,false,false,844,image-keyboard-response,7
true,6,0,3,0,true,q,false,true,0.0-2.0-0.27-0.247-3.247,1,0,0,81,false,stim,false,0,497.80000001192093,3,1,0,41387,WMM1,653429,false,false,847,image-keyboard-response,8
true,6,2,3,2,true,d,false,true,0.0-2.0-0.27-0.248-3.248,1,0,0,68,false,stim,false,1,1097.0,3,0,2,41387,WMM1,656043,false,false,850,image-keyboard-response,9
true,6,0,3,0,true,q,false,true,0.0-2.0-0.27-0.249-3.249,1,0,0,81,false,stim,false,2,686.9000000357628,3,0,1,41387,WMM1,658245,false,false,853,image-keyboard-response,10
true,6,2,3,2,true,d,false,true,0.0-2.0-0.27-0.250-3.250,1,0,0,68,false,stim,false,1,520.2999999523163,3,0,2,41387,WMM1,660287,false,false,856,image-keyboard-response,11
true,6,0,3,0,true,q,false,true,0.0-2.0-0.27-0.251-3.251,1,0,0,81,false,stim,false,0,410.0,3,1,0,41387,WMM1,662223,false,false,859,image-keyboard-response,12
true,6,2,3,2,true,d,false,true,0.0-2.0-0.28-0.252-3.252,1,0,0,68,false,stim,false,1,537.8000000119209,3,0,2,41387,WMM1,664273,false,false,862,image-keyboard-response,13
true,6,0,3,0,true,q,false,true,0.0-2.0-0.28-0.253-3.253,1,0,0,81,false,stim,false,0,523.0,3,1,0,41387,WMM1,666317,false,false,865,image-keyboard-response,14
true,6,0,3,0,true,q,false,false,0.0-2.0-0.28-0.254-3.254,1,0,0,81,false,stim,false,2,708.3000000119209,3,0,1,41387,WMM1,668547,false,true,868,image-keyboard-response,15
true,6,0,3,0,true,q,false,true,0.0-2.0-0.28-0.255-3.255,1,0,0,81,false,stim,false,0,724.0,3,1,0,41387,WMM1,670783,false,false,871,image-keyboard-response,16
true,6,0,3,0,true,q,false,true,0.0-2.0-0.28-0.256-3.256,1,0,0,81,false,stim,false,2,505.19999998807907,3,0,1,41387,WMM1,672816,false,false,874,image-keyboard-response,17
true,6,1,3,2,false,d,false,false,0.0-2.0-0.28-0.257-3.257,1,0,0,90,false,stim,true,1,1135.699999988079,3,0,2,41387,WMM1,675464,false,false,877,image-keyboard-response,18
true,6,0,3,0,true,q,false,true,0.0-2.0-0.28-0.258-3.258,1,0,0,81,false,stim,false,2,949.6999999880791,3,0,1,41387,WMM1,677941,false,false,880,image-keyboard-response,19
true,6,2,3,2,true,d,false,true,0.0-2.0-0.28-0.259-3.259,1,0,0,68,false,stim,false,1,546.2000000476837,3,0,2,41387,WMM1,680008,false,false,883,image-keyboard-response,20
true,6,0,3,0,true,q,false,true,0.0-2.0-0.28-0.260-3.260,1,0,0,81,false,stim,false,0,610.1999999880791,3,1,0,41387,WMM1,682144,false,false,886,image-keyboard-response,21
true,6,2,3,2,true,d,false,true,0.0-2.0-0.29-0.261-3.261,1,0,0,68,false,stim,false,1,686.1000000238419,3,0,2,41387,WMM1,684365,false,false,889,image-keyboard-response,22
true,6,0,3,0,true,q,false,true,0.0-2.0-0.29-0.262-3.262,1,0,0,81,false,stim,false,2,439.5,3,0,1,41387,WMM1,686352,false,false,892,image-keyboard-response,23
true,6,2,3,2,true,d,false,true,0.0-2.0-0.29-0.263-3.263,1,0,0,68,false,stim,false,1,567.1000000238419,3,0,2,41387,WMM1,688444,false,false,895,image-keyboard-response,24
true,6,0,3,0,true,q,false,true,0.0-2.0-0.29-0.264-3.264,1,0,0,81,false,stim,false,0,386.69999998807907,3,0,0,41387,WMM1,690348,false,false,898,image-keyboard-response,25
true,6,0,3,0,true,q,false,true,0.0-2.0-0.29-0.265-3.265,1,0,0,81,false,stim,false,0,401.69999998807907,3,0,0,41387,WMM1,692280,false,false,901,image-keyboard-response,26
true,6,0,3,0,true,q,false,true,0.0-2.0-0.29-0.266-3.266,1,0,0,81,false,stim,false,2,408.10000002384186,3,0,1,41387,WMM1,694200,false,false,904,image-keyboard-response,27
true,6,2,3,2,true,d,false,true,0.0-2.0-0.29-0.267-3.267,1,0,0,68,false,stim,false,1,506.39999997615814,3,0,2,41387,WMM1,696250,false,false,907,image-keyboard-response,28
true,6,0,3,0,true,q,false,true,0.0-2.0-0.29-0.268-3.268,1,0,0,81,false,stim,false,0,377.5,3,0,0,41387,WMM1,698173,false,false,910,image-keyboard-response,29
true,6,0,3,0,true,q,false,true,0.0-2.0-0.29-0.269-3.269,1,0,0,81,false,stim,false,2,627.9000000357628,3,0,1,41387,WMM1,700328,false,false,913,image-keyboard-response,30
true,6,0,3,0,true,q,false,true,0.0-2.0-0.30-0.270-3.270,1,0,0,81,false,stim,false,0,412.30000001192093,3,0,0,41387,WMM1,702259,false,false,916,image-keyboard-response,31
true,6,0,3,0,true,q,false,true,0.0-2.0-0.30-0.271-3.271,1,0,0,81,false,stim,false,2,474.10000002384186,3,0,1,41387,WMM1,704251,false,false,919,image-keyboard-response,32
true,7,2,4,0,false,q,false,true,0.0-2.0-0.30-0.272-3.272,0,0,0,68,true,stim,true,2,446.0,3,0,2,41387,WMM1,706240,false,true,922,image-keyboard-response,1
true,7,0,4,2,false,d,false,false,0.0-2.0-0.30-0.273-3.273,0,0,0,81,false,stim,true,0,390.0,3,0,0,41387,WMM1,708149,false,false,925,image-keyboard-response,2
true,7,0,4,1,false,z,false,false,0.0-2.0-0.30-0.274-3.274,0,0,0,81,false,stim,true,0,520.3999999761581,3,0,1,41387,WMM1,710213,false,false,928,image-keyboard-response,3
true,7,2,4,0,false,q,false,false,0.0-2.0-0.30-0.275-3.275,0,0,0,68,false,stim,true,2,504.89999997615814,3,0,2,41387,WMM1,712243,false,false,931,image-keyboard-response,4
true,7,2,4,0,false,q,false,false,0.0-2.0-0.30-0.276-3.276,0,0,0,68,false,stim,true,2,543.5,3,0,2,41387,WMM1,714308,false,false,934,image-keyboard-response,5
true,7,0,4,2,false,d,false,false,0.0-2.0-0.30-0.277-3.277,0,0,0,81,false,stim,true,0,523.8000000119209,3,0,0,41387,WMM1,716377,false,false,937,image-keyboard-response,6
true,7,0,4,1,false,z,false,false,0.0-2.0-0.30-0.278-3.278,0,0,0,81,false,stim,true,0,641.3999999761581,3,0,1,41387,WMM1,718552,false,false,940,image-keyboard-response,7
true,7,1,4,1,true,z,false,true,0.0-2.0-0.31-0.279-3.279,0,0,0,90,false,stim,false,0,1061.9000000357628,3,0,1,41387,WMM1,721140,false,false,943,image-keyboard-response,8
true,7,1,4,2,false,d,true,false,0.0-2.0-0.31-0.280-3.280,0,0,0,90,false,stim,false,0,428.0,3,0,0,41387,WMM1,723077,false,false,946,image-keyboard-response,9
true,7,1,4,0,false,q,true,false,0.0-2.0-0.31-0.281-3.281,0,0,0,90,false,stim,false,2,381.5999999642372,3,0,2,41387,WMM1,725009,false,false,949,image-keyboard-response,10
true,7,0,4,2,false,d,false,true,0.0-2.0-0.31-0.282-3.282,0,0,0,81,false,stim,true,0,701.0999999642372,3,0,0,41387,WMM1,727222,false,true,952,image-keyboard-response,11
true,7,1,4,1,true,z,false,true,0.0-2.0-0.31-0.283-3.283,0,0,0,90,false,stim,false,0,925.5999999642372,3,0,1,41387,WMM1,729691,false,false,955,image-keyboard-response,12
true,7,0,4,2,false,d,false,false,0.0-2.0-0.31-0.284-3.284,0,0,0,81,false,stim,true,0,912.3999999761581,3,0,0,41387,WMM1,732119,false,false,958,image-keyboard-response,13
true,7,0,4,0,true,q,false,true,0.0-2.0-0.31-0.285-3.285,0,0,0,81,false,stim,false,2,552.9000000357628,3,0,2,41387,WMM1,734186,false,false,961,image-keyboard-response,14
true,7,0,4,0,true,q,false,true,0.0-2.0-0.31-0.286-3.286,0,0,0,81,false,stim,false,2,562.4000000357628,3,0,2,41387,WMM1,736276,false,false,964,image-keyboard-response,15
true,7,1,4,1,true,z,false,true,0.0-2.0-0.31-0.287-3.287,0,0,0,90,false,stim,false,0,952.5999999642372,3,0,1,41387,WMM1,738762,false,false,967,image-keyboard-response,16
true,7,1,4,1,true,z,false,true,0.0-2.0-0.32-0.288-3.288,0,0,0,90,false,stim,false,0,586.6999999880791,3,0,1,41387,WMM1,740861,false,false,970,image-keyboard-response,17
true,7,2,4,2,true,d,false,true,0.0-2.0-0.32-0.289-3.289,0,0,0,68,false,stim,false,0,984.8999999761581,3,0,0,41387,WMM1,743359,false,false,973,image-keyboard-response,18
true,7,2,4,2,true,d,false,true,0.0-2.0-0.32-0.290-3.290,0,0,0,68,false,stim,false,0,451.0,3,0,0,41387,WMM1,745340,false,false,976,image-keyboard-response,19
true,7,0,4,1,false,z,false,false,0.0-2.0-0.32-0.291-3.291,0,0,0,81,false,stim,true,0,1426.199999988079,3,0,1,41387,WMM1,748283,false,false,979,image-keyboard-response,20
true,7,1,4,1,true,z,false,true,0.0-2.0-0.32-0.292-3.292,0,0,0,90,false,stim,false,0,758.1999999880791,3,0,1,41387,WMM1,750563,false,false,982,image-keyboard-response,21
true,7,1,4,2,false,d,true,false,0.0-2.0-0.32-0.293-3.293,0,0,0,90,false,stim,false,0,2976.600000023842,3,0,0,41387,WMM1,755073,false,false,985,image-keyboard-response,22
true,7,2,4,0,false,q,false,false,0.0-2.0-0.32-0.294-3.294,0,0,0,68,false,stim,true,2,1777.8999999761581,3,0,2,41387,WMM1,758372,false,false,988,image-keyboard-response,23
true,7,1,4,0,false,q,true,false,0.0-2.0-0.32-0.295-3.295,0,0,0,90,false,stim,false,2,621.6000000238419,3,0,2,41387,WMM1,760511,false,false,991,image-keyboard-response,24
true,7,0,4,0,true,q,false,true,0.0-2.0-0.32-0.296-3.296,0,0,0,81,false,stim,false,2,833.6999999880791,3,0,2,41387,WMM1,762856,false,false,994,image-keyboard-response,25
true,7,2,4,1,false,z,true,false,0.0-2.0-0.33-0.297-3.297,0,0,0,68,false,stim,false,0,1262.6000000238419,3,0,1,41387,WMM1,765652,false,false,997,image-keyboard-response,26
true,7,1,4,2,false,d,true,false,0.0-2.0-0.33-0.298-3.298,0,0,0,90,false,stim,false,0,952.8000000119209,3,0,0,41387,WMM1,768143,false,false,1000,image-keyboard-response,27
true,7,0,4,2,false,d,false,true,0.0-2.0-0.33-0.299-3.299,0,0,0,81,false,stim,true,0,552.8999999761581,3,0,0,41387,WMM1,770220,false,true,1003,image-keyboard-response,28
true,7,0,4,0,true,q,false,true,0.0-2.0-0.33-0.300-3.300,0,0,0,81,false,stim,false,2,451.69999998807907,3,0,2,41387,WMM1,772190,false,false,1006,image-keyboard-response,29
true,7,0,4,2,false,d,false,true,0.0-2.0-0.33-0.301-3.301,0,0,0,81,false,stim,true,0,364.7000000476837,3,0,0,41387,WMM1,774074,false,true,1009,image-keyboard-response,30
true,7,0,4,0,true,q,false,true,0.0-2.0-0.33-0.302-3.302,0,0,0,81,false,stim,false,2,437.4000000357628,3,0,2,41387,WMM1,776053,false,false,1012,image-keyboard-response,31
true,7,1,4,1,true,z,false,true,0.0-2.0-0.33-0.303-3.303,0,0,0,90,false,stim,false,0,1045.5,3,0,1,41387,WMM1,778627,false,false,1015,image-keyboard-response,32
true,7,1,4,1,true,z,false,true,0.0-2.0-0.33-0.304-3.304,0,0,0,90,false,stim,false,0,372.0,3,0,1,41387,WMM1,780522,false,false,1018,image-keyboard-response,33
true,7,0,4,0,true,q,false,true,0.0-2.0-0.33-0.305-3.305,0,0,0,81,false,stim,false,2,645.8000000119209,3,0,2,41387,WMM1,782686,false,false,1021,image-keyboard-response,34
true,7,0,4,0,true,q,false,true,0.0-2.0-0.34-0.306-3.306,0,0,0,81,false,stim,false,2,455.10000002384186,3,0,2,41387,WMM1,784658,false,false,1024,image-keyboard-response,35
true,7,0,4,0,true,q,false,true,0.0-2.0-0.34-0.307-3.307,0,0,0,81,false,stim,false,2,347.9000000357628,3,0,2,41387,WMM1,786519,false,false,1027,image-keyboard-response,36
true,7,2,4,1,false,z,true,false,0.0-2.0-0.34-0.308-3.308,0,0,0,68,false,stim,false,0,1147.8999999761581,3,0,1,41387,WMM1,789198,false,false,1030,image-keyboard-response,37
true,7,0,4,2,false,d,false,false,0.0-2.0-0.34-0.309-3.309,0,0,0,81,false,stim,true,0,519.0,3,0,0,41387,WMM1,791241,false,false,1033,image-keyboard-response,38
true,7,1,4,1,true,z,false,true,0.0-2.0-0.34-0.310-3.310,0,0,0,90,false,stim,false,0,1416.300000011921,3,0,1,41387,WMM1,794177,false,false,1036,image-keyboard-response,39
true,7,0,4,2,false,d,false,false,0.0-2.0-0.34-0.311-3.311,0,0,0,81,false,stim,true,0,515.9000000357628,3,0,0,41387,WMM1,796230,false,false,1039,image-keyboard-response,40
true,7,0,4,0,true,q,false,true,0.0-2.0-0.34-0.312-3.312,0,0,0,81,false,stim,false,2,963.1000000238419,3,0,2,41387,WMM1,798707,false,false,1042,image-keyboard-response,41
true,7,1,4,2,false,d,true,false,0.0-2.0-0.34-0.313-3.313,0,0,0,90,false,stim,false,0,842.8999999761581,3,0,0,41387,WMM1,801079,false,false,1045,image-keyboard-response,42
true,7,1,4,1,true,z,false,true,0.0-2.0-0.34-0.314-3.314,0,0,0,90,false,stim,false,0,622.0,3,0,1,41387,WMM1,803222,false,false,1048,image-keyboard-response,43
true,7,0,4,0,true,q,false,true,0.0-2.0-0.35-0.315-3.315,0,0,0,81,false,stim,false,2,1753.199999988079,3,0,2,41387,WMM1,806501,false,false,1051,image-keyboard-response,44
true,7,0,4,0,true,q,false,true,0.0-2.0-0.35-0.316-3.316,0,0,0,81,false,stim,false,2,576.6000000238419,3,0,2,41387,WMM1,808601,false,false,1054,image-keyboard-response,45
true,7,2,4,2,true,d,false,true,0.0-2.0-0.35-0.317-3.317,0,0,0,68,false,stim,false,0,1041.800000011921,3,0,0,41387,WMM1,811185,false,false,1057,image-keyboard-response,46
true,7,1,4,1,true,z,false,true,0.0-2.0-0.35-0.318-3.318,0,0,0,90,false,stim,false,0,707.5999999642372,3,0,1,41387,WMM1,813425,false,false,1060,image-keyboard-response,47
true,7,1,4,1,true,z,false,true,0.0-2.0-0.35-0.319-3.319,0,0,0,90,false,stim,false,0,405.0999999642372,3,0,1,41387,WMM1,815340,false,false,1063,image-keyboard-response,48
true,7,1,4,1,true,z,false,true,0.0-2.0-0.35-0.320-3.320,0,0,0,90,false,stim,false,0,438.5,3,0,1,41387,WMM1,817292,false,false,1066,image-keyboard-response,49
true,7,2,4,2,true,d,false,true,0.0-2.0-0.35-0.321-3.321,0,0,0,68,false,stim,false,0,531.6999999880791,3,0,0,41387,WMM1,819360,false,false,1069,image-keyboard-response,50
true,7,0,4,0,true,q,false,true,0.0-2.0-0.35-0.322-3.322,0,0,0,81,false,stim,false,2,1053.300000011921,3,0,2,41387,WMM1,821937,false,false,1072,image-keyboard-response,51
true,7,1,4,2,false,d,true,true,0.0-2.0-0.35-0.323-3.323,0,0,0,90,false,stim,false,0,1108.6000000238419,3,0,0,41387,WMM1,824569,false,true,1075,image-keyboard-response,52
true,7,1,4,2,false,d,true,false,0.0-2.0-0.36-0.324-3.324,0,0,0,90,false,stim,false,0,412.89999997615814,3,0,0,41387,WMM1,826506,false,false,1078,image-keyboard-response,53
true,7,2,4,1,false,z,true,false,0.0-2.0-0.36-0.325-3.325,0,0,0,68,false,stim,false,0,1159.199999988079,3,0,1,41387,WMM1,829186,false,false,1081,image-keyboard-response,54
true,7,1,4,2,false,d,true,false,0.0-2.0-0.36-0.326-3.326,0,0,0,90,false,stim,false,0,889.9000000357628,3,0,0,41387,WMM1,831596,false,false,1084,image-keyboard-response,55
true,7,0,4,0,true,q,false,false,0.0-2.0-0.36-0.327-3.327,0,0,0,81,false,stim,false,2,520.8999999761581,3,0,2,41387,WMM1,833652,false,true,1087,image-keyboard-response,56
true,7,1,4,0,false,q,true,true,0.0-2.0-0.36-0.328-3.328,0,0,0,90,false,stim,false,2,528.6999999880791,3,0,2,41387,WMM1,835715,false,true,1090,image-keyboard-response,57
true,7,1,4,0,false,q,true,false,0.0-2.0-0.36-0.329-3.329,0,0,0,90,false,stim,false,2,871.8999999761581,3,0,2,41387,WMM1,838112,false,false,1093,image-keyboard-response,58
true,7,2,4,1,false,z,true,true,0.0-2.0-0.36-0.330-3.330,0,0,0,68,false,stim,false,0,610.8999999761581,3,0,1,41387,WMM1,840249,false,true,1096,image-keyboard-response,59
true,7,0,4,2,false,d,false,false,0.0-2.0-0.36-0.331-3.331,0,0,0,81,false,stim,true,0,744.2999999523163,3,0,0,41387,WMM1,842531,false,false,1099,image-keyboard-response,60
true,8,2,2,2,true,d,false,true,0.0-2.0-0.36-0.332-3.332,0,0,0,68,true,stim,false,1,641.6999999880791,3,0,1,41387,WMM1,844700,false,false,1102,image-keyboard-response,1
true,8,2,2,2,true,d,false,true,0.0-2.0-0.37-0.333-3.333,0,0,0,68,false,stim,false,1,460.30000001192093,3,0,1,41387,WMM1,846684,false,false,1105,image-keyboard-response,2
true,8,1,2,1,true,z,false,true,0.0-2.0-0.37-0.334-3.334,0,0,0,90,false,stim,false,0,624.9000000357628,3,0,2,41387,WMM1,848827,false,false,1108,image-keyboard-response,3
true,8,1,2,0,false,q,true,false,0.0-2.0-0.37-0.335-3.335,0,0,0,90,false,stim,false,2,912.5999999642372,3,0,0,41387,WMM1,851273,false,false,1111,image-keyboard-response,4
true,8,2,2,2,true,d,false,true,0.0-2.0-0.37-0.336-3.336,0,0,0,68,false,stim,false,1,695.2999999523163,3,0,1,41387,WMM1,853499,false,false,1114,image-keyboard-response,5
true,8,2,2,0,false,q,false,false,0.0-2.0-0.37-0.337-3.337,0,0,0,68,false,stim,true,2,725.5,3,0,0,41387,WMM1,855742,false,false,1117,image-keyboard-response,6
true,8,0,2,0,true,q,false,true,0.0-2.0-0.37-0.338-3.338,0,0,0,81,false,stim,false,2,970.6000000238419,3,0,0,41387,WMM1,858246,false,false,1120,image-keyboard-response,7
true,8,2,2,2,true,d,false,false,0.0-2.0-0.37-0.339-3.339,0,0,0,68,false,stim,false,1,1221.5,3,0,1,41387,WMM1,860989,false,true,1123,image-keyboard-response,8
true,8,1,2,1,true,z,false,true,0.0-2.0-0.37-0.340-3.340,0,0,0,90,false,stim,false,0,528.3000000119209,3,0,2,41387,WMM1,863036,false,false,1126,image-keyboard-response,9
true,8,1,2,1,true,z,false,true,0.0-2.0-0.37-0.341-3.341,0,0,0,90,false,stim,false,0,415.19999998807907,3,0,2,41387,WMM1,864972,false,false,1129,image-keyboard-response,10
true,8,1,2,1,true,z,false,true,0.0-2.0-0.38-0.342-3.342,0,0,0,90,false,stim,false,0,379.5,3,0,2,41387,WMM1,866883,false,false,1132,image-keyboard-response,11
true,8,0,2,0,true,q,false,false,0.0-2.0-0.38-0.343-3.343,0,0,0,81,false,stim,false,2,695.5,3,0,0,41387,WMM1,869093,false,true,1135,image-keyboard-response,12
true,8,2,2,2,true,d,false,true,0.0-2.0-0.38-0.344-3.344,0,0,0,68,false,stim,false,1,862.1999999880791,3,0,1,41387,WMM1,871480,false,false,1138,image-keyboard-response,13
true,8,2,2,2,true,d,false,false,0.0-2.0-0.38-0.345-3.345,0,0,0,68,false,stim,false,1,507.5,3,0,1,41387,WMM1,873525,false,true,1141,image-keyboard-response,14
true,8,0,2,0,true,q,false,true,0.0-2.0-0.38-0.346-3.346,0,0,0,81,false,stim,false,2,563.0999999642372,3,0,0,41387,WMM1,875633,false,false,1144,image-keyboard-response,15
true,8,0,2,0,true,q,false,true,0.0-2.0-0.38-0.347-3.347,0,0,0,81,false,stim,false,2,692.5,3,0,0,41387,WMM1,877854,false,false,1147,image-keyboard-response,16
true,8,1,2,1,true,z,false,true,0.0-2.0-0.38-0.348-3.348,0,0,0,90,false,stim,false,0,646.5,3,0,2,41387,WMM1,880017,false,false,1150,image-keyboard-response,17
true,8,2,2,2,true,d,false,true,0.0-2.0-0.38-0.349-3.349,0,0,0,68,false,stim,false,1,780.7999999523163,3,0,1,41387,WMM1,882332,false,false,1153,image-keyboard-response,18
true,8,1,2,1,true,z,false,true,0.0-2.0-0.38-0.350-3.350,0,0,0,90,false,stim,false,0,479.0,3,0,2,41387,WMM1,884344,false,false,1156,image-keyboard-response,19
true,8,1,2,1,true,z,false,true,0.0-2.0-0.39-0.351-3.351,0,0,0,90,false,stim,false,0,495.10000002384186,3,0,2,41387,WMM1,886363,false,false,1159,image-keyboard-response,20
true,8,1,2,1,true,z,false,true,0.0-2.0-0.39-0.352-3.352,0,0,0,90,false,stim,false,0,521.1999999880791,3,0,2,41387,WMM1,888404,false,false,1162,image-keyboard-response,21
true,8,1,2,1,true,z,false,true,0.0-2.0-0.39-0.353-3.353,0,0,0,90,false,stim,false,0,540.1999999880791,3,0,2,41387,WMM1,890469,false,false,1165,image-keyboard-response,22
true,8,2,2,2,true,d,false,true,0.0-2.0-0.39-0.354-3.354,0,0,0,68,false,stim,false,1,602.6000000238419,3,0,1,41387,WMM1,892584,false,false,1168,image-keyboard-response,23
true,8,0,2,0,true,q,false,true,0.0-2.0-0.39-0.355-3.355,0,0,0,81,false,stim,false,2,607.6999999880791,3,0,0,41387,WMM1,894730,false,false,1171,image-keyboard-response,24
true,8,0,2,0,true,q,false,true,0.0-2.0-0.39-0.356-3.356,0,0,0,81,false,stim,false,2,488.5999999642372,3,0,0,41387,WMM1,896739,false,false,1174,image-keyboard-response,25
true,8,2,2,2,true,d,false,false,0.0-2.0-0.39-0.357-3.357,0,0,0,68,false,stim,false,1,1033.5,3,0,1,41387,WMM1,899301,false,true,1177,image-keyboard-response,26
true,8,0,2,0,true,q,false,true,0.0-2.0-0.39-0.358-3.358,0,0,0,81,false,stim,false,2,490.9000000357628,3,0,0,41387,WMM1,901310,false,false,1180,image-keyboard-response,27
true,8,2,2,2,true,d,false,true,0.0-2.0-0.39-0.359-3.359,0,0,0,68,false,stim,false,1,698.8000000119209,3,0,1,41387,WMM1,903532,false,false,1183,image-keyboard-response,28
true,8,1,2,1,true,z,false,true,0.0-2.0-0.40-0.360-3.360,0,0,0,90,false,stim,false,0,423.9000000357628,3,0,2,41387,WMM1,905501,false,false,1186,image-keyboard-response,29
true,8,1,2,1,true,z,false,false,0.0-2.0-0.40-0.361-3.361,0,0,0,90,false,stim,false,0,383.19999998807907,3,0,2,41387,WMM1,907404,false,true,1189,image-keyboard-response,30
true,9,0,1,1,false,z,false,false,0.0-2.0-0.40-0.362-3.362,0,0,0,81,true,stim,true,0,549.5999999642372,3,0,0,41387,WMM1,909474,false,false,1192,image-keyboard-response,1
true,9,0,1,1,false,z,false,false,0.0-2.0-0.40-0.363-3.363,0,0,0,81,false,stim,true,0,470.0,3,0,0,41387,WMM1,911460,false,false,1195,image-keyboard-response,2
true,9,2,1,1,false,z,false,false,0.0-2.0-0.40-0.364-3.364,0,0,0,68,false,stim,true,2,678.3999999761581,3,0,1,41387,WMM1,913657,false,false,1198,image-keyboard-response,3
true,9,1,1,2,false,d,false,false,0.0-2.0-0.40-0.365-3.365,0,0,0,90,false,stim,true,1,471.89999997615814,3,0,2,41387,WMM1,915668,false,false,1201,image-keyboard-response,4
true,9,0,1,1,false,z,false,false,0.0-2.0-0.40-0.366-3.366,0,0,0,81,false,stim,true,0,543.1000000238419,3,0,0,41387,WMM1,917731,false,false,1204,image-keyboard-response,5
true,9,1,1,1,true,z,false,true,0.0-2.0-0.40-0.367-3.367,0,0,0,90,false,stim,false,2,672.8999999761581,3,0,1,41387,WMM1,919923,false,false,1207,image-keyboard-response,6
true,9,1,1,1,true,z,false,true,0.0-2.0-0.40-0.368-3.368,0,0,0,90,false,stim,false,2,463.60000002384186,3,0,1,41387,WMM1,921901,false,false,1210,image-keyboard-response,7
true,9,1,1,1,true,z,false,true,0.0-2.0-0.41-0.369-3.369,0,0,0,90,false,stim,false,0,586.1999999880791,3,0,0,41387,WMM1,924018,false,false,1213,image-keyboard-response,8
true,9,1,1,2,false,d,false,false,0.0-2.0-0.41-0.370-3.370,0,0,0,90,false,stim,true,1,646.6999999880791,3,0,2,41387,WMM1,926199,false,false,1216,image-keyboard-response,9
true,9,1,1,1,true,z,false,true,0.0-2.0-0.41-0.371-3.371,0,0,0,90,false,stim,false,2,451.30000001192093,3,0,1,41387,WMM1,928162,false,false,1219,image-keyboard-response,10
true,9,1,1,1,true,z,false,true,0.0-2.0-0.41-0.372-3.372,0,0,0,90,false,stim,false,0,326.39999997615814,3,0,0,41387,WMM1,930007,false,false,1222,image-keyboard-response,11
true,9,2,1,2,true,d,false,true,0.0-2.0-0.41-0.373-3.373,0,0,0,68,false,stim,false,1,671.6999999880791,3,0,2,41387,WMM1,932207,false,false,1225,image-keyboard-response,12
true,9,2,1,2,true,d,false,true,0.0-2.0-0.41-0.374-3.374,0,0,0,68,false,stim,false,1,445.30000001192093,3,0,2,41387,WMM1,934199,false,false,1228,image-keyboard-response,13
true,9,2,1,1,false,z,true,true,0.0-2.0-0.41-0.375-3.375,0,0,0,68,false,stim,false,0,486.60000002384186,3,0,0,41387,WMM1,936223,false,true,1231,image-keyboard-response,14
true,9,1,1,1,true,z,false,true,0.0-2.0-0.41-0.376-3.376,0,0,0,90,false,stim,false,2,958.0999999642372,3,0,1,41387,WMM1,938694,false,false,1234,image-keyboard-response,15
true,9,1,1,1,true,z,false,true,0.0-2.0-0.41-0.377-3.377,0,0,0,90,false,stim,false,2,546.9000000357628,3,0,1,41387,WMM1,940770,false,false,1237,image-keyboard-response,16
true,9,2,1,2,true,d,false,true,0.0-2.0-0.42-0.378-3.378,0,0,0,68,false,stim,false,1,527.4000000357628,3,0,2,41387,WMM1,942817,false,false,1240,image-keyboard-response,17
true,9,2,1,1,false,z,false,false,0.0-2.0-0.42-0.379-3.379,0,0,0,68,false,stim,true,2,1196.199999988079,3,0,1,41387,WMM1,945529,false,false,1243,image-keyboard-response,18
true,9,0,1,1,false,z,false,false,0.0-2.0-0.42-0.380-3.380,0,0,0,81,false,stim,true,0,482.5999999642372,3,0,0,41387,WMM1,947523,false,false,1246,image-keyboard-response,19
true,9,0,1,1,false,z,false,false,0.0-2.0-0.42-0.381-3.381,0,0,0,81,false,stim,true,0,593.6999999880791,3,0,0,41387,WMM1,949633,false,false,1249,image-keyboard-response,20
true,9,2,1,1,false,z,false,false,0.0-2.0-0.42-0.382-3.382,0,0,0,68,false,stim,true,2,803.2999999523163,3,0,1,41387,WMM1,951955,false,false,1252,image-keyboard-response,21
true,9,2,1,1,false,z,true,true,0.0-2.0-0.42-0.383-3.383,0,0,0,68,false,stim,false,0,898.3999999761581,3,0,0,41387,WMM1,954398,false,true,1255,image-keyboard-response,22
true,9,1,1,2,false,d,false,false,0.0-2.0-0.42-0.384-3.384,0,0,0,90,false,stim,true,1,1066.300000011921,3,0,2,41387,WMM1,956984,false,false,1258,image-keyboard-response,23
true,9,2,1,2,true,d,false,true,0.0-2.0-0.42-0.385-3.385,0,0,0,68,false,stim,false,1,453.30000001192093,3,0,2,41387,WMM1,958977,false,false,1261,image-keyboard-response,24
true,9,2,1,1,false,z,false,false,0.0-2.0-0.42-0.386-3.386,0,0,0,68,false,stim,true,2,792.0,3,0,1,41387,WMM1,961301,false,false,1264,image-keyboard-response,25
true,9,2,1,2,true,d,false,true,0.0-2.0-0.43-0.387-3.387,0,0,0,68,false,stim,false,1,658.5999999642372,3,0,2,41387,WMM1,963483,false,false,1267,image-keyboard-response,26
true,9,2,1,1,false,z,true,false,0.0-2.0-0.43-0.388-3.388,0,0,0,68,false,stim,false,0,500.0,3,0,0,41387,WMM1,965518,false,false,1270,image-keyboard-response,27
true,9,0,1,1,false,z,false,false,0.0-2.0-0.43-0.389-3.389,0,0,0,81,false,stim,true,0,1676.3999999761581,3,0,0,41387,WMM1,968713,false,false,1273,image-keyboard-response,28
true,9,2,1,2,true,d,false,true,0.0-2.0-0.43-0.390-3.390,0,0,0,68,false,stim,false,1,940.1999999880791,3,0,2,41387,WMM1,971185,false,false,1276,image-keyboard-response,29
true,9,1,1,1,true,z,false,true,0.0-2.0-0.43-0.391-3.391,0,0,0,90,false,stim,false,2,880.2000000476837,3,0,1,41387,WMM1,973613,false,false,1279,image-keyboard-response,30
true,9,2,1,2,true,d,false,true,0.0-2.0-0.43-0.392-3.392,0,0,0,68,false,stim,false,1,439.0,3,0,2,41387,WMM1,975569,false,false,1282,image-keyboard-response,31
true,9,1,1,1,true,z,false,true,0.0-2.0-0.43-0.393-3.393,0,0,0,90,false,stim,false,0,909.4000000357628,3,0,0,41387,WMM1,978013,false,false,1285,image-keyboard-response,32
true,9,1,1,1,true,z,false,true,0.0-2.0-0.43-0.394-3.394,0,0,0,90,false,stim,false,2,703.7999999523163,3,0,1,41387,WMM1,980240,false,false,1288,image-keyboard-response,33
true,9,1,1,1,true,z,false,true,0.0-2.0-0.43-0.395-3.395,0,0,0,90,false,stim,false,2,381.89999997615814,3,0,1,41387,WMM1,982172,false,false,1291,image-keyboard-response,34
true,9,2,1,2,true,d,false,true,0.0-2.0-0.44-0.396-3.396,0,0,0,68,false,stim,false,1,711.3000000119209,3,0,2,41387,WMM1,984415,false,false,1294,image-keyboard-response,35
true,9,2,1,2,true,d,false,true,0.0-2.0-0.44-0.397-3.397,0,0,0,68,false,stim,false,1,580.3000000119209,3,0,2,41387,WMM1,986518,false,false,1297,image-keyboard-response,36
true,9,1,1,1,true,z,false,true,0.0-2.0-0.44-0.398-3.398,0,0,0,90,false,stim,false,2,424.7000000476837,3,0,1,41387,WMM1,988481,false,false,1300,image-keyboard-response,37
true,9,1,1,1,true,z,false,true,0.0-2.0-0.44-0.399-3.399,0,0,0,90,false,stim,false,0,556.8000000119209,3,0,0,41387,WMM1,990586,false,false,1303,image-keyboard-response,38
true,9,1,1,1,true,z,false,true,0.0-2.0-0.44-0.400-3.400,0,0,0,90,false,stim,false,0,319.5999999642372,3,0,0,41387,WMM1,992434,false,false,1306,image-keyboard-response,39
true,9,1,1,1,true,z,false,true,0.0-2.0-0.44-0.401-3.401,0,0,0,90,false,stim,false,2,561.0,3,0,1,41387,WMM1,994531,false,false,1309,image-keyboard-response,40
true,9,2,1,2,true,d,false,true,0.0-2.0-0.44-0.402-3.402,0,0,0,68,false,stim,false,1,594.2999999523163,3,0,2,41387,WMM1,996641,false,false,1312,image-keyboard-response,41
true,9,1,1,1,true,z,false,true,0.0-2.0-0.44-0.403-3.403,0,0,0,90,false,stim,false,0,395.0,3,0,0,41387,WMM1,998562,false,false,1315,image-keyboard-response,42
true,9,1,1,1,true,z,false,true,0.0-2.0-0.44-0.404-3.404,0,0,0,90,false,stim,false,2,951.8000000119209,3,0,1,41387,WMM1,1001032,false,false,1318,image-keyboard-response,43
true,9,1,1,1,true,z,false,true,0.0-2.0-0.45-0.405-3.405,0,0,0,90,false,stim,false,2,387.19999998807907,3,0,1,41387,WMM1,1002939,false,false,1321,image-keyboard-response,44
true,9,2,1,2,true,d,false,true,0.0-2.0-0.45-0.406-3.406,0,0,0,68,false,stim,false,1,504.2999999523163,3,0,2,41387,WMM1,1004960,false,false,1324,image-keyboard-response,45
true,9,1,1,1,true,z,false,true,0.0-2.0-0.45-0.407-3.407,0,0,0,90,false,stim,false,0,405.9000000357628,3,0,0,41387,WMM1,1006886,false,false,1327,image-keyboard-response,46
true,9,1,1,1,true,z,false,false,0.0-2.0-0.45-0.408-3.408,0,0,0,90,false,stim,false,2,411.7000000476837,3,0,1,41387,WMM1,1008842,false,true,1330,image-keyboard-response,47
true,9,1,1,1,true,z,false,true,0.0-2.0-0.45-0.409-3.409,0,0,0,90,false,stim,false,2,363.4000000357628,3,0,1,41387,WMM1,1010725,false,false,1333,image-keyboard-response,48
true,10,1,2,0,false,q,false,false,0.0-2.0-0.45-0.410-3.410,0,0,0,90,true,stim,true,1,437.5,3,0,0,41387,WMM1,1012691,false,false,1336,image-keyboard-response,1
true,10,2,2,1,false,z,false,false,0.0-2.0-0.45-0.411-3.411,0,0,0,68,false,stim,true,2,719.6000000238419,3,0,2,41387,WMM1,1014962,false,false,1339,image-keyboard-response,2
true,10,1,2,0,false,q,false,false,0.0-2.0-0.45-0.412-3.412,0,0,0,90,false,stim,true,1,387.80000001192093,3,0,0,41387,WMM1,1016888,false,false,1342,image-keyboard-response,3
true,10,2,2,1,false,z,false,false,0.0-2.0-0.45-0.413-3.413,0,0,0,68,false,stim,true,2,547.8000000119209,3,0,2,41387,WMM1,1018960,false,false,1345,image-keyboard-response,4
true,10,1,2,2,false,d,false,false,0.0-2.0-0.46-0.414-3.414,0,0,0,90,false,stim,true,1,487.0,3,0,1,41387,WMM1,1020989,false,false,1348,image-keyboard-response,5
true,10,0,2,1,false,z,true,false,0.0-2.0-0.46-0.415-3.415,0,0,0,81,false,stim,false,2,1524.4000000357628,3,0,2,41387,WMM1,1024034,false,false,1351,image-keyboard-response,6
true,10,1,2,0,false,q,false,true,0.0-2.0-0.46-0.416-3.416,0,0,0,90,false,stim,true,1,589.1000000238419,3,0,0,41387,WMM1,1026144,false,true,1354,image-keyboard-response,7
true,10,1,2,2,false,d,false,false,0.0-2.0-0.46-0.417-3.417,0,0,0,90,false,stim,true,1,381.9000000357628,3,0,1,41387,WMM1,1028052,false,false,1357,image-keyboard-response,8
true,10,2,2,1,false,z,false,false,0.0-2.0-0.46-0.418-3.418,0,0,0,68,false,stim,true,2,426.0999999642372,3,0,2,41387,WMM1,1029989,false,false,1360,image-keyboard-response,9
true,10,1,2,0,false,q,false,true,0.0-2.0-0.46-0.419-3.419,0,0,0,90,false,stim,true,1,658.8000000119209,3,0,0,41387,WMM1,1032184,false,true,1363,image-keyboard-response,10
true,10,2,2,2,true,d,false,true,0.0-2.0-0.46-0.420-3.420,0,0,0,68,false,stim,false,1,588.3000000119209,3,0,1,41387,WMM1,1034294,false,false,1366,image-keyboard-response,11
true,10,2,2,1,false,z,false,false,0.0-2.0-0.46-0.421-3.421,0,0,0,68,false,stim,true,2,1015.0999999642372,3,0,2,41387,WMM1,1036820,false,false,1369,image-keyboard-response,12
true,10,1,2,0,false,q,false,false,0.0-2.0-0.46-0.422-3.422,0,0,0,90,false,stim,true,1,462.80000001192093,3,0,0,41387,WMM1,1038813,false,false,1372,image-keyboard-response,13
true,10,0,2,1,false,z,true,false,0.0-2.0-0.47-0.423-3.423,0,0,0,81,false,stim,false,2,1484.0,3,0,2,41387,WMM1,1041819,false,false,1375,image-keyboard-response,14
true,10,1,2,0,false,q,false,false,0.0-2.0-0.47-0.424-3.424,0,0,0,90,false,stim,true,1,666.6999999880791,3,0,0,41387,WMM1,1043998,false,false,1378,image-keyboard-response,15
true,10,1,2,1,true,z,false,true,0.0-2.0-0.47-0.425-3.425,0,0,0,90,false,stim,false,2,1487.0,3,0,2,41387,WMM1,1047008,false,false,1381,image-keyboard-response,16
true,10,2,2,2,true,d,false,true,0.0-2.0-0.47-0.426-3.426,0,0,0,68,false,stim,false,1,979.0,3,0,1,41387,WMM1,1049521,false,false,1384,image-keyboard-response,17
true,10,2,2,2,true,d,false,true,0.0-2.0-0.47-0.427-3.427,0,0,0,68,false,stim,false,1,552.4000000357628,3,0,1,41387,WMM1,1051595,false,false,1387,image-keyboard-response,18
true,10,1,2,1,true,z,false,true,0.0-2.0-0.47-0.428-3.428,0,0,0,90,false,stim,false,2,682.2000000476837,3,0,2,41387,WMM1,1053802,false,false,1390,image-keyboard-response,19
true,10,1,2,0,false,q,false,false,0.0-2.0-0.47-0.429-3.429,0,0,0,90,false,stim,true,1,859.0,3,0,0,41387,WMM1,1056190,false,false,1393,image-keyboard-response,20
true,10,2,2,2,true,d,false,true,0.0-2.0-0.47-0.430-3.430,0,0,0,68,false,stim,false,1,576.0,3,0,1,41387,WMM1,1058282,false,false,1396,image-keyboard-response,21
true,10,0,2,0,true,q,false,true,0.0-2.0-0.47-0.431-3.431,0,0,0,81,false,stim,false,1,977.3999999761581,3,0,0,41387,WMM1,1060786,false,false,1399,image-keyboard-response,22
true,10,0,2,0,true,q,false,true,0.0-2.0-0.48-0.432-3.432,0,0,0,81,false,stim,false,1,379.5,3,0,0,41387,WMM1,1062690,false,false,1402,image-keyboard-response,23
true,10,0,2,0,true,q,false,true,0.0-2.0-0.48-0.433-3.433,0,0,0,81,false,stim,false,1,433.19999998807907,3,0,0,41387,WMM1,1064663,false,false,1405,image-keyboard-response,24
true,10,1,2,2,false,d,false,false,0.0-2.0-0.48-0.434-3.434,0,0,0,90,false,stim,true,1,594.6000000238419,3,0,1,41387,WMM1,1066781,false,false,1408,image-keyboard-response,25
true,10,2,2,2,true,d,false,true,0.0-2.0-0.48-0.435-3.435,0,0,0,68,false,stim,false,1,1001.6999999880791,3,0,1,41387,WMM1,1069305,false,false,1411,image-keyboard-response,26
true,10,1,2,1,true,z,false,true,0.0-2.0-0.48-0.436-3.436,0,0,0,90,false,stim,false,2,474.0,3,0,2,41387,WMM1,1071318,false,false,1414,image-keyboard-response,27
true,10,0,2,0,true,q,false,true,0.0-2.0-0.48-0.437-3.437,0,0,0,81,false,stim,false,1,494.5,3,0,0,41387,WMM1,1073320,false,false,1417,image-keyboard-response,28
true,10,2,2,2,true,d,false,true,0.0-2.0-0.48-0.438-3.438,0,0,0,68,false,stim,false,1,559.8999999761581,3,0,1,41387,WMM1,1075402,false,false,1420,image-keyboard-response,29
true,10,1,2,1,true,z,false,true,0.0-2.0-0.48-0.439-3.439,0,0,0,90,false,stim,false,2,392.7999999523163,3,0,2,41387,WMM1,1077319,false,false,1423,image-keyboard-response,30
true,10,1,2,1,true,z,false,true,0.0-2.0-0.48-0.440-3.440,0,0,0,90,false,stim,false,2,391.5,3,0,2,41387,WMM1,1079221,false,false,1426,image-keyboard-response,31
true,10,2,2,2,true,d,false,true,0.0-2.0-0.49-0.441-3.441,0,0,0,68,false,stim,false,1,810.6999999880791,3,0,1,41387,WMM1,1081553,false,false,1429,image-keyboard-response,32
true,10,1,2,1,true,z,false,true,0.0-2.0-0.49-0.442-3.442,0,0,0,90,false,stim,false,2,534.1999999880791,3,0,2,41387,WMM1,1083609,false,false,1432,image-keyboard-response,33
true,11,0,1,2,false,d,false,false,0.0-2.0-0.49-0.443-3.443,0,0,0,81,true,stim,true,0,643.6999999880791,3,0,0,41387,WMM1,1085792,false,false,1435,image-keyboard-response,1
true,11,2,1,1,false,z,false,false,0.0-2.0-0.49-0.444-3.444,0,0,0,68,false,stim,true,2,596.5,3,0,1,41387,WMM1,1087921,false,false,1438,image-keyboard-response,2
true,11,1,1,2,false,d,false,false,0.0-2.0-0.49-0.445-3.445,0,0,0,90,false,stim,true,1,503.0,3,0,2,41387,WMM1,1089951,false,false,1441,image-keyboard-response,3
true,11,0,1,2,false,d,false,false,0.0-2.0-0.49-0.446-3.446,0,0,0,81,false,stim,true,0,614.8999999761581,3,0,0,41387,WMM1,1092096,false,false,1444,image-keyboard-response,4
true,11,1,1,2,false,d,false,false,0.0-2.0-0.49-0.447-3.447,0,0,0,90,false,stim,true,1,360.80000001192093,3,0,2,41387,WMM1,1093970,false,false,1447,image-keyboard-response,5
true,11,2,1,1,false,z,false,false,0.0-2.0-0.49-0.448-3.448,0,0,0,68,false,stim,true,2,446.7000000476837,3,0,1,41387,WMM1,1095934,false,false,1450,image-keyboard-response,6
true,11,0,1,2,false,d,false,false,0.0-2.0-0.49-0.449-3.449,0,0,0,81,false,stim,true,0,466.69999998807907,3,0,0,41387,WMM1,1097925,false,false,1453,image-keyboard-response,7
true,11,2,1,2,true,d,false,true,0.0-2.0-0.50-0.450-3.450,0,0,0,68,false,stim,false,1,564.8000000119209,3,0,2,41387,WMM1,1100002,false,false,1456,image-keyboard-response,8
true,11,0,1,2,false,d,false,false,0.0-2.0-0.50-0.451-3.451,0,0,0,81,false,stim,true,0,762.7000000476837,3,0,0,41387,WMM1,1102297,false,false,1459,image-keyboard-response,9
true,11,2,1,1,false,z,false,false,0.0-2.0-0.50-0.452-3.452,0,0,0,68,false,stim,true,2,560.0,3,0,1,41387,WMM1,1104378,false,false,1462,image-keyboard-response,10
true,11,1,1,2,false,d,false,false,0.0-2.0-0.50-0.453-3.453,0,0,0,90,false,stim,true,1,711.2999999523163,3,0,2,41387,WMM1,1106624,false,false,1465,image-keyboard-response,11
true,11,2,1,1,false,z,false,false,0.0-2.0-0.50-0.454-3.454,0,0,0,68,false,stim,true,2,482.0,3,0,1,41387,WMM1,1108632,false,false,1468,image-keyboard-response,12
true,11,1,1,1,true,z,false,true,0.0-2.0-0.50-0.455-3.455,0,0,0,90,false,stim,false,2,431.4000000357628,3,0,1,41387,WMM1,1110589,false,false,1471,image-keyboard-response,13
true,11,1,1,2,false,d,true,false,0.0-2.0-0.50-0.456-3.456,0,0,0,90,false,stim,false,0,489.5,3,0,0,41387,WMM1,1112589,false,false,1474,image-keyboard-response,14
true,11,1,1,2,false,d,false,false,0.0-2.0-0.50-0.457-3.457,0,0,0,90,false,stim,true,1,347.19999998807907,3,0,2,41387,WMM1,1114458,false,false,1477,image-keyboard-response,15
true,11,0,1,2,false,d,false,false,0.0-2.0-0.50-0.458-3.458,0,0,0,81,false,stim,true,0,794.6000000238419,3,0,0,41387,WMM1,1116784,false,false,1480,image-keyboard-response,16
true,11,0,1,2,false,d,true,false,0.0-2.0-0.51-0.459-3.459,0,0,0,81,false,stim,false,1,1120.5,3,0,2,41387,WMM1,1119438,false,false,1483,image-keyboard-response,17
true,11,2,1,2,true,d,false,true,0.0-2.0-0.51-0.460-3.460,0,0,0,68,false,stim,false,1,1092.699999988079,3,0,2,41387,WMM1,1122055,false,false,1486,image-keyboard-response,18
true,11,0,1,2,false,d,false,false,0.0-2.0-0.51-0.461-3.461,0,0,0,81,false,stim,true,0,679.1999999880791,3,0,0,41387,WMM1,1124265,false,false,1489,image-keyboard-response,19
true,11,2,1,2,true,d,false,false,0.0-2.0-0.51-0.462-3.462,0,0,0,68,false,stim,false,1,776.7000000476837,3,0,2,41387,WMM1,1126572,false,true,1492,image-keyboard-response,20
true,11,1,1,2,false,d,true,false,0.0-2.0-0.51-0.463-3.463,0,0,0,90,false,stim,false,0,704.1000000238419,3,0,0,41387,WMM1,1128809,false,false,1495,image-keyboard-response,21
true,11,1,1,1,true,z,false,true,0.0-2.0-0.51-0.464-3.464,0,0,0,90,false,stim,false,2,861.6999999880791,3,0,1,41387,WMM1,1131200,false,false,1498,image-keyboard-response,22
true,11,1,1,1,true,z,false,true,0.0-2.0-0.51-0.465-3.465,0,0,0,90,false,stim,false,2,342.5,3,0,1,41387,WMM1,1133070,false,false,1501,image-keyboard-response,23
true,11,1,1,1,true,z,false,true,0.0-2.0-0.51-0.466-3.466,0,0,0,90,false,stim,false,2,326.0,3,0,1,41387,WMM1,1134939,false,false,1504,image-keyboard-response,24
true,11,1,1,2,false,d,true,false,0.0-2.0-0.51-0.467-3.467,0,0,0,90,false,stim,false,0,823.3999999761581,3,0,0,41387,WMM1,1137280,false,false,1507,image-keyboard-response,25
true,11,2,1,2,true,d,false,true,0.0-2.0-0.52-0.468-3.468,0,0,0,68,false,stim,false,1,593.3999999761581,3,0,2,41387,WMM1,1139402,false,false,1510,image-keyboard-response,26
true,11,2,1,2,true,d,false,false,0.0-2.0-0.52-0.469-3.469,0,0,0,68,false,stim,false,0,913.5,3,0,0,41387,WMM1,1141859,false,true,1513,image-keyboard-response,27
true,11,1,1,2,false,d,true,false,0.0-2.0-0.52-0.470-3.470,0,0,0,90,false,stim,false,0,1238.1000000238419,3,0,0,41387,WMM1,1144636,false,false,1516,image-keyboard-response,28
true,11,1,1,1,true,z,false,true,0.0-2.0-0.52-0.471-3.471,0,0,0,90,false,stim,false,2,766.1999999880791,3,0,1,41387,WMM1,1146936,false,false,1519,image-keyboard-response,29
true,11,1,1,1,true,z,false,true,0.0-2.0-0.52-0.472-3.472,0,0,0,90,false,stim,false,2,356.60000002384186,3,0,1,41387,WMM1,1148831,false,false,1522,image-keyboard-response,30
true,11,0,1,2,false,d,false,false,0.0-2.0-0.52-0.473-3.473,0,0,0,81,false,stim,true,0,728.6999999880791,3,0,0,41387,WMM1,1151100,false,false,1525,image-keyboard-response,31
true,11,2,1,2,true,d,false,true,0.0-2.0-0.52-0.474-3.474,0,0,0,68,false,stim,false,1,1225.8999999761581,3,0,2,41387,WMM1,1153845,false,false,1528,image-keyboard-response,32
true,11,1,1,1,true,z,false,true,0.0-2.0-0.52-0.475-3.475,0,0,0,90,false,stim,false,2,373.80000001192093,3,0,1,41387,WMM1,1155750,false,false,1531,image-keyboard-response,33
true,11,2,1,2,true,d,false,false,0.0-2.0-0.52-0.476-3.476,0,0,0,68,false,stim,false,1,617.5,3,0,2,41387,WMM1,1157916,false,true,1534,image-keyboard-response,34
true,11,2,1,2,true,d,false,true,0.0-2.0-0.53-0.477-3.477,0,0,0,68,false,stim,false,1,510.30000001192093,3,0,2,41387,WMM1,1159941,false,false,1537,image-keyboard-response,35
true,11,1,1,2,false,d,true,false,0.0-2.0-0.53-0.478-3.478,0,0,0,90,false,stim,false,0,1353.3999999761581,3,0,0,41387,WMM1,1162824,false,false,1540,image-keyboard-response,36
true,11,1,1,2,false,d,true,false,0.0-2.0-0.53-0.479-3.479,0,0,0,90,false,stim,false,0,420.89999997615814,3,0,0,41387,WMM1,1164781,false,false,1543,image-keyboard-response,37
true,11,1,1,1,true,z,false,true,0.0-2.0-0.53-0.480-3.480,0,0,0,90,false,stim,false,2,1002.6000000238419,3,0,1,41387,WMM1,1167304,false,false,1546,image-keyboard-response,38
true,11,2,1,2,true,d,false,true,0.0-2.0-0.53-0.481-3.481,0,0,0,68,false,stim,false,1,486.80000001192093,3,0,2,41387,WMM1,1169308,false,false,1549,image-keyboard-response,39
true,11,2,1,2,true,d,false,true,0.0-2.0-0.53-0.482-3.482,0,0,0,68,false,stim,false,1,427.80000001192093,3,0,2,41387,WMM1,1171259,false,false,1552,image-keyboard-response,40
true,11,1,1,1,true,z,false,true,0.0-2.0-0.53-0.483-3.483,0,0,0,90,false,stim,false,2,487.80000001192093,3,0,1,41387,WMM1,1173289,false,false,1555,image-keyboard-response,41
true,11,1,1,1,true,z,false,true,0.0-2.0-0.53-0.484-3.484,0,0,0,90,false,stim,false,2,396.0,3,0,1,41387,WMM1,1175211,false,false,1558,image-keyboard-response,42
true,11,1,1,2,false,d,true,false,0.0-2.0-0.53-0.485-3.485,0,0,0,90,false,stim,false,0,1002.4000000357628,3,0,0,41387,WMM1,1177727,false,false,1561,image-keyboard-response,43
true,11,1,1,1,true,z,false,true,0.0-2.0-0.54-0.486-3.486,0,0,0,90,false,stim,false,2,669.6000000238419,3,0,1,41387,WMM1,1179932,false,false,1564,image-keyboard-response,44
true,11,2,1,2,true,d,false,true,0.0-2.0-0.54-0.487-3.487,0,0,0,68,false,stim,false,0,777.5,3,0,0,41387,WMM1,1182230,false,false,1567,image-keyboard-response,45
true,11,1,1,1,true,z,false,false,0.0-2.0-0.54-0.488-3.488,0,0,0,90,false,stim,false,2,747.5,3,0,1,41387,WMM1,1184516,false,true,1570,image-keyboard-response,46
true,11,2,1,2,true,d,false,true,0.0-2.0-0.54-0.489-3.489,0,0,0,68,false,stim,false,0,581.8000000119209,3,0,0,41387,WMM1,1186620,false,false,1573,image-keyboard-response,47
true,11,2,1,1,false,z,false,false,0.0-2.0-0.54-0.490-3.490,0,0,0,68,false,stim,true,2,1131.800000011921,3,0,1,41387,WMM1,1189287,false,false,1576,image-keyboard-response,48
true,11,2,1,2,true,d,false,false,0.0-2.0-0.54-0.491-3.491,0,0,0,68,false,stim,false,1,381.30000001192093,3,0,2,41387,WMM1,1191213,false,true,1579,image-keyboard-response,49
true,11,2,1,2,true,d,false,true,0.0-2.0-0.54-0.492-3.492,0,0,0,68,false,stim,false,0,801.5,3,0,0,41387,WMM1,1193527,false,false,1582,image-keyboard-response,50
true,11,1,1,2,false,d,false,false,0.0-2.0-0.54-0.493-3.493,0,0,0,90,false,stim,true,1,381.30000001192093,3,0,2,41387,WMM1,1195426,false,false,1585,image-keyboard-response,51
true,11,0,1,2,false,d,true,false,0.0-2.0-0.54-0.494-3.494,0,0,0,81,false,stim,false,1,1237.8999999761581,3,0,2,41387,WMM1,1198187,false,false,1588,image-keyboard-response,52
true,11,2,1,2,true,d,false,true,0.0-2.0-0.55-0.495-3.495,0,0,0,68,false,stim,false,0,697.8999999761581,3,0,0,41387,WMM1,1200422,false,false,1591,image-keyboard-response,53
true,11,1,1,1,true,z,false,true,0.0-2.0-0.55-0.496-3.496,0,0,0,90,false,stim,false,2,423.30000001192093,3,0,1,41387,WMM1,1202376,false,false,1594,image-keyboard-response,54
true,11,1,1,2,false,d,false,false,0.0-2.0-0.55-0.497-3.497,0,0,0,90,false,stim,true,1,929.0,3,0,2,41387,WMM1,1204846,false,false,1597,image-keyboard-response,55
true,11,2,1,2,true,d,false,true,0.0-2.0-0.55-0.498-3.498,0,0,0,68,false,stim,false,0,636.1000000238419,3,0,0,41387,WMM1,1206998,false,false,1600,image-keyboard-response,56
true,11,0,1,2,false,d,true,false,0.0-2.0-0.55-0.499-3.499,0,0,0,81,false,stim,false,1,787.1999999880791,3,0,2,41387,WMM1,1209313,false,false,1603,image-keyboard-response,57
true,12,1,2,2,false,d,false,false,0.0-2.0-0.55-0.500-3.500,0,0,0,90,true,stim,true,1,647.4000000357628,3,0,1,41387,WMM1,1211487,false,false,1606,image-keyboard-response,1
true,12,1,2,1,true,z,false,true,0.0-2.0-0.55-0.501-3.501,0,0,0,90,false,stim,false,2,984.1999999880791,3,0,2,41387,WMM1,1213978,false,false,1609,image-keyboard-response,2
true,12,2,2,0,false,q,false,false,0.0-2.0-0.55-0.502-3.502,0,0,0,68,false,stim,true,2,653.8000000119209,3,0,0,41387,WMM1,1216159,false,false,1612,image-keyboard-response,3
true,12,1,2,2,false,d,false,false,0.0-2.0-0.55-0.503-3.503,0,0,0,90,false,stim,true,1,586.5,3,0,1,41387,WMM1,1218270,false,false,1615,image-keyboard-response,4
true,12,1,2,1,true,z,false,true,0.0-2.0-0.56-0.504-3.504,0,0,0,90,false,stim,false,2,478.39999997615814,3,0,2,41387,WMM1,1220285,false,false,1618,image-keyboard-response,5
true,12,2,2,2,true,d,false,true,0.0-2.0-0.56-0.505-3.505,0,0,0,68,false,stim,false,1,758.3000000119209,3,0,1,41387,WMM1,1222562,false,false,1621,image-keyboard-response,6
true,12,1,2,1,true,z,false,true,0.0-2.0-0.56-0.506-3.506,0,0,0,90,false,stim,false,2,853.5,3,0,2,41387,WMM1,1224947,false,false,1624,image-keyboard-response,7
true,12,2,2,2,true,d,false,true,0.0-2.0-0.56-0.507-3.507,0,0,0,68,false,stim,false,1,369.7000000476837,3,0,1,41387,WMM1,1226845,false,false,1627,image-keyboard-response,8
true,12,2,2,2,true,d,false,true,0.0-2.0-0.56-0.508-3.508,0,0,0,68,false,stim,false,1,396.0,3,0,1,41387,WMM1,1228757,false,false,1630,image-keyboard-response,9
true,12,1,2,1,true,z,false,true,0.0-2.0-0.56-0.509-3.509,0,0,0,90,false,stim,false,2,779.1000000238419,3,0,2,41387,WMM1,1231073,false,false,1633,image-keyboard-response,10
true,12,2,2,0,false,q,false,true,0.0-2.0-0.56-0.510-3.510,0,0,0,68,false,stim,true,2,922.7000000476837,3,0,0,41387,WMM1,1233516,false,true,1636,image-keyboard-response,11
true,12,2,2,0,false,q,false,false,0.0-2.0-0.56-0.511-3.511,0,0,0,68,false,stim,true,2,959.1999999880791,3,0,0,41387,WMM1,1235995,false,false,1639,image-keyboard-response,12
true,12,2,2,0,false,q,false,true,0.0-2.0-0.56-0.512-3.512,0,0,0,68,false,stim,true,2,528.0,3,0,0,41387,WMM1,1238050,false,true,1642,image-keyboard-response,13
true,12,2,2,0,false,q,false,false,0.0-2.0-0.57-0.513-3.513,0,0,0,68,false,stim,true,2,455.39999997615814,3,0,0,41387,WMM1,1240034,false,false,1645,image-keyboard-response,14
true,12,2,2,0,false,q,false,false,0.0-2.0-0.57-0.514-3.514,0,0,0,68,false,stim,true,2,409.0,3,0,0,41387,WMM1,1241975,false,false,1648,image-keyboard-response,15
true,12,1,2,2,false,d,false,false,0.0-2.0-0.57-0.515-3.515,0,0,0,90,false,stim,true,1,559.0,3,0,1,41387,WMM1,1244063,false,false,1651,image-keyboard-response,16
true,12,2,2,2,true,d,false,true,0.0-2.0-0.57-0.516-3.516,0,0,0,68,false,stim,false,1,561.6999999880791,3,0,1,41387,WMM1,1246154,false,false,1654,image-keyboard-response,17
true,12,1,2,1,true,z,false,true,0.0-2.0-0.57-0.517-3.517,0,0,0,90,false,stim,false,2,638.8999999761581,3,0,2,41387,WMM1,1248327,false,false,1657,image-keyboard-response,18
true,12,2,2,2,true,d,false,true,0.0-2.0-0.57-0.518-3.518,0,0,0,68,false,stim,false,1,471.2999999523163,3,0,1,41387,WMM1,1250328,false,false,1660,image-keyboard-response,19
true,12,1,2,1,true,z,false,true,0.0-2.0-0.57-0.519-3.519,0,0,0,90,false,stim,false,2,590.3999999761581,3,0,2,41387,WMM1,1252461,false,false,1663,image-keyboard-response,20
true,12,1,2,1,true,z,false,true,0.0-2.0-0.57-0.520-3.520,0,0,0,90,false,stim,false,2,403.7999999523163,3,0,2,41387,WMM1,1254390,false,false,1666,image-keyboard-response,21
true,12,2,2,0,false,q,false,true,0.0-2.0-0.57-0.521-3.521,0,0,0,68,false,stim,true,2,2226.7000000476837,3,0,0,41387,WMM1,1258145,false,true,1669,image-keyboard-response,22
true,12,2,2,0,false,q,false,false,0.0-2.0-0.58-0.522-3.522,0,0,0,68,false,stim,true,2,443.60000002384186,3,0,0,41387,WMM1,1260119,false,false,1672,image-keyboard-response,23
true,12,1,2,2,false,d,false,false,0.0-2.0-0.58-0.523-3.523,0,0,0,90,false,stim,true,1,376.30000001192093,3,0,1,41387,WMM1,1262029,false,false,1675,image-keyboard-response,24
true,12,2,2,2,true,d,false,true,0.0-2.0-0.58-0.524-3.524,0,0,0,68,false,stim,false,1,615.8000000119209,3,0,1,41387,WMM1,1264167,false,false,1678,image-keyboard-response,25
true,12,2,2,0,false,q,false,false,0.0-2.0-0.58-0.525-3.525,0,0,0,68,false,stim,true,2,509.0,3,0,0,41387,WMM1,1266226,false,false,1681,image-keyboard-response,26
true,12,1,2,1,true,z,false,true,0.0-2.0-0.58-0.526-3.526,0,0,0,90,false,stim,false,2,481.10000002384186,3,0,2,41387,WMM1,1268238,false,false,1684,image-keyboard-response,27
true,12,2,2,2,true,d,false,true,0.0-2.0-0.58-0.527-3.527,0,0,0,68,false,stim,false,1,598.1999999880791,3,0,1,41387,WMM1,1270367,false,false,1687,image-keyboard-response,28
true,12,1,2,1,true,z,false,true,0.0-2.0-0.58-0.528-3.528,0,0,0,90,false,stim,false,2,605.1999999880791,3,0,2,41387,WMM1,1272491,false,false,1690,image-keyboard-response,29
true,12,0,2,0,true,q,false,true,0.0-2.0-0.58-0.529-3.529,0,0,0,81,false,stim,false,2,1384.2999999523163,3,0,0,41387,WMM1,1275390,false,false,1693,image-keyboard-response,30
true,12,1,2,1,true,z,false,true,0.0-2.0-0.58-0.530-3.530,0,0,0,90,false,stim,false,2,754.5999999642372,3,0,2,41387,WMM1,1277700,false,false,1696,image-keyboard-response,31
true,12,0,2,0,true,q,false,true,0.0-2.0-0.59-0.531-3.531,0,0,0,81,false,stim,false,2,686.4000000357628,3,0,0,41387,WMM1,1279915,false,false,1699,image-keyboard-response,32
true,12,1,2,1,true,z,false,true,0.0-2.0-0.59-0.532-3.532,0,0,0,90,false,stim,false,2,573.6999999880791,3,1,2,41387,WMM1,1282027,false,false,1702,image-keyboard-response,33
true,12,2,2,2,true,d,false,true,0.0-2.0-0.59-0.533-3.533,0,0,0,68,false,stim,false,1,1217.300000011921,3,0,1,41387,WMM1,1284773,false,false,1705,image-keyboard-response,34
true,12,2,2,2,true,d,false,true,0.0-2.0-0.59-0.534-3.534,0,0,0,68,false,stim,false,1,585.8000000119209,3,0,1,41387,WMM1,1286895,false,false,1708,image-keyboard-response,35
true,12,1,2,1,true,z,false,true,0.0-2.0-0.59-0.535-3.535,0,0,0,90,false,stim,false,2,620.8999999761581,3,1,2,41387,WMM1,1289044,false,false,1711,image-keyboard-response,36
true,12,1,2,1,true,z,false,true,0.0-2.0-0.59-0.536-3.536,0,0,0,90,false,stim,false,2,341.19999998807907,3,1,2,41387,WMM1,1290933,false,false,1714,image-keyboard-response,37
true,12,0,2,0,true,q,false,true,0.0-2.0-0.59-0.537-3.537,0,0,0,81,false,stim,false,2,731.0,3,0,0,41387,WMM1,1293200,false,false,1717,image-keyboard-response,38
true,12,0,2,0,true,q,false,true,0.0-2.0-0.59-0.538-3.538,0,0,0,81,false,stim,false,2,567.1999999880791,3,0,0,41387,WMM1,1295281,false,false,1720,image-keyboard-response,39
true,12,2,2,2,true,d,false,true,0.0-2.0-0.59-0.539-3.539,0,0,0,68,false,stim,false,1,733.5,3,0,1,41387,WMM1,1297541,false,false,1723,image-keyboard-response,40
true,12,1,2,1,true,z,false,true,0.0-2.0-0.60-0.540-3.540,0,0,0,90,false,stim,false,2,486.60000002384186,3,1,2,41387,WMM1,1299532,false,false,1726,image-keyboard-response,41
true,12,2,2,2,true,d,false,true,0.0-2.0-0.60-0.541-3.541,0,0,0,68,false,stim,false,1,587.0999999642372,3,0,1,41387,WMM1,1301655,false,false,1729,image-keyboard-response,42
true,13,1,3,1,true,z,false,true,0.0-2.0-0.60-0.542-3.542,0,0,1,90,true,stim,false,1,388.60000002384186,3,1,2,41387,WMM1,1303583,false,false,1732,image-keyboard-response,1
true,13,1,3,1,true,z,false,true,0.0-2.0-0.60-0.543-3.543,0,0,1,90,false,stim,false,1,535.1999999880791,3,1,2,41387,WMM1,1305639,false,false,1735,image-keyboard-response,2
true,13,2,3,1,false,z,false,true,0.0-2.0-0.60-0.544-3.544,0,0,1,68,false,stim,true,2,668.3999999761581,3,0,1,41387,WMM1,1307831,false,true,1738,image-keyboard-response,3
true,13,0,3,2,false,d,false,false,0.0-2.0-0.60-0.545-3.545,0,0,1,81,false,stim,true,0,607.0,3,0,0,41387,WMM1,1309956,false,false,1741,image-keyboard-response,4
true,13,0,3,2,false,d,false,false,0.0-2.0-0.60-0.546-3.546,0,0,1,81,false,stim,true,0,884.6999999880791,3,0,0,41387,WMM1,1312354,false,false,1744,image-keyboard-response,5
true,13,2,3,1,false,z,false,true,0.0-2.0-0.60-0.547-3.547,0,0,1,68,false,stim,true,2,535.7999999523163,3,0,1,41387,WMM1,1314428,false,true,1747,image-keyboard-response,6
true,13,1,3,2,false,d,true,false,0.0-2.0-0.60-0.548-3.548,0,0,1,90,false,stim,false,0,951.0999999642372,3,0,0,41387,WMM1,1316904,false,false,1750,image-keyboard-response,7
true,13,1,3,1,true,z,false,true,0.0-2.0-0.61-0.549-3.549,0,0,1,90,false,stim,false,1,762.6999999880791,3,1,2,41387,WMM1,1319200,false,false,1753,image-keyboard-response,8
true,13,1,3,1,true,z,false,true,0.0-2.0-0.61-0.550-3.550,0,0,1,90,false,stim,false,1,345.4000000357628,3,1,2,41387,WMM1,1321090,false,false,1756,image-keyboard-response,9
true,13,2,3,1,false,z,false,false,0.0-2.0-0.61-0.551-3.551,0,0,1,68,false,stim,true,2,488.5,3,0,1,41387,WMM1,1323127,false,false,1759,image-keyboard-response,10
true,13,2,3,1,false,z,false,false,0.0-2.0-0.61-0.552-3.552,0,0,1,68,false,stim,true,2,612.6999999880791,3,0,1,41387,WMM1,1325268,false,false,1762,image-keyboard-response,11
true,13,1,3,1,true,z,false,true,0.0-2.0-0.61-0.553-3.553,0,0,1,90,false,stim,false,1,382.19999998807907,3,1,2,41387,WMM1,1327176,false,false,1765,image-keyboard-response,12
true,13,0,3,1,false,z,true,false,0.0-2.0-0.61-0.554-3.554,0,0,1,81,false,stim,false,2,696.7000000476837,3,0,1,41387,WMM1,1329403,false,false,1768,image-keyboard-response,13
true,13,0,3,2,false,d,false,false,0.0-2.0-0.61-0.555-3.555,0,0,1,81,false,stim,true,0,533.1000000238419,3,0,0,41387,WMM1,1331454,false,false,1771,image-keyboard-response,14
true,13,1,3,2,false,d,true,false,0.0-2.0-0.61-0.556-3.556,0,0,1,90,false,stim,false,0,665.4000000357628,3,0,0,41387,WMM1,1333634,false,false,1774,image-keyboard-response,15
true,13,1,3,2,false,d,true,false,0.0-2.0-0.61-0.557-3.557,0,0,1,90,false,stim,false,0,506.9000000357628,3,0,0,41387,WMM1,1335668,false,false,1777,image-keyboard-response,16
true,13,1,3,1,true,z,false,true,0.0-2.0-0.62-0.558-3.558,0,0,1,90,false,stim,false,2,504.60000002384186,3,0,1,41387,WMM1,1337719,false,false,1780,image-keyboard-response,17
true,13,1,3,1,true,z,false,true,0.0-2.0-0.62-0.559-3.559,0,0,1,90,false,stim,false,1,385.2000000476837,3,1,2,41387,WMM1,1339640,false,false,1783,image-keyboard-response,18
true,13,1,3,1,true,z,false,true,0.0-2.0-0.62-0.560-3.560,0,0,1,90,false,stim,false,2,492.39999997615814,3,0,1,41387,WMM1,1341662,false,false,1786,image-keyboard-response,19
true,13,1,3,1,true,z,false,true,0.0-2.0-0.62-0.561-3.561,0,0,1,90,false,stim,false,1,455.5999999642372,3,1,2,41387,WMM1,1343632,false,false,1789,image-keyboard-response,20
true,13,1,3,2,false,d,true,false,0.0-2.0-0.62-0.562-3.562,0,0,1,90,false,stim,false,0,1298.5,3,0,0,41387,WMM1,1346467,false,false,1792,image-keyboard-response,21
true,13,2,3,2,true,d,false,true,0.0-2.0-0.62-0.563-3.563,0,0,1,68,false,stim,false,0,689.6999999880791,3,0,0,41387,WMM1,1348680,false,false,1795,image-keyboard-response,22
true,13,1,3,1,true,z,false,true,0.0-2.0-0.62-0.564-3.564,0,0,1,90,false,stim,false,2,456.5999999642372,3,0,1,41387,WMM1,1350657,false,false,1798,image-keyboard-response,23
true,13,2,3,2,true,d,false,true,0.0-2.0-0.62-0.565-3.565,0,0,1,68,false,stim,false,0,576.3000000119209,3,0,0,41387,WMM1,1352796,false,false,1801,image-keyboard-response,24
true,13,1,3,1,true,z,false,true,0.0-2.0-0.62-0.566-3.566,0,0,1,90,false,stim,false,1,394.5,3,1,2,41387,WMM1,1354723,false,false,1804,image-keyboard-response,25
true,13,1,3,1,true,z,false,true,0.0-2.0-0.63-0.567-3.567,0,0,1,90,false,stim,false,2,355.80000001192093,3,1,1,41387,WMM1,1356611,false,false,1807,image-keyboard-response,26
true,13,1,3,1,true,z,false,true,0.0-2.0-0.63-0.568-3.568,0,0,1,90,false,stim,false,2,358.5,3,1,1,41387,WMM1,1358495,false,false,1810,image-keyboard-response,27
true,13,1,3,1,true,z,false,true,0.0-2.0-0.63-0.569-3.569,0,0,1,90,false,stim,false,1,390.0999999642372,3,1,2,41387,WMM1,1360432,false,false,1813,image-keyboard-response,28
true,13,1,3,1,true,z,false,true,0.0-2.0-0.63-0.570-3.570,0,0,1,90,false,stim,false,1,361.80000001192093,3,1,2,41387,WMM1,1362326,false,false,1816,image-keyboard-response,29
true,13,1,3,1,true,z,false,true,0.0-2.0-0.63-0.571-3.571,0,0,1,90,false,stim,false,2,348.2999999523163,3,1,1,41387,WMM1,1364208,false,false,1819,image-keyboard-response,30
true,13,1,3,1,true,z,false,true,0.0-2.0-0.63-0.572-3.572,0,0,1,90,false,stim,false,1,390.30000001192093,3,1,2,41387,WMM1,1366131,false,false,1822,image-keyboard-response,31
true,13,2,3,2,true,d,false,true,0.0-2.0-0.63-0.573-3.573,0,0,1,68,false,stim,false,0,610.8999999761581,3,1,0,41387,WMM1,1368268,false,false,1825,image-keyboard-response,32
true,13,2,3,2,true,d,false,true,0.0-2.0-0.63-0.574-3.574,0,0,1,68,false,stim,false,0,741.6000000238419,3,1,0,41387,WMM1,1370530,false,false,1828,image-keyboard-response,33
true,13,2,3,2,true,d,false,true,0.0-2.0-0.63-0.575-3.575,0,0,1,68,false,stim,false,0,388.80000001192093,3,1,0,41387,WMM1,1372435,false,false,1831,image-keyboard-response,34
true,14,0,0,1,false,z,true,false,0.0-2.0-0.64-0.576-3.576,1,1,1,81,true,stim,false,1,1269.1000000238419,3,1,2,41387,WMM1,1496441,false,false,1954,image-keyboard-response,1
true,14,1,0,2,false,d,true,false,0.0-2.0-0.64-0.577-3.577,1,1,1,90,false,stim,false,2,481.0,3,1,0,41387,WMM1,1498437,false,false,1957,image-keyboard-response,2
true,14,2,0,2,true,d,false,true,0.0-2.0-0.64-0.578-3.578,1,1,1,68,false,stim,false,2,692.1999999880791,3,1,0,41387,WMM1,1500661,false,false,1960,image-keyboard-response,3
true,14,2,0,2,true,d,false,true,0.0-2.0-0.64-0.579-3.579,1,1,1,68,false,stim,false,2,606.7000000476837,3,1,0,41387,WMM1,1502790,false,false,1963,image-keyboard-response,4
true,14,1,0,1,true,z,false,true,0.0-2.0-0.64-0.580-3.580,1,1,1,90,false,stim,false,1,480.30000001192093,3,1,1,41387,WMM1,1504787,false,false,1966,image-keyboard-response,5
true,14,0,0,1,false,z,true,false,0.0-2.0-0.64-0.581-3.581,1,1,1,81,false,stim,false,1,1161.300000011921,3,1,2,41387,WMM1,1507468,false,false,1969,image-keyboard-response,6
true,14,1,0,1,true,z,false,true,0.0-2.0-0.64-0.582-3.582,1,1,1,90,false,stim,false,1,761.1000000238419,3,1,2,41387,WMM1,1509751,false,false,1972,image-keyboard-response,7
true,14,1,0,1,true,z,false,true,0.0-2.0-0.64-0.583-3.583,1,1,1,90,false,stim,false,1,375.9000000357628,3,1,1,41387,WMM1,1511652,false,false,1975,image-keyboard-response,8
true,14,1,0,1,true,z,false,true,0.0-2.0-0.64-0.584-3.584,1,1,1,90,false,stim,false,1,366.10000002384186,3,1,1,41387,WMM1,1513547,false,false,1978,image-keyboard-response,9
true,14,1,0,1,true,z,false,true,0.0-2.0-0.65-0.585-3.585,1,1,1,90,false,stim,false,1,336.2000000476837,3,1,2,41387,WMM1,1515410,false,false,1981,image-keyboard-response,10
true,14,1,0,1,true,z,false,true,0.0-2.0-0.65-0.586-3.586,1,1,1,90,false,stim,false,1,455.89999997615814,3,1,1,41387,WMM1,1517393,false,false,1984,image-keyboard-response,11
true,14,1,0,1,true,z,false,true,0.0-2.0-0.65-0.587-3.587,1,1,1,90,false,stim,false,1,393.30000001192093,3,1,1,41387,WMM1,1519315,false,false,1987,image-keyboard-response,12
true,14,2,0,2,true,d,false,true,0.0-2.0-0.65-0.588-3.588,1,1,1,68,false,stim,false,2,494.69999998807907,3,1,0,41387,WMM1,1521323,false,false,1990,image-keyboard-response,13
true,14,1,0,1,true,z,false,false,0.0-2.0-0.65-0.589-3.589,1,1,1,90,false,stim,false,1,407.69999998807907,3,1,2,41387,WMM1,1523255,false,true,1993,image-keyboard-response,14
true,14,2,0,2,true,d,false,true,0.0-2.0-0.65-0.590-3.590,1,1,1,68,false,stim,false,2,536.6999999880791,3,1,0,41387,WMM1,1525311,false,false,1996,image-keyboard-response,15
true,14,1,0,1,true,z,false,true,0.0-2.0-0.65-0.591-3.591,1,1,1,90,false,stim,false,1,467.69999998807907,3,1,2,41387,WMM1,1527302,false,false,1999,image-keyboard-response,16
true,14,2,0,2,true,d,false,false,0.0-2.0-0.65-0.592-3.592,1,1,1,68,false,stim,false,2,605.6999999880791,3,1,0,41387,WMM1,1529448,false,true,2002,image-keyboard-response,17
true,14,1,0,1,true,z,false,true,0.0-2.0-0.65-0.593-3.593,1,1,1,90,false,stim,false,1,385.19999998807907,3,1,1,41387,WMM1,1531357,false,false,2005,image-keyboard-response,18
true,14,1,0,1,true,z,false,true,0.0-2.0-0.66-0.594-3.594,1,1,1,90,false,stim,false,1,745.0,3,1,2,41387,WMM1,1533625,false,false,2008,image-keyboard-response,19
