answered,blockNum,choice,condition,corResp,correct,correct_response,explo,fb,internal_node_id,isStable_1,isStable_2,isStable_3,key_press,newBlock,part,persev,persevResp,rt,sessNum,stableAS,stimulus,subject,task,time_elapsed,training,trap,trial_index,trial_type,trialsInBlock
true,1,0,0,0,true,q,false,true,0.0-2.0-0.0-0.0-3.0,0,0,0,81,true,stim,false,-1,1895.5,1,0,2,41387,WMM2,328307,false,false,79,image-keyboard-response,1
true,1,1,0,2,false,d,true,false,0.0-2.0-0.0-0.1-3.1,0,0,0,90,false,stim,false,-1,954.8999999761581,1,0,1,41387,WMM2,330786,false,false,82,image-keyboard-response,2
true,1,2,0,2,true,d,false,false,0.0-2.0-0.0-0.2-3.2,0,0,0,68,false,stim,false,-1,1301.199999988079,1,0,0,41387,WMM2,333610,false,true,85,image-keyboard-response,3
true,1,2,0,2,true,d,false,true,0.0-2.0-0.0-0.3-3.3,0,0,0,68,false,stim,false,-1,1049.699999988079,1,0,1,41387,WMM2,336191,false,false,88,image-keyboard-response,4
true,1,0,0,0,true,q,false,false,0.0-2.0-0.0-0.4-3.4,0,0,0,81,false,stim,false,-1,1204.6000000238419,1,0,2,41387,WMM2,338910,false,true,91,image-keyboard-response,5
true,1,0,0,2,false,d,true,false,0.0-2.0-0.0-0.5-3.5,0,0,0,81,false,stim,false,-1,1188.0,1,0,0,41387,WMM2,341616,false,false,94,image-keyboard-response,6
true,1,2,0,2,true,d,false,true,0.0-2.0-0.0-0.6-3.6,0,0,0,68,false,stim,false,-1,837.8000000119209,1,0,1,41387,WMM2,343963,false,false,97,image-keyboard-response,7
true,1,1,0,2,false,d,true,false,0.0-2.0-0.0-0.7-3.7,0,0,0,90,false,stim,false,-1,613.3999999761581,1,0,0,41387,WMM2,346088,false,false,100,image-keyboard-response,8
true,1,1,0,0,false,q,true,true,0.0-2.0-0.0-0.8-3.8,0,0,0,90,false,stim,false,-1,809.8000000119209,1,0,2,41387,WMM2,348421,false,true,103,image-keyboard-response,9
true,1,1,0,0,false,q,true,false,0.0-2.0-0.1-0.9-3.9,0,0,0,90,false,stim,false,-1,399.5,1,0,2,41387,WMM2,350341,false,false,106,image-keyboard-response,10
true,1,2,0,2,true,d,false,false,0.0-2.0-0.1-0.10-3.10,0,0,0,68,false,stim,false,-1,408.10000002384186,1,0,1,41387,WMM2,352276,false,true,109,image-keyboard-response,11
true,1,0,0,2,false,d,true,false,0.0-2.0-0.1-0.11-3.11,0,0,0,81,false,stim,false,-1,567.1000000238419,1,0,0,41387,WMM2,354359,false,false,112,image-keyboard-response,12
true,1,1,0,2,false,d,true,false,0.0-2.0-0.1-0.12-3.12,0,0,0,90,false,stim,false,-1,689.3000000119209,1,0,0,41387,WMM2,356576,false,false,115,image-keyboard-response,13
true,1,0,0,2,false,d,true,false,0.0-2.0-0.1-0.13-3.13,0,0,0,81,false,stim,false,-1,1359.0,1,0,1,41387,WMM2,359452,false,false,118,image-keyboard-response,14
true,1,2,0,0,false,q,true,false,0.0-2.0-0.1-0.14-3.14,0,0,0,68,false,stim,false,-1,1057.6000000238419,1,0,2,41387,WMM2,362018,false,false,121,image-keyboard-response,15
true,1,1,0,0,false,q,true,false,0.0-2.0-0.1-0.15-3.15,0,0,0,90,false,stim,false,-1,905.3999999761581,1,0,2,41387,WMM2,364443,false,false,124,image-keyboard-response,16
true,1,0,0,2,false,d,true,false,0.0-2.0-0.1-0.16-3.16,0,0,0,81,false,stim,false,-1,1048.3999999761581,1,0,1,41387,WMM2,367017,false,false,127,image-keyboard-response,17
true,1,0,0,2,false,d,true,false,0.0-2.0-0.1-0.17-3.17,0,0,0,81,false,stim,false,-1,368.80000001192093,1,0,0,41387,WMM2,368907,false,false,130,image-keyboard-response,18
true,1,0,0,0,true,q,false,true,0.0-2.0-0.2-0.18-3.18,0,0,0,81,false,stim,false,-1,443.0999999642372,1,0,2,41387,WMM2,370879,false,false,133,image-keyboard-response,19
true,1,1,0,2,false,d,true,true,0.0-2.0-0.2-0.19-3.19,0,0,0,90,false,stim,false,-1,1276.8999999761581,1,0,0,41387,WMM2,373681,false,true,136,image-keyboard-response,20
true,1,1,0,2,false,d,true,false,0.0-2.0-0.2-0.20-3.20,0,0,0,90,false,stim,false,-1,401.5999999642372,1,0,0,41387,WMM2,375604,false,false,139,image-keyboard-response,21
true,1,1,0,2,false,d,true,false,0.0-2.0-0.2-0.21-3.21,0,0,0,90,false,stim,false,-1,1093.699999988079,1,0,1,41387,WMM2,378204,false,false,142,image-keyboard-response,22
true,1,1,0,2,false,d,true,false,0.0-2.0-0.2-0.22-3.22,0,0,0,90,false,stim,false,-1,770.8000000119209,1,0,0,41387,WMM2,380500,false,false,145,image-keyboard-response,23
true,1,2,0,2,true,d,false,false,0.0-2.0-0.2-0.23-3.23,0,0,0,68,false,stim,false,-1,781.0,1,0,1,41387,WMM2,382804,false,true,148,image-keyboard-response,24
true,1,0,0,0,true,q,false,true,0.0-2.0-0.2-0.24-3.24,0,0,0,81,false,stim,false,-1,616.1999999880791,1,0,2,41387,WMM2,384942,false,false,151,image-keyboard-response,25
true,1,0,0,0,true,q,false,true,0.0-2.0-0.2-0.25-3.25,0,0,0,81,false,stim,false,-1,664.5999999642372,1,0,2,41387,WMM2,387128,false,false,154,image-keyboard-response,26
true,1,0,0,2,false,d,true,false,0.0-2.0-0.2-0.26-3.26,0,0,0,81,false,stim,false,-1,944.0,1,0,1,41387,WMM2,389579,false,false,157,image-keyboard-response,27
true,1,0,0,2,false,d,true,false,0.0-2.0-0.3-0.27-3.27,0,0,0,81,false,stim,false,-1,443.5999999642372,1,0,1,41387,WMM2,391539,false,false,160,image-keyboard-response,28
true,1,0,0,2,false,d,true,false,0.0-2.0-0.3-0.28-3.28,0,0,0,81,false,stim,false,-1,822.0,1,0,1,41387,WMM2,393871,false,false,163,image-keyboard-response,29
true,1,2,0,2,true,d,false,true,0.0-2.0-0.3-0.29-3.29,0,0,0,68,false,stim,false,-1,606.0,1,0,0,41387,WMM2,395988,false,false,166,image-keyboard-response,30
true,1,2,0,2,true,d,false,true,0.0-2.0-0.3-0.30-3.30,0,0,0,68,false,stim,false,-1,691.0,1,0,1,41387,WMM2,398211,false,false,169,image-keyboard-response,31
true,1,0,0,0,true,q,false,true,0.0-2.0-0.3-0.31-3.31,0,0,0,81,false,stim,false,-1,544.8000000119209,1,0,2,41387,WMM2,400272,false,false,172,image-keyboard-response,32
true,1,2,0,2,true,d,false,true,0.0-2.0-0.3-0.32-3.32,0,0,0,68,false,stim,false,-1,363.5,1,0,0,41387,WMM2,402153,false,false,175,image-keyboard-response,33
true,1,0,0,0,true,q,false,true,0.0-2.0-0.3-0.33-3.33,0,0,0,81,false,stim,false,-1,749.6999999880791,1,0,2,41387,WMM2,404428,false,false,178,image-keyboard-response,34
true,1,2,0,2,true,d,false,true,0.0-2.0-0.3-0.34-3.34,0,0,0,68,false,stim,false,-1,243.69999998807907,1,0,0,41387,WMM2,406218,false,false,181,image-keyboard-response,35
true,1,0,0,0,true,q,false,true,0.0-2.0-0.3-0.35-3.35,0,0,0,81,false,stim,false,-1,556.3000000119209,1,0,2,41387,WMM2,408301,false,false,184,image-keyboard-response,36
true,1,2,0,2,true,d,false,true,0.0-2.0-0.4-0.36-3.36,0,0,0,68,false,stim,false,-1,412.19999998807907,1,0,1,41387,WMM2,410245,false,false,187,image-keyboard-response,37
true,1,2,0,2,true,d,false,false,0.0-2.0-0.4-0.37-3.37,0,0,0,68,false,stim,false,-1,403.39999997615814,1,1,0,41387,WMM2,412173,false,true,190,image-keyboard-response,38
true,1,0,0,0,true,q,false,true,0.0-2.0-0.4-0.38-3.38,0,0,0,81,false,stim,false,-1,659.0,1,0,2,41387,WMM2,414349,false,false,193,image-keyboard-response,39
true,1,0,0,0,true,q,false,true,0.0-2.0-0.4-0.39-3.39,0,0,0,81,false,stim,false,-1,695.8000000119209,1,0,2,41387,WMM2,416554,false,false,196,image-keyboard-response,40
true,1,2,0,2,true,d,false,true,0.0-2.0-0.4-0.40-3.40,0,0,0,68,false,stim,false,-1,548.6000000238419,1,1,1,41387,WMM2,418623,false,false,199,image-keyboard-response,41
true,1,1,0,2,false,d,true,false,0.0-2.0-0.4-0.41-3.41,0,0,0,90,false,stim,false,-1,1218.2999999523163,1,1,0,41387,WMM2,421379,false,false,202,image-keyboard-response,42
true,1,0,0,0,true,q,false,true,0.0-2.0-0.4-0.42-3.42,0,0,0,81,false,stim,false,-1,577.3000000119209,1,0,2,41387,WMM2,423473,false,false,205,image-keyboard-response,43
true,1,2,0,2,true,d,false,true,0.0-2.0-0.4-0.43-3.43,0,0,0,68,false,stim,false,-1,623.8000000119209,1,1,1,41387,WMM2,425615,false,false,208,image-keyboard-response,44
true,1,0,0,2,false,d,true,false,0.0-2.0-0.4-0.44-3.44,0,0,0,81,false,stim,false,-1,441.69999998807907,1,1,0,41387,WMM2,427581,false,false,211,image-keyboard-response,45
true,1,2,0,2,true,d,false,true,0.0-2.0-0.5-0.45-3.45,0,0,0,68,false,stim,false,-1,915.2000000476837,1,1,1,41387,WMM2,430013,false,false,214,image-keyboard-response,46
true,1,0,0,0,true,q,false,true,0.0-2.0-0.5-0.46-3.46,0,0,0,81,false,stim,false,-1,520.1999999880791,1,0,2,41387,WMM2,432045,false,false,217,image-keyboard-response,47
true,2,2,4,2,true,d,false,true,0.0-2.0-0.5-0.47-3.47,1,1,0,68,true,stim,false,2,826.3999999761581,1,1,1,41387,WMM2,434385,false,false,220,image-keyboard-response,1
true,2,2,4,2,true,d,false,true,0.0-2.0-0.5-0.48-3.48,1,1,0,68,false,stim,false,2,571.6000000238419,1,1,1,41387,WMM2,436479,false,false,223,image-keyboard-response,2
true,2,2,4,2,true,d,false,true,0.0-2.0-0.5-0.49-3.49,1,1,0,68,false,stim,false,2,402.89999997615814,1,1,0,41387,WMM2,438405,false,false,226,image-keyboard-response,3
true,2,0,4,0,true,q,false,true,0.0-2.0-0.5-0.50-3.50,1,1,0,81,false,stim,false,0,484.10000002384186,1,0,2,41387,WMM2,440412,false,false,229,image-keyboard-response,4
true,2,2,4,2,true,d,false,true,0.0-2.0-0.5-0.51-3.51,1,1,0,68,false,stim,false,2,416.69999998807907,1,1,0,41387,WMM2,442344,false,false,232,image-keyboard-response,5
true,2,0,4,0,true,q,false,true,0.0-2.0-0.5-0.52-3.52,1,1,0,81,false,stim,false,0,626.5,1,0,2,41387,WMM2,444494,false,false,235,image-keyboard-response,6
true,2,2,4,2,true,d,false,true,0.0-2.0-0.5-0.53-3.53,1,1,0,68,false,stim,false,2,429.60000002384186,1,1,0,41387,WMM2,446437,false,false,238,image-keyboard-response,7
true,2,2,4,2,true,d,false,true,0.0-2.0-0.6-0.54-3.54,1,1,0,68,false,stim,false,2,372.19999998807907,1,1,0,41387,WMM2,448325,false,false,241,image-keyboard-response,8
true,2,0,4,0,true,q,false,true,0.0-2.0-0.6-0.55-3.55,1,1,0,81,false,stim,false,0,540.1999999880791,1,0,2,41387,WMM2,450391,false,false,244,image-keyboard-response,9
true,2,2,4,2,true,d,false,false,0.0-2.0-0.6-0.56-3.56,1,1,0,68,false,stim,false,2,543.8000000119209,1,1,1,41387,WMM2,452456,false,true,247,image-keyboard-response,10
true,2,1,4,2,false,d,true,false,0.0-2.0-0.6-0.57-3.57,1,1,0,90,false,stim,false,2,888.0999999642372,1,1,1,41387,WMM2,454876,false,false,250,image-keyboard-response,11
true,2,2,4,2,true,d,false,false,0.0-2.0-0.6-0.58-3.58,1,1,0,68,false,stim,false,2,860.8000000119209,1,1,0,41387,WMM2,457245,false,true,253,image-keyboard-response,12
true,2,0,4,0,true,q,false,true,0.0-2.0-0.6-0.59-3.59,1,1,0,81,false,stim,false,0,524.9000000357628,1,0,2,41387,WMM2,459278,false,false,256,image-keyboard-response,13
true,2,0,4,0,true,q,false,true,0.0-2.0-0.6-0.60-3.60,1,1,0,81,false,stim,false,0,906.6999999880791,1,0,2,41387,WMM2,461700,false,false,259,image-keyboard-response,14
true,2,0,4,2,false,d,true,true,0.0-2.0-0.6-0.61-3.61,1,1,0,81,false,stim,false,2,637.5,1,1,1,41387,WMM2,463852,false,true,262,image-keyboard-response,15
true,2,0,4,2,false,d,true,false,0.0-2.0-0.6-0.62-3.62,1,1,0,81,false,stim,false,2,910.6000000238419,1,1,0,41387,WMM2,466280,false,false,265,image-keyboard-response,16
true,2,0,4,2,false,d,true,false,0.0-2.0-0.7-0.63-3.63,1,1,0,81,false,stim,false,2,873.0999999642372,1,1,1,41387,WMM2,468683,false,false,268,image-keyboard-response,17
true,2,0,4,0,true,q,false,true,0.0-2.0-0.7-0.64-3.64,1,1,0,81,false,stim,false,0,745.0,1,0,2,41387,WMM2,470946,false,false,271,image-keyboard-response,18
true,2,2,4,2,true,d,false,true,0.0-2.0-0.7-0.65-3.65,1,1,0,68,false,stim,false,2,530.0,1,1,0,41387,WMM2,472990,false,false,274,image-keyboard-response,19
true,2,0,4,2,false,d,true,false,0.0-2.0-0.7-0.66-3.66,1,1,0,81,false,stim,false,2,796.6999999880791,1,1,1,41387,WMM2,475304,false,false,277,image-keyboard-response,20
true,2,1,4,2,false,d,true,false,0.0-2.0-0.7-0.67-3.67,1,1,0,90,false,stim,false,2,1399.3999999761581,1,1,0,41387,WMM2,478225,false,false,280,image-keyboard-response,21
true,2,0,4,0,true,q,false,true,0.0-2.0-0.7-0.68-3.68,1,1,0,81,false,stim,false,0,705.0,1,0,2,41387,WMM2,480446,false,false,283,image-keyboard-response,22
true,2,0,4,0,true,q,false,true,0.0-2.0-0.7-0.69-3.69,1,1,0,81,false,stim,false,0,639.3000000119209,1,0,2,41387,WMM2,482602,false,false,286,image-keyboard-response,23
true,2,2,4,2,true,d,false,true,0.0-2.0-0.7-0.70-3.70,1,1,0,68,false,stim,false,2,682.0,1,1,0,41387,WMM2,484807,false,false,289,image-keyboard-response,24
true,2,2,4,2,true,d,false,true,0.0-2.0-0.7-0.71-3.71,1,1,0,68,false,stim,false,2,729.6999999880791,1,1,1,41387,WMM2,487048,false,false,292,image-keyboard-response,25
true,2,2,4,2,true,d,false,true,0.0-2.0-0.8-0.72-3.72,1,1,0,68,false,stim,false,2,619.1999999880791,1,1,0,41387,WMM2,489176,false,false,295,image-keyboard-response,26
true,2,2,4,2,true,d,false,false,0.0-2.0-0.8-0.73-3.73,1,1,0,68,false,stim,false,2,479.10000002384186,1,1,1,41387,WMM2,491186,false,true,298,image-keyboard-response,27
true,2,2,4,2,true,d,false,true,0.0-2.0-0.8-0.74-3.74,1,1,0,68,false,stim,false,2,467.5,1,0,0,41387,WMM2,493172,false,false,301,image-keyboard-response,28
true,2,2,4,2,true,d,false,true,0.0-2.0-0.8-0.75-3.75,1,1,0,68,false,stim,false,2,391.80000001192093,1,1,1,41387,WMM2,495089,false,false,304,image-keyboard-response,29
true,2,0,4,0,true,q,false,true,0.0-2.0-0.8-0.76-3.76,1,1,0,81,false,stim,false,0,597.4000000357628,1,1,2,41387,WMM2,497202,false,false,307,image-keyboard-response,30
true,2,2,4,0,false,q,true,false,0.0-2.0-0.8-0.77-3.77,1,1,0,68,false,stim,false,0,399.39999997615814,1,1,2,41387,WMM2,499118,false,false,310,image-keyboard-response,31
true,2,0,4,0,true,q,false,true,0.0-2.0-0.8-0.78-3.78,1,1,0,81,false,stim,false,0,566.2000000476837,1,1,2,41387,WMM2,501193,false,false,313,image-keyboard-response,32
true,2,2,4,2,true,d,false,true,0.0-2.0-0.8-0.79-3.79,1,1,0,68,false,stim,false,2,403.39999997615814,1,0,0,41387,WMM2,503128,false,false,316,image-keyboard-response,33
true,2,2,4,2,true,d,false,true,0.0-2.0-0.8-0.80-3.80,1,1,0,68,false,stim,false,2,364.5,1,1,1,41387,WMM2,505014,false,false,319,image-keyboard-response,34
true,2,2,4,2,true,d,false,false,0.0-2.0-0.9-0.81-3.81,1,1,0,68,false,stim,false,2,444.69999998807907,1,1,1,41387,WMM2,506983,false,true,322,image-keyboard-response,35
true,2,0,4,0,true,q,false,true,0.0-2.0-0.9-0.82-3.82,1,1,0,81,false,stim,false,0,504.0999999642372,1,1,2,41387,WMM2,508998,false,false,325,image-keyboard-response,36
true,2,2,4,2,true,d,false,true,0.0-2.0-0.9-0.83-3.83,1,1,0,68,false,stim,false,2,483.30000001192093,1,0,0,41387,WMM2,511000,false,false,328,image-keyboard-response,37
true,3,0,2,0,true,q,false,true,0.0-2.0-0.9-0.84-3.84,0,1,1,81,true,stim,false,0,535.8999999761581,1,1,2,41387,WMM2,513057,false,false,331,image-keyboard-response,1
true,3,2,2,1,false,z,false,false,0.0-2.0-0.9-0.85-3.85,0,1,1,68,false,stim,true,2,435.10000002384186,1,0,0,41387,WMM2,515015,false,false,334,image-keyboard-response,2
true,3,2,2,2,true,d,false,false,0.0-2.0-0.9-0.86-3.86,0,1,1,68,false,stim,false,2,356.4000000357628,1,1,1,41387,WMM2,516901,false,true,337,image-keyboard-response,3
true,3,2,2,2,true,d,false,true,0.0-2.0-0.9-0.87-3.87,0,1,1,68,false,stim,false,2,637.7000000476837,1,1,1,41387,WMM2,519049,false,false,340,image-keyboard-response,4
true,3,2,2,1,false,z,false,false,0.0-2.0-0.9-0.88-3.88,0,1,1,68,false,stim,true,2,397.7000000476837,1,0,0,41387,WMM2,520963,false,false,343,image-keyboard-response,5
true,3,0,2,0,true,q,false,true,0.0-2.0-0.9-0.89-3.89,0,1,1,81,false,stim,false,0,438.69999998807907,1,1,2,41387,WMM2,522920,false,false,346,image-keyboard-response,6
true,3,2,2,1,false,z,false,false,0.0-2.0-0.10-0.90-3.90,0,1,1,68,false,stim,true,2,348.4000000357628,1,0,0,41387,WMM2,524790,false,false,349,image-keyboard-response,7
true,3,2,2,1,false,z,false,false,0.0-2.0-0.10-0.91-3.91,0,1,1,68,false,stim,true,2,446.0999999642372,1,0,0,41387,WMM2,526754,false,false,352,image-keyboard-response,8
true,3,1,2,1,true,z,false,true,0.0-2.0-0.10-0.92-3.92,0,1,1,90,false,stim,false,2,1149.2000000476837,1,0,0,41387,WMM2,529423,false,false,355,image-keyboard-response,9
true,3,2,2,2,true,d,false,true,0.0-2.0-0.10-0.93-3.93,0,1,1,68,false,stim,false,2,1040.1000000238419,1,1,1,41387,WMM2,531985,false,false,358,image-keyboard-response,10
true,3,2,2,2,true,d,false,true,0.0-2.0-0.10-0.94-3.94,0,1,1,68,false,stim,false,2,592.9000000357628,1,1,1,41387,WMM2,534097,false,false,361,image-keyboard-response,11
true,3,0,2,0,true,q,false,true,0.0-2.0-0.10-0.95-3.95,0,1,1,81,false,stim,false,0,564.5999999642372,1,1,2,41387,WMM2,536181,false,false,364,image-keyboard-response,12
true,3,2,2,2,true,d,false,true,0.0-2.0-0.10-0.96-3.96,0,1,1,68,false,stim,false,2,569.0,1,1,1,41387,WMM2,538274,false,false,367,image-keyboard-response,13
true,3,0,2,0,true,q,false,true,0.0-2.0-0.10-0.97-3.97,0,1,1,81,false,stim,false,0,573.0,1,1,2,41387,WMM2,540369,false,false,370,image-keyboard-response,14
true,3,2,2,0,false,q,true,false,0.0-2.0-0.10-0.98-3.98,0,1,1,68,false,stim,false,0,467.5,1,1,2,41387,WMM2,542352,false,false,373,image-keyboard-response,15
true,3,0,2,0,true,q,false,true,0.0-2.0-0.11-0.99-3.99,0,1,1,81,false,stim,false,0,535.7000000476837,1,1,2,41387,WMM2,544403,false,false,376,image-keyboard-response,16
true,3,0,2,0,true,q,false,true,0.0-2.0-0.11-0.100-3.100,0,1,1,81,false,stim,false,0,470.0,1,1,2,41387,WMM2,546392,false,false,379,image-keyboard-response,17
true,3,0,2,0,true,q,false,true,0.0-2.0-0.11-0.101-3.101,0,1,1,81,false,stim,false,0,502.69999998807907,1,1,2,41387,WMM2,548400,false,false,382,image-keyboard-response,18
true,3,2,2,2,true,d,false,true,0.0-2.0-0.11-0.102-3.102,0,1,1,68,false,stim,false,2,629.3000000119209,1,1,1,41387,WMM2,550566,false,false,385,image-keyboard-response,19
true,3,1,2,1,true,z,false,true,0.0-2.0-0.11-0.103-3.103,0,1,1,90,false,stim,false,2,421.80000001192093,1,0,0,41387,WMM2,552499,false,false,388,image-keyboard-response,20
true,3,1,2,1,true,z,false,true,0.0-2.0-0.11-0.104-3.104,0,1,1,90,false,stim,false,2,451.69999998807907,1,1,0,41387,WMM2,554470,false,false,391,image-keyboard-response,21
true,3,2,2,2,true,d,false,true,0.0-2.0-0.11-0.105-3.105,0,1,1,68,false,stim,false,2,952.8999999761581,1,1,1,41387,WMM2,556943,false,false,394,image-keyboard-response,22
true,3,2,2,2,true,d,false,true,0.0-2.0-0.11-0.106-3.106,0,1,1,68,false,stim,false,2,534.5,1,1,1,41387,WMM2,559004,false,false,397,image-keyboard-response,23
true,3,1,2,1,true,z,false,true,0.0-2.0-0.11-0.107-3.107,0,1,1,90,false,stim,false,2,406.80000001192093,1,1,0,41387,WMM2,560932,false,false,400,image-keyboard-response,24
true,3,0,2,0,true,q,false,true,0.0-2.0-0.12-0.108-3.108,0,1,1,81,false,stim,false,0,671.1999999880791,1,0,2,41387,WMM2,563128,false,false,403,image-keyboard-response,25
true,3,0,2,0,true,q,false,false,0.0-2.0-0.12-0.109-3.109,0,1,1,81,false,stim,false,0,525.5,1,0,2,41387,WMM2,565176,false,true,406,image-keyboard-response,26
true,3,1,2,2,false,d,true,false,0.0-2.0-0.12-0.110-3.110,0,1,1,90,false,stim,false,2,376.60000002384186,1,1,1,41387,WMM2,567072,false,false,409,image-keyboard-response,27
true,3,1,2,0,false,q,true,false,0.0-2.0-0.12-0.111-3.111,0,1,1,90,false,stim,false,0,563.4000000357628,1,0,2,41387,WMM2,569146,false,false,412,image-keyboard-response,28
true,3,2,2,1,false,z,false,false,0.0-2.0-0.12-0.112-3.112,0,1,1,68,false,stim,true,2,561.6999999880791,1,1,0,41387,WMM2,571236,false,false,415,image-keyboard-response,29
true,3,2,2,2,true,d,false,false,0.0-2.0-0.12-0.113-3.113,0,1,1,68,false,stim,false,2,770.1999999880791,1,1,1,41387,WMM2,573532,false,true,418,image-keyboard-response,30
true,4,2,2,1,false,z,true,false,0.0-2.0-0.12-0.114-3.114,1,1,0,68,true,stim,false,1,1117.1000000238419,1,1,0,41387,WMM2,576171,false,false,421,image-keyboard-response,1
true,4,1,2,1,true,z,false,true,0.0-2.0-0.12-0.115-3.115,1,1,0,90,false,stim,false,1,1078.5999999642372,1,1,0,41387,WMM2,578774,false,false,424,image-keyboard-response,2
true,4,1,2,2,false,d,true,false,0.0-2.0-0.12-0.116-3.116,1,1,0,90,false,stim,false,2,550.4000000357628,1,1,1,41387,WMM2,580833,false,false,427,image-keyboard-response,3
true,4,0,2,2,false,d,true,false,0.0-2.0-0.13-0.117-3.117,1,1,0,81,false,stim,false,2,628.6999999880791,1,1,1,41387,WMM2,582989,false,false,430,image-keyboard-response,4
true,4,1,2,1,true,z,false,true,0.0-2.0-0.13-0.118-3.118,1,1,0,90,false,stim,false,1,698.7000000476837,1,1,0,41387,WMM2,585217,false,false,433,image-keyboard-response,5
true,4,1,2,1,true,z,false,true,0.0-2.0-0.13-0.119-3.119,1,1,0,90,false,stim,false,1,566.1999999880791,1,1,0,41387,WMM2,587314,false,false,436,image-keyboard-response,6
true,4,0,2,1,false,z,false,false,0.0-2.0-0.13-0.120-3.120,1,1,0,81,false,stim,true,0,562.8000000119209,1,0,2,41387,WMM2,589399,false,false,439,image-keyboard-response,7
true,4,1,2,1,true,z,false,true,0.0-2.0-0.13-0.121-3.121,1,1,0,90,false,stim,false,0,508.5,1,0,2,41387,WMM2,591430,false,false,442,image-keyboard-response,8
true,4,2,2,2,true,d,false,true,0.0-2.0-0.13-0.122-3.122,1,1,0,68,false,stim,false,2,1309.300000011921,1,1,1,41387,WMM2,594252,false,false,445,image-keyboard-response,9
true,4,2,2,2,true,d,false,true,0.0-2.0-0.13-0.123-3.123,1,1,0,68,false,stim,false,2,998.3000000119209,1,1,1,41387,WMM2,596764,false,false,448,image-keyboard-response,10
true,4,1,2,1,true,z,false,true,0.0-2.0-0.13-0.124-3.124,1,1,0,90,false,stim,false,1,471.5,1,1,0,41387,WMM2,598751,false,false,451,image-keyboard-response,11
true,4,1,2,1,true,z,false,true,0.0-2.0-0.13-0.125-3.125,1,1,0,90,false,stim,false,0,425.2999999523163,1,0,2,41387,WMM2,600694,false,false,454,image-keyboard-response,12
true,4,2,2,2,true,d,false,true,0.0-2.0-0.14-0.126-3.126,1,1,0,68,false,stim,false,2,542.6000000238419,1,1,1,41387,WMM2,602759,false,false,457,image-keyboard-response,13
true,4,1,2,1,true,z,false,false,0.0-2.0-0.14-0.127-3.127,1,1,0,90,false,stim,false,1,405.30000001192093,1,1,0,41387,WMM2,604681,false,true,460,image-keyboard-response,14
true,4,1,2,1,true,z,false,true,0.0-2.0-0.14-0.128-3.128,1,1,0,90,false,stim,false,0,634.5,1,0,2,41387,WMM2,606840,false,false,463,image-keyboard-response,15
true,4,0,2,1,false,z,true,false,0.0-2.0-0.14-0.129-3.129,1,1,0,81,false,stim,false,1,1004.8000000119209,1,1,0,41387,WMM2,609364,false,false,466,image-keyboard-response,16
true,4,1,2,1,true,z,false,true,0.0-2.0-0.14-0.130-3.130,1,1,0,90,false,stim,false,1,968.3999999761581,1,1,0,41387,WMM2,611854,false,false,469,image-keyboard-response,17
true,4,2,2,2,true,d,false,true,0.0-2.0-0.14-0.131-3.131,1,1,0,68,false,stim,false,2,823.6000000238419,1,1,1,41387,WMM2,614196,false,false,472,image-keyboard-response,18
true,4,2,2,2,true,d,false,true,0.0-2.0-0.14-0.132-3.132,1,1,0,68,false,stim,false,2,745.4000000357628,1,1,1,41387,WMM2,616454,false,false,475,image-keyboard-response,19
true,4,1,2,1,true,z,false,true,0.0-2.0-0.14-0.133-3.133,1,1,0,90,false,stim,false,0,477.0,1,0,2,41387,WMM2,618445,false,false,478,image-keyboard-response,20
true,4,1,2,1,true,z,false,true,0.0-2.0-0.14-0.134-3.134,1,1,0,90,false,stim,false,0,456.0999999642372,1,0,2,41387,WMM2,620422,false,false,481,image-keyboard-response,21
true,4,2,2,2,true,d,false,true,0.0-2.0-0.15-0.135-3.135,1,1,0,68,false,stim,false,2,619.5999999642372,1,1,1,41387,WMM2,622562,false,false,484,image-keyboard-response,22
true,4,1,2,1,true,z,false,true,0.0-2.0-0.15-0.136-3.136,1,1,0,90,false,stim,false,1,389.5999999642372,1,1,0,41387,WMM2,624482,false,false,487,image-keyboard-response,23
true,4,2,2,2,true,d,false,true,0.0-2.0-0.15-0.137-3.137,1,1,0,68,false,stim,false,2,723.6000000238419,1,1,1,41387,WMM2,626742,false,false,490,image-keyboard-response,24
true,4,1,2,1,true,z,false,true,0.0-2.0-0.15-0.138-3.138,1,1,0,90,false,stim,false,0,444.69999998807907,1,0,2,41387,WMM2,628718,false,false,493,image-keyboard-response,25
true,4,1,2,1,true,z,false,false,0.0-2.0-0.15-0.139-3.139,1,1,0,90,false,stim,false,1,557.0,1,0,0,41387,WMM2,630791,false,true,496,image-keyboard-response,26
true,4,1,2,1,true,z,false,true,0.0-2.0-0.15-0.140-3.140,1,1,0,90,false,stim,false,1,389.0,1,0,0,41387,WMM2,632702,false,false,499,image-keyboard-response,27
true,4,1,2,1,true,z,false,true,0.0-2.0-0.15-0.141-3.141,1,1,0,90,false,stim,false,0,459.19999998807907,1,0,2,41387,WMM2,634687,false,false,502,image-keyboard-response,28
true,4,2,2,2,true,d,false,true,0.0-2.0-0.15-0.142-3.142,1,1,0,68,false,stim,false,2,578.1999999880791,1,1,1,41387,WMM2,636775,false,false,505,image-keyboard-response,29
true,4,1,2,1,true,z,false,true,0.0-2.0-0.15-0.143-3.143,1,1,0,90,false,stim,false,0,430.89999997615814,1,0,2,41387,WMM2,638728,false,false,508,image-keyboard-response,30
true,4,1,2,1,true,z,false,true,0.0-2.0-0.16-0.144-3.144,1,1,0,90,false,stim,false,1,482.5,1,0,0,41387,WMM2,640736,false,false,511,image-keyboard-response,31
true,4,1,2,1,true,z,false,true,0.0-2.0-0.16-0.145-3.145,1,1,0,90,false,stim,false,0,727.6000000238419,1,0,2,41387,WMM2,642973,false,false,514,image-keyboard-response,32
true,4,2,2,2,true,d,false,true,0.0-2.0-0.16-0.146-3.146,1,1,0,68,false,stim,false,2,667.8000000119209,1,1,1,41387,WMM2,645175,false,false,517,image-keyboard-response,33
true,5,2,1,2,true,d,false,false,0.0-2.0-0.16-0.147-3.147,0,1,0,68,true,stim,false,2,531.8999999761581,1,1,1,41387,WMM2,647224,false,true,520,image-keyboard-response,1
true,5,1,1,0,false,q,false,true,0.0-2.0-0.16-0.148-3.148,0,1,0,90,false,stim,true,1,464.60000002384186,1,0,0,41387,WMM2,649212,false,true,523,image-keyboard-response,2
true,5,1,1,0,false,q,false,false,0.0-2.0-0.16-0.149-3.149,0,1,0,90,false,stim,true,1,557.0,1,0,2,41387,WMM2,651292,false,false,526,image-keyboard-response,3
true,5,1,1,0,false,q,false,false,0.0-2.0-0.16-0.150-3.150,0,1,0,90,false,stim,true,1,360.5,1,0,2,41387,WMM2,653169,false,false,529,image-keyboard-response,4
true,5,1,1,0,false,q,false,false,0.0-2.0-0.16-0.151-3.151,0,1,0,90,false,stim,true,1,590.6000000238419,1,0,0,41387,WMM2,655282,false,false,532,image-keyboard-response,5
true,5,2,1,2,true,d,false,false,0.0-2.0-0.16-0.152-3.152,0,1,0,68,false,stim,false,2,570.8000000119209,1,1,1,41387,WMM2,657368,false,true,535,image-keyboard-response,6
true,5,1,1,0,false,q,false,false,0.0-2.0-0.17-0.153-3.153,0,1,0,90,false,stim,true,1,488.89999997615814,1,0,2,41387,WMM2,659377,false,false,538,image-keyboard-response,7
true,5,2,1,2,true,d,false,true,0.0-2.0-0.17-0.154-3.154,0,1,0,68,false,stim,false,2,703.5,1,1,1,41387,WMM2,661595,false,false,541,image-keyboard-response,8
true,5,0,1,0,true,q,false,false,0.0-2.0-0.17-0.155-3.155,0,1,0,81,false,stim,false,1,493.19999998807907,1,0,0,41387,WMM2,663608,false,true,544,image-keyboard-response,9
true,5,0,1,0,true,q,false,true,0.0-2.0-0.17-0.156-3.156,0,1,0,81,false,stim,false,1,409.0,1,0,2,41387,WMM2,665525,false,false,547,image-keyboard-response,10
true,5,0,1,0,true,q,false,true,0.0-2.0-0.17-0.157-3.157,0,1,0,81,false,stim,false,1,638.8999999761581,1,0,0,41387,WMM2,667683,false,false,550,image-keyboard-response,11
true,5,2,1,2,true,d,false,true,0.0-2.0-0.17-0.158-3.158,0,1,0,68,false,stim,false,2,665.9000000357628,1,1,1,41387,WMM2,669869,false,false,553,image-keyboard-response,12
true,5,2,1,2,true,d,false,true,0.0-2.0-0.17-0.159-3.159,0,1,0,68,false,stim,false,2,648.8999999761581,1,1,1,41387,WMM2,672034,false,false,556,image-keyboard-response,13
true,5,0,1,0,true,q,false,true,0.0-2.0-0.17-0.160-3.160,0,1,0,81,false,stim,false,1,363.2000000476837,1,0,0,41387,WMM2,673917,false,false,559,image-keyboard-response,14
true,5,0,1,0,true,q,false,true,0.0-2.0-0.17-0.161-3.161,0,1,0,81,false,stim,false,1,506.10000002384186,1,0,2,41387,WMM2,675933,false,false,562,image-keyboard-response,15
true,5,0,1,0,true,q,false,true,0.0-2.0-0.18-0.162-3.162,0,1,0,81,false,stim,false,1,610.0,1,0,0,41387,WMM2,678053,false,false,565,image-keyboard-response,16
true,5,2,1,2,true,d,false,true,0.0-2.0-0.18-0.163-3.163,0,1,0,68,false,stim,false,2,555.0,1,1,1,41387,WMM2,680115,false,false,568,image-keyboard-response,17
true,5,0,1,0,true,q,false,true,0.0-2.0-0.18-0.164-3.164,0,1,0,81,false,stim,false,1,596.3000000119209,1,0,2,41387,WMM2,682234,false,false,571,image-keyboard-response,18
true,5,0,1,0,true,q,false,true,0.0-2.0-0.18-0.165-3.165,0,1,0,81,false,stim,false,1,383.89999997615814,1,0,2,41387,WMM2,684131,false,false,574,image-keyboard-response,19
true,5,2,1,2,true,d,false,true,0.0-2.0-0.18-0.166-3.166,0,1,0,68,false,stim,false,2,541.3000000119209,1,1,1,41387,WMM2,686192,false,false,577,image-keyboard-response,20
true,5,2,1,2,true,d,false,false,0.0-2.0-0.18-0.167-3.167,0,1,0,68,false,stim,false,2,679.5999999642372,1,1,1,41387,WMM2,688393,false,true,580,image-keyboard-response,21
true,5,0,1,0,true,q,false,false,0.0-2.0-0.18-0.168-3.168,0,1,0,81,false,stim,false,1,613.1999999880791,1,0,2,41387,WMM2,690525,false,true,583,image-keyboard-response,22
true,5,0,1,0,true,q,false,false,0.0-2.0-0.18-0.169-3.169,0,1,0,81,false,stim,false,1,605.5,1,1,0,41387,WMM2,692660,false,true,586,image-keyboard-response,23
true,5,0,1,0,true,q,false,true,0.0-2.0-0.18-0.170-3.170,0,1,0,81,false,stim,false,1,433.60000002384186,1,1,0,41387,WMM2,694608,false,false,589,image-keyboard-response,24
true,5,2,1,2,true,d,false,true,0.0-2.0-0.19-0.171-3.171,0,1,0,68,false,stim,false,2,662.8000000119209,1,1,1,41387,WMM2,696796,false,false,592,image-keyboard-response,25
true,5,0,1,0,true,q,false,true,0.0-2.0-0.19-0.172-3.172,0,1,0,81,false,stim,false,1,542.0,1,1,0,41387,WMM2,698848,false,false,595,image-keyboard-response,26
true,5,0,1,0,true,q,false,true,0.0-2.0-0.19-0.173-3.173,0,1,0,81,false,stim,false,1,367.5,1,0,2,41387,WMM2,700740,false,false,598,image-keyboard-response,27
true,5,2,1,2,true,d,false,false,0.0-2.0-0.19-0.174-3.174,0,1,0,68,false,stim,false,2,450.0999999642372,1,1,1,41387,WMM2,702717,false,true,601,image-keyboard-response,28
true,5,0,1,0,true,q,false,true,0.0-2.0-0.19-0.175-3.175,0,1,0,81,false,stim,false,1,465.5,1,1,0,41387,WMM2,704710,false,false,604,image-keyboard-response,29
true,5,2,1,2,true,d,false,false,0.0-2.0-0.19-0.176-3.176,0,1,0,68,false,stim,false,2,576.8000000119209,1,1,1,41387,WMM2,706814,false,true,607,image-keyboard-response,30
true,6,0,3,0,true,q,false,true,0.0-2.0-0.19-0.177-3.177,1,1,0,81,true,stim,false,0,406.2999999523163,1,1,0,41387,WMM2,708750,false,false,610,image-keyboard-response,1
true,6,0,3,2,false,d,false,false,0.0-2.0-0.19-0.178-3.178,1,1,0,81,false,stim,true,0,988.5,1,0,2,41387,WMM2,711247,false,false,613,image-keyboard-response,2
true,6,0,3,2,false,d,false,false,0.0-2.0-0.19-0.179-3.179,1,1,0,81,false,stim,true,0,551.5,1,0,2,41387,WMM2,713307,false,false,616,image-keyboard-response,3
true,6,0,3,0,true,q,false,true,0.0-2.0-0.20-0.180-3.180,1,1,0,81,false,stim,false,0,830.5,1,1,0,41387,WMM2,715658,false,false,619,image-keyboard-response,4
true,6,2,3,2,true,d,false,true,0.0-2.0-0.20-0.181-3.181,1,1,0,68,false,stim,false,2,577.1999999880791,1,1,1,41387,WMM2,717766,false,false,622,image-keyboard-response,5
true,6,0,3,0,true,q,false,false,0.0-2.0-0.20-0.182-3.182,1,1,0,81,false,stim,false,0,422.10000002384186,1,1,0,41387,WMM2,719702,false,true,625,image-keyboard-response,6
true,6,0,3,2,false,d,false,true,0.0-2.0-0.20-0.183-3.183,1,1,0,81,false,stim,true,0,351.80000001192093,1,0,2,41387,WMM2,721566,false,true,628,image-keyboard-response,7
true,6,2,3,2,true,d,false,false,0.0-2.0-0.20-0.184-3.184,1,1,0,68,false,stim,false,2,624.9000000357628,1,1,1,41387,WMM2,723705,false,true,631,image-keyboard-response,8
true,6,0,3,2,false,d,false,false,0.0-2.0-0.20-0.185-3.185,1,1,0,81,false,stim,true,0,572.5,1,0,2,41387,WMM2,725785,false,false,634,image-keyboard-response,9
true,6,0,3,0,true,q,false,false,0.0-2.0-0.20-0.186-3.186,1,1,0,81,false,stim,false,0,433.19999998807907,1,1,0,41387,WMM2,727742,false,true,637,image-keyboard-response,10
true,6,2,3,2,true,d,false,true,0.0-2.0-0.20-0.187-3.187,1,1,0,68,false,stim,false,2,542.1000000238419,1,1,1,41387,WMM2,729811,false,false,640,image-keyboard-response,11
true,6,0,3,2,false,d,false,false,0.0-2.0-0.20-0.188-3.188,1,1,0,81,false,stim,true,0,488.5,1,0,2,41387,WMM2,731807,false,false,643,image-keyboard-response,12
true,6,2,3,2,true,d,false,true,0.0-2.0-0.21-0.189-3.189,1,1,0,68,false,stim,false,2,813.1999999880791,1,1,1,41387,WMM2,734137,false,false,646,image-keyboard-response,13
true,6,0,3,0,true,q,false,false,0.0-2.0-0.21-0.190-3.190,1,1,0,81,false,stim,false,0,472.19999998807907,1,1,0,41387,WMM2,736124,false,true,649,image-keyboard-response,14
true,6,0,3,2,false,d,false,false,0.0-2.0-0.21-0.191-3.191,1,1,0,81,false,stim,true,0,438.69999998807907,1,0,2,41387,WMM2,738086,false,false,652,image-keyboard-response,15
true,6,0,3,0,true,q,false,true,0.0-2.0-0.21-0.192-3.192,1,1,0,81,false,stim,false,0,506.19999998807907,1,1,0,41387,WMM2,740106,false,false,655,image-keyboard-response,16
true,6,0,3,2,false,d,true,true,0.0-2.0-0.21-0.193-3.193,1,1,0,81,false,stim,false,2,368.80000001192093,1,1,1,41387,WMM2,741989,false,true,658,image-keyboard-response,17
true,6,0,3,0,true,q,false,true,0.0-2.0-0.21-0.194-3.194,1,1,0,81,false,stim,false,0,493.19999998807907,1,1,0,41387,WMM2,744001,false,false,661,image-keyboard-response,18
true,6,0,3,2,false,d,false,false,0.0-2.0-0.21-0.195-3.195,1,1,0,81,false,stim,true,0,698.1999999880791,1,0,2,41387,WMM2,746231,false,false,664,image-keyboard-response,19
true,6,0,3,2,false,d,false,false,0.0-2.0-0.21-0.196-3.196,1,1,0,81,false,stim,true,0,466.80000001192093,1,0,2,41387,WMM2,748231,false,false,667,image-keyboard-response,20
true,6,2,3,2,true,d,false,true,0.0-2.0-0.21-0.197-3.197,1,1,0,68,false,stim,false,2,677.6999999880791,1,1,1,41387,WMM2,750440,false,false,670,image-keyboard-response,21
true,6,2,3,2,true,d,false,true,0.0-2.0-0.22-0.198-3.198,1,1,0,68,false,stim,false,2,470.69999998807907,1,1,1,41387,WMM2,752442,false,false,673,image-keyboard-response,22
true,6,2,3,2,true,d,false,true,0.0-2.0-0.22-0.199-3.199,1,1,0,68,false,stim,false,2,425.19999998807907,1,1,1,41387,WMM2,754384,false,false,676,image-keyboard-response,23
true,6,2,3,2,true,d,false,true,0.0-2.0-0.22-0.200-3.200,1,1,0,68,false,stim,false,2,409.89999997615814,1,1,1,41387,WMM2,756314,false,false,679,image-keyboard-response,24
true,6,0,3,2,false,d,false,false,0.0-2.0-0.22-0.201-3.201,1,1,0,81,false,stim,true,0,699.9000000357628,1,0,2,41387,WMM2,758546,false,false,682,image-keyboard-response,25
true,6,0,3,0,true,q,false,true,0.0-2.0-0.22-0.202-3.202,1,1,0,81,false,stim,false,0,368.10000002384186,1,1,0,41387,WMM2,760446,false,false,685,image-keyboard-response,26
true,6,0,3,2,false,d,false,true,0.0-2.0-0.22-0.203-3.203,1,1,0,81,false,stim,true,0,379.30000001192093,1,0,2,41387,WMM2,762343,false,true,688,image-keyboard-response,27
true,6,0,3,2,false,d,false,false,0.0-2.0-0.22-0.204-3.204,1,1,0,81,false,stim,true,0,418.69999998807907,1,0,2,41387,WMM2,764285,false,false,691,image-keyboard-response,28
true,6,0,3,0,true,q,false,true,0.0-2.0-0.22-0.205-3.205,1,1,0,81,false,stim,false,0,382.0,1,1,0,41387,WMM2,766196,false,false,694,image-keyboard-response,29
true,6,0,3,0,true,q,false,true,0.0-2.0-0.22-0.206-3.206,1,1,0,81,false,stim,false,0,402.19999998807907,1,1,0,41387,WMM2,768119,false,false,697,image-keyboard-response,30
true,6,0,3,2,false,d,false,false,0.0-2.0-0.23-0.207-3.207,1,1,0,81,false,stim,true,0,448.60000002384186,1,0,2,41387,WMM2,770106,false,false,700,image-keyboard-response,31
true,6,2,3,2,true,d,false,true,0.0-2.0-0.23-0.208-3.208,1,1,0,68,false,stim,false,2,817.6999999880791,1,1,1,41387,WMM2,772452,false,false,703,image-keyboard-response,32
true,6,0,3,0,true,q,false,true,0.0-2.0-0.23-0.209-3.209,1,1,0,81,false,stim,false,0,398.39999997615814,1,1,0,41387,WMM2,774371,false,false,706,image-keyboard-response,33
true,6,0,3,2,false,d,true,true,0.0-2.0-0.23-0.210-3.210,1,1,0,81,false,stim,false,2,404.0999999642372,1,1,1,41387,WMM2,776300,false,true,709,image-keyboard-response,34
true,6,0,3,2,false,d,false,false,0.0-2.0-0.23-0.211-3.211,1,1,0,81,false,stim,true,0,1031.199999988079,1,0,2,41387,WMM2,778861,false,false,712,image-keyboard-response,35
true,6,0,3,0,true,q,false,true,0.0-2.0-0.23-0.212-3.212,1,1,0,81,false,stim,false,0,947.7999999523163,1,1,0,41387,WMM2,781311,false,false,715,image-keyboard-response,36
true,6,2,3,2,true,d,false,true,0.0-2.0-0.23-0.213-3.213,1,1,0,68,false,stim,false,0,972.0999999642372,1,0,2,41387,WMM2,783810,false,false,718,image-keyboard-response,37
true,6,0,3,2,false,d,true,false,0.0-2.0-0.23-0.214-3.214,1,1,0,81,false,stim,false,2,1534.0,1,1,1,41387,WMM2,786875,false,false,721,image-keyboard-response,38
true,6,0,3,0,true,q,false,true,0.0-2.0-0.23-0.215-3.215,1,1,0,81,false,stim,false,0,623.5,1,1,0,41387,WMM2,789022,false,false,724,image-keyboard-response,39
true,6,0,3,0,true,q,false,true,0.0-2.0-0.24-0.216-3.216,1,1,0,81,false,stim,false,0,481.9000000357628,1,1,0,41387,WMM2,791027,false,false,727,image-keyboard-response,40
true,6,1,3,2,false,d,true,false,0.0-2.0-0.24-0.217-3.217,1,1,0,90,false,stim,false,0,442.30000001192093,1,0,2,41387,WMM2,792994,false,false,730,image-keyboard-response,41
true,6,2,3,2,true,d,false,true,0.0-2.0-0.24-0.218-3.218,1,1,0,68,false,stim,false,0,787.5999999642372,1,0,2,41387,WMM2,795301,false,false,733,image-keyboard-response,42
true,6,2,3,2,true,d,false,true,0.0-2.0-0.24-0.219-3.219,1,1,0,68,false,stim,false,2,845.3000000119209,1,1,1,41387,WMM2,797665,false,false,736,image-keyboard-response,43
true,6,0,3,0,true,q,false,true,0.0-2.0-0.24-0.220-3.220,1,1,0,81,false,stim,false,0,518.0,1,1,0,41387,WMM2,799714,false,false,739,image-keyboard-response,44
true,6,2,3,2,true,d,false,false,0.0-2.0-0.24-0.221-3.221,1,1,0,68,false,stim,false,2,424.0999999642372,1,1,1,41387,WMM2,801654,false,true,742,image-keyboard-response,45
true,6,2,3,2,true,d,false,true,0.0-2.0-0.24-0.222-3.222,1,1,0,68,false,stim,false,2,415.5,1,1,1,41387,WMM2,803580,false,false,745,image-keyboard-response,46
true,6,0,3,0,true,q,false,true,0.0-2.0-0.24-0.223-3.223,1,1,0,81,false,stim,false,0,511.69999998807907,1,1,0,41387,WMM2,805611,false,false,748,image-keyboard-response,47
true,6,2,3,2,true,d,false,true,0.0-2.0-0.24-0.224-3.224,1,1,0,68,false,stim,false,0,366.7999999523163,1,0,2,41387,WMM2,807501,false,false,751,image-keyboard-response,48
true,6,2,3,2,true,d,false,true,0.0-2.0-0.25-0.225-3.225,1,1,0,68,false,stim,false,0,565.2000000476837,1,1,2,41387,WMM2,809587,false,false,754,image-keyboard-response,49
true,6,2,3,2,true,d,false,true,0.0-2.0-0.25-0.226-3.226,1,1,0,68,false,stim,false,0,457.19999998807907,1,1,2,41387,WMM2,811566,false,false,757,image-keyboard-response,50
true,6,0,3,0,true,q,false,true,0.0-2.0-0.25-0.227-3.227,1,1,0,81,false,stim,false,0,461.5,1,1,0,41387,WMM2,813548,false,false,760,image-keyboard-response,51
true,6,0,3,0,true,q,false,true,0.0-2.0-0.25-0.228-3.228,1,1,0,81,false,stim,false,0,587.1999999880791,1,1,0,41387,WMM2,815651,false,false,763,image-keyboard-response,52
true,6,2,3,2,true,d,false,true,0.0-2.0-0.25-0.229-3.229,1,1,0,68,false,stim,false,0,465.69999998807907,1,1,2,41387,WMM2,817636,false,false,766,image-keyboard-response,53
true,6,2,3,2,true,d,false,true,0.0-2.0-0.25-0.230-3.230,1,1,0,68,false,stim,false,2,479.5,1,0,1,41387,WMM2,819648,false,false,769,image-keyboard-response,54
true,6,2,3,2,true,d,false,true,0.0-2.0-0.25-0.231-3.231,1,1,0,68,false,stim,false,2,453.5999999642372,1,0,1,41387,WMM2,821626,false,false,772,image-keyboard-response,55
true,6,0,3,0,true,q,false,false,0.0-2.0-0.25-0.232-3.232,1,1,0,81,false,stim,false,0,437.89999997615814,1,1,0,41387,WMM2,823584,false,true,775,image-keyboard-response,56
true,6,2,3,2,true,d,false,true,0.0-2.0-0.25-0.233-3.233,1,1,0,68,false,stim,false,2,432.19999998807907,1,0,1,41387,WMM2,825534,false,false,778,image-keyboard-response,57
true,6,2,3,2,true,d,false,true,0.0-2.0-0.26-0.234-3.234,1,1,0,68,false,stim,false,0,408.80000001192093,1,1,2,41387,WMM2,827457,false,false,781,image-keyboard-response,58
true,7,2,2,1,false,z,false,false,0.0-2.0-0.26-0.235-3.235,1,0,1,68,true,stim,true,2,896.0,1,0,1,41387,WMM2,829881,false,false,784,image-keyboard-response,1
true,7,2,2,1,false,z,false,false,0.0-2.0-0.26-0.236-3.236,1,0,1,68,false,stim,true,2,417.19999998807907,1,0,1,41387,WMM2,831811,false,false,787,image-keyboard-response,2
true,7,0,2,0,true,q,false,true,0.0-2.0-0.26-0.237-3.237,1,0,1,81,false,stim,false,0,610.9000000357628,1,1,0,41387,WMM2,833936,false,false,790,image-keyboard-response,3
true,7,0,2,0,true,q,false,true,0.0-2.0-0.26-0.238-3.238,1,0,1,81,false,stim,false,0,532.1999999880791,1,1,0,41387,WMM2,835990,false,false,793,image-keyboard-response,4
true,7,0,2,0,true,q,false,true,0.0-2.0-0.26-0.239-3.239,1,0,1,81,false,stim,false,0,497.4000000357628,1,1,0,41387,WMM2,838017,false,false,796,image-keyboard-response,5
true,7,1,2,2,false,d,true,false,0.0-2.0-0.26-0.240-3.240,1,0,1,90,false,stim,false,2,668.5999999642372,1,1,2,41387,WMM2,840218,false,false,799,image-keyboard-response,6
true,7,2,2,2,true,d,false,false,0.0-2.0-0.26-0.241-3.241,1,0,1,68,false,stim,false,2,635.0,1,1,2,41387,WMM2,842407,false,true,802,image-keyboard-response,7
true,7,1,2,1,true,z,false,true,0.0-2.0-0.26-0.242-3.242,1,0,1,90,false,stim,false,2,955.4000000357628,1,0,1,41387,WMM2,844881,false,false,805,image-keyboard-response,8
true,7,2,2,2,true,d,false,true,0.0-2.0-0.27-0.243-3.243,1,0,1,68,false,stim,false,2,941.8999999761581,1,1,2,41387,WMM2,847341,false,false,808,image-keyboard-response,9
true,7,0,2,0,true,q,false,false,0.0-2.0-0.27-0.244-3.244,1,0,1,81,false,stim,false,0,569.6999999880791,1,1,0,41387,WMM2,849435,false,true,811,image-keyboard-response,10
true,7,2,2,2,true,d,false,true,0.0-2.0-0.27-0.245-3.245,1,0,1,68,false,stim,false,2,693.8000000119209,1,1,2,41387,WMM2,851640,false,false,814,image-keyboard-response,11
true,7,1,2,1,true,z,false,true,0.0-2.0-0.27-0.246-3.246,1,0,1,90,false,stim,false,2,450.89999997615814,1,0,1,41387,WMM2,853604,false,false,817,image-keyboard-response,12
true,7,1,2,1,true,z,false,true,0.0-2.0-0.27-0.247-3.247,1,0,1,90,false,stim,false,2,734.1000000238419,1,0,1,41387,WMM2,855858,false,false,820,image-keyboard-response,13
true,7,0,2,0,true,q,false,true,0.0-2.0-0.27-0.248-3.248,1,0,1,81,false,stim,false,0,691.3000000119209,1,1,0,41387,WMM2,858086,false,false,823,image-keyboard-response,14
true,7,2,2,2,true,d,false,true,0.0-2.0-0.27-0.249-3.249,1,0,1,68,false,stim,false,2,887.3000000119209,1,1,2,41387,WMM2,860496,false,false,826,image-keyboard-response,15
true,7,0,2,0,true,q,false,true,0.0-2.0-0.27-0.250-3.250,1,0,1,81,false,stim,false,0,566.8999999761581,1,1,0,41387,WMM2,862587,false,false,829,image-keyboard-response,16
true,7,1,2,1,true,z,false,true,0.0-2.0-0.27-0.251-3.251,1,0,1,90,false,stim,false,2,459.2999999523163,1,0,1,41387,WMM2,864569,false,false,832,image-keyboard-response,17
true,7,2,2,2,true,d,false,true,0.0-2.0-0.28-0.252-3.252,1,0,1,68,false,stim,false,2,564.7999999523163,1,1,2,41387,WMM2,866655,false,false,835,image-keyboard-response,18
true,7,0,2,0,true,q,false,false,0.0-2.0-0.28-0.253-3.253,1,0,1,81,false,stim,false,0,818.1000000238419,1,1,0,41387,WMM2,868981,false,true,838,image-keyboard-response,19
true,7,2,2,2,true,d,false,true,0.0-2.0-0.28-0.254-3.254,1,0,1,68,false,stim,false,2,700.1999999880791,1,1,2,41387,WMM2,871202,false,false,841,image-keyboard-response,20
true,7,0,2,0,true,q,false,true,0.0-2.0-0.28-0.255-3.255,1,0,1,81,false,stim,false,0,618.6000000238419,1,1,0,41387,WMM2,873351,false,false,844,image-keyboard-response,21
true,7,2,2,2,true,d,false,true,0.0-2.0-0.28-0.256-3.256,1,0,1,68,false,stim,false,2,630.3999999761581,1,0,2,41387,WMM2,875502,false,false,847,image-keyboard-response,22
true,7,1,2,1,true,z,false,true,0.0-2.0-0.28-0.257-3.257,1,0,1,90,false,stim,false,2,482.10000002384186,1,1,1,41387,WMM2,877504,false,false,850,image-keyboard-response,23
true,7,1,2,1,true,z,false,true,0.0-2.0-0.28-0.258-3.258,1,0,1,90,false,stim,false,2,552.0,1,1,1,41387,WMM2,879570,false,false,853,image-keyboard-response,24
true,7,0,2,0,true,q,false,true,0.0-2.0-0.28-0.259-3.259,1,0,1,81,false,stim,false,0,575.8000000119209,1,1,0,41387,WMM2,881667,false,false,856,image-keyboard-response,25
true,7,1,2,1,true,z,false,false,0.0-2.0-0.28-0.260-3.260,1,0,1,90,false,stim,false,2,672.5,1,1,1,41387,WMM2,883869,false,true,859,image-keyboard-response,26
true,7,1,2,1,true,z,false,true,0.0-2.0-0.29-0.261-3.261,1,0,1,90,false,stim,false,2,466.39999997615814,1,1,1,41387,WMM2,885844,false,false,862,image-keyboard-response,27
true,7,2,2,2,true,d,false,true,0.0-2.0-0.29-0.262-3.262,1,0,1,68,false,stim,false,2,509.80000001192093,1,0,2,41387,WMM2,887872,false,false,865,image-keyboard-response,28
true,7,0,2,0,true,q,false,true,0.0-2.0-0.29-0.263-3.263,1,0,1,81,false,stim,false,0,489.69999998807907,1,1,0,41387,WMM2,889871,false,false,868,image-keyboard-response,29
true,7,1,2,1,true,z,false,true,0.0-2.0-0.29-0.264-3.264,1,0,1,90,false,stim,false,2,658.2999999523163,1,1,1,41387,WMM2,892055,false,false,871,image-keyboard-response,30
true,8,2,4,2,true,d,false,true,0.0-2.0-0.29-0.265-3.265,1,1,0,68,true,stim,false,2,462.5999999642372,1,0,2,41387,WMM2,894034,false,false,874,image-keyboard-response,1
true,8,2,4,2,true,d,false,true,0.0-2.0-0.29-0.266-3.266,1,1,0,68,false,stim,false,2,444.19999998807907,1,0,2,41387,WMM2,896009,false,false,877,image-keyboard-response,2
true,8,0,4,0,true,q,false,true,0.0-2.0-0.29-0.267-3.267,1,1,0,81,false,stim,false,0,529.6999999880791,1,1,0,41387,WMM2,898056,false,false,880,image-keyboard-response,3
true,8,0,4,0,true,q,false,true,0.0-2.0-0.29-0.268-3.268,1,1,0,81,false,stim,false,0,406.19999998807907,1,1,0,41387,WMM2,899993,false,false,883,image-keyboard-response,4
true,8,1,4,1,true,z,false,false,0.0-2.0-0.29-0.269-3.269,1,1,0,90,false,stim,false,1,594.5,1,1,1,41387,WMM2,902096,false,true,886,image-keyboard-response,5
true,8,0,4,0,true,q,false,true,0.0-2.0-0.30-0.270-3.270,1,1,0,81,false,stim,false,0,572.0,1,1,0,41387,WMM2,904188,false,false,889,image-keyboard-response,6
true,8,0,4,0,true,q,false,true,0.0-2.0-0.30-0.271-3.271,1,1,0,81,false,stim,false,0,450.0,1,1,0,41387,WMM2,906147,false,false,892,image-keyboard-response,7
true,8,2,4,2,true,d,false,true,0.0-2.0-0.30-0.272-3.272,1,1,0,68,false,stim,false,2,758.6999999880791,1,0,2,41387,WMM2,908418,false,false,895,image-keyboard-response,8
true,8,1,4,1,true,z,false,true,0.0-2.0-0.30-0.273-3.273,1,1,0,90,false,stim,false,1,522.7000000476837,1,1,1,41387,WMM2,910456,false,false,898,image-keyboard-response,9
true,8,2,4,2,true,d,false,true,0.0-2.0-0.30-0.274-3.274,1,1,0,68,false,stim,false,2,541.0999999642372,1,0,2,41387,WMM2,912527,false,false,901,image-keyboard-response,10
true,8,1,4,1,true,z,false,true,0.0-2.0-0.30-0.275-3.275,1,1,0,90,false,stim,false,1,440.80000001192093,1,1,1,41387,WMM2,914490,false,false,904,image-keyboard-response,11
true,8,2,4,2,true,d,false,true,0.0-2.0-0.30-0.276-3.276,1,1,0,68,false,stim,false,2,677.8000000119209,1,0,2,41387,WMM2,916693,false,false,907,image-keyboard-response,12
true,8,0,4,0,true,q,false,true,0.0-2.0-0.30-0.277-3.277,1,1,0,81,false,stim,false,0,442.0,1,1,0,41387,WMM2,918665,false,false,910,image-keyboard-response,13
true,8,1,4,1,true,z,false,true,0.0-2.0-0.30-0.278-3.278,1,1,0,90,false,stim,false,1,513.1000000238419,1,1,1,41387,WMM2,920702,false,false,913,image-keyboard-response,14
true,8,2,4,2,true,d,false,true,0.0-2.0-0.31-0.279-3.279,1,1,0,68,false,stim,false,2,424.2999999523163,1,0,2,41387,WMM2,922640,false,false,916,image-keyboard-response,15
true,8,1,4,1,true,z,false,true,0.0-2.0-0.31-0.280-3.280,1,1,0,90,false,stim,false,1,369.19999998807907,1,1,1,41387,WMM2,924525,false,false,919,image-keyboard-response,16
true,8,0,4,0,true,q,false,true,0.0-2.0-0.31-0.281-3.281,1,1,0,81,false,stim,false,0,362.69999998807907,1,1,0,41387,WMM2,926406,false,false,922,image-keyboard-response,17
true,8,1,4,1,true,z,false,false,0.0-2.0-0.31-0.282-3.282,1,1,0,90,false,stim,false,1,333.0,1,1,1,41387,WMM2,928257,false,true,925,image-keyboard-response,18
true,8,1,4,1,true,z,false,true,0.0-2.0-0.31-0.283-3.283,1,1,0,90,false,stim,false,1,485.69999998807907,1,1,1,41387,WMM2,930265,false,false,928,image-keyboard-response,19
true,8,0,4,0,true,q,false,true,0.0-2.0-0.31-0.284-3.284,1,1,0,81,false,stim,false,0,504.0999999642372,1,1,0,41387,WMM2,932291,false,false,931,image-keyboard-response,20
true,8,0,4,0,true,q,false,false,0.0-2.0-0.31-0.285-3.285,1,1,0,81,false,stim,false,0,687.3000000119209,1,1,0,41387,WMM2,934494,false,true,934,image-keyboard-response,21
true,8,1,4,2,false,d,true,false,0.0-2.0-0.31-0.286-3.286,1,1,0,90,false,stim,false,2,615.4000000357628,1,0,2,41387,WMM2,936624,false,false,937,image-keyboard-response,22
true,8,2,4,2,true,d,false,true,0.0-2.0-0.31-0.287-3.287,1,1,0,68,false,stim,false,2,565.8999999761581,1,0,2,41387,WMM2,938704,false,false,940,image-keyboard-response,23
true,8,0,4,0,true,q,false,true,0.0-2.0-0.32-0.288-3.288,1,1,0,81,false,stim,false,0,606.6000000238419,1,1,0,41387,WMM2,940840,false,false,943,image-keyboard-response,24
true,8,2,4,2,true,d,false,true,0.0-2.0-0.32-0.289-3.289,1,1,0,68,false,stim,false,2,485.19999998807907,1,0,2,41387,WMM2,942842,false,false,946,image-keyboard-response,25
true,8,2,4,2,true,d,false,false,0.0-2.0-0.32-0.290-3.290,1,1,0,68,false,stim,false,2,380.89999997615814,1,0,2,41387,WMM2,944754,false,true,949,image-keyboard-response,26
true,8,1,4,1,true,z,false,true,0.0-2.0-0.32-0.291-3.291,1,1,0,90,false,stim,false,1,832.6000000238419,1,1,1,41387,WMM2,947111,false,false,952,image-keyboard-response,27
true,8,0,4,0,true,q,false,false,0.0-2.0-0.32-0.292-3.292,1,1,0,81,false,stim,false,0,558.3999999761581,1,1,0,41387,WMM2,949187,false,true,955,image-keyboard-response,28
true,8,1,4,1,true,z,false,true,0.0-2.0-0.32-0.293-3.293,1,1,0,90,false,stim,false,1,806.5,1,1,1,41387,WMM2,951510,false,false,958,image-keyboard-response,29
true,8,2,4,2,true,d,false,true,0.0-2.0-0.32-0.294-3.294,1,1,0,68,false,stim,false,2,430.0,1,0,2,41387,WMM2,953458,false,false,961,image-keyboard-response,30
true,9,1,3,1,true,z,false,true,0.0-2.0-0.32-0.295-3.295,1,1,0,90,true,stim,false,1,645.8999999761581,1,1,1,41387,WMM2,955631,false,false,964,image-keyboard-response,1
true,9,0,3,0,true,q,false,true,0.0-2.0-0.32-0.296-3.296,1,1,0,81,false,stim,false,0,455.2000000476837,1,1,0,41387,WMM2,957598,false,false,967,image-keyboard-response,2
true,9,1,3,1,true,z,false,true,0.0-2.0-0.33-0.297-3.297,1,1,0,90,false,stim,false,1,401.19999998807907,1,1,1,41387,WMM2,959526,false,false,970,image-keyboard-response,3
true,9,2,3,0,false,q,false,false,0.0-2.0-0.33-0.298-3.298,1,1,0,68,false,stim,true,2,453.69999998807907,1,0,2,41387,WMM2,961492,false,false,973,image-keyboard-response,4
true,9,0,3,0,true,q,false,true,0.0-2.0-0.33-0.299-3.299,1,1,0,81,false,stim,false,0,525.9000000357628,1,1,0,41387,WMM2,963553,false,false,976,image-keyboard-response,5
true,9,2,3,0,false,q,false,false,0.0-2.0-0.33-0.300-3.300,1,1,0,68,false,stim,true,2,567.3000000119209,1,0,2,41387,WMM2,965639,false,false,979,image-keyboard-response,6
true,9,1,3,0,false,q,true,false,0.0-2.0-0.33-0.301-3.301,1,1,0,90,false,stim,false,2,750.8000000119209,1,0,2,41387,WMM2,967907,false,false,982,image-keyboard-response,7
true,9,1,3,1,true,z,false,true,0.0-2.0-0.33-0.302-3.302,1,1,0,90,false,stim,false,1,1430.199999988079,1,1,1,41387,WMM2,970852,false,false,985,image-keyboard-response,8
true,9,0,3,0,true,q,false,true,0.0-2.0-0.33-0.303-3.303,1,1,0,81,false,stim,false,0,606.3000000119209,1,1,0,41387,WMM2,972981,false,false,988,image-keyboard-response,9
true,9,1,3,1,true,z,false,true,0.0-2.0-0.33-0.304-3.304,1,1,0,90,false,stim,false,1,704.6000000238419,1,1,1,41387,WMM2,975202,false,false,991,image-keyboard-response,10
true,9,0,3,0,true,q,false,false,0.0-2.0-0.33-0.305-3.305,1,1,0,81,false,stim,false,0,769.5,1,1,0,41387,WMM2,977491,false,true,994,image-keyboard-response,11
true,9,0,3,0,true,q,false,true,0.0-2.0-0.34-0.306-3.306,1,1,0,81,false,stim,false,2,651.6999999880791,1,0,2,41387,WMM2,979661,false,false,997,image-keyboard-response,12
true,9,0,3,0,true,q,false,true,0.0-2.0-0.34-0.307-3.307,1,1,0,81,false,stim,false,0,449.80000001192093,1,1,0,41387,WMM2,981623,false,false,1000,image-keyboard-response,13
true,9,0,3,0,true,q,false,true,0.0-2.0-0.34-0.308-3.308,1,1,0,81,false,stim,false,0,452.80000001192093,1,1,0,41387,WMM2,983611,false,false,1003,image-keyboard-response,14
true,9,2,3,1,false,z,true,true,0.0-2.0-0.34-0.309-3.309,1,1,0,68,false,stim,false,1,639.5,1,1,1,41387,WMM2,985760,false,true,1006,image-keyboard-response,15
true,9,2,3,1,false,z,true,false,0.0-2.0-0.34-0.310-3.310,1,1,0,68,false,stim,false,1,1240.699999988079,1,1,1,41387,WMM2,988518,false,false,1009,image-keyboard-response,16
true,9,2,3,1,false,z,true,false,0.0-2.0-0.34-0.311-3.311,1,1,0,68,false,stim,false,1,443.60000002384186,1,1,1,41387,WMM2,990483,false,false,1012,image-keyboard-response,17
true,9,0,3,0,true,q,false,true,0.0-2.0-0.34-0.312-3.312,1,1,0,81,false,stim,false,2,655.3000000119209,1,0,2,41387,WMM2,992657,false,false,1015,image-keyboard-response,18
true,9,0,3,0,true,q,false,false,0.0-2.0-0.34-0.313-3.313,1,1,0,81,false,stim,false,0,379.10000002384186,1,1,0,41387,WMM2,994552,false,true,1018,image-keyboard-response,19
true,9,0,3,0,true,q,false,true,0.0-2.0-0.34-0.314-3.314,1,1,0,81,false,stim,false,2,616.8999999761581,1,0,2,41387,WMM2,996703,false,false,1021,image-keyboard-response,20
true,9,0,3,0,true,q,false,true,0.0-2.0-0.35-0.315-3.315,1,1,0,81,false,stim,false,2,463.69999998807907,1,0,2,41387,WMM2,998702,false,false,1024,image-keyboard-response,21
true,9,1,3,0,false,q,true,false,0.0-2.0-0.35-0.316-3.316,1,1,0,90,false,stim,false,0,520.3999999761581,1,1,0,41387,WMM2,1000744,false,false,1027,image-keyboard-response,22
true,9,1,3,1,true,z,false,true,0.0-2.0-0.35-0.317-3.317,1,1,0,90,false,stim,false,1,798.3000000119209,1,1,1,41387,WMM2,1003067,false,false,1030,image-keyboard-response,23
true,9,2,3,0,false,q,true,false,0.0-2.0-0.35-0.318-3.318,1,1,0,68,false,stim,false,0,690.5,1,1,0,41387,WMM2,1005277,false,false,1033,image-keyboard-response,24
true,9,0,3,0,true,q,false,true,0.0-2.0-0.35-0.319-3.319,1,1,0,81,false,stim,false,2,1095.199999988079,1,0,2,41387,WMM2,1007903,false,false,1036,image-keyboard-response,25
true,9,0,3,0,true,q,false,true,0.0-2.0-0.35-0.320-3.320,1,1,0,81,false,stim,false,0,732.4000000357628,1,1,0,41387,WMM2,1010157,false,false,1039,image-keyboard-response,26
true,9,1,3,1,true,z,false,true,0.0-2.0-0.35-0.321-3.321,1,1,0,90,false,stim,false,1,461.5999999642372,1,1,1,41387,WMM2,1012142,false,false,1042,image-keyboard-response,27
true,9,0,3,0,true,q,false,true,0.0-2.0-0.35-0.322-3.322,1,1,0,81,false,stim,false,2,627.3000000119209,1,0,2,41387,WMM2,1014298,false,false,1045,image-keyboard-response,28
true,9,1,3,1,true,z,false,true,0.0-2.0-0.35-0.323-3.323,1,1,0,90,false,stim,false,1,656.7999999523163,1,1,1,41387,WMM2,1016473,false,false,1048,image-keyboard-response,29
true,9,1,3,1,true,z,false,true,0.0-2.0-0.36-0.324-3.324,1,1,0,90,false,stim,false,1,853.5,1,1,1,41387,WMM2,1018855,false,false,1051,image-keyboard-response,30
true,9,0,3,0,true,q,false,true,0.0-2.0-0.36-0.325-3.325,1,1,0,81,false,stim,false,0,489.60000002384186,1,1,0,41387,WMM2,1020862,false,false,1054,image-keyboard-response,31
true,9,0,3,0,true,q,false,true,0.0-2.0-0.36-0.326-3.326,1,1,0,81,false,stim,false,2,722.6000000238419,1,0,2,41387,WMM2,1023111,false,false,1057,image-keyboard-response,32
true,9,1,3,1,true,z,false,true,0.0-2.0-0.36-0.327-3.327,1,1,0,90,false,stim,false,1,611.3999999761581,1,0,1,41387,WMM2,1025238,false,false,1060,image-keyboard-response,33
true,9,1,3,1,true,z,false,true,0.0-2.0-0.36-0.328-3.328,1,1,0,90,false,stim,false,1,428.7999999523163,1,0,1,41387,WMM2,1027205,false,false,1063,image-keyboard-response,34
true,9,0,3,0,true,q,false,true,0.0-2.0-0.36-0.329-3.329,1,1,0,81,false,stim,false,0,586.3999999761581,1,1,0,41387,WMM2,1029325,false,false,1066,image-keyboard-response,35
true,9,0,3,0,true,q,false,true,0.0-2.0-0.36-0.330-3.330,1,1,0,81,false,stim,false,2,670.2000000476837,1,0,2,41387,WMM2,1031515,false,false,1069,image-keyboard-response,36
true,9,0,3,0,true,q,false,true,0.0-2.0-0.36-0.331-3.331,1,1,0,81,false,stim,false,0,702.5,1,1,0,41387,WMM2,1033748,false,false,1072,image-keyboard-response,37
true,9,0,3,0,true,q,false,true,0.0-2.0-0.36-0.332-3.332,1,1,0,81,false,stim,false,2,730.6999999880791,1,0,2,41387,WMM2,1035994,false,false,1075,image-keyboard-response,38
true,9,0,3,0,true,q,false,true,0.0-2.0-0.37-0.333-3.333,1,1,0,81,false,stim,false,2,384.39999997615814,1,0,2,41387,WMM2,1037909,false,false,1078,image-keyboard-response,39
true,9,0,3,0,true,q,false,true,0.0-2.0-0.37-0.334-3.334,1,1,0,81,false,stim,false,0,526.0,1,1,0,41387,WMM2,1039956,false,false,1081,image-keyboard-response,40
true,9,0,3,0,true,q,false,true,0.0-2.0-0.37-0.335-3.335,1,1,0,81,false,stim,false,0,479.2999999523163,1,1,0,41387,WMM2,1041964,false,false,1084,image-keyboard-response,41
true,10,0,1,0,true,q,false,true,0.0-2.0-0.37-0.336-3.336,1,0,0,81,true,stim,false,0,508.7000000476837,1,1,0,41387,WMM2,1043986,false,false,1087,image-keyboard-response,1
true,10,1,1,0,false,q,false,false,0.0-2.0-0.37-0.337-3.337,1,0,0,90,false,stim,true,1,1051.9000000357628,1,0,1,41387,WMM2,1046556,false,false,1090,image-keyboard-response,2
true,10,0,1,1,false,z,false,true,0.0-2.0-0.37-0.338-3.338,1,0,0,81,false,stim,true,0,522.9000000357628,1,0,2,41387,WMM2,1048602,false,true,1093,image-keyboard-response,3
true,10,0,1,1,false,z,false,false,0.0-2.0-0.37-0.339-3.339,1,0,0,81,false,stim,true,0,391.80000001192093,1,0,2,41387,WMM2,1050518,false,false,1096,image-keyboard-response,4
true,10,1,1,0,false,q,false,false,0.0-2.0-0.37-0.340-3.340,1,0,0,90,false,stim,true,1,793.3000000119209,1,0,1,41387,WMM2,1052837,false,false,1099,image-keyboard-response,5
true,10,2,1,0,false,q,true,false,0.0-2.0-0.37-0.341-3.341,1,0,0,68,false,stim,false,1,486.80000001192093,1,0,1,41387,WMM2,1054858,false,false,1102,image-keyboard-response,6
true,10,0,1,0,true,q,false,true,0.0-2.0-0.38-0.342-3.342,1,0,0,81,false,stim,false,0,1120.9000000357628,1,1,0,41387,WMM2,1057501,false,false,1105,image-keyboard-response,7
true,10,0,1,1,false,z,false,false,0.0-2.0-0.38-0.343-3.343,1,0,0,81,false,stim,true,0,809.7000000476837,1,0,2,41387,WMM2,1059827,false,false,1108,image-keyboard-response,8
true,10,0,1,0,true,q,false,true,0.0-2.0-0.38-0.344-3.344,1,0,0,81,false,stim,false,0,592.1000000238419,1,1,0,41387,WMM2,1061943,false,false,1111,image-keyboard-response,9
true,10,0,1,0,true,q,false,true,0.0-2.0-0.38-0.345-3.345,1,0,0,81,false,stim,false,0,468.9000000357628,1,1,0,41387,WMM2,1063924,false,false,1114,image-keyboard-response,10
true,10,0,1,0,true,q,false,true,0.0-2.0-0.38-0.346-3.346,1,0,0,81,false,stim,false,1,404.60000002384186,1,0,1,41387,WMM2,1065842,false,false,1117,image-keyboard-response,11
true,10,0,1,0,true,q,false,true,0.0-2.0-0.38-0.347-3.347,1,0,0,81,false,stim,false,1,386.80000001192093,1,0,1,41387,WMM2,1067741,false,false,1120,image-keyboard-response,12
true,10,0,1,1,false,z,false,false,0.0-2.0-0.38-0.348-3.348,1,0,0,81,false,stim,true,0,377.69999998807907,1,0,2,41387,WMM2,1069642,false,false,1123,image-keyboard-response,13
true,10,0,1,1,false,z,false,false,0.0-2.0-0.38-0.349-3.349,1,0,0,81,false,stim,true,0,685.6999999880791,1,0,2,41387,WMM2,1071846,false,false,1126,image-keyboard-response,14
true,10,0,1,0,true,q,false,true,0.0-2.0-0.38-0.350-3.350,1,0,0,81,false,stim,false,1,418.89999997615814,1,0,1,41387,WMM2,1073796,false,false,1129,image-keyboard-response,15
true,10,2,1,1,false,z,true,false,0.0-2.0-0.39-0.351-3.351,1,0,0,68,false,stim,false,0,655.8000000119209,1,0,2,41387,WMM2,1076000,false,false,1132,image-keyboard-response,16
true,10,0,1,0,true,q,false,false,0.0-2.0-0.39-0.352-3.352,1,0,0,81,false,stim,false,0,448.4000000357628,1,1,0,41387,WMM2,1077977,false,true,1135,image-keyboard-response,17
true,10,0,1,0,true,q,false,true,0.0-2.0-0.39-0.353-3.353,1,0,0,81,false,stim,false,1,369.10000002384186,1,0,1,41387,WMM2,1079881,false,false,1138,image-keyboard-response,18
true,10,0,1,0,true,q,false,true,0.0-2.0-0.39-0.354-3.354,1,0,0,81,false,stim,false,1,458.89999997615814,1,0,1,41387,WMM2,1081854,false,false,1141,image-keyboard-response,19
true,10,0,1,0,true,q,false,true,0.0-2.0-0.39-0.355-3.355,1,0,0,81,false,stim,false,0,661.6999999880791,1,1,0,41387,WMM2,1084044,false,false,1144,image-keyboard-response,20
true,10,2,1,1,false,z,true,false,0.0-2.0-0.39-0.356-3.356,1,0,0,68,false,stim,false,0,1685.199999988079,1,0,2,41387,WMM2,1087270,false,false,1147,image-keyboard-response,21
true,10,2,1,1,false,z,true,false,0.0-2.0-0.39-0.357-3.357,1,0,0,68,false,stim,false,0,565.7000000476837,1,0,2,41387,WMM2,1089359,false,false,1150,image-keyboard-response,22
true,10,0,1,0,true,q,false,true,0.0-2.0-0.39-0.358-3.358,1,0,0,81,false,stim,false,0,853.6999999880791,1,1,0,41387,WMM2,1091738,false,false,1153,image-keyboard-response,23
true,10,0,1,0,true,q,false,true,0.0-2.0-0.39-0.359-3.359,1,0,0,81,false,stim,false,1,454.5,1,0,1,41387,WMM2,1093728,false,false,1156,image-keyboard-response,24
true,10,0,1,1,false,z,false,false,0.0-2.0-0.40-0.360-3.360,1,0,0,81,false,stim,true,0,337.60000002384186,1,0,2,41387,WMM2,1095593,false,false,1159,image-keyboard-response,25
true,10,0,1,0,true,q,false,true,0.0-2.0-0.40-0.361-3.361,1,0,0,81,false,stim,false,0,534.5999999642372,1,1,0,41387,WMM2,1097643,false,false,1162,image-keyboard-response,26
true,10,0,1,0,true,q,false,true,0.0-2.0-0.40-0.362-3.362,1,0,0,81,false,stim,false,1,988.1000000238419,1,0,1,41387,WMM2,1100146,false,false,1165,image-keyboard-response,27
true,10,0,1,0,true,q,false,true,0.0-2.0-0.40-0.363-3.363,1,0,0,81,false,stim,false,1,630.6000000238419,1,0,1,41387,WMM2,1102301,false,false,1168,image-keyboard-response,28
true,10,1,1,1,true,z,false,true,0.0-2.0-0.40-0.364-3.364,1,0,0,90,false,stim,false,0,1256.9000000357628,1,0,2,41387,WMM2,1105075,false,false,1171,image-keyboard-response,29
true,10,0,1,0,true,q,false,true,0.0-2.0-0.40-0.365-3.365,1,0,0,81,false,stim,false,0,473.19999998807907,1,1,0,41387,WMM2,1107075,false,false,1174,image-keyboard-response,30
true,10,0,1,0,true,q,false,true,0.0-2.0-0.40-0.366-3.366,1,0,0,81,false,stim,false,1,944.2999999523163,1,0,1,41387,WMM2,1109551,false,false,1177,image-keyboard-response,31
true,10,1,1,1,true,z,false,true,0.0-2.0-0.40-0.367-3.367,1,0,0,90,false,stim,false,0,422.10000002384186,1,0,2,41387,WMM2,1111496,false,false,1180,image-keyboard-response,32
true,10,0,1,0,true,q,false,false,0.0-2.0-0.40-0.368-3.368,1,0,0,81,false,stim,false,0,482.89999997615814,1,1,0,41387,WMM2,1113503,false,true,1183,image-keyboard-response,33
true,10,0,1,0,true,q,false,true,0.0-2.0-0.41-0.369-3.369,1,0,0,81,false,stim,false,0,488.19999998807907,1,1,0,41387,WMM2,1115508,false,false,1186,image-keyboard-response,34
true,10,0,1,0,true,q,false,false,0.0-2.0-0.41-0.370-3.370,1,0,0,81,false,stim,false,1,684.1999999880791,1,1,1,41387,WMM2,1117716,false,true,1189,image-keyboard-response,35
true,10,0,1,1,false,z,false,false,0.0-2.0-0.41-0.371-3.371,1,0,0,81,false,stim,true,0,631.3000000119209,1,0,2,41387,WMM2,1119873,false,false,1192,image-keyboard-response,36
true,10,0,1,0,true,q,false,true,0.0-2.0-0.41-0.372-3.372,1,0,0,81,false,stim,false,0,515.0,1,1,0,41387,WMM2,1121904,false,false,1195,image-keyboard-response,37
true,10,1,1,0,false,q,false,false,0.0-2.0-0.41-0.373-3.373,1,0,0,90,false,stim,true,1,827.2000000476837,1,1,1,41387,WMM2,1124255,false,false,1198,image-keyboard-response,38
true,10,1,1,1,true,z,false,false,0.0-2.0-0.41-0.374-3.374,1,0,0,90,false,stim,false,0,410.5,1,0,2,41387,WMM2,1126179,false,true,1201,image-keyboard-response,39
true,10,2,1,1,false,z,true,false,0.0-2.0-0.41-0.375-3.375,1,0,0,68,false,stim,false,0,967.0999999642372,1,0,2,41387,WMM2,1128671,false,false,1204,image-keyboard-response,40
true,10,0,1,0,true,q,false,false,0.0-2.0-0.41-0.376-3.376,1,0,0,81,false,stim,false,0,629.3999999761581,1,1,0,41387,WMM2,1130818,false,true,1207,image-keyboard-response,41
true,10,2,1,0,false,q,true,false,0.0-2.0-0.41-0.377-3.377,1,0,0,68,false,stim,false,1,623.7000000476837,1,1,1,41387,WMM2,1132965,false,false,1210,image-keyboard-response,42
true,11,2,4,0,false,q,true,false,0.0-2.0-0.42-0.378-3.378,1,1,0,68,true,stim,false,0,373.0,1,1,0,41387,WMM2,1134870,false,false,1213,image-keyboard-response,1
true,11,0,4,0,true,q,false,true,0.0-2.0-0.42-0.379-3.379,1,1,0,81,false,stim,false,0,1115.7999999523163,1,1,1,41387,WMM2,1137504,false,false,1216,image-keyboard-response,2
true,11,0,4,0,true,q,false,true,0.0-2.0-0.42-0.380-3.380,1,1,0,81,false,stim,false,0,579.6999999880791,1,1,1,41387,WMM2,1139601,false,false,1219,image-keyboard-response,3
true,11,0,4,1,false,z,true,false,0.0-2.0-0.42-0.381-3.381,1,1,0,81,false,stim,false,1,1017.5999999642372,1,0,2,41387,WMM2,1142144,false,false,1222,image-keyboard-response,4
true,11,0,4,0,true,q,false,true,0.0-2.0-0.42-0.382-3.382,1,1,0,81,false,stim,false,0,517.8999999761581,1,1,0,41387,WMM2,1144182,false,false,1225,image-keyboard-response,5
true,11,1,4,1,true,z,false,true,0.0-2.0-0.42-0.383-3.383,1,1,0,90,false,stim,false,1,490.9000000357628,1,0,2,41387,WMM2,1146195,false,false,1228,image-keyboard-response,6
true,11,1,4,1,true,z,false,true,0.0-2.0-0.42-0.384-3.384,1,1,0,90,false,stim,false,1,624.3000000119209,1,0,2,41387,WMM2,1148343,false,false,1231,image-keyboard-response,7
true,11,0,4,0,true,q,false,true,0.0-2.0-0.42-0.385-3.385,1,1,0,81,false,stim,false,0,551.3000000119209,1,1,0,41387,WMM2,1150420,false,false,1234,image-keyboard-response,8
true,11,0,4,0,true,q,false,true,0.0-2.0-0.42-0.386-3.386,1,1,0,81,false,stim,false,0,395.80000001192093,1,1,1,41387,WMM2,1152343,false,false,1237,image-keyboard-response,9
true,11,0,4,0,true,q,false,true,0.0-2.0-0.43-0.387-3.387,1,1,0,81,false,stim,false,0,502.0999999642372,1,1,1,41387,WMM2,1154366,false,false,1240,image-keyboard-response,10
true,11,1,4,1,true,z,false,false,0.0-2.0-0.43-0.388-3.388,1,1,0,90,false,stim,false,1,609.1999999880791,1,0,2,41387,WMM2,1156494,false,true,1243,image-keyboard-response,11
true,11,0,4,0,true,q,false,false,0.0-2.0-0.43-0.389-3.389,1,1,0,81,false,stim,false,0,460.30000001192093,1,1,1,41387,WMM2,1158483,false,true,1246,image-keyboard-response,12
true,11,0,4,0,true,q,false,false,0.0-2.0-0.43-0.390-3.390,1,1,0,81,false,stim,false,0,434.80000001192093,1,1,0,41387,WMM2,1160445,false,true,1249,image-keyboard-response,13
true,11,0,4,0,true,q,false,true,0.0-2.0-0.43-0.391-3.391,1,1,0,81,false,stim,false,0,404.19999998807907,1,1,0,41387,WMM2,1162374,false,false,1252,image-keyboard-response,14
true,11,0,4,0,true,q,false,true,0.0-2.0-0.43-0.392-3.392,1,1,0,81,false,stim,false,0,407.10000002384186,1,1,0,41387,WMM2,1164315,false,false,1255,image-keyboard-response,15
true,11,0,4,0,true,q,false,true,0.0-2.0-0.43-0.393-3.393,1,1,0,81,false,stim,false,0,428.5,1,1,1,41387,WMM2,1166263,false,false,1258,image-keyboard-response,16
true,11,1,4,1,true,z,false,false,0.0-2.0-0.43-0.394-3.394,1,1,0,90,false,stim,false,1,722.7000000476837,1,0,2,41387,WMM2,1168506,false,true,1261,image-keyboard-response,17
true,11,1,4,1,true,z,false,true,0.0-2.0-0.43-0.395-3.395,1,1,0,90,false,stim,false,1,959.7000000476837,1,0,2,41387,WMM2,1170997,false,false,1264,image-keyboard-response,18
true,11,1,4,1,true,z,false,true,0.0-2.0-0.44-0.396-3.396,1,1,0,90,false,stim,false,1,420.5,1,0,2,41387,WMM2,1172936,false,false,1267,image-keyboard-response,19
true,11,0,4,0,true,q,false,true,0.0-2.0-0.44-0.397-3.397,1,1,0,81,false,stim,false,0,509.10000002384186,1,1,1,41387,WMM2,1174968,false,false,1270,image-keyboard-response,20
true,11,1,4,1,true,z,false,true,0.0-2.0-0.44-0.398-3.398,1,1,0,90,false,stim,false,1,697.7999999523163,1,0,2,41387,WMM2,1177203,false,false,1273,image-keyboard-response,21
true,11,1,4,1,true,z,false,true,0.0-2.0-0.44-0.399-3.399,1,1,0,90,false,stim,false,1,353.60000002384186,1,0,2,41387,WMM2,1179070,false,false,1276,image-keyboard-response,22
true,11,0,4,0,true,q,false,false,0.0-2.0-0.44-0.400-3.400,1,1,0,81,false,stim,false,0,519.0999999642372,1,1,1,41387,WMM2,1181120,false,true,1279,image-keyboard-response,23
true,11,0,4,0,true,q,false,true,0.0-2.0-0.44-0.401-3.401,1,1,0,81,false,stim,false,0,344.5,1,0,0,41387,WMM2,1182978,false,false,1282,image-keyboard-response,24
true,11,0,4,0,true,q,false,true,0.0-2.0-0.44-0.402-3.402,1,1,0,81,false,stim,false,0,362.0,1,1,1,41387,WMM2,1184864,false,false,1285,image-keyboard-response,25
true,11,0,4,0,true,q,false,true,0.0-2.0-0.44-0.403-3.403,1,1,0,81,false,stim,false,0,456.19999998807907,1,0,0,41387,WMM2,1186843,false,false,1288,image-keyboard-response,26
true,11,0,4,0,true,q,false,true,0.0-2.0-0.44-0.404-3.404,1,1,0,81,false,stim,false,0,419.10000002384186,1,0,0,41387,WMM2,1188780,false,false,1291,image-keyboard-response,27
true,11,0,4,0,true,q,false,false,0.0-2.0-0.45-0.405-3.405,1,1,0,81,false,stim,false,0,314.80000001192093,1,0,0,41387,WMM2,1190620,false,true,1294,image-keyboard-response,28
true,11,0,4,0,true,q,false,true,0.0-2.0-0.45-0.406-3.406,1,1,0,81,false,stim,false,0,361.9000000357628,1,0,0,41387,WMM2,1192503,false,false,1297,image-keyboard-response,29
true,11,2,4,1,false,z,true,true,0.0-2.0-0.45-0.407-3.407,1,1,0,68,false,stim,false,1,1141.0,1,0,2,41387,WMM2,1195163,false,true,1300,image-keyboard-response,30
true,12,2,1,0,false,q,true,false,0.0-2.0-0.45-0.408-3.408,0,1,0,68,true,stim,false,1,421.89999997615814,1,0,2,41387,WMM2,1197101,false,false,1303,image-keyboard-response,1
true,12,0,1,0,true,q,false,true,0.0-2.0-0.45-0.409-3.409,0,1,0,81,false,stim,false,0,501.0,1,1,1,41387,WMM2,1199124,false,false,1306,image-keyboard-response,2
true,12,0,1,0,true,q,false,true,0.0-2.0-0.45-0.410-3.410,0,1,0,81,false,stim,false,0,505.19999998807907,1,1,1,41387,WMM2,1201161,false,false,1309,image-keyboard-response,3
true,12,0,1,0,true,q,false,true,0.0-2.0-0.45-0.411-3.411,0,1,0,81,false,stim,false,0,351.30000001192093,1,1,1,41387,WMM2,1203032,false,false,1312,image-keyboard-response,4
true,12,1,1,0,false,q,false,false,0.0-2.0-0.45-0.412-3.412,0,1,0,90,false,stim,true,1,718.5,1,0,2,41387,WMM2,1205280,false,false,1315,image-keyboard-response,5
true,12,0,1,2,false,d,false,false,0.0-2.0-0.45-0.413-3.413,0,1,0,81,false,stim,true,0,520.1999999880791,1,0,0,41387,WMM2,1207315,false,false,1318,image-keyboard-response,6
true,12,0,1,0,true,q,false,true,0.0-2.0-0.46-0.414-3.414,0,1,0,81,false,stim,false,0,525.5999999642372,1,1,1,41387,WMM2,1209352,false,false,1321,image-keyboard-response,7
true,12,0,1,2,false,d,false,false,0.0-2.0-0.46-0.415-3.415,0,1,0,81,false,stim,true,0,593.9000000357628,1,0,0,41387,WMM2,1211466,false,false,1324,image-keyboard-response,8
true,12,1,1,0,false,q,false,false,0.0-2.0-0.46-0.416-3.416,0,1,0,90,false,stim,true,1,920.5,1,0,2,41387,WMM2,1213912,false,false,1327,image-keyboard-response,9
true,12,2,1,0,false,q,true,false,0.0-2.0-0.46-0.417-3.417,0,1,0,68,false,stim,false,1,1376.6000000238419,1,0,2,41387,WMM2,1216802,false,false,1330,image-keyboard-response,10
true,12,2,1,2,true,d,false,true,0.0-2.0-0.46-0.418-3.418,0,1,0,68,false,stim,false,0,374.0,1,0,0,41387,WMM2,1218689,false,false,1333,image-keyboard-response,11
true,12,0,1,0,true,q,false,true,0.0-2.0-0.46-0.419-3.419,0,1,0,81,false,stim,false,0,972.1999999880791,1,1,1,41387,WMM2,1221189,false,false,1336,image-keyboard-response,12
true,12,0,1,0,true,q,false,true,0.0-2.0-0.46-0.420-3.420,0,1,0,81,false,stim,false,1,1338.199999988079,1,0,2,41387,WMM2,1224040,false,false,1339,image-keyboard-response,13
true,12,2,1,2,true,d,false,true,0.0-2.0-0.46-0.421-3.421,0,1,0,68,false,stim,false,0,559.5,1,0,0,41387,WMM2,1226125,false,false,1342,image-keyboard-response,14
true,12,0,1,0,true,q,false,true,0.0-2.0-0.46-0.422-3.422,0,1,0,81,false,stim,false,0,422.4000000357628,1,1,1,41387,WMM2,1228069,false,false,1345,image-keyboard-response,15
true,12,0,1,0,true,q,false,true,0.0-2.0-0.47-0.423-3.423,0,1,0,81,false,stim,false,1,1108.5999999642372,1,0,2,41387,WMM2,1230704,false,false,1348,image-keyboard-response,16
true,12,0,1,0,true,q,false,true,0.0-2.0-0.47-0.424-3.424,0,1,0,81,false,stim,false,0,877.5,1,1,1,41387,WMM2,1233113,false,false,1351,image-keyboard-response,17
true,12,0,1,0,true,q,false,false,0.0-2.0-0.47-0.425-3.425,0,1,0,81,false,stim,false,1,346.9000000357628,1,0,2,41387,WMM2,1234982,false,true,1354,image-keyboard-response,18
true,12,0,1,0,true,q,false,true,0.0-2.0-0.47-0.426-3.426,0,1,0,81,false,stim,false,0,485.60000002384186,1,1,1,41387,WMM2,1236985,false,false,1357,image-keyboard-response,19
true,12,0,1,0,true,q,false,true,0.0-2.0-0.47-0.427-3.427,0,1,0,81,false,stim,false,0,421.80000001192093,1,1,1,41387,WMM2,1238918,false,false,1360,image-keyboard-response,20
true,12,2,1,2,true,d,false,true,0.0-2.0-0.47-0.428-3.428,0,1,0,68,false,stim,false,0,414.69999998807907,1,1,0,41387,WMM2,1240847,false,false,1363,image-keyboard-response,21
true,12,2,1,2,true,d,false,true,0.0-2.0-0.47-0.429-3.429,0,1,0,68,false,stim,false,0,404.9000000357628,1,1,0,41387,WMM2,1242772,false,false,1366,image-keyboard-response,22
true,12,2,1,2,true,d,false,true,0.0-2.0-0.47-0.430-3.430,0,1,0,68,false,stim,false,0,379.80000001192093,1,1,0,41387,WMM2,1244684,false,false,1369,image-keyboard-response,23
true,12,0,1,0,true,q,false,true,0.0-2.0-0.47-0.431-3.431,0,1,0,81,false,stim,false,1,431.10000002384186,1,1,2,41387,WMM2,1246644,false,false,1372,image-keyboard-response,24
true,12,0,1,0,true,q,false,true,0.0-2.0-0.48-0.432-3.432,0,1,0,81,false,stim,false,1,388.80000001192093,1,1,2,41387,WMM2,1248562,false,false,1375,image-keyboard-response,25
true,12,0,1,0,true,q,false,true,0.0-2.0-0.48-0.433-3.433,0,1,0,81,false,stim,false,0,429.9000000357628,1,0,1,41387,WMM2,1250515,false,false,1378,image-keyboard-response,26
true,12,0,1,0,true,q,false,true,0.0-2.0-0.48-0.434-3.434,0,1,0,81,false,stim,false,1,602.4000000357628,1,1,2,41387,WMM2,1252641,false,false,1381,image-keyboard-response,27
true,12,0,1,0,true,q,false,true,0.0-2.0-0.48-0.435-3.435,0,1,0,81,false,stim,false,0,432.89999997615814,1,0,1,41387,WMM2,1254607,false,false,1384,image-keyboard-response,28
true,12,0,1,0,true,q,false,true,0.0-2.0-0.48-0.436-3.436,0,1,0,81,false,stim,false,1,413.80000001192093,1,1,2,41387,WMM2,1256539,false,false,1387,image-keyboard-response,29
true,12,2,1,2,true,d,false,true,0.0-2.0-0.48-0.437-3.437,0,1,0,68,false,stim,false,0,561.0,1,1,0,41387,WMM2,1258631,false,false,1390,image-keyboard-response,30
true,13,0,3,1,false,z,false,false,0.0-2.0-0.48-0.438-3.438,1,0,1,81,true,stim,true,0,553.5,1,0,1,41387,WMM2,1260717,false,false,1393,image-keyboard-response,1
true,13,0,3,2,false,d,true,false,0.0-2.0-0.48-0.439-3.439,1,0,1,81,false,stim,false,2,744.3999999761581,1,1,0,41387,WMM2,1262983,false,false,1396,image-keyboard-response,2
true,13,2,3,2,true,d,false,false,0.0-2.0-0.48-0.440-3.440,1,0,1,68,false,stim,false,2,677.3000000119209,1,1,0,41387,WMM2,1265181,false,true,1399,image-keyboard-response,3
true,13,0,3,1,false,z,false,false,0.0-2.0-0.49-0.441-3.441,1,0,1,81,false,stim,true,0,712.3999999761581,1,0,1,41387,WMM2,1267416,false,false,1402,image-keyboard-response,4
true,13,2,3,2,true,d,false,true,0.0-2.0-0.49-0.442-3.442,1,0,1,68,false,stim,false,2,1038.0,1,1,0,41387,WMM2,1269975,false,false,1405,image-keyboard-response,5
true,13,1,3,1,true,z,false,true,0.0-2.0-0.49-0.443-3.443,1,0,1,90,false,stim,false,0,1126.0,1,0,1,41387,WMM2,1272622,false,false,1408,image-keyboard-response,6
true,13,1,3,0,false,q,true,true,0.0-2.0-0.49-0.444-3.444,1,0,1,90,false,stim,false,0,824.5,1,1,2,41387,WMM2,1274962,false,true,1411,image-keyboard-response,7
true,13,1,3,0,false,q,true,false,0.0-2.0-0.49-0.445-3.445,1,0,1,90,false,stim,false,0,464.0999999642372,1,1,2,41387,WMM2,1276957,false,false,1414,image-keyboard-response,8
true,13,1,3,0,false,q,true,true,0.0-2.0-0.49-0.446-3.446,1,0,1,90,false,stim,false,0,463.69999998807907,1,1,2,41387,WMM2,1278952,false,true,1417,image-keyboard-response,9
true,13,2,3,2,true,d,false,false,0.0-2.0-0.49-0.447-3.447,1,0,1,68,false,stim,false,2,487.4000000357628,1,1,0,41387,WMM2,1280965,false,true,1420,image-keyboard-response,10
true,13,1,3,1,true,z,false,true,0.0-2.0-0.49-0.448-3.448,1,0,1,90,false,stim,false,0,703.3000000119209,1,0,1,41387,WMM2,1283191,false,false,1423,image-keyboard-response,11
true,13,2,3,2,true,d,false,true,0.0-2.0-0.49-0.449-3.449,1,0,1,68,false,stim,false,2,636.6999999880791,1,1,0,41387,WMM2,1285361,false,false,1426,image-keyboard-response,12
true,13,1,3,0,false,q,true,true,0.0-2.0-0.50-0.450-3.450,1,0,1,90,false,stim,false,0,473.80000001192093,1,1,2,41387,WMM2,1287354,false,true,1429,image-keyboard-response,13
true,13,2,3,2,true,d,false,true,0.0-2.0-0.50-0.451-3.451,1,0,1,68,false,stim,false,2,498.7000000476837,1,1,0,41387,WMM2,1289367,false,false,1432,image-keyboard-response,14
true,13,1,3,1,true,z,false,true,0.0-2.0-0.50-0.452-3.452,1,0,1,90,false,stim,false,0,1037.2999999523163,1,0,1,41387,WMM2,1291925,false,false,1435,image-keyboard-response,15
true,13,1,3,1,true,z,false,true,0.0-2.0-0.50-0.453-3.453,1,0,1,90,false,stim,false,0,847.5,1,0,1,41387,WMM2,1294289,false,false,1438,image-keyboard-response,16
true,13,2,3,2,true,d,false,false,0.0-2.0-0.50-0.454-3.454,1,0,1,68,false,stim,false,2,504.10000002384186,1,1,0,41387,WMM2,1296317,false,true,1441,image-keyboard-response,17
true,13,1,3,0,false,q,true,false,0.0-2.0-0.50-0.455-3.455,1,0,1,90,false,stim,false,0,443.4000000357628,1,1,2,41387,WMM2,1298279,false,false,1444,image-keyboard-response,18
true,13,1,3,1,true,z,false,true,0.0-2.0-0.50-0.456-3.456,1,0,1,90,false,stim,false,0,716.1000000238419,1,0,1,41387,WMM2,1300507,false,false,1447,image-keyboard-response,19
true,13,2,3,2,true,d,false,false,0.0-2.0-0.50-0.457-3.457,1,0,1,68,false,stim,false,2,550.3999999761581,1,1,0,41387,WMM2,1302579,false,true,1450,image-keyboard-response,20
true,13,0,3,0,true,q,false,false,0.0-2.0-0.50-0.458-3.458,1,0,1,81,false,stim,false,0,552.1000000238419,1,1,2,41387,WMM2,1304650,false,true,1453,image-keyboard-response,21
true,13,2,3,0,false,q,true,false,0.0-2.0-0.51-0.459-3.459,1,0,1,68,false,stim,false,0,1042.5,1,1,2,41387,WMM2,1307219,false,false,1456,image-keyboard-response,22
true,13,1,3,1,true,z,false,true,0.0-2.0-0.51-0.460-3.460,1,0,1,90,false,stim,false,0,986.5,1,0,1,41387,WMM2,1309730,false,false,1459,image-keyboard-response,23
true,13,1,3,1,true,z,false,true,0.0-2.0-0.51-0.461-3.461,1,0,1,90,false,stim,false,0,570.7000000476837,1,0,1,41387,WMM2,1311827,false,false,1462,image-keyboard-response,24
true,13,1,3,0,false,q,true,false,0.0-2.0-0.51-0.462-3.462,1,0,1,90,false,stim,false,0,364.89999997615814,1,1,2,41387,WMM2,1313702,false,false,1465,image-keyboard-response,25
true,13,2,3,0,false,q,true,false,0.0-2.0-0.51-0.463-3.463,1,0,1,68,false,stim,false,0,775.3999999761581,1,1,2,41387,WMM2,1316005,false,false,1468,image-keyboard-response,26
true,13,1,3,1,true,z,false,true,0.0-2.0-0.51-0.464-3.464,1,0,1,90,false,stim,false,0,648.1999999880791,1,0,1,41387,WMM2,1318170,false,false,1471,image-keyboard-response,27
true,13,2,3,2,true,d,false,true,0.0-2.0-0.51-0.465-3.465,1,0,1,68,false,stim,false,2,1601.199999988079,1,1,0,41387,WMM2,1321287,false,false,1474,image-keyboard-response,28
true,13,2,3,2,true,d,false,true,0.0-2.0-0.51-0.466-3.466,1,0,1,68,false,stim,false,2,644.6999999880791,1,1,0,41387,WMM2,1323466,false,false,1477,image-keyboard-response,29
true,13,2,3,2,true,d,false,true,0.0-2.0-0.51-0.467-3.467,1,0,1,68,false,stim,false,2,464.0,1,1,0,41387,WMM2,1325447,false,false,1480,image-keyboard-response,30
true,13,2,3,1,false,z,true,false,0.0-2.0-0.52-0.468-3.468,1,0,1,68,false,stim,false,0,927.1999999880791,1,0,1,41387,WMM2,1327896,false,false,1483,image-keyboard-response,31
true,13,2,3,0,false,q,true,false,0.0-2.0-0.52-0.469-3.469,1,0,1,68,false,stim,false,0,449.19999998807907,1,1,2,41387,WMM2,1329870,false,false,1486,image-keyboard-response,32
true,13,2,3,2,true,d,false,true,0.0-2.0-0.52-0.470-3.470,1,0,1,68,false,stim,false,2,1294.3999999761581,1,1,0,41387,WMM2,1332689,false,false,1489,image-keyboard-response,33
true,13,2,3,2,true,d,false,true,0.0-2.0-0.52-0.471-3.471,1,0,1,68,false,stim,false,2,475.0,1,1,0,41387,WMM2,1334691,false,false,1492,image-keyboard-response,34
true,13,1,3,0,false,q,true,false,0.0-2.0-0.52-0.472-3.472,1,0,1,90,false,stim,false,0,589.0,1,1,2,41387,WMM2,1336809,false,false,1495,image-keyboard-response,35
true,13,1,3,1,true,z,false,true,0.0-2.0-0.52-0.473-3.473,1,0,1,90,false,stim,false,0,960.6999999880791,1,0,1,41387,WMM2,1339292,false,false,1498,image-keyboard-response,36
true,13,0,3,0,true,q,false,true,0.0-2.0-0.52-0.474-3.474,1,0,1,81,false,stim,false,0,568.4000000357628,1,1,2,41387,WMM2,1341405,false,false,1501,image-keyboard-response,37
true,13,1,3,1,true,z,false,true,0.0-2.0-0.52-0.475-3.475,1,0,1,90,false,stim,false,0,680.8000000119209,1,0,1,41387,WMM2,1343621,false,false,1504,image-keyboard-response,38
true,13,2,3,2,true,d,false,true,0.0-2.0-0.52-0.476-3.476,1,0,1,68,false,stim,false,2,506.7000000476837,1,1,0,41387,WMM2,1345651,false,false,1507,image-keyboard-response,39
true,13,2,3,2,true,d,false,true,0.0-2.0-0.53-0.477-3.477,1,0,1,68,false,stim,false,2,522.4000000357628,1,1,0,41387,WMM2,1347694,false,false,1510,image-keyboard-response,40
true,13,2,3,2,true,d,false,true,0.0-2.0-0.53-0.478-3.478,1,0,1,68,false,stim,false,2,457.80000001192093,1,1,0,41387,WMM2,1349676,false,false,1513,image-keyboard-response,41
true,13,1,3,0,false,q,true,false,0.0-2.0-0.53-0.479-3.479,1,0,1,90,false,stim,false,0,1825.9000000357628,1,1,2,41387,WMM2,1353027,false,false,1516,image-keyboard-response,42
true,13,1,3,1,true,z,false,true,0.0-2.0-0.53-0.480-3.480,1,0,1,90,false,stim,false,0,535.8000000119209,1,0,1,41387,WMM2,1355082,false,false,1519,image-keyboard-response,43
true,13,2,3,2,true,d,false,false,0.0-2.0-0.53-0.481-3.481,1,0,1,68,false,stim,false,2,600.6999999880791,1,1,0,41387,WMM2,1357214,false,true,1522,image-keyboard-response,44
true,13,0,3,0,true,q,false,true,0.0-2.0-0.53-0.482-3.482,1,0,1,81,false,stim,false,0,419.30000001192093,1,1,2,41387,WMM2,1359155,false,false,1525,image-keyboard-response,45
true,13,1,3,1,true,z,false,true,0.0-2.0-0.53-0.483-3.483,1,0,1,90,false,stim,false,0,705.6999999880791,1,0,1,41387,WMM2,1361391,false,false,1528,image-keyboard-response,46
true,13,0,3,0,true,q,false,true,0.0-2.0-0.53-0.484-3.484,1,0,1,81,false,stim,false,0,643.0,1,1,2,41387,WMM2,1363557,false,false,1531,image-keyboard-response,47
true,13,1,3,1,true,z,false,true,0.0-2.0-0.53-0.485-3.485,1,0,1,90,false,stim,false,0,513.3000000119209,1,1,1,41387,WMM2,1365600,false,false,1534,image-keyboard-response,48
true,13,0,3,0,true,q,false,true,0.0-2.0-0.54-0.486-3.486,1,0,1,81,false,stim,false,0,627.0,1,1,2,41387,WMM2,1367753,false,false,1537,image-keyboard-response,49
true,13,1,3,1,true,z,false,false,0.0-2.0-0.54-0.487-3.487,1,0,1,90,false,stim,false,0,393.89999997615814,1,1,1,41387,WMM2,1369669,false,true,1540,image-keyboard-response,50
true,13,0,3,0,true,q,false,true,0.0-2.0-0.54-0.488-3.488,1,0,1,81,false,stim,false,0,547.4000000357628,1,1,2,41387,WMM2,1371744,false,false,1543,image-keyboard-response,51
true,13,2,3,2,true,d,false,true,0.0-2.0-0.54-0.489-3.489,1,0,1,68,false,stim,false,2,735.3000000119209,1,0,0,41387,WMM2,1374005,false,false,1546,image-keyboard-response,52
true,13,2,3,2,true,d,false,false,0.0-2.0-0.54-0.490-3.490,1,0,1,68,false,stim,false,2,437.10000002384186,1,0,0,41387,WMM2,1375963,false,true,1549,image-keyboard-response,53
true,13,2,3,2,true,d,false,true,0.0-2.0-0.54-0.491-3.491,1,0,1,68,false,stim,false,2,373.19999998807907,1,0,0,41387,WMM2,1377862,false,false,1552,image-keyboard-response,54
true,13,1,3,1,true,z,false,true,0.0-2.0-0.54-0.492-3.492,1,0,1,90,false,stim,false,0,619.8999999761581,1,1,1,41387,WMM2,1379994,false,false,1555,image-keyboard-response,55
true,13,1,3,1,true,z,false,true,0.0-2.0-0.54-0.493-3.493,1,0,1,90,false,stim,false,0,528.0999999642372,1,1,1,41387,WMM2,1382049,false,false,1558,image-keyboard-response,56
true,13,0,3,0,true,q,false,true,0.0-2.0-0.54-0.494-3.494,1,0,1,81,false,stim,false,0,524.6999999880791,1,1,2,41387,WMM2,1384093,false,false,1561,image-keyboard-response,57
true,14,0,0,1,false,z,true,true,0.0-2.0-0.55-0.495-3.495,0,1,1,81,true,stim,false,1,1301.199999988079,1,1,1,41387,WMM2,1508098,false,true,1684,image-keyboard-response,1
true,14,1,0,2,false,d,true,false,0.0-2.0-0.55-0.496-3.496,0,1,1,90,false,stim,false,2,783.1999999880791,1,0,0,41387,WMM2,1510409,false,false,1687,image-keyboard-response,2
true,14,2,0,0,false,q,true,false,0.0-2.0-0.55-0.497-3.497,0,1,1,68,false,stim,false,0,695.3999999761581,1,1,2,41387,WMM2,1512619,false,false,1690,image-keyboard-response,3
true,14,1,0,0,false,q,true,false,0.0-2.0-0.55-0.498-3.498,0,1,1,90,false,stim,false,0,1057.699999988079,1,1,2,41387,WMM2,1515186,false,false,1693,image-keyboard-response,4
true,14,0,0,0,true,q,false,true,0.0-2.0-0.55-0.499-3.499,0,1,1,81,false,stim,false,0,579.8000000119209,1,1,2,41387,WMM2,1517291,false,false,1696,image-keyboard-response,5
true,14,2,0,2,true,d,false,true,0.0-2.0-0.55-0.500-3.500,0,1,1,68,false,stim,false,2,925.1999999880791,1,0,0,41387,WMM2,1519760,false,false,1699,image-keyboard-response,6
true,14,0,0,1,false,z,true,false,0.0-2.0-0.55-0.501-3.501,0,1,1,81,false,stim,false,1,686.2999999523163,1,1,1,41387,WMM2,1521997,false,false,1702,image-keyboard-response,7
true,14,1,0,1,true,z,false,true,0.0-2.0-0.55-0.502-3.502,0,1,1,90,false,stim,false,1,642.0,1,1,1,41387,WMM2,1524155,false,false,1705,image-keyboard-response,8
true,14,0,0,2,false,d,true,false,0.0-2.0-0.55-0.503-3.503,0,1,1,81,false,stim,false,2,1015.1000000238419,1,0,0,41387,WMM2,1526684,false,false,1708,image-keyboard-response,9
true,14,2,0,0,false,q,true,false,0.0-2.0-0.56-0.504-3.504,0,1,1,68,false,stim,false,0,811.5,1,1,2,41387,WMM2,1529018,false,false,1711,image-keyboard-response,10
true,14,2,0,2,true,d,false,true,0.0-2.0-0.56-0.505-3.505,0,1,1,68,false,stim,false,2,869.5,1,0,0,41387,WMM2,1531423,false,false,1714,image-keyboard-response,11
true,14,1,0,1,true,z,false,true,0.0-2.0-0.56-0.506-3.506,0,1,1,90,false,stim,false,1,846.8999999761581,1,1,1,41387,WMM2,1533792,false,false,1717,image-keyboard-response,12
true,14,2,0,2,true,d,false,true,0.0-2.0-0.56-0.507-3.507,0,1,1,68,false,stim,false,2,438.19999998807907,1,0,0,41387,WMM2,1535740,false,false,1720,image-keyboard-response,13
true,14,2,0,2,true,d,false,true,0.0-2.0-0.56-0.508-3.508,0,1,1,68,false,stim,false,2,741.0999999642372,1,0,0,41387,WMM2,1538003,false,false,1723,image-keyboard-response,14
true,14,1,0,1,true,z,false,true,0.0-2.0-0.56-0.509-3.509,0,1,1,90,false,stim,false,1,413.2000000476837,1,1,1,41387,WMM2,1539934,false,false,1726,image-keyboard-response,15
true,14,0,0,0,true,q,false,true,0.0-2.0-0.56-0.510-3.510,0,1,1,81,false,stim,false,0,565.9000000357628,1,1,2,41387,WMM2,1542019,false,false,1729,image-keyboard-response,16
true,14,1,0,1,true,z,false,false,0.0-2.0-0.56-0.511-3.511,0,1,1,90,false,stim,false,1,429.10000002384186,1,1,1,41387,WMM2,1543978,false,true,1732,image-keyboard-response,17
true,14,0,0,0,true,q,false,true,0.0-2.0-0.56-0.512-3.512,0,1,1,81,false,stim,false,0,660.8999999761581,1,1,2,41387,WMM2,1546164,false,false,1735,image-keyboard-response,18
true,14,2,0,2,true,d,false,true,0.0-2.0-0.57-0.513-3.513,0,1,1,68,false,stim,false,2,452.30000001192093,1,0,0,41387,WMM2,1548132,false,false,1738,image-keyboard-response,19
true,14,1,0,1,true,z,false,true,0.0-2.0-0.57-0.514-3.514,0,1,1,90,false,stim,false,1,463.39999997615814,1,1,1,41387,WMM2,1550108,false,false,1741,image-keyboard-response,20
true,14,2,0,2,true,d,false,true,0.0-2.0-0.57-0.515-3.515,0,1,1,68,false,stim,false,2,593.0,1,0,0,41387,WMM2,1552219,false,false,1744,image-keyboard-response,21
true,14,1,0,1,true,z,false,true,0.0-2.0-0.57-0.516-3.516,0,1,1,90,false,stim,false,1,396.89999997615814,1,1,1,41387,WMM2,1554125,false,false,1747,image-keyboard-response,22
true,14,1,0,1,true,z,false,true,0.0-2.0-0.57-0.517-3.517,0,1,1,90,false,stim,false,1,523.3999999761581,1,1,1,41387,WMM2,1556179,false,false,1750,image-keyboard-response,23
true,14,0,0,0,true,q,false,false,0.0-2.0-0.57-0.518-3.518,0,1,1,81,false,stim,false,0,632.8000000119209,1,1,2,41387,WMM2,1558328,false,true,1753,image-keyboard-response,24
true,14,0,0,0,true,q,false,true,0.0-2.0-0.57-0.519-3.519,0,1,1,81,false,stim,false,0,529.8000000119209,1,1,2,41387,WMM2,1560374,false,false,1756,image-keyboard-response,25
true,14,0,0,0,true,q,false,false,0.0-2.0-0.57-0.520-3.520,0,1,1,81,false,stim,false,0,538.8000000119209,1,1,2,41387,WMM2,1562430,false,true,1759,image-keyboard-response,26
true,14,2,0,2,true,d,false,true,0.0-2.0-0.57-0.521-3.521,0,1,1,68,false,stim,false,2,581.1999999880791,1,0,0,41387,WMM2,1564537,false,false,1762,image-keyboard-response,27
true,14,1,0,1,true,z,false,true,0.0-2.0-0.58-0.522-3.522,0,1,1,90,false,stim,false,1,550.2999999523163,1,1,1,41387,WMM2,1566600,false,false,1765,image-keyboard-response,28
true,14,1,0,1,true,z,false,true,0.0-2.0-0.58-0.523-3.523,0,1,1,90,false,stim,false,1,426.89999997615814,1,1,1,41387,WMM2,1568556,false,false,1768,image-keyboard-response,29
true,14,0,0,0,true,q,false,true,0.0-2.0-0.58-0.524-3.524,0,1,1,81,false,stim,false,0,610.1999999880791,1,1,2,41387,WMM2,1570680,false,false,1771,image-keyboard-response,30
true,15,0,2,0,true,q,false,true,0.0-2.0-0.58-0.525-3.525,0,1,1,81,true,stim,false,0,526.5,1,1,2,41387,WMM2,1572741,false,false,1774,image-keyboard-response,1
true,15,2,2,1,false,z,false,false,0.0-2.0-0.58-0.526-3.526,0,1,1,68,false,stim,true,2,684.0,1,0,0,41387,WMM2,1574960,false,false,1777,image-keyboard-response,2
true,15,1,2,1,true,z,false,true,0.0-2.0-0.58-0.527-3.527,0,1,1,90,false,stim,false,1,498.5,1,1,1,41387,WMM2,1576972,false,false,1780,image-keyboard-response,3
true,15,0,2,0,true,q,false,true,0.0-2.0-0.58-0.528-3.528,0,1,1,81,false,stim,false,0,623.1999999880791,1,1,2,41387,WMM2,1579118,false,false,1783,image-keyboard-response,4
true,15,2,2,1,false,z,false,false,0.0-2.0-0.58-0.529-3.529,0,1,1,68,false,stim,true,2,490.69999998807907,1,0,0,41387,WMM2,1581132,false,false,1786,image-keyboard-response,5
true,15,2,2,1,false,z,false,true,0.0-2.0-0.58-0.530-3.530,0,1,1,68,false,stim,true,2,499.19999998807907,1,0,0,41387,WMM2,1583151,false,true,1789,image-keyboard-response,6
true,15,0,2,0,true,q,false,true,0.0-2.0-0.59-0.531-3.531,0,1,1,81,false,stim,false,0,729.7000000476837,1,1,2,41387,WMM2,1585409,false,false,1792,image-keyboard-response,7
true,15,1,2,1,true,z,false,true,0.0-2.0-0.59-0.532-3.532,0,1,1,90,false,stim,false,1,508.5,1,1,1,41387,WMM2,1587442,false,false,1795,image-keyboard-response,8
true,15,1,2,1,true,z,false,true,0.0-2.0-0.59-0.533-3.533,0,1,1,90,false,stim,false,1,723.9000000357628,1,1,1,41387,WMM2,1589690,false,false,1798,image-keyboard-response,9
true,15,2,2,1,false,z,false,false,0.0-2.0-0.59-0.534-3.534,0,1,1,68,false,stim,true,2,544.8000000119209,1,0,0,41387,WMM2,1591770,false,false,1801,image-keyboard-response,10
true,15,0,2,0,true,q,false,true,0.0-2.0-0.59-0.535-3.535,0,1,1,81,false,stim,false,0,655.5,1,1,2,41387,WMM2,1593942,false,false,1804,image-keyboard-response,11
true,15,1,2,1,true,z,false,true,0.0-2.0-0.59-0.536-3.536,0,1,1,90,false,stim,false,2,607.5,1,0,0,41387,WMM2,1596082,false,false,1807,image-keyboard-response,12
true,15,1,2,1,true,z,false,true,0.0-2.0-0.59-0.537-3.537,0,1,1,90,false,stim,false,2,474.0999999642372,1,0,0,41387,WMM2,1598069,false,false,1810,image-keyboard-response,13
true,15,1,2,1,true,z,false,true,0.0-2.0-0.59-0.538-3.538,0,1,1,90,false,stim,false,1,1040.2000000476837,1,1,1,41387,WMM2,1600633,false,false,1813,image-keyboard-response,14
true,15,0,2,0,true,q,false,true,0.0-2.0-0.59-0.539-3.539,0,1,1,81,false,stim,false,0,727.5,1,1,2,41387,WMM2,1602881,false,false,1816,image-keyboard-response,15
true,15,1,2,1,true,z,false,true,0.0-2.0-0.60-0.540-3.540,0,1,1,90,false,stim,false,1,446.39999997615814,1,1,1,41387,WMM2,1604850,false,false,1819,image-keyboard-response,16
true,15,0,2,0,true,q,false,true,0.0-2.0-0.60-0.541-3.541,0,1,1,81,false,stim,false,0,645.1999999880791,1,1,2,41387,WMM2,1607013,false,false,1822,image-keyboard-response,17
true,15,0,2,0,true,q,false,true,0.0-2.0-0.60-0.542-3.542,0,1,1,81,false,stim,false,0,546.3000000119209,1,1,2,41387,WMM2,1609082,false,false,1825,image-keyboard-response,18
true,15,2,2,1,false,z,false,false,0.0-2.0-0.60-0.543-3.543,0,1,1,68,false,stim,true,2,1124.800000011921,1,0,0,41387,WMM2,1611736,false,false,1828,image-keyboard-response,19
true,15,1,2,1,true,z,false,true,0.0-2.0-0.60-0.544-3.544,0,1,1,90,false,stim,false,2,403.5999999642372,1,0,0,41387,WMM2,1613670,false,false,1831,image-keyboard-response,20
true,15,0,2,0,true,q,false,true,0.0-2.0-0.60-0.545-3.545,0,1,1,81,false,stim,false,0,582.1000000238419,1,1,2,41387,WMM2,1615776,false,false,1834,image-keyboard-response,21
true,15,1,2,1,true,z,false,true,0.0-2.0-0.60-0.546-3.546,0,1,1,90,false,stim,false,1,506.9000000357628,1,1,1,41387,WMM2,1617814,false,false,1837,image-keyboard-response,22
true,15,1,2,1,true,z,false,false,0.0-2.0-0.60-0.547-3.547,0,1,1,90,false,stim,false,1,365.10000002384186,1,1,1,41387,WMM2,1619705,false,true,1840,image-keyboard-response,23
true,15,0,2,1,false,z,true,false,0.0-2.0-0.60-0.548-3.548,0,1,1,81,false,stim,false,2,582.8999999761581,1,0,0,41387,WMM2,1621807,false,false,1843,image-keyboard-response,24
true,15,0,2,0,true,q,false,true,0.0-2.0-0.61-0.549-3.549,0,1,1,81,false,stim,false,0,903.0,1,1,2,41387,WMM2,1624226,false,false,1846,image-keyboard-response,25
true,15,0,2,0,true,q,false,true,0.0-2.0-0.61-0.550-3.550,0,1,1,81,false,stim,false,0,547.0,1,1,2,41387,WMM2,1626295,false,false,1849,image-keyboard-response,26
true,15,1,2,1,true,z,false,false,0.0-2.0-0.61-0.551-3.551,0,1,1,90,false,stim,false,2,394.60000002384186,1,0,0,41387,WMM2,1628228,false,true,1852,image-keyboard-response,27
true,15,0,2,0,true,q,false,true,0.0-2.0-0.61-0.552-3.552,0,1,1,81,false,stim,false,0,605.5999999642372,1,1,2,41387,WMM2,1630347,false,false,1855,image-keyboard-response,28
true,15,1,2,1,true,z,false,true,0.0-2.0-0.61-0.553-3.553,0,1,1,90,false,stim,false,1,898.8000000119209,1,1,1,41387,WMM2,1632769,false,false,1858,image-keyboard-response,29
true,15,0,2,1,false,z,true,false,0.0-2.0-0.61-0.554-3.554,0,1,1,81,false,stim,false,2,560.1000000238419,1,0,0,41387,WMM2,1634845,false,false,1861,image-keyboard-response,30
true,15,1,2,1,true,z,false,true,0.0-2.0-0.61-0.555-3.555,0,1,1,90,false,stim,false,1,750.8000000119209,1,1,1,41387,WMM2,1637117,false,false,1864,image-keyboard-response,31
true,15,2,2,1,false,z,false,true,0.0-2.0-0.61-0.556-3.556,0,1,1,68,false,stim,true,2,818.5,1,0,0,41387,WMM2,1639465,false,true,1867,image-keyboard-response,32
true,15,1,2,1,true,z,false,true,0.0-2.0-0.61-0.557-3.557,0,1,1,90,false,stim,false,1,873.8999999761581,1,1,1,41387,WMM2,1641860,false,false,1870,image-keyboard-response,33
true,15,1,2,1,true,z,false,true,0.0-2.0-0.62-0.558-3.558,0,1,1,90,false,stim,false,1,502.39999997615814,1,1,1,41387,WMM2,1643880,false,false,1873,image-keyboard-response,34
true,15,1,2,1,true,z,false,true,0.0-2.0-0.62-0.559-3.559,0,1,1,90,false,stim,false,1,434.89999997615814,1,1,1,41387,WMM2,1645850,false,false,1876,image-keyboard-response,35
true,15,2,2,1,false,z,false,false,0.0-2.0-0.62-0.560-3.560,0,1,1,68,false,stim,true,2,891.0,1,0,0,41387,WMM2,1648276,false,false,1879,image-keyboard-response,36
true,15,2,2,1,false,z,false,false,0.0-2.0-0.62-0.561-3.561,0,1,1,68,false,stim,true,2,508.5,1,0,0,41387,WMM2,1650312,false,false,1882,image-keyboard-response,37
true,15,1,2,1,true,z,false,true,0.0-2.0-0.62-0.562-3.562,0,1,1,90,false,stim,false,1,899.5999999642372,1,1,1,41387,WMM2,1652736,false,false,1885,image-keyboard-response,38
true,15,1,2,0,false,q,true,false,0.0-2.0-0.62-0.563-3.563,0,1,1,90,false,stim,false,0,518.6000000238419,1,1,2,41387,WMM2,1654769,false,false,1888,image-keyboard-response,39
true,15,0,2,0,true,q,false,true,0.0-2.0-0.62-0.564-3.564,0,1,1,81,false,stim,false,0,380.9000000357628,1,1,2,41387,WMM2,1656673,false,false,1891,image-keyboard-response,40
true,15,0,2,0,true,q,false,true,0.0-2.0-0.62-0.565-3.565,0,1,1,81,false,stim,false,0,628.5,1,1,2,41387,WMM2,1658824,false,false,1894,image-keyboard-response,41
true,15,2,2,1,false,z,false,false,0.0-2.0-0.62-0.566-3.566,0,1,1,68,false,stim,true,2,918.8000000119209,1,0,0,41387,WMM2,1661267,false,false,1897,image-keyboard-response,42
true,15,2,2,0,false,q,true,true,0.0-2.0-0.63-0.567-3.567,0,1,1,68,false,stim,false,0,1529.800000011921,1,1,2,41387,WMM2,1664314,false,true,1900,image-keyboard-response,43
true,15,2,2,1,false,z,false,false,0.0-2.0-0.63-0.568-3.568,0,1,1,68,false,stim,true,2,1046.800000011921,1,0,0,41387,WMM2,1666896,false,false,1903,image-keyboard-response,44
true,15,2,2,1,false,z,true,true,0.0-2.0-0.63-0.569-3.569,0,1,1,68,false,stim,false,1,551.8999999761581,1,1,1,41387,WMM2,1668973,false,true,1906,image-keyboard-response,45
true,15,2,2,0,false,q,true,false,0.0-2.0-0.63-0.570-3.570,0,1,1,68,false,stim,false,0,625.9000000357628,1,1,2,41387,WMM2,1671123,false,false,1909,image-keyboard-response,46
true,15,1,2,1,true,z,false,true,0.0-2.0-0.63-0.571-3.571,0,1,1,90,false,stim,false,2,1062.6000000238419,1,0,0,41387,WMM2,1673700,false,false,1912,image-keyboard-response,47
true,15,2,2,1,false,z,true,false,0.0-2.0-0.63-0.572-3.572,0,1,1,68,false,stim,false,1,486.5,1,1,1,41387,WMM2,1675714,false,false,1915,image-keyboard-response,48
true,15,1,2,1,true,z,false,true,0.0-2.0-0.63-0.573-3.573,0,1,1,90,false,stim,false,1,1237.699999988079,1,1,1,41387,WMM2,1678482,false,false,1918,image-keyboard-response,49
true,15,1,2,1,true,z,false,true,0.0-2.0-0.63-0.574-3.574,0,1,1,90,false,stim,false,2,591.0,1,0,0,41387,WMM2,1680589,false,false,1921,image-keyboard-response,50
true,15,2,2,0,false,q,true,false,0.0-2.0-0.63-0.575-3.575,0,1,1,68,false,stim,false,0,821.5,1,0,2,41387,WMM2,1682929,false,false,1924,image-keyboard-response,51
true,15,1,2,1,true,z,false,true,0.0-2.0-0.64-0.576-3.576,0,1,1,90,false,stim,false,2,649.0,1,0,0,41387,WMM2,1685117,false,false,1927,image-keyboard-response,52
true,15,0,2,0,true,q,false,true,0.0-2.0-0.64-0.577-3.577,0,1,1,81,false,stim,false,0,900.6999999880791,1,0,2,41387,WMM2,1687542,false,false,1930,image-keyboard-response,53
true,15,1,2,1,true,z,false,true,0.0-2.0-0.64-0.578-3.578,0,1,1,90,false,stim,false,1,628.8999999761581,1,1,1,41387,WMM2,1689682,false,false,1933,image-keyboard-response,54
true,15,1,2,1,true,z,false,true,0.0-2.0-0.64-0.579-3.579,0,1,1,90,false,stim,false,1,477.5,1,1,1,41387,WMM2,1691689,false,false,1936,image-keyboard-response,55
true,15,0,2,0,true,q,false,true,0.0-2.0-0.64-0.580-3.580,0,1,1,81,false,stim,false,0,764.4000000357628,1,0,2,41387,WMM2,1693978,false,false,1939,image-keyboard-response,56
true,15,1,2,1,true,z,false,true,0.0-2.0-0.64-0.581-3.581,0,1,1,90,false,stim,false,2,693.5,1,0,0,41387,WMM2,1696199,false,false,1942,image-keyboard-response,57
true,15,0,2,0,true,q,false,false,0.0-2.0-0.64-0.582-3.582,0,1,1,81,false,stim,false,0,668.1999999880791,1,0,2,41387,WMM2,1698396,false,true,1945,image-keyboard-response,58
true,15,1,2,1,true,z,false,true,0.0-2.0-0.64-0.583-3.583,0,1,1,90,false,stim,false,2,665.1000000238419,1,0,0,41387,WMM2,1700588,false,false,1948,image-keyboard-response,59
true,15,1,2,1,true,z,false,true,0.0-2.0-0.64-0.584-3.584,0,1,1,90,false,stim,false,1,466.80000001192093,1,1,1,41387,WMM2,1702574,false,false,1951,image-keyboard-response,60
true,16,1,1,2,false,d,false,false,0.0-2.0-0.65-0.585-3.585,0,1,0,90,true,stim,true,1,733.1999999880791,1,0,0,41387,WMM2,1704818,false,false,1954,image-keyboard-response,1
true,16,0,1,2,false,d,false,false,0.0-2.0-0.65-0.586-3.586,0,1,0,81,false,stim,true,0,708.1000000238419,1,0,2,41387,WMM2,1707042,false,false,1957,image-keyboard-response,2
true,16,1,1,2,false,d,true,false,0.0-2.0-0.65-0.587-3.587,0,1,0,90,false,stim,false,0,725.7999999523163,1,0,2,41387,WMM2,1709277,false,false,1960,image-keyboard-response,3
true,16,1,1,2,false,d,false,false,0.0-2.0-0.65-0.588-3.588,0,1,0,90,false,stim,true,1,643.6000000238419,1,0,0,41387,WMM2,1711445,false,false,1963,image-keyboard-response,4
true,16,2,1,2,true,d,false,true,0.0-2.0-0.65-0.589-3.589,0,1,0,68,false,stim,false,0,676.8999999761581,1,0,2,41387,WMM2,1713659,false,false,1966,image-keyboard-response,5
true,16,1,1,1,true,z,false,true,0.0-2.0-0.65-0.590-3.590,0,1,0,90,false,stim,false,1,695.5,1,1,1,41387,WMM2,1715873,false,false,1969,image-keyboard-response,6
true,16,1,1,1,true,z,false,true,0.0-2.0-0.65-0.591-3.591,0,1,0,90,false,stim,false,1,509.89999997615814,1,1,1,41387,WMM2,1717907,false,false,1972,image-keyboard-response,7
true,16,1,1,1,true,z,false,true,0.0-2.0-0.65-0.592-3.592,0,1,0,90,false,stim,false,1,447.9000000357628,1,1,1,41387,WMM2,1719882,false,false,1975,image-keyboard-response,8
true,16,0,1,2,false,d,true,true,0.0-2.0-0.65-0.593-3.593,0,1,0,81,false,stim,false,1,802.3000000119209,1,0,0,41387,WMM2,1722199,false,true,1978,image-keyboard-response,9
