answered,blockNum,choice,condition,corResp,correct,correct_response,explo,fb,internal_node_id,isStable_1,isStable_2,isStable_3,key_press,newBlock,part,persev,persevResp,rt,sessNum,stableAS,stimulus,subject,task,time_elapsed,training,trap,trial_index,trial_type,trialsInBlock
false,1,-1,0,0,false,q,false,false,0.0-2.0-0.0-0.0-3.0,0,0,0,,true,stim,true,-1,,1,0,2,42950,WMM1,916767,false,false,160,image-keyboard-response,1
true,1,2,0,0,false,q,true,false,0.0-2.0-0.0-0.1-3.1,0,0,0,68,false,stim,false,-1,1348.0,1,0,0,42950,WMM1,919619,false,false,163,image-keyboard-response,2
true,1,2,0,1,false,z,true,false,0.0-2.0-0.0-0.2-3.2,0,0,0,68,false,stim,false,-1,1769.9999999998836,1,0,1,42950,WMM1,922893,false,false,166,image-keyboard-response,3
true,1,2,0,0,false,q,true,false,0.0-2.0-0.0-0.3-3.3,0,0,0,68,false,stim,false,-1,1409.9999999998836,1,0,2,42950,WMM1,925807,false,false,169,image-keyboard-response,4
true,1,0,0,0,true,q,false,true,0.0-2.0-0.0-0.4-3.4,0,0,0,81,false,stim,false,-1,1027.0,1,0,0,42950,WMM1,928338,false,false,172,image-keyboard-response,5
true,1,0,0,0,true,q,false,true,0.0-2.0-0.0-0.5-3.5,0,0,0,81,false,stim,false,-1,1106.0,1,0,2,42950,WMM1,930948,false,false,175,image-keyboard-response,6
true,1,1,0,1,true,z,false,true,0.0-2.0-0.0-0.6-3.6,0,0,0,90,false,stim,false,-1,701.0,1,0,1,42950,WMM1,933153,false,false,178,image-keyboard-response,7
true,1,1,0,1,true,z,false,true,0.0-2.0-0.0-0.7-3.7,0,0,0,90,false,stim,false,-1,1015.0,1,0,1,42950,WMM1,935673,false,false,181,image-keyboard-response,8
true,1,0,0,0,true,q,false,true,0.0-2.0-0.0-0.8-3.8,0,0,0,81,false,stim,false,-1,543.0,1,0,0,42950,WMM1,937721,false,false,184,image-keyboard-response,9
true,1,0,0,0,true,q,false,true,0.0-2.0-0.1-0.9-3.9,0,0,0,81,false,stim,false,-1,746.9999999998836,1,0,0,42950,WMM1,939971,false,false,187,image-keyboard-response,10
true,1,1,0,1,true,z,false,true,0.0-2.0-0.1-0.10-3.10,0,0,0,90,false,stim,false,-1,813.0,1,0,1,42950,WMM1,942288,false,false,190,image-keyboard-response,11
true,1,1,0,0,false,q,true,false,0.0-2.0-0.1-0.11-3.11,0,0,0,90,false,stim,false,-1,712.0,1,0,2,42950,WMM1,944505,false,false,193,image-keyboard-response,12
true,1,0,0,0,true,q,false,true,0.0-2.0-0.1-0.12-3.12,0,0,0,81,false,stim,false,-1,1062.0,1,0,0,42950,WMM1,947072,false,false,196,image-keyboard-response,13
true,1,0,0,0,true,q,false,true,0.0-2.0-0.1-0.13-3.13,0,0,0,81,false,stim,false,-1,935.0,1,0,2,42950,WMM1,949511,false,false,199,image-keyboard-response,14
true,1,0,0,0,true,q,false,true,0.0-2.0-0.1-0.14-3.14,0,0,0,81,false,stim,false,-1,880.0,1,0,2,42950,WMM1,951896,false,false,202,image-keyboard-response,15
true,1,0,0,0,true,q,false,true,0.0-2.0-0.1-0.15-3.15,0,0,0,81,false,stim,false,-1,1061.0,1,0,0,42950,WMM1,954461,false,false,205,image-keyboard-response,16
true,1,2,0,1,false,z,true,false,0.0-2.0-0.1-0.16-3.16,0,0,0,68,false,stim,false,-1,824.0,1,0,1,42950,WMM1,956790,false,false,208,image-keyboard-response,17
true,1,1,0,1,true,z,false,true,0.0-2.0-0.1-0.17-3.17,0,0,0,90,false,stim,false,-1,1308.0,1,0,1,42950,WMM1,959602,false,false,211,image-keyboard-response,18
true,1,0,0,0,true,q,false,true,0.0-2.0-0.2-0.18-3.18,0,0,0,81,false,stim,false,-1,836.0,1,0,0,42950,WMM1,961942,false,false,214,image-keyboard-response,19
true,1,0,0,0,true,q,false,true,0.0-2.0-0.2-0.19-3.19,0,0,0,81,false,stim,false,-1,892.0,1,0,0,42950,WMM1,964339,false,false,217,image-keyboard-response,20
true,1,1,0,1,true,z,false,true,0.0-2.0-0.2-0.20-3.20,0,0,0,90,false,stim,false,-1,1318.9999999998836,1,0,1,42950,WMM1,967162,false,false,220,image-keyboard-response,21
true,1,0,0,0,true,q,false,true,0.0-2.0-0.2-0.21-3.21,0,0,0,81,false,stim,false,-1,723.0,1,0,2,42950,WMM1,969390,false,false,223,image-keyboard-response,22
true,1,0,0,0,true,q,false,true,0.0-2.0-0.2-0.22-3.22,0,0,0,81,false,stim,false,-1,1005.0,1,0,2,42950,WMM1,971899,false,false,226,image-keyboard-response,23
true,1,0,0,0,true,q,false,true,0.0-2.0-0.2-0.23-3.23,0,0,0,81,false,stim,false,-1,835.0,1,0,2,42950,WMM1,974239,false,false,229,image-keyboard-response,24
true,1,0,0,0,true,q,false,true,0.0-2.0-0.2-0.24-3.24,0,0,0,81,false,stim,false,-1,634.0000000001164,1,0,0,42950,WMM1,976377,false,false,232,image-keyboard-response,25
true,1,1,0,1,true,z,false,true,0.0-2.0-0.2-0.25-3.25,0,0,0,90,false,stim,false,-1,510.0000000001164,1,0,1,42950,WMM1,978390,false,false,235,image-keyboard-response,26
true,1,1,0,1,true,z,false,true,0.0-2.0-0.2-0.26-3.26,0,0,0,90,false,stim,false,-1,500.0,1,0,1,42950,WMM1,980393,false,false,238,image-keyboard-response,27
true,1,1,0,1,true,z,false,true,0.0-2.0-0.3-0.27-3.27,0,0,0,90,false,stim,false,-1,487.0,1,0,1,42950,WMM1,982384,false,false,241,image-keyboard-response,28
true,1,1,0,1,true,z,false,true,0.0-2.0-0.3-0.28-3.28,0,0,0,90,false,stim,false,-1,554.0,1,0,1,42950,WMM1,984443,false,false,244,image-keyboard-response,29
true,1,0,0,0,true,q,false,true,0.0-2.0-0.3-0.29-3.29,0,0,0,81,false,stim,false,-1,914.0000000001164,1,0,2,42950,WMM1,986862,false,false,247,image-keyboard-response,30
true,1,0,0,0,true,q,false,true,0.0-2.0-0.3-0.30-3.30,0,0,0,81,false,stim,false,-1,452.9999999998836,1,0,0,42950,WMM1,988819,false,false,250,image-keyboard-response,31
true,2,0,1,1,false,z,false,false,0.0-2.0-0.3-0.31-3.31,0,0,0,81,true,stim,true,0,522.0,1,0,0,42950,WMM1,990844,false,false,253,image-keyboard-response,1
true,2,1,1,2,false,d,true,false,0.0-2.0-0.3-0.32-3.32,0,0,0,90,false,stim,false,0,1375.0,1,0,2,42950,WMM1,993724,false,false,256,image-keyboard-response,2
true,2,1,1,2,false,d,false,false,0.0-2.0-0.3-0.33-3.33,0,0,0,90,false,stim,true,1,1264.9999999998836,1,0,1,42950,WMM1,996492,false,false,259,image-keyboard-response,3
true,2,2,1,2,true,d,false,true,0.0-2.0-0.3-0.34-3.34,0,0,0,68,false,stim,false,0,1150.9999999998836,1,0,2,42950,WMM1,999147,false,false,262,image-keyboard-response,4
true,2,2,1,1,false,z,true,false,0.0-2.0-0.3-0.35-3.35,0,0,0,68,false,stim,false,0,1297.0000000001164,1,0,0,42950,WMM1,1001949,false,false,265,image-keyboard-response,5
true,2,2,1,2,true,d,false,true,0.0-2.0-0.4-0.36-3.36,0,0,0,68,false,stim,false,1,1061.0,1,0,1,42950,WMM1,1004513,false,false,268,image-keyboard-response,6
true,2,2,1,2,true,d,false,true,0.0-2.0-0.4-0.37-3.37,0,0,0,68,false,stim,false,1,1196.0,1,0,1,42950,WMM1,1007213,false,false,271,image-keyboard-response,7
true,2,2,1,2,true,d,false,true,0.0-2.0-0.4-0.38-3.38,0,0,0,68,false,stim,false,0,836.0,1,0,2,42950,WMM1,1009554,false,false,274,image-keyboard-response,8
true,2,2,1,2,true,d,false,true,0.0-2.0-0.4-0.39-3.39,0,0,0,68,false,stim,false,0,1207.0,1,0,2,42950,WMM1,1012265,false,false,277,image-keyboard-response,9
true,2,1,1,1,true,z,false,true,0.0-2.0-0.4-0.40-3.40,0,0,0,90,false,stim,false,0,1230.0,1,0,0,42950,WMM1,1014999,false,false,280,image-keyboard-response,10
true,2,1,1,1,true,z,false,true,0.0-2.0-0.4-0.41-3.41,0,0,0,90,false,stim,false,0,1163.0,1,0,0,42950,WMM1,1017665,false,false,283,image-keyboard-response,11
true,2,2,1,2,true,d,false,true,0.0-2.0-0.4-0.42-3.42,0,0,0,68,false,stim,false,0,757.0,1,0,2,42950,WMM1,1019926,false,false,286,image-keyboard-response,12
true,2,1,1,1,true,z,false,true,0.0-2.0-0.4-0.43-3.43,0,0,0,90,false,stim,false,0,734.0,1,0,0,42950,WMM1,1022165,false,false,289,image-keyboard-response,13
true,2,2,1,2,true,d,false,false,0.0-2.0-0.4-0.44-3.44,0,0,0,68,false,stim,false,1,1094.0000000001164,1,0,1,42950,WMM1,1024764,false,true,292,image-keyboard-response,14
true,2,2,1,2,true,d,false,true,0.0-2.0-0.5-0.45-3.45,0,0,0,68,false,stim,false,0,1106.0,1,0,2,42950,WMM1,1027374,false,false,295,image-keyboard-response,15
true,2,1,1,2,false,d,false,false,0.0-2.0-0.5-0.46-3.46,0,0,0,90,false,stim,true,1,847.0,1,0,1,42950,WMM1,1029725,false,false,298,image-keyboard-response,16
true,2,1,1,1,true,z,false,true,0.0-2.0-0.5-0.47-3.47,0,0,0,90,false,stim,false,0,599.0000000001164,1,0,0,42950,WMM1,1031829,false,false,301,image-keyboard-response,17
true,2,2,1,2,true,d,false,true,0.0-2.0-0.5-0.48-3.48,0,0,0,68,false,stim,false,1,1174.0,1,0,1,42950,WMM1,1034507,false,false,304,image-keyboard-response,18
true,2,1,1,1,true,z,false,true,0.0-2.0-0.5-0.49-3.49,0,0,0,90,false,stim,false,0,723.0000000002328,1,0,0,42950,WMM1,1036734,false,false,307,image-keyboard-response,19
true,2,1,1,1,true,z,false,true,0.0-2.0-0.5-0.50-3.50,0,0,0,90,false,stim,false,0,669.0000000001164,1,0,0,42950,WMM1,1038906,false,false,310,image-keyboard-response,20
true,2,2,1,2,true,d,false,true,0.0-2.0-0.5-0.51-3.51,0,0,0,68,false,stim,false,1,644.0,1,0,1,42950,WMM1,1041054,false,false,313,image-keyboard-response,21
true,2,2,1,2,true,d,false,true,0.0-2.0-0.5-0.52-3.52,0,0,0,68,false,stim,false,0,509.0,1,0,2,42950,WMM1,1043068,false,false,316,image-keyboard-response,22
true,2,2,1,2,true,d,false,true,0.0-2.0-0.5-0.53-3.53,0,0,0,68,false,stim,false,0,687.9999999998836,1,0,2,42950,WMM1,1045261,false,false,319,image-keyboard-response,23
true,2,2,1,2,true,d,false,true,0.0-2.0-0.6-0.54-3.54,0,0,0,68,false,stim,false,0,510.0,1,0,2,42950,WMM1,1047276,false,false,322,image-keyboard-response,24
true,2,1,1,1,true,z,false,true,0.0-2.0-0.6-0.55-3.55,0,0,0,90,false,stim,false,0,623.0,1,0,0,42950,WMM1,1049402,false,false,325,image-keyboard-response,25
true,2,2,1,2,true,d,false,true,0.0-2.0-0.6-0.56-3.56,0,0,0,68,false,stim,false,1,891.0,1,0,1,42950,WMM1,1051798,false,false,328,image-keyboard-response,26
true,2,2,1,2,true,d,false,true,0.0-2.0-0.6-0.57-3.57,0,0,0,68,false,stim,false,1,578.0,1,0,1,42950,WMM1,1053880,false,false,331,image-keyboard-response,27
true,2,1,1,1,true,z,false,true,0.0-2.0-0.6-0.58-3.58,0,0,0,90,false,stim,false,0,633.0,1,0,0,42950,WMM1,1056017,false,false,334,image-keyboard-response,28
true,2,2,1,2,true,d,false,true,0.0-2.0-0.6-0.59-3.59,0,0,0,68,false,stim,false,0,678.0,1,0,2,42950,WMM1,1058200,false,false,337,image-keyboard-response,29
true,2,2,1,2,true,d,false,false,0.0-2.0-0.6-0.60-3.60,0,0,0,68,false,stim,false,0,464.99999999976717,1,0,2,42950,WMM1,1060169,false,true,340,image-keyboard-response,30
true,2,1,1,1,true,z,false,true,0.0-2.0-0.6-0.61-3.61,0,0,0,90,false,stim,false,0,1308.0,1,0,0,42950,WMM1,1062981,false,false,343,image-keyboard-response,31
true,3,2,1,1,false,z,false,false,0.0-2.0-0.6-0.62-3.62,0,0,0,68,true,stim,true,2,1522.0,1,0,1,42950,WMM1,1066007,false,false,346,image-keyboard-response,1
true,3,1,1,2,false,d,false,false,0.0-2.0-0.7-0.63-3.63,0,0,0,90,false,stim,true,1,981.9999999997672,1,0,0,42950,WMM1,1068494,false,false,349,image-keyboard-response,2
true,3,0,1,0,true,q,false,false,0.0-2.0-0.7-0.64-3.64,0,0,0,81,false,stim,false,2,1388.0,1,0,2,42950,WMM1,1071385,false,true,352,image-keyboard-response,3
true,3,1,1,0,false,q,true,false,0.0-2.0-0.7-0.65-3.65,0,0,0,90,false,stim,false,2,1117.0,1,0,2,42950,WMM1,1074006,false,false,355,image-keyboard-response,4
true,3,1,1,2,false,d,false,false,0.0-2.0-0.7-0.66-3.66,0,0,0,90,false,stim,true,1,1613.0,1,0,0,42950,WMM1,1077123,false,false,358,image-keyboard-response,5
false,3,-1,1,1,false,z,true,false,0.0-2.0-0.7-0.67-3.67,0,0,0,,false,stim,false,2,,1,0,1,42950,WMM1,1081627,false,false,361,image-keyboard-response,6
true,3,2,1,1,false,z,false,true,0.0-2.0-0.7-0.68-3.68,0,0,0,68,false,stim,true,2,1427.0000000002328,1,0,1,42950,WMM1,1084559,false,true,364,image-keyboard-response,7
true,3,2,1,0,false,q,false,false,0.0-2.0-0.7-0.69-3.69,0,0,0,68,false,stim,true,2,712.0,1,0,2,42950,WMM1,1086775,false,false,367,image-keyboard-response,8
true,3,1,1,2,false,d,false,false,0.0-2.0-0.7-0.70-3.70,0,0,0,90,false,stim,true,1,1062.0,1,0,0,42950,WMM1,1089341,false,false,370,image-keyboard-response,9
true,3,2,1,1,false,z,false,false,0.0-2.0-0.7-0.71-3.71,0,0,0,68,false,stim,true,2,825.0,1,0,1,42950,WMM1,1091669,false,false,373,image-keyboard-response,10
true,3,0,1,0,true,q,false,true,0.0-2.0-0.8-0.72-3.72,0,0,0,81,false,stim,false,2,812.9999999997672,1,0,2,42950,WMM1,1093987,false,false,376,image-keyboard-response,11
true,3,0,1,1,false,z,true,false,0.0-2.0-0.8-0.73-3.73,0,0,0,81,false,stim,false,2,1286.9999999997672,1,0,1,42950,WMM1,1096777,false,false,379,image-keyboard-response,12
true,3,1,1,2,false,d,false,false,0.0-2.0-0.8-0.74-3.74,0,0,0,90,false,stim,true,1,937.0,1,0,0,42950,WMM1,1099218,false,false,382,image-keyboard-response,13
true,3,0,1,1,false,z,true,false,0.0-2.0-0.8-0.75-3.75,0,0,0,81,false,stim,false,2,1399.0,1,0,1,42950,WMM1,1102121,false,false,385,image-keyboard-response,14
true,3,1,1,1,true,z,false,true,0.0-2.0-0.8-0.76-3.76,0,0,0,90,false,stim,false,2,1870.9999999997672,1,0,1,42950,WMM1,1105496,false,false,388,image-keyboard-response,15
true,3,0,1,0,true,q,false,true,0.0-2.0-0.8-0.77-3.77,0,0,0,81,false,stim,false,2,790.9999999997672,1,0,2,42950,WMM1,1107791,false,false,391,image-keyboard-response,16
true,3,1,1,2,false,d,false,false,0.0-2.0-0.8-0.78-3.78,0,0,0,90,false,stim,true,1,1139.0,1,0,0,42950,WMM1,1110435,false,false,394,image-keyboard-response,17
true,3,2,1,2,true,d,false,true,0.0-2.0-0.8-0.79-3.79,0,0,0,68,false,stim,false,1,1409.0,1,0,0,42950,WMM1,1113349,false,false,397,image-keyboard-response,18
true,3,1,1,0,false,q,true,false,0.0-2.0-0.8-0.80-3.80,0,0,0,90,false,stim,false,2,1242.0,1,0,2,42950,WMM1,1116094,false,false,400,image-keyboard-response,19
true,3,0,1,0,true,q,false,true,0.0-2.0-0.9-0.81-3.81,0,0,0,81,false,stim,false,2,935.0,1,0,2,42950,WMM1,1118535,false,false,403,image-keyboard-response,20
true,3,0,1,0,true,q,false,true,0.0-2.0-0.9-0.82-3.82,0,0,0,81,false,stim,false,2,1038.0,1,0,2,42950,WMM1,1121078,false,false,406,image-keyboard-response,21
true,3,2,1,2,true,d,false,true,0.0-2.0-0.9-0.83-3.83,0,0,0,68,false,stim,false,1,858.0,1,0,0,42950,WMM1,1123440,false,false,409,image-keyboard-response,22
true,3,1,1,1,true,z,false,true,0.0-2.0-0.9-0.84-3.84,0,0,0,90,false,stim,false,2,824.0000000002328,1,0,1,42950,WMM1,1125769,false,false,412,image-keyboard-response,23
true,3,1,1,1,true,z,false,true,0.0-2.0-0.9-0.85-3.85,0,0,0,90,false,stim,false,2,588.0,1,1,1,42950,WMM1,1127861,false,false,415,image-keyboard-response,24
true,3,2,1,2,true,d,false,true,0.0-2.0-0.9-0.86-3.86,0,0,0,68,false,stim,false,1,1770.0,1,0,0,42950,WMM1,1131135,false,false,418,image-keyboard-response,25
true,3,1,1,1,true,z,false,true,0.0-2.0-0.9-0.87-3.87,0,0,0,90,false,stim,false,2,768.0,1,1,1,42950,WMM1,1133408,false,false,421,image-keyboard-response,26
true,3,2,1,2,true,d,false,true,0.0-2.0-0.9-0.88-3.88,0,0,0,68,false,stim,false,1,846.0,1,0,0,42950,WMM1,1135759,false,false,424,image-keyboard-response,27
true,3,0,1,0,true,q,false,true,0.0-2.0-0.9-0.89-3.89,0,0,0,81,false,stim,false,2,679.0000000002328,1,0,2,42950,WMM1,1137942,false,false,427,image-keyboard-response,28
true,3,1,1,1,true,z,false,true,0.0-2.0-0.10-0.90-3.90,0,0,0,90,false,stim,false,2,700.0,1,1,1,42950,WMM1,1140147,false,false,430,image-keyboard-response,29
true,3,0,1,0,true,q,false,true,0.0-2.0-0.10-0.91-3.91,0,0,0,81,false,stim,false,2,1106.0,1,0,2,42950,WMM1,1142757,false,false,433,image-keyboard-response,30
true,3,0,1,0,true,q,false,true,0.0-2.0-0.10-0.92-3.92,0,0,0,81,false,stim,false,2,723.0,1,0,2,42950,WMM1,1144984,false,false,436,image-keyboard-response,31
true,3,1,1,1,true,z,false,true,0.0-2.0-0.10-0.93-3.93,0,0,0,90,false,stim,false,2,1050.0,1,1,1,42950,WMM1,1147538,false,false,439,image-keyboard-response,32
true,3,0,1,0,true,q,false,true,0.0-2.0-0.10-0.94-3.94,0,0,0,81,false,stim,false,2,925.0,1,0,2,42950,WMM1,1149968,false,false,442,image-keyboard-response,33
true,4,2,3,0,false,q,false,false,0.0-2.0-0.10-0.95-3.95,0,1,0,68,true,stim,true,2,746.0,1,0,0,42950,WMM1,1152218,false,false,445,image-keyboard-response,1
true,4,0,3,0,true,q,false,true,0.0-2.0-0.10-0.96-3.96,0,1,0,81,false,stim,false,2,1184.0,1,0,0,42950,WMM1,1154907,false,false,448,image-keyboard-response,2
true,4,0,3,0,true,q,false,true,0.0-2.0-0.10-0.97-3.97,0,1,0,81,false,stim,false,2,926.0,1,0,0,42950,WMM1,1157337,false,false,451,image-keyboard-response,3
true,4,1,3,1,true,z,false,true,0.0-2.0-0.10-0.98-3.98,0,1,0,90,false,stim,false,1,925.0,1,1,1,42950,WMM1,1159767,false,false,454,image-keyboard-response,4
true,4,1,3,1,true,z,false,true,0.0-2.0-0.11-0.99-3.99,0,1,0,90,false,stim,false,1,836.0,1,1,1,42950,WMM1,1162107,false,false,457,image-keyboard-response,5
true,4,1,3,1,true,z,false,true,0.0-2.0-0.11-0.100-3.100,0,1,0,90,false,stim,false,1,713.0,1,1,1,42950,WMM1,1164324,false,false,460,image-keyboard-response,6
true,4,0,3,2,false,d,false,false,0.0-2.0-0.11-0.101-3.101,0,1,0,81,false,stim,true,0,814.0,1,0,2,42950,WMM1,1166641,false,false,463,image-keyboard-response,7
true,4,1,3,2,false,d,true,false,0.0-2.0-0.11-0.102-3.102,0,1,0,90,false,stim,false,0,1781.0,1,0,2,42950,WMM1,1169926,false,false,466,image-keyboard-response,8
true,4,1,3,0,false,q,true,false,0.0-2.0-0.11-0.103-3.103,0,1,0,90,false,stim,false,2,1229.0,1,0,0,42950,WMM1,1172660,false,false,469,image-keyboard-response,9
true,4,2,3,2,true,d,false,true,0.0-2.0-0.11-0.104-3.104,0,1,0,68,false,stim,false,0,869.0,1,0,2,42950,WMM1,1175034,false,false,472,image-keyboard-response,10
true,4,1,3,1,true,z,false,true,0.0-2.0-0.11-0.105-3.105,0,1,0,90,false,stim,false,1,1500.0,1,1,1,42950,WMM1,1178038,false,false,475,image-keyboard-response,11
true,4,0,3,0,true,q,false,true,0.0-2.0-0.11-0.106-3.106,0,1,0,81,false,stim,false,2,1454.0,1,0,0,42950,WMM1,1180996,false,false,478,image-keyboard-response,12
true,4,0,3,0,true,q,false,true,0.0-2.0-0.11-0.107-3.107,0,1,0,81,false,stim,false,2,1072.0,1,0,0,42950,WMM1,1183573,false,false,481,image-keyboard-response,13
true,4,2,3,2,true,d,false,true,0.0-2.0-0.12-0.108-3.108,0,1,0,68,false,stim,false,0,701.0,1,0,2,42950,WMM1,1185778,false,false,484,image-keyboard-response,14
true,4,0,3,0,true,q,false,true,0.0-2.0-0.12-0.109-3.109,0,1,0,81,false,stim,false,2,858.0,1,0,0,42950,WMM1,1188140,false,false,487,image-keyboard-response,15
true,4,1,3,1,true,z,false,true,0.0-2.0-0.12-0.110-3.110,0,1,0,90,false,stim,false,1,1105.0,1,1,1,42950,WMM1,1190750,false,false,490,image-keyboard-response,16
true,4,1,3,1,true,z,false,true,0.0-2.0-0.12-0.111-3.111,0,1,0,90,false,stim,false,1,633.0,1,1,1,42950,WMM1,1192888,false,false,493,image-keyboard-response,17
true,4,2,3,2,true,d,false,false,0.0-2.0-0.12-0.112-3.112,0,1,0,68,false,stim,false,0,702.0,1,0,2,42950,WMM1,1195093,false,true,496,image-keyboard-response,18
true,4,0,3,0,true,q,false,true,0.0-2.0-0.12-0.113-3.113,0,1,0,81,false,stim,false,2,858.0,1,0,0,42950,WMM1,1197456,false,false,499,image-keyboard-response,19
true,4,0,3,0,true,q,false,true,0.0-2.0-0.12-0.114-3.114,0,1,0,81,false,stim,false,2,947.0,1,0,0,42950,WMM1,1199908,false,false,502,image-keyboard-response,20
true,4,1,3,2,false,d,true,false,0.0-2.0-0.12-0.115-3.115,0,1,0,90,false,stim,false,0,802.0,1,0,2,42950,WMM1,1202214,false,false,505,image-keyboard-response,21
true,4,1,3,1,true,z,false,true,0.0-2.0-0.12-0.116-3.116,0,1,0,90,false,stim,false,1,1442.9999999997672,1,0,1,42950,WMM1,1205162,false,false,508,image-keyboard-response,22
true,4,1,3,1,true,z,false,true,0.0-2.0-0.13-0.117-3.117,0,1,0,90,false,stim,false,1,701.0,1,0,1,42950,WMM1,1207367,false,false,511,image-keyboard-response,23
true,4,1,3,2,false,d,true,false,0.0-2.0-0.13-0.118-3.118,0,1,0,90,false,stim,false,0,1972.0000000002328,1,0,2,42950,WMM1,1210844,false,false,514,image-keyboard-response,24
true,4,1,3,1,true,z,false,true,0.0-2.0-0.13-0.119-3.119,0,1,0,90,false,stim,false,1,959.0,1,0,1,42950,WMM1,1213307,false,false,517,image-keyboard-response,25
true,4,0,3,0,true,q,false,true,0.0-2.0-0.13-0.120-3.120,0,1,0,81,false,stim,false,2,994.0000000002328,1,0,0,42950,WMM1,1215805,false,false,520,image-keyboard-response,26
true,4,0,3,0,true,q,false,true,0.0-2.0-0.13-0.121-3.121,0,1,0,81,false,stim,false,2,656.0,1,0,0,42950,WMM1,1217965,false,false,523,image-keyboard-response,27
true,4,1,3,2,false,d,true,false,0.0-2.0-0.13-0.122-3.122,0,1,0,90,false,stim,false,0,802.9999999997672,1,0,2,42950,WMM1,1220271,false,false,526,image-keyboard-response,28
true,4,1,3,1,true,z,false,true,0.0-2.0-0.13-0.123-3.123,0,1,0,90,false,stim,false,1,522.0,1,0,1,42950,WMM1,1222296,false,false,529,image-keyboard-response,29
true,4,0,3,2,false,d,false,false,0.0-2.0-0.13-0.124-3.124,0,1,0,81,false,stim,true,0,1432.0,1,0,2,42950,WMM1,1225232,false,false,532,image-keyboard-response,30
true,5,0,1,2,false,d,false,false,0.0-2.0-0.13-0.125-3.125,0,0,0,81,true,stim,true,0,969.9999999997672,1,0,0,42950,WMM1,1227707,false,false,535,image-keyboard-response,1
true,5,1,1,2,false,d,true,false,0.0-2.0-0.14-0.126-3.126,0,0,0,90,false,stim,false,0,1016.0000000002328,1,0,0,42950,WMM1,1230228,false,false,538,image-keyboard-response,2
true,5,2,1,1,false,z,false,false,0.0-2.0-0.14-0.127-3.127,0,0,0,68,false,stim,true,2,1488.0,1,0,2,42950,WMM1,1233220,false,false,541,image-keyboard-response,3
true,5,1,1,0,false,q,false,false,0.0-2.0-0.14-0.128-3.128,0,0,0,90,false,stim,true,1,926.0000000002328,1,0,1,42950,WMM1,1235650,false,false,544,image-keyboard-response,4
true,5,2,1,2,true,d,false,true,0.0-2.0-0.14-0.129-3.129,0,0,0,68,false,stim,false,0,803.0,1,0,0,42950,WMM1,1237956,false,false,547,image-keyboard-response,5
true,5,2,1,2,true,d,false,true,0.0-2.0-0.14-0.130-3.130,0,0,0,68,false,stim,false,0,892.0000000002328,1,0,0,42950,WMM1,1240353,false,false,550,image-keyboard-response,6
true,5,0,1,1,false,z,true,false,0.0-2.0-0.14-0.131-3.131,0,0,0,81,false,stim,false,2,1645.0,1,0,2,42950,WMM1,1243503,false,false,553,image-keyboard-response,7
true,5,0,1,0,true,q,false,true,0.0-2.0-0.14-0.132-3.132,0,0,0,81,false,stim,false,1,1106.0,1,0,1,42950,WMM1,1246113,false,false,556,image-keyboard-response,8
true,5,1,1,1,true,z,false,true,0.0-2.0-0.14-0.133-3.133,0,0,0,90,false,stim,false,2,902.0,1,0,2,42950,WMM1,1248520,false,false,559,image-keyboard-response,9
true,5,0,1,0,true,q,false,true,0.0-2.0-0.14-0.134-3.134,0,0,0,81,false,stim,false,1,1185.0,1,0,1,42950,WMM1,1251209,false,false,562,image-keyboard-response,10
true,5,2,1,2,true,d,false,true,0.0-2.0-0.15-0.135-3.135,0,0,0,68,false,stim,false,0,758.0,1,0,0,42950,WMM1,1253471,false,false,565,image-keyboard-response,11
true,5,1,1,1,true,z,false,true,0.0-2.0-0.15-0.136-3.136,0,0,0,90,false,stim,false,2,1038.0,1,0,2,42950,WMM1,1256013,false,false,568,image-keyboard-response,12
true,5,1,1,0,false,q,false,false,0.0-2.0-0.15-0.137-3.137,0,0,0,90,false,stim,true,1,2275.0,1,0,1,42950,WMM1,1259793,false,false,571,image-keyboard-response,13
true,5,2,1,1,false,z,false,true,0.0-2.0-0.15-0.138-3.138,0,0,0,68,false,stim,true,2,712.0,1,0,2,42950,WMM1,1262010,false,true,574,image-keyboard-response,14
true,5,0,1,2,false,d,false,false,0.0-2.0-0.15-0.139-3.139,0,0,0,81,false,stim,true,0,1017.0,1,0,0,42950,WMM1,1264530,false,false,577,image-keyboard-response,15
true,5,1,1,2,false,d,true,false,0.0-2.0-0.15-0.140-3.140,0,0,0,90,false,stim,false,0,902.9999999997672,1,0,0,42950,WMM1,1266937,false,false,580,image-keyboard-response,16
true,5,1,1,0,false,q,false,false,0.0-2.0-0.15-0.141-3.141,0,0,0,90,false,stim,true,1,914.0,1,0,1,42950,WMM1,1269356,false,false,583,image-keyboard-response,17
true,5,2,1,0,false,q,true,false,0.0-2.0-0.15-0.142-3.142,0,0,0,68,false,stim,false,1,49.00000000023283,1,0,1,42950,WMM1,1270909,false,false,586,image-keyboard-response,18
true,5,1,1,1,true,z,false,true,0.0-2.0-0.15-0.143-3.143,0,0,0,90,false,stim,false,2,2072.000000000233,1,0,2,42950,WMM1,1274486,false,false,589,image-keyboard-response,19
true,5,1,1,1,true,z,false,true,0.0-2.0-0.16-0.144-3.144,0,0,0,90,false,stim,false,2,713.0,1,0,2,42950,WMM1,1276702,false,false,592,image-keyboard-response,20
true,5,0,1,0,true,q,false,true,0.0-2.0-0.16-0.145-3.145,0,0,0,81,false,stim,false,1,1274.0,1,0,1,42950,WMM1,1279481,false,false,595,image-keyboard-response,21
true,5,2,1,2,true,d,false,false,0.0-2.0-0.16-0.146-3.146,0,0,0,68,false,stim,false,0,914.0,1,0,0,42950,WMM1,1281900,false,true,598,image-keyboard-response,22
true,5,0,1,0,true,q,false,true,0.0-2.0-0.16-0.147-3.147,0,0,0,81,false,stim,false,1,563.0,1,0,1,42950,WMM1,1283970,false,false,601,image-keyboard-response,23
true,5,1,1,1,true,z,false,false,0.0-2.0-0.16-0.148-3.148,0,0,0,90,false,stim,false,2,1185.0,1,0,2,42950,WMM1,1286659,false,true,604,image-keyboard-response,24
true,5,0,1,0,true,q,false,true,0.0-2.0-0.16-0.149-3.149,0,0,0,81,false,stim,false,1,958.0,1,0,1,42950,WMM1,1289123,false,false,607,image-keyboard-response,25
true,5,1,1,2,false,d,true,true,0.0-2.0-0.16-0.150-3.150,0,0,0,90,false,stim,false,0,1724.0000000002328,1,0,0,42950,WMM1,1292352,false,true,610,image-keyboard-response,26
true,5,1,1,2,false,d,true,false,0.0-2.0-0.16-0.151-3.151,0,0,0,90,false,stim,false,0,622.0,1,0,0,42950,WMM1,1294478,false,false,613,image-keyboard-response,27
true,5,1,1,1,true,z,false,true,0.0-2.0-0.16-0.152-3.152,0,0,0,90,false,stim,false,2,2185.000000000233,1,0,2,42950,WMM1,1298168,false,false,616,image-keyboard-response,28
true,5,1,1,1,true,z,false,false,0.0-2.0-0.17-0.153-3.153,0,0,0,90,false,stim,false,2,1116.0,1,0,2,42950,WMM1,1300789,false,true,619,image-keyboard-response,29
true,5,2,1,1,false,z,false,true,0.0-2.0-0.17-0.154-3.154,0,0,0,68,false,stim,true,2,543.9999999997672,1,0,2,42950,WMM1,1302837,false,true,622,image-keyboard-response,30
true,5,0,1,0,true,q,false,false,0.0-2.0-0.17-0.155-3.155,0,0,0,81,false,stim,false,1,925.0,1,0,1,42950,WMM1,1305267,false,true,625,image-keyboard-response,31
true,5,1,1,0,false,q,false,false,0.0-2.0-0.17-0.156-3.156,0,0,0,90,false,stim,true,1,846.0,1,0,1,42950,WMM1,1307618,false,false,628,image-keyboard-response,32
true,5,0,1,2,false,d,false,true,0.0-2.0-0.17-0.157-3.157,0,0,0,81,false,stim,true,0,1298.0,1,0,0,42950,WMM1,1310419,false,true,631,image-keyboard-response,33
true,5,2,1,1,false,z,false,false,0.0-2.0-0.17-0.158-3.158,0,0,0,68,false,stim,true,2,689.0,1,0,2,42950,WMM1,1312613,false,false,634,image-keyboard-response,34
true,5,0,1,2,false,d,false,false,0.0-2.0-0.17-0.159-3.159,0,0,0,81,false,stim,true,0,812.0,1,0,0,42950,WMM1,1314931,false,false,637,image-keyboard-response,35
true,5,2,1,0,false,q,true,false,0.0-2.0-0.17-0.160-3.160,0,0,0,68,false,stim,false,1,2073.0,1,0,1,42950,WMM1,1318508,false,false,640,image-keyboard-response,36
true,5,0,1,2,false,d,false,false,0.0-2.0-0.17-0.161-3.161,0,0,0,81,false,stim,true,0,868.9999999997672,1,0,0,42950,WMM1,1320882,false,false,643,image-keyboard-response,37
true,5,1,1,2,false,d,true,false,0.0-2.0-0.18-0.162-3.162,0,0,0,90,false,stim,false,0,801.0,1,0,0,42950,WMM1,1323188,false,false,646,image-keyboard-response,38
true,5,0,1,1,false,z,true,false,0.0-2.0-0.18-0.163-3.163,0,0,0,81,false,stim,false,2,1578.0,1,0,2,42950,WMM1,1326272,false,false,649,image-keyboard-response,39
true,5,0,1,0,true,q,false,true,0.0-2.0-0.18-0.164-3.164,0,0,0,81,false,stim,false,1,1904.0,1,0,1,42950,WMM1,1329680,false,false,652,image-keyboard-response,40
true,5,1,1,1,true,z,false,true,0.0-2.0-0.18-0.165-3.165,0,0,0,90,false,stim,false,2,992.0000000002328,1,0,2,42950,WMM1,1332177,false,false,655,image-keyboard-response,41
true,5,0,1,0,true,q,false,true,0.0-2.0-0.18-0.166-3.166,0,0,0,81,false,stim,false,1,1229.0,1,0,1,42950,WMM1,1334911,false,false,658,image-keyboard-response,42
true,5,1,1,1,true,z,false,true,0.0-2.0-0.18-0.167-3.167,0,0,0,90,false,stim,false,2,779.0,1,0,2,42950,WMM1,1337195,false,false,661,image-keyboard-response,43
true,5,2,1,2,true,d,false,true,0.0-2.0-0.18-0.168-3.168,0,0,0,68,false,stim,false,0,847.0,1,0,0,42950,WMM1,1339546,false,false,664,image-keyboard-response,44
true,5,1,1,2,false,d,true,false,0.0-2.0-0.18-0.169-3.169,0,0,0,90,false,stim,false,0,1430.9999999997672,1,0,0,42950,WMM1,1342483,false,false,667,image-keyboard-response,45
true,5,0,1,0,true,q,false,true,0.0-2.0-0.18-0.170-3.170,0,0,0,81,false,stim,false,1,1251.0,1,0,1,42950,WMM1,1345239,false,false,670,image-keyboard-response,46
true,5,1,1,1,true,z,false,true,0.0-2.0-0.19-0.171-3.171,0,0,0,90,false,stim,false,2,677.0,1,0,2,42950,WMM1,1347422,false,false,673,image-keyboard-response,47
true,5,0,1,0,true,q,false,true,0.0-2.0-0.19-0.172-3.172,0,0,0,81,false,stim,false,1,1027.0,1,0,1,42950,WMM1,1349953,false,false,676,image-keyboard-response,48
true,5,2,1,2,true,d,false,true,0.0-2.0-0.19-0.173-3.173,0,0,0,68,false,stim,false,0,779.0,1,0,0,42950,WMM1,1352237,false,false,679,image-keyboard-response,49
true,5,2,1,2,true,d,false,true,0.0-2.0-0.19-0.174-3.174,0,0,0,68,false,stim,false,0,870.0,1,0,0,42950,WMM1,1354611,false,false,682,image-keyboard-response,50
true,5,1,1,1,true,z,false,true,0.0-2.0-0.19-0.175-3.175,0,0,0,90,false,stim,false,2,711.0,1,0,2,42950,WMM1,1356827,false,false,685,image-keyboard-response,51
true,5,0,1,0,true,q,false,true,0.0-2.0-0.19-0.176-3.176,0,0,0,81,false,stim,false,1,656.0,1,0,1,42950,WMM1,1358987,false,false,688,image-keyboard-response,52
true,5,2,1,2,true,d,false,false,0.0-2.0-0.19-0.177-3.177,0,0,0,68,false,stim,false,0,712.0,1,0,0,42950,WMM1,1361203,false,true,691,image-keyboard-response,53
true,5,0,1,0,true,q,false,true,0.0-2.0-0.19-0.178-3.178,0,0,0,81,false,stim,false,1,2072.0,1,0,1,42950,WMM1,1364781,false,false,694,image-keyboard-response,54
true,5,1,1,1,true,z,false,true,0.0-2.0-0.19-0.179-3.179,0,0,0,90,false,stim,false,2,768.0,1,0,2,42950,WMM1,1367053,false,false,697,image-keyboard-response,55
true,5,0,1,0,true,q,false,true,0.0-2.0-0.20-0.180-3.180,0,0,0,81,false,stim,false,1,925.0000000002328,1,0,1,42950,WMM1,1369483,false,false,700,image-keyboard-response,56
true,5,0,1,2,false,d,false,false,0.0-2.0-0.20-0.181-3.181,0,0,0,81,false,stim,true,0,1138.0000000002328,1,0,0,42950,WMM1,1372127,false,false,703,image-keyboard-response,57
true,5,1,1,2,false,d,true,true,0.0-2.0-0.20-0.182-3.182,0,0,0,90,false,stim,false,0,1105.0,1,0,0,42950,WMM1,1374737,false,true,706,image-keyboard-response,58
true,5,1,1,2,false,d,true,false,0.0-2.0-0.20-0.183-3.183,0,0,0,90,false,stim,false,0,825.0,1,0,0,42950,WMM1,1377066,false,false,709,image-keyboard-response,59
true,5,0,1,0,true,q,false,true,0.0-2.0-0.20-0.184-3.184,0,0,0,81,false,stim,false,1,1184.0,1,0,1,42950,WMM1,1379755,false,false,712,image-keyboard-response,60
true,6,1,2,2,false,d,false,false,0.0-2.0-0.20-0.185-3.185,0,0,0,90,true,stim,true,1,554.0,1,0,2,42950,WMM1,1381814,false,false,715,image-keyboard-response,1
true,6,0,2,1,false,z,false,false,0.0-2.0-0.20-0.186-3.186,0,0,0,81,false,stim,true,0,1027.0,1,0,1,42950,WMM1,1384345,false,false,718,image-keyboard-response,2
true,6,2,2,2,true,d,false,true,0.0-2.0-0.20-0.187-3.187,0,0,0,68,false,stim,false,1,1477.0,1,0,2,42950,WMM1,1387326,false,false,721,image-keyboard-response,3
true,6,2,2,2,true,d,false,true,0.0-2.0-0.20-0.188-3.188,0,0,0,68,false,stim,false,1,811.0,1,0,2,42950,WMM1,1389644,false,false,724,image-keyboard-response,4
true,6,2,2,2,true,d,false,true,0.0-2.0-0.21-0.189-3.189,0,0,0,68,false,stim,false,1,721.0,1,0,2,42950,WMM1,1391871,false,false,727,image-keyboard-response,5
true,6,0,2,1,false,z,false,false,0.0-2.0-0.21-0.190-3.190,0,0,0,81,false,stim,true,0,701.0,1,0,1,42950,WMM1,1394077,false,false,730,image-keyboard-response,6
true,6,0,2,0,true,q,false,false,0.0-2.0-0.21-0.191-3.191,0,0,0,81,false,stim,false,2,1172.0,1,0,0,42950,WMM1,1396754,false,true,733,image-keyboard-response,7
true,6,1,2,0,false,q,true,false,0.0-2.0-0.21-0.192-3.192,0,0,0,90,false,stim,false,2,903.0,1,0,0,42950,WMM1,1399161,false,false,736,image-keyboard-response,8
true,6,0,2,2,false,d,true,true,0.0-2.0-0.21-0.193-3.193,0,0,0,81,false,stim,false,1,1635.0,1,0,2,42950,WMM1,1402300,false,true,739,image-keyboard-response,9
true,6,2,2,1,false,z,true,false,0.0-2.0-0.21-0.194-3.194,0,0,0,68,false,stim,false,0,1612.0,1,0,1,42950,WMM1,1405417,false,false,742,image-keyboard-response,10
true,6,2,2,0,false,q,false,false,0.0-2.0-0.21-0.195-3.195,0,0,0,68,false,stim,true,2,1106.0,1,0,0,42950,WMM1,1408027,false,false,745,image-keyboard-response,11
true,6,0,2,2,false,d,true,true,0.0-2.0-0.21-0.196-3.196,0,0,0,81,false,stim,false,1,1983.0,1,0,2,42950,WMM1,1411514,false,true,748,image-keyboard-response,12
true,6,0,2,1,false,z,false,false,0.0-2.0-0.21-0.197-3.197,0,0,0,81,false,stim,true,0,723.0000000002328,1,0,1,42950,WMM1,1413742,false,false,751,image-keyboard-response,13
true,6,1,2,2,false,d,false,false,0.0-2.0-0.22-0.198-3.198,0,0,0,90,false,stim,true,1,655.0,1,0,2,42950,WMM1,1415902,false,false,754,image-keyboard-response,14
true,6,0,2,2,false,d,true,false,0.0-2.0-0.22-0.199-3.199,0,0,0,81,false,stim,false,1,544.0,1,0,2,42950,WMM1,1417950,false,false,757,image-keyboard-response,15
true,6,2,2,2,true,d,false,true,0.0-2.0-0.22-0.200-3.200,0,0,0,68,false,stim,false,1,847.9999999997672,1,0,2,42950,WMM1,1420301,false,false,760,image-keyboard-response,16
true,6,1,2,0,false,q,true,false,0.0-2.0-0.22-0.201-3.201,0,0,0,90,false,stim,false,2,936.0,1,0,0,42950,WMM1,1422742,false,false,763,image-keyboard-response,17
true,6,0,2,0,true,q,false,true,0.0-2.0-0.22-0.202-3.202,0,0,0,81,false,stim,false,2,1488.0,1,0,0,42950,WMM1,1425735,false,false,766,image-keyboard-response,18
true,6,1,2,1,true,z,false,true,0.0-2.0-0.22-0.203-3.203,0,0,0,90,false,stim,false,0,1758.0,1,0,1,42950,WMM1,1428998,false,false,769,image-keyboard-response,19
true,6,0,2,0,true,q,false,true,0.0-2.0-0.22-0.204-3.204,0,0,0,81,false,stim,false,2,800.0,1,0,0,42950,WMM1,1431304,false,false,772,image-keyboard-response,20
true,6,1,2,1,true,z,false,true,0.0-2.0-0.22-0.205-3.205,0,0,0,90,false,stim,false,0,733.0,1,0,1,42950,WMM1,1433543,false,false,775,image-keyboard-response,21
true,6,1,2,1,true,z,false,true,0.0-2.0-0.22-0.206-3.206,0,0,0,90,false,stim,false,0,644.0,1,0,1,42950,WMM1,1435691,false,false,778,image-keyboard-response,22
true,6,1,2,1,true,z,false,true,0.0-2.0-0.23-0.207-3.207,0,0,0,90,false,stim,false,0,508.0,1,0,1,42950,WMM1,1437705,false,false,781,image-keyboard-response,23
true,6,2,2,2,true,d,false,true,0.0-2.0-0.23-0.208-3.208,0,0,0,68,false,stim,false,1,857.0,1,0,2,42950,WMM1,1440068,false,false,784,image-keyboard-response,24
true,6,1,2,1,true,z,false,false,0.0-2.0-0.23-0.209-3.209,0,0,0,90,false,stim,false,0,868.0,1,0,1,42950,WMM1,1442442,false,true,787,image-keyboard-response,25
true,6,0,2,0,true,q,false,false,0.0-2.0-0.23-0.210-3.210,0,0,0,81,false,stim,false,2,1071.0,1,1,0,42950,WMM1,1445018,false,true,790,image-keyboard-response,26
true,6,1,2,0,false,q,true,false,0.0-2.0-0.23-0.211-3.211,0,0,0,90,false,stim,false,2,1038.0,1,1,0,42950,WMM1,1447560,false,false,793,image-keyboard-response,27
true,6,2,2,2,true,d,false,true,0.0-2.0-0.23-0.212-3.212,0,0,0,68,false,stim,false,1,1331.0000000002328,1,0,2,42950,WMM1,1450395,false,false,796,image-keyboard-response,28
true,6,2,2,0,false,q,false,false,0.0-2.0-0.23-0.213-3.213,0,0,0,68,false,stim,true,2,904.0,1,1,0,42950,WMM1,1452804,false,false,799,image-keyboard-response,29
true,6,2,2,2,true,d,false,true,0.0-2.0-0.23-0.214-3.214,0,0,0,68,false,stim,false,1,719.0,1,0,2,42950,WMM1,1455031,false,false,802,image-keyboard-response,30
true,6,0,2,1,false,z,false,false,0.0-2.0-0.23-0.215-3.215,0,0,0,81,false,stim,true,0,1814.0,1,0,1,42950,WMM1,1458350,false,false,805,image-keyboard-response,31
true,6,1,2,1,true,z,false,true,0.0-2.0-0.24-0.216-3.216,0,0,0,90,false,stim,false,0,846.0,1,0,1,42950,WMM1,1460701,false,false,808,image-keyboard-response,32
true,6,0,2,0,true,q,false,true,0.0-2.0-0.24-0.217-3.217,0,0,0,81,false,stim,false,2,858.0,1,1,0,42950,WMM1,1463063,false,false,811,image-keyboard-response,33
true,6,2,2,2,true,d,false,true,0.0-2.0-0.24-0.218-3.218,0,0,0,68,false,stim,false,1,970.0000000002328,1,0,2,42950,WMM1,1465538,false,false,814,image-keyboard-response,34
true,7,1,3,0,false,q,false,false,0.0-2.0-0.24-0.219-3.219,1,0,0,90,true,stim,true,1,498.0,1,0,1,42950,WMM1,1467541,false,false,817,image-keyboard-response,1
true,7,0,3,0,true,q,false,true,0.0-2.0-0.24-0.220-3.220,1,0,0,81,false,stim,false,0,904.0,1,1,0,42950,WMM1,1469948,false,false,820,image-keyboard-response,2
true,7,2,3,0,false,q,true,false,0.0-2.0-0.24-0.221-3.221,1,0,0,68,false,stim,false,1,2063.0,1,0,1,42950,WMM1,1473515,false,false,823,image-keyboard-response,3
true,7,2,3,1,false,z,false,false,0.0-2.0-0.24-0.222-3.222,1,0,0,68,false,stim,true,2,1363.0,1,0,2,42950,WMM1,1476384,false,false,826,image-keyboard-response,4
true,7,0,3,0,true,q,false,true,0.0-2.0-0.24-0.223-3.223,1,0,0,81,false,stim,false,0,689.0,1,1,0,42950,WMM1,1478577,false,false,829,image-keyboard-response,5
true,7,0,3,1,false,z,true,false,0.0-2.0-0.24-0.224-3.224,1,0,0,81,false,stim,false,2,1026.0,1,0,2,42950,WMM1,1481109,false,false,832,image-keyboard-response,6
true,7,0,3,0,true,q,false,true,0.0-2.0-0.25-0.225-3.225,1,0,0,81,false,stim,false,1,756.0,1,0,1,42950,WMM1,1483370,false,false,835,image-keyboard-response,7
true,7,0,3,0,true,q,false,false,0.0-2.0-0.25-0.226-3.226,1,0,0,81,false,stim,false,0,879.9999999997672,1,1,0,42950,WMM1,1485755,false,true,838,image-keyboard-response,8
true,7,0,3,0,true,q,false,true,0.0-2.0-0.25-0.227-3.227,1,0,0,81,false,stim,false,1,2106.999999999767,1,0,1,42950,WMM1,1489366,false,false,841,image-keyboard-response,9
true,7,0,3,0,true,q,false,true,0.0-2.0-0.25-0.228-3.228,1,0,0,81,false,stim,false,1,768.0,1,0,1,42950,WMM1,1491639,false,false,844,image-keyboard-response,10
true,7,1,3,0,false,q,true,false,0.0-2.0-0.25-0.229-3.229,1,0,0,90,false,stim,false,0,890.0,1,1,0,42950,WMM1,1494035,false,false,847,image-keyboard-response,11
true,7,2,3,1,false,z,false,false,0.0-2.0-0.25-0.230-3.230,1,0,0,68,false,stim,true,2,668.0,1,0,2,42950,WMM1,1496207,false,false,850,image-keyboard-response,12
true,7,0,3,0,true,q,false,true,0.0-2.0-0.25-0.231-3.231,1,0,0,81,false,stim,false,0,655.9999999997672,1,1,0,42950,WMM1,1498367,false,false,853,image-keyboard-response,13
true,7,1,3,1,true,z,false,true,0.0-2.0-0.25-0.232-3.232,1,0,0,90,false,stim,false,2,1848.0,1,0,2,42950,WMM1,1501720,false,false,856,image-keyboard-response,14
true,7,1,3,1,true,z,false,true,0.0-2.0-0.25-0.233-3.233,1,0,0,90,false,stim,false,2,1318.0,1,0,2,42950,WMM1,1504543,false,false,859,image-keyboard-response,15
true,7,0,3,0,true,q,false,true,0.0-2.0-0.26-0.234-3.234,1,0,0,81,false,stim,false,0,598.9999999997672,1,1,0,42950,WMM1,1506647,false,false,862,image-keyboard-response,16
true,7,1,3,0,false,q,true,true,0.0-2.0-0.26-0.235-3.235,1,0,0,90,false,stim,false,0,622.0,1,1,0,42950,WMM1,1508773,false,true,865,image-keyboard-response,17
true,7,1,3,1,true,z,false,false,0.0-2.0-0.26-0.236-3.236,1,0,0,90,false,stim,false,2,1184.9999999997672,1,0,2,42950,WMM1,1511462,false,true,868,image-keyboard-response,18
true,7,1,3,0,false,q,true,false,0.0-2.0-0.26-0.237-3.237,1,0,0,90,false,stim,false,0,881.0,1,1,0,42950,WMM1,1513847,false,false,871,image-keyboard-response,19
true,7,2,3,1,false,z,false,false,0.0-2.0-0.26-0.238-3.238,1,0,0,68,false,stim,true,2,1499.0,1,0,2,42950,WMM1,1516851,false,false,874,image-keyboard-response,20
true,7,0,3,0,true,q,false,true,0.0-2.0-0.26-0.239-3.239,1,0,0,81,false,stim,false,1,1341.0,1,0,1,42950,WMM1,1519697,false,false,877,image-keyboard-response,21
true,7,0,3,1,false,z,true,false,0.0-2.0-0.26-0.240-3.240,1,0,0,81,false,stim,false,2,1960.0000000002328,1,0,2,42950,WMM1,1523162,false,false,880,image-keyboard-response,22
true,7,0,3,0,true,q,false,true,0.0-2.0-0.26-0.241-3.241,1,0,0,81,false,stim,false,1,631.0,1,0,1,42950,WMM1,1525299,false,false,883,image-keyboard-response,23
true,7,0,3,0,true,q,false,true,0.0-2.0-0.26-0.242-3.242,1,0,0,81,false,stim,false,1,601.0,1,0,1,42950,WMM1,1527403,false,false,886,image-keyboard-response,24
true,7,0,3,1,false,z,true,false,0.0-2.0-0.27-0.243-3.243,1,0,0,81,false,stim,false,2,1184.0,1,0,2,42950,WMM1,1530092,false,false,889,image-keyboard-response,25
true,7,0,3,0,true,q,false,true,0.0-2.0-0.27-0.244-3.244,1,0,0,81,false,stim,false,0,811.0,1,1,0,42950,WMM1,1532410,false,false,892,image-keyboard-response,26
true,7,1,3,1,true,z,false,true,0.0-2.0-0.27-0.245-3.245,1,0,0,90,false,stim,false,2,1140.0,1,0,2,42950,WMM1,1535055,false,false,895,image-keyboard-response,27
true,7,0,3,0,true,q,false,true,0.0-2.0-0.27-0.246-3.246,1,0,0,81,false,stim,false,1,1092.0,1,0,1,42950,WMM1,1537652,false,false,898,image-keyboard-response,28
true,7,0,3,0,true,q,false,true,0.0-2.0-0.27-0.247-3.247,1,0,0,81,false,stim,false,0,766.0,1,1,0,42950,WMM1,1539925,false,false,901,image-keyboard-response,29
true,7,0,3,0,true,q,false,true,0.0-2.0-0.27-0.248-3.248,1,0,0,81,false,stim,false,1,406.99999999976717,1,0,1,42950,WMM1,1541838,false,false,904,image-keyboard-response,30
true,7,0,3,0,true,q,false,true,0.0-2.0-0.27-0.249-3.249,1,0,0,81,false,stim,false,1,531.0000000002328,1,0,1,42950,WMM1,1543874,false,false,907,image-keyboard-response,31
true,7,1,3,1,true,z,false,true,0.0-2.0-0.27-0.250-3.250,1,0,0,90,false,stim,false,2,1229.0,1,0,2,42950,WMM1,1546608,false,false,910,image-keyboard-response,32
true,7,0,3,0,true,q,false,true,0.0-2.0-0.27-0.251-3.251,1,0,0,81,false,stim,false,0,690.0,1,0,0,42950,WMM1,1548801,false,false,913,image-keyboard-response,33
true,7,0,3,0,true,q,false,true,0.0-2.0-0.28-0.252-3.252,1,0,0,81,false,stim,false,1,564.0,1,0,1,42950,WMM1,1550872,false,false,916,image-keyboard-response,34
true,7,1,3,1,true,z,false,true,0.0-2.0-0.28-0.253-3.253,1,0,0,90,false,stim,false,2,802.0,1,0,2,42950,WMM1,1553178,false,false,919,image-keyboard-response,35
true,7,0,3,0,true,q,false,true,0.0-2.0-0.28-0.254-3.254,1,0,0,81,false,stim,false,0,835.0,1,0,0,42950,WMM1,1555518,false,false,922,image-keyboard-response,36
true,7,1,3,1,true,z,false,true,0.0-2.0-0.28-0.255-3.255,1,0,0,90,false,stim,false,2,824.0,1,0,2,42950,WMM1,1557848,false,false,925,image-keyboard-response,37
true,7,0,3,0,true,q,false,true,0.0-2.0-0.28-0.256-3.256,1,0,0,81,false,stim,false,0,722.0000000002328,1,0,0,42950,WMM1,1560074,false,false,928,image-keyboard-response,38
true,7,0,3,0,true,q,false,true,0.0-2.0-0.28-0.257-3.257,1,0,0,81,false,stim,false,1,1365.0,1,0,1,42950,WMM1,1562943,false,false,931,image-keyboard-response,39
true,7,0,3,0,true,q,false,true,0.0-2.0-0.28-0.258-3.258,1,0,0,81,false,stim,false,0,756.0,1,0,0,42950,WMM1,1565204,false,false,934,image-keyboard-response,40
true,7,0,3,0,true,q,false,true,0.0-2.0-0.28-0.259-3.259,1,0,0,81,false,stim,false,1,745.9999999997672,1,0,1,42950,WMM1,1567455,false,false,937,image-keyboard-response,41
true,7,1,3,1,true,z,false,true,0.0-2.0-0.28-0.260-3.260,1,0,0,90,false,stim,false,2,925.9999999997672,1,0,2,42950,WMM1,1569885,false,false,940,image-keyboard-response,42
true,8,1,4,0,false,q,false,false,0.0-2.0-0.29-0.261-3.261,0,0,0,90,true,stim,true,1,689.0,1,0,2,42950,WMM1,1572078,false,false,943,image-keyboard-response,1
true,8,2,4,0,false,q,true,false,0.0-2.0-0.29-0.262-3.262,0,0,0,68,false,stim,false,1,712.0000000002328,1,0,2,42950,WMM1,1574295,false,false,946,image-keyboard-response,2
true,8,0,4,2,false,d,false,true,0.0-2.0-0.29-0.263-3.263,0,0,0,81,false,stim,true,0,833.0,1,0,1,42950,WMM1,1576635,false,true,949,image-keyboard-response,3
true,8,0,4,1,false,z,false,false,0.0-2.0-0.29-0.264-3.264,0,0,0,81,false,stim,true,0,487.0,1,0,0,42950,WMM1,1578626,false,false,952,image-keyboard-response,4
true,8,1,4,1,true,z,false,true,0.0-2.0-0.29-0.265-3.265,0,0,0,90,false,stim,false,0,1094.0,1,0,0,42950,WMM1,1581226,false,false,955,image-keyboard-response,5
true,8,0,4,2,false,d,false,false,0.0-2.0-0.29-0.266-3.266,0,0,0,81,false,stim,true,0,1297.0,1,0,1,42950,WMM1,1584031,false,false,958,image-keyboard-response,6
true,8,1,4,2,false,d,true,false,0.0-2.0-0.29-0.267-3.267,0,0,0,90,false,stim,false,0,846.0,1,0,1,42950,WMM1,1586387,false,false,961,image-keyboard-response,7
true,8,1,4,1,true,z,false,true,0.0-2.0-0.29-0.268-3.268,0,0,0,90,false,stim,false,0,993.0,1,0,0,42950,WMM1,1588887,false,false,964,image-keyboard-response,8
true,8,0,4,0,true,q,false,true,0.0-2.0-0.29-0.269-3.269,0,0,0,81,false,stim,false,1,881.0,1,0,2,42950,WMM1,1591275,false,false,967,image-keyboard-response,9
true,8,2,4,2,true,d,false,true,0.0-2.0-0.30-0.270-3.270,0,0,0,68,false,stim,false,0,1184.0,1,0,1,42950,WMM1,1593966,false,false,970,image-keyboard-response,10
true,8,1,4,1,true,z,false,true,0.0-2.0-0.30-0.271-3.271,0,0,0,90,false,stim,false,0,577.0,1,0,0,42950,WMM1,1596049,false,false,973,image-keyboard-response,11
true,8,2,4,2,true,d,false,false,0.0-2.0-0.30-0.272-3.272,0,0,0,68,false,stim,false,0,833.9999999997672,1,0,1,42950,WMM1,1598389,false,true,976,image-keyboard-response,12
true,8,2,4,0,false,q,true,false,0.0-2.0-0.30-0.273-3.273,0,0,0,68,false,stim,false,1,1106.0,1,0,2,42950,WMM1,1601002,false,false,979,image-keyboard-response,13
true,8,0,4,0,true,q,false,true,0.0-2.0-0.30-0.274-3.274,0,0,0,81,false,stim,false,1,1793.0,1,0,2,42950,WMM1,1604300,false,false,982,image-keyboard-response,14
true,8,2,4,2,true,d,false,true,0.0-2.0-0.30-0.275-3.275,0,0,0,68,false,stim,false,0,1017.0,1,0,1,42950,WMM1,1606822,false,false,985,image-keyboard-response,15
true,8,1,4,1,true,z,false,true,0.0-2.0-0.30-0.276-3.276,0,0,0,90,false,stim,false,0,891.0,1,0,0,42950,WMM1,1609218,false,false,988,image-keyboard-response,16
true,8,2,4,0,false,q,true,false,0.0-2.0-0.30-0.277-3.277,0,0,0,68,false,stim,false,1,713.0000000002328,1,0,2,42950,WMM1,1611435,false,false,991,image-keyboard-response,17
true,8,1,4,1,true,z,false,true,0.0-2.0-0.30-0.278-3.278,0,0,0,90,false,stim,false,0,869.0,1,0,0,42950,WMM1,1613810,false,false,994,image-keyboard-response,18
true,8,0,4,0,true,q,false,true,0.0-2.0-0.31-0.279-3.279,0,0,0,81,false,stim,false,1,599.0,1,0,2,42950,WMM1,1615915,false,false,997,image-keyboard-response,19
true,8,1,4,1,true,z,false,true,0.0-2.0-0.31-0.280-3.280,0,0,0,90,false,stim,false,0,847.0,1,0,0,42950,WMM1,1618265,false,false,1000,image-keyboard-response,20
true,8,2,4,2,true,d,false,true,0.0-2.0-0.31-0.281-3.281,0,0,0,68,false,stim,false,0,1068.9999999997672,1,0,1,42950,WMM1,1620843,false,false,1003,image-keyboard-response,21
true,8,0,4,0,true,q,false,true,0.0-2.0-0.31-0.282-3.282,0,0,0,81,false,stim,false,1,868.0000000002328,1,0,2,42950,WMM1,1623216,false,false,1006,image-keyboard-response,22
true,8,0,4,0,true,q,false,true,0.0-2.0-0.31-0.283-3.283,0,0,0,81,false,stim,false,1,947.0,1,0,2,42950,WMM1,1625669,false,false,1009,image-keyboard-response,23
true,8,2,4,2,true,d,false,true,0.0-2.0-0.31-0.284-3.284,0,0,0,68,false,stim,false,0,937.0000000002328,1,0,1,42950,WMM1,1628111,false,false,1012,image-keyboard-response,24
true,8,2,4,2,true,d,false,true,0.0-2.0-0.31-0.285-3.285,0,0,0,68,false,stim,false,0,824.0,1,0,1,42950,WMM1,1630440,false,false,1015,image-keyboard-response,25
true,8,1,4,1,true,z,false,true,0.0-2.0-0.31-0.286-3.286,0,0,0,90,false,stim,false,0,734.0,1,0,0,42950,WMM1,1632679,false,false,1018,image-keyboard-response,26
true,8,1,4,1,true,z,false,true,0.0-2.0-0.31-0.287-3.287,0,0,0,90,false,stim,false,0,813.0000000002328,1,0,0,42950,WMM1,1634997,false,false,1021,image-keyboard-response,27
true,8,0,4,0,true,q,false,true,0.0-2.0-0.32-0.288-3.288,0,0,0,81,false,stim,false,1,959.0,1,0,2,42950,WMM1,1637461,false,false,1024,image-keyboard-response,28
true,8,1,4,1,true,z,false,true,0.0-2.0-0.32-0.289-3.289,0,0,0,90,false,stim,false,0,835.0,1,0,0,42950,WMM1,1639801,false,false,1027,image-keyboard-response,29
true,8,1,4,1,true,z,false,true,0.0-2.0-0.32-0.290-3.290,0,0,0,90,false,stim,false,0,599.0,1,0,0,42950,WMM1,1641905,false,false,1030,image-keyboard-response,30
true,8,1,4,1,true,z,false,true,0.0-2.0-0.32-0.291-3.291,0,0,0,90,false,stim,false,0,677.9999999997672,1,0,0,42950,WMM1,1644087,false,false,1033,image-keyboard-response,31
true,8,0,4,0,true,q,false,true,0.0-2.0-0.32-0.292-3.292,0,0,0,81,false,stim,false,1,1621.9999999997672,1,0,2,42950,WMM1,1647215,false,false,1036,image-keyboard-response,32
true,9,2,2,1,false,z,false,false,0.0-2.0-0.32-0.293-3.293,0,0,0,68,true,stim,true,2,824.0000000002328,1,0,1,42950,WMM1,1649544,false,false,1039,image-keyboard-response,1
true,9,0,2,1,false,z,true,true,0.0-2.0-0.32-0.294-3.294,0,0,0,81,false,stim,false,2,858.0,1,0,1,42950,WMM1,1651906,false,true,1042,image-keyboard-response,2
true,9,0,2,2,false,d,false,false,0.0-2.0-0.32-0.295-3.295,0,0,0,81,false,stim,true,0,1071.0,1,0,2,42950,WMM1,1654483,false,false,1045,image-keyboard-response,3
true,9,0,2,1,false,z,true,false,0.0-2.0-0.32-0.296-3.296,0,0,0,81,false,stim,false,2,813.0,1,0,1,42950,WMM1,1656801,false,false,1048,image-keyboard-response,4
true,9,1,2,1,true,z,false,true,0.0-2.0-0.33-0.297-3.297,0,0,0,90,false,stim,false,2,801.0,1,0,1,42950,WMM1,1659107,false,false,1051,image-keyboard-response,5
true,9,1,2,0,false,q,false,false,0.0-2.0-0.33-0.298-3.298,0,0,0,90,false,stim,true,1,756.0,1,0,0,42950,WMM1,1661368,false,false,1054,image-keyboard-response,6
true,9,2,2,0,false,q,true,false,0.0-2.0-0.33-0.299-3.299,0,0,0,68,false,stim,false,1,656.0,1,0,0,42950,WMM1,1663528,false,false,1057,image-keyboard-response,7
true,9,2,2,2,true,d,false,true,0.0-2.0-0.33-0.300-3.300,0,0,0,68,false,stim,false,0,1264.0,1,0,2,42950,WMM1,1666296,false,false,1060,image-keyboard-response,8
true,9,1,2,1,true,z,false,false,0.0-2.0-0.33-0.301-3.301,0,0,0,90,false,stim,false,2,1746.0,1,0,1,42950,WMM1,1669547,false,true,1063,image-keyboard-response,9
true,9,1,2,0,false,q,false,false,0.0-2.0-0.33-0.302-3.302,0,0,0,90,false,stim,true,1,1038.0,1,0,0,42950,WMM1,1672090,false,false,1066,image-keyboard-response,10
true,9,2,2,2,true,d,false,true,0.0-2.0-0.33-0.303-3.303,0,0,0,68,false,stim,false,0,1533.0,1,0,2,42950,WMM1,1675128,false,false,1069,image-keyboard-response,11
true,9,2,2,2,true,d,false,false,0.0-2.0-0.33-0.304-3.304,0,0,0,68,false,stim,false,0,710.0,1,0,2,42950,WMM1,1677344,false,true,1072,image-keyboard-response,12
true,9,2,2,1,false,z,false,false,0.0-2.0-0.33-0.305-3.305,0,0,0,68,false,stim,true,2,1948.0,1,0,1,42950,WMM1,1680798,false,false,1075,image-keyboard-response,13
true,9,0,2,2,false,d,false,true,0.0-2.0-0.34-0.306-3.306,0,0,0,81,false,stim,true,0,1328.9999999997672,1,0,2,42950,WMM1,1683633,false,true,1078,image-keyboard-response,14
true,9,1,2,0,false,q,false,false,0.0-2.0-0.34-0.307-3.307,0,0,0,90,false,stim,true,1,778.0,1,0,0,42950,WMM1,1685917,false,false,1081,image-keyboard-response,15
true,9,0,2,0,true,q,false,false,0.0-2.0-0.34-0.308-3.308,0,0,0,81,false,stim,false,1,1320.0,1,0,0,42950,WMM1,1688741,false,true,1084,image-keyboard-response,16
true,9,0,2,1,false,z,true,false,0.0-2.0-0.34-0.309-3.309,0,0,0,81,false,stim,false,2,2770.999999999767,1,0,1,42950,WMM1,1693017,false,false,1087,image-keyboard-response,17
true,9,0,2,2,false,d,false,false,0.0-2.0-0.34-0.310-3.310,0,0,0,81,false,stim,true,0,1126.0,1,0,2,42950,WMM1,1695649,false,false,1090,image-keyboard-response,18
true,9,1,2,1,true,z,false,true,0.0-2.0-0.34-0.311-3.311,0,0,0,90,false,stim,false,2,1050.0,1,0,1,42950,WMM1,1698202,false,false,1093,image-keyboard-response,19
true,9,1,2,0,false,q,false,false,0.0-2.0-0.34-0.312-3.312,0,0,0,90,false,stim,true,1,1205.0,1,0,0,42950,WMM1,1700914,false,false,1096,image-keyboard-response,20
true,9,1,2,2,false,d,true,false,0.0-2.0-0.34-0.313-3.313,0,0,0,90,false,stim,false,0,1352.9999999997672,1,0,2,42950,WMM1,1703771,false,false,1099,image-keyboard-response,21
true,9,1,2,1,true,z,false,true,0.0-2.0-0.34-0.314-3.314,0,0,0,90,false,stim,false,2,1124.0,1,0,1,42950,WMM1,1706404,false,false,1102,image-keyboard-response,22
true,9,1,2,1,true,z,false,true,0.0-2.0-0.35-0.315-3.315,0,0,0,90,false,stim,false,2,520.9999999997672,1,0,1,42950,WMM1,1708430,false,false,1105,image-keyboard-response,23
true,9,2,2,2,true,d,false,false,0.0-2.0-0.35-0.316-3.316,0,0,0,68,false,stim,false,0,1216.0,1,0,2,42950,WMM1,1711152,false,true,1108,image-keyboard-response,24
true,9,0,2,2,false,d,false,false,0.0-2.0-0.35-0.317-3.317,0,0,0,81,false,stim,true,0,868.0000000002328,1,0,2,42950,WMM1,1713525,false,false,1111,image-keyboard-response,25
true,9,1,2,2,false,d,true,false,0.0-2.0-0.35-0.318-3.318,0,0,0,90,false,stim,false,0,1230.0,1,0,2,42950,WMM1,1716260,false,false,1114,image-keyboard-response,26
true,9,1,2,0,false,q,false,true,0.0-2.0-0.35-0.319-3.319,0,0,0,90,false,stim,true,1,1767.0,1,0,0,42950,WMM1,1719533,false,true,1117,image-keyboard-response,27
true,9,1,2,0,false,q,false,false,0.0-2.0-0.35-0.320-3.320,0,0,0,90,false,stim,true,1,496.0,1,0,0,42950,WMM1,1721536,false,false,1120,image-keyboard-response,28
true,9,2,2,0,false,q,true,false,0.0-2.0-0.35-0.321-3.321,0,0,0,68,false,stim,false,1,1015.0,1,0,0,42950,WMM1,1724056,false,false,1123,image-keyboard-response,29
true,9,1,2,1,true,z,false,true,0.0-2.0-0.35-0.322-3.322,0,0,0,90,false,stim,false,2,992.0,1,0,1,42950,WMM1,1726554,false,false,1126,image-keyboard-response,30
true,9,1,2,1,true,z,false,true,0.0-2.0-0.35-0.323-3.323,0,0,0,90,false,stim,false,2,801.0,1,0,1,42950,WMM1,1728860,false,false,1129,image-keyboard-response,31
true,9,1,2,0,false,q,false,false,0.0-2.0-0.36-0.324-3.324,0,0,0,90,false,stim,true,1,788.0,1,0,0,42950,WMM1,1731155,false,false,1132,image-keyboard-response,32
true,9,2,2,2,true,d,false,true,0.0-2.0-0.36-0.325-3.325,0,0,0,68,false,stim,false,0,1420.0,1,0,2,42950,WMM1,1734080,false,false,1135,image-keyboard-response,33
true,9,2,2,2,true,d,false,true,0.0-2.0-0.36-0.326-3.326,0,0,0,68,false,stim,false,0,1971.0,1,0,2,42950,WMM1,1737556,false,false,1138,image-keyboard-response,34
true,9,1,2,1,true,z,false,true,0.0-2.0-0.36-0.327-3.327,0,0,0,90,false,stim,false,2,1307.0,1,0,1,42950,WMM1,1740369,false,false,1141,image-keyboard-response,35
true,9,1,2,1,true,z,false,false,0.0-2.0-0.36-0.328-3.328,0,0,0,90,false,stim,false,2,654.0,1,0,1,42950,WMM1,1742529,false,true,1144,image-keyboard-response,36
true,9,2,2,1,false,z,false,false,0.0-2.0-0.36-0.329-3.329,0,0,0,68,false,stim,true,2,924.9999999997672,1,0,1,42950,WMM1,1744959,false,false,1147,image-keyboard-response,37
true,9,2,2,2,true,d,false,true,0.0-2.0-0.36-0.330-3.330,0,0,0,68,false,stim,false,0,765.9999999997672,1,0,2,42950,WMM1,1747232,false,false,1150,image-keyboard-response,38
true,9,1,2,0,false,q,false,false,0.0-2.0-0.36-0.331-3.331,0,0,0,90,false,stim,true,1,2658.0,1,0,0,42950,WMM1,1751394,false,false,1153,image-keyboard-response,39
true,9,2,2,0,false,q,true,false,0.0-2.0-0.36-0.332-3.332,0,0,0,68,false,stim,false,1,1036.0,1,0,0,42950,WMM1,1753937,false,false,1156,image-keyboard-response,40
true,9,0,2,0,true,q,false,true,0.0-2.0-0.37-0.333-3.333,0,0,0,81,false,stim,false,1,1453.0,1,0,0,42950,WMM1,1756896,false,false,1159,image-keyboard-response,41
true,9,1,2,1,true,z,false,true,0.0-2.0-0.37-0.334-3.334,0,0,0,90,false,stim,false,2,1914.0,1,0,1,42950,WMM1,1760316,false,false,1162,image-keyboard-response,42
true,9,0,2,0,true,q,false,false,0.0-2.0-0.37-0.335-3.335,0,0,0,81,false,stim,false,1,1104.9999999997672,1,0,0,42950,WMM1,1762926,false,true,1165,image-keyboard-response,43
true,9,1,2,1,true,z,false,true,0.0-2.0-0.37-0.336-3.336,0,0,0,90,false,stim,false,2,2577.0,1,0,1,42950,WMM1,1767010,false,false,1168,image-keyboard-response,44
true,9,2,2,2,true,d,false,true,0.0-2.0-0.37-0.337-3.337,0,0,0,68,false,stim,false,0,666.0,1,0,2,42950,WMM1,1769181,false,false,1171,image-keyboard-response,45
true,9,1,2,0,false,q,false,false,0.0-2.0-0.37-0.338-3.338,0,0,0,90,false,stim,true,1,1452.9999999997672,1,0,0,42950,WMM1,1772140,false,false,1174,image-keyboard-response,46
true,9,1,2,2,false,d,true,false,0.0-2.0-0.37-0.339-3.339,0,0,0,90,false,stim,false,0,936.0000000002328,1,0,2,42950,WMM1,1774582,false,false,1177,image-keyboard-response,47
true,9,1,2,1,true,z,false,true,0.0-2.0-0.37-0.340-3.340,0,0,0,90,false,stim,false,2,543.0000000002328,1,0,1,42950,WMM1,1776629,false,false,1180,image-keyboard-response,48
true,9,2,2,2,true,d,false,true,0.0-2.0-0.37-0.341-3.341,0,0,0,68,false,stim,false,0,588.0,1,0,2,42950,WMM1,1778722,false,false,1183,image-keyboard-response,49
true,9,2,2,0,false,q,true,false,0.0-2.0-0.38-0.342-3.342,0,0,0,68,false,stim,false,1,1228.0,1,0,0,42950,WMM1,1781456,false,false,1186,image-keyboard-response,50
true,9,0,2,0,true,q,false,true,0.0-2.0-0.38-0.343-3.343,0,0,0,81,false,stim,false,1,1734.0,1,0,0,42950,WMM1,1784696,false,false,1189,image-keyboard-response,51
true,9,2,2,2,true,d,false,true,0.0-2.0-0.38-0.344-3.344,0,0,0,68,false,stim,false,0,1027.0,1,0,2,42950,WMM1,1787227,false,false,1192,image-keyboard-response,52
true,9,1,2,1,true,z,false,true,0.0-2.0-0.38-0.345-3.345,0,0,0,90,false,stim,false,2,894.0,1,0,1,42950,WMM1,1789624,false,false,1195,image-keyboard-response,53
true,9,2,2,2,true,d,false,true,0.0-2.0-0.38-0.346-3.346,0,0,0,68,false,stim,false,0,743.9999999997672,1,0,2,42950,WMM1,1791874,false,false,1198,image-keyboard-response,54
true,10,1,1,0,false,q,false,false,0.0-2.0-0.38-0.347-3.347,0,0,0,90,true,stim,true,1,605.0,1,0,1,42950,WMM1,1793989,false,false,1201,image-keyboard-response,1
true,10,2,1,0,false,q,false,false,0.0-2.0-0.38-0.348-3.348,0,0,0,68,false,stim,true,2,914.0,1,0,2,42950,WMM1,1796407,false,false,1204,image-keyboard-response,2
true,10,0,1,0,true,q,false,true,0.0-2.0-0.38-0.349-3.349,0,0,0,81,false,stim,false,1,622.0,1,0,1,42950,WMM1,1798534,false,false,1207,image-keyboard-response,3
true,10,1,1,1,true,z,false,true,0.0-2.0-0.38-0.350-3.350,0,0,0,90,false,stim,false,0,1791.0,1,0,0,42950,WMM1,1801830,false,false,1210,image-keyboard-response,4
true,10,0,1,0,true,q,false,true,0.0-2.0-0.39-0.351-3.351,0,0,0,81,false,stim,false,1,1194.0,1,0,1,42950,WMM1,1804530,false,false,1213,image-keyboard-response,5
true,10,1,1,1,true,z,false,true,0.0-2.0-0.39-0.352-3.352,0,0,0,90,false,stim,false,0,420.0,1,0,0,42950,WMM1,1806454,false,false,1216,image-keyboard-response,6
true,10,1,1,0,false,q,true,false,0.0-2.0-0.39-0.353-3.353,0,0,0,90,false,stim,false,2,1219.0000000002328,1,0,2,42950,WMM1,1809177,false,false,1219,image-keyboard-response,7
true,10,0,1,0,true,q,false,true,0.0-2.0-0.39-0.354-3.354,0,0,0,81,false,stim,false,1,1341.0000000002328,1,0,1,42950,WMM1,1812023,false,false,1222,image-keyboard-response,8
true,10,0,1,0,true,q,false,true,0.0-2.0-0.39-0.355-3.355,0,0,0,81,false,stim,false,1,801.0,1,0,1,42950,WMM1,1814329,false,false,1225,image-keyboard-response,9
true,10,1,1,1,true,z,false,true,0.0-2.0-0.39-0.356-3.356,0,0,0,90,false,stim,false,0,754.0000000002328,1,0,0,42950,WMM1,1816591,false,false,1228,image-keyboard-response,10
true,10,1,1,1,true,z,false,true,0.0-2.0-0.39-0.357-3.357,0,0,0,90,false,stim,false,0,869.0000000002328,1,0,0,42950,WMM1,1818965,false,false,1231,image-keyboard-response,11
true,10,2,1,0,false,q,false,false,0.0-2.0-0.39-0.358-3.358,0,0,0,68,false,stim,true,2,1117.0,1,0,2,42950,WMM1,1821586,false,false,1234,image-keyboard-response,12
true,10,0,1,0,true,q,false,true,0.0-2.0-0.39-0.359-3.359,0,0,0,81,false,stim,false,2,890.0,1,0,2,42950,WMM1,1823982,false,false,1237,image-keyboard-response,13
true,10,1,1,1,true,z,false,true,0.0-2.0-0.40-0.360-3.360,0,0,0,90,false,stim,false,0,778.0,1,0,0,42950,WMM1,1826266,false,false,1240,image-keyboard-response,14
true,10,0,1,0,true,q,false,true,0.0-2.0-0.40-0.361-3.361,0,0,0,81,false,stim,false,1,599.0000000002328,1,0,1,42950,WMM1,1828370,false,false,1243,image-keyboard-response,15
true,10,0,1,0,true,q,false,true,0.0-2.0-0.40-0.362-3.362,0,0,0,81,false,stim,false,1,655.0,1,0,1,42950,WMM1,1830530,false,false,1246,image-keyboard-response,16
true,10,1,1,1,true,z,false,true,0.0-2.0-0.40-0.363-3.363,0,0,0,90,false,stim,false,0,937.0,1,0,0,42950,WMM1,1832971,false,false,1249,image-keyboard-response,17
true,10,1,1,1,true,z,false,true,0.0-2.0-0.40-0.364-3.364,0,0,0,90,false,stim,false,0,668.0,1,0,0,42950,WMM1,1835143,false,false,1252,image-keyboard-response,18
true,10,0,1,0,true,q,false,true,0.0-2.0-0.40-0.365-3.365,0,0,0,81,false,stim,false,2,822.9999999997672,1,0,2,42950,WMM1,1837472,false,false,1255,image-keyboard-response,19
true,10,0,1,0,true,q,false,true,0.0-2.0-0.40-0.366-3.366,0,0,0,81,false,stim,false,2,622.0,1,0,2,42950,WMM1,1839598,false,false,1258,image-keyboard-response,20
true,10,0,1,0,true,q,false,true,0.0-2.0-0.40-0.367-3.367,0,0,0,81,false,stim,false,2,576.0,1,0,2,42950,WMM1,1841679,false,false,1261,image-keyboard-response,21
true,10,0,1,0,true,q,false,true,0.0-2.0-0.40-0.368-3.368,0,0,0,81,false,stim,false,1,971.0,1,0,1,42950,WMM1,1844154,false,false,1264,image-keyboard-response,22
true,10,0,1,0,true,q,false,true,0.0-2.0-0.41-0.369-3.369,0,0,0,81,false,stim,false,1,565.0000000002328,1,0,1,42950,WMM1,1846224,false,false,1267,image-keyboard-response,23
true,10,1,1,1,true,z,false,false,0.0-2.0-0.41-0.370-3.370,0,0,0,90,false,stim,false,0,611.0000000002328,1,0,0,42950,WMM1,1848339,false,true,1270,image-keyboard-response,24
true,10,0,1,0,true,q,false,true,0.0-2.0-0.41-0.371-3.371,0,0,0,81,false,stim,false,1,981.0,1,0,1,42950,WMM1,1850826,false,false,1273,image-keyboard-response,25
true,10,0,1,0,true,q,false,true,0.0-2.0-0.41-0.372-3.372,0,0,0,81,false,stim,false,2,497.0,1,0,2,42950,WMM1,1852828,false,false,1276,image-keyboard-response,26
true,10,2,1,1,false,z,true,false,0.0-2.0-0.41-0.373-3.373,0,0,0,68,false,stim,false,0,475.0,1,0,0,42950,WMM1,1854808,false,false,1279,image-keyboard-response,27
true,10,0,1,0,true,q,false,true,0.0-2.0-0.41-0.374-3.374,0,0,0,81,false,stim,false,2,914.0,1,0,2,42950,WMM1,1857227,false,false,1282,image-keyboard-response,28
true,10,0,1,1,false,z,false,false,0.0-2.0-0.41-0.375-3.375,0,0,0,81,false,stim,true,0,1398.0,1,0,0,42950,WMM1,1860130,false,false,1285,image-keyboard-response,29
true,10,0,1,0,true,q,false,true,0.0-2.0-0.41-0.376-3.376,0,0,0,81,false,stim,false,2,869.0000000002328,1,0,2,42950,WMM1,1862504,false,false,1288,image-keyboard-response,30
true,11,0,2,1,false,z,false,false,0.0-2.0-0.41-0.377-3.377,0,0,0,81,true,stim,true,0,498.0,1,0,1,42950,WMM1,1864506,false,false,1291,image-keyboard-response,1
true,11,1,2,1,true,z,false,true,0.0-2.0-0.42-0.378-3.378,0,0,0,90,false,stim,false,0,1398.0,1,0,1,42950,WMM1,1867409,false,false,1294,image-keyboard-response,2
true,11,0,2,2,false,d,false,false,0.0-2.0-0.42-0.379-3.379,0,0,0,81,false,stim,true,0,1023.9999999997672,1,0,2,42950,WMM1,1869940,false,false,1297,image-keyboard-response,3
true,11,1,2,1,true,z,false,true,0.0-2.0-0.42-0.380-3.380,0,0,0,90,false,stim,false,0,542.9999999997672,1,0,1,42950,WMM1,1871988,false,false,1300,image-keyboard-response,4
true,11,2,2,2,true,d,false,false,0.0-2.0-0.42-0.381-3.381,0,0,0,68,false,stim,false,0,854.0,1,0,2,42950,WMM1,1874350,false,true,1303,image-keyboard-response,5
true,11,1,2,0,false,q,false,false,0.0-2.0-0.42-0.382-3.382,0,0,0,90,false,stim,true,1,1602.0,1,0,0,42950,WMM1,1877456,false,false,1306,image-keyboard-response,6
true,11,2,2,2,true,d,false,true,0.0-2.0-0.42-0.383-3.383,0,0,0,68,false,stim,false,0,1813.0,1,0,2,42950,WMM1,1880774,false,false,1309,image-keyboard-response,7
true,11,0,2,0,true,q,false,true,0.0-2.0-0.42-0.384-3.384,0,0,0,81,false,stim,false,1,1398.0,1,0,0,42950,WMM1,1883677,false,false,1312,image-keyboard-response,8
true,11,1,2,1,true,z,false,true,0.0-2.0-0.42-0.385-3.385,0,0,0,90,false,stim,false,0,1285.0,1,0,1,42950,WMM1,1886467,false,false,1315,image-keyboard-response,9
true,11,0,2,0,true,q,false,true,0.0-2.0-0.42-0.386-3.386,0,0,0,81,false,stim,false,1,2164.0,1,0,0,42950,WMM1,1890135,false,false,1318,image-keyboard-response,10
true,11,1,2,1,true,z,false,true,0.0-2.0-0.43-0.387-3.387,0,0,0,90,false,stim,false,0,891.0,1,0,1,42950,WMM1,1892531,false,false,1321,image-keyboard-response,11
true,11,0,2,0,true,q,false,true,0.0-2.0-0.43-0.388-3.388,0,0,0,81,false,stim,false,1,859.0,1,0,0,42950,WMM1,1894894,false,false,1324,image-keyboard-response,12
true,11,2,2,2,true,d,false,true,0.0-2.0-0.43-0.389-3.389,0,0,0,68,false,stim,false,0,879.0,1,0,2,42950,WMM1,1897279,false,false,1327,image-keyboard-response,13
true,11,2,2,2,true,d,false,true,0.0-2.0-0.43-0.390-3.390,0,0,0,68,false,stim,false,0,543.0,1,0,2,42950,WMM1,1899326,false,false,1330,image-keyboard-response,14
true,11,1,2,0,false,q,false,false,0.0-2.0-0.43-0.391-3.391,0,0,0,90,false,stim,true,1,1218.0,1,0,0,42950,WMM1,1902049,false,false,1333,image-keyboard-response,15
true,11,2,2,2,true,d,false,true,0.0-2.0-0.43-0.392-3.392,0,0,0,68,false,stim,false,0,1296.0,1,0,2,42950,WMM1,1904850,false,false,1336,image-keyboard-response,16
true,11,0,2,0,true,q,false,true,0.0-2.0-0.43-0.393-3.393,0,0,0,81,false,stim,false,1,824.0,1,0,0,42950,WMM1,1907179,false,false,1339,image-keyboard-response,17
true,11,1,2,1,true,z,false,true,0.0-2.0-0.43-0.394-3.394,0,0,0,90,false,stim,false,0,825.0,1,0,1,42950,WMM1,1909509,false,false,1342,image-keyboard-response,18
true,11,1,2,1,true,z,false,false,0.0-2.0-0.43-0.395-3.395,0,0,0,90,false,stim,false,0,598.0,1,0,1,42950,WMM1,1911612,false,true,1345,image-keyboard-response,19
true,11,0,2,0,true,q,false,true,0.0-2.0-0.44-0.396-3.396,0,0,0,81,false,stim,false,1,970.0,1,0,0,42950,WMM1,1914087,false,false,1348,image-keyboard-response,20
true,11,1,2,1,true,z,false,true,0.0-2.0-0.44-0.397-3.397,0,0,0,90,false,stim,false,0,1364.0,1,0,1,42950,WMM1,1916957,false,false,1351,image-keyboard-response,21
true,11,1,2,1,true,z,false,true,0.0-2.0-0.44-0.398-3.398,0,0,0,90,false,stim,false,0,778.0,1,0,1,42950,WMM1,1919240,false,false,1354,image-keyboard-response,22
true,11,2,2,2,true,d,false,true,0.0-2.0-0.44-0.399-3.399,0,0,0,68,false,stim,false,0,756.0,1,1,2,42950,WMM1,1921501,false,false,1357,image-keyboard-response,23
true,11,2,2,2,true,d,false,true,0.0-2.0-0.44-0.400-3.400,0,0,0,68,false,stim,false,0,1016.0000000002328,1,1,2,42950,WMM1,1924022,false,false,1360,image-keyboard-response,24
true,11,0,2,0,true,q,false,true,0.0-2.0-0.44-0.401-3.401,0,0,0,81,false,stim,false,1,969.0,1,0,0,42950,WMM1,1926496,false,false,1363,image-keyboard-response,25
true,11,1,2,1,true,z,false,true,0.0-2.0-0.44-0.402-3.402,0,0,0,90,false,stim,false,0,689.0,1,0,1,42950,WMM1,1928690,false,false,1366,image-keyboard-response,26
true,11,2,2,2,true,d,false,true,0.0-2.0-0.44-0.403-3.403,0,0,0,68,false,stim,false,0,745.9999999997672,1,1,2,42950,WMM1,1930941,false,false,1369,image-keyboard-response,27
true,11,0,2,0,true,q,false,true,0.0-2.0-0.44-0.404-3.404,0,0,0,81,false,stim,false,1,1070.9999999997672,1,0,0,42950,WMM1,1933517,false,false,1372,image-keyboard-response,28
true,11,1,2,2,false,d,true,false,0.0-2.0-0.45-0.405-3.405,0,0,0,90,false,stim,false,0,712.9999999997672,1,1,2,42950,WMM1,1935734,false,false,1375,image-keyboard-response,29
true,11,1,2,1,true,z,false,true,0.0-2.0-0.45-0.406-3.406,0,0,0,90,false,stim,false,0,1025.0,1,0,1,42950,WMM1,1938264,false,false,1378,image-keyboard-response,30
true,12,0,3,1,false,z,false,false,0.0-2.0-0.45-0.407-3.407,0,0,1,81,true,stim,true,0,644.0,1,0,0,42950,WMM1,1940413,false,false,1381,image-keyboard-response,1
true,12,2,3,2,true,d,false,true,0.0-2.0-0.45-0.408-3.408,0,0,1,68,false,stim,false,2,801.0,1,1,2,42950,WMM1,1942719,false,false,1384,image-keyboard-response,2
true,12,0,3,1,false,z,false,false,0.0-2.0-0.45-0.409-3.409,0,0,1,81,false,stim,true,0,565.0,1,0,0,42950,WMM1,1944789,false,false,1387,image-keyboard-response,3
true,12,1,3,1,true,z,false,false,0.0-2.0-0.45-0.410-3.410,0,0,1,90,false,stim,false,0,1893.0,1,0,0,42950,WMM1,1948187,false,true,1390,image-keyboard-response,4
true,12,1,3,0,false,q,false,false,0.0-2.0-0.45-0.411-3.411,0,0,1,90,false,stim,true,1,1027.0,1,0,1,42950,WMM1,1950719,false,false,1393,image-keyboard-response,5
true,12,2,3,0,false,q,true,true,0.0-2.0-0.45-0.412-3.412,0,0,1,68,false,stim,false,1,710.0000000002328,1,0,1,42950,WMM1,1952935,false,true,1396,image-keyboard-response,6
true,12,0,3,2,false,d,true,false,0.0-2.0-0.45-0.413-3.413,0,0,1,81,false,stim,false,2,768.0,1,1,2,42950,WMM1,1955207,false,false,1399,image-keyboard-response,7
true,12,2,3,0,false,q,true,false,0.0-2.0-0.46-0.414-3.414,0,0,1,68,false,stim,false,1,943.0,1,0,1,42950,WMM1,1957660,false,false,1402,image-keyboard-response,8
true,12,0,3,1,false,z,false,false,0.0-2.0-0.46-0.415-3.415,0,0,1,81,false,stim,true,0,1331.0,1,0,0,42950,WMM1,1960495,false,false,1405,image-keyboard-response,9
true,12,1,3,1,true,z,false,true,0.0-2.0-0.46-0.416-3.416,0,0,1,90,false,stim,false,0,621.0,1,0,0,42950,WMM1,1962621,false,false,1408,image-keyboard-response,10
true,12,1,3,1,true,z,false,true,0.0-2.0-0.46-0.417-3.417,0,0,1,90,false,stim,false,0,880.0,1,0,0,42950,WMM1,1965007,false,false,1411,image-keyboard-response,11
true,12,2,3,0,false,q,true,false,0.0-2.0-0.46-0.418-3.418,0,0,1,68,false,stim,false,1,656.0000000002328,1,0,1,42950,WMM1,1967166,false,false,1414,image-keyboard-response,12
true,12,2,3,2,true,d,false,false,0.0-2.0-0.46-0.419-3.419,0,0,1,68,false,stim,false,2,1049.0,1,1,2,42950,WMM1,1969720,false,true,1417,image-keyboard-response,13
true,12,0,3,2,false,d,true,false,0.0-2.0-0.46-0.420-3.420,0,0,1,81,false,stim,false,2,1083.0,1,1,2,42950,WMM1,1972308,false,false,1420,image-keyboard-response,14
true,12,2,3,0,false,q,true,false,0.0-2.0-0.46-0.421-3.421,0,0,1,68,false,stim,false,1,1781.0,1,0,1,42950,WMM1,1975594,false,false,1423,image-keyboard-response,15
true,12,1,3,2,false,d,true,false,0.0-2.0-0.46-0.422-3.422,0,0,1,90,false,stim,false,2,2669.0,1,1,2,42950,WMM1,1979767,false,false,1426,image-keyboard-response,16
true,12,1,3,1,true,z,false,true,0.0-2.0-0.47-0.423-3.423,0,0,1,90,false,stim,false,0,822.0,1,0,0,42950,WMM1,1982096,false,false,1429,image-keyboard-response,17
true,12,0,3,0,true,q,false,true,0.0-2.0-0.47-0.424-3.424,0,0,1,81,false,stim,false,1,1646.0,1,0,1,42950,WMM1,1985246,false,false,1432,image-keyboard-response,18
true,12,1,3,1,true,z,false,true,0.0-2.0-0.47-0.425-3.425,0,0,1,90,false,stim,false,0,801.0,1,0,0,42950,WMM1,1987552,false,false,1435,image-keyboard-response,19
true,12,0,3,0,true,q,false,true,0.0-2.0-0.47-0.426-3.426,0,0,1,81,false,stim,false,1,711.0,1,0,1,42950,WMM1,1989769,false,false,1438,image-keyboard-response,20
true,12,2,3,2,true,d,false,true,0.0-2.0-0.47-0.427-3.427,0,0,1,68,false,stim,false,2,779.0,1,1,2,42950,WMM1,1992052,false,false,1441,image-keyboard-response,21
true,12,1,3,2,false,d,true,false,0.0-2.0-0.47-0.428-3.428,0,0,1,90,false,stim,false,2,756.0,1,1,2,42950,WMM1,1994314,false,false,1444,image-keyboard-response,22
true,12,0,3,0,true,q,false,true,0.0-2.0-0.47-0.429-3.429,0,0,1,81,false,stim,false,1,1037.0,1,0,1,42950,WMM1,1996856,false,false,1447,image-keyboard-response,23
true,12,0,3,1,false,z,false,false,0.0-2.0-0.47-0.430-3.430,0,0,1,81,false,stim,true,0,811.0,1,0,0,42950,WMM1,1999174,false,false,1450,image-keyboard-response,24
true,12,2,3,2,true,d,false,true,0.0-2.0-0.47-0.431-3.431,0,0,1,68,false,stim,false,2,936.0,1,1,2,42950,WMM1,2001615,false,false,1453,image-keyboard-response,25
true,12,1,3,1,true,z,false,true,0.0-2.0-0.48-0.432-3.432,0,0,1,90,false,stim,false,0,900.0,1,0,0,42950,WMM1,2004023,false,false,1456,image-keyboard-response,26
true,12,2,3,2,true,d,false,true,0.0-2.0-0.48-0.433-3.433,0,0,1,68,false,stim,false,2,1082.0,1,1,2,42950,WMM1,2006611,false,false,1459,image-keyboard-response,27
true,12,0,3,0,true,q,false,true,0.0-2.0-0.48-0.434-3.434,0,0,1,81,false,stim,false,1,720.0,1,0,1,42950,WMM1,2008838,false,false,1462,image-keyboard-response,28
true,12,1,3,1,true,z,false,true,0.0-2.0-0.48-0.435-3.435,0,0,1,90,false,stim,false,0,812.0000000002328,1,0,0,42950,WMM1,2011156,false,false,1465,image-keyboard-response,29
true,12,1,3,1,true,z,false,false,0.0-2.0-0.48-0.436-3.436,0,0,1,90,false,stim,false,0,800.0000000002328,1,0,0,42950,WMM1,2013462,false,true,1468,image-keyboard-response,30
true,12,2,3,2,true,d,false,true,0.0-2.0-0.48-0.437-3.437,0,0,1,68,false,stim,false,2,993.0,1,0,2,42950,WMM1,2015960,false,false,1471,image-keyboard-response,31
true,12,2,3,2,true,d,false,true,0.0-2.0-0.48-0.438-3.438,0,0,1,68,false,stim,false,2,767.0000000002328,1,0,2,42950,WMM1,2018232,false,false,1474,image-keyboard-response,32
true,12,0,3,0,true,q,false,false,0.0-2.0-0.48-0.439-3.439,0,0,1,81,false,stim,false,1,565.0,1,0,1,42950,WMM1,2020302,false,true,1477,image-keyboard-response,33
true,12,0,3,0,true,q,false,true,0.0-2.0-0.48-0.440-3.440,0,0,1,81,false,stim,false,1,1432.0,1,0,1,42950,WMM1,2023239,false,false,1480,image-keyboard-response,34
true,12,1,3,1,true,z,false,true,0.0-2.0-0.49-0.441-3.441,0,0,1,90,false,stim,false,0,597.0,1,0,0,42950,WMM1,2025342,false,false,1483,image-keyboard-response,35
true,12,1,3,1,true,z,false,true,0.0-2.0-0.49-0.442-3.442,0,0,1,90,false,stim,false,0,542.9999999997672,1,0,0,42950,WMM1,2027390,false,false,1486,image-keyboard-response,36
true,12,1,3,1,true,z,false,true,0.0-2.0-0.49-0.443-3.443,0,0,1,90,false,stim,false,0,609.9999999997672,1,0,0,42950,WMM1,2029505,false,false,1489,image-keyboard-response,37
true,12,0,3,0,true,q,false,true,0.0-2.0-0.49-0.444-3.444,0,0,1,81,false,stim,false,1,2341.999999999767,1,0,1,42950,WMM1,2033353,false,false,1492,image-keyboard-response,38
true,12,0,3,0,true,q,false,true,0.0-2.0-0.49-0.445-3.445,0,0,1,81,false,stim,false,1,531.9999999997672,1,0,1,42950,WMM1,2035389,false,false,1495,image-keyboard-response,39
true,13,2,4,1,false,z,false,false,0.0-2.0-0.49-0.446-3.446,0,0,0,68,true,stim,true,2,780.0,1,0,2,42950,WMM1,2037674,false,false,1498,image-keyboard-response,1
true,13,0,4,2,false,d,false,false,0.0-2.0-0.49-0.447-3.447,0,0,0,81,false,stim,true,0,886.9999999997672,1,0,1,42950,WMM1,2040070,false,false,1501,image-keyboard-response,2
true,13,2,4,1,false,z,false,false,0.0-2.0-0.49-0.448-3.448,0,0,0,68,false,stim,true,2,800.0,1,0,2,42950,WMM1,2042376,false,false,1504,image-keyboard-response,3
true,13,2,4,1,false,z,false,false,0.0-2.0-0.49-0.449-3.449,0,0,0,68,false,stim,true,2,779.0,1,0,2,42950,WMM1,2044659,false,false,1507,image-keyboard-response,4
true,13,0,4,2,false,d,false,false,0.0-2.0-0.50-0.450-3.450,0,0,0,81,false,stim,true,0,1126.9999999997672,1,0,1,42950,WMM1,2047292,false,false,1510,image-keyboard-response,5
true,13,1,4,2,false,d,false,false,0.0-2.0-0.50-0.451-3.451,0,0,0,90,false,stim,true,1,800.9999999997672,1,0,0,42950,WMM1,2049598,false,false,1513,image-keyboard-response,6
true,13,2,4,2,true,d,false,true,0.0-2.0-0.50-0.452-3.452,0,0,0,68,false,stim,false,0,1803.9999999995343,1,0,1,42950,WMM1,2052907,false,false,1516,image-keyboard-response,7
true,13,0,4,1,false,z,true,false,0.0-2.0-0.50-0.453-3.453,0,0,0,81,false,stim,false,2,1206.9999999997672,1,0,2,42950,WMM1,2055619,false,false,1519,image-keyboard-response,8
true,13,1,4,1,true,z,false,true,0.0-2.0-0.50-0.454-3.454,0,0,0,90,false,stim,false,2,530.0000000002328,1,0,2,42950,WMM1,2057654,false,false,1522,image-keyboard-response,9
true,13,0,4,2,false,d,true,false,0.0-2.0-0.50-0.455-3.455,0,0,0,81,false,stim,false,1,1466.0,1,0,0,42950,WMM1,2060625,false,false,1525,image-keyboard-response,10
true,13,1,4,1,true,z,false,true,0.0-2.0-0.50-0.456-3.456,0,0,0,90,false,stim,false,2,1171.9999999995343,1,0,2,42950,WMM1,2063301,false,false,1528,image-keyboard-response,11
true,13,1,4,2,false,d,false,false,0.0-2.0-0.50-0.457-3.457,0,0,0,90,false,stim,true,1,1162.0000000002328,1,0,0,42950,WMM1,2065969,false,false,1531,image-keyboard-response,12
true,13,2,4,2,true,d,false,true,0.0-2.0-0.50-0.458-3.458,0,0,0,68,false,stim,false,0,733.0000000002328,1,0,1,42950,WMM1,2068207,false,false,1534,image-keyboard-response,13
true,13,1,4,2,false,d,true,false,0.0-2.0-0.51-0.459-3.459,0,0,0,90,false,stim,false,0,2208.0,1,0,1,42950,WMM1,2071920,false,false,1537,image-keyboard-response,14
true,13,2,4,2,true,d,false,true,0.0-2.0-0.51-0.460-3.460,0,0,0,68,false,stim,false,1,1587.0,1,0,0,42950,WMM1,2075013,false,false,1540,image-keyboard-response,15
true,13,2,4,1,false,z,false,false,0.0-2.0-0.51-0.461-3.461,0,0,0,68,false,stim,true,2,981.0000000002328,1,0,2,42950,WMM1,2077499,false,false,1543,image-keyboard-response,16
true,13,2,4,2,true,d,false,true,0.0-2.0-0.51-0.462-3.462,0,0,0,68,false,stim,false,1,1152.0,1,0,0,42950,WMM1,2080155,false,false,1546,image-keyboard-response,17
true,13,2,4,2,true,d,false,true,0.0-2.0-0.51-0.463-3.463,0,0,0,68,false,stim,false,1,710.0,1,0,0,42950,WMM1,2082371,false,false,1549,image-keyboard-response,18
true,13,1,4,2,false,d,true,false,0.0-2.0-0.51-0.464-3.464,0,0,0,90,false,stim,false,0,757.0,1,0,1,42950,WMM1,2084632,false,false,1552,image-keyboard-response,19
true,13,1,4,1,true,z,false,true,0.0-2.0-0.51-0.465-3.465,0,0,0,90,false,stim,false,2,1082.0,1,0,2,42950,WMM1,2087220,false,false,1555,image-keyboard-response,20
true,13,1,4,1,true,z,false,true,0.0-2.0-0.51-0.466-3.466,0,0,0,90,false,stim,false,2,711.0000000002328,1,0,2,42950,WMM1,2089436,false,false,1558,image-keyboard-response,21
true,13,0,4,2,false,d,false,false,0.0-2.0-0.51-0.467-3.467,0,0,0,81,false,stim,true,0,800.9999999997672,1,0,1,42950,WMM1,2091743,false,false,1561,image-keyboard-response,22
true,13,2,4,2,true,d,false,true,0.0-2.0-0.52-0.468-3.468,0,0,0,68,false,stim,false,1,787.0000000002328,1,0,0,42950,WMM1,2094038,false,false,1564,image-keyboard-response,23
true,13,1,4,1,true,z,false,true,0.0-2.0-0.52-0.469-3.469,0,0,0,90,false,stim,false,2,1047.0000000002328,1,0,2,42950,WMM1,2096591,false,false,1567,image-keyboard-response,24
true,13,1,4,1,true,z,false,true,0.0-2.0-0.52-0.470-3.470,0,0,0,90,false,stim,false,2,598.0,1,0,2,42950,WMM1,2098695,false,false,1570,image-keyboard-response,25
true,13,1,4,2,false,d,true,false,0.0-2.0-0.52-0.471-3.471,0,0,0,90,false,stim,false,0,969.0,1,0,1,42950,WMM1,2101170,false,false,1573,image-keyboard-response,26
true,13,2,4,2,true,d,false,true,0.0-2.0-0.52-0.472-3.472,0,0,0,68,false,stim,false,0,1160.0,1,0,1,42950,WMM1,2103837,false,false,1576,image-keyboard-response,27
true,13,2,4,2,true,d,false,true,0.0-2.0-0.52-0.473-3.473,0,0,0,68,false,stim,false,1,835.0,1,0,0,42950,WMM1,2106177,false,false,1579,image-keyboard-response,28
true,13,1,4,1,true,z,false,true,0.0-2.0-0.52-0.474-3.474,0,0,0,90,false,stim,false,2,665.0,1,0,2,42950,WMM1,2108348,false,false,1582,image-keyboard-response,29
true,13,2,4,2,true,d,false,false,0.0-2.0-0.52-0.475-3.475,0,0,0,68,false,stim,false,0,1295.0000000004657,1,0,1,42950,WMM1,2111150,false,true,1585,image-keyboard-response,30
true,13,2,4,2,true,d,false,true,0.0-2.0-0.52-0.476-3.476,0,0,0,68,false,stim,false,1,519.0,1,1,0,42950,WMM1,2113175,false,false,1588,image-keyboard-response,31
true,13,0,4,1,false,z,true,false,0.0-2.0-0.53-0.477-3.477,0,0,0,81,false,stim,false,2,665.0,1,1,2,42950,WMM1,2115346,false,false,1591,image-keyboard-response,32
true,13,0,4,2,false,d,false,false,0.0-2.0-0.53-0.478-3.478,0,0,0,81,false,stim,true,0,756.0,1,1,1,42950,WMM1,2117607,false,false,1594,image-keyboard-response,33
true,13,2,4,2,true,d,false,true,0.0-2.0-0.53-0.479-3.479,0,0,0,68,false,stim,false,1,937.0,1,1,0,42950,WMM1,2120049,false,false,1597,image-keyboard-response,34
true,13,2,4,2,true,d,false,true,0.0-2.0-0.53-0.480-3.480,0,0,0,68,false,stim,false,1,857.9999999995343,1,1,0,42950,WMM1,2122411,false,false,1600,image-keyboard-response,35
true,13,1,4,2,false,d,true,false,0.0-2.0-0.53-0.481-3.481,0,0,0,90,false,stim,false,0,1190.0000000004657,1,1,1,42950,WMM1,2125111,false,false,1603,image-keyboard-response,36
true,13,2,4,2,true,d,false,true,0.0-2.0-0.53-0.482-3.482,0,0,0,68,false,stim,false,0,1006.0,1,1,1,42950,WMM1,2127621,false,false,1606,image-keyboard-response,37
true,13,2,4,2,true,d,false,true,0.0-2.0-0.53-0.483-3.483,0,0,0,68,false,stim,false,1,902.0,1,1,0,42950,WMM1,2130028,false,false,1609,image-keyboard-response,38
true,13,2,4,1,false,z,false,false,0.0-2.0-0.53-0.484-3.484,0,0,0,68,false,stim,true,2,1362.9999999995343,1,1,2,42950,WMM1,2132896,false,false,1612,image-keyboard-response,39
true,13,0,4,1,false,z,true,false,0.0-2.0-0.53-0.485-3.485,0,0,0,81,false,stim,false,2,1601.0,1,1,2,42950,WMM1,2136002,false,false,1615,image-keyboard-response,40
false,14,-1,0,1,false,z,true,false,0.0-2.0-0.54-0.486-3.486,1,1,1,,true,stim,false,1,,1,1,2,42950,WMM1,2148890,false,false,1627,image-keyboard-response,1
true,14,2,0,1,false,z,true,false,0.0-2.0-0.54-0.487-3.487,1,1,1,68,false,stim,false,1,1562.0000000004657,1,1,2,42950,WMM1,2151957,false,false,1630,image-keyboard-response,2
true,14,0,0,2,false,d,true,false,0.0-2.0-0.54-0.488-3.488,1,1,1,81,false,stim,false,2,1203.0,1,1,0,42950,WMM1,2154666,false,false,1633,image-keyboard-response,3
true,14,1,0,1,true,z,false,true,0.0-2.0-0.54-0.489-3.489,1,1,1,90,false,stim,false,1,2005.0,1,1,2,42950,WMM1,2158176,false,false,1636,image-keyboard-response,4
true,14,0,0,2,false,d,true,false,0.0-2.0-0.54-0.490-3.490,1,1,1,81,false,stim,false,2,2467.0,1,1,0,42950,WMM1,2162148,false,false,1639,image-keyboard-response,5
true,14,2,0,2,true,d,false,true,0.0-2.0-0.54-0.491-3.491,1,1,1,68,false,stim,false,2,2186.0,1,1,1,42950,WMM1,2165838,false,false,1642,image-keyboard-response,6
false,14,-1,0,2,false,d,true,true,0.0-2.0-0.54-0.492-3.492,1,1,1,,false,stim,false,2,,1,1,0,42950,WMM1,2170345,false,true,1645,image-keyboard-response,7
true,14,2,0,2,true,d,false,true,0.0-2.0-0.54-0.493-3.493,1,1,1,68,false,stim,false,2,1155.0,1,1,1,42950,WMM1,2173005,false,false,1648,image-keyboard-response,8
true,14,2,0,2,true,d,false,true,0.0-2.0-0.54-0.494-3.494,1,1,1,68,false,stim,false,2,790.0,1,1,1,42950,WMM1,2175299,false,false,1651,image-keyboard-response,9
true,14,2,0,2,true,d,false,true,0.0-2.0-0.55-0.495-3.495,1,1,1,68,false,stim,false,2,755.0,1,1,1,42950,WMM1,2177561,false,false,1654,image-keyboard-response,10
true,14,1,0,1,true,z,false,true,0.0-2.0-0.55-0.496-3.496,1,1,1,90,false,stim,false,1,801.0,1,1,2,42950,WMM1,2179867,false,false,1657,image-keyboard-response,11
true,14,1,0,1,true,z,false,true,0.0-2.0-0.55-0.497-3.497,1,1,1,90,false,stim,false,1,541.0,1,1,2,42950,WMM1,2181915,false,false,1660,image-keyboard-response,12
true,14,0,0,2,false,d,true,false,0.0-2.0-0.55-0.498-3.498,1,1,1,81,false,stim,false,2,813.0,1,1,0,42950,WMM1,2184232,false,false,1663,image-keyboard-response,13
true,14,1,0,2,false,d,true,false,0.0-2.0-0.55-0.499-3.499,1,1,1,90,false,stim,false,2,779.0,1,1,0,42950,WMM1,2186516,false,false,1666,image-keyboard-response,14
true,14,2,0,2,true,d,false,true,0.0-2.0-0.55-0.500-3.500,1,1,1,68,false,stim,false,2,1037.0,1,1,0,42950,WMM1,2189059,false,false,1669,image-keyboard-response,15
true,14,1,0,2,false,d,true,false,0.0-2.0-0.55-0.501-3.501,1,1,1,90,false,stim,false,2,993.0,1,1,1,42950,WMM1,2191557,false,false,1672,image-keyboard-response,16
true,14,2,0,1,false,z,true,false,0.0-2.0-0.55-0.502-3.502,1,1,1,68,false,stim,false,1,1295.0,1,1,2,42950,WMM1,2194357,false,false,1675,image-keyboard-response,17
true,14,0,0,2,false,d,true,false,0.0-2.0-0.55-0.503-3.503,1,1,1,81,false,stim,false,2,959.0,1,1,1,42950,WMM1,2196822,false,false,1678,image-keyboard-response,18
true,14,1,0,2,false,d,true,false,0.0-2.0-0.56-0.504-3.504,1,1,1,90,false,stim,false,2,1049.0,1,1,1,42950,WMM1,2199376,false,false,1681,image-keyboard-response,19
true,14,2,0,2,true,d,false,true,0.0-2.0-0.56-0.505-3.505,1,1,1,68,false,stim,false,2,568.0,1,1,1,42950,WMM1,2201449,false,false,1684,image-keyboard-response,20
true,14,2,0,1,false,z,true,false,0.0-2.0-0.56-0.506-3.506,1,1,1,68,false,stim,false,1,753.0,1,1,2,42950,WMM1,2203707,false,false,1687,image-keyboard-response,21
true,14,1,0,2,false,d,true,false,0.0-2.0-0.56-0.507-3.507,1,1,1,90,false,stim,false,2,721.0,1,1,1,42950,WMM1,2205935,false,false,1690,image-keyboard-response,22
true,14,0,0,2,false,d,true,true,0.0-2.0-0.56-0.508-3.508,1,1,1,81,false,stim,false,2,1747.0000000004657,1,1,0,42950,WMM1,2209186,false,true,1693,image-keyboard-response,23
true,14,0,0,2,false,d,true,false,0.0-2.0-0.56-0.509-3.509,1,1,1,81,false,stim,false,2,1126.0,1,1,0,42950,WMM1,2211818,false,false,1696,image-keyboard-response,24
true,14,2,0,1,false,z,true,false,0.0-2.0-0.56-0.510-3.510,1,1,1,68,false,stim,false,1,957.0000000004657,1,1,2,42950,WMM1,2214282,false,false,1699,image-keyboard-response,25
true,14,1,0,2,false,d,true,false,0.0-2.0-0.56-0.511-3.511,1,1,1,90,false,stim,false,2,1134.0000000004657,1,1,0,42950,WMM1,2216927,false,false,1702,image-keyboard-response,26
true,14,2,0,1,false,z,true,false,0.0-2.0-0.56-0.512-3.512,1,1,1,68,false,stim,false,1,1080.0000000004657,1,1,2,42950,WMM1,2219514,false,false,1705,image-keyboard-response,27
true,14,0,0,1,false,z,true,false,0.0-2.0-0.57-0.513-3.513,1,1,1,81,false,stim,false,1,1937.0,1,1,2,42950,WMM1,2222956,false,false,1708,image-keyboard-response,28
true,14,1,0,2,false,d,true,false,0.0-2.0-0.57-0.514-3.514,1,1,1,90,false,stim,false,2,1690.0,1,1,0,42950,WMM1,2226152,false,false,1711,image-keyboard-response,29
true,14,2,0,1,false,z,true,false,0.0-2.0-0.57-0.515-3.515,1,1,1,68,false,stim,false,1,778.0000000004657,1,1,2,42950,WMM1,2228435,false,false,1714,image-keyboard-response,30
true,14,0,0,2,false,d,true,false,0.0-2.0-0.57-0.516-3.516,1,1,1,81,false,stim,false,2,1217.0,1,1,1,42950,WMM1,2231159,false,false,1717,image-keyboard-response,31
true,14,0,0,1,false,z,true,false,0.0-2.0-0.57-0.517-3.517,1,1,1,81,false,stim,false,1,2038.0,1,1,2,42950,WMM1,2234701,false,false,1720,image-keyboard-response,32
true,14,1,0,2,false,d,true,false,0.0-2.0-0.57-0.518-3.518,1,1,1,90,false,stim,false,2,1949.0000000004657,1,1,0,42950,WMM1,2238156,false,false,1723,image-keyboard-response,33
true,14,2,0,2,true,d,false,false,0.0-2.0-0.57-0.519-3.519,1,1,1,68,false,stim,false,2,856.0,1,1,1,42950,WMM1,2240518,false,true,1726,image-keyboard-response,34
true,14,0,0,2,false,d,true,false,0.0-2.0-0.57-0.520-3.520,1,1,1,81,false,stim,false,2,1216.0,1,1,0,42950,WMM1,2243241,false,false,1729,image-keyboard-response,35
false,14,-1,0,2,false,d,true,false,0.0-2.0-0.57-0.521-3.521,1,1,1,,false,stim,false,2,,1,1,1,42950,WMM1,2247748,false,false,1732,image-keyboard-response,36
true,14,1,0,2,false,d,true,false,0.0-2.0-0.58-0.522-3.522,1,1,1,90,false,stim,false,2,365.0,1,1,0,42950,WMM1,2249620,false,false,1735,image-keyboard-response,37
true,14,1,0,1,true,z,false,true,0.0-2.0-0.58-0.523-3.523,1,1,1,90,false,stim,false,1,1340.0,1,1,2,42950,WMM1,2252466,false,false,1738,image-keyboard-response,38
true,14,2,0,2,true,d,false,true,0.0-2.0-0.58-0.524-3.524,1,1,1,68,false,stim,false,2,1261.0,1,1,0,42950,WMM1,2255234,false,false,1741,image-keyboard-response,39
true,14,1,0,1,true,z,false,true,0.0-2.0-0.58-0.525-3.525,1,1,1,90,false,stim,false,1,913.0,1,1,2,42950,WMM1,2257653,false,false,1744,image-keyboard-response,40
true,14,0,0,2,false,d,true,false,0.0-2.0-0.58-0.526-3.526,1,1,1,81,false,stim,false,2,788.0,1,1,1,42950,WMM1,2259948,false,false,1747,image-keyboard-response,41
true,14,2,0,2,true,d,false,true,0.0-2.0-0.58-0.527-3.527,1,1,1,68,false,stim,false,2,912.0,1,1,0,42950,WMM1,2262367,false,false,1750,image-keyboard-response,42
true,14,1,0,2,false,d,true,false,0.0-2.0-0.58-0.528-3.528,1,1,1,90,false,stim,false,2,1835.0,1,1,1,42950,WMM1,2265709,false,false,1753,image-keyboard-response,43
true,14,2,0,2,true,d,false,true,0.0-2.0-0.58-0.529-3.529,1,1,1,68,false,stim,false,2,1159.0,1,1,1,42950,WMM1,2268375,false,false,1756,image-keyboard-response,44
true,14,1,0,1,true,z,false,true,0.0-2.0-0.58-0.530-3.530,1,1,1,90,false,stim,false,1,768.0000000004657,1,1,2,42950,WMM1,2270647,false,false,1759,image-keyboard-response,45
true,14,2,0,2,true,d,false,true,0.0-2.0-0.59-0.531-3.531,1,1,1,68,false,stim,false,2,664.0,1,1,1,42950,WMM1,2272818,false,false,1762,image-keyboard-response,46
true,14,1,0,1,true,z,false,true,0.0-2.0-0.59-0.532-3.532,1,1,1,90,false,stim,false,1,890.0000000004657,1,0,2,42950,WMM1,2275215,false,false,1765,image-keyboard-response,47
true,14,2,0,2,true,d,false,true,0.0-2.0-0.59-0.533-3.533,1,1,1,68,false,stim,false,2,700.0,1,0,0,42950,WMM1,2277420,false,false,1768,image-keyboard-response,48
true,14,2,0,2,true,d,false,true,0.0-2.0-0.59-0.534-3.534,1,1,1,68,false,stim,false,2,464.00000000046566,1,0,1,42950,WMM1,2279389,false,false,1771,image-keyboard-response,49
true,14,2,0,2,true,d,false,true,0.0-2.0-0.59-0.535-3.535,1,1,1,68,false,stim,false,2,497.0,1,0,1,42950,WMM1,2281391,false,false,1774,image-keyboard-response,50
true,14,1,0,1,true,z,false,true,0.0-2.0-0.59-0.536-3.536,1,1,1,90,false,stim,false,1,903.0,1,0,2,42950,WMM1,2283799,false,false,1777,image-keyboard-response,51
true,14,2,0,2,true,d,false,true,0.0-2.0-0.59-0.537-3.537,1,1,1,68,false,stim,false,2,665.0,1,0,0,42950,WMM1,2285970,false,false,1780,image-keyboard-response,52
true,14,2,0,2,true,d,false,true,0.0-2.0-0.59-0.538-3.538,1,1,1,68,false,stim,false,2,576.0000000004657,1,0,0,42950,WMM1,2288051,false,false,1783,image-keyboard-response,53
true,14,1,0,1,true,z,false,true,0.0-2.0-0.59-0.539-3.539,1,1,1,90,false,stim,false,1,734.0,1,0,2,42950,WMM1,2290290,false,false,1786,image-keyboard-response,54
true,14,1,0,1,true,z,false,false,0.0-2.0-0.60-0.540-3.540,1,1,1,90,false,stim,false,1,857.0,1,0,2,42950,WMM1,2292653,false,true,1789,image-keyboard-response,55
true,14,2,0,1,false,z,true,false,0.0-2.0-0.60-0.541-3.541,1,1,1,68,false,stim,false,1,666.0,1,0,2,42950,WMM1,2294824,false,false,1792,image-keyboard-response,56
true,15,2,2,1,false,z,false,false,0.0-2.0-0.60-0.542-3.542,0,0,0,68,true,stim,true,2,914.0000000004657,1,0,1,42950,WMM1,2297243,false,false,1795,image-keyboard-response,1
true,15,0,2,1,false,z,true,false,0.0-2.0-0.60-0.543-3.543,0,0,0,81,false,stim,false,2,1747.0,1,0,1,42950,WMM1,2300494,false,false,1798,image-keyboard-response,2
true,15,1,2,0,false,q,true,false,0.0-2.0-0.60-0.544-3.544,0,0,0,90,false,stim,false,2,1122.0000000004657,1,0,0,42950,WMM1,2303127,false,false,1801,image-keyboard-response,3
true,15,2,2,0,false,q,false,false,0.0-2.0-0.60-0.545-3.545,0,0,0,68,false,stim,true,2,632.0,1,0,0,42950,WMM1,2305264,false,false,1804,image-keyboard-response,4
true,15,2,2,1,false,z,false,false,0.0-2.0-0.60-0.546-3.546,0,0,0,68,false,stim,true,2,1206.0,1,0,1,42950,WMM1,2307976,false,false,1807,image-keyboard-response,5
true,15,0,2,0,true,q,false,true,0.0-2.0-0.60-0.547-3.547,0,0,0,81,false,stim,false,2,891.0,1,0,0,42950,WMM1,2310372,false,false,1810,image-keyboard-response,6
true,15,1,2,2,false,d,false,false,0.0-2.0-0.60-0.548-3.548,0,0,0,90,false,stim,true,1,1217.0,1,0,2,42950,WMM1,2313095,false,false,1813,image-keyboard-response,7
true,15,0,2,2,false,d,true,false,0.0-2.0-0.61-0.549-3.549,0,0,0,81,false,stim,false,1,1521.0,1,0,2,42950,WMM1,2316121,false,false,1816,image-keyboard-response,8
true,15,0,2,1,false,z,true,false,0.0-2.0-0.61-0.550-3.550,0,0,0,81,false,stim,false,2,2026.0,1,0,1,42950,WMM1,2319654,false,false,1819,image-keyboard-response,9
true,15,2,2,2,true,d,false,true,0.0-2.0-0.61-0.551-3.551,0,0,0,68,false,stim,false,1,2185.0,1,0,2,42950,WMM1,2323345,false,false,1822,image-keyboard-response,10
true,15,1,2,1,true,z,false,true,0.0-2.0-0.61-0.552-3.552,0,0,0,90,false,stim,false,2,1836.0,1,0,1,42950,WMM1,2326686,false,false,1825,image-keyboard-response,11
true,15,0,2,0,true,q,false,true,0.0-2.0-0.61-0.553-3.553,0,0,0,81,false,stim,false,2,991.0,1,0,0,42950,WMM1,2329183,false,false,1828,image-keyboard-response,12
true,15,0,2,0,true,q,false,true,0.0-2.0-0.61-0.554-3.554,0,0,0,81,false,stim,false,2,745.0,1,0,0,42950,WMM1,2331433,false,false,1831,image-keyboard-response,13
true,15,2,2,2,true,d,false,true,0.0-2.0-0.61-0.555-3.555,0,0,0,68,false,stim,false,1,1026.0,1,0,2,42950,WMM1,2333965,false,false,1834,image-keyboard-response,14
true,15,0,2,0,true,q,false,true,0.0-2.0-0.61-0.556-3.556,0,0,0,81,false,stim,false,2,733.0,1,0,0,42950,WMM1,2336203,false,false,1837,image-keyboard-response,15
true,15,1,2,1,true,z,false,true,0.0-2.0-0.61-0.557-3.557,0,0,0,90,false,stim,false,2,599.0,1,0,1,42950,WMM1,2338307,false,false,1840,image-keyboard-response,16
true,15,2,2,2,true,d,false,true,0.0-2.0-0.62-0.558-3.558,0,0,0,68,false,stim,false,1,564.0,1,0,2,42950,WMM1,2340377,false,false,1843,image-keyboard-response,17
true,15,2,2,2,true,d,false,true,0.0-2.0-0.62-0.559-3.559,0,0,0,68,false,stim,false,1,1003.0,1,0,2,42950,WMM1,2342886,false,false,1846,image-keyboard-response,18
true,15,1,2,1,true,z,false,true,0.0-2.0-0.62-0.560-3.560,0,0,0,90,false,stim,false,2,992.0,1,0,1,42950,WMM1,2345384,false,false,1849,image-keyboard-response,19
true,15,0,2,0,true,q,false,true,0.0-2.0-0.62-0.561-3.561,0,0,0,81,false,stim,false,2,733.0,1,0,0,42950,WMM1,2347622,false,false,1852,image-keyboard-response,20
true,15,1,2,1,true,z,false,true,0.0-2.0-0.62-0.562-3.562,0,0,0,90,false,stim,false,2,553.0,1,0,1,42950,WMM1,2349681,false,false,1855,image-keyboard-response,21
true,15,0,2,0,true,q,false,true,0.0-2.0-0.62-0.563-3.563,0,0,0,81,false,stim,false,2,869.0,1,0,0,42950,WMM1,2352055,false,false,1858,image-keyboard-response,22
true,15,1,2,1,true,z,false,true,0.0-2.0-0.62-0.564-3.564,0,0,0,90,false,stim,false,2,688.0,1,0,1,42950,WMM1,2354249,false,false,1861,image-keyboard-response,23
true,15,0,2,0,true,q,false,true,0.0-2.0-0.62-0.565-3.565,0,0,0,81,false,stim,false,2,791.0,1,0,0,42950,WMM1,2356544,false,false,1864,image-keyboard-response,24
true,15,2,2,2,true,d,false,true,0.0-2.0-0.62-0.566-3.566,0,0,0,68,false,stim,false,1,968.9999999995343,1,0,2,42950,WMM1,2359019,false,false,1867,image-keyboard-response,25
true,15,1,2,1,true,z,false,true,0.0-2.0-0.63-0.567-3.567,0,0,0,90,false,stim,false,2,936.0,1,0,1,42950,WMM1,2361461,false,false,1870,image-keyboard-response,26
true,15,2,2,2,true,d,false,true,0.0-2.0-0.63-0.568-3.568,0,0,0,68,false,stim,false,1,767.0000000004657,1,0,2,42950,WMM1,2363733,false,false,1873,image-keyboard-response,27
true,15,0,2,0,true,q,false,true,0.0-2.0-0.63-0.569-3.569,0,0,0,81,false,stim,false,2,970.0,1,0,0,42950,WMM1,2366208,false,false,1876,image-keyboard-response,28
true,15,1,2,1,true,z,false,true,0.0-2.0-0.63-0.570-3.570,0,0,0,90,false,stim,false,2,609.9999999995343,1,0,1,42950,WMM1,2368323,false,false,1879,image-keyboard-response,29
true,15,1,2,1,true,z,false,true,0.0-2.0-0.63-0.571-3.571,0,0,0,90,false,stim,false,2,676.9999999995343,1,0,1,42950,WMM1,2370506,false,false,1882,image-keyboard-response,30
true,16,0,1,2,false,d,false,false,0.0-2.0-0.63-0.572-3.572,0,0,0,81,true,stim,true,0,891.0,1,0,0,42950,WMM1,2372902,false,false,1885,image-keyboard-response,1
true,16,2,1,0,false,q,false,false,0.0-2.0-0.63-0.573-3.573,0,0,0,68,false,stim,true,2,1207.0,1,0,2,42950,WMM1,2375614,false,false,1888,image-keyboard-response,2
true,16,0,1,0,true,q,false,true,0.0-2.0-0.63-0.574-3.574,0,0,0,81,false,stim,false,2,993.0,1,0,2,42950,WMM1,2378111,false,false,1891,image-keyboard-response,3
true,16,1,1,2,false,d,true,false,0.0-2.0-0.63-0.575-3.575,0,0,0,90,false,stim,false,0,2038.0,1,0,0,42950,WMM1,2381655,false,false,1894,image-keyboard-response,4
true,16,1,1,2,false,d,false,false,0.0-2.0-0.64-0.576-3.576,0,0,0,90,false,stim,true,1,2567.0,1,0,1,42950,WMM1,2385728,false,false,1897,image-keyboard-response,5
true,16,0,1,0,true,q,false,false,0.0-2.0-0.64-0.577-3.577,0,0,0,81,false,stim,false,2,1385.0,1,0,2,42950,WMM1,2388619,false,true,1900,image-keyboard-response,6
true,16,2,1,2,true,d,false,true,0.0-2.0-0.64-0.578-3.578,0,0,0,68,false,stim,false,1,741.0,1,0,1,42950,WMM1,2390869,false,false,1903,image-keyboard-response,7
true,16,0,1,0,true,q,false,true,0.0-2.0-0.64-0.579-3.579,0,0,0,81,false,stim,false,2,993.0,1,0,2,42950,WMM1,2393367,false,false,1906,image-keyboard-response,8
true,16,2,1,2,true,d,false,false,0.0-2.0-0.64-0.580-3.580,0,0,0,68,false,stim,false,1,1240.0,1,0,1,42950,WMM1,2396112,false,true,1909,image-keyboard-response,9
true,16,2,1,2,true,d,false,true,0.0-2.0-0.64-0.581-3.581,0,0,0,68,false,stim,false,0,1127.9999999995343,1,0,0,42950,WMM1,2398744,false,false,1912,image-keyboard-response,10
true,16,2,1,2,true,d,false,false,0.0-2.0-0.64-0.582-3.582,0,0,0,68,false,stim,false,0,2142.0,1,0,0,42950,WMM1,2402390,false,true,1915,image-keyboard-response,11
true,16,1,1,0,false,q,true,false,0.0-2.0-0.64-0.583-3.583,0,0,0,90,false,stim,false,2,1713.0000000004657,1,0,2,42950,WMM1,2405607,false,false,1918,image-keyboard-response,12
true,16,0,1,2,false,d,false,false,0.0-2.0-0.64-0.584-3.584,0,0,0,81,false,stim,true,0,1488.0,1,0,0,42950,WMM1,2408601,false,false,1921,image-keyboard-response,13
true,16,1,1,2,false,d,true,false,0.0-2.0-0.65-0.585-3.585,0,0,0,90,false,stim,false,0,654.0,1,0,0,42950,WMM1,2410760,false,false,1924,image-keyboard-response,14
true,16,2,1,2,true,d,false,true,0.0-2.0-0.65-0.586-3.586,0,0,0,68,false,stim,false,0,475.0,1,0,0,42950,WMM1,2412740,false,false,1927,image-keyboard-response,15
true,16,2,1,2,true,d,false,true,0.0-2.0-0.65-0.587-3.587,0,0,0,68,false,stim,false,0,868.0,1,0,0,42950,WMM1,2415114,false,false,1930,image-keyboard-response,16
true,16,1,1,0,false,q,true,false,0.0-2.0-0.65-0.588-3.588,0,0,0,90,false,stim,false,2,926.0,1,0,2,42950,WMM1,2417545,false,false,1933,image-keyboard-response,17
true,16,0,1,0,true,q,false,true,0.0-2.0-0.65-0.589-3.589,0,0,0,81,false,stim,false,2,712.0,1,0,2,42950,WMM1,2419760,false,false,1936,image-keyboard-response,18
true,16,1,1,2,false,d,false,false,0.0-2.0-0.65-0.590-3.590,0,0,0,90,false,stim,true,1,1521.0,1,0,1,42950,WMM1,2422787,false,false,1939,image-keyboard-response,19
true,16,2,1,2,true,d,false,true,0.0-2.0-0.65-0.591-3.591,0,0,0,68,false,stim,false,1,1611.0,1,0,1,42950,WMM1,2425903,false,false,1942,image-keyboard-response,20
true,16,2,1,0,false,q,false,false,0.0-2.0-0.65-0.592-3.592,0,0,0,68,false,stim,true,2,1599.0,1,0,2,42950,WMM1,2429008,false,false,1945,image-keyboard-response,21
true,16,2,1,2,true,d,false,true,0.0-2.0-0.65-0.593-3.593,0,0,0,68,false,stim,false,1,2116.0,1,0,1,42950,WMM1,2432631,false,false,1948,image-keyboard-response,22
true,16,0,1,0,true,q,false,false,0.0-2.0-0.66-0.594-3.594,0,0,0,81,false,stim,false,2,888.0,1,0,2,42950,WMM1,2435027,false,true,1951,image-keyboard-response,23
true,16,2,1,2,true,d,false,true,0.0-2.0-0.66-0.595-3.595,0,0,0,68,false,stim,false,1,935.0,1,0,1,42950,WMM1,2437468,false,false,1954,image-keyboard-response,24
true,16,2,1,2,true,d,false,true,0.0-2.0-0.66-0.596-3.596,0,0,0,68,false,stim,false,1,485.0,1,0,1,42950,WMM1,2439460,false,false,1957,image-keyboard-response,25
true,16,1,1,0,false,q,true,false,0.0-2.0-0.66-0.597-3.597,0,0,0,90,false,stim,false,2,914.0,1,0,2,42950,WMM1,2441879,false,false,1960,image-keyboard-response,26
true,16,2,1,2,true,d,false,true,0.0-2.0-0.66-0.598-3.598,0,0,0,68,false,stim,false,1,970.0,1,0,1,42950,WMM1,2444354,false,false,1963,image-keyboard-response,27
true,16,2,1,2,true,d,false,true,0.0-2.0-0.66-0.599-3.599,0,0,0,68,false,stim,false,0,767.0,1,0,0,42950,WMM1,2446626,false,false,1966,image-keyboard-response,28
true,16,0,1,0,true,q,false,true,0.0-2.0-0.66-0.600-3.600,0,0,0,81,false,stim,false,2,912.0,1,0,2,42950,WMM1,2449045,false,false,1969,image-keyboard-response,29
true,16,2,1,2,true,d,false,true,0.0-2.0-0.66-0.601-3.601,0,0,0,68,false,stim,false,0,576.0,1,0,0,42950,WMM1,2451126,false,false,1972,image-keyboard-response,30
true,16,2,1,2,true,d,false,true,0.0-2.0-0.66-0.602-3.602,0,0,0,68,false,stim,false,0,674.0,1,0,0,42950,WMM1,2453309,false,false,1975,image-keyboard-response,31
true,16,0,1,0,true,q,false,true,0.0-2.0-0.67-0.603-3.603,0,0,0,81,false,stim,false,2,696.9999999995343,1,0,2,42950,WMM1,2455514,false,false,1978,image-keyboard-response,32
true,16,0,1,2,false,d,true,false,0.0-2.0-0.67-0.604-3.604,0,0,0,81,false,stim,false,1,563.0,1,0,1,42950,WMM1,2457584,false,false,1981,image-keyboard-response,33
true,16,2,1,2,true,d,false,true,0.0-2.0-0.67-0.605-3.605,0,0,0,68,false,stim,false,1,745.0,1,0,1,42950,WMM1,2459834,false,false,1984,image-keyboard-response,34
true,16,0,1,0,true,q,false,true,0.0-2.0-0.67-0.606-3.606,0,0,0,81,false,stim,false,2,756.0000000004657,1,0,2,42950,WMM1,2462096,false,false,1987,image-keyboard-response,35
true,16,2,1,2,true,d,false,true,0.0-2.0-0.67-0.607-3.607,0,0,0,68,false,stim,false,0,689.0,1,0,0,42950,WMM1,2464289,false,false,1990,image-keyboard-response,36
true,16,2,1,2,true,d,false,true,0.0-2.0-0.67-0.608-3.608,0,0,0,68,false,stim,false,1,600.0,1,0,1,42950,WMM1,2466393,false,false,1993,image-keyboard-response,37
true,16,2,1,2,true,d,false,true,0.0-2.0-0.67-0.609-3.609,0,0,0,68,false,stim,false,0,711.0,1,0,0,42950,WMM1,2468610,false,false,1996,image-keyboard-response,38
true,16,2,1,2,true,d,false,true,0.0-2.0-0.67-0.610-3.610,0,0,0,68,false,stim,false,0,452.00000000046566,1,0,0,42950,WMM1,2470567,false,false,1999,image-keyboard-response,39
true,16,0,1,0,true,q,false,true,0.0-2.0-0.67-0.611-3.611,0,0,0,81,false,stim,false,2,750.9999999995343,1,0,2,42950,WMM1,2472829,false,false,2002,image-keyboard-response,40
true,16,0,1,0,true,q,false,true,0.0-2.0-0.68-0.612-3.612,0,0,0,81,false,stim,false,2,643.0,1,0,2,42950,WMM1,2474977,false,false,2005,image-keyboard-response,41
true,16,0,1,0,true,q,false,true,0.0-2.0-0.68-0.613-3.613,0,0,0,81,false,stim,false,2,508.0,1,0,2,42950,WMM1,2476991,false,false,2008,image-keyboard-response,42
true,17,2,2,1,false,z,false,false,0.0-2.0-0.68-0.614-3.614,0,0,0,68,true,stim,true,2,1197.0000000004657,1,0,1,42950,WMM1,2479691,false,false,2011,image-keyboard-response,1
true,17,2,2,0,false,q,false,false,0.0-2.0-0.68-0.615-3.615,0,0,0,68,false,stim,true,2,621.0,1,0,0,42950,WMM1,2481818,false,false,2014,image-keyboard-response,2
