answered,blockNum,choice,condition,corResp,correct,correct_response,explo,fb,internal_node_id,isStable_1,isStable_2,isStable_3,key_press,newBlock,part,persev,persevResp,rt,sessNum,stableAS,stimulus,subject,task,time_elapsed,training,trap,trial_index,trial_type,trialsInBlock
false,1,-1,0,0,false,q,false,true,0.0-2.0-0.0-0.0-3.0,0,0,0,,true,stim,true,-1,,0,0,2,42950,WMM1,631703,false,true,440,image-keyboard-response,1
false,1,-1,0,0,false,q,false,false,0.0-2.0-0.0-0.1-3.1,0,0,0,,false,stim,true,-1,,0,0,0,42950,WMM1,636213,false,false,443,image-keyboard-response,2
true,1,1,0,0,false,q,true,false,0.0-2.0-0.0-0.2-3.2,0,0,0,90,false,stim,false,-1,589.0000000001164,0,0,2,42950,WMM1,638311,false,false,446,image-keyboard-response,3
true,1,0,0,0,true,q,false,true,0.0-2.0-0.0-0.3-3.3,0,0,0,81,false,stim,false,-1,1168.0,0,0,2,42950,WMM1,640988,false,false,449,image-keyboard-response,4
true,1,1,0,1,true,z,false,true,0.0-2.0-0.0-0.4-3.4,0,0,0,90,false,stim,false,-1,2081.0,0,0,1,42950,WMM1,644577,false,false,452,image-keyboard-response,5
true,1,1,0,1,true,z,false,true,0.0-2.0-0.0-0.5-3.5,0,0,0,90,false,stim,false,-1,831.0,0,0,1,42950,WMM1,646918,false,false,455,image-keyboard-response,6
true,1,1,0,0,false,q,true,false,0.0-2.0-0.0-0.6-3.6,0,0,0,90,false,stim,false,-1,1899.0,0,0,0,42950,WMM1,650326,false,false,458,image-keyboard-response,7
true,1,1,0,1,true,z,false,false,0.0-2.0-0.0-0.7-3.7,0,0,0,90,false,stim,false,-1,843.0,0,0,1,42950,WMM1,652677,false,true,461,image-keyboard-response,8
true,1,1,0,0,false,q,true,false,0.0-2.0-0.0-0.8-3.8,0,0,0,90,false,stim,false,-1,1742.9999999998836,0,0,0,42950,WMM1,655929,false,false,464,image-keyboard-response,9
true,1,2,0,0,false,q,true,false,0.0-2.0-0.1-0.9-3.9,0,0,0,68,false,stim,false,-1,2518.0,0,0,0,42950,WMM1,659957,false,false,467,image-keyboard-response,10
true,1,1,0,1,true,z,false,false,0.0-2.0-0.1-0.10-3.10,0,0,0,90,false,stim,false,-1,2000.0,0,0,1,42950,WMM1,663466,false,true,470,image-keyboard-response,11
true,1,0,0,1,false,z,true,true,0.0-2.0-0.1-0.11-3.11,0,0,0,81,false,stim,false,-1,472.0,0,0,1,42950,WMM1,665446,false,true,473,image-keyboard-response,12
true,1,0,0,1,false,z,true,false,0.0-2.0-0.1-0.12-3.12,0,0,0,81,false,stim,false,-1,662.0,0,0,1,42950,WMM1,667617,false,false,476,image-keyboard-response,13
true,1,1,0,0,false,q,true,false,0.0-2.0-0.1-0.13-3.13,0,0,0,90,false,stim,false,-1,1597.0000000001164,0,0,2,42950,WMM1,670723,false,false,479,image-keyboard-response,14
true,1,0,0,0,true,q,false,true,0.0-2.0-0.1-0.14-3.14,0,0,0,81,false,stim,false,-1,1652.0,0,0,2,42950,WMM1,673884,false,false,482,image-keyboard-response,15
true,1,0,0,0,true,q,false,true,0.0-2.0-0.1-0.15-3.15,0,0,0,81,false,stim,false,-1,1822.0,0,0,0,42950,WMM1,677214,false,false,485,image-keyboard-response,16
true,1,0,0,0,true,q,false,true,0.0-2.0-0.1-0.16-3.16,0,0,0,81,false,stim,false,-1,1156.9999999998836,0,0,0,42950,WMM1,679880,false,false,488,image-keyboard-response,17
true,1,0,0,0,true,q,false,true,0.0-2.0-0.1-0.17-3.17,0,0,0,81,false,stim,false,-1,830.0,0,0,2,42950,WMM1,682220,false,false,491,image-keyboard-response,18
false,1,-1,0,1,false,z,false,false,0.0-2.0-0.2-0.18-3.18,0,0,0,,false,stim,true,-1,,0,0,1,42950,WMM1,686732,false,false,494,image-keyboard-response,19
true,1,0,0,0,true,q,false,true,0.0-2.0-0.2-0.19-3.19,0,0,0,81,false,stim,false,-1,889.0,0,0,0,42950,WMM1,689129,false,false,497,image-keyboard-response,20
true,1,0,0,0,true,q,false,true,0.0-2.0-0.2-0.20-3.20,0,0,0,81,false,stim,false,-1,706.0,0,0,0,42950,WMM1,691345,false,false,500,image-keyboard-response,21
true,1,0,0,0,true,q,false,true,0.0-2.0-0.2-0.21-3.21,0,0,0,81,false,stim,false,-1,797.0000000001164,0,0,2,42950,WMM1,693651,false,false,503,image-keyboard-response,22
true,1,1,0,1,true,z,false,true,0.0-2.0-0.2-0.22-3.22,0,0,0,90,false,stim,false,-1,618.0,0,0,1,42950,WMM1,695778,false,false,506,image-keyboard-response,23
true,1,0,0,0,true,q,false,true,0.0-2.0-0.2-0.23-3.23,0,0,0,81,false,stim,false,-1,1493.0000000001164,0,0,2,42950,WMM1,698781,false,false,509,image-keyboard-response,24
true,1,0,0,0,true,q,false,false,0.0-2.0-0.2-0.24-3.24,0,0,0,81,false,stim,false,-1,527.0,0,0,2,42950,WMM1,700817,false,true,512,image-keyboard-response,25
true,1,0,0,1,false,z,true,false,0.0-2.0-0.2-0.25-3.25,0,0,0,81,false,stim,false,-1,1146.0,0,0,1,42950,WMM1,703472,false,false,515,image-keyboard-response,26
true,1,1,0,0,false,q,true,false,0.0-2.0-0.2-0.26-3.26,0,0,0,90,false,stim,false,-1,1686.0,0,0,0,42950,WMM1,706668,false,false,518,image-keyboard-response,27
true,1,0,0,0,true,q,false,true,0.0-2.0-0.3-0.27-3.27,0,0,0,81,false,stim,false,-1,987.0,0,0,2,42950,WMM1,709165,false,false,521,image-keyboard-response,28
true,1,1,0,1,true,z,false,true,0.0-2.0-0.3-0.28-3.28,0,0,0,90,false,stim,false,-1,2588.0,0,0,1,42950,WMM1,713261,false,false,524,image-keyboard-response,29
true,1,0,0,0,true,q,false,true,0.0-2.0-0.3-0.29-3.29,0,0,0,81,false,stim,false,-1,874.0,0,0,0,42950,WMM1,715645,false,false,527,image-keyboard-response,30
true,1,1,0,1,true,z,false,true,0.0-2.0-0.3-0.30-3.30,0,0,0,90,false,stim,false,-1,677.0000000001164,0,0,1,42950,WMM1,717828,false,false,530,image-keyboard-response,31
true,1,0,0,1,false,z,true,false,0.0-2.0-0.3-0.31-3.31,0,0,0,81,false,stim,false,-1,1213.0,0,0,1,42950,WMM1,720550,false,false,533,image-keyboard-response,32
true,1,1,0,0,false,q,true,false,0.0-2.0-0.3-0.32-3.32,0,0,0,90,false,stim,false,-1,740.0,0,0,0,42950,WMM1,722800,false,false,536,image-keyboard-response,33
true,1,0,0,0,true,q,false,true,0.0-2.0-0.3-0.33-3.33,0,0,0,81,false,stim,false,-1,1461.9999999998836,0,0,2,42950,WMM1,725771,false,false,539,image-keyboard-response,34
true,1,0,0,0,true,q,false,true,0.0-2.0-0.3-0.34-3.34,0,0,0,81,false,stim,false,-1,1167.0000000001164,0,0,0,42950,WMM1,728448,false,false,542,image-keyboard-response,35
true,1,0,0,0,true,q,false,true,0.0-2.0-0.3-0.35-3.35,0,0,0,81,false,stim,false,-1,833.0,0,0,2,42950,WMM1,730789,false,false,545,image-keyboard-response,36
true,1,1,0,1,true,z,false,true,0.0-2.0-0.4-0.36-3.36,0,0,0,90,false,stim,false,-1,1548.9999999998836,0,0,1,42950,WMM1,733848,false,false,548,image-keyboard-response,37
true,1,1,0,1,true,z,false,true,0.0-2.0-0.4-0.37-3.37,0,0,0,90,false,stim,false,-1,775.0,0,0,1,42950,WMM1,736133,false,false,551,image-keyboard-response,38
true,1,0,0,0,true,q,false,false,0.0-2.0-0.4-0.38-3.38,0,0,0,81,false,stim,false,-1,1022.0,0,0,2,42950,WMM1,738663,false,true,554,image-keyboard-response,39
true,1,0,0,0,true,q,false,true,0.0-2.0-0.4-0.39-3.39,0,0,0,81,false,stim,false,-1,2103.0,0,0,0,42950,WMM1,742276,false,false,557,image-keyboard-response,40
true,1,1,0,0,false,q,true,false,0.0-2.0-0.4-0.40-3.40,0,0,0,90,false,stim,false,-1,1753.0,0,0,2,42950,WMM1,745538,false,false,560,image-keyboard-response,41
true,1,2,0,0,false,q,true,false,0.0-2.0-0.4-0.41-3.41,0,0,0,68,false,stim,false,-1,2066.9999999998836,0,0,0,42950,WMM1,749116,false,false,563,image-keyboard-response,42
true,1,2,0,0,false,q,true,false,0.0-2.0-0.4-0.42-3.42,0,0,0,68,false,stim,false,-1,1833.0,0,0,2,42950,WMM1,752456,false,false,566,image-keyboard-response,43
true,1,0,0,1,false,z,true,false,0.0-2.0-0.4-0.43-3.43,0,0,0,81,false,stim,false,-1,1393.0,0,0,1,42950,WMM1,755359,false,false,569,image-keyboard-response,44
true,1,0,0,0,true,q,false,true,0.0-2.0-0.4-0.44-3.44,0,0,0,81,false,stim,false,-1,662.0,0,0,0,42950,WMM1,757530,false,false,572,image-keyboard-response,45
true,1,2,0,1,false,z,true,false,0.0-2.0-0.5-0.45-3.45,0,0,0,68,false,stim,false,-1,662.0,0,0,1,42950,WMM1,759702,false,false,575,image-keyboard-response,46
true,1,0,0,0,true,q,false,true,0.0-2.0-0.5-0.46-3.46,0,0,0,81,false,stim,false,-1,2260.0,0,0,0,42950,WMM1,763470,false,false,578,image-keyboard-response,47
true,1,1,0,1,true,z,false,true,0.0-2.0-0.5-0.47-3.47,0,0,0,90,false,stim,false,-1,481.0,0,0,1,42950,WMM1,765462,false,false,581,image-keyboard-response,48
true,1,2,0,0,false,q,true,false,0.0-2.0-0.5-0.48-3.48,0,0,0,68,false,stim,false,-1,2429.0000000001164,0,0,2,42950,WMM1,769399,false,false,584,image-keyboard-response,49
true,1,0,0,0,true,q,false,false,0.0-2.0-0.5-0.49-3.49,0,0,0,81,false,stim,false,-1,1911.0,0,0,0,42950,WMM1,772819,false,true,587,image-keyboard-response,50
true,2,0,1,2,false,d,true,false,0.0-2.0-0.5-0.50-3.50,0,0,0,81,true,stim,false,1,1213.0,0,0,1,42950,WMM1,775542,false,false,590,image-keyboard-response,1
true,2,0,1,2,false,d,false,false,0.0-2.0-0.5-0.51-3.51,0,0,0,81,false,stim,true,0,1922.0,0,0,2,42950,WMM1,778973,false,false,593,image-keyboard-response,2
true,2,1,1,2,false,d,true,false,0.0-2.0-0.5-0.52-3.52,0,0,0,90,false,stim,false,0,988.0000000001164,0,0,2,42950,WMM1,781471,false,false,596,image-keyboard-response,3
false,2,-1,1,1,false,z,true,false,0.0-2.0-0.5-0.53-3.53,0,0,0,,false,stim,false,0,,0,0,0,42950,WMM1,785981,false,false,599,image-keyboard-response,4
true,2,1,1,1,true,z,false,true,0.0-2.0-0.6-0.54-3.54,0,0,0,90,false,stim,false,0,1326.0,0,0,0,42950,WMM1,788817,false,false,602,image-keyboard-response,5
true,2,1,1,2,false,d,false,false,0.0-2.0-0.6-0.55-3.55,0,0,0,90,false,stim,true,1,673.0,0,0,1,42950,WMM1,791000,false,false,605,image-keyboard-response,6
true,2,1,1,1,true,z,false,true,0.0-2.0-0.6-0.56-3.56,0,0,0,90,false,stim,false,0,583.0,0,0,0,42950,WMM1,793093,false,false,608,image-keyboard-response,7
true,2,0,1,2,false,d,false,false,0.0-2.0-0.6-0.57-3.57,0,0,0,81,false,stim,true,0,1326.0000000001164,0,0,2,42950,WMM1,795928,false,false,611,image-keyboard-response,8
false,2,-1,1,2,false,d,true,true,0.0-2.0-0.6-0.58-3.58,0,0,0,,false,stim,false,1,,0,0,1,42950,WMM1,800439,false,true,614,image-keyboard-response,9
false,2,-1,1,2,false,d,true,false,0.0-2.0-0.6-0.59-3.59,0,0,0,,false,stim,false,0,,0,0,2,42950,WMM1,804953,false,false,617,image-keyboard-response,10
true,2,1,1,1,true,z,false,true,0.0-2.0-0.6-0.60-3.60,0,0,0,90,false,stim,false,0,987.0,0,0,0,42950,WMM1,807449,false,false,620,image-keyboard-response,11
true,2,2,1,2,true,d,false,true,0.0-2.0-0.6-0.61-3.61,0,0,0,68,false,stim,false,1,1470.0,0,0,1,42950,WMM1,810429,false,false,623,image-keyboard-response,12
true,2,2,1,2,true,d,false,true,0.0-2.0-0.6-0.62-3.62,0,0,0,68,false,stim,false,0,1134.0,0,0,2,42950,WMM1,813074,false,false,626,image-keyboard-response,13
true,2,1,1,1,true,z,false,true,0.0-2.0-0.7-0.63-3.63,0,0,0,90,false,stim,false,0,772.0,0,0,0,42950,WMM1,815357,false,false,629,image-keyboard-response,14
true,2,1,1,1,true,z,false,true,0.0-2.0-0.7-0.64-3.64,0,0,0,90,false,stim,false,0,944.0,0,0,0,42950,WMM1,817810,false,false,632,image-keyboard-response,15
true,2,2,1,2,true,d,false,true,0.0-2.0-0.7-0.65-3.65,0,0,0,68,false,stim,false,1,897.0,0,0,1,42950,WMM1,820217,false,false,635,image-keyboard-response,16
true,2,2,1,2,true,d,false,true,0.0-2.0-0.7-0.66-3.66,0,0,0,68,false,stim,false,0,426.0000000001164,0,0,2,42950,WMM1,822153,false,false,638,image-keyboard-response,17
true,2,1,1,1,true,z,false,true,0.0-2.0-0.7-0.67-3.67,0,0,0,90,false,stim,false,0,492.0,0,0,0,42950,WMM1,824155,false,false,641,image-keyboard-response,18
true,2,2,1,2,true,d,false,true,0.0-2.0-0.7-0.68-3.68,0,0,0,68,false,stim,false,0,988.0000000001164,0,0,2,42950,WMM1,826653,false,false,644,image-keyboard-response,19
true,2,2,1,2,true,d,false,true,0.0-2.0-0.7-0.69-3.69,0,0,0,68,false,stim,false,1,942.0000000001164,0,0,1,42950,WMM1,829105,false,false,647,image-keyboard-response,20
true,2,2,1,2,true,d,false,true,0.0-2.0-0.7-0.70-3.70,0,0,0,68,false,stim,false,1,594.0,0,0,1,42950,WMM1,831209,false,false,650,image-keyboard-response,21
true,2,2,1,2,true,d,false,true,0.0-2.0-0.7-0.71-3.71,0,0,0,68,false,stim,false,0,1762.9999999998836,0,0,2,42950,WMM1,834483,false,false,653,image-keyboard-response,22
true,2,1,1,1,true,z,false,false,0.0-2.0-0.8-0.72-3.72,0,0,0,90,false,stim,false,0,536.0,0,0,0,42950,WMM1,836531,false,true,656,image-keyboard-response,23
false,2,-1,1,1,false,z,true,false,0.0-2.0-0.8-0.73-3.73,0,0,0,,false,stim,false,0,,0,0,0,42950,WMM1,841042,false,false,659,image-keyboard-response,24
true,2,2,1,2,true,d,false,true,0.0-2.0-0.8-0.74-3.74,0,0,0,68,false,stim,false,1,840.0000000001164,0,0,1,42950,WMM1,843393,false,false,662,image-keyboard-response,25
true,2,2,1,1,false,z,true,false,0.0-2.0-0.8-0.75-3.75,0,0,0,68,false,stim,false,0,841.9999999998836,0,0,0,42950,WMM1,845745,false,false,665,image-keyboard-response,26
true,2,2,1,2,true,d,false,true,0.0-2.0-0.8-0.76-3.76,0,0,0,68,false,stim,false,1,817.0,0,0,1,42950,WMM1,848073,false,false,668,image-keyboard-response,27
true,2,2,1,2,true,d,false,true,0.0-2.0-0.8-0.77-3.77,0,0,0,68,false,stim,false,0,1573.0,0,0,2,42950,WMM1,851156,false,false,671,image-keyboard-response,28
true,2,2,1,2,true,d,false,true,0.0-2.0-0.8-0.78-3.78,0,0,0,68,false,stim,false,0,999.0,0,0,2,42950,WMM1,853664,false,false,674,image-keyboard-response,29
true,2,1,1,2,false,d,false,false,0.0-2.0-0.8-0.79-3.79,0,0,0,90,false,stim,true,1,572.0,0,0,1,42950,WMM1,855746,false,false,677,image-keyboard-response,30
true,3,2,1,0,false,q,false,false,0.0-2.0-0.8-0.80-3.80,0,0,0,68,true,stim,true,2,1292.0,0,0,2,42950,WMM1,858547,false,false,680,image-keyboard-response,1
true,3,0,1,0,true,q,false,true,0.0-2.0-0.9-0.81-3.81,0,0,0,81,false,stim,false,2,1685.9999999998836,0,0,2,42950,WMM1,861743,false,false,683,image-keyboard-response,2
true,3,2,1,2,true,d,false,true,0.0-2.0-0.9-0.82-3.82,0,0,0,68,false,stim,false,1,1043.0,0,0,0,42950,WMM1,864296,false,false,686,image-keyboard-response,3
true,3,0,1,0,true,q,false,true,0.0-2.0-0.9-0.83-3.83,0,0,0,81,false,stim,false,2,573.0000000001164,0,0,2,42950,WMM1,866378,false,false,689,image-keyboard-response,4
true,3,2,1,2,true,d,false,true,0.0-2.0-0.9-0.84-3.84,0,0,0,68,false,stim,false,1,795.0,0,0,0,42950,WMM1,868683,false,false,692,image-keyboard-response,5
true,3,0,1,1,false,z,true,false,0.0-2.0-0.9-0.85-3.85,0,0,0,81,false,stim,false,2,1832.0,0,0,1,42950,WMM1,872026,false,false,695,image-keyboard-response,6
true,3,2,1,0,false,q,false,false,0.0-2.0-0.9-0.86-3.86,0,0,0,68,false,stim,true,2,829.0,0,0,2,42950,WMM1,874365,false,false,698,image-keyboard-response,7
false,3,-1,1,1,false,z,true,false,0.0-2.0-0.9-0.87-3.87,0,0,0,,false,stim,false,2,,0,0,1,42950,WMM1,878876,false,false,701,image-keyboard-response,8
true,3,1,1,1,true,z,false,true,0.0-2.0-0.9-0.88-3.88,0,0,0,90,false,stim,false,2,1438.0000000001164,0,0,1,42950,WMM1,881825,false,false,704,image-keyboard-response,9
true,3,0,1,2,false,d,true,true,0.0-2.0-0.9-0.89-3.89,0,0,0,81,false,stim,false,1,2651.0,0,0,0,42950,WMM1,885987,false,true,707,image-keyboard-response,10
true,3,0,1,2,false,d,true,false,0.0-2.0-0.10-0.90-3.90,0,0,0,81,false,stim,false,1,918.0,0,0,0,42950,WMM1,888417,false,false,710,image-keyboard-response,11
true,3,1,1,2,false,d,false,false,0.0-2.0-0.10-0.91-3.91,0,0,0,90,false,stim,true,1,1145.0,0,0,0,42950,WMM1,891072,false,false,713,image-keyboard-response,12
true,3,2,1,0,false,q,false,false,0.0-2.0-0.10-0.92-3.92,0,0,0,68,false,stim,true,2,1111.0,0,0,2,42950,WMM1,893694,false,false,716,image-keyboard-response,13
true,3,0,1,1,false,z,true,false,0.0-2.0-0.10-0.93-3.93,0,0,0,81,false,stim,false,2,514.0,0,0,1,42950,WMM1,895718,false,false,719,image-keyboard-response,14
true,3,1,1,0,false,q,true,false,0.0-2.0-0.10-0.94-3.94,0,0,0,90,false,stim,false,2,772.9999999998836,0,0,2,42950,WMM1,898002,false,false,722,image-keyboard-response,15
true,3,2,1,0,false,q,false,false,0.0-2.0-0.10-0.95-3.95,0,0,0,68,false,stim,true,2,402.0,0,0,2,42950,WMM1,899914,false,false,725,image-keyboard-response,16
true,3,0,1,1,false,z,true,false,0.0-2.0-0.10-0.96-3.96,0,0,0,81,false,stim,false,2,2439.0,0,0,1,42950,WMM1,903863,false,false,728,image-keyboard-response,17
true,3,2,1,1,false,z,false,false,0.0-2.0-0.10-0.97-3.97,0,0,0,68,false,stim,true,2,503.0000000001164,0,0,1,42950,WMM1,905877,false,false,731,image-keyboard-response,18
true,3,2,1,2,true,d,false,true,0.0-2.0-0.10-0.98-3.98,0,0,0,68,false,stim,false,1,1200.0000000001164,0,0,0,42950,WMM1,908588,false,false,734,image-keyboard-response,19
true,3,1,1,1,true,z,false,true,0.0-2.0-0.11-0.99-3.99,0,0,0,90,false,stim,false,2,695.0,0,0,1,42950,WMM1,910794,false,false,737,image-keyboard-response,20
true,3,2,1,2,true,d,false,true,0.0-2.0-0.11-0.100-3.100,0,0,0,68,false,stim,false,1,479.9999999998836,0,0,0,42950,WMM1,912785,false,false,740,image-keyboard-response,21
true,3,2,1,2,true,d,false,true,0.0-2.0-0.11-0.101-3.101,0,0,0,68,false,stim,false,1,637.0,0,0,0,42950,WMM1,914934,false,false,743,image-keyboard-response,22
true,3,0,1,0,true,q,false,true,0.0-2.0-0.11-0.102-3.102,0,0,0,81,false,stim,false,2,919.0,0,0,2,42950,WMM1,917364,false,false,746,image-keyboard-response,23
true,3,1,1,1,true,z,false,true,0.0-2.0-0.11-0.103-3.103,0,0,0,90,false,stim,false,2,963.0,0,0,1,42950,WMM1,919839,false,false,749,image-keyboard-response,24
true,3,0,1,0,true,q,false,true,0.0-2.0-0.11-0.104-3.104,0,0,0,81,false,stim,false,2,1426.0000000001164,0,0,2,42950,WMM1,922776,false,false,752,image-keyboard-response,25
true,3,1,1,1,true,z,false,true,0.0-2.0-0.11-0.105-3.105,0,0,0,90,false,stim,false,2,1131.0,0,1,1,42950,WMM1,925419,false,false,755,image-keyboard-response,26
true,3,0,1,0,true,q,false,true,0.0-2.0-0.11-0.106-3.106,0,0,0,81,false,stim,false,2,1438.0000000001164,0,0,2,42950,WMM1,928367,false,false,758,image-keyboard-response,27
true,3,2,1,2,true,d,false,false,0.0-2.0-0.11-0.107-3.107,0,0,0,68,false,stim,false,1,671.0,0,0,0,42950,WMM1,930549,false,true,761,image-keyboard-response,28
true,3,1,1,2,false,d,false,false,0.0-2.0-0.12-0.108-3.108,0,0,0,90,false,stim,true,1,1514.0,0,0,0,42950,WMM1,933575,false,false,764,image-keyboard-response,29
false,3,-1,1,0,false,q,true,false,0.0-2.0-0.12-0.109-3.109,0,0,0,,false,stim,false,2,,0,0,2,42950,WMM1,938087,false,false,767,image-keyboard-response,30
true,3,0,1,2,false,d,true,false,0.0-2.0-0.12-0.110-3.110,0,0,0,81,false,stim,false,1,1459.0,0,0,0,42950,WMM1,941058,false,false,770,image-keyboard-response,31
true,3,1,1,2,false,d,false,false,0.0-2.0-0.12-0.111-3.111,0,0,0,90,false,stim,true,1,501.9999999998836,0,0,0,42950,WMM1,943071,false,false,773,image-keyboard-response,32
true,3,2,1,0,false,q,false,false,0.0-2.0-0.12-0.112-3.112,0,0,0,68,false,stim,true,2,435.0,0,0,2,42950,WMM1,945017,false,false,776,image-keyboard-response,33
true,3,1,1,0,false,q,true,false,0.0-2.0-0.12-0.113-3.113,0,0,0,90,false,stim,false,2,1832.0,0,0,2,42950,WMM1,948359,false,false,779,image-keyboard-response,34
true,3,0,1,1,false,z,true,false,0.0-2.0-0.12-0.114-3.114,0,0,0,81,false,stim,false,2,1021.0000000001164,0,1,1,42950,WMM1,950890,false,false,782,image-keyboard-response,35
true,4,1,3,1,true,z,false,true,0.0-2.0-0.12-0.115-3.115,0,1,0,90,true,stim,false,1,1514.0,0,1,1,42950,WMM1,953917,false,false,785,image-keyboard-response,1
true,4,1,3,1,true,z,false,true,0.0-2.0-0.12-0.116-3.116,0,1,0,90,false,stim,false,1,862.0,0,1,1,42950,WMM1,956290,false,false,788,image-keyboard-response,2
true,4,2,3,0,false,q,false,false,0.0-2.0-0.13-0.117-3.117,0,1,0,68,false,stim,true,2,783.0,0,0,0,42950,WMM1,958585,false,false,791,image-keyboard-response,3
true,4,1,3,1,true,z,false,true,0.0-2.0-0.13-0.118-3.118,0,1,0,90,false,stim,false,1,1279.0,0,1,1,42950,WMM1,961375,false,false,794,image-keyboard-response,4
true,4,1,3,1,true,z,false,false,0.0-2.0-0.13-0.119-3.119,0,1,0,90,false,stim,false,1,784.0,0,1,1,42950,WMM1,963670,false,true,797,image-keyboard-response,5
true,4,2,3,2,true,d,false,false,0.0-2.0-0.13-0.120-3.120,0,1,0,68,false,stim,false,0,1032.0,0,0,2,42950,WMM1,966212,false,true,800,image-keyboard-response,6
true,4,0,3,2,false,d,false,false,0.0-2.0-0.13-0.121-3.121,0,1,0,81,false,stim,true,0,616.0,0,0,2,42950,WMM1,968340,false,false,803,image-keyboard-response,7
true,4,1,3,2,false,d,true,false,0.0-2.0-0.13-0.122-3.122,0,1,0,90,false,stim,false,0,434.0,0,0,2,42950,WMM1,970285,false,false,806,image-keyboard-response,8
true,4,2,3,0,false,q,false,false,0.0-2.0-0.13-0.123-3.123,0,1,0,68,false,stim,true,2,2078.0,0,0,0,42950,WMM1,973874,false,false,809,image-keyboard-response,9
true,4,0,3,0,true,q,false,true,0.0-2.0-0.13-0.124-3.124,0,1,0,81,false,stim,false,2,897.9999999998836,0,0,0,42950,WMM1,976283,false,false,812,image-keyboard-response,10
true,4,1,3,1,true,z,false,true,0.0-2.0-0.13-0.125-3.125,0,1,0,90,false,stim,false,1,1514.9999999998836,0,1,1,42950,WMM1,979309,false,false,815,image-keyboard-response,11
true,4,0,3,0,true,q,false,true,0.0-2.0-0.14-0.126-3.126,0,1,0,81,false,stim,false,2,1041.0,0,0,0,42950,WMM1,981862,false,false,818,image-keyboard-response,12
true,4,2,3,2,true,d,false,true,0.0-2.0-0.14-0.127-3.127,0,1,0,68,false,stim,false,0,896.0,0,0,2,42950,WMM1,984270,false,false,821,image-keyboard-response,13
true,4,1,3,1,true,z,false,true,0.0-2.0-0.14-0.128-3.128,0,1,0,90,false,stim,false,1,1121.0,0,1,1,42950,WMM1,986903,false,false,824,image-keyboard-response,14
true,4,2,3,2,true,d,false,true,0.0-2.0-0.14-0.129-3.129,0,1,0,68,false,stim,false,0,873.9999999998836,0,0,2,42950,WMM1,989287,false,false,827,image-keyboard-response,15
true,4,2,3,2,true,d,false,true,0.0-2.0-0.14-0.130-3.130,0,1,0,68,false,stim,false,0,1311.0000000001164,0,0,2,42950,WMM1,992111,false,false,830,image-keyboard-response,16
true,4,1,3,1,true,z,false,true,0.0-2.0-0.14-0.131-3.131,0,1,0,90,false,stim,false,1,1132.0,0,1,1,42950,WMM1,994755,false,false,833,image-keyboard-response,17
true,4,1,3,1,true,z,false,true,0.0-2.0-0.14-0.132-3.132,0,1,0,90,false,stim,false,1,851.0,0,1,1,42950,WMM1,997117,false,false,836,image-keyboard-response,18
true,4,2,3,0,false,q,false,false,0.0-2.0-0.14-0.133-3.133,0,1,0,68,false,stim,true,2,818.0000000001164,0,0,0,42950,WMM1,999447,false,false,839,image-keyboard-response,19
true,4,0,3,0,true,q,false,true,0.0-2.0-0.14-0.134-3.134,0,1,0,81,false,stim,false,2,1335.0000000001164,0,0,0,42950,WMM1,1002293,false,false,842,image-keyboard-response,20
true,4,1,3,1,true,z,false,true,0.0-2.0-0.15-0.135-3.135,0,1,0,90,false,stim,false,1,714.0,0,1,1,42950,WMM1,1004520,false,false,845,image-keyboard-response,21
true,4,0,3,0,true,q,false,true,0.0-2.0-0.15-0.136-3.136,0,1,0,81,false,stim,false,2,760.0,0,0,0,42950,WMM1,1006792,false,false,848,image-keyboard-response,22
true,4,2,3,2,true,d,false,true,0.0-2.0-0.15-0.137-3.137,0,1,0,68,false,stim,false,0,908.0,0,0,2,42950,WMM1,1009212,false,false,851,image-keyboard-response,23
true,4,1,3,1,true,z,false,true,0.0-2.0-0.15-0.138-3.138,0,1,0,90,false,stim,false,1,1200.0000000001164,0,0,1,42950,WMM1,1011923,false,false,854,image-keyboard-response,24
true,4,1,3,1,true,z,false,true,0.0-2.0-0.15-0.139-3.139,0,1,0,90,false,stim,false,1,783.0,0,0,1,42950,WMM1,1014218,false,false,857,image-keyboard-response,25
true,4,2,3,2,true,d,false,true,0.0-2.0-0.15-0.140-3.140,0,1,0,68,false,stim,false,0,750.0,0,0,2,42950,WMM1,1016479,false,false,860,image-keyboard-response,26
true,4,1,3,0,false,q,true,false,0.0-2.0-0.15-0.141-3.141,0,1,0,90,false,stim,false,2,930.0,0,0,0,42950,WMM1,1018921,false,false,863,image-keyboard-response,27
true,4,1,3,2,false,d,true,false,0.0-2.0-0.15-0.142-3.142,0,1,0,90,false,stim,false,0,1167.0,0,0,2,42950,WMM1,1021599,false,false,866,image-keyboard-response,28
true,4,0,3,0,true,q,false,true,0.0-2.0-0.15-0.143-3.143,0,1,0,81,false,stim,false,2,2019.9999999998836,0,0,0,42950,WMM1,1025130,false,false,869,image-keyboard-response,29
true,4,1,3,1,true,z,false,true,0.0-2.0-0.16-0.144-3.144,0,1,0,90,false,stim,false,1,682.0,0,0,1,42950,WMM1,1027324,false,false,872,image-keyboard-response,30
true,4,0,3,0,true,q,false,true,0.0-2.0-0.16-0.145-3.145,0,1,0,81,false,stim,false,2,1548.9999999998836,0,0,0,42950,WMM1,1030384,false,false,875,image-keyboard-response,31
true,4,2,3,2,true,d,false,true,0.0-2.0-0.16-0.146-3.146,0,1,0,68,false,stim,false,0,1143.0,0,0,2,42950,WMM1,1033040,false,false,878,image-keyboard-response,32
true,5,2,1,1,false,z,false,false,0.0-2.0-0.16-0.147-3.147,0,0,0,68,true,stim,true,2,1053.0,0,0,2,42950,WMM1,1035605,false,false,881,image-keyboard-response,1
true,5,1,1,0,false,q,false,false,0.0-2.0-0.16-0.148-3.148,0,0,0,90,false,stim,true,1,1594.0000000001164,0,0,1,42950,WMM1,1038710,false,false,884,image-keyboard-response,2
true,5,2,1,1,false,z,false,false,0.0-2.0-0.16-0.149-3.149,0,0,0,68,false,stim,true,2,1897.0,0,0,2,42950,WMM1,1042119,false,false,887,image-keyboard-response,3
true,5,0,1,0,true,q,false,true,0.0-2.0-0.16-0.150-3.150,0,0,0,81,false,stim,false,1,1843.0,0,0,1,42950,WMM1,1045472,false,false,890,image-keyboard-response,4
true,5,1,1,2,false,d,true,false,0.0-2.0-0.16-0.151-3.151,0,0,0,90,false,stim,false,0,1101.0,0,0,0,42950,WMM1,1048082,false,false,893,image-keyboard-response,5
true,5,2,1,2,true,d,false,true,0.0-2.0-0.16-0.152-3.152,0,0,0,68,false,stim,false,0,784.0,0,0,0,42950,WMM1,1050377,false,false,896,image-keyboard-response,6
true,5,0,1,0,true,q,false,true,0.0-2.0-0.17-0.153-3.153,0,0,0,81,false,stim,false,1,1222.0,0,0,1,42950,WMM1,1053111,false,false,899,image-keyboard-response,7
true,5,1,1,1,true,z,false,true,0.0-2.0-0.17-0.154-3.154,0,0,0,90,false,stim,false,2,818.0,0,0,2,42950,WMM1,1055440,false,false,902,image-keyboard-response,8
true,5,0,1,0,true,q,false,true,0.0-2.0-0.17-0.155-3.155,0,0,0,81,false,stim,false,1,637.0,0,0,1,42950,WMM1,1057588,false,false,905,image-keyboard-response,9
true,5,2,1,2,true,d,false,true,0.0-2.0-0.17-0.156-3.156,0,0,0,68,false,stim,false,0,546.0,0,0,0,42950,WMM1,1059646,false,false,908,image-keyboard-response,10
true,5,1,1,1,true,z,false,true,0.0-2.0-0.17-0.157-3.157,0,0,0,90,false,stim,false,2,535.0,0,0,2,42950,WMM1,1061694,false,false,911,image-keyboard-response,11
true,5,1,1,1,true,z,false,false,0.0-2.0-0.17-0.158-3.158,0,0,0,90,false,stim,false,2,1132.0,0,0,2,42950,WMM1,1064339,false,true,914,image-keyboard-response,12
true,5,0,1,2,false,d,false,false,0.0-2.0-0.17-0.159-3.159,0,0,0,81,false,stim,true,0,830.0000000002328,0,0,0,42950,WMM1,1066679,false,false,917,image-keyboard-response,13
true,5,1,1,2,false,d,true,false,0.0-2.0-0.17-0.160-3.160,0,0,0,90,false,stim,false,0,535.0,0,0,0,42950,WMM1,1068725,false,false,920,image-keyboard-response,14
true,5,0,1,0,true,q,false,true,0.0-2.0-0.17-0.161-3.161,0,0,0,81,false,stim,false,1,1030.0,0,0,1,42950,WMM1,1071268,false,false,923,image-keyboard-response,15
true,5,1,1,1,true,z,false,true,0.0-2.0-0.18-0.162-3.162,0,0,0,90,false,stim,false,2,1110.0,0,0,2,42950,WMM1,1073890,false,false,926,image-keyboard-response,16
true,5,1,1,1,true,z,false,true,0.0-2.0-0.18-0.163-3.163,0,0,0,90,false,stim,false,2,974.0,0,0,2,42950,WMM1,1076376,false,false,929,image-keyboard-response,17
true,5,2,1,2,true,d,false,true,0.0-2.0-0.18-0.164-3.164,0,0,0,68,false,stim,false,0,1671.0,0,0,0,42950,WMM1,1079560,false,false,932,image-keyboard-response,18
true,5,2,1,2,true,d,false,true,0.0-2.0-0.18-0.165-3.165,0,0,0,68,false,stim,false,0,1010.0,0,0,0,42950,WMM1,1082081,false,false,935,image-keyboard-response,19
true,5,0,1,0,true,q,false,true,0.0-2.0-0.18-0.166-3.166,0,0,0,81,false,stim,false,1,883.0000000002328,0,0,1,42950,WMM1,1084476,false,false,938,image-keyboard-response,20
true,5,0,1,0,true,q,false,true,0.0-2.0-0.18-0.167-3.167,0,0,0,81,false,stim,false,1,693.0,0,0,1,42950,WMM1,1086681,false,false,941,image-keyboard-response,21
true,5,1,1,1,true,z,false,true,0.0-2.0-0.18-0.168-3.168,0,0,0,90,false,stim,false,2,1492.0,0,0,2,42950,WMM1,1089686,false,false,944,image-keyboard-response,22
true,5,0,1,0,true,q,false,true,0.0-2.0-0.18-0.169-3.169,0,0,0,81,false,stim,false,1,816.9999999997672,0,0,1,42950,WMM1,1092014,false,false,947,image-keyboard-response,23
true,5,2,1,2,true,d,false,true,0.0-2.0-0.18-0.170-3.170,0,0,0,68,false,stim,false,0,1031.0,0,0,0,42950,WMM1,1094557,false,false,950,image-keyboard-response,24
true,5,2,1,2,true,d,false,false,0.0-2.0-0.19-0.171-3.171,0,0,0,68,false,stim,false,0,658.0,0,0,0,42950,WMM1,1096728,false,true,953,image-keyboard-response,25
true,5,1,1,1,true,z,false,true,0.0-2.0-0.19-0.172-3.172,0,0,0,90,false,stim,false,2,2493.0,0,0,2,42950,WMM1,1100733,false,false,956,image-keyboard-response,26
true,5,0,1,0,true,q,false,false,0.0-2.0-0.19-0.173-3.173,0,0,0,81,false,stim,false,1,1683.0,0,0,1,42950,WMM1,1103928,false,true,959,image-keyboard-response,27
true,5,1,1,1,true,z,false,false,0.0-2.0-0.19-0.174-3.174,0,0,0,90,false,stim,false,2,2078.0,0,0,2,42950,WMM1,1107518,false,true,962,image-keyboard-response,28
true,5,0,1,0,true,q,false,true,0.0-2.0-0.19-0.175-3.175,0,0,0,81,false,stim,false,1,1197.0,0,0,1,42950,WMM1,1110228,false,false,965,image-keyboard-response,29
true,5,1,1,1,true,z,false,true,0.0-2.0-0.19-0.176-3.176,0,0,0,90,false,stim,false,2,1582.0000000002328,0,0,2,42950,WMM1,1113322,false,false,968,image-keyboard-response,30
true,6,0,2,1,false,z,false,false,0.0-2.0-0.19-0.177-3.177,0,0,0,81,true,stim,true,0,1087.0,0,0,1,42950,WMM1,1115921,false,false,971,image-keyboard-response,1
true,6,0,2,0,true,q,false,true,0.0-2.0-0.19-0.178-3.178,0,0,0,81,false,stim,false,2,2087.0,0,0,0,42950,WMM1,1119521,false,false,974,image-keyboard-response,2
true,6,0,2,0,true,q,false,true,0.0-2.0-0.19-0.179-3.179,0,0,0,81,false,stim,false,2,1108.9999999997672,0,0,0,42950,WMM1,1122142,false,false,977,image-keyboard-response,3
true,6,1,2,2,false,d,false,false,0.0-2.0-0.20-0.180-3.180,0,0,0,90,false,stim,true,1,1524.0,0,0,2,42950,WMM1,1125180,false,false,980,image-keyboard-response,4
true,6,0,2,0,true,q,false,true,0.0-2.0-0.20-0.181-3.181,0,0,0,81,false,stim,false,2,1313.0000000002328,0,0,0,42950,WMM1,1128004,false,false,983,image-keyboard-response,5
true,6,1,2,1,true,z,false,true,0.0-2.0-0.20-0.182-3.182,0,0,0,90,false,stim,false,0,1198.0000000002328,0,0,1,42950,WMM1,1130716,false,false,986,image-keyboard-response,6
true,6,0,2,0,true,q,false,true,0.0-2.0-0.20-0.183-3.183,0,0,0,81,false,stim,false,2,1032.0,0,0,0,42950,WMM1,1133258,false,false,989,image-keyboard-response,7
true,6,0,2,0,true,q,false,true,0.0-2.0-0.20-0.184-3.184,0,0,0,81,false,stim,false,2,828.0,0,0,0,42950,WMM1,1135598,false,false,992,image-keyboard-response,8
true,6,1,2,1,true,z,false,false,0.0-2.0-0.20-0.185-3.185,0,0,0,90,false,stim,false,0,660.0,0,0,1,42950,WMM1,1137770,false,true,995,image-keyboard-response,9
true,6,1,2,2,false,d,false,false,0.0-2.0-0.20-0.186-3.186,0,0,0,90,false,stim,true,1,2954.0,0,0,2,42950,WMM1,1142236,false,false,998,image-keyboard-response,10
true,6,2,2,2,true,d,false,true,0.0-2.0-0.20-0.187-3.187,0,0,0,68,false,stim,false,1,749.0,0,0,2,42950,WMM1,1144497,false,false,1001,image-keyboard-response,11
true,6,1,2,1,true,z,false,true,0.0-2.0-0.20-0.188-3.188,0,0,0,90,false,stim,false,0,2155.0,0,0,1,42950,WMM1,1148165,false,false,1004,image-keyboard-response,12
true,6,0,2,0,true,q,false,true,0.0-2.0-0.21-0.189-3.189,0,0,0,81,false,stim,false,2,905.9999999997672,0,0,0,42950,WMM1,1150583,false,false,1007,image-keyboard-response,13
true,6,1,2,1,true,z,false,true,0.0-2.0-0.21-0.190-3.190,0,0,0,90,false,stim,false,0,782.0,0,0,1,42950,WMM1,1152878,false,false,1010,image-keyboard-response,14
true,6,1,2,1,true,z,false,true,0.0-2.0-0.21-0.191-3.191,0,0,0,90,false,stim,false,0,737.0,0,0,1,42950,WMM1,1155128,false,false,1013,image-keyboard-response,15
true,6,2,2,2,true,d,false,true,0.0-2.0-0.21-0.192-3.192,0,0,0,68,false,stim,false,1,861.0,0,0,2,42950,WMM1,1157502,false,false,1016,image-keyboard-response,16
true,6,1,2,0,false,q,true,true,0.0-2.0-0.21-0.193-3.193,0,0,0,90,false,stim,false,2,2144.0,0,0,0,42950,WMM1,1161159,false,true,1019,image-keyboard-response,17
true,6,0,2,1,false,z,false,false,0.0-2.0-0.21-0.194-3.194,0,0,0,81,false,stim,true,0,974.0,0,0,1,42950,WMM1,1163645,false,false,1022,image-keyboard-response,18
true,6,1,2,0,false,q,true,false,0.0-2.0-0.21-0.195-3.195,0,0,0,90,false,stim,false,2,973.9999999997672,0,0,0,42950,WMM1,1166132,false,false,1025,image-keyboard-response,19
false,6,-1,2,2,false,d,true,false,0.0-2.0-0.21-0.196-3.196,0,0,0,,false,stim,false,1,,0,0,2,42950,WMM1,1170644,false,false,1028,image-keyboard-response,20
true,6,2,2,2,true,d,false,true,0.0-2.0-0.21-0.197-3.197,0,0,0,68,false,stim,false,1,746.9999999997672,0,0,2,42950,WMM1,1172904,false,false,1031,image-keyboard-response,21
true,6,2,2,2,true,d,false,true,0.0-2.0-0.22-0.198-3.198,0,0,0,68,false,stim,false,1,895.0,0,0,2,42950,WMM1,1175312,false,false,1034,image-keyboard-response,22
true,6,1,2,1,true,z,false,true,0.0-2.0-0.22-0.199-3.199,0,0,0,90,false,stim,false,0,873.0,0,0,1,42950,WMM1,1177697,false,false,1037,image-keyboard-response,23
true,6,2,2,2,true,d,false,true,0.0-2.0-0.22-0.200-3.200,0,0,0,68,false,stim,false,1,1130.0,0,0,2,42950,WMM1,1180341,false,false,1040,image-keyboard-response,24
true,6,1,2,1,true,z,false,true,0.0-2.0-0.22-0.201-3.201,0,0,0,90,false,stim,false,0,480.0,0,0,1,42950,WMM1,1182332,false,false,1043,image-keyboard-response,25
true,6,0,2,0,true,q,false,true,0.0-2.0-0.22-0.202-3.202,0,0,0,81,false,stim,false,2,883.0,0,0,0,42950,WMM1,1184728,false,false,1046,image-keyboard-response,26
true,6,0,2,0,true,q,false,true,0.0-2.0-0.22-0.203-3.203,0,0,0,81,false,stim,false,2,906.0000000002328,0,0,0,42950,WMM1,1187147,false,false,1049,image-keyboard-response,27
true,6,0,2,0,true,q,false,true,0.0-2.0-0.22-0.204-3.204,0,0,0,81,false,stim,false,2,679.0,0,1,0,42950,WMM1,1189340,false,false,1052,image-keyboard-response,28
true,6,1,2,1,true,z,false,true,0.0-2.0-0.22-0.205-3.205,0,0,0,90,false,stim,false,0,1019.0,0,0,1,42950,WMM1,1191872,false,false,1055,image-keyboard-response,29
true,6,2,2,2,true,d,false,true,0.0-2.0-0.22-0.206-3.206,0,0,0,68,false,stim,false,1,917.0,0,0,2,42950,WMM1,1194302,false,false,1058,image-keyboard-response,30
true,6,1,2,1,true,z,false,true,0.0-2.0-0.23-0.207-3.207,0,0,0,90,false,stim,false,0,929.0,0,0,1,42950,WMM1,1196744,false,false,1061,image-keyboard-response,31
true,6,1,2,1,true,z,false,true,0.0-2.0-0.23-0.208-3.208,0,0,0,90,false,stim,false,0,624.0,0,0,1,42950,WMM1,1198881,false,false,1064,image-keyboard-response,32
true,6,0,2,0,true,q,false,true,0.0-2.0-0.23-0.209-3.209,0,0,0,81,false,stim,false,2,851.0,0,1,0,42950,WMM1,1201244,false,false,1067,image-keyboard-response,33
true,6,1,2,1,true,z,false,true,0.0-2.0-0.23-0.210-3.210,0,0,0,90,false,stim,false,0,928.0,0,0,1,42950,WMM1,1203685,false,false,1070,image-keyboard-response,34
true,6,0,2,0,true,q,false,true,0.0-2.0-0.23-0.211-3.211,0,0,0,81,false,stim,false,2,806.0000000002328,0,1,0,42950,WMM1,1206003,false,false,1073,image-keyboard-response,35
true,6,2,2,2,true,d,false,true,0.0-2.0-0.23-0.212-3.212,0,0,0,68,false,stim,false,1,771.0,0,0,2,42950,WMM1,1208287,false,false,1076,image-keyboard-response,36
true,6,1,2,0,false,q,true,false,0.0-2.0-0.23-0.213-3.213,0,0,0,90,false,stim,false,2,1513.0,0,1,0,42950,WMM1,1211313,false,false,1079,image-keyboard-response,37
true,7,2,3,1,false,z,false,false,0.0-2.0-0.23-0.214-3.214,1,0,0,68,true,stim,true,2,940.0,0,0,2,42950,WMM1,1213765,false,false,1082,image-keyboard-response,1
true,7,2,3,1,false,z,false,false,0.0-2.0-0.23-0.215-3.215,1,0,0,68,false,stim,true,2,873.0,0,0,2,42950,WMM1,1216151,false,false,1085,image-keyboard-response,2
true,7,1,3,1,true,z,false,true,0.0-2.0-0.24-0.216-3.216,1,0,0,90,false,stim,false,2,850.0,0,0,2,42950,WMM1,1218513,false,false,1088,image-keyboard-response,3
true,7,0,3,0,true,q,false,true,0.0-2.0-0.24-0.217-3.217,1,0,0,81,false,stim,false,1,1974.0,0,0,1,42950,WMM1,1222001,false,false,1091,image-keyboard-response,4
true,7,1,3,1,true,z,false,true,0.0-2.0-0.24-0.218-3.218,1,0,0,90,false,stim,false,2,715.0,0,0,2,42950,WMM1,1224228,false,false,1094,image-keyboard-response,5
true,7,2,3,0,false,q,true,false,0.0-2.0-0.24-0.219-3.219,1,0,0,68,false,stim,false,0,692.0,0,1,0,42950,WMM1,1226433,false,false,1097,image-keyboard-response,6
true,7,1,3,0,false,q,false,false,0.0-2.0-0.24-0.220-3.220,1,0,0,90,false,stim,true,1,1536.0,0,0,1,42950,WMM1,1229482,false,false,1100,image-keyboard-response,7
true,7,0,3,0,true,q,false,true,0.0-2.0-0.24-0.221-3.221,1,0,0,81,false,stim,false,1,1175.0,0,0,1,42950,WMM1,1232171,false,false,1103,image-keyboard-response,8
true,7,1,3,0,false,q,true,false,0.0-2.0-0.24-0.222-3.222,1,0,0,90,false,stim,false,0,1805.0,0,1,0,42950,WMM1,1235490,false,false,1106,image-keyboard-response,9
true,7,1,3,1,true,z,false,true,0.0-2.0-0.24-0.223-3.223,1,0,0,90,false,stim,false,2,1175.0,0,0,2,42950,WMM1,1238179,false,false,1109,image-keyboard-response,10
true,7,1,3,0,false,q,true,false,0.0-2.0-0.24-0.224-3.224,1,0,0,90,false,stim,false,0,939.0,0,1,0,42950,WMM1,1240631,false,false,1112,image-keyboard-response,11
true,7,0,3,0,true,q,false,true,0.0-2.0-0.25-0.225-3.225,1,0,0,81,false,stim,false,1,1072.9999999997672,0,0,1,42950,WMM1,1243219,false,false,1115,image-keyboard-response,12
true,7,2,3,0,false,q,true,false,0.0-2.0-0.25-0.226-3.226,1,0,0,68,false,stim,false,0,1534.9999999997672,0,1,0,42950,WMM1,1246268,false,false,1118,image-keyboard-response,13
true,7,1,3,0,false,q,true,false,0.0-2.0-0.25-0.227-3.227,1,0,0,90,false,stim,false,0,1332.0,0,1,0,42950,WMM1,1249114,false,false,1121,image-keyboard-response,14
true,7,0,3,0,true,q,false,true,0.0-2.0-0.25-0.228-3.228,1,0,0,81,false,stim,false,1,1175.0,0,0,1,42950,WMM1,1251803,false,false,1124,image-keyboard-response,15
true,7,1,3,1,true,z,false,true,0.0-2.0-0.25-0.229-3.229,1,0,0,90,false,stim,false,2,2435.000000000233,0,0,2,42950,WMM1,1255752,false,false,1127,image-keyboard-response,16
true,7,1,3,1,true,z,false,true,0.0-2.0-0.25-0.230-3.230,1,0,0,90,false,stim,false,2,623.0,0,0,2,42950,WMM1,1257889,false,false,1130,image-keyboard-response,17
true,7,1,3,0,false,q,false,false,0.0-2.0-0.25-0.231-3.231,1,0,0,90,false,stim,true,1,861.0,0,0,1,42950,WMM1,1260262,false,false,1133,image-keyboard-response,18
false,7,-1,3,1,false,z,true,true,0.0-2.0-0.25-0.232-3.232,1,0,0,,false,stim,false,2,,0,0,2,42950,WMM1,1264777,false,true,1136,image-keyboard-response,19
false,7,-1,3,0,false,q,true,false,0.0-2.0-0.25-0.233-3.233,1,0,0,,false,stim,false,0,,0,1,0,42950,WMM1,1269291,false,false,1139,image-keyboard-response,20
true,7,1,3,0,false,q,true,false,0.0-2.0-0.26-0.234-3.234,1,0,0,90,false,stim,false,0,1438.0,0,1,0,42950,WMM1,1272244,false,false,1142,image-keyboard-response,21
false,7,-1,3,1,false,z,true,false,0.0-2.0-0.26-0.235-3.235,1,0,0,,false,stim,false,2,,0,0,2,42950,WMM1,1276760,false,false,1145,image-keyboard-response,22
true,7,1,3,0,false,q,false,false,0.0-2.0-0.26-0.236-3.236,1,0,0,90,false,stim,true,1,1362.0,0,0,1,42950,WMM1,1279636,false,false,1148,image-keyboard-response,23
true,7,2,3,1,false,z,false,true,0.0-2.0-0.26-0.237-3.237,1,0,0,68,false,stim,true,2,1083.0,0,0,2,42950,WMM1,1282234,false,true,1151,image-keyboard-response,24
true,7,0,3,0,true,q,false,true,0.0-2.0-0.26-0.238-3.238,1,0,0,81,false,stim,false,1,907.0,0,0,1,42950,WMM1,1284654,false,false,1154,image-keyboard-response,25
true,7,1,3,0,false,q,true,false,0.0-2.0-0.26-0.239-3.239,1,0,0,90,false,stim,false,0,870.0000000002328,0,1,0,42950,WMM1,1287039,false,false,1157,image-keyboard-response,26
true,7,2,3,1,false,z,false,false,0.0-2.0-0.26-0.240-3.240,1,0,0,68,false,stim,true,2,1085.0,0,0,2,42950,WMM1,1289638,false,false,1160,image-keyboard-response,27
true,7,0,3,0,true,q,false,true,0.0-2.0-0.26-0.241-3.241,1,0,0,81,false,stim,false,1,1084.0,0,0,1,42950,WMM1,1292237,false,false,1163,image-keyboard-response,28
true,7,2,3,0,false,q,true,false,0.0-2.0-0.26-0.242-3.242,1,0,0,68,false,stim,false,0,1129.9999999997672,0,1,0,42950,WMM1,1294881,false,false,1166,image-keyboard-response,29
true,7,0,3,0,true,q,false,true,0.0-2.0-0.27-0.243-3.243,1,0,0,81,false,stim,false,1,1792.0,0,0,1,42950,WMM1,1298187,false,false,1169,image-keyboard-response,30
true,7,0,3,0,true,q,false,true,0.0-2.0-0.27-0.244-3.244,1,0,0,81,false,stim,false,1,995.0,0,0,1,42950,WMM1,1300697,false,false,1172,image-keyboard-response,31
true,7,1,3,1,true,z,false,true,0.0-2.0-0.27-0.245-3.245,1,0,0,90,false,stim,false,2,1074.0,0,0,2,42950,WMM1,1303285,false,false,1175,image-keyboard-response,32
true,7,2,3,0,false,q,true,false,0.0-2.0-0.27-0.246-3.246,1,0,0,68,false,stim,false,0,768.0000000002328,0,1,0,42950,WMM1,1305568,false,false,1178,image-keyboard-response,33
true,7,1,3,1,true,z,false,true,0.0-2.0-0.27-0.247-3.247,1,0,0,90,false,stim,false,2,1118.0,0,0,2,42950,WMM1,1308201,false,false,1181,image-keyboard-response,34
true,7,0,3,0,true,q,false,true,0.0-2.0-0.27-0.248-3.248,1,0,0,81,false,stim,false,0,1614.0,0,1,0,42950,WMM1,1311328,false,false,1184,image-keyboard-response,35
true,7,1,3,1,true,z,false,true,0.0-2.0-0.27-0.249-3.249,1,0,0,90,false,stim,false,2,982.0,0,0,2,42950,WMM1,1313826,false,false,1187,image-keyboard-response,36
true,7,0,3,0,true,q,false,true,0.0-2.0-0.27-0.250-3.250,1,0,0,81,false,stim,false,0,623.0,0,1,0,42950,WMM1,1315964,false,false,1190,image-keyboard-response,37
true,7,2,3,0,false,q,true,false,0.0-2.0-0.27-0.251-3.251,1,0,0,68,false,stim,false,1,1163.0,0,0,1,42950,WMM1,1318641,false,false,1193,image-keyboard-response,38
true,7,0,3,0,true,q,false,true,0.0-2.0-0.28-0.252-3.252,1,0,0,81,false,stim,false,1,1027.0,0,0,1,42950,WMM1,1321183,false,false,1196,image-keyboard-response,39
true,7,0,3,0,true,q,false,true,0.0-2.0-0.28-0.253-3.253,1,0,0,81,false,stim,false,1,1019.0,0,0,1,42950,WMM1,1323715,false,false,1199,image-keyboard-response,40
true,7,1,3,1,true,z,false,true,0.0-2.0-0.28-0.254-3.254,1,0,0,90,false,stim,false,2,792.0,0,0,2,42950,WMM1,1326021,false,false,1202,image-keyboard-response,41
true,7,1,3,1,true,z,false,true,0.0-2.0-0.28-0.255-3.255,1,0,0,90,false,stim,false,2,1186.0000000002328,0,0,2,42950,WMM1,1328721,false,false,1205,image-keyboard-response,42
true,7,0,3,0,true,q,false,true,0.0-2.0-0.28-0.256-3.256,1,0,0,81,false,stim,false,1,882.0,0,0,1,42950,WMM1,1331118,false,false,1208,image-keyboard-response,43
true,7,1,3,1,true,z,false,true,0.0-2.0-0.28-0.257-3.257,1,0,0,90,false,stim,false,2,960.0,0,0,2,42950,WMM1,1333592,false,false,1211,image-keyboard-response,44
true,7,0,3,0,true,q,false,true,0.0-2.0-0.28-0.258-3.258,1,0,0,81,false,stim,false,0,859.0,0,0,0,42950,WMM1,1335966,false,false,1214,image-keyboard-response,45
true,7,0,3,0,true,q,false,true,0.0-2.0-0.28-0.259-3.259,1,0,0,81,false,stim,false,0,1480.0,0,0,0,42950,WMM1,1338959,false,false,1217,image-keyboard-response,46
true,7,0,3,0,true,q,false,true,0.0-2.0-0.28-0.260-3.260,1,0,0,81,false,stim,false,0,634.0,0,0,0,42950,WMM1,1341108,false,false,1220,image-keyboard-response,47
true,8,1,4,0,false,q,false,false,0.0-2.0-0.29-0.261-3.261,0,0,0,90,true,stim,true,1,1094.0,0,0,2,42950,WMM1,1343717,false,false,1223,image-keyboard-response,1
true,8,1,4,2,false,d,true,false,0.0-2.0-0.29-0.262-3.262,0,0,0,90,false,stim,false,0,962.0,0,0,1,42950,WMM1,1346193,false,false,1226,image-keyboard-response,2
true,8,0,4,1,false,z,false,false,0.0-2.0-0.29-0.263-3.263,0,0,0,81,false,stim,true,0,2153.0,0,0,0,42950,WMM1,1349855,false,false,1229,image-keyboard-response,3
true,8,1,4,2,false,d,true,false,0.0-2.0-0.29-0.264-3.264,0,0,0,90,false,stim,false,0,2029.0,0,0,1,42950,WMM1,1353393,false,false,1232,image-keyboard-response,4
true,8,0,4,2,false,d,false,false,0.0-2.0-0.29-0.265-3.265,0,0,0,81,false,stim,true,0,814.0,0,0,1,42950,WMM1,1355719,false,false,1235,image-keyboard-response,5
true,8,1,4,0,false,q,false,false,0.0-2.0-0.29-0.266-3.266,0,0,0,90,false,stim,true,1,759.0,0,0,2,42950,WMM1,1357989,false,false,1238,image-keyboard-response,6
true,8,2,4,0,false,q,true,false,0.0-2.0-0.29-0.267-3.267,0,0,0,68,false,stim,false,1,927.0,0,0,2,42950,WMM1,1360428,false,false,1241,image-keyboard-response,7
false,8,-1,4,1,false,z,true,false,0.0-2.0-0.29-0.268-3.268,0,0,0,,false,stim,false,0,,0,0,0,42950,WMM1,1364940,false,false,1244,image-keyboard-response,8
true,8,1,4,1,true,z,false,true,0.0-2.0-0.29-0.269-3.269,0,0,0,90,false,stim,false,0,1305.0,0,0,0,42950,WMM1,1367758,false,false,1247,image-keyboard-response,9
true,8,1,4,1,true,z,false,true,0.0-2.0-0.30-0.270-3.270,0,0,0,90,false,stim,false,0,1096.0,0,0,0,42950,WMM1,1370367,false,false,1250,image-keyboard-response,10
true,8,0,4,2,false,d,false,false,0.0-2.0-0.30-0.271-3.271,0,0,0,81,false,stim,true,0,838.0,0,0,1,42950,WMM1,1372717,false,false,1253,image-keyboard-response,11
true,8,2,4,2,true,d,false,true,0.0-2.0-0.30-0.272-3.272,0,0,0,68,false,stim,false,0,602.0,0,0,1,42950,WMM1,1374831,false,false,1256,image-keyboard-response,12
true,8,0,4,0,true,q,false,true,0.0-2.0-0.30-0.273-3.273,0,0,0,81,false,stim,false,1,1153.0,0,0,2,42950,WMM1,1377497,false,false,1259,image-keyboard-response,13
true,8,1,4,1,true,z,false,true,0.0-2.0-0.30-0.274-3.274,0,0,0,90,false,stim,false,0,711.0,0,0,0,42950,WMM1,1379723,false,false,1262,image-keyboard-response,14
true,8,1,4,1,true,z,false,true,0.0-2.0-0.30-0.275-3.275,0,0,0,90,false,stim,false,0,816.0,0,0,0,42950,WMM1,1382052,false,false,1265,image-keyboard-response,15
true,8,0,4,0,true,q,false,true,0.0-2.0-0.30-0.276-3.276,0,0,0,81,false,stim,false,1,1220.0000000002328,0,0,2,42950,WMM1,1384785,false,false,1268,image-keyboard-response,16
true,8,2,4,2,true,d,false,true,0.0-2.0-0.30-0.277-3.277,0,0,0,68,false,stim,false,0,915.0,0,0,1,42950,WMM1,1387215,false,false,1271,image-keyboard-response,17
true,8,0,4,0,true,q,false,true,0.0-2.0-0.30-0.278-3.278,0,0,0,81,false,stim,false,1,668.0,0,0,2,42950,WMM1,1389396,false,false,1274,image-keyboard-response,18
true,8,2,4,2,true,d,false,true,0.0-2.0-0.31-0.279-3.279,0,0,0,68,false,stim,false,0,2019.0,0,0,1,42950,WMM1,1392929,false,false,1277,image-keyboard-response,19
true,8,1,4,1,true,z,false,true,0.0-2.0-0.31-0.280-3.280,0,0,0,90,false,stim,false,0,611.0,0,0,0,42950,WMM1,1395055,false,false,1280,image-keyboard-response,20
true,8,1,4,1,true,z,false,false,0.0-2.0-0.31-0.281-3.281,0,0,0,90,false,stim,false,0,982.0000000002328,0,0,0,42950,WMM1,1397552,false,true,1283,image-keyboard-response,21
true,8,2,4,0,false,q,true,false,0.0-2.0-0.31-0.282-3.282,0,0,0,68,false,stim,false,1,2276.0,0,0,2,42950,WMM1,1401342,false,false,1286,image-keyboard-response,22
true,8,1,4,2,false,d,true,false,0.0-2.0-0.31-0.283-3.283,0,0,0,90,false,stim,false,0,1592.0,0,0,1,42950,WMM1,1404448,false,false,1289,image-keyboard-response,23
true,8,2,4,2,true,d,false,true,0.0-2.0-0.31-0.284-3.284,0,0,0,68,false,stim,false,0,1040.0,0,0,1,42950,WMM1,1407002,false,false,1292,image-keyboard-response,24
true,8,1,4,0,false,q,false,false,0.0-2.0-0.31-0.285-3.285,0,0,0,90,false,stim,true,1,1241.0,0,0,2,42950,WMM1,1409757,false,false,1295,image-keyboard-response,25
true,8,1,4,1,true,z,false,true,0.0-2.0-0.31-0.286-3.286,0,0,0,90,false,stim,false,0,779.9999999997672,0,0,0,42950,WMM1,1412052,false,false,1298,image-keyboard-response,26
true,8,0,4,0,true,q,false,true,0.0-2.0-0.31-0.287-3.287,0,0,0,81,false,stim,false,1,1816.0,0,0,2,42950,WMM1,1415383,false,false,1301,image-keyboard-response,27
true,8,1,4,1,true,z,false,true,0.0-2.0-0.32-0.288-3.288,0,0,0,90,false,stim,false,0,1747.0,0,0,0,42950,WMM1,1418646,false,false,1304,image-keyboard-response,28
true,8,1,4,1,true,z,false,true,0.0-2.0-0.32-0.289-3.289,0,0,0,90,false,stim,false,0,768.0,0,0,0,42950,WMM1,1420929,false,false,1307,image-keyboard-response,29
true,8,2,4,2,true,d,false,true,0.0-2.0-0.32-0.290-3.290,0,0,0,68,false,stim,false,0,747.0,0,0,1,42950,WMM1,1423189,false,false,1310,image-keyboard-response,30
true,9,0,2,2,false,d,false,false,0.0-2.0-0.32-0.291-3.291,0,0,0,81,true,stim,true,0,871.9999999997672,0,0,2,42950,WMM1,1425575,false,false,1313,image-keyboard-response,1
true,9,1,2,2,false,d,true,false,0.0-2.0-0.32-0.292-3.292,0,0,0,90,false,stim,false,0,1062.9999999997672,0,0,2,42950,WMM1,1428152,false,false,1316,image-keyboard-response,2
true,9,2,2,1,false,z,false,false,0.0-2.0-0.32-0.293-3.293,0,0,0,68,false,stim,true,2,500.0,0,0,1,42950,WMM1,1430165,false,false,1319,image-keyboard-response,3
true,9,2,2,1,false,z,false,false,0.0-2.0-0.32-0.294-3.294,0,0,0,68,false,stim,true,2,971.0,0,0,1,42950,WMM1,1432651,false,false,1322,image-keyboard-response,4
true,9,1,2,2,false,d,true,true,0.0-2.0-0.32-0.295-3.295,0,0,0,90,false,stim,false,0,1838.0,0,0,2,42950,WMM1,1436004,false,true,1325,image-keyboard-response,5
true,9,2,2,0,false,q,true,false,0.0-2.0-0.32-0.296-3.296,0,0,0,68,false,stim,false,1,2310.0,0,0,0,42950,WMM1,1439829,false,false,1328,image-keyboard-response,6
true,9,1,2,2,false,d,true,false,0.0-2.0-0.33-0.297-3.297,0,0,0,90,false,stim,false,0,1691.0,0,0,2,42950,WMM1,1443036,false,false,1331,image-keyboard-response,7
true,9,0,2,2,false,d,false,false,0.0-2.0-0.33-0.298-3.298,0,0,0,81,false,stim,true,0,803.0,0,0,2,42950,WMM1,1445353,false,false,1334,image-keyboard-response,8
true,9,1,2,0,false,q,false,false,0.0-2.0-0.33-0.299-3.299,0,0,0,90,false,stim,true,1,1230.9999999997672,0,0,0,42950,WMM1,1448098,false,false,1337,image-keyboard-response,9
true,9,1,2,1,true,z,false,true,0.0-2.0-0.33-0.300-3.300,0,0,0,90,false,stim,false,2,2906.0,0,0,1,42950,WMM1,1452519,false,false,1340,image-keyboard-response,10
true,9,0,2,0,true,q,false,true,0.0-2.0-0.33-0.301-3.301,0,0,0,81,false,stim,false,1,1927.0,0,0,0,42950,WMM1,1455962,false,false,1343,image-keyboard-response,11
true,9,2,2,2,true,d,false,true,0.0-2.0-0.33-0.302-3.302,0,0,0,68,false,stim,false,0,1286.0,0,0,2,42950,WMM1,1458763,false,false,1346,image-keyboard-response,12
true,9,1,2,1,true,z,false,true,0.0-2.0-0.33-0.303-3.303,0,0,0,90,false,stim,false,2,960.0,0,0,1,42950,WMM1,1461238,false,false,1349,image-keyboard-response,13
true,9,1,2,1,true,z,false,true,0.0-2.0-0.33-0.304-3.304,0,0,0,90,false,stim,false,2,892.0,0,0,1,42950,WMM1,1463646,false,false,1352,image-keyboard-response,14
true,9,0,2,0,true,q,false,true,0.0-2.0-0.33-0.305-3.305,0,0,0,81,false,stim,false,1,779.0,0,0,0,42950,WMM1,1465940,false,false,1355,image-keyboard-response,15
true,9,1,2,0,false,q,false,false,0.0-2.0-0.34-0.306-3.306,0,0,0,90,false,stim,true,1,869.0,0,0,0,42950,WMM1,1468325,false,false,1358,image-keyboard-response,16
true,9,2,2,1,false,z,false,false,0.0-2.0-0.34-0.307-3.307,0,0,0,68,false,stim,true,2,1624.0,0,0,1,42950,WMM1,1471464,false,false,1361,image-keyboard-response,17
true,9,2,2,2,true,d,false,true,0.0-2.0-0.34-0.308-3.308,0,0,0,68,false,stim,false,0,1073.0,0,0,2,42950,WMM1,1474052,false,false,1364,image-keyboard-response,18
true,9,2,2,2,true,d,false,true,0.0-2.0-0.34-0.309-3.309,0,0,0,68,false,stim,false,0,996.0,0,0,2,42950,WMM1,1476561,false,false,1367,image-keyboard-response,19
true,9,0,2,0,true,q,false,false,0.0-2.0-0.34-0.310-3.310,0,0,0,81,false,stim,false,1,882.0,0,0,0,42950,WMM1,1478958,false,true,1370,image-keyboard-response,20
true,9,2,2,2,true,d,false,true,0.0-2.0-0.34-0.311-3.311,0,0,0,68,false,stim,false,0,1037.0,0,0,2,42950,WMM1,1481511,false,false,1373,image-keyboard-response,21
true,9,1,2,0,false,q,false,false,0.0-2.0-0.34-0.312-3.312,0,0,0,90,false,stim,true,1,700.0,0,0,0,42950,WMM1,1483727,false,false,1376,image-keyboard-response,22
true,9,1,2,1,true,z,false,true,0.0-2.0-0.34-0.313-3.313,0,0,0,90,false,stim,false,2,1690.0,0,0,1,42950,WMM1,1486933,false,false,1379,image-keyboard-response,23
true,9,1,2,1,true,z,false,true,0.0-2.0-0.34-0.314-3.314,0,0,0,90,false,stim,false,2,700.0,0,0,1,42950,WMM1,1489149,false,false,1382,image-keyboard-response,24
true,9,1,2,1,true,z,false,true,0.0-2.0-0.35-0.315-3.315,0,0,0,90,false,stim,false,2,419.0,0,0,1,42950,WMM1,1491085,false,false,1385,image-keyboard-response,25
true,9,0,2,0,true,q,false,true,0.0-2.0-0.35-0.316-3.316,0,0,0,81,false,stim,false,1,880.0,0,0,0,42950,WMM1,1493481,false,false,1388,image-keyboard-response,26
true,9,1,2,0,false,q,false,false,0.0-2.0-0.35-0.317-3.317,0,0,0,90,false,stim,true,1,678.0,0,0,0,42950,WMM1,1495674,false,false,1391,image-keyboard-response,27
true,9,0,2,0,true,q,false,true,0.0-2.0-0.35-0.318-3.318,0,0,0,81,false,stim,false,1,398.0,0,0,0,42950,WMM1,1497587,false,false,1394,image-keyboard-response,28
true,9,1,2,1,true,z,false,true,0.0-2.0-0.35-0.319-3.319,0,0,0,90,false,stim,false,2,1039.0,0,0,1,42950,WMM1,1500140,false,false,1397,image-keyboard-response,29
true,9,2,2,2,true,d,false,true,0.0-2.0-0.35-0.320-3.320,0,0,0,68,false,stim,false,0,1004.0,0,0,2,42950,WMM1,1502661,false,false,1400,image-keyboard-response,30
true,9,2,2,2,true,d,false,true,0.0-2.0-0.35-0.321-3.321,0,0,0,68,false,stim,false,0,759.0,0,0,2,42950,WMM1,1504934,false,false,1403,image-keyboard-response,31
true,9,2,2,2,true,d,false,true,0.0-2.0-0.35-0.322-3.322,0,0,0,68,false,stim,false,0,543.0,0,0,2,42950,WMM1,1506992,false,false,1406,image-keyboard-response,32
true,9,1,2,1,true,z,false,false,0.0-2.0-0.35-0.323-3.323,0,0,0,90,false,stim,false,2,1048.9999999997672,0,0,1,42950,WMM1,1509557,false,true,1409,image-keyboard-response,33
true,9,0,2,1,false,z,true,false,0.0-2.0-0.36-0.324-3.324,0,0,0,81,false,stim,false,2,1565.0,0,0,1,42950,WMM1,1512639,false,false,1412,image-keyboard-response,34
true,9,1,2,0,false,q,false,false,0.0-2.0-0.36-0.325-3.325,0,0,0,90,false,stim,true,1,894.0,0,0,0,42950,WMM1,1515047,false,false,1415,image-keyboard-response,35
true,9,2,2,2,true,d,false,true,0.0-2.0-0.36-0.326-3.326,0,0,0,68,false,stim,false,0,690.0,0,0,2,42950,WMM1,1517252,false,false,1418,image-keyboard-response,36
true,9,0,2,0,true,q,false,true,0.0-2.0-0.36-0.327-3.327,0,0,0,81,false,stim,false,1,1049.0,0,0,0,42950,WMM1,1519817,false,false,1421,image-keyboard-response,37
true,9,1,2,1,true,z,false,true,0.0-2.0-0.36-0.328-3.328,0,0,0,90,false,stim,false,2,655.0000000002328,0,0,1,42950,WMM1,1521989,false,false,1424,image-keyboard-response,38
true,9,1,2,1,true,z,false,true,0.0-2.0-0.36-0.329-3.329,0,0,0,90,false,stim,false,2,757.0,0,0,1,42950,WMM1,1524261,false,false,1427,image-keyboard-response,39
true,9,2,2,2,true,d,false,true,0.0-2.0-0.36-0.330-3.330,0,0,0,68,false,stim,false,0,621.0,0,0,2,42950,WMM1,1526398,false,false,1430,image-keyboard-response,40
true,9,2,2,2,true,d,false,true,0.0-2.0-0.36-0.331-3.331,0,0,0,68,false,stim,false,0,622.0000000002328,0,0,2,42950,WMM1,1528535,false,false,1433,image-keyboard-response,41
true,9,1,2,0,false,q,false,false,0.0-2.0-0.36-0.332-3.332,0,0,0,90,false,stim,true,1,837.0,0,0,0,42950,WMM1,1530887,false,false,1436,image-keyboard-response,42
true,9,1,2,1,true,z,false,true,0.0-2.0-0.37-0.333-3.333,0,0,0,90,false,stim,false,2,1296.0,0,0,1,42950,WMM1,1533700,false,false,1439,image-keyboard-response,43
true,9,2,2,2,true,d,false,true,0.0-2.0-0.37-0.334-3.334,0,0,0,68,false,stim,false,0,914.0,0,0,2,42950,WMM1,1536130,false,false,1442,image-keyboard-response,44
true,9,1,2,1,true,z,false,true,0.0-2.0-0.37-0.335-3.335,0,0,0,90,false,stim,false,2,520.0,0,0,1,42950,WMM1,1538166,false,false,1445,image-keyboard-response,45
true,9,2,2,2,true,d,false,true,0.0-2.0-0.37-0.336-3.336,0,0,0,68,false,stim,false,0,924.0,0,0,2,42950,WMM1,1540607,false,false,1448,image-keyboard-response,46
true,9,0,2,0,true,q,false,true,0.0-2.0-0.37-0.337-3.337,0,0,0,81,false,stim,false,1,1206.0,0,0,0,42950,WMM1,1543330,false,false,1451,image-keyboard-response,47
true,9,0,2,0,true,q,false,true,0.0-2.0-0.37-0.338-3.338,0,0,0,81,false,stim,false,1,1105.0,0,0,0,42950,WMM1,1545951,false,false,1454,image-keyboard-response,48
true,9,1,2,1,true,z,false,true,0.0-2.0-0.37-0.339-3.339,0,0,0,90,false,stim,false,2,969.0,0,0,1,42950,WMM1,1548438,false,false,1457,image-keyboard-response,49
true,9,2,2,2,true,d,false,true,0.0-2.0-0.37-0.340-3.340,0,0,0,68,false,stim,false,0,711.0,0,0,2,42950,WMM1,1550665,false,false,1460,image-keyboard-response,50
true,9,0,2,0,true,q,false,true,0.0-2.0-0.37-0.341-3.341,0,0,0,81,false,stim,false,1,1151.0,0,0,0,42950,WMM1,1553331,false,false,1463,image-keyboard-response,51
true,9,1,2,1,true,z,false,true,0.0-2.0-0.38-0.342-3.342,0,0,0,90,false,stim,false,2,935.0,0,0,1,42950,WMM1,1555783,false,false,1466,image-keyboard-response,52
true,9,0,2,0,true,q,false,true,0.0-2.0-0.38-0.343-3.343,0,0,0,81,false,stim,false,1,1028.0,0,0,0,42950,WMM1,1558326,false,false,1469,image-keyboard-response,53
true,9,0,2,0,true,q,false,true,0.0-2.0-0.38-0.344-3.344,0,0,0,81,false,stim,false,1,1341.9999999997672,0,0,0,42950,WMM1,1561184,false,false,1472,image-keyboard-response,54
true,9,1,2,1,true,z,false,true,0.0-2.0-0.38-0.345-3.345,0,0,0,90,false,stim,false,2,993.0,0,0,1,42950,WMM1,1563693,false,false,1475,image-keyboard-response,55
true,9,2,2,2,true,d,false,true,0.0-2.0-0.38-0.346-3.346,0,0,0,68,false,stim,false,0,745.9999999997672,0,0,2,42950,WMM1,1565954,false,false,1478,image-keyboard-response,56
true,9,2,2,2,true,d,false,true,0.0-2.0-0.38-0.347-3.347,0,0,0,68,false,stim,false,0,700.0,0,0,2,42950,WMM1,1568170,false,false,1481,image-keyboard-response,57
true,9,0,2,0,true,q,false,false,0.0-2.0-0.38-0.348-3.348,0,0,0,81,false,stim,false,1,1197.0,0,0,0,42950,WMM1,1570882,false,true,1484,image-keyboard-response,58
true,10,2,1,0,false,q,false,false,0.0-2.0-0.38-0.349-3.349,0,0,0,68,true,stim,true,2,1218.0,0,0,2,42950,WMM1,1573615,false,false,1487,image-keyboard-response,1
false,10,-1,1,0,false,q,true,false,0.0-2.0-0.38-0.350-3.350,0,0,0,,false,stim,false,1,,0,0,1,42950,WMM1,1578131,false,false,1490,image-keyboard-response,2
true,10,1,1,1,true,z,false,false,0.0-2.0-0.39-0.351-3.351,0,0,0,90,false,stim,false,0,1279.0,0,0,0,42950,WMM1,1580927,false,true,1493,image-keyboard-response,3
true,10,2,1,1,false,z,true,false,0.0-2.0-0.39-0.352-3.352,0,0,0,68,false,stim,false,0,1016.0,0,0,0,42950,WMM1,1583459,false,false,1496,image-keyboard-response,4
true,10,2,1,0,false,q,false,false,0.0-2.0-0.39-0.353-3.353,0,0,0,68,false,stim,true,2,1879.9999999997672,0,0,2,42950,WMM1,1586856,false,false,1499,image-keyboard-response,5
false,10,-1,1,0,false,q,true,false,0.0-2.0-0.39-0.354-3.354,0,0,0,,false,stim,false,1,,0,0,1,42950,WMM1,1591372,false,false,1502,image-keyboard-response,6
true,10,2,1,0,false,q,false,false,0.0-2.0-0.39-0.355-3.355,0,0,0,68,false,stim,true,2,492.0,0,0,2,42950,WMM1,1593382,false,false,1505,image-keyboard-response,7
true,10,1,1,0,false,q,true,false,0.0-2.0-0.39-0.356-3.356,0,0,0,90,false,stim,false,2,755.9999999997672,0,0,2,42950,WMM1,1595654,false,false,1508,image-keyboard-response,8
true,10,0,1,1,false,z,false,false,0.0-2.0-0.39-0.357-3.357,0,0,0,81,false,stim,true,0,531.0,0,0,0,42950,WMM1,1597702,false,false,1511,image-keyboard-response,9
true,10,0,1,0,true,q,false,true,0.0-2.0-0.39-0.358-3.358,0,0,0,81,false,stim,false,1,1520.0,0,0,1,42950,WMM1,1600739,false,false,1514,image-keyboard-response,10
true,10,0,1,0,true,q,false,true,0.0-2.0-0.39-0.359-3.359,0,0,0,81,false,stim,false,1,925.9999999997672,0,0,1,42950,WMM1,1603181,false,false,1517,image-keyboard-response,11
true,10,1,1,1,true,z,false,true,0.0-2.0-0.40-0.360-3.360,0,0,0,90,false,stim,false,0,1330.0,0,0,0,42950,WMM1,1606027,false,false,1520,image-keyboard-response,12
true,10,0,1,0,true,q,false,true,0.0-2.0-0.40-0.361-3.361,0,0,0,81,false,stim,false,1,936.9999999997672,0,0,1,42950,WMM1,1608480,false,false,1523,image-keyboard-response,13
true,10,2,1,0,false,q,false,false,0.0-2.0-0.40-0.362-3.362,0,0,0,68,false,stim,true,2,688.0,0,0,2,42950,WMM1,1610685,false,false,1526,image-keyboard-response,14
true,10,1,1,0,false,q,false,false,0.0-2.0-0.40-0.363-3.363,0,0,0,90,false,stim,true,1,1095.0,0,0,1,42950,WMM1,1613295,false,false,1529,image-keyboard-response,15
true,10,0,1,1,false,z,false,false,0.0-2.0-0.40-0.364-3.364,0,0,0,81,false,stim,true,0,890.9999999997672,0,0,0,42950,WMM1,1615702,false,false,1532,image-keyboard-response,16
true,10,2,1,0,false,q,false,false,0.0-2.0-0.40-0.365-3.365,0,0,0,68,false,stim,true,2,2251.0,0,0,2,42950,WMM1,1619471,false,false,1535,image-keyboard-response,17
true,10,0,1,0,true,q,false,true,0.0-2.0-0.40-0.366-3.366,0,0,0,81,false,stim,false,1,632.0,0,0,1,42950,WMM1,1621620,false,false,1538,image-keyboard-response,18
true,10,2,1,1,false,z,true,false,0.0-2.0-0.40-0.367-3.367,0,0,0,68,false,stim,false,0,1284.0,0,0,0,42950,WMM1,1624421,false,false,1541,image-keyboard-response,19
true,10,2,1,0,false,q,false,false,0.0-2.0-0.40-0.368-3.368,0,0,0,68,false,stim,true,2,1904.9999999997672,0,0,2,42950,WMM1,1627841,false,false,1544,image-keyboard-response,20
true,10,0,1,0,true,q,false,true,0.0-2.0-0.41-0.369-3.369,0,0,0,81,false,stim,false,1,899.9999999997672,0,0,1,42950,WMM1,1630259,false,false,1547,image-keyboard-response,21
true,10,0,1,0,true,q,false,true,0.0-2.0-0.41-0.370-3.370,0,0,0,81,false,stim,false,1,993.0,0,0,1,42950,WMM1,1632769,false,false,1550,image-keyboard-response,22
true,10,1,1,0,false,q,true,false,0.0-2.0-0.41-0.371-3.371,0,0,0,90,false,stim,false,2,1250.0,0,0,2,42950,WMM1,1635536,false,false,1553,image-keyboard-response,23
true,10,1,1,1,true,z,false,true,0.0-2.0-0.41-0.372-3.372,0,0,0,90,false,stim,false,0,1622.0,0,0,0,42950,WMM1,1638675,false,false,1556,image-keyboard-response,24
true,10,2,1,0,false,q,false,false,0.0-2.0-0.41-0.373-3.373,0,0,0,68,false,stim,true,2,1273.0,0,0,2,42950,WMM1,1641465,false,false,1559,image-keyboard-response,25
true,10,1,1,1,true,z,false,true,0.0-2.0-0.41-0.374-3.374,0,0,0,90,false,stim,false,0,1237.9999999997672,0,0,0,42950,WMM1,1644221,false,false,1562,image-keyboard-response,26
true,10,1,1,1,true,z,false,true,0.0-2.0-0.41-0.375-3.375,0,0,0,90,false,stim,false,0,766.0,0,0,0,42950,WMM1,1646505,false,false,1565,image-keyboard-response,27
true,10,0,1,0,true,q,false,true,0.0-2.0-0.41-0.376-3.376,0,0,0,81,false,stim,false,1,1036.0,0,0,1,42950,WMM1,1649059,false,false,1568,image-keyboard-response,28
true,10,1,1,0,false,q,true,false,0.0-2.0-0.41-0.377-3.377,0,0,0,90,false,stim,false,2,1261.0,0,0,2,42950,WMM1,1651837,false,false,1571,image-keyboard-response,29
true,10,0,1,0,true,q,false,true,0.0-2.0-0.42-0.378-3.378,0,0,0,81,false,stim,false,1,992.0,0,0,1,42950,WMM1,1654346,false,false,1574,image-keyboard-response,30
true,10,1,1,1,true,z,false,true,0.0-2.0-0.42-0.379-3.379,0,0,0,90,false,stim,false,0,597.0,0,0,0,42950,WMM1,1656461,false,false,1577,image-keyboard-response,31
true,10,0,1,0,true,q,false,true,0.0-2.0-0.42-0.380-3.380,0,0,0,81,false,stim,false,1,1294.0,0,0,1,42950,WMM1,1659274,false,false,1580,image-keyboard-response,32
true,10,2,1,0,false,q,false,false,0.0-2.0-0.42-0.381-3.381,0,0,0,68,false,stim,true,2,1114.0000000002328,0,0,2,42950,WMM1,1661906,false,false,1583,image-keyboard-response,33
true,10,1,1,1,true,z,false,true,0.0-2.0-0.42-0.382-3.382,0,0,0,90,false,stim,false,0,980.0,0,0,0,42950,WMM1,1664404,false,false,1586,image-keyboard-response,34
true,10,1,1,0,false,q,true,false,0.0-2.0-0.42-0.383-3.383,0,0,0,90,false,stim,false,2,1892.0,0,0,2,42950,WMM1,1667813,false,false,1589,image-keyboard-response,35
true,10,0,1,0,true,q,false,true,0.0-2.0-0.42-0.384-3.384,0,0,0,81,false,stim,false,2,1116.0,0,0,2,42950,WMM1,1670445,false,false,1592,image-keyboard-response,36
true,10,1,1,1,true,z,false,false,0.0-2.0-0.42-0.385-3.385,0,0,0,90,false,stim,false,0,698.0,0,0,0,42950,WMM1,1672661,false,true,1595,image-keyboard-response,37
true,10,0,1,0,true,q,false,false,0.0-2.0-0.42-0.386-3.386,0,0,0,81,false,stim,false,1,844.0,0,0,1,42950,WMM1,1675023,false,true,1598,image-keyboard-response,38
true,10,0,1,0,true,q,false,true,0.0-2.0-0.43-0.387-3.387,0,0,0,81,false,stim,false,2,1779.0,0,0,2,42950,WMM1,1678320,false,false,1601,image-keyboard-response,39
true,10,2,1,1,false,z,true,false,0.0-2.0-0.43-0.388-3.388,0,0,0,68,false,stim,false,0,1351.9999999997672,0,0,0,42950,WMM1,1681189,false,false,1604,image-keyboard-response,40
true,10,1,1,0,false,q,false,false,0.0-2.0-0.43-0.389-3.389,0,0,0,90,false,stim,true,1,2274.0,0,0,1,42950,WMM1,1684980,false,false,1607,image-keyboard-response,41
true,10,1,1,0,false,q,true,true,0.0-2.0-0.43-0.390-3.390,0,0,0,90,false,stim,false,2,1182.0,0,0,2,42950,WMM1,1687680,false,true,1610,image-keyboard-response,42
true,10,0,1,1,false,z,false,false,0.0-2.0-0.43-0.391-3.391,0,0,0,81,false,stim,true,0,1408.0000000002328,0,0,0,42950,WMM1,1690605,false,false,1613,image-keyboard-response,43
true,10,1,1,0,false,q,false,false,0.0-2.0-0.43-0.392-3.392,0,0,0,90,false,stim,true,1,779.0,0,0,1,42950,WMM1,1692900,false,false,1616,image-keyboard-response,44
false,10,-1,1,1,false,z,true,false,0.0-2.0-0.43-0.393-3.393,0,0,0,,false,stim,false,0,,0,0,0,42950,WMM1,1697417,false,false,1619,image-keyboard-response,45
true,10,2,1,0,false,q,true,false,0.0-2.0-0.43-0.394-3.394,0,0,0,68,false,stim,false,1,1176.0,0,0,1,42950,WMM1,1700111,false,false,1622,image-keyboard-response,46
true,10,1,1,0,false,q,true,false,0.0-2.0-0.43-0.395-3.395,0,0,0,90,false,stim,false,2,1398.0,0,0,2,42950,WMM1,1703026,false,false,1625,image-keyboard-response,47
true,10,0,1,0,true,q,false,false,0.0-2.0-0.44-0.396-3.396,0,0,0,81,false,stim,false,2,1599.0,0,0,2,42950,WMM1,1706142,false,true,1628,image-keyboard-response,48
true,10,2,1,0,false,q,false,false,0.0-2.0-0.44-0.397-3.397,0,0,0,68,false,stim,true,2,542.0000000002328,0,0,2,42950,WMM1,1708201,false,false,1631,image-keyboard-response,49
true,11,0,2,1,false,z,false,false,0.0-2.0-0.44-0.398-3.398,0,0,0,81,true,stim,true,0,665.0,0,0,1,42950,WMM1,1710383,false,false,1634,image-keyboard-response,1
true,11,0,2,0,true,q,false,false,0.0-2.0-0.44-0.399-3.399,0,0,0,81,false,stim,false,1,1227.0,0,0,0,42950,WMM1,1713128,false,true,1637,image-keyboard-response,2
true,11,0,2,1,false,z,false,false,0.0-2.0-0.44-0.400-3.400,0,0,0,81,false,stim,true,0,1330.0,0,0,1,42950,WMM1,1715975,false,false,1640,image-keyboard-response,3
true,11,1,2,1,true,z,false,false,0.0-2.0-0.44-0.401-3.401,0,0,0,90,false,stim,false,0,991.0,0,0,1,42950,WMM1,1718483,false,true,1643,image-keyboard-response,4
true,11,0,2,2,false,d,false,false,0.0-2.0-0.44-0.402-3.402,0,0,0,81,false,stim,true,0,1396.0,0,0,2,42950,WMM1,1721396,false,false,1646,image-keyboard-response,5
true,11,0,2,0,true,q,false,true,0.0-2.0-0.44-0.403-3.403,0,0,0,81,false,stim,false,1,1385.0,0,0,0,42950,WMM1,1724298,false,false,1649,image-keyboard-response,6
true,11,0,2,0,true,q,false,true,0.0-2.0-0.44-0.404-3.404,0,0,0,81,false,stim,false,1,1002.9999999997672,0,0,0,42950,WMM1,1726819,false,false,1652,image-keyboard-response,7
true,11,0,2,0,true,q,false,true,0.0-2.0-0.45-0.405-3.405,0,0,0,81,false,stim,false,1,698.0,0,0,0,42950,WMM1,1729035,false,false,1655,image-keyboard-response,8
true,11,2,2,2,true,d,false,true,0.0-2.0-0.45-0.406-3.406,0,0,0,68,false,stim,false,0,1103.0,0,0,2,42950,WMM1,1731656,false,false,1658,image-keyboard-response,9
true,11,1,2,1,true,z,false,true,0.0-2.0-0.45-0.407-3.407,0,0,0,90,false,stim,false,0,890.0,0,0,1,42950,WMM1,1734065,false,false,1661,image-keyboard-response,10
true,11,0,2,0,true,q,false,false,0.0-2.0-0.45-0.408-3.408,0,0,0,81,false,stim,false,1,516.0,0,0,0,42950,WMM1,1736100,false,true,1664,image-keyboard-response,11
true,11,1,2,2,false,d,true,false,0.0-2.0-0.45-0.409-3.409,0,0,0,90,false,stim,false,0,2836.0,0,0,2,42950,WMM1,1740454,false,false,1667,image-keyboard-response,12
false,11,-1,2,1,false,z,true,false,0.0-2.0-0.45-0.410-3.410,0,0,0,,false,stim,false,0,,0,0,1,42950,WMM1,1744977,false,false,1670,image-keyboard-response,13
true,11,2,2,1,false,z,true,false,0.0-2.0-0.45-0.411-3.411,0,0,0,68,false,stim,false,0,654.0,0,0,1,42950,WMM1,1747148,false,false,1673,image-keyboard-response,14
true,11,1,2,2,false,d,true,false,0.0-2.0-0.45-0.412-3.412,0,0,0,90,false,stim,false,0,1948.0000000002328,0,0,2,42950,WMM1,1750613,false,false,1676,image-keyboard-response,15
true,11,0,2,0,true,q,false,true,0.0-2.0-0.45-0.413-3.413,0,0,0,81,false,stim,false,1,1183.0,0,0,0,42950,WMM1,1753313,false,false,1679,image-keyboard-response,16
true,11,1,2,1,true,z,false,true,0.0-2.0-0.46-0.414-3.414,0,0,0,90,false,stim,false,0,1519.0,0,0,1,42950,WMM1,1756350,false,false,1682,image-keyboard-response,17
true,11,0,2,0,true,q,false,true,0.0-2.0-0.46-0.415-3.415,0,0,0,81,false,stim,false,1,801.0,0,0,0,42950,WMM1,1758669,false,false,1685,image-keyboard-response,18
true,11,2,2,2,true,d,false,true,0.0-2.0-0.46-0.416-3.416,0,0,0,68,false,stim,false,0,586.0,0,0,2,42950,WMM1,1760773,false,false,1688,image-keyboard-response,19
true,11,0,2,0,true,q,false,false,0.0-2.0-0.46-0.417-3.417,0,0,0,81,false,stim,false,1,528.0,0,0,0,42950,WMM1,1762820,false,true,1691,image-keyboard-response,20
true,11,1,2,1,true,z,false,true,0.0-2.0-0.46-0.418-3.418,0,0,0,90,false,stim,false,0,1687.0000000002328,0,0,1,42950,WMM1,1766025,false,false,1694,image-keyboard-response,21
true,11,2,2,2,true,d,false,false,0.0-2.0-0.46-0.419-3.419,0,0,0,68,false,stim,false,0,508.0,0,0,2,42950,WMM1,1768051,false,true,1697,image-keyboard-response,22
true,11,0,2,2,false,d,false,false,0.0-2.0-0.46-0.420-3.420,0,0,0,81,false,stim,true,0,866.0,0,1,2,42950,WMM1,1770436,false,false,1700,image-keyboard-response,23
true,11,1,2,1,true,z,false,true,0.0-2.0-0.46-0.421-3.421,0,0,0,90,false,stim,false,0,856.0,0,0,1,42950,WMM1,1772810,false,false,1703,image-keyboard-response,24
true,11,0,2,0,true,q,false,true,0.0-2.0-0.46-0.422-3.422,0,0,0,81,false,stim,false,1,1361.0000000002328,0,0,0,42950,WMM1,1775689,false,false,1706,image-keyboard-response,25
true,11,1,2,2,false,d,true,false,0.0-2.0-0.47-0.423-3.423,0,0,0,90,false,stim,false,0,969.0,0,1,2,42950,WMM1,1778176,false,false,1709,image-keyboard-response,26
true,11,1,2,1,true,z,false,true,0.0-2.0-0.47-0.424-3.424,0,0,0,90,false,stim,false,0,1036.0,0,0,1,42950,WMM1,1780730,false,false,1712,image-keyboard-response,27
true,11,2,2,1,false,z,true,false,0.0-2.0-0.47-0.425-3.425,0,0,0,68,false,stim,false,0,530.0,0,0,1,42950,WMM1,1782778,false,false,1715,image-keyboard-response,28
true,11,0,2,0,true,q,false,true,0.0-2.0-0.47-0.426-3.426,0,0,0,81,false,stim,false,1,721.9999999997672,0,0,0,42950,WMM1,1785016,false,false,1718,image-keyboard-response,29
true,11,0,2,0,true,q,false,true,0.0-2.0-0.47-0.427-3.427,0,0,0,81,false,stim,false,1,1183.0,0,0,0,42950,WMM1,1787716,false,false,1721,image-keyboard-response,30
true,11,0,2,0,true,q,false,true,0.0-2.0-0.47-0.428-3.428,0,0,0,81,false,stim,false,1,777.0,0,0,0,42950,WMM1,1790012,false,false,1724,image-keyboard-response,31
true,11,1,2,2,false,d,true,false,0.0-2.0-0.47-0.429-3.429,0,0,0,90,false,stim,false,0,1058.0,0,1,2,42950,WMM1,1792588,false,false,1727,image-keyboard-response,32
true,12,1,3,0,false,q,false,true,0.0-2.0-0.47-0.430-3.430,0,0,1,90,true,stim,true,1,686.0,0,0,1,42950,WMM1,1794793,false,true,1730,image-keyboard-response,1
true,12,2,3,2,true,d,false,true,0.0-2.0-0.47-0.431-3.431,0,0,1,68,false,stim,false,2,699.0,0,1,2,42950,WMM1,1797009,false,false,1733,image-keyboard-response,2
true,12,1,3,0,false,q,false,false,0.0-2.0-0.48-0.432-3.432,0,0,1,90,false,stim,true,1,1092.0,0,0,1,42950,WMM1,1799619,false,false,1736,image-keyboard-response,3
true,12,0,3,1,false,z,false,false,0.0-2.0-0.48-0.433-3.433,0,0,1,81,false,stim,true,0,1115.0,0,0,0,42950,WMM1,1802252,false,false,1739,image-keyboard-response,4
true,12,1,3,1,true,z,false,true,0.0-2.0-0.48-0.434-3.434,0,0,1,90,false,stim,false,0,1654.0,0,0,0,42950,WMM1,1805424,false,false,1742,image-keyboard-response,5
true,12,2,3,0,false,q,true,false,0.0-2.0-0.48-0.435-3.435,0,0,1,68,false,stim,false,1,1316.0,0,0,1,42950,WMM1,1808258,false,false,1745,image-keyboard-response,6
true,12,0,3,0,true,q,false,true,0.0-2.0-0.48-0.436-3.436,0,0,1,81,false,stim,false,1,969.0000000002328,0,0,1,42950,WMM1,1810745,false,false,1748,image-keyboard-response,7
true,12,2,3,2,true,d,false,true,0.0-2.0-0.48-0.437-3.437,0,0,1,68,false,stim,false,2,1069.0,0,1,2,42950,WMM1,1813332,false,false,1751,image-keyboard-response,8
true,12,2,3,2,true,d,false,true,0.0-2.0-0.48-0.438-3.438,0,0,1,68,false,stim,false,2,1226.9999999997672,0,1,2,42950,WMM1,1816077,false,false,1754,image-keyboard-response,9
true,12,2,3,2,true,d,false,true,0.0-2.0-0.48-0.439-3.439,0,0,1,68,false,stim,false,2,1037.0,0,1,2,42950,WMM1,1818632,false,false,1757,image-keyboard-response,10
true,12,0,3,1,false,z,false,true,0.0-2.0-0.48-0.440-3.440,0,0,1,81,false,stim,true,0,991.0,0,0,0,42950,WMM1,1821140,false,true,1760,image-keyboard-response,11
true,12,0,3,1,false,z,false,false,0.0-2.0-0.49-0.441-3.441,0,0,1,81,false,stim,true,0,598.0,0,0,0,42950,WMM1,1823255,false,false,1763,image-keyboard-response,12
true,12,1,3,0,false,q,false,false,0.0-2.0-0.49-0.442-3.442,0,0,1,90,false,stim,true,1,1034.9999999997672,0,0,1,42950,WMM1,1825809,false,false,1766,image-keyboard-response,13
true,12,2,3,0,false,q,true,false,0.0-2.0-0.49-0.443-3.443,0,0,1,68,false,stim,false,1,1488.0,0,0,1,42950,WMM1,1828813,false,false,1769,image-keyboard-response,14
true,12,2,3,2,true,d,false,true,0.0-2.0-0.49-0.444-3.444,0,0,1,68,false,stim,false,2,1025.0,0,1,2,42950,WMM1,1831355,false,false,1772,image-keyboard-response,15
true,12,1,3,1,true,z,false,true,0.0-2.0-0.49-0.445-3.445,0,0,1,90,false,stim,false,0,1093.0000000002328,0,0,0,42950,WMM1,1833966,false,false,1775,image-keyboard-response,16
true,12,0,3,0,true,q,false,true,0.0-2.0-0.49-0.446-3.446,0,0,1,81,false,stim,false,1,1204.0,0,0,1,42950,WMM1,1836687,false,false,1778,image-keyboard-response,17
true,12,2,3,2,true,d,false,true,0.0-2.0-0.49-0.447-3.447,0,0,1,68,false,stim,false,2,833.9999999997672,0,1,2,42950,WMM1,1839039,false,false,1781,image-keyboard-response,18
true,12,1,3,1,true,z,false,true,0.0-2.0-0.49-0.448-3.448,0,0,1,90,false,stim,false,0,676.0,0,0,0,42950,WMM1,1841233,false,false,1784,image-keyboard-response,19
true,12,2,3,2,true,d,false,true,0.0-2.0-0.49-0.449-3.449,0,0,1,68,false,stim,false,2,934.0,0,1,2,42950,WMM1,1843685,false,false,1787,image-keyboard-response,20
true,12,2,3,2,true,d,false,true,0.0-2.0-0.50-0.450-3.450,0,0,1,68,false,stim,false,2,1047.0,0,1,2,42950,WMM1,1846250,false,false,1790,image-keyboard-response,21
true,12,0,3,1,false,z,false,false,0.0-2.0-0.50-0.451-3.451,0,0,1,81,false,stim,true,0,811.0,0,0,0,42950,WMM1,1848579,false,false,1793,image-keyboard-response,22
true,12,0,3,0,true,q,false,true,0.0-2.0-0.50-0.452-3.452,0,0,1,81,false,stim,false,1,686.0,0,0,1,42950,WMM1,1850784,false,false,1796,image-keyboard-response,23
true,12,1,3,1,true,z,false,true,0.0-2.0-0.50-0.453-3.453,0,0,1,90,false,stim,false,0,552.9999999997672,0,0,0,42950,WMM1,1852855,false,false,1799,image-keyboard-response,24
true,12,2,3,2,true,d,false,true,0.0-2.0-0.50-0.454-3.454,0,0,1,68,false,stim,false,2,855.0,0,1,2,42950,WMM1,1855228,false,false,1802,image-keyboard-response,25
true,12,2,3,2,true,d,false,true,0.0-2.0-0.50-0.455-3.455,0,0,1,68,false,stim,false,2,562.0,0,1,2,42950,WMM1,1857310,false,false,1805,image-keyboard-response,26
true,12,1,3,1,true,z,false,true,0.0-2.0-0.50-0.456-3.456,0,0,1,90,false,stim,false,0,1100.9999999997672,0,0,0,42950,WMM1,1859930,false,false,1808,image-keyboard-response,27
true,12,0,3,0,true,q,false,true,0.0-2.0-0.50-0.457-3.457,0,0,1,81,false,stim,false,1,597.0,0,0,1,42950,WMM1,1862046,false,false,1811,image-keyboard-response,28
true,12,1,3,0,false,q,false,false,0.0-2.0-0.50-0.458-3.458,0,0,1,90,false,stim,true,1,551.0,0,0,1,42950,WMM1,1864115,false,false,1814,image-keyboard-response,29
true,12,1,3,1,true,z,false,true,0.0-2.0-0.51-0.459-3.459,0,0,1,90,false,stim,false,0,665.0,0,0,0,42950,WMM1,1866298,false,false,1817,image-keyboard-response,30
true,12,2,3,2,true,d,false,true,0.0-2.0-0.51-0.460-3.460,0,0,1,68,false,stim,false,2,653.0,0,0,2,42950,WMM1,1868470,false,false,1820,image-keyboard-response,31
true,12,1,3,1,true,z,false,true,0.0-2.0-0.51-0.461-3.461,0,0,1,90,false,stim,false,0,911.0,0,0,0,42950,WMM1,1870899,false,false,1823,image-keyboard-response,32
true,12,0,3,0,true,q,false,true,0.0-2.0-0.51-0.462-3.462,0,0,1,81,false,stim,false,1,1295.0,0,0,1,42950,WMM1,1873712,false,false,1826,image-keyboard-response,33
true,12,1,3,1,true,z,false,true,0.0-2.0-0.51-0.463-3.463,0,0,1,90,false,stim,false,0,799.0,0,0,0,42950,WMM1,1876030,false,false,1829,image-keyboard-response,34
true,12,2,3,2,true,d,false,true,0.0-2.0-0.51-0.464-3.464,0,0,1,68,false,stim,false,2,765.0,0,0,2,42950,WMM1,1878314,false,false,1832,image-keyboard-response,35
true,12,0,3,0,true,q,false,true,0.0-2.0-0.51-0.465-3.465,0,0,1,81,false,stim,false,1,923.0,0,0,1,42950,WMM1,1880755,false,false,1835,image-keyboard-response,36
true,12,0,3,0,true,q,false,true,0.0-2.0-0.51-0.466-3.466,0,0,1,81,false,stim,false,1,630.0,0,0,1,42950,WMM1,1882904,false,false,1838,image-keyboard-response,37
true,13,2,4,1,false,z,false,false,0.0-2.0-0.51-0.467-3.467,0,0,0,68,true,stim,true,2,645.0,0,0,2,42950,WMM1,1885068,false,false,1841,image-keyboard-response,1
true,13,0,4,1,false,z,true,false,0.0-2.0-0.52-0.468-3.468,0,0,0,81,false,stim,false,2,1672.0,0,0,2,42950,WMM1,1888259,false,false,1844,image-keyboard-response,2
true,13,1,4,2,false,d,true,false,0.0-2.0-0.52-0.469-3.469,0,0,0,90,false,stim,false,0,1789.0,0,0,1,42950,WMM1,1891566,false,false,1847,image-keyboard-response,3
true,13,1,4,2,false,d,false,false,0.0-2.0-0.52-0.470-3.470,0,0,0,90,false,stim,true,1,2521.0,0,0,0,42950,WMM1,1895605,false,false,1850,image-keyboard-response,4
true,13,2,4,2,true,d,false,true,0.0-2.0-0.52-0.471-3.471,0,0,0,68,false,stim,false,0,1654.0,0,0,1,42950,WMM1,1898777,false,false,1853,image-keyboard-response,5
true,13,1,4,2,false,d,false,false,0.0-2.0-0.52-0.472-3.472,0,0,0,90,false,stim,true,1,799.0,0,0,0,42950,WMM1,1901095,false,false,1856,image-keyboard-response,6
true,13,2,4,2,true,d,false,true,0.0-2.0-0.52-0.473-3.473,0,0,0,68,false,stim,false,0,1091.0,0,0,1,42950,WMM1,1903705,false,false,1859,image-keyboard-response,7
true,13,1,4,1,true,z,false,true,0.0-2.0-0.52-0.474-3.474,0,0,0,90,false,stim,false,2,866.9999999997672,0,0,2,42950,WMM1,1906090,false,false,1862,image-keyboard-response,8
true,13,1,4,1,true,z,false,true,0.0-2.0-0.52-0.475-3.475,0,0,0,90,false,stim,false,2,698.0,0,0,2,42950,WMM1,1908307,false,false,1865,image-keyboard-response,9
true,13,0,4,2,false,d,true,false,0.0-2.0-0.52-0.476-3.476,0,0,0,81,false,stim,false,1,833.0,0,0,0,42950,WMM1,1910658,false,false,1868,image-keyboard-response,10
true,13,1,4,2,false,d,false,false,0.0-2.0-0.53-0.477-3.477,0,0,0,90,false,stim,true,1,933.0,0,0,0,42950,WMM1,1913110,false,false,1871,image-keyboard-response,11
true,13,1,4,2,false,d,true,false,0.0-2.0-0.53-0.478-3.478,0,0,0,90,false,stim,false,0,1113.0,0,0,1,42950,WMM1,1915743,false,false,1874,image-keyboard-response,12
true,13,2,4,1,false,z,false,false,0.0-2.0-0.53-0.479-3.479,0,0,0,68,false,stim,true,2,1226.0,0,0,2,42950,WMM1,1918488,false,false,1877,image-keyboard-response,13
true,13,0,4,2,false,d,false,false,0.0-2.0-0.53-0.480-3.480,0,0,0,81,false,stim,true,0,2374.0,0,0,1,42950,WMM1,1922381,false,false,1880,image-keyboard-response,14
true,13,1,4,1,true,z,false,true,0.0-2.0-0.53-0.481-3.481,0,0,0,90,false,stim,false,2,775.0,0,0,2,42950,WMM1,1924675,false,false,1883,image-keyboard-response,15
true,13,1,4,1,true,z,false,true,0.0-2.0-0.53-0.482-3.482,0,0,0,90,false,stim,false,2,607.0,0,0,2,42950,WMM1,1926802,false,false,1886,image-keyboard-response,16
true,13,0,4,2,false,d,true,false,0.0-2.0-0.53-0.483-3.483,0,0,0,81,false,stim,false,1,2812.0,0,0,0,42950,WMM1,1931133,false,false,1889,image-keyboard-response,17
true,13,1,4,2,false,d,true,false,0.0-2.0-0.53-0.484-3.484,0,0,0,90,false,stim,false,0,866.0,0,0,1,42950,WMM1,1933518,false,false,1892,image-keyboard-response,18
true,13,1,4,2,false,d,false,false,0.0-2.0-0.53-0.485-3.485,0,0,0,90,false,stim,true,1,1204.0000000002328,0,0,0,42950,WMM1,1936240,false,false,1895,image-keyboard-response,19
true,13,1,4,1,true,z,false,true,0.0-2.0-0.54-0.486-3.486,0,0,0,90,false,stim,false,2,594.0000000002328,0,0,2,42950,WMM1,1938355,false,false,1898,image-keyboard-response,20
true,13,1,4,1,true,z,false,false,0.0-2.0-0.54-0.487-3.487,0,0,0,90,false,stim,false,2,673.0000000002328,0,0,2,42950,WMM1,1940548,false,true,1901,image-keyboard-response,21
true,13,2,4,2,true,d,false,true,0.0-2.0-0.54-0.488-3.488,0,0,0,68,false,stim,false,0,685.9999999997672,0,0,1,42950,WMM1,1942753,false,false,1904,image-keyboard-response,22
true,13,2,4,2,true,d,false,true,0.0-2.0-0.54-0.489-3.489,0,0,0,68,false,stim,false,0,698.0000000002328,0,0,1,42950,WMM1,1944970,false,false,1907,image-keyboard-response,23
true,13,0,4,2,false,d,true,false,0.0-2.0-0.54-0.490-3.490,0,0,0,81,false,stim,false,1,1112.9999999997672,0,0,0,42950,WMM1,1947603,false,false,1910,image-keyboard-response,24
true,13,1,4,1,true,z,false,true,0.0-2.0-0.54-0.491-3.491,0,0,0,90,false,stim,false,2,854.0,0,0,2,42950,WMM1,1949976,false,false,1913,image-keyboard-response,25
true,13,1,4,2,false,d,false,false,0.0-2.0-0.54-0.492-3.492,0,0,0,90,false,stim,true,1,1968.0,0,0,0,42950,WMM1,1953463,false,false,1916,image-keyboard-response,26
true,13,2,4,2,true,d,false,true,0.0-2.0-0.54-0.493-3.493,0,0,0,68,false,stim,false,0,1013.0,0,0,1,42950,WMM1,1955996,false,false,1919,image-keyboard-response,27
true,13,2,4,2,true,d,false,true,0.0-2.0-0.54-0.494-3.494,0,0,0,68,false,stim,false,1,1618.0000000002328,0,0,0,42950,WMM1,1959133,false,false,1922,image-keyboard-response,28
true,13,2,4,2,true,d,false,true,0.0-2.0-0.55-0.495-3.495,0,0,0,68,false,stim,false,0,1102.0,0,0,1,42950,WMM1,1961755,false,false,1925,image-keyboard-response,29
true,13,0,4,1,false,z,true,false,0.0-2.0-0.55-0.496-3.496,0,0,0,81,false,stim,false,2,1126.0,0,0,2,42950,WMM1,1964400,false,false,1928,image-keyboard-response,30
true,13,2,4,2,true,d,false,true,0.0-2.0-0.55-0.497-3.497,0,0,0,68,false,stim,false,0,696.0,0,0,1,42950,WMM1,1966615,false,false,1931,image-keyboard-response,31
true,13,1,4,1,true,z,false,true,0.0-2.0-0.55-0.498-3.498,0,0,0,90,false,stim,false,2,1518.0,0,0,2,42950,WMM1,1969653,false,false,1934,image-keyboard-response,32
true,13,2,4,2,true,d,false,true,0.0-2.0-0.55-0.499-3.499,0,0,0,68,false,stim,false,1,640.0,0,0,0,42950,WMM1,1971812,false,false,1937,image-keyboard-response,33
true,13,2,4,2,true,d,false,true,0.0-2.0-0.55-0.500-3.500,0,0,0,68,false,stim,false,0,462.0,0,0,1,42950,WMM1,1973793,false,false,1940,image-keyboard-response,34
true,13,1,4,1,true,z,false,true,0.0-2.0-0.55-0.501-3.501,0,0,0,90,false,stim,false,2,572.0,0,0,2,42950,WMM1,1975885,false,false,1943,image-keyboard-response,35
true,13,2,4,2,true,d,false,true,0.0-2.0-0.55-0.502-3.502,0,0,0,68,false,stim,false,1,687.0,0,1,0,42950,WMM1,1978091,false,false,1946,image-keyboard-response,36
true,13,2,4,2,true,d,false,true,0.0-2.0-0.55-0.503-3.503,0,0,0,68,false,stim,false,1,674.0,0,1,0,42950,WMM1,1980285,false,false,1949,image-keyboard-response,37
true,13,2,4,2,true,d,false,true,0.0-2.0-0.56-0.504-3.504,0,0,0,68,false,stim,false,0,493.0,0,1,1,42950,WMM1,1982297,false,false,1952,image-keyboard-response,38
true,13,2,4,2,true,d,false,false,0.0-2.0-0.56-0.505-3.505,0,0,0,68,false,stim,false,1,653.0000000002328,0,1,0,42950,WMM1,1984470,false,true,1955,image-keyboard-response,39
true,13,2,4,2,true,d,false,true,0.0-2.0-0.56-0.506-3.506,0,0,0,68,false,stim,false,0,1473.9999999997672,0,1,1,42950,WMM1,1987462,false,false,1958,image-keyboard-response,40
true,13,2,4,2,true,d,false,true,0.0-2.0-0.56-0.507-3.507,0,0,0,68,false,stim,false,0,786.0,0,1,1,42950,WMM1,1989768,false,false,1961,image-keyboard-response,41
true,13,1,4,1,true,z,false,true,0.0-2.0-0.56-0.508-3.508,0,0,0,90,false,stim,false,2,1147.0,0,1,2,42950,WMM1,1992435,false,false,1964,image-keyboard-response,42
true,13,1,4,1,true,z,false,true,0.0-2.0-0.56-0.509-3.509,0,0,0,90,false,stim,false,2,754.0,0,1,2,42950,WMM1,1994707,false,false,1967,image-keyboard-response,43
true,13,1,4,1,true,z,false,true,0.0-2.0-0.56-0.510-3.510,0,0,0,90,false,stim,false,2,539.0,0,1,2,42950,WMM1,1996765,false,false,1970,image-keyboard-response,44
true,13,0,4,2,false,d,true,false,0.0-2.0-0.56-0.511-3.511,0,0,0,81,false,stim,false,1,1014.0,0,1,0,42950,WMM1,1999297,false,false,1973,image-keyboard-response,45
false,14,-1,0,2,false,d,true,false,0.0-2.0-0.56-0.512-3.512,1,1,1,,true,stim,false,2,,0,1,0,42950,WMM1,2083112,false,false,2055,image-keyboard-response,1
false,14,-1,0,2,false,d,true,false,0.0-2.0-0.57-0.513-3.513,1,1,1,,false,stim,false,2,,0,1,1,42950,WMM1,2087633,false,false,2058,image-keyboard-response,2
true,14,1,0,2,false,d,true,false,0.0-2.0-0.57-0.514-3.514,1,1,1,90,false,stim,false,2,2529.999999999767,0,1,0,42950,WMM1,2091682,false,false,2061,image-keyboard-response,3
true,14,2,0,1,false,z,true,false,0.0-2.0-0.57-0.515-3.515,1,1,1,68,false,stim,false,1,1022.9999999997672,0,1,2,42950,WMM1,2094225,false,false,2064,image-keyboard-response,4
false,14,-1,0,2,false,d,true,false,0.0-2.0-0.57-0.516-3.516,1,1,1,,false,stim,false,2,,0,1,1,42950,WMM1,2098746,false,false,2067,image-keyboard-response,5
true,14,1,0,2,false,d,true,false,0.0-2.0-0.57-0.517-3.517,1,1,1,90,false,stim,false,2,654.0,0,1,1,42950,WMM1,2100919,false,false,2070,image-keyboard-response,6
true,14,0,0,1,false,z,true,false,0.0-2.0-0.57-0.518-3.518,1,1,1,81,false,stim,false,1,1271.0000000004657,0,1,2,42950,WMM1,2103709,false,false,2073,image-keyboard-response,7
true,14,0,0,2,false,d,true,false,0.0-2.0-0.57-0.519-3.519,1,1,1,81,false,stim,false,2,1313.0,0,1,0,42950,WMM1,2106544,false,false,2076,image-keyboard-response,8
true,14,1,0,1,true,z,false,true,0.0-2.0-0.57-0.520-3.520,1,1,1,90,false,stim,false,1,876.0,0,1,2,42950,WMM1,2108941,false,false,2079,image-keyboard-response,9
true,14,2,0,2,true,d,false,false,0.0-2.0-0.57-0.521-3.521,1,1,1,68,false,stim,false,2,1506.0,0,1,0,42950,WMM1,2111967,false,true,2082,image-keyboard-response,10
true,14,1,0,1,true,z,false,true,0.0-2.0-0.58-0.522-3.522,1,1,1,90,false,stim,false,1,503.0,0,1,2,42950,WMM1,2113992,false,false,2085,image-keyboard-response,11
true,14,2,0,2,true,d,false,true,0.0-2.0-0.58-0.523-3.523,1,1,1,68,false,stim,false,2,977.0,0,1,1,42950,WMM1,2116490,false,false,2088,image-keyboard-response,12
true,14,0,0,2,false,d,true,true,0.0-2.0-0.58-0.524-3.524,1,1,1,81,false,stim,false,2,841.0,0,1,0,42950,WMM1,2118852,false,true,2091,image-keyboard-response,13
true,14,2,0,2,true,d,false,true,0.0-2.0-0.58-0.525-3.525,1,1,1,68,false,stim,false,2,1270.0,0,1,1,42950,WMM1,2121642,false,false,2094,image-keyboard-response,14
true,14,0,0,2,false,d,true,false,0.0-2.0-0.58-0.526-3.526,1,1,1,81,false,stim,false,2,832.0,0,1,0,42950,WMM1,2123994,false,false,2097,image-keyboard-response,15
true,14,0,0,2,false,d,true,true,0.0-2.0-0.58-0.527-3.527,1,1,1,81,false,stim,false,2,819.0,0,1,0,42950,WMM1,2126334,false,true,2100,image-keyboard-response,16
true,14,2,0,1,false,z,true,false,0.0-2.0-0.58-0.528-3.528,1,1,1,68,false,stim,false,1,1405.0,0,1,2,42950,WMM1,2129259,false,false,2103,image-keyboard-response,17
true,14,1,0,1,true,z,false,true,0.0-2.0-0.58-0.529-3.529,1,1,1,90,false,stim,false,1,1191.0,0,1,2,42950,WMM1,2131969,false,false,2106,image-keyboard-response,18
true,14,2,0,2,true,d,false,true,0.0-2.0-0.58-0.530-3.530,1,1,1,68,false,stim,false,2,685.0,0,1,1,42950,WMM1,2134175,false,false,2109,image-keyboard-response,19
true,14,1,0,2,false,d,true,false,0.0-2.0-0.59-0.531-3.531,1,1,1,90,false,stim,false,2,964.0000000004657,0,1,1,42950,WMM1,2136660,false,false,2112,image-keyboard-response,20
true,14,1,0,1,true,z,false,true,0.0-2.0-0.59-0.532-3.532,1,1,1,90,false,stim,false,1,1000.0,0,1,2,42950,WMM1,2139181,false,false,2115,image-keyboard-response,21
true,14,0,0,2,false,d,true,false,0.0-2.0-0.59-0.533-3.533,1,1,1,81,false,stim,false,2,885.0,0,1,0,42950,WMM1,2141588,false,false,2118,image-keyboard-response,22
true,14,2,0,2,true,d,false,true,0.0-2.0-0.59-0.534-3.534,1,1,1,68,false,stim,false,2,1889.0,0,1,1,42950,WMM1,2144998,false,false,2121,image-keyboard-response,23
true,14,2,0,2,true,d,false,true,0.0-2.0-0.59-0.535-3.535,1,1,1,68,false,stim,false,2,897.0,0,1,1,42950,WMM1,2147416,false,false,2124,image-keyboard-response,24
true,14,1,0,1,true,z,false,true,0.0-2.0-0.59-0.536-3.536,1,1,1,90,false,stim,false,1,1518.0,0,1,2,42950,WMM1,2150453,false,false,2127,image-keyboard-response,25
true,14,0,0,2,false,d,true,true,0.0-2.0-0.59-0.537-3.537,1,1,1,81,false,stim,false,2,1865.0,0,1,0,42950,WMM1,2153839,false,true,2130,image-keyboard-response,26
true,14,0,0,2,false,d,true,true,0.0-2.0-0.59-0.538-3.538,1,1,1,81,false,stim,false,2,1000.0,0,1,0,42950,WMM1,2156359,false,true,2133,image-keyboard-response,27
true,14,1,0,1,true,z,false,true,0.0-2.0-0.59-0.539-3.539,1,1,1,90,false,stim,false,1,830.9999999995343,0,1,2,42950,WMM1,2158711,false,false,2136,image-keyboard-response,28
true,14,2,0,2,true,d,false,true,0.0-2.0-0.60-0.540-3.540,1,1,1,68,false,stim,false,2,752.0,0,1,1,42950,WMM1,2160983,false,false,2139,image-keyboard-response,29
true,14,1,0,2,false,d,true,false,0.0-2.0-0.60-0.541-3.541,1,1,1,90,false,stim,false,2,539.0000000004657,0,1,1,42950,WMM1,2163043,false,false,2142,image-keyboard-response,30
true,14,0,0,2,false,d,true,false,0.0-2.0-0.60-0.542-3.542,1,1,1,81,false,stim,false,2,1021.0,0,1,0,42950,WMM1,2165585,false,false,2145,image-keyboard-response,31
true,14,2,0,1,false,z,true,false,0.0-2.0-0.60-0.543-3.543,1,1,1,68,false,stim,false,1,1462.0,0,1,2,42950,WMM1,2168566,false,false,2148,image-keyboard-response,32
true,14,2,0,2,true,d,false,true,0.0-2.0-0.60-0.544-3.544,1,1,1,68,false,stim,false,2,694.0,0,1,0,42950,WMM1,2170783,false,false,2151,image-keyboard-response,33
true,14,2,0,2,true,d,false,true,0.0-2.0-0.60-0.545-3.545,1,1,1,68,false,stim,false,2,716.0,0,1,0,42950,WMM1,2173021,false,false,2154,image-keyboard-response,34
true,14,0,0,1,false,z,true,false,0.0-2.0-0.60-0.546-3.546,1,1,1,81,false,stim,false,1,2708.0,0,1,2,42950,WMM1,2177252,false,false,2157,image-keyboard-response,35
true,14,1,0,1,true,z,false,true,0.0-2.0-0.60-0.547-3.547,1,1,1,90,false,stim,false,1,728.0,0,1,2,42950,WMM1,2179502,false,false,2160,image-keyboard-response,36
true,14,0,0,2,false,d,true,false,0.0-2.0-0.60-0.548-3.548,1,1,1,81,false,stim,false,2,1133.9999999995343,0,1,1,42950,WMM1,2182156,false,false,2163,image-keyboard-response,37
true,14,1,0,1,true,z,false,true,0.0-2.0-0.61-0.549-3.549,1,1,1,90,false,stim,false,1,627.0,0,1,2,42950,WMM1,2184305,false,false,2166,image-keyboard-response,38
true,14,1,0,1,true,z,false,true,0.0-2.0-0.61-0.550-3.550,1,1,1,90,false,stim,false,1,504.0,0,1,2,42950,WMM1,2186331,false,false,2169,image-keyboard-response,39
true,14,2,0,2,true,d,false,true,0.0-2.0-0.61-0.551-3.551,1,1,1,68,false,stim,false,2,671.0,0,1,0,42950,WMM1,2188524,false,false,2172,image-keyboard-response,40
true,14,2,0,2,true,d,false,true,0.0-2.0-0.61-0.552-3.552,1,1,1,68,false,stim,false,2,2426.0,0,1,1,42950,WMM1,2192473,false,false,2175,image-keyboard-response,41
true,14,1,0,1,true,z,false,true,0.0-2.0-0.61-0.553-3.553,1,1,1,90,false,stim,false,1,886.0,0,1,2,42950,WMM1,2194880,false,false,2178,image-keyboard-response,42
true,14,2,0,2,true,d,false,true,0.0-2.0-0.61-0.554-3.554,1,1,1,68,false,stim,false,2,1111.0,0,1,1,42950,WMM1,2197513,false,false,2181,image-keyboard-response,43
true,14,2,0,2,true,d,false,true,0.0-2.0-0.61-0.555-3.555,1,1,1,68,false,stim,false,2,436.0,0,0,0,42950,WMM1,2199471,false,false,2184,image-keyboard-response,44
true,14,2,0,2,true,d,false,true,0.0-2.0-0.61-0.556-3.556,1,1,1,68,false,stim,false,2,718.0,0,0,0,42950,WMM1,2201709,false,false,2187,image-keyboard-response,45
false,14,-1,0,2,false,d,true,false,0.0-2.0-0.61-0.557-3.557,1,1,1,,false,stim,false,2,,0,0,1,42950,WMM1,2206232,false,false,2190,image-keyboard-response,46
true,14,2,0,1,false,z,true,false,0.0-2.0-0.62-0.558-3.558,1,1,1,68,false,stim,false,1,850.0,0,0,2,42950,WMM1,2208606,false,false,2193,image-keyboard-response,47
true,14,1,0,1,true,z,false,true,0.0-2.0-0.62-0.559-3.559,1,1,1,90,false,stim,false,1,1741.0,0,0,2,42950,WMM1,2211868,false,false,2196,image-keyboard-response,48
true,14,2,0,2,true,d,false,true,0.0-2.0-0.62-0.560-3.560,1,1,1,68,false,stim,false,2,829.0,0,0,1,42950,WMM1,2214219,false,false,2199,image-keyboard-response,49
true,14,2,0,2,true,d,false,true,0.0-2.0-0.62-0.561-3.561,1,1,1,68,false,stim,false,2,1168.0,0,0,1,42950,WMM1,2216909,false,false,2202,image-keyboard-response,50
true,14,1,0,2,false,d,true,false,0.0-2.0-0.62-0.562-3.562,1,1,1,90,false,stim,false,2,885.0,0,0,0,42950,WMM1,2219316,false,false,2205,image-keyboard-response,51
true,14,2,0,2,true,d,false,true,0.0-2.0-0.62-0.563-3.563,1,1,1,68,false,stim,false,2,1066.0,0,0,0,42950,WMM1,2221903,false,false,2208,image-keyboard-response,52
true,14,2,0,2,true,d,false,true,0.0-2.0-0.62-0.564-3.564,1,1,1,68,false,stim,false,2,671.9999999995343,0,0,0,42950,WMM1,2224096,false,false,2211,image-keyboard-response,53
true,15,2,2,2,true,d,false,true,0.0-2.0-0.62-0.565-3.565,0,0,0,68,true,stim,false,1,797.9999999995343,0,0,2,42950,WMM1,2226414,false,false,2214,image-keyboard-response,1
true,15,0,2,1,false,z,true,false,0.0-2.0-0.62-0.566-3.566,0,0,0,81,false,stim,false,2,1900.0,0,0,1,42950,WMM1,2229834,false,false,2217,image-keyboard-response,2
true,15,1,2,0,false,q,true,false,0.0-2.0-0.63-0.567-3.567,0,0,0,90,false,stim,false,2,527.0,0,0,0,42950,WMM1,2231881,false,false,2220,image-keyboard-response,3
true,15,1,2,1,true,z,false,true,0.0-2.0-0.63-0.568-3.568,0,0,0,90,false,stim,false,2,1708.0,0,0,1,42950,WMM1,2235110,false,false,2223,image-keyboard-response,4
true,15,2,2,2,true,d,false,true,0.0-2.0-0.63-0.569-3.569,0,0,0,68,false,stim,false,1,696.0,0,0,2,42950,WMM1,2237326,false,false,2226,image-keyboard-response,5
true,15,1,2,1,true,z,false,true,0.0-2.0-0.63-0.570-3.570,0,0,0,90,false,stim,false,2,1034.0,0,0,1,42950,WMM1,2239881,false,false,2229,image-keyboard-response,6
true,15,2,2,2,true,d,false,true,0.0-2.0-0.63-0.571-3.571,0,0,0,68,false,stim,false,1,1156.0,0,0,2,42950,WMM1,2242558,false,false,2232,image-keyboard-response,7
true,15,2,2,2,true,d,false,true,0.0-2.0-0.63-0.572-3.572,0,0,0,68,false,stim,false,1,840.0,0,0,2,42950,WMM1,2244921,false,false,2235,image-keyboard-response,8
true,15,2,2,0,false,q,false,true,0.0-2.0-0.63-0.573-3.573,0,0,0,68,false,stim,true,2,740.0,0,0,0,42950,WMM1,2247182,false,true,2238,image-keyboard-response,9
true,15,2,2,0,false,q,false,false,0.0-2.0-0.63-0.574-3.574,0,0,0,68,false,stim,true,2,695.0,0,0,0,42950,WMM1,2249398,false,false,2241,image-keyboard-response,10
false,15,-1,2,1,false,z,true,false,0.0-2.0-0.63-0.575-3.575,0,0,0,,false,stim,false,2,,0,0,1,42950,WMM1,2253919,false,false,2244,image-keyboard-response,11
true,15,2,2,2,true,d,false,true,0.0-2.0-0.64-0.576-3.576,0,0,0,68,false,stim,false,1,967.0,0,0,2,42950,WMM1,2256407,false,false,2247,image-keyboard-response,12
true,15,2,2,2,true,d,false,true,0.0-2.0-0.64-0.577-3.577,0,0,0,68,false,stim,false,1,606.0,0,0,2,42950,WMM1,2258533,false,false,2250,image-keyboard-response,13
true,15,1,2,1,true,z,false,true,0.0-2.0-0.64-0.578-3.578,0,0,0,90,false,stim,false,2,617.0,0,0,1,42950,WMM1,2260670,false,false,2253,image-keyboard-response,14
true,15,2,2,2,true,d,false,true,0.0-2.0-0.64-0.579-3.579,0,0,0,68,false,stim,false,1,798.0,0,0,2,42950,WMM1,2262989,false,false,2256,image-keyboard-response,15
true,15,1,2,1,true,z,false,true,0.0-2.0-0.64-0.580-3.580,0,0,0,90,false,stim,false,2,2459.0,0,0,1,42950,WMM1,2266971,false,false,2259,image-keyboard-response,16
true,15,0,2,0,true,q,false,true,0.0-2.0-0.64-0.581-3.581,0,0,0,81,false,stim,false,2,875.0,0,0,0,42950,WMM1,2269368,false,false,2262,image-keyboard-response,17
true,15,1,2,1,true,z,false,true,0.0-2.0-0.64-0.582-3.582,0,0,0,90,false,stim,false,2,841.0000000004657,0,0,1,42950,WMM1,2271730,false,false,2265,image-keyboard-response,18
true,15,0,2,0,true,q,false,true,0.0-2.0-0.64-0.583-3.583,0,0,0,81,false,stim,false,2,805.0,0,0,0,42950,WMM1,2274058,false,false,2268,image-keyboard-response,19
true,15,1,2,0,false,q,true,false,0.0-2.0-0.64-0.584-3.584,0,0,0,90,false,stim,false,2,573.0,0,0,0,42950,WMM1,2276152,false,false,2271,image-keyboard-response,20
true,15,0,2,0,true,q,false,false,0.0-2.0-0.65-0.585-3.585,0,0,0,81,false,stim,false,2,581.0,0,0,0,42950,WMM1,2278255,false,true,2274,image-keyboard-response,21
true,15,2,2,2,true,d,false,true,0.0-2.0-0.65-0.586-3.586,0,0,0,68,false,stim,false,1,829.0,0,0,2,42950,WMM1,2280606,false,false,2277,image-keyboard-response,22
true,15,2,2,2,true,d,false,true,0.0-2.0-0.65-0.587-3.587,0,0,0,68,false,stim,false,1,953.0,0,0,2,42950,WMM1,2283081,false,false,2280,image-keyboard-response,23
true,15,1,2,0,false,q,true,false,0.0-2.0-0.65-0.588-3.588,0,0,0,90,false,stim,false,2,2112.0,0,0,0,42950,WMM1,2286714,false,false,2283,image-keyboard-response,24
true,15,0,2,0,true,q,false,true,0.0-2.0-0.65-0.589-3.589,0,0,0,81,false,stim,false,2,944.0,0,0,0,42950,WMM1,2289178,false,false,2286,image-keyboard-response,25
true,15,1,2,1,true,z,false,true,0.0-2.0-0.65-0.590-3.590,0,0,0,90,false,stim,false,2,1100.0,0,0,1,42950,WMM1,2291799,false,false,2289,image-keyboard-response,26
true,15,2,2,2,true,d,false,true,0.0-2.0-0.65-0.591-3.591,0,0,0,68,false,stim,false,1,889.0,0,0,2,42950,WMM1,2294207,false,false,2292,image-keyboard-response,27
true,15,1,2,1,true,z,false,true,0.0-2.0-0.65-0.592-3.592,0,0,0,90,false,stim,false,2,718.0,0,0,1,42950,WMM1,2296446,false,false,2295,image-keyboard-response,28
true,15,1,2,1,true,z,false,true,0.0-2.0-0.65-0.593-3.593,0,0,0,90,false,stim,false,2,581.0,0,0,1,42950,WMM1,2298550,false,false,2298,image-keyboard-response,29
true,15,0,2,0,true,q,false,true,0.0-2.0-0.66-0.594-3.594,0,0,0,81,false,stim,false,2,729.0,0,0,0,42950,WMM1,2300800,false,false,2301,image-keyboard-response,30
true,15,1,2,1,true,z,false,true,0.0-2.0-0.66-0.595-3.595,0,0,0,90,false,stim,false,2,763.0,0,0,1,42950,WMM1,2303084,false,false,2304,image-keyboard-response,31
true,15,0,2,0,true,q,false,true,0.0-2.0-0.66-0.596-3.596,0,0,0,81,false,stim,false,2,627.0,0,0,0,42950,WMM1,2305232,false,false,2307,image-keyboard-response,32
true,15,2,2,2,true,d,false,true,0.0-2.0-0.66-0.597-3.597,0,0,0,68,false,stim,false,1,752.0,0,0,2,42950,WMM1,2307505,false,false,2310,image-keyboard-response,33
true,15,1,2,1,true,z,false,true,0.0-2.0-0.66-0.598-3.598,0,0,0,90,false,stim,false,2,1155.0,0,0,1,42950,WMM1,2310182,false,false,2313,image-keyboard-response,34
true,15,1,2,1,true,z,false,true,0.0-2.0-0.66-0.599-3.599,0,0,0,90,false,stim,false,2,661.0,0,0,1,42950,WMM1,2312365,false,false,2316,image-keyboard-response,35
true,15,2,2,2,true,d,false,true,0.0-2.0-0.66-0.600-3.600,0,0,0,68,false,stim,false,1,1088.0,0,0,2,42950,WMM1,2314975,false,false,2319,image-keyboard-response,36
true,15,0,2,0,true,q,false,false,0.0-2.0-0.66-0.601-3.601,0,0,0,81,false,stim,false,2,831.0,0,0,0,42950,WMM1,2317326,false,true,2322,image-keyboard-response,37
true,15,2,2,2,true,d,false,true,0.0-2.0-0.66-0.602-3.602,0,0,0,68,false,stim,false,1,1539.0,0,0,2,42950,WMM1,2320386,false,false,2325,image-keyboard-response,38
true,15,1,2,1,true,z,false,true,0.0-2.0-0.67-0.603-3.603,0,0,0,90,false,stim,false,2,684.0,0,0,1,42950,WMM1,2322591,false,false,2328,image-keyboard-response,39
true,15,1,2,1,true,z,false,false,0.0-2.0-0.67-0.604-3.604,0,0,0,90,false,stim,false,2,695.0,0,0,1,42950,WMM1,2324808,false,true,2331,image-keyboard-response,40
true,16,1,1,2,false,d,true,false,0.0-2.0-0.67-0.605-3.605,0,0,0,90,true,stim,false,0,1065.0,0,0,0,42950,WMM1,2327395,false,false,2334,image-keyboard-response,1
true,16,2,1,2,true,d,false,true,0.0-2.0-0.67-0.606-3.606,0,0,0,68,false,stim,false,0,1541.0,0,0,0,42950,WMM1,2330456,false,false,2337,image-keyboard-response,2
true,16,0,1,2,false,d,true,false,0.0-2.0-0.67-0.607-3.607,0,0,0,81,false,stim,false,1,2459.9999999995343,0,0,1,42950,WMM1,2334438,false,false,2340,image-keyboard-response,3
true,16,2,1,2,true,d,false,true,0.0-2.0-0.67-0.608-3.608,0,0,0,68,false,stim,false,0,1222.0,0,0,0,42950,WMM1,2337184,false,false,2343,image-keyboard-response,4
true,16,2,1,0,false,q,false,false,0.0-2.0-0.67-0.609-3.609,0,0,0,68,false,stim,true,2,490.0,0,0,2,42950,WMM1,2339197,false,false,2346,image-keyboard-response,5
true,16,0,1,0,true,q,false,true,0.0-2.0-0.67-0.610-3.610,0,0,0,81,false,stim,false,2,1134.0,0,0,2,42950,WMM1,2341852,false,false,2349,image-keyboard-response,6
true,16,0,1,0,true,q,false,true,0.0-2.0-0.67-0.611-3.611,0,0,0,81,false,stim,false,2,817.0,0,0,2,42950,WMM1,2344192,false,false,2352,image-keyboard-response,7
true,16,2,1,2,true,d,false,true,0.0-2.0-0.68-0.612-3.612,0,0,0,68,false,stim,false,0,804.0,0,0,0,42950,WMM1,2346521,false,false,2355,image-keyboard-response,8
true,16,1,1,2,false,d,false,false,0.0-2.0-0.68-0.613-3.613,0,0,0,90,false,stim,true,1,874.0,0,0,1,42950,WMM1,2348917,false,false,2358,image-keyboard-response,9
true,16,0,1,2,false,d,true,false,0.0-2.0-0.68-0.614-3.614,0,0,0,81,false,stim,false,1,1548.9999999995343,0,0,1,42950,WMM1,2351989,false,false,2361,image-keyboard-response,10
true,16,2,1,0,false,q,false,false,0.0-2.0-0.68-0.615-3.615,0,0,0,68,false,stim,true,2,1076.0,0,0,2,42950,WMM1,2354587,false,false,2364,image-keyboard-response,11
true,16,2,1,2,true,d,false,false,0.0-2.0-0.68-0.616-3.616,0,0,0,68,false,stim,false,1,1932.0,0,0,1,42950,WMM1,2358041,false,true,2367,image-keyboard-response,12
true,16,0,1,0,true,q,false,true,0.0-2.0-0.68-0.617-3.617,0,0,0,81,false,stim,false,2,2234.9999999995343,0,0,2,42950,WMM1,2361799,false,false,2370,image-keyboard-response,13
true,16,2,1,2,true,d,false,true,0.0-2.0-0.68-0.618-3.618,0,0,0,68,false,stim,false,0,1313.0,0,0,0,42950,WMM1,2364634,false,false,2373,image-keyboard-response,14
