answered,blockNum,choice,condition,corResp,correct,correct_response,explo,fb,internal_node_id,isStable_1,isStable_2,isStable_3,key_press,newBlock,part,persev,persevResp,rt,sessNum,stableAS,stimulus,subject,task,time_elapsed,training,trap,trial_index,trial_type,trialsInBlock
true,1,0,0,2,false,d,true,false,0.0-2.0-0.0-0.0-3.0,0,0,0,81,true,stim,false,-1,674.449999999968,2,0,1,44194,WMM2,103155,false,false,85,image-keyboard-response,1
true,1,1,0,1,true,z,false,true,0.0-2.0-0.0-0.1-3.1,0,0,0,90,false,stim,false,-1,686.7949999999546,2,0,2,44194,WMM2,105350,false,false,88,image-keyboard-response,2
true,1,0,0,1,false,z,true,false,0.0-2.0-0.0-0.2-3.2,0,0,0,81,false,stim,false,-1,728.1399999999412,2,0,0,44194,WMM2,107585,false,false,91,image-keyboard-response,3
true,1,1,0,1,true,z,false,true,0.0-2.0-0.0-0.3-3.3,0,0,0,90,false,stim,false,-1,601.9049999999843,2,0,2,44194,WMM2,109695,false,false,94,image-keyboard-response,4
true,1,1,0,1,true,z,false,true,0.0-2.0-0.0-0.4-3.4,0,0,0,90,false,stim,false,-1,1250.849999999904,2,0,0,44194,WMM2,112453,false,false,97,image-keyboard-response,5
true,1,1,0,1,true,z,false,true,0.0-2.0-0.0-0.5-3.5,0,0,0,90,false,stim,false,-1,638.8000000000611,2,0,2,44194,WMM2,114600,false,false,100,image-keyboard-response,6
true,1,1,0,1,true,z,false,true,0.0-2.0-0.0-0.6-3.6,0,0,0,90,false,stim,false,-1,515.769999999975,2,0,0,44194,WMM2,116625,false,false,103,image-keyboard-response,7
true,1,2,0,2,true,d,false,true,0.0-2.0-0.0-0.7-3.7,0,0,0,68,false,stim,false,-1,930.309999999954,2,0,1,44194,WMM2,119062,false,false,106,image-keyboard-response,8
true,1,2,0,2,true,d,false,true,0.0-2.0-0.0-0.8-3.8,0,0,0,68,false,stim,false,-1,578.1699999999983,2,0,1,44194,WMM2,121148,false,false,109,image-keyboard-response,9
true,1,1,0,1,true,z,false,true,0.0-2.0-0.1-0.9-3.9,0,0,0,90,false,stim,false,-1,683.0200000000623,2,0,2,44194,WMM2,123339,false,false,112,image-keyboard-response,10
true,1,2,0,2,true,d,false,true,0.0-2.0-0.1-0.10-3.10,0,0,0,68,false,stim,false,-1,702.4950000000099,2,0,1,44194,WMM2,125549,false,false,115,image-keyboard-response,11
true,1,1,0,1,true,z,false,true,0.0-2.0-0.1-0.11-3.11,0,0,0,90,false,stim,false,-1,638.6849999999977,2,0,0,44194,WMM2,127695,false,false,118,image-keyboard-response,12
true,1,2,0,2,true,d,false,true,0.0-2.0-0.1-0.12-3.12,0,0,0,68,false,stim,false,-1,663.6200000000536,2,0,1,44194,WMM2,129866,false,false,121,image-keyboard-response,13
true,1,1,0,1,true,z,false,true,0.0-2.0-0.1-0.13-3.13,0,0,0,90,false,stim,false,-1,719.7499999999709,2,0,0,44194,WMM2,132093,false,false,124,image-keyboard-response,14
true,1,1,0,1,true,z,false,true,0.0-2.0-0.1-0.14-3.14,0,0,0,90,false,stim,false,-1,605.2200000000303,2,0,2,44194,WMM2,134205,false,false,127,image-keyboard-response,15
true,1,1,0,1,true,z,false,true,0.0-2.0-0.1-0.15-3.15,0,0,0,90,false,stim,false,-1,612.3700000000536,2,0,0,44194,WMM2,136325,false,false,130,image-keyboard-response,16
true,1,2,0,2,true,d,false,true,0.0-2.0-0.1-0.16-3.16,0,0,0,68,false,stim,false,-1,771.1199999999953,2,0,1,44194,WMM2,138604,false,false,133,image-keyboard-response,17
true,1,1,0,1,true,z,false,false,0.0-2.0-0.1-0.17-3.17,0,0,0,90,false,stim,false,-1,621.9700000000303,2,0,2,44194,WMM2,140733,false,true,136,image-keyboard-response,18
true,1,1,0,1,true,z,false,true,0.0-2.0-0.2-0.18-3.18,0,0,0,90,false,stim,false,-1,649.1399999999849,2,0,2,44194,WMM2,142890,false,false,139,image-keyboard-response,19
true,1,2,0,2,true,d,false,true,0.0-2.0-0.2-0.19-3.19,0,0,0,68,false,stim,false,-1,972.7950000000128,2,0,1,44194,WMM2,145369,false,false,142,image-keyboard-response,20
true,1,1,0,1,true,z,false,true,0.0-2.0-0.2-0.20-3.20,0,0,0,90,false,stim,false,-1,978.7350000000442,2,1,0,44194,WMM2,147857,false,false,145,image-keyboard-response,21
true,1,1,0,1,true,z,false,true,0.0-2.0-0.2-0.21-3.21,0,0,0,90,false,stim,false,-1,461.24499999996624,2,1,0,44194,WMM2,149827,false,false,148,image-keyboard-response,22
true,1,1,0,1,true,z,false,true,0.0-2.0-0.2-0.22-3.22,0,0,0,90,false,stim,false,-1,763.8850000000675,2,0,2,44194,WMM2,152100,false,false,151,image-keyboard-response,23
true,1,2,0,2,true,d,false,false,0.0-2.0-0.2-0.23-3.23,0,0,0,68,false,stim,false,-1,788.2050000000454,2,0,1,44194,WMM2,154394,false,true,154,image-keyboard-response,24
true,1,1,0,1,true,z,false,true,0.0-2.0-0.2-0.24-3.24,0,0,0,90,false,stim,false,-1,575.1800000000512,2,1,0,44194,WMM2,156477,false,false,157,image-keyboard-response,25
true,1,1,0,1,true,z,false,true,0.0-2.0-0.2-0.25-3.25,0,0,0,90,false,stim,false,-1,1133.170000000071,2,0,2,44194,WMM2,159121,false,false,160,image-keyboard-response,26
true,1,2,0,2,true,d,false,true,0.0-2.0-0.2-0.26-3.26,0,0,0,68,false,stim,false,-1,631.4249999999302,2,0,1,44194,WMM2,161262,false,false,163,image-keyboard-response,27
true,1,1,0,1,true,z,false,false,0.0-2.0-0.3-0.27-3.27,0,0,0,90,false,stim,false,-1,523.0450000000419,2,1,0,44194,WMM2,163294,false,true,166,image-keyboard-response,28
true,1,2,0,2,true,d,false,true,0.0-2.0-0.3-0.28-3.28,0,0,0,68,false,stim,false,-1,1160.3099999999977,2,0,1,44194,WMM2,165961,false,false,169,image-keyboard-response,29
true,1,1,0,1,true,z,false,true,0.0-2.0-0.3-0.29-3.29,0,0,0,90,false,stim,false,-1,569.25,2,0,2,44194,WMM2,168037,false,false,172,image-keyboard-response,30
true,2,1,1,2,false,d,false,false,0.0-2.0-0.3-0.30-3.30,1,0,0,90,true,stim,true,1,757.0950000000594,2,0,2,44194,WMM2,170304,false,false,175,image-keyboard-response,1
true,2,0,1,1,false,z,true,false,0.0-2.0-0.3-0.31-3.31,1,0,0,81,false,stim,false,1,676.314999999915,2,1,0,44194,WMM2,172490,false,false,178,image-keyboard-response,2
true,2,0,1,1,false,z,true,false,0.0-2.0-0.3-0.32-3.32,1,0,0,81,false,stim,false,1,1111.4700000000594,2,1,0,44194,WMM2,175109,false,false,181,image-keyboard-response,3
true,2,2,1,1,false,z,false,false,0.0-2.0-0.3-0.33-3.33,1,0,0,68,false,stim,true,2,1107.3349999999336,2,0,1,44194,WMM2,177724,false,false,184,image-keyboard-response,4
true,2,2,1,2,true,d,false,true,0.0-2.0-0.3-0.34-3.34,1,0,0,68,false,stim,false,1,742.7800000000279,2,0,2,44194,WMM2,179974,false,false,187,image-keyboard-response,5
true,2,1,1,1,true,z,false,true,0.0-2.0-0.3-0.35-3.35,1,0,0,90,false,stim,false,2,996.7350000000733,2,0,1,44194,WMM2,182480,false,false,190,image-keyboard-response,6
true,2,2,1,2,true,d,false,true,0.0-2.0-0.4-0.36-3.36,1,0,0,68,false,stim,false,1,640.6399999999558,2,0,2,44194,WMM2,184629,false,false,193,image-keyboard-response,7
true,2,1,1,1,true,z,false,true,0.0-2.0-0.4-0.37-3.37,1,0,0,90,false,stim,false,2,720.1799999999057,2,0,1,44194,WMM2,186857,false,false,196,image-keyboard-response,8
true,2,2,1,1,false,z,true,false,0.0-2.0-0.4-0.38-3.38,1,0,0,68,false,stim,false,1,559.100000000064,2,1,0,44194,WMM2,188925,false,false,199,image-keyboard-response,9
true,2,1,1,1,true,z,false,true,0.0-2.0-0.4-0.39-3.39,1,0,0,90,false,stim,false,2,1131.804999999993,2,0,1,44194,WMM2,191571,false,false,202,image-keyboard-response,10
true,2,1,1,1,true,z,false,true,0.0-2.0-0.4-0.40-3.40,1,0,0,90,false,stim,false,1,518.2099999999627,2,1,0,44194,WMM2,193600,false,false,205,image-keyboard-response,11
true,2,2,1,2,true,d,false,true,0.0-2.0-0.4-0.41-3.41,1,0,0,68,false,stim,false,1,848.4400000000023,2,0,2,44194,WMM2,195957,false,false,208,image-keyboard-response,12
true,2,1,1,1,true,z,false,true,0.0-2.0-0.4-0.42-3.42,1,0,0,90,false,stim,false,1,727.1950000000652,2,1,0,44194,WMM2,198192,false,false,211,image-keyboard-response,13
true,2,2,1,2,true,d,false,true,0.0-2.0-0.4-0.43-3.43,1,0,0,68,false,stim,false,1,653.2799999999988,2,0,2,44194,WMM2,200352,false,false,214,image-keyboard-response,14
true,2,1,1,1,true,z,false,true,0.0-2.0-0.4-0.44-3.44,1,0,0,90,false,stim,false,2,730.2700000000186,2,0,1,44194,WMM2,202591,false,false,217,image-keyboard-response,15
true,2,2,1,1,false,z,true,false,0.0-2.0-0.5-0.45-3.45,1,0,0,68,false,stim,false,1,615.5450000000128,2,1,0,44194,WMM2,204718,false,false,220,image-keyboard-response,16
true,2,1,1,1,true,z,false,false,0.0-2.0-0.5-0.46-3.46,1,0,0,90,false,stim,false,1,620.085000000021,2,1,0,44194,WMM2,206847,false,true,223,image-keyboard-response,17
true,2,2,1,1,false,z,false,false,0.0-2.0-0.5-0.47-3.47,1,0,0,68,false,stim,true,2,809.179999999993,2,0,1,44194,WMM2,209165,false,false,226,image-keyboard-response,18
true,2,1,1,1,true,z,false,true,0.0-2.0-0.5-0.48-3.48,1,0,0,90,false,stim,false,2,584.6950000000361,2,0,1,44194,WMM2,211258,false,false,229,image-keyboard-response,19
true,2,2,1,2,true,d,false,true,0.0-2.0-0.5-0.49-3.49,1,0,0,68,false,stim,false,1,471.3199999999779,2,0,2,44194,WMM2,213239,false,false,232,image-keyboard-response,20
true,2,2,1,2,true,d,false,true,0.0-2.0-0.5-0.50-3.50,1,0,0,68,false,stim,false,1,624.3699999999953,2,0,2,44194,WMM2,215370,false,false,235,image-keyboard-response,21
true,2,1,1,1,true,z,false,true,0.0-2.0-0.5-0.51-3.51,1,0,0,90,false,stim,false,2,1156.5199999999895,2,0,1,44194,WMM2,218037,false,false,238,image-keyboard-response,22
true,2,2,1,2,true,d,false,true,0.0-2.0-0.5-0.52-3.52,1,0,0,68,false,stim,false,1,721.9749999999476,2,0,2,44194,WMM2,220268,false,false,241,image-keyboard-response,23
true,2,0,1,1,false,z,true,false,0.0-2.0-0.5-0.53-3.53,1,0,0,81,false,stim,false,1,797.7049999999581,2,1,0,44194,WMM2,222576,false,false,244,image-keyboard-response,24
true,2,1,1,1,true,z,false,true,0.0-2.0-0.6-0.54-3.54,1,0,0,90,false,stim,false,2,1229.8650000000198,2,0,1,44194,WMM2,225317,false,false,247,image-keyboard-response,25
true,2,1,1,1,true,z,false,false,0.0-2.0-0.6-0.55-3.55,1,0,0,90,false,stim,false,2,549.5249999999942,2,0,1,44194,WMM2,227377,false,true,250,image-keyboard-response,26
true,2,2,1,2,true,d,false,true,0.0-2.0-0.6-0.56-3.56,1,0,0,68,false,stim,false,1,514.9749999999185,2,0,2,44194,WMM2,229400,false,false,253,image-keyboard-response,27
true,2,2,1,2,true,d,false,true,0.0-2.0-0.6-0.57-3.57,1,0,0,68,false,stim,false,1,463.17499999998836,2,0,2,44194,WMM2,231372,false,false,256,image-keyboard-response,28
true,2,1,1,1,true,z,false,true,0.0-2.0-0.6-0.58-3.58,1,0,0,90,false,stim,false,1,983.225000000064,2,1,0,44194,WMM2,233865,false,false,259,image-keyboard-response,29
true,2,2,1,2,true,d,false,true,0.0-2.0-0.6-0.59-3.59,1,0,0,68,false,stim,false,1,755.0150000000722,2,0,2,44194,WMM2,236129,false,false,262,image-keyboard-response,30
true,2,1,1,1,true,z,false,false,0.0-2.0-0.6-0.60-3.60,1,0,0,90,false,stim,false,1,743.7850000000035,2,1,0,44194,WMM2,238380,false,true,265,image-keyboard-response,31
true,2,1,1,1,true,z,false,true,0.0-2.0-0.6-0.61-3.61,1,0,0,90,false,stim,false,2,1082.8199999999488,2,1,1,44194,WMM2,240973,false,false,268,image-keyboard-response,32
true,2,1,1,1,true,z,false,true,0.0-2.0-0.6-0.62-3.62,1,0,0,90,false,stim,false,1,380.10499999995227,2,1,0,44194,WMM2,242860,false,false,271,image-keyboard-response,33
true,2,1,1,1,true,z,false,true,0.0-2.0-0.7-0.63-3.63,1,0,0,90,false,stim,false,2,892.3349999999919,2,1,1,44194,WMM2,245261,false,false,274,image-keyboard-response,34
true,2,1,1,1,true,z,false,false,0.0-2.0-0.7-0.64-3.64,1,0,0,90,false,stim,false,1,825.8600000000442,2,1,0,44194,WMM2,247597,false,true,277,image-keyboard-response,35
true,2,1,1,1,true,z,false,true,0.0-2.0-0.7-0.65-3.65,1,0,0,90,false,stim,false,2,1034.0849999999919,2,1,1,44194,WMM2,250137,false,false,280,image-keyboard-response,36
true,2,2,1,2,true,d,false,true,0.0-2.0-0.7-0.66-3.66,1,0,0,68,false,stim,false,1,494.82499999998254,2,0,2,44194,WMM2,252141,false,false,283,image-keyboard-response,37
true,2,1,1,1,true,z,false,true,0.0-2.0-0.7-0.67-3.67,1,0,0,90,false,stim,false,1,770.5499999999593,2,1,0,44194,WMM2,254418,false,false,286,image-keyboard-response,38
true,2,2,1,2,true,d,false,true,0.0-2.0-0.7-0.68-3.68,1,0,0,68,false,stim,false,1,628.3549999999232,2,0,2,44194,WMM2,256556,false,false,289,image-keyboard-response,39
true,2,1,1,1,true,z,false,true,0.0-2.0-0.7-0.69-3.69,1,0,0,90,false,stim,false,2,593.5550000000221,2,1,1,44194,WMM2,258659,false,false,292,image-keyboard-response,40
true,2,2,1,2,true,d,false,true,0.0-2.0-0.7-0.70-3.70,1,0,0,68,false,stim,false,1,717.4199999999255,2,0,2,44194,WMM2,260884,false,false,295,image-keyboard-response,41
true,3,1,4,1,true,z,false,true,0.0-2.0-0.7-0.71-3.71,1,1,0,90,true,stim,false,1,1281.4749999999767,2,1,0,44194,WMM2,263678,false,false,298,image-keyboard-response,1
true,3,1,4,1,true,z,false,true,0.0-2.0-0.8-0.72-3.72,1,1,0,90,false,stim,false,1,1679.5250000000233,2,1,1,44194,WMM2,266872,false,false,301,image-keyboard-response,2
true,3,2,4,2,true,d,false,true,0.0-2.0-0.8-0.73-3.73,1,1,0,68,false,stim,false,2,1116.4250000001048,2,0,2,44194,WMM2,269499,false,false,304,image-keyboard-response,3
true,3,1,4,1,true,z,false,true,0.0-2.0-0.8-0.74-3.74,1,1,0,90,false,stim,false,1,696.5,2,1,0,44194,WMM2,271705,false,false,307,image-keyboard-response,4
true,3,2,4,2,true,d,false,true,0.0-2.0-0.8-0.75-3.75,1,1,0,68,false,stim,false,2,708.7000000000116,2,0,2,44194,WMM2,273926,false,false,310,image-keyboard-response,5
true,3,1,4,1,true,z,false,true,0.0-2.0-0.8-0.76-3.76,1,1,0,90,false,stim,false,1,776.0899999999674,2,1,0,44194,WMM2,276213,false,false,313,image-keyboard-response,6
true,3,1,4,1,true,z,false,true,0.0-2.0-0.8-0.77-3.77,1,1,0,90,false,stim,false,1,660.4099999999744,2,1,0,44194,WMM2,278383,false,false,316,image-keyboard-response,7
true,3,2,4,2,true,d,false,true,0.0-2.0-0.8-0.78-3.78,1,1,0,68,false,stim,false,2,690.9650000000256,2,0,2,44194,WMM2,280583,false,false,319,image-keyboard-response,8
true,3,1,4,1,true,z,false,false,0.0-2.0-0.8-0.79-3.79,1,1,0,90,false,stim,false,1,928.6350000000093,2,1,1,44194,WMM2,283019,false,true,322,image-keyboard-response,9
true,3,1,4,1,true,z,false,true,0.0-2.0-0.8-0.80-3.80,1,1,0,90,false,stim,false,1,1058.7800000000861,2,1,1,44194,WMM2,285590,false,false,325,image-keyboard-response,10
true,3,1,4,1,true,z,false,false,0.0-2.0-0.9-0.81-3.81,1,1,0,90,false,stim,false,1,418.6350000000093,2,1,1,44194,WMM2,287516,false,true,328,image-keyboard-response,11
true,3,1,4,1,true,z,false,true,0.0-2.0-0.9-0.82-3.82,1,1,0,90,false,stim,false,1,917.1949999999488,2,1,0,44194,WMM2,289946,false,false,331,image-keyboard-response,12
true,3,2,4,2,true,d,false,true,0.0-2.0-0.9-0.83-3.83,1,1,0,68,false,stim,false,2,477.11000000004424,2,0,2,44194,WMM2,291931,false,false,334,image-keyboard-response,13
true,3,2,4,2,true,d,false,true,0.0-2.0-0.9-0.84-3.84,1,1,0,68,false,stim,false,2,353.804999999993,2,0,2,44194,WMM2,293795,false,false,337,image-keyboard-response,14
true,3,1,4,1,true,z,false,true,0.0-2.0-0.9-0.85-3.85,1,1,0,90,false,stim,false,1,721.8499999999185,2,1,1,44194,WMM2,296027,false,false,340,image-keyboard-response,15
true,3,2,4,2,true,d,false,true,0.0-2.0-0.9-0.86-3.86,1,1,0,68,false,stim,false,2,714.6599999999744,2,0,2,44194,WMM2,298250,false,false,343,image-keyboard-response,16
true,3,1,4,1,true,z,false,true,0.0-2.0-0.9-0.87-3.87,1,1,0,90,false,stim,false,1,499.4350000000559,2,1,1,44194,WMM2,300259,false,false,346,image-keyboard-response,17
true,3,1,4,1,true,z,false,true,0.0-2.0-0.9-0.88-3.88,1,1,0,90,false,stim,false,1,1051.0899999999674,2,1,0,44194,WMM2,302818,false,false,349,image-keyboard-response,18
true,3,1,4,1,true,z,false,true,0.0-2.0-0.9-0.89-3.89,1,1,0,90,false,stim,false,1,383.554999999993,2,1,0,44194,WMM2,304710,false,false,352,image-keyboard-response,19
true,3,1,4,1,true,z,false,true,0.0-2.0-0.10-0.90-3.90,1,1,0,90,false,stim,false,1,1105.679999999993,2,1,1,44194,WMM2,307325,false,false,355,image-keyboard-response,20
true,3,2,4,2,true,d,false,true,0.0-2.0-0.10-0.91-3.91,1,1,0,68,false,stim,false,2,645.2750000000815,2,1,2,44194,WMM2,309482,false,false,358,image-keyboard-response,21
true,3,2,4,2,true,d,false,false,0.0-2.0-0.10-0.92-3.92,1,1,0,68,false,stim,false,2,432.79999999993015,2,1,2,44194,WMM2,311423,false,true,361,image-keyboard-response,22
true,3,1,4,1,true,z,false,true,0.0-2.0-0.10-0.93-3.93,1,1,0,90,false,stim,false,1,790.6400000000722,2,1,0,44194,WMM2,313724,false,false,364,image-keyboard-response,23
true,3,1,4,1,true,z,false,true,0.0-2.0-0.10-0.94-3.94,1,1,0,90,false,stim,false,1,378.19999999995343,2,1,0,44194,WMM2,315611,false,false,367,image-keyboard-response,24
true,3,1,4,1,true,z,false,true,0.0-2.0-0.10-0.95-3.95,1,1,0,90,false,stim,false,1,407.9550000000163,2,1,0,44194,WMM2,317528,false,false,370,image-keyboard-response,25
true,3,2,4,2,true,d,false,true,0.0-2.0-0.10-0.96-3.96,1,1,0,68,false,stim,false,2,557.320000000007,2,1,2,44194,WMM2,319596,false,false,373,image-keyboard-response,26
true,3,1,4,1,true,z,false,true,0.0-2.0-0.10-0.97-3.97,1,1,0,90,false,stim,false,1,762.9849999999278,2,0,1,44194,WMM2,321872,false,false,376,image-keyboard-response,27
true,3,1,4,1,true,z,false,true,0.0-2.0-0.10-0.98-3.98,1,1,0,90,false,stim,false,1,454.03000000002794,2,0,1,44194,WMM2,323837,false,false,379,image-keyboard-response,28
true,3,1,4,1,true,z,false,true,0.0-2.0-0.11-0.99-3.99,1,1,0,90,false,stim,false,1,532.5350000000326,2,0,1,44194,WMM2,325879,false,false,382,image-keyboard-response,29
true,3,1,4,1,true,z,false,true,0.0-2.0-0.11-0.100-3.100,1,1,0,90,false,stim,false,1,1060.335000000021,2,1,0,44194,WMM2,328449,false,false,385,image-keyboard-response,30
true,4,1,2,0,false,q,false,false,0.0-2.0-0.11-0.101-3.101,1,0,1,90,true,stim,true,1,607.8399999999092,2,0,1,44194,WMM2,330564,false,false,388,image-keyboard-response,1
true,4,1,2,1,true,z,false,true,0.0-2.0-0.11-0.102-3.102,1,0,1,90,false,stim,false,1,382.76499999995576,2,1,0,44194,WMM2,332455,false,false,391,image-keyboard-response,2
true,4,1,2,1,true,z,false,true,0.0-2.0-0.11-0.103-3.103,1,0,1,90,false,stim,false,1,528.0400000000373,2,1,0,44194,WMM2,334490,false,false,394,image-keyboard-response,3
true,4,2,2,2,true,d,false,true,0.0-2.0-0.11-0.104-3.104,1,0,1,68,false,stim,false,2,474.2399999999907,2,1,2,44194,WMM2,336472,false,false,397,image-keyboard-response,4
true,4,1,2,0,false,q,false,false,0.0-2.0-0.11-0.105-3.105,1,0,1,90,false,stim,true,1,529.6199999999371,2,0,1,44194,WMM2,338513,false,false,400,image-keyboard-response,5
true,4,2,2,2,true,d,false,true,0.0-2.0-0.11-0.106-3.106,1,0,1,68,false,stim,false,2,1141.5050000000629,2,1,2,44194,WMM2,341166,false,false,403,image-keyboard-response,6
true,4,2,2,2,true,d,false,true,0.0-2.0-0.11-0.107-3.107,1,0,1,68,false,stim,false,2,381.6400000000722,2,1,2,44194,WMM2,343060,false,false,406,image-keyboard-response,7
true,4,1,2,0,false,q,false,false,0.0-2.0-0.12-0.108-3.108,1,0,1,90,false,stim,true,1,675.7300000000396,2,0,1,44194,WMM2,345246,false,false,409,image-keyboard-response,8
true,4,2,2,2,true,d,false,true,0.0-2.0-0.12-0.109-3.109,1,0,1,68,false,stim,false,2,601.8550000000396,2,1,2,44194,WMM2,347355,false,false,412,image-keyboard-response,9
true,4,1,2,1,true,z,false,true,0.0-2.0-0.12-0.110-3.110,1,0,1,90,false,stim,false,1,584.4950000000536,2,1,0,44194,WMM2,349448,false,false,415,image-keyboard-response,10
true,4,0,2,0,true,q,false,true,0.0-2.0-0.12-0.111-3.111,1,0,1,81,false,stim,false,1,1248.4799999999814,2,0,1,44194,WMM2,352208,false,false,418,image-keyboard-response,11
true,4,2,2,2,true,d,false,true,0.0-2.0-0.12-0.112-3.112,1,0,1,68,false,stim,false,2,842.5849999999627,2,1,2,44194,WMM2,354559,false,false,421,image-keyboard-response,12
true,4,1,2,1,true,z,false,true,0.0-2.0-0.12-0.113-3.113,1,0,1,90,false,stim,false,1,1235.820000000007,2,1,0,44194,WMM2,357304,false,false,424,image-keyboard-response,13
true,4,0,2,0,true,q,false,true,0.0-2.0-0.12-0.114-3.114,1,0,1,81,false,stim,false,1,721.4249999999884,2,0,1,44194,WMM2,359535,false,false,427,image-keyboard-response,14
true,4,1,2,1,true,z,false,true,0.0-2.0-0.12-0.115-3.115,1,0,1,90,false,stim,false,1,467.3099999999977,2,1,0,44194,WMM2,361509,false,false,430,image-keyboard-response,15
true,4,2,2,2,true,d,false,false,0.0-2.0-0.12-0.116-3.116,1,0,1,68,false,stim,false,2,774.6599999999162,2,1,2,44194,WMM2,363792,false,true,433,image-keyboard-response,16
true,4,0,2,1,false,z,true,true,0.0-2.0-0.13-0.117-3.117,1,0,1,81,false,stim,false,1,760.6699999999837,2,1,0,44194,WMM2,366061,false,true,436,image-keyboard-response,17
true,4,1,2,2,false,d,true,false,0.0-2.0-0.13-0.118-3.118,1,0,1,90,false,stim,false,2,456.99499999999534,2,1,2,44194,WMM2,368025,false,false,439,image-keyboard-response,18
true,4,1,2,0,false,q,false,false,0.0-2.0-0.13-0.119-3.119,1,0,1,90,false,stim,true,1,1572.445000000007,2,0,1,44194,WMM2,371108,false,false,442,image-keyboard-response,19
true,4,1,2,0,false,q,false,false,0.0-2.0-0.13-0.120-3.120,1,0,1,90,false,stim,true,1,1090.5649999999441,2,0,1,44194,WMM2,373710,false,false,445,image-keyboard-response,20
true,4,2,2,2,true,d,false,true,0.0-2.0-0.13-0.121-3.121,1,0,1,68,false,stim,false,2,1441.8249999999534,2,1,2,44194,WMM2,376662,false,false,448,image-keyboard-response,21
true,4,2,2,2,true,d,false,true,0.0-2.0-0.13-0.122-3.122,1,0,1,68,false,stim,false,2,1046.6799999999348,2,1,2,44194,WMM2,379219,false,false,451,image-keyboard-response,22
true,4,0,2,1,false,z,true,false,0.0-2.0-0.13-0.123-3.123,1,0,1,81,false,stim,false,1,496.68499999993946,2,1,0,44194,WMM2,381231,false,false,454,image-keyboard-response,23
true,4,1,2,1,true,z,false,true,0.0-2.0-0.13-0.124-3.124,1,0,1,90,false,stim,false,1,384.36999999999534,2,1,0,44194,WMM2,383127,false,false,457,image-keyboard-response,24
true,4,0,2,0,true,q,false,true,0.0-2.0-0.13-0.125-3.125,1,0,1,81,false,stim,false,1,640.2050000000163,2,0,1,44194,WMM2,385280,false,false,460,image-keyboard-response,25
true,4,1,2,1,true,z,false,true,0.0-2.0-0.14-0.126-3.126,1,0,1,90,false,stim,false,1,1327.539999999979,2,1,0,44194,WMM2,388121,false,false,463,image-keyboard-response,26
true,4,1,2,1,true,z,false,true,0.0-2.0-0.14-0.127-3.127,1,0,1,90,false,stim,false,1,567.9600000000792,2,1,0,44194,WMM2,390199,false,false,466,image-keyboard-response,27
true,4,2,2,2,true,d,false,true,0.0-2.0-0.14-0.128-3.128,1,0,1,68,false,stim,false,2,861.3549999999814,2,1,2,44194,WMM2,392573,false,false,469,image-keyboard-response,28
true,4,2,2,2,true,d,false,true,0.0-2.0-0.14-0.129-3.129,1,0,1,68,false,stim,false,2,467.7499999999418,2,1,2,44194,WMM2,394549,false,false,472,image-keyboard-response,29
true,4,0,2,1,false,z,true,false,0.0-2.0-0.14-0.130-3.130,1,0,1,81,false,stim,false,1,1047.1900000000023,2,1,0,44194,WMM2,397105,false,false,475,image-keyboard-response,30
true,4,0,2,0,true,q,false,true,0.0-2.0-0.14-0.131-3.131,1,0,1,81,false,stim,false,1,1600.5749999998952,2,0,1,44194,WMM2,400217,false,false,478,image-keyboard-response,31
true,4,0,2,0,true,q,false,false,0.0-2.0-0.14-0.132-3.132,1,0,1,81,false,stim,false,1,651.4649999999092,2,0,1,44194,WMM2,402378,false,true,481,image-keyboard-response,32
true,4,0,2,0,true,q,false,true,0.0-2.0-0.14-0.133-3.133,1,0,1,81,false,stim,false,1,423.8099999999977,2,0,1,44194,WMM2,404316,false,false,484,image-keyboard-response,33
true,4,2,2,2,true,d,false,true,0.0-2.0-0.14-0.134-3.134,1,0,1,68,false,stim,false,2,695.2299999998068,2,1,2,44194,WMM2,406523,false,false,487,image-keyboard-response,34
true,4,0,2,0,true,q,false,true,0.0-2.0-0.15-0.135-3.135,1,0,1,81,false,stim,false,1,1679.9499999999534,2,0,1,44194,WMM2,409712,false,false,490,image-keyboard-response,35
true,4,1,2,1,true,z,false,true,0.0-2.0-0.15-0.136-3.136,1,0,1,90,false,stim,false,1,920.6049999999814,2,1,0,44194,WMM2,412145,false,false,493,image-keyboard-response,36
true,4,1,2,1,true,z,false,true,0.0-2.0-0.15-0.137-3.137,1,0,1,90,false,stim,false,1,378.2949999999837,2,1,0,44194,WMM2,414038,false,false,496,image-keyboard-response,37
true,4,0,2,0,true,q,false,false,0.0-2.0-0.15-0.138-3.138,1,0,1,81,false,stim,false,1,774.4950000001118,2,1,1,44194,WMM2,416324,false,true,499,image-keyboard-response,38
true,4,2,2,2,true,d,false,true,0.0-2.0-0.15-0.139-3.139,1,0,1,68,false,stim,false,2,643.339999999851,2,0,2,44194,WMM2,418488,false,false,502,image-keyboard-response,39
true,4,2,2,2,true,d,false,true,0.0-2.0-0.15-0.140-3.140,1,0,1,68,false,stim,false,2,767.0200000000186,2,0,2,44194,WMM2,420765,false,false,505,image-keyboard-response,40
true,4,1,2,1,true,z,false,true,0.0-2.0-0.15-0.141-3.141,1,0,1,90,false,stim,false,1,832.2949999999255,2,1,0,44194,WMM2,423104,false,false,508,image-keyboard-response,41
true,4,2,2,2,true,d,false,true,0.0-2.0-0.15-0.142-3.142,1,0,1,68,false,stim,false,2,650.4649999999674,2,0,2,44194,WMM2,425263,false,false,511,image-keyboard-response,42
true,4,0,2,0,true,q,false,true,0.0-2.0-0.15-0.143-3.143,1,0,1,81,false,stim,false,1,991.6150000001071,2,1,1,44194,WMM2,427763,false,false,514,image-keyboard-response,43
true,4,2,2,2,true,d,false,true,0.0-2.0-0.16-0.144-3.144,1,0,1,68,false,stim,false,2,906.1550000001444,2,0,2,44194,WMM2,430177,false,false,517,image-keyboard-response,44
true,4,1,2,0,false,q,false,true,0.0-2.0-0.16-0.145-3.145,1,0,1,90,false,stim,true,1,812.5150000000722,2,1,1,44194,WMM2,432501,false,true,520,image-keyboard-response,45
true,4,1,2,0,false,q,false,false,0.0-2.0-0.16-0.146-3.146,1,0,1,90,false,stim,true,1,768.9500000001281,2,1,1,44194,WMM2,434778,false,false,523,image-keyboard-response,46
true,4,1,2,1,true,z,false,true,0.0-2.0-0.16-0.147-3.147,1,0,1,90,false,stim,false,1,1480.4499999997788,2,1,0,44194,WMM2,437768,false,false,526,image-keyboard-response,47
true,5,2,3,1,false,z,false,false,0.0-2.0-0.16-0.148-3.148,1,1,0,68,true,stim,true,2,637.8799999999464,2,0,2,44194,WMM2,439915,false,false,529,image-keyboard-response,1
true,5,2,3,1,false,z,false,false,0.0-2.0-0.16-0.149-3.149,1,1,0,68,false,stim,true,2,1132.924999999872,2,0,2,44194,WMM2,442556,false,false,532,image-keyboard-response,2
true,5,1,3,1,true,z,false,false,0.0-2.0-0.16-0.150-3.150,1,1,0,90,false,stim,false,1,1261.5899999997928,2,1,0,44194,WMM2,445327,false,true,535,image-keyboard-response,3
true,5,0,3,0,true,q,false,true,0.0-2.0-0.16-0.151-3.151,1,1,0,81,false,stim,false,0,1028.3549999999232,2,1,1,44194,WMM2,447867,false,false,538,image-keyboard-response,4
true,5,0,3,1,false,z,true,true,0.0-2.0-0.16-0.152-3.152,1,1,0,81,false,stim,false,1,367.88000000000466,2,1,0,44194,WMM2,449744,false,true,541,image-keyboard-response,5
true,5,2,3,1,false,z,false,false,0.0-2.0-0.17-0.153-3.153,1,1,0,68,false,stim,true,2,880.7149999997928,2,0,2,44194,WMM2,452137,false,false,544,image-keyboard-response,6
true,5,0,3,1,false,z,true,false,0.0-2.0-0.17-0.154-3.154,1,1,0,81,false,stim,false,1,621.9049999999697,2,1,0,44194,WMM2,454268,false,false,547,image-keyboard-response,7
true,5,0,3,0,true,q,false,false,0.0-2.0-0.17-0.155-3.155,1,1,0,81,false,stim,false,0,891.3150000000605,2,1,1,44194,WMM2,456669,false,true,550,image-keyboard-response,8
true,5,0,3,1,false,z,true,false,0.0-2.0-0.17-0.156-3.156,1,1,0,81,false,stim,false,1,681.7050000000163,2,1,0,44194,WMM2,458859,false,false,553,image-keyboard-response,9
true,5,0,3,0,true,q,false,true,0.0-2.0-0.17-0.157-3.157,1,1,0,81,false,stim,false,0,383.33500000002095,2,1,1,44194,WMM2,460752,false,false,556,image-keyboard-response,10
true,5,1,3,1,true,z,false,true,0.0-2.0-0.17-0.158-3.158,1,1,0,90,false,stim,false,2,868.5100000000093,2,0,2,44194,WMM2,463131,false,false,559,image-keyboard-response,11
true,5,1,3,1,true,z,false,true,0.0-2.0-0.17-0.159-3.159,1,1,0,90,false,stim,false,2,467.07500000006985,2,0,2,44194,WMM2,465110,false,false,562,image-keyboard-response,12
true,5,2,3,1,false,z,true,false,0.0-2.0-0.17-0.160-3.160,1,1,0,68,false,stim,false,1,450.53000000002794,2,1,0,44194,WMM2,467071,false,false,565,image-keyboard-response,13
true,5,0,3,0,true,q,false,true,0.0-2.0-0.17-0.161-3.161,1,1,0,81,false,stim,false,0,1093.3100000002305,2,1,1,44194,WMM2,469677,false,false,568,image-keyboard-response,14
true,5,1,3,1,true,z,false,true,0.0-2.0-0.18-0.162-3.162,1,1,0,90,false,stim,false,2,1328.0900000002002,2,0,2,44194,WMM2,472527,false,false,571,image-keyboard-response,15
true,5,1,3,1,true,z,false,true,0.0-2.0-0.18-0.163-3.163,1,1,0,90,false,stim,false,2,562.3450000000885,2,0,2,44194,WMM2,474609,false,false,574,image-keyboard-response,16
true,5,0,3,0,true,q,false,true,0.0-2.0-0.18-0.164-3.164,1,1,0,81,false,stim,false,0,1351.7850000000908,2,1,1,44194,WMM2,477480,false,false,577,image-keyboard-response,17
true,5,1,3,1,true,z,false,true,0.0-2.0-0.18-0.165-3.165,1,1,0,90,false,stim,false,1,897.4199999999837,2,1,0,44194,WMM2,479895,false,false,580,image-keyboard-response,18
true,5,1,3,1,true,z,false,true,0.0-2.0-0.18-0.166-3.166,1,1,0,90,false,stim,false,1,419.00500000000466,2,1,0,44194,WMM2,481830,false,false,583,image-keyboard-response,19
true,5,1,3,1,true,z,false,true,0.0-2.0-0.18-0.167-3.167,1,1,0,90,false,stim,false,1,374.449999999837,2,1,0,44194,WMM2,483722,false,false,586,image-keyboard-response,20
true,5,0,3,0,true,q,false,true,0.0-2.0-0.18-0.168-3.168,1,1,0,81,false,stim,false,0,748.9450000000652,2,0,1,44194,WMM2,485995,false,false,589,image-keyboard-response,21
true,5,1,3,1,true,z,false,true,0.0-2.0-0.18-0.169-3.169,1,1,0,90,false,stim,false,2,716.1300000000047,2,1,2,44194,WMM2,488230,false,false,592,image-keyboard-response,22
true,5,0,3,0,true,q,false,true,0.0-2.0-0.18-0.170-3.170,1,1,0,81,false,stim,false,0,986.0300000000279,2,0,1,44194,WMM2,490737,false,false,595,image-keyboard-response,23
true,5,0,3,0,true,q,false,true,0.0-2.0-0.19-0.171-3.171,1,1,0,81,false,stim,false,0,747.0700000001234,2,0,1,44194,WMM2,493009,false,false,598,image-keyboard-response,24
true,5,1,3,1,true,z,false,true,0.0-2.0-0.19-0.172-3.172,1,1,0,90,false,stim,false,1,868.4650000000256,2,0,0,44194,WMM2,495413,false,false,601,image-keyboard-response,25
true,5,1,3,1,true,z,false,true,0.0-2.0-0.19-0.173-3.173,1,1,0,90,false,stim,false,2,1021.945000000007,2,1,2,44194,WMM2,497952,false,false,604,image-keyboard-response,26
true,5,0,3,0,true,q,false,false,0.0-2.0-0.19-0.174-3.174,1,1,0,81,false,stim,false,0,800.7250000000931,2,0,1,44194,WMM2,500272,false,true,607,image-keyboard-response,27
true,5,1,3,1,true,z,false,true,0.0-2.0-0.19-0.175-3.175,1,1,0,90,false,stim,false,2,755.9600000001956,2,1,2,44194,WMM2,502549,false,false,610,image-keyboard-response,28
true,5,1,3,1,true,z,false,true,0.0-2.0-0.19-0.176-3.176,1,1,0,90,false,stim,false,1,1421.5200000000768,2,0,0,44194,WMM2,505491,false,false,613,image-keyboard-response,29
true,5,0,3,0,true,q,false,true,0.0-2.0-0.19-0.177-3.177,1,1,0,81,false,stim,false,0,948.8799999999464,2,0,1,44194,WMM2,507961,false,false,616,image-keyboard-response,30
true,6,1,1,2,false,d,false,false,0.0-2.0-0.19-0.178-3.178,0,0,1,90,true,stim,true,1,1359.3149999999441,2,0,0,44194,WMM2,510840,false,false,619,image-keyboard-response,1
true,6,1,1,1,true,z,false,true,0.0-2.0-0.19-0.179-3.179,0,0,1,90,false,stim,false,1,732.4100000000326,2,1,2,44194,WMM2,513090,false,false,622,image-keyboard-response,2
true,6,0,1,1,false,z,false,false,0.0-2.0-0.20-0.180-3.180,0,0,1,81,false,stim,true,0,486.2799999998533,2,0,1,44194,WMM2,515100,false,false,625,image-keyboard-response,3
true,6,1,1,2,false,d,false,false,0.0-2.0-0.20-0.181-3.181,0,0,1,90,false,stim,true,1,611.5399999998626,2,0,0,44194,WMM2,517233,false,false,628,image-keyboard-response,4
true,6,1,1,1,true,z,false,true,0.0-2.0-0.20-0.182-3.182,0,0,1,90,false,stim,false,1,1067.5499999999884,2,1,2,44194,WMM2,519819,false,false,631,image-keyboard-response,5
true,6,2,1,2,true,d,false,true,0.0-2.0-0.20-0.183-3.183,0,0,1,68,false,stim,false,1,1149.9150000001537,2,0,0,44194,WMM2,522489,false,false,634,image-keyboard-response,6
true,6,0,1,1,false,z,false,true,0.0-2.0-0.20-0.184-3.184,0,0,1,81,false,stim,true,0,1327.5749999999534,2,0,1,44194,WMM2,525329,false,true,637,image-keyboard-response,7
true,6,1,1,1,true,z,false,true,0.0-2.0-0.20-0.185-3.185,0,0,1,90,false,stim,false,1,514.2399999999907,2,1,2,44194,WMM2,527362,false,false,640,image-keyboard-response,8
true,6,0,1,1,false,z,false,false,0.0-2.0-0.20-0.186-3.186,0,0,1,81,false,stim,true,0,1116.4999999998836,2,0,1,44194,WMM2,529992,false,false,643,image-keyboard-response,9
true,6,1,1,1,true,z,false,true,0.0-2.0-0.20-0.187-3.187,0,0,1,90,false,stim,false,1,675.9600000000792,2,1,2,44194,WMM2,532188,false,false,646,image-keyboard-response,10
true,6,2,1,2,true,d,false,true,0.0-2.0-0.20-0.188-3.188,0,0,1,68,false,stim,false,1,705.0000000001164,2,0,0,44194,WMM2,534416,false,false,649,image-keyboard-response,11
true,6,0,1,1,false,z,false,false,0.0-2.0-0.21-0.189-3.189,0,0,1,81,false,stim,true,0,941.5500000000466,2,0,1,44194,WMM2,536894,false,false,652,image-keyboard-response,12
true,6,1,1,1,true,z,false,true,0.0-2.0-0.21-0.190-3.190,0,0,1,90,false,stim,false,0,654.6349999998929,2,0,1,44194,WMM2,539067,false,false,655,image-keyboard-response,13
true,6,1,1,1,true,z,false,true,0.0-2.0-0.21-0.191-3.191,0,0,1,90,false,stim,false,0,453.2049999999581,2,0,1,44194,WMM2,541042,false,false,658,image-keyboard-response,14
true,6,2,1,2,true,d,false,true,0.0-2.0-0.21-0.192-3.192,0,0,1,68,false,stim,false,1,620.3949999999022,2,0,0,44194,WMM2,543182,false,false,661,image-keyboard-response,15
true,6,1,1,1,true,z,false,true,0.0-2.0-0.21-0.193-3.193,0,0,1,90,false,stim,false,1,664.5550000000512,2,1,2,44194,WMM2,545365,false,false,664,image-keyboard-response,16
true,6,2,1,2,true,d,false,true,0.0-2.0-0.21-0.194-3.194,0,0,1,68,false,stim,false,1,784.4549999999581,2,0,0,44194,WMM2,547669,false,false,667,image-keyboard-response,17
true,6,1,1,1,true,z,false,true,0.0-2.0-0.21-0.195-3.195,0,0,1,90,false,stim,false,1,1026.795000000042,2,1,2,44194,WMM2,550218,false,false,670,image-keyboard-response,18
true,6,2,1,2,true,d,false,false,0.0-2.0-0.21-0.196-3.196,0,0,1,68,false,stim,false,1,617.6749999999302,2,0,0,44194,WMM2,552358,false,true,673,image-keyboard-response,19
true,6,1,1,1,true,z,false,true,0.0-2.0-0.21-0.197-3.197,0,0,1,90,false,stim,false,1,1009.3349999999627,2,1,2,44194,WMM2,554891,false,false,676,image-keyboard-response,20
true,6,1,1,1,true,z,false,false,0.0-2.0-0.22-0.198-3.198,0,0,1,90,false,stim,false,1,419.13000000000466,2,1,2,44194,WMM2,556835,false,true,679,image-keyboard-response,21
true,6,1,1,1,true,z,false,true,0.0-2.0-0.22-0.199-3.199,0,0,1,90,false,stim,false,1,920.1350000000093,2,1,2,44194,WMM2,559278,false,false,682,image-keyboard-response,22
true,6,1,1,1,true,z,false,true,0.0-2.0-0.22-0.200-3.200,0,0,1,90,false,stim,false,0,629.5850000001956,2,0,1,44194,WMM2,561434,false,false,685,image-keyboard-response,23
true,6,1,1,1,true,z,false,false,0.0-2.0-0.22-0.201-3.201,0,0,1,90,false,stim,false,0,392.5799999999581,2,0,1,44194,WMM2,563345,false,true,688,image-keyboard-response,24
true,6,2,1,2,true,d,false,true,0.0-2.0-0.22-0.202-3.202,0,0,1,68,false,stim,false,1,776.9149999999208,2,1,0,44194,WMM2,565643,false,false,691,image-keyboard-response,25
true,6,1,1,1,true,z,false,true,0.0-2.0-0.22-0.203-3.203,0,0,1,90,false,stim,false,1,847.7550000001211,2,1,2,44194,WMM2,568009,false,false,694,image-keyboard-response,26
true,6,2,1,2,true,d,false,false,0.0-2.0-0.22-0.204-3.204,0,0,1,68,false,stim,false,1,768.9049999997951,2,1,0,44194,WMM2,570298,false,true,697,image-keyboard-response,27
true,6,2,1,2,true,d,false,true,0.0-2.0-0.22-0.205-3.205,0,0,1,68,false,stim,false,1,382.35000000009313,2,1,0,44194,WMM2,572200,false,false,700,image-keyboard-response,28
true,6,1,1,1,true,z,false,true,0.0-2.0-0.22-0.206-3.206,0,0,1,90,false,stim,false,0,747.9949999999953,2,0,1,44194,WMM2,574479,false,false,703,image-keyboard-response,29
true,6,1,1,1,true,z,false,true,0.0-2.0-0.23-0.207-3.207,0,0,1,90,false,stim,false,0,462.64999999990687,2,0,1,44194,WMM2,576458,false,false,706,image-keyboard-response,30
true,7,2,4,2,true,d,false,true,0.0-2.0-0.23-0.208-3.208,1,0,1,68,true,stim,false,2,1248.280000000028,2,1,0,44194,WMM2,579230,false,false,709,image-keyboard-response,1
true,7,2,4,2,true,d,false,true,0.0-2.0-0.23-0.209-3.209,1,0,1,68,false,stim,false,2,520.9899999999907,2,1,0,44194,WMM2,581271,false,false,712,image-keyboard-response,2
true,7,1,4,1,true,z,false,true,0.0-2.0-0.23-0.210-3.210,1,0,1,90,false,stim,false,1,662.0450000000419,2,1,2,44194,WMM2,583455,false,false,715,image-keyboard-response,3
true,7,1,4,1,true,z,false,true,0.0-2.0-0.23-0.211-3.211,1,0,1,90,false,stim,false,1,541.8149999998277,2,1,2,44194,WMM2,585511,false,false,718,image-keyboard-response,4
true,7,1,4,1,true,z,false,true,0.0-2.0-0.23-0.212-3.212,1,0,1,90,false,stim,false,1,1186.490000000107,2,0,1,44194,WMM2,588217,false,false,721,image-keyboard-response,5
true,7,1,4,1,true,z,false,true,0.0-2.0-0.23-0.213-3.213,1,0,1,90,false,stim,false,1,408.88500000012573,2,1,2,44194,WMM2,590147,false,false,724,image-keyboard-response,6
true,7,1,4,1,true,z,false,true,0.0-2.0-0.23-0.214-3.214,1,0,1,90,false,stim,false,1,548.1399999998976,2,0,1,44194,WMM2,592218,false,false,727,image-keyboard-response,7
true,7,2,4,2,true,d,false,false,0.0-2.0-0.23-0.215-3.215,1,0,1,68,false,stim,false,2,536.0399999999208,2,1,0,44194,WMM2,594287,false,true,730,image-keyboard-response,8
true,7,1,4,1,true,z,false,false,0.0-2.0-0.24-0.216-3.216,1,0,1,90,false,stim,false,1,384.57500000006985,2,1,2,44194,WMM2,596193,false,true,733,image-keyboard-response,9
true,7,1,4,1,true,z,false,true,0.0-2.0-0.24-0.217-3.217,1,0,1,90,false,stim,false,1,523.5449999998091,2,0,1,44194,WMM2,598237,false,false,736,image-keyboard-response,10
true,7,2,4,2,true,d,false,false,0.0-2.0-0.24-0.218-3.218,1,0,1,68,false,stim,false,2,449.13000000000466,2,1,0,44194,WMM2,600206,false,true,739,image-keyboard-response,11
true,7,1,4,1,true,z,false,true,0.0-2.0-0.24-0.219-3.219,1,0,1,90,false,stim,false,1,665.7350000001024,2,1,2,44194,WMM2,602392,false,false,742,image-keyboard-response,12
true,7,1,4,1,true,z,false,true,0.0-2.0-0.24-0.220-3.220,1,0,1,90,false,stim,false,1,378.42499999993015,2,0,1,44194,WMM2,604301,false,false,745,image-keyboard-response,13
true,7,1,4,1,true,z,false,false,0.0-2.0-0.24-0.221-3.221,1,0,1,90,false,stim,false,1,500.9450000000652,2,1,2,44194,WMM2,606325,false,true,748,image-keyboard-response,14
true,7,0,4,2,false,d,true,false,0.0-2.0-0.24-0.222-3.222,1,0,1,81,false,stim,false,2,528.0350000000326,2,1,0,44194,WMM2,608379,false,false,751,image-keyboard-response,15
true,7,1,4,2,false,d,true,false,0.0-2.0-0.24-0.223-3.223,1,0,1,90,false,stim,false,2,469.8699999998789,2,1,0,44194,WMM2,610364,false,false,754,image-keyboard-response,16
true,7,1,4,1,true,z,false,true,0.0-2.0-0.24-0.224-3.224,1,0,1,90,false,stim,false,1,1386.6399999998976,2,0,1,44194,WMM2,613279,false,false,757,image-keyboard-response,17
true,7,2,4,2,true,d,false,false,0.0-2.0-0.25-0.225-3.225,1,0,1,68,false,stim,false,2,443.1199999998789,2,1,0,44194,WMM2,615244,false,true,760,image-keyboard-response,18
true,7,1,4,2,false,d,true,false,0.0-2.0-0.25-0.226-3.226,1,0,1,90,false,stim,false,2,630.8349999999627,2,1,0,44194,WMM2,617402,false,false,763,image-keyboard-response,19
true,7,1,4,1,true,z,false,true,0.0-2.0-0.25-0.227-3.227,1,0,1,90,false,stim,false,1,1248.7750000000233,2,1,2,44194,WMM2,620173,false,false,766,image-keyboard-response,20
true,7,0,4,2,false,d,true,true,0.0-2.0-0.25-0.228-3.228,1,0,1,81,false,stim,false,2,562.7300000000978,2,1,0,44194,WMM2,622258,false,true,769,image-keyboard-response,21
true,7,1,4,1,true,z,false,true,0.0-2.0-0.25-0.229-3.229,1,0,1,90,false,stim,false,1,638.4100000000326,2,1,2,44194,WMM2,624435,false,false,772,image-keyboard-response,22
true,7,1,4,1,true,z,false,true,0.0-2.0-0.25-0.230-3.230,1,0,1,90,false,stim,false,1,684.8299999999581,2,0,1,44194,WMM2,626648,false,false,775,image-keyboard-response,23
true,7,1,4,1,true,z,false,true,0.0-2.0-0.25-0.231-3.231,1,0,1,90,false,stim,false,1,353.83500000007916,2,1,2,44194,WMM2,628524,false,false,778,image-keyboard-response,24
true,7,1,4,1,true,z,false,true,0.0-2.0-0.25-0.232-3.232,1,0,1,90,false,stim,false,1,643.3800000000047,2,0,1,44194,WMM2,630691,false,false,781,image-keyboard-response,25
true,7,1,4,1,true,z,false,true,0.0-2.0-0.25-0.233-3.233,1,0,1,90,false,stim,false,1,557.6200000001118,2,0,1,44194,WMM2,632788,false,false,784,image-keyboard-response,26
true,7,1,4,1,true,z,false,true,0.0-2.0-0.26-0.234-3.234,1,0,1,90,false,stim,false,1,492.47500000009313,2,0,1,44194,WMM2,634806,false,false,787,image-keyboard-response,27
true,7,1,4,1,true,z,false,true,0.0-2.0-0.26-0.235-3.235,1,0,1,90,false,stim,false,1,455.20999999996275,2,1,2,44194,WMM2,636788,false,false,790,image-keyboard-response,28
true,7,0,4,2,false,d,true,false,0.0-2.0-0.26-0.236-3.236,1,0,1,81,false,stim,false,2,1144.4750000000931,2,1,0,44194,WMM2,639469,false,false,793,image-keyboard-response,29
true,7,1,4,1,true,z,false,true,0.0-2.0-0.26-0.237-3.237,1,0,1,90,false,stim,false,1,1044.2299999999814,2,0,1,44194,WMM2,642032,false,false,796,image-keyboard-response,30
true,7,0,4,2,false,d,true,false,0.0-2.0-0.26-0.238-3.238,1,0,1,81,false,stim,false,2,503.88999999989755,2,1,0,44194,WMM2,644067,false,false,799,image-keyboard-response,31
true,7,1,4,1,true,z,false,true,0.0-2.0-0.26-0.239-3.239,1,0,1,90,false,stim,false,1,523.9150000000373,2,1,2,44194,WMM2,646151,false,false,802,image-keyboard-response,32
true,7,1,4,1,true,z,false,true,0.0-2.0-0.26-0.240-3.240,1,0,1,90,false,stim,false,1,709.1749999999302,2,0,1,44194,WMM2,648388,false,false,805,image-keyboard-response,33
true,7,0,4,2,false,d,true,false,0.0-2.0-0.26-0.241-3.241,1,0,1,81,false,stim,false,2,504.5700000000652,2,1,0,44194,WMM2,650420,false,false,808,image-keyboard-response,34
true,7,1,4,1,true,z,false,true,0.0-2.0-0.26-0.242-3.242,1,0,1,90,false,stim,false,1,617.4350000001723,2,1,2,44194,WMM2,652577,false,false,811,image-keyboard-response,35
true,7,1,4,1,true,z,false,true,0.0-2.0-0.27-0.243-3.243,1,0,1,90,false,stim,false,1,466.69000000006054,2,1,2,44194,WMM2,654579,false,false,814,image-keyboard-response,36
true,7,1,4,1,true,z,false,true,0.0-2.0-0.27-0.244-3.244,1,0,1,90,false,stim,false,1,429.27499999990687,2,0,1,44194,WMM2,656540,false,false,817,image-keyboard-response,37
true,7,1,4,1,true,z,false,true,0.0-2.0-0.27-0.245-3.245,1,0,1,90,false,stim,false,1,490.92500000004657,2,1,2,44194,WMM2,658554,false,false,820,image-keyboard-response,38
true,7,0,4,2,false,d,true,false,0.0-2.0-0.27-0.246-3.246,1,0,1,81,false,stim,false,2,573.8649999999907,2,1,0,44194,WMM2,660654,false,false,823,image-keyboard-response,39
true,7,1,4,2,false,d,true,false,0.0-2.0-0.27-0.247-3.247,1,0,1,90,false,stim,false,2,893.9399999999441,2,1,0,44194,WMM2,663083,false,false,826,image-keyboard-response,40
true,7,1,4,1,true,z,false,true,0.0-2.0-0.27-0.248-3.248,1,0,1,90,false,stim,false,1,517.6849999999395,2,0,1,44194,WMM2,665129,false,false,829,image-keyboard-response,41
true,7,2,4,2,true,d,false,true,0.0-2.0-0.27-0.249-3.249,1,0,1,68,false,stim,false,2,424.94000000006054,2,1,0,44194,WMM2,667080,false,false,832,image-keyboard-response,42
true,7,1,4,1,true,z,false,true,0.0-2.0-0.27-0.250-3.250,1,0,1,90,false,stim,false,1,328.32499999995343,2,0,1,44194,WMM2,668946,false,false,835,image-keyboard-response,43
true,7,1,4,1,true,z,false,true,0.0-2.0-0.27-0.251-3.251,1,0,1,90,false,stim,false,1,364.0,2,1,2,44194,WMM2,670837,false,false,838,image-keyboard-response,44
true,7,1,4,2,false,d,true,false,0.0-2.0-0.28-0.252-3.252,1,0,1,90,false,stim,false,2,232.75999999977648,2,1,0,44194,WMM2,672598,false,false,841,image-keyboard-response,45
true,7,1,4,1,true,z,false,true,0.0-2.0-0.28-0.253-3.253,1,0,1,90,false,stim,false,1,385.5250000002561,2,1,2,44194,WMM2,674514,false,false,844,image-keyboard-response,46
true,7,1,4,1,true,z,false,true,0.0-2.0-0.28-0.254-3.254,1,0,1,90,false,stim,false,1,517.5850000000792,2,0,1,44194,WMM2,676559,false,false,847,image-keyboard-response,47
true,7,2,4,2,true,d,false,true,0.0-2.0-0.28-0.255-3.255,1,0,1,68,false,stim,false,2,608.0199999997858,2,1,0,44194,WMM2,678695,false,false,850,image-keyboard-response,48
true,7,1,4,1,true,z,false,true,0.0-2.0-0.28-0.256-3.256,1,0,1,90,false,stim,false,1,340.05999999993946,2,1,2,44194,WMM2,680574,false,false,853,image-keyboard-response,49
true,7,1,4,1,true,z,false,true,0.0-2.0-0.28-0.257-3.257,1,0,1,90,false,stim,false,1,491.5100000000093,2,0,1,44194,WMM2,682599,false,false,856,image-keyboard-response,50
true,7,1,4,1,true,z,false,true,0.0-2.0-0.28-0.258-3.258,1,0,1,90,false,stim,false,1,538.8649999999907,2,1,1,44194,WMM2,684683,false,false,859,image-keyboard-response,51
true,7,2,4,2,true,d,false,true,0.0-2.0-0.28-0.259-3.259,1,0,1,68,false,stim,false,2,589.3200000000652,2,0,0,44194,WMM2,686803,false,false,862,image-keyboard-response,52
true,7,1,4,1,true,z,false,false,0.0-2.0-0.28-0.260-3.260,1,0,1,90,false,stim,false,1,588.7600000000093,2,0,2,44194,WMM2,688916,false,true,865,image-keyboard-response,53
true,7,2,4,2,true,d,false,true,0.0-2.0-0.29-0.261-3.261,1,0,1,68,false,stim,false,2,767.2099999999627,2,0,0,44194,WMM2,691209,false,false,868,image-keyboard-response,54
true,7,1,4,1,true,z,false,true,0.0-2.0-0.29-0.262-3.262,1,0,1,90,false,stim,false,1,443.7899999998044,2,0,2,44194,WMM2,693174,false,false,871,image-keyboard-response,55
true,7,1,4,1,true,z,false,false,0.0-2.0-0.29-0.263-3.263,1,0,1,90,false,stim,false,1,791.5,2,1,1,44194,WMM2,695488,false,true,874,image-keyboard-response,56
true,7,1,4,1,true,z,false,false,0.0-2.0-0.29-0.264-3.264,1,0,1,90,false,stim,false,1,541.2600000000093,2,0,2,44194,WMM2,697551,false,true,877,image-keyboard-response,57
true,7,1,4,1,true,z,false,true,0.0-2.0-0.29-0.265-3.265,1,0,1,90,false,stim,false,1,408.69999999995343,2,0,2,44194,WMM2,699481,false,false,880,image-keyboard-response,58
true,7,1,4,1,true,z,false,false,0.0-2.0-0.29-0.266-3.266,1,0,1,90,false,stim,false,1,393.6700000001583,2,1,1,44194,WMM2,701392,false,true,883,image-keyboard-response,59
true,7,2,4,1,false,z,true,false,0.0-2.0-0.29-0.267-3.267,1,0,1,68,false,stim,false,1,827.4950000001118,2,1,1,44194,WMM2,703743,false,false,886,image-keyboard-response,60
true,8,2,1,1,false,z,false,false,0.0-2.0-0.29-0.268-3.268,0,1,0,68,true,stim,true,2,767.3349999999627,2,0,0,44194,WMM2,706033,false,false,889,image-keyboard-response,1
true,8,2,1,1,false,z,false,false,0.0-2.0-0.29-0.269-3.269,0,1,0,68,false,stim,true,2,585.9300000001676,2,0,0,44194,WMM2,708141,false,false,892,image-keyboard-response,2
true,8,2,1,1,false,z,false,false,0.0-2.0-0.30-0.270-3.270,0,1,0,68,false,stim,true,2,498.5349999999162,2,0,0,44194,WMM2,710165,false,false,895,image-keyboard-response,3
true,8,0,1,1,false,z,true,false,0.0-2.0-0.30-0.271-3.271,0,1,0,81,false,stim,false,2,465.08499999984633,2,0,0,44194,WMM2,712151,false,false,898,image-keyboard-response,4
true,8,1,1,1,true,z,false,true,0.0-2.0-0.30-0.272-3.272,0,1,0,90,false,stim,false,2,390.29000000003725,2,0,0,44194,WMM2,714102,false,false,901,image-keyboard-response,5
true,8,1,1,0,false,q,false,false,0.0-2.0-0.30-0.273-3.273,0,1,0,90,false,stim,true,1,661.7499999998836,2,0,2,44194,WMM2,716288,false,false,904,image-keyboard-response,6
true,8,0,1,1,false,z,true,false,0.0-2.0-0.30-0.274-3.274,0,1,0,81,false,stim,false,1,750.5750000000698,2,1,1,44194,WMM2,718564,false,false,907,image-keyboard-response,7
true,8,0,1,1,false,z,true,false,0.0-2.0-0.30-0.275-3.275,0,1,0,81,false,stim,false,1,849.9400000000605,2,1,1,44194,WMM2,720938,false,false,910,image-keyboard-response,8
true,8,2,1,1,false,z,true,false,0.0-2.0-0.30-0.276-3.276,0,1,0,68,false,stim,false,1,562.6149999997579,2,1,1,44194,WMM2,723016,false,false,913,image-keyboard-response,9
true,8,1,1,0,false,q,false,false,0.0-2.0-0.30-0.277-3.277,0,1,0,90,false,stim,true,1,808.5949999999721,2,0,2,44194,WMM2,725344,false,false,916,image-keyboard-response,10
true,8,2,1,0,false,q,true,false,0.0-2.0-0.30-0.278-3.278,0,1,0,68,false,stim,false,1,702.7900000000373,2,0,2,44194,WMM2,727570,false,false,919,image-keyboard-response,11
true,8,1,1,1,true,z,false,true,0.0-2.0-0.31-0.279-3.279,0,1,0,90,false,stim,false,2,834.3250000000698,2,0,0,44194,WMM2,729930,false,false,922,image-keyboard-response,12
true,8,2,1,1,false,z,true,false,0.0-2.0-0.31-0.280-3.280,0,1,0,68,false,stim,false,1,1150.0550000001676,2,1,1,44194,WMM2,732599,false,false,925,image-keyboard-response,13
true,8,1,1,1,true,z,false,true,0.0-2.0-0.31-0.281-3.281,0,1,0,90,false,stim,false,1,575.9349999999395,2,1,1,44194,WMM2,734699,false,false,928,image-keyboard-response,14
true,8,1,1,0,false,q,false,false,0.0-2.0-0.31-0.282-3.282,0,1,0,90,false,stim,true,1,1360.4100000000326,2,0,2,44194,WMM2,737583,false,false,931,image-keyboard-response,15
true,8,1,1,1,true,z,false,true,0.0-2.0-0.31-0.283-3.283,0,1,0,90,false,stim,false,2,714.6749999999302,2,0,0,44194,WMM2,739815,false,false,934,image-keyboard-response,16
true,8,1,1,1,true,z,false,true,0.0-2.0-0.31-0.284-3.284,0,1,0,90,false,stim,false,1,468.14999999990687,2,1,1,44194,WMM2,741809,false,false,937,image-keyboard-response,17
true,8,1,1,1,true,z,false,true,0.0-2.0-0.31-0.285-3.285,0,1,0,90,false,stim,false,2,517.8199999999488,2,0,0,44194,WMM2,743848,false,false,940,image-keyboard-response,18
true,8,0,1,0,true,q,false,true,0.0-2.0-0.31-0.286-3.286,0,1,0,81,false,stim,false,1,457.82500000018626,2,0,2,44194,WMM2,745829,false,false,943,image-keyboard-response,19
true,8,0,1,0,true,q,false,true,0.0-2.0-0.31-0.287-3.287,0,1,0,81,false,stim,false,1,407.1300000001211,2,0,2,44194,WMM2,747754,false,false,946,image-keyboard-response,20
true,8,0,1,0,true,q,false,true,0.0-2.0-0.32-0.288-3.288,0,1,0,81,false,stim,false,1,560.6949999999488,2,1,2,44194,WMM2,749845,false,false,949,image-keyboard-response,21
true,8,1,1,1,true,z,false,true,0.0-2.0-0.32-0.289-3.289,0,1,0,90,false,stim,false,1,846.1150000001071,2,1,1,44194,WMM2,752213,false,false,952,image-keyboard-response,22
true,8,1,1,1,true,z,false,false,0.0-2.0-0.32-0.290-3.290,0,1,0,90,false,stim,false,2,753.1099999998696,2,0,0,44194,WMM2,754495,false,true,955,image-keyboard-response,23
true,8,1,1,1,true,z,false,true,0.0-2.0-0.32-0.291-3.291,0,1,0,90,false,stim,false,1,426.18000000016764,2,1,1,44194,WMM2,756446,false,false,958,image-keyboard-response,24
true,8,0,1,0,true,q,false,true,0.0-2.0-0.32-0.292-3.292,0,1,0,81,false,stim,false,1,1266.7750000000233,2,1,2,44194,WMM2,759237,false,false,961,image-keyboard-response,25
true,8,0,1,0,true,q,false,true,0.0-2.0-0.32-0.293-3.293,0,1,0,81,false,stim,false,1,511.6049999999814,2,1,2,44194,WMM2,761279,false,false,964,image-keyboard-response,26
true,8,1,1,1,true,z,false,true,0.0-2.0-0.32-0.294-3.294,0,1,0,90,false,stim,false,1,785.4299999999348,2,1,1,44194,WMM2,763586,false,false,967,image-keyboard-response,27
true,8,1,1,1,true,z,false,true,0.0-2.0-0.32-0.295-3.295,0,1,0,90,false,stim,false,2,1732.7600000000093,2,0,0,44194,WMM2,766829,false,false,970,image-keyboard-response,28
true,8,1,1,1,true,z,false,true,0.0-2.0-0.32-0.296-3.296,0,1,0,90,false,stim,false,2,537.3149999999441,2,0,0,44194,WMM2,768878,false,false,973,image-keyboard-response,29
true,8,1,1,1,true,z,false,true,0.0-2.0-0.33-0.297-3.297,0,1,0,90,false,stim,false,2,397.45999999996275,2,0,0,44194,WMM2,770790,false,false,976,image-keyboard-response,30
true,9,1,2,2,false,d,false,false,0.0-2.0-0.33-0.298-3.298,0,1,1,90,true,stim,true,1,392.36999999999534,2,0,0,44194,WMM2,772705,false,false,979,image-keyboard-response,1
true,9,0,2,0,true,q,false,false,0.0-2.0-0.33-0.299-3.299,0,1,1,81,false,stim,false,0,1638.1350000001257,2,1,2,44194,WMM2,775856,false,true,982,image-keyboard-response,2
true,9,0,2,0,true,q,false,true,0.0-2.0-0.33-0.300-3.300,0,1,1,81,false,stim,false,0,636.7450000001118,2,1,2,44194,WMM2,778021,false,false,985,image-keyboard-response,3
true,9,1,2,1,true,z,false,true,0.0-2.0-0.33-0.301-3.301,0,1,1,90,false,stim,false,1,536.3150000000605,2,1,1,44194,WMM2,780089,false,false,988,image-keyboard-response,4
true,9,1,2,1,true,z,false,true,0.0-2.0-0.33-0.302-3.302,0,1,1,90,false,stim,false,1,424.4700000002049,2,1,1,44194,WMM2,782037,false,false,991,image-keyboard-response,5
true,9,1,2,0,false,q,true,false,0.0-2.0-0.33-0.303-3.303,0,1,1,90,false,stim,false,0,1457.3149999998277,2,1,2,44194,WMM2,785024,false,false,994,image-keyboard-response,6
true,9,1,2,1,true,z,false,true,0.0-2.0-0.33-0.304-3.304,0,1,1,90,false,stim,false,1,1130.780000000028,2,1,1,44194,WMM2,787677,false,false,997,image-keyboard-response,7
true,9,1,2,2,false,d,false,false,0.0-2.0-0.33-0.305-3.305,0,1,1,90,false,stim,true,1,400.2949999999255,2,0,0,44194,WMM2,789601,false,false,1000,image-keyboard-response,8
true,9,1,2,2,false,d,false,false,0.0-2.0-0.34-0.306-3.306,0,1,1,90,false,stim,true,1,375.1500000000233,2,0,0,44194,WMM2,791518,false,false,1003,image-keyboard-response,9
true,9,0,2,1,false,z,true,false,0.0-2.0-0.34-0.307-3.307,0,1,1,81,false,stim,false,1,1304.155000000028,2,1,1,44194,WMM2,794347,false,false,1006,image-keyboard-response,10
true,9,0,2,1,false,z,true,false,0.0-2.0-0.34-0.308-3.308,0,1,1,81,false,stim,false,1,442.0,2,1,1,44194,WMM2,796310,false,false,1009,image-keyboard-response,11
true,9,1,2,2,false,d,false,false,0.0-2.0-0.34-0.309-3.309,0,1,1,90,false,stim,true,1,777.6799999999348,2,0,0,44194,WMM2,798606,false,false,1012,image-keyboard-response,12
true,9,0,2,0,true,q,false,true,0.0-2.0-0.34-0.310-3.310,0,1,1,81,false,stim,false,0,1401.7150000002002,2,1,2,44194,WMM2,801524,false,false,1015,image-keyboard-response,13
true,9,1,2,2,false,d,false,false,0.0-2.0-0.34-0.311-3.311,0,1,1,90,false,stim,true,1,1329.969999999972,2,0,0,44194,WMM2,804383,false,false,1018,image-keyboard-response,14
true,9,0,2,1,false,z,true,false,0.0-2.0-0.34-0.312-3.312,0,1,1,81,false,stim,false,1,990.2649999998976,2,1,1,44194,WMM2,806902,false,false,1021,image-keyboard-response,15
true,9,0,2,0,true,q,false,true,0.0-2.0-0.34-0.313-3.313,0,1,1,81,false,stim,false,0,1406.4800000000978,2,1,2,44194,WMM2,809829,false,false,1024,image-keyboard-response,16
true,9,0,2,0,true,q,false,true,0.0-2.0-0.34-0.314-3.314,0,1,1,81,false,stim,false,0,1177.1699999999255,2,1,2,44194,WMM2,812530,false,false,1027,image-keyboard-response,17
true,9,1,2,2,false,d,false,false,0.0-2.0-0.35-0.315-3.315,0,1,1,90,false,stim,true,1,931.8100000000559,2,0,0,44194,WMM2,814987,false,false,1030,image-keyboard-response,18
true,9,1,2,2,false,d,false,false,0.0-2.0-0.35-0.316-3.316,0,1,1,90,false,stim,true,1,871.2749999999069,2,0,0,44194,WMM2,817388,false,false,1033,image-keyboard-response,19
true,9,0,2,1,false,z,true,false,0.0-2.0-0.35-0.317-3.317,0,1,1,81,false,stim,false,1,1026.160000000149,2,1,1,44194,WMM2,819936,false,false,1036,image-keyboard-response,20
true,9,0,2,2,false,d,true,true,0.0-2.0-0.35-0.318-3.318,0,1,1,81,false,stim,false,1,1383.9100000000326,2,0,0,44194,WMM2,822853,false,true,1039,image-keyboard-response,21
true,9,2,2,1,false,z,true,false,0.0-2.0-0.35-0.319-3.319,0,1,1,68,false,stim,false,1,938.7149999999674,2,1,1,44194,WMM2,825324,false,false,1042,image-keyboard-response,22
true,9,1,2,0,false,q,true,false,0.0-2.0-0.35-0.320-3.320,0,1,1,90,false,stim,false,0,1930.5250000000233,2,1,2,44194,WMM2,828794,false,false,1045,image-keyboard-response,23
true,9,2,2,1,false,z,true,true,0.0-2.0-0.35-0.321-3.321,0,1,1,68,false,stim,false,1,1448.9450000000652,2,1,1,44194,WMM2,831774,false,true,1048,image-keyboard-response,24
true,9,0,2,0,true,q,false,true,0.0-2.0-0.35-0.322-3.322,0,1,1,81,false,stim,false,0,1089.4649999999674,2,1,2,44194,WMM2,834409,false,false,1051,image-keyboard-response,25
true,9,0,2,0,true,q,false,true,0.0-2.0-0.35-0.323-3.323,0,1,1,81,false,stim,false,0,543.809999999823,2,1,2,44194,WMM2,836490,false,false,1054,image-keyboard-response,26
true,9,0,2,2,false,d,true,false,0.0-2.0-0.36-0.324-3.324,0,1,1,81,false,stim,false,1,473.4000000001397,2,0,0,44194,WMM2,838492,false,false,1057,image-keyboard-response,27
true,9,0,2,0,true,q,false,true,0.0-2.0-0.36-0.325-3.325,0,1,1,81,false,stim,false,0,775.2399999998743,2,1,2,44194,WMM2,840800,false,false,1060,image-keyboard-response,28
true,9,2,2,1,false,z,true,false,0.0-2.0-0.36-0.326-3.326,0,1,1,68,false,stim,false,1,790.0850000001956,2,1,1,44194,WMM2,843136,false,false,1063,image-keyboard-response,29
true,9,0,2,0,true,q,false,true,0.0-2.0-0.36-0.327-3.327,0,1,1,81,false,stim,false,0,755.6950000000652,2,1,2,44194,WMM2,845430,false,false,1066,image-keyboard-response,30
true,9,0,2,2,false,d,true,false,0.0-2.0-0.36-0.328-3.328,0,1,1,81,false,stim,false,1,681.949999999837,2,0,0,44194,WMM2,847639,false,false,1069,image-keyboard-response,31
true,9,1,2,2,false,d,false,false,0.0-2.0-0.36-0.329-3.329,0,1,1,90,false,stim,true,1,1213.6199999999953,2,0,0,44194,WMM2,850383,false,false,1072,image-keyboard-response,32
true,9,0,2,1,false,z,true,false,0.0-2.0-0.36-0.330-3.330,0,1,1,81,false,stim,false,1,1585.3050000000512,2,1,1,44194,WMM2,853502,false,false,1075,image-keyboard-response,33
true,9,0,2,0,true,q,false,true,0.0-2.0-0.36-0.331-3.331,0,1,1,81,false,stim,false,0,920.2749999999069,2,1,2,44194,WMM2,855963,false,false,1078,image-keyboard-response,34
true,9,2,2,1,false,z,true,false,0.0-2.0-0.36-0.332-3.332,0,1,1,68,false,stim,false,1,553.3949999999022,2,1,1,44194,WMM2,858055,false,false,1081,image-keyboard-response,35
true,9,2,2,1,false,z,true,false,0.0-2.0-0.37-0.333-3.333,0,1,1,68,false,stim,false,1,482.46999999997206,2,1,1,44194,WMM2,860082,false,false,1084,image-keyboard-response,36
true,9,0,2,0,true,q,false,false,0.0-2.0-0.37-0.334-3.334,0,1,1,81,false,stim,false,0,892.8900000001304,2,1,2,44194,WMM2,862519,false,true,1087,image-keyboard-response,37
true,9,1,2,1,true,z,false,true,0.0-2.0-0.37-0.335-3.335,0,1,1,90,false,stim,false,1,643.0849999999627,2,1,1,44194,WMM2,864707,false,false,1090,image-keyboard-response,38
true,9,2,2,2,true,d,false,true,0.0-2.0-0.37-0.336-3.336,0,1,1,68,false,stim,false,1,1524.1249999998836,2,0,0,44194,WMM2,867771,false,false,1093,image-keyboard-response,39
true,9,0,2,0,true,q,false,true,0.0-2.0-0.37-0.337-3.337,0,1,1,81,false,stim,false,0,1526.9550000000745,2,1,2,44194,WMM2,870841,false,false,1096,image-keyboard-response,40
true,9,2,2,2,true,d,false,true,0.0-2.0-0.37-0.338-3.338,0,1,1,68,false,stim,false,1,1443.6100000001024,2,0,0,44194,WMM2,873821,false,false,1099,image-keyboard-response,41
true,9,0,2,1,false,z,true,false,0.0-2.0-0.37-0.339-3.339,0,1,1,81,false,stim,false,1,1915.7499999998836,2,1,1,44194,WMM2,877300,false,false,1102,image-keyboard-response,42
true,9,2,2,2,true,d,false,true,0.0-2.0-0.37-0.340-3.340,0,1,1,68,false,stim,false,1,1064.8399999999674,2,0,0,44194,WMM2,879895,false,false,1105,image-keyboard-response,43
true,9,0,2,0,true,q,false,true,0.0-2.0-0.37-0.341-3.341,0,1,1,81,false,stim,false,0,1121.7699999999022,2,1,2,44194,WMM2,882559,false,false,1108,image-keyboard-response,44
true,9,1,2,1,true,z,false,true,0.0-2.0-0.38-0.342-3.342,0,1,1,90,false,stim,false,1,537.1450000000186,2,1,1,44194,WMM2,884643,false,false,1111,image-keyboard-response,45
true,9,2,2,2,true,d,false,true,0.0-2.0-0.38-0.343-3.343,0,1,1,68,false,stim,false,1,1064.5849999998463,2,0,0,44194,WMM2,887238,false,false,1114,image-keyboard-response,46
true,9,1,2,1,true,z,false,true,0.0-2.0-0.38-0.344-3.344,0,1,1,90,false,stim,false,1,729.6650000001537,2,1,1,44194,WMM2,889511,false,false,1117,image-keyboard-response,47
true,9,0,2,0,true,q,false,false,0.0-2.0-0.38-0.345-3.345,0,1,1,81,false,stim,false,0,1482.4799999999814,2,1,2,44194,WMM2,892541,false,true,1120,image-keyboard-response,48
true,9,1,2,1,true,z,false,true,0.0-2.0-0.38-0.346-3.346,0,1,1,90,false,stim,false,1,813.75,2,0,1,44194,WMM2,894893,false,false,1123,image-keyboard-response,49
true,9,2,2,2,true,d,false,true,0.0-2.0-0.38-0.347-3.347,0,1,1,68,false,stim,false,1,1221.785000000149,2,1,0,44194,WMM2,897645,false,false,1126,image-keyboard-response,50
true,9,2,2,2,true,d,false,true,0.0-2.0-0.38-0.348-3.348,0,1,1,68,false,stim,false,1,436.1949999999488,2,1,0,44194,WMM2,899615,false,false,1129,image-keyboard-response,51
true,9,0,2,0,true,q,false,true,0.0-2.0-0.38-0.349-3.349,0,1,1,81,false,stim,false,0,992.1800000000512,2,1,2,44194,WMM2,902130,false,false,1132,image-keyboard-response,52
true,9,0,2,0,true,q,false,true,0.0-2.0-0.38-0.350-3.350,0,1,1,81,false,stim,false,0,404.9450000000652,2,1,2,44194,WMM2,904067,false,false,1135,image-keyboard-response,53
true,9,2,2,2,true,d,false,true,0.0-2.0-0.39-0.351-3.351,0,1,1,68,false,stim,false,1,1077.0800000000745,2,1,0,44194,WMM2,906669,false,false,1138,image-keyboard-response,54
true,9,2,2,2,true,d,false,true,0.0-2.0-0.39-0.352-3.352,0,1,1,68,false,stim,false,1,706.9599999999627,2,1,0,44194,WMM2,908898,false,false,1141,image-keyboard-response,55
true,9,2,2,2,true,d,false,true,0.0-2.0-0.39-0.353-3.353,0,1,1,68,false,stim,false,1,643.5900000000838,2,1,0,44194,WMM2,911064,false,false,1144,image-keyboard-response,56
true,9,0,2,0,true,q,false,true,0.0-2.0-0.39-0.354-3.354,0,1,1,81,false,stim,false,0,775.8750000001164,2,1,2,44194,WMM2,913373,false,false,1147,image-keyboard-response,57
true,10,1,2,0,false,q,false,false,0.0-2.0-0.39-0.355-3.355,1,0,1,90,true,stim,true,1,631.5350000000326,2,0,1,44194,WMM2,915535,false,false,1150,image-keyboard-response,1
true,10,1,2,0,false,q,false,true,0.0-2.0-0.39-0.356-3.356,1,0,1,90,false,stim,true,1,494.4199999999255,2,0,1,44194,WMM2,917557,false,true,1153,image-keyboard-response,2
true,10,2,2,0,false,q,true,false,0.0-2.0-0.39-0.357-3.357,1,0,1,68,false,stim,false,0,685.0400000000373,2,1,2,44194,WMM2,919775,false,false,1156,image-keyboard-response,3
true,10,0,2,0,true,q,false,true,0.0-2.0-0.39-0.358-3.358,1,0,1,81,false,stim,false,0,486.41500000015367,2,1,2,44194,WMM2,921790,false,false,1159,image-keyboard-response,4
true,10,1,2,0,false,q,false,false,0.0-2.0-0.39-0.359-3.359,1,0,1,90,false,stim,true,1,669.4449999999488,2,0,1,44194,WMM2,923987,false,false,1162,image-keyboard-response,5
true,10,1,2,0,false,q,false,false,0.0-2.0-0.40-0.360-3.360,1,0,1,90,false,stim,true,1,350.22500000009313,2,0,1,44194,WMM2,925859,false,false,1165,image-keyboard-response,6
true,10,2,2,0,false,q,true,false,0.0-2.0-0.40-0.361-3.361,1,0,1,68,false,stim,false,1,504.71999999997206,2,0,1,44194,WMM2,927892,false,false,1168,image-keyboard-response,7
true,10,0,2,0,true,q,false,true,0.0-2.0-0.40-0.362-3.362,1,0,1,81,false,stim,false,0,1188.8499999997439,2,1,2,44194,WMM2,930612,false,false,1171,image-keyboard-response,8
true,10,0,2,0,true,q,false,true,0.0-2.0-0.40-0.363-3.363,1,0,1,81,false,stim,false,0,345.83499999984633,2,1,2,44194,WMM2,932481,false,false,1174,image-keyboard-response,9
true,10,0,2,0,true,q,false,true,0.0-2.0-0.40-0.364-3.364,1,0,1,81,false,stim,false,0,540.6300000000047,2,1,2,44194,WMM2,934547,false,false,1177,image-keyboard-response,10
true,10,2,2,2,true,d,false,true,0.0-2.0-0.40-0.365-3.365,1,0,1,68,false,stim,false,2,827.1500000001397,2,1,0,44194,WMM2,936901,false,false,1180,image-keyboard-response,11
true,10,2,2,2,true,d,false,true,0.0-2.0-0.40-0.366-3.366,1,0,1,68,false,stim,false,2,489.67500000004657,2,1,0,44194,WMM2,938924,false,false,1183,image-keyboard-response,12
true,10,2,2,2,true,d,false,true,0.0-2.0-0.40-0.367-3.367,1,0,1,68,false,stim,false,2,489.09499999997206,2,1,0,44194,WMM2,940943,false,false,1186,image-keyboard-response,13
true,10,0,2,0,true,q,false,true,0.0-2.0-0.40-0.368-3.368,1,0,1,81,false,stim,false,1,1146.8149999998277,2,0,1,44194,WMM2,943616,false,false,1189,image-keyboard-response,14
true,10,0,2,0,true,q,false,true,0.0-2.0-0.41-0.369-3.369,1,0,1,81,false,stim,false,0,328.9049999999115,2,1,2,44194,WMM2,945473,false,false,1192,image-keyboard-response,15
true,10,0,2,0,true,q,false,true,0.0-2.0-0.41-0.370-3.370,1,0,1,81,false,stim,false,0,508.64000000001397,2,1,2,44194,WMM2,947513,false,false,1195,image-keyboard-response,16
true,10,2,2,2,true,d,false,true,0.0-2.0-0.41-0.371-3.371,1,0,1,68,false,stim,false,2,905.895000000135,2,1,0,44194,WMM2,949949,false,false,1198,image-keyboard-response,17
true,10,0,2,0,true,q,false,true,0.0-2.0-0.41-0.372-3.372,1,0,1,81,false,stim,false,0,1107.9999999998836,2,1,2,44194,WMM2,952608,false,false,1201,image-keyboard-response,18
true,10,1,2,0,false,q,false,false,0.0-2.0-0.41-0.373-3.373,1,0,1,90,false,stim,true,1,919.9300000000512,2,0,1,44194,WMM2,955061,false,false,1204,image-keyboard-response,19
true,10,2,2,2,true,d,false,true,0.0-2.0-0.41-0.374-3.374,1,0,1,68,false,stim,false,2,968.1049999999814,2,1,0,44194,WMM2,957558,false,false,1207,image-keyboard-response,20
true,10,2,2,2,true,d,false,true,0.0-2.0-0.41-0.375-3.375,1,0,1,68,false,stim,false,2,476.93499999982305,2,1,0,44194,WMM2,959582,false,false,1210,image-keyboard-response,21
true,10,0,2,0,true,q,false,true,0.0-2.0-0.41-0.376-3.376,1,0,1,81,false,stim,false,1,840.1900000000605,2,0,1,44194,WMM2,961957,false,false,1213,image-keyboard-response,22
true,10,0,2,0,true,q,false,true,0.0-2.0-0.41-0.377-3.377,1,0,1,81,false,stim,false,1,360.07500000006985,2,0,1,44194,WMM2,963853,false,false,1216,image-keyboard-response,23
true,10,2,2,0,false,q,true,false,0.0-2.0-0.42-0.378-3.378,1,0,1,68,false,stim,false,0,716.3250000000698,2,1,2,44194,WMM2,966118,false,false,1219,image-keyboard-response,24
true,10,2,2,0,false,q,true,false,0.0-2.0-0.42-0.379-3.379,1,0,1,68,false,stim,false,0,913.5050000000047,2,1,2,44194,WMM2,968554,false,false,1222,image-keyboard-response,25
true,10,2,2,2,true,d,false,true,0.0-2.0-0.42-0.380-3.380,1,0,1,68,false,stim,false,2,821.3450000000885,2,0,0,44194,WMM2,970912,false,false,1225,image-keyboard-response,26
true,10,0,2,0,true,q,false,false,0.0-2.0-0.42-0.381-3.381,1,0,1,81,false,stim,false,1,1480.0199999999022,2,1,1,44194,WMM2,973919,false,true,1228,image-keyboard-response,27
true,10,0,2,0,true,q,false,true,0.0-2.0-0.42-0.382-3.382,1,0,1,81,false,stim,false,1,1140.3850000001257,2,1,1,44194,WMM2,976586,false,false,1231,image-keyboard-response,28
true,10,2,2,2,true,d,false,true,0.0-2.0-0.42-0.383-3.383,1,0,1,68,false,stim,false,2,1175.6249999998836,2,0,0,44194,WMM2,979289,false,false,1234,image-keyboard-response,29
true,10,0,2,0,true,q,false,true,0.0-2.0-0.42-0.384-3.384,1,0,1,81,false,stim,false,0,846.7399999999907,2,1,2,44194,WMM2,981663,false,false,1237,image-keyboard-response,30
true,10,2,2,2,true,d,false,true,0.0-2.0-0.42-0.385-3.385,1,0,1,68,false,stim,false,2,1012.5650000000605,2,0,0,44194,WMM2,984201,false,false,1240,image-keyboard-response,31
true,10,0,2,0,true,q,false,false,0.0-2.0-0.42-0.386-3.386,1,0,1,81,false,stim,false,1,621.3549999999814,2,1,1,44194,WMM2,986352,false,true,1243,image-keyboard-response,32
true,10,0,2,0,true,q,false,true,0.0-2.0-0.43-0.387-3.387,1,0,1,81,false,stim,false,1,401.96999999985565,2,1,1,44194,WMM2,988282,false,false,1246,image-keyboard-response,33
true,11,0,3,1,false,z,true,false,0.0-2.0-0.43-0.388-3.388,0,1,1,81,true,stim,false,2,1137.7399999998743,2,0,0,44194,WMM2,990950,false,false,1249,image-keyboard-response,1
true,11,0,3,0,true,q,false,true,0.0-2.0-0.43-0.389-3.389,0,1,1,81,false,stim,false,0,449.4849999998696,2,1,2,44194,WMM2,992926,false,false,1252,image-keyboard-response,2
true,11,0,3,0,true,q,false,false,0.0-2.0-0.43-0.390-3.390,0,1,1,81,false,stim,false,0,937.1699999999255,2,1,1,44194,WMM2,995394,false,true,1255,image-keyboard-response,3
true,11,2,3,1,false,z,false,false,0.0-2.0-0.43-0.391-3.391,0,1,1,68,false,stim,true,2,402.7049999999581,2,0,0,44194,WMM2,997321,false,false,1258,image-keyboard-response,4
true,11,0,3,0,true,q,false,true,0.0-2.0-0.43-0.392-3.392,0,1,1,81,false,stim,false,0,992.5900000000838,2,1,2,44194,WMM2,999829,false,false,1261,image-keyboard-response,5
true,11,0,3,0,true,q,false,true,0.0-2.0-0.43-0.393-3.393,0,1,1,81,false,stim,false,0,365.16499999992084,2,1,2,44194,WMM2,1001723,false,false,1264,image-keyboard-response,6
true,11,2,3,1,false,z,false,false,0.0-2.0-0.43-0.394-3.394,0,1,1,68,false,stim,true,2,675.789999999688,2,0,0,44194,WMM2,1003928,false,false,1267,image-keyboard-response,7
true,11,0,3,0,true,q,false,true,0.0-2.0-0.43-0.395-3.395,0,1,1,81,false,stim,false,0,1291.3850000000093,2,1,1,44194,WMM2,1006750,false,false,1270,image-keyboard-response,8
true,11,1,3,1,true,z,false,true,0.0-2.0-0.44-0.396-3.396,0,1,1,90,false,stim,false,2,631.4199999999255,2,0,0,44194,WMM2,1008903,false,false,1273,image-keyboard-response,9
true,11,0,3,0,true,q,false,true,0.0-2.0-0.44-0.397-3.397,0,1,1,81,false,stim,false,0,705.9799999999814,2,1,1,44194,WMM2,1011137,false,false,1276,image-keyboard-response,10
true,11,0,3,0,true,q,false,true,0.0-2.0-0.44-0.398-3.398,0,1,1,81,false,stim,false,0,533.2399999999907,2,1,2,44194,WMM2,1013196,false,false,1279,image-keyboard-response,11
true,11,0,3,0,true,q,false,true,0.0-2.0-0.44-0.399-3.399,0,1,1,81,false,stim,false,0,652.770000000135,2,1,1,44194,WMM2,1015374,false,false,1282,image-keyboard-response,12
true,11,1,3,1,true,z,false,true,0.0-2.0-0.44-0.400-3.400,0,1,1,90,false,stim,false,2,672.6449999999022,2,0,0,44194,WMM2,1017576,false,false,1285,image-keyboard-response,13
true,11,0,3,0,true,q,false,true,0.0-2.0-0.44-0.401-3.401,0,1,1,81,false,stim,false,0,517.2700000000186,2,1,2,44194,WMM2,1019616,false,false,1288,image-keyboard-response,14
true,11,1,3,1,true,z,false,true,0.0-2.0-0.44-0.402-3.402,0,1,1,90,false,stim,false,2,491.910000000149,2,0,0,44194,WMM2,1021640,false,false,1291,image-keyboard-response,15
true,11,0,3,0,true,q,false,false,0.0-2.0-0.44-0.403-3.403,0,1,1,81,false,stim,false,0,575.3299999996088,2,1,2,44194,WMM2,1023739,false,true,1294,image-keyboard-response,16
true,11,1,3,0,false,q,true,false,0.0-2.0-0.44-0.404-3.404,0,1,1,90,false,stim,false,0,979.0050000001211,2,1,1,44194,WMM2,1026255,false,false,1297,image-keyboard-response,17
true,11,0,3,0,true,q,false,false,0.0-2.0-0.45-0.405-3.405,0,1,1,81,false,stim,false,0,1650.2949999999255,2,1,2,44194,WMM2,1029432,false,true,1300,image-keyboard-response,18
true,11,0,3,0,true,q,false,true,0.0-2.0-0.45-0.406-3.406,0,1,1,81,false,stim,false,0,416.78000000002794,2,1,2,44194,WMM2,1031411,false,false,1303,image-keyboard-response,19
true,11,0,3,0,true,q,false,true,0.0-2.0-0.45-0.407-3.407,0,1,1,81,false,stim,false,0,1281.9350000000559,2,1,1,44194,WMM2,1034225,false,false,1306,image-keyboard-response,20
true,11,1,3,0,false,q,true,false,0.0-2.0-0.45-0.408-3.408,0,1,1,90,false,stim,false,0,1086.2050000000745,2,1,2,44194,WMM2,1036859,false,false,1309,image-keyboard-response,21
true,11,1,3,1,true,z,false,true,0.0-2.0-0.45-0.409-3.409,0,1,1,90,false,stim,false,2,459.14999999967404,2,0,0,44194,WMM2,1038860,false,false,1312,image-keyboard-response,22
true,11,1,3,1,true,z,false,true,0.0-2.0-0.45-0.410-3.410,0,1,1,90,false,stim,false,2,430.50999999966007,2,0,0,44194,WMM2,1040832,false,false,1315,image-keyboard-response,23
true,11,1,3,1,true,z,false,true,0.0-2.0-0.45-0.411-3.411,0,1,1,90,false,stim,false,2,474.3850000000093,2,0,0,44194,WMM2,1042843,false,false,1318,image-keyboard-response,24
true,11,0,3,0,true,q,false,true,0.0-2.0-0.45-0.412-3.412,0,1,1,81,false,stim,false,0,551.734999999986,2,1,1,44194,WMM2,1044934,false,false,1321,image-keyboard-response,25
true,11,0,3,0,true,q,false,true,0.0-2.0-0.45-0.413-3.413,0,1,1,81,false,stim,false,0,434.7299999999814,2,1,1,44194,WMM2,1046905,false,false,1324,image-keyboard-response,26
true,11,0,3,0,true,q,false,true,0.0-2.0-0.46-0.414-3.414,0,1,1,81,false,stim,false,0,383.0349999999162,2,1,1,44194,WMM2,1048826,false,false,1327,image-keyboard-response,27
true,11,1,3,0,false,q,true,false,0.0-2.0-0.46-0.415-3.415,0,1,1,90,false,stim,false,0,543.3299999998417,2,1,2,44194,WMM2,1050909,false,false,1330,image-keyboard-response,28
true,11,0,3,0,true,q,false,true,0.0-2.0-0.46-0.416-3.416,0,1,1,81,false,stim,false,0,510.0049999996554,2,1,2,44194,WMM2,1052952,false,false,1333,image-keyboard-response,29
true,11,0,3,0,true,q,false,true,0.0-2.0-0.46-0.417-3.417,0,1,1,81,false,stim,false,0,732.5200000000186,2,1,1,44194,WMM2,1055221,false,false,1336,image-keyboard-response,30
true,11,0,3,0,true,q,false,true,0.0-2.0-0.46-0.418-3.418,0,1,1,81,false,stim,false,0,372.31500000017695,2,1,1,44194,WMM2,1057131,false,false,1339,image-keyboard-response,31
true,11,1,3,1,true,z,false,true,0.0-2.0-0.46-0.419-3.419,0,1,1,90,false,stim,false,2,948.7150000000838,2,0,0,44194,WMM2,1059628,false,false,1342,image-keyboard-response,32
true,11,1,3,1,true,z,false,true,0.0-2.0-0.46-0.420-3.420,0,1,1,90,false,stim,false,2,310.4849999998696,2,0,0,44194,WMM2,1061476,false,false,1345,image-keyboard-response,33
true,11,1,3,1,true,z,false,true,0.0-2.0-0.46-0.421-3.421,0,1,1,90,false,stim,false,2,354.3149999999441,2,0,0,44194,WMM2,1063367,false,false,1348,image-keyboard-response,34
true,11,0,3,0,true,q,false,true,0.0-2.0-0.46-0.422-3.422,0,1,1,81,false,stim,false,0,668.4449999995995,2,1,2,44194,WMM2,1065576,false,false,1351,image-keyboard-response,35
true,11,0,3,0,true,q,false,true,0.0-2.0-0.47-0.423-3.423,0,1,1,81,false,stim,false,0,381.6400000001304,2,1,2,44194,WMM2,1067506,false,false,1354,image-keyboard-response,36
true,11,1,3,0,false,q,true,false,0.0-2.0-0.47-0.424-3.424,0,1,1,90,false,stim,false,0,826.6500000001397,2,0,1,44194,WMM2,1069859,false,false,1357,image-keyboard-response,37
true,11,0,3,0,true,q,false,true,0.0-2.0-0.47-0.425-3.425,0,1,1,81,false,stim,false,0,1248.1100000001024,2,1,2,44194,WMM2,1072635,false,false,1360,image-keyboard-response,38
true,11,0,3,0,true,q,false,true,0.0-2.0-0.47-0.426-3.426,0,1,1,81,false,stim,false,0,352.2700000000186,2,1,2,44194,WMM2,1074515,false,false,1363,image-keyboard-response,39
true,11,1,3,1,true,z,false,true,0.0-2.0-0.47-0.427-3.427,0,1,1,90,false,stim,false,2,457.5200000004843,2,1,0,44194,WMM2,1076500,false,false,1366,image-keyboard-response,40
true,11,1,3,1,true,z,false,true,0.0-2.0-0.47-0.428-3.428,0,1,1,90,false,stim,false,2,485.5800000000745,2,1,0,44194,WMM2,1078515,false,false,1369,image-keyboard-response,41
true,11,0,3,0,true,q,false,true,0.0-2.0-0.47-0.429-3.429,0,1,1,81,false,stim,false,0,533.5300000002608,2,0,1,44194,WMM2,1080578,false,false,1372,image-keyboard-response,42
true,11,1,3,1,true,z,false,true,0.0-2.0-0.47-0.430-3.430,0,1,1,90,false,stim,false,2,681.5299999997951,2,1,0,44194,WMM2,1082787,false,false,1375,image-keyboard-response,43
true,11,0,3,0,true,q,false,true,0.0-2.0-0.47-0.431-3.431,0,1,1,81,false,stim,false,0,859.8249999999534,2,0,1,44194,WMM2,1085181,false,false,1378,image-keyboard-response,44
true,11,1,3,1,true,z,false,false,0.0-2.0-0.48-0.432-3.432,0,1,1,90,false,stim,false,2,455.7849999999162,2,1,0,44194,WMM2,1087166,false,true,1381,image-keyboard-response,45
true,12,0,3,0,true,q,false,true,0.0-2.0-0.48-0.433-3.433,1,0,1,81,true,stim,false,0,628.3600000001024,2,1,2,44194,WMM2,1089322,false,false,1384,image-keyboard-response,1
true,12,0,3,0,true,q,false,true,0.0-2.0-0.48-0.434-3.434,1,0,1,81,false,stim,false,0,426.3899999994319,2,1,2,44194,WMM2,1091275,false,false,1387,image-keyboard-response,2
true,12,0,3,0,true,q,false,true,0.0-2.0-0.48-0.435-3.435,1,0,1,81,false,stim,false,0,377.03000000026077,2,1,2,44194,WMM2,1093188,false,false,1390,image-keyboard-response,3
true,12,0,3,2,false,d,false,false,0.0-2.0-0.48-0.436-3.436,1,0,1,81,false,stim,true,0,802.160000000149,2,0,1,44194,WMM2,1095519,false,false,1393,image-keyboard-response,4
true,12,1,3,1,true,z,false,false,0.0-2.0-0.48-0.437-3.437,1,0,1,90,false,stim,false,1,325.0349999999162,2,1,0,44194,WMM2,1097374,false,true,1396,image-keyboard-response,5
true,12,2,3,2,true,d,false,true,0.0-2.0-0.48-0.438-3.438,1,0,1,68,false,stim,false,0,970.2449999998789,2,0,1,44194,WMM2,1099870,false,false,1399,image-keyboard-response,6
true,12,2,3,1,false,z,true,false,0.0-2.0-0.48-0.439-3.439,1,0,1,68,false,stim,false,1,1274.5799999998417,2,1,0,44194,WMM2,1102714,false,false,1402,image-keyboard-response,7
true,12,2,3,2,true,d,false,false,0.0-2.0-0.48-0.440-3.440,1,0,1,68,false,stim,false,0,1055.200000000419,2,0,1,44194,WMM2,1105304,false,true,1405,image-keyboard-response,8
true,12,0,3,1,false,z,true,false,0.0-2.0-0.49-0.441-3.441,1,0,1,81,false,stim,false,1,1577.2450000001118,2,1,0,44194,WMM2,1108413,false,false,1408,image-keyboard-response,9
true,12,1,3,1,true,z,false,true,0.0-2.0-0.49-0.442-3.442,1,0,1,90,false,stim,false,1,514.8449999997392,2,1,0,44194,WMM2,1110459,false,false,1411,image-keyboard-response,10
true,12,1,3,1,true,z,false,true,0.0-2.0-0.49-0.443-3.443,1,0,1,90,false,stim,false,1,495.81500000017695,2,1,0,44194,WMM2,1112486,false,false,1414,image-keyboard-response,11
true,12,2,3,0,false,q,true,false,0.0-2.0-0.49-0.444-3.444,1,0,1,68,false,stim,false,0,1152.2650000001304,2,1,2,44194,WMM2,1115170,false,false,1417,image-keyboard-response,12
true,12,1,3,2,false,d,true,false,0.0-2.0-0.49-0.445-3.445,1,0,1,90,false,stim,false,0,1307.2600000000093,2,0,1,44194,WMM2,1118000,false,false,1420,image-keyboard-response,13
true,12,2,3,2,true,d,false,true,0.0-2.0-0.49-0.446-3.446,1,0,1,68,false,stim,false,0,449.8350000001956,2,0,1,44194,WMM2,1119988,false,false,1423,image-keyboard-response,14
true,12,0,3,0,true,q,false,false,0.0-2.0-0.49-0.447-3.447,1,0,1,81,false,stim,false,0,771.4900000002235,2,1,2,44194,WMM2,1122288,false,true,1426,image-keyboard-response,15
true,12,2,3,2,true,d,false,false,0.0-2.0-0.49-0.448-3.448,1,0,1,68,false,stim,false,0,1020.6949999998324,2,0,1,44194,WMM2,1124849,false,true,1429,image-keyboard-response,16
true,12,2,3,0,false,q,true,false,0.0-2.0-0.49-0.449-3.449,1,0,1,68,false,stim,false,0,881.6999999999534,2,1,2,44194,WMM2,1127255,false,false,1432,image-keyboard-response,17
true,12,1,3,1,true,z,false,true,0.0-2.0-0.50-0.450-3.450,1,0,1,90,false,stim,false,1,572.5299999997951,2,1,0,44194,WMM2,1129362,false,false,1435,image-keyboard-response,18
true,12,1,3,1,true,z,false,true,0.0-2.0-0.50-0.451-3.451,1,0,1,90,false,stim,false,1,416.56999999983236,2,1,0,44194,WMM2,1131313,false,false,1438,image-keyboard-response,19
true,12,1,3,0,false,q,true,false,0.0-2.0-0.50-0.452-3.452,1,0,1,90,false,stim,false,0,552.2750000001397,2,1,2,44194,WMM2,1133400,false,false,1441,image-keyboard-response,20
true,12,1,3,2,false,d,true,false,0.0-2.0-0.50-0.453-3.453,1,0,1,90,false,stim,false,0,1351.66500000027,2,0,1,44194,WMM2,1136288,false,false,1444,image-keyboard-response,21
true,12,2,3,2,true,d,false,true,0.0-2.0-0.50-0.454-3.454,1,0,1,68,false,stim,false,0,452.4550000000745,2,0,1,44194,WMM2,1138307,false,false,1447,image-keyboard-response,22
true,12,1,3,1,true,z,false,true,0.0-2.0-0.50-0.455-3.455,1,0,1,90,false,stim,false,1,1002.5799999998417,2,1,0,44194,WMM2,1140859,false,false,1450,image-keyboard-response,23
true,12,2,3,2,true,d,false,true,0.0-2.0-0.50-0.456-3.456,1,0,1,68,false,stim,false,0,802.5600000000559,2,0,1,44194,WMM2,1143201,false,false,1453,image-keyboard-response,24
true,12,2,3,0,false,q,true,true,0.0-2.0-0.50-0.457-3.457,1,0,1,68,false,stim,false,0,353.4549999998417,2,1,2,44194,WMM2,1145109,false,true,1456,image-keyboard-response,25
true,12,2,3,0,false,q,true,false,0.0-2.0-0.50-0.458-3.458,1,0,1,68,false,stim,false,0,328.15000000037253,2,1,2,44194,WMM2,1146983,false,false,1459,image-keyboard-response,26
true,12,1,3,1,true,z,false,true,0.0-2.0-0.51-0.459-3.459,1,0,1,90,false,stim,false,1,525.3100000000559,2,1,0,44194,WMM2,1149059,false,false,1462,image-keyboard-response,27
true,12,2,3,2,true,d,false,true,0.0-2.0-0.51-0.460-3.460,1,0,1,68,false,stim,false,0,550.684999999823,2,0,1,44194,WMM2,1151150,false,false,1465,image-keyboard-response,28
true,12,2,3,0,false,q,true,false,0.0-2.0-0.51-0.461-3.461,1,0,1,68,false,stim,false,0,453.30999999982305,2,1,2,44194,WMM2,1153144,false,false,1468,image-keyboard-response,29
true,12,1,3,1,true,z,false,true,0.0-2.0-0.51-0.462-3.462,1,0,1,90,false,stim,false,1,485.07500000018626,2,1,0,44194,WMM2,1155181,false,false,1471,image-keyboard-response,30
true,12,2,3,0,false,q,true,false,0.0-2.0-0.51-0.463-3.463,1,0,1,68,false,stim,false,0,438.3800000001211,2,1,2,44194,WMM2,1157157,false,false,1474,image-keyboard-response,31
true,12,2,3,2,true,d,false,true,0.0-2.0-0.51-0.464-3.464,1,0,1,68,false,stim,false,0,1011.5499999998137,2,0,1,44194,WMM2,1159720,false,false,1477,image-keyboard-response,32
true,12,1,3,1,true,z,false,true,0.0-2.0-0.51-0.465-3.465,1,0,1,90,false,stim,false,1,898.2000000001863,2,1,0,44194,WMM2,1162169,false,false,1480,image-keyboard-response,33
true,12,0,3,0,true,q,false,true,0.0-2.0-0.51-0.466-3.466,1,0,1,81,false,stim,false,0,465.68000000016764,2,1,2,44194,WMM2,1164178,false,false,1483,image-keyboard-response,34
true,12,2,3,2,true,d,false,true,0.0-2.0-0.51-0.467-3.467,1,0,1,68,false,stim,false,0,804.225000000326,2,0,1,44194,WMM2,1166533,false,false,1486,image-keyboard-response,35
true,12,2,3,2,true,d,false,true,0.0-2.0-0.52-0.468-3.468,1,0,1,68,false,stim,false,0,441.1150000002235,2,0,1,44194,WMM2,1168529,false,false,1489,image-keyboard-response,36
true,12,0,3,0,true,q,false,true,0.0-2.0-0.52-0.469-3.469,1,0,1,81,false,stim,false,0,885.8900000001304,2,1,2,44194,WMM2,1170959,false,false,1492,image-keyboard-response,37
true,12,0,3,0,true,q,false,true,0.0-2.0-0.52-0.470-3.470,1,0,1,81,false,stim,false,0,637.2750000001397,2,1,2,44194,WMM2,1173146,false,false,1495,image-keyboard-response,38
true,12,1,3,1,true,z,false,true,0.0-2.0-0.52-0.471-3.471,1,0,1,90,false,stim,false,1,753.304999999702,2,1,0,44194,WMM2,1175447,false,false,1498,image-keyboard-response,39
true,12,0,3,0,true,q,false,true,0.0-2.0-0.52-0.472-3.472,1,0,1,81,false,stim,false,0,923.9799999999814,2,1,2,44194,WMM2,1177938,false,false,1501,image-keyboard-response,40
true,12,1,3,1,true,z,false,true,0.0-2.0-0.52-0.473-3.473,1,0,1,90,false,stim,false,1,1010.8649999997579,2,1,0,44194,WMM2,1180474,false,false,1504,image-keyboard-response,41
true,12,1,3,2,false,d,true,true,0.0-2.0-0.52-0.474-3.474,1,0,1,90,false,stim,false,0,1810.2950000001583,2,0,1,44194,WMM2,1183820,false,true,1507,image-keyboard-response,42
true,12,1,3,2,false,d,true,false,0.0-2.0-0.52-0.475-3.475,1,0,1,90,false,stim,false,0,487.0799999998417,2,0,1,44194,WMM2,1185837,false,false,1510,image-keyboard-response,43
true,12,0,3,1,false,z,true,true,0.0-2.0-0.52-0.476-3.476,1,0,1,81,false,stim,false,1,1041.3149999999441,2,1,0,44194,WMM2,1188398,false,true,1513,image-keyboard-response,44
true,12,0,3,1,false,z,true,false,0.0-2.0-0.53-0.477-3.477,1,0,1,81,false,stim,false,1,439.9199999999255,2,1,0,44194,WMM2,1190364,false,false,1516,image-keyboard-response,45
true,12,0,3,1,false,z,true,false,0.0-2.0-0.53-0.478-3.478,1,0,1,81,false,stim,false,1,577.0949999999721,2,1,0,44194,WMM2,1192475,false,false,1519,image-keyboard-response,46
true,12,1,3,2,false,d,true,false,0.0-2.0-0.53-0.479-3.479,1,0,1,90,false,stim,false,0,522.7700000000186,2,0,1,44194,WMM2,1194526,false,false,1522,image-keyboard-response,47
true,13,0,4,1,false,z,true,false,0.0-2.0-0.53-0.480-3.480,1,0,1,81,true,stim,false,1,492.48999999975786,2,1,0,44194,WMM2,1196550,false,false,1525,image-keyboard-response,1
true,13,2,4,0,false,q,true,false,0.0-2.0-0.53-0.481-3.481,1,0,1,68,false,stim,false,0,809.8500000000931,2,1,2,44194,WMM2,1198891,false,false,1528,image-keyboard-response,2
true,13,0,4,2,false,d,true,false,0.0-2.0-0.53-0.482-3.482,1,0,1,81,false,stim,false,2,1260.6299999996554,2,0,1,44194,WMM2,1201678,false,false,1531,image-keyboard-response,3
true,13,0,4,0,true,q,false,false,0.0-2.0-0.53-0.483-3.483,1,0,1,81,false,stim,false,0,1145.5500000002794,2,1,2,44194,WMM2,1204361,false,true,1534,image-keyboard-response,4
true,13,1,4,0,false,q,true,false,0.0-2.0-0.53-0.484-3.484,1,0,1,90,false,stim,false,0,590.3300000000745,2,1,2,44194,WMM2,1206480,false,false,1537,image-keyboard-response,5
true,13,2,4,2,true,d,false,false,0.0-2.0-0.53-0.485-3.485,1,0,1,68,false,stim,false,2,1477.1250000004657,2,0,1,44194,WMM2,1209493,false,true,1540,image-keyboard-response,6
true,13,1,4,2,false,d,true,false,0.0-2.0-0.54-0.486-3.486,1,0,1,90,false,stim,false,2,785.4000000001397,2,0,1,44194,WMM2,1211810,false,false,1543,image-keyboard-response,7
true,13,0,4,1,false,z,true,false,0.0-2.0-0.54-0.487-3.487,1,0,1,81,false,stim,false,1,1313.5499999998137,2,1,0,44194,WMM2,1214654,false,false,1546,image-keyboard-response,8
true,13,2,4,1,false,z,true,true,0.0-2.0-0.54-0.488-3.488,1,0,1,68,false,stim,false,1,514.6250000002328,2,1,0,44194,WMM2,1216702,false,true,1549,image-keyboard-response,9
true,13,0,4,2,false,d,true,false,0.0-2.0-0.54-0.489-3.489,1,0,1,81,false,stim,false,2,1173.7400000002235,2,0,1,44194,WMM2,1219411,false,false,1552,image-keyboard-response,10
true,13,2,4,1,false,z,true,false,0.0-2.0-0.54-0.490-3.490,1,0,1,68,false,stim,false,1,1038.1500000003725,2,1,0,44194,WMM2,1221978,false,false,1555,image-keyboard-response,11
true,13,1,4,2,false,d,true,false,0.0-2.0-0.54-0.491-3.491,1,0,1,90,false,stim,false,2,954.5499999998137,2,0,1,44194,WMM2,1224463,false,false,1558,image-keyboard-response,12
true,13,2,4,0,false,q,true,false,0.0-2.0-0.54-0.492-3.492,1,0,1,68,false,stim,false,0,844.2449999998789,2,1,2,44194,WMM2,1226838,false,false,1561,image-keyboard-response,13
true,13,0,4,0,true,q,false,true,0.0-2.0-0.54-0.493-3.493,1,0,1,81,false,stim,false,0,764.2200000002049,2,1,2,44194,WMM2,1229137,false,false,1564,image-keyboard-response,14
true,13,0,4,0,true,q,false,true,0.0-2.0-0.54-0.494-3.494,1,0,1,81,false,stim,false,0,870.9999999995343,2,1,2,44194,WMM2,1231540,false,false,1567,image-keyboard-response,15
true,13,1,4,2,false,d,true,false,0.0-2.0-0.55-0.495-3.495,1,0,1,90,false,stim,false,2,883.4050000000279,2,0,1,44194,WMM2,1233959,false,false,1570,image-keyboard-response,16
true,13,2,4,1,false,z,true,false,0.0-2.0-0.55-0.496-3.496,1,0,1,68,false,stim,false,1,727.1350000000093,2,1,0,44194,WMM2,1236210,false,false,1573,image-keyboard-response,17
true,13,0,4,0,true,q,false,true,0.0-2.0-0.55-0.497-3.497,1,0,1,81,false,stim,false,0,838.9699999997392,2,1,2,44194,WMM2,1238567,false,false,1576,image-keyboard-response,18
true,13,0,4,0,true,q,false,true,0.0-2.0-0.55-0.498-3.498,1,0,1,81,false,stim,false,0,719.7399999999907,2,1,2,44194,WMM2,1240817,false,false,1579,image-keyboard-response,19
true,13,0,4,2,false,d,true,false,0.0-2.0-0.55-0.499-3.499,1,0,1,81,false,stim,false,2,996.7399999997579,2,0,1,44194,WMM2,1243350,false,false,1582,image-keyboard-response,20
true,13,0,4,0,true,q,false,true,0.0-2.0-0.55-0.500-3.500,1,0,1,81,false,stim,false,0,854.4250000000466,2,1,2,44194,WMM2,1245763,false,false,1585,image-keyboard-response,21
true,13,2,4,1,false,z,true,false,0.0-2.0-0.55-0.501-3.501,1,0,1,68,false,stim,false,1,382.15500000026077,2,1,0,44194,WMM2,1247692,false,false,1588,image-keyboard-response,22
true,13,2,4,2,true,d,false,true,0.0-2.0-0.55-0.502-3.502,1,0,1,68,false,stim,false,2,1199.869999999879,2,0,1,44194,WMM2,1250445,false,false,1591,image-keyboard-response,23
true,13,1,4,1,true,z,false,true,0.0-2.0-0.55-0.503-3.503,1,0,1,90,false,stim,false,1,526.3000000000466,2,1,0,44194,WMM2,1252523,false,false,1594,image-keyboard-response,24
true,13,2,4,2,true,d,false,true,0.0-2.0-0.56-0.504-3.504,1,0,1,68,false,stim,false,2,608.9450000000652,2,0,1,44194,WMM2,1254677,false,false,1597,image-keyboard-response,25
true,13,2,4,2,true,d,false,true,0.0-2.0-0.56-0.505-3.505,1,0,1,68,false,stim,false,2,775.3149999999441,2,0,1,44194,WMM2,1256993,false,false,1600,image-keyboard-response,26
true,13,0,4,0,true,q,false,false,0.0-2.0-0.56-0.506-3.506,1,0,1,81,false,stim,false,0,1109.3350000001956,2,1,2,44194,WMM2,1259672,false,true,1603,image-keyboard-response,27
true,13,2,4,2,true,d,false,true,0.0-2.0-0.56-0.507-3.507,1,0,1,68,false,stim,false,2,564.75,2,0,1,44194,WMM2,1261791,false,false,1606,image-keyboard-response,28
true,13,0,4,0,true,q,false,true,0.0-2.0-0.56-0.508-3.508,1,0,1,81,false,stim,false,0,1084.0250000001397,2,1,2,44194,WMM2,1264428,false,false,1609,image-keyboard-response,29
true,13,1,4,1,true,z,false,true,0.0-2.0-0.56-0.509-3.509,1,0,1,90,false,stim,false,1,1030.7950000001583,2,1,0,44194,WMM2,1266996,false,false,1612,image-keyboard-response,30
true,13,0,4,0,true,q,false,true,0.0-2.0-0.56-0.510-3.510,1,0,1,81,false,stim,false,0,1159.8949999997858,2,1,2,44194,WMM2,1269697,false,false,1615,image-keyboard-response,31
true,13,2,4,1,false,z,true,false,0.0-2.0-0.56-0.511-3.511,1,0,1,68,false,stim,false,1,1381.25,2,0,0,44194,WMM2,1272608,false,false,1618,image-keyboard-response,32
true,13,1,4,1,true,z,false,true,0.0-2.0-0.56-0.512-3.512,1,0,1,90,false,stim,false,1,899.7849999999162,2,0,0,44194,WMM2,1275043,false,false,1621,image-keyboard-response,33
true,13,2,4,2,true,d,false,false,0.0-2.0-0.57-0.513-3.513,1,0,1,68,false,stim,false,2,1875.4850000001024,2,1,1,44194,WMM2,1278449,false,true,1624,image-keyboard-response,34
true,13,0,4,0,true,q,false,true,0.0-2.0-0.57-0.514-3.514,1,0,1,81,false,stim,false,0,666.0900000000838,2,1,2,44194,WMM2,1280649,false,false,1627,image-keyboard-response,35
true,13,1,4,1,true,z,false,true,0.0-2.0-0.57-0.515-3.515,1,0,1,90,false,stim,false,1,1361.2800000002608,2,0,0,44194,WMM2,1283544,false,false,1630,image-keyboard-response,36
true,13,1,4,1,true,z,false,true,0.0-2.0-0.57-0.516-3.516,1,0,1,90,false,stim,false,1,420.3049999999348,2,0,0,44194,WMM2,1285490,false,false,1633,image-keyboard-response,37
true,13,0,4,2,false,d,true,false,0.0-2.0-0.57-0.517-3.517,1,0,1,81,false,stim,false,2,935.804999999702,2,1,1,44194,WMM2,1287975,false,false,1636,image-keyboard-response,38
true,13,2,4,0,false,q,true,false,0.0-2.0-0.57-0.518-3.518,1,0,1,68,false,stim,false,0,595.3100000002887,2,1,2,44194,WMM2,1290100,false,false,1639,image-keyboard-response,39
true,13,2,4,2,true,d,false,true,0.0-2.0-0.57-0.519-3.519,1,0,1,68,false,stim,false,2,1218.440000000177,2,1,1,44194,WMM2,1292863,false,false,1642,image-keyboard-response,40
true,14,0,0,0,true,q,false,true,0.0-2.0-0.57-0.520-3.520,0,1,1,81,true,stim,false,0,1113.7050000003073,2,1,2,44194,WMM2,1416309,false,false,1765,image-keyboard-response,1
true,14,1,0,1,true,z,false,true,0.0-2.0-0.57-0.521-3.521,0,1,1,90,false,stim,false,1,513.2049999998417,2,0,0,44194,WMM2,1418352,false,false,1768,image-keyboard-response,2
true,14,0,0,0,true,q,false,true,0.0-2.0-0.58-0.522-3.522,0,1,1,81,false,stim,false,0,837.3800000003539,2,1,2,44194,WMM2,1420720,false,false,1771,image-keyboard-response,3
true,14,2,0,2,true,d,false,true,0.0-2.0-0.58-0.523-3.523,0,1,1,68,false,stim,false,2,781.8800000001211,2,1,1,44194,WMM2,1423033,false,false,1774,image-keyboard-response,4
true,14,1,0,1,true,z,false,true,0.0-2.0-0.58-0.524-3.524,0,1,1,90,false,stim,false,1,731.7050000000745,2,0,0,44194,WMM2,1425289,false,false,1777,image-keyboard-response,5
true,14,0,0,0,true,q,false,true,0.0-2.0-0.58-0.525-3.525,0,1,1,81,false,stim,false,0,761.785000000149,2,1,2,44194,WMM2,1427586,false,false,1780,image-keyboard-response,6
true,14,1,0,1,true,z,false,true,0.0-2.0-0.58-0.526-3.526,0,1,1,90,false,stim,false,1,562.5900000000838,2,0,0,44194,WMM2,1429675,false,false,1783,image-keyboard-response,7
true,14,1,0,1,true,z,false,true,0.0-2.0-0.58-0.527-3.527,0,1,1,90,false,stim,false,1,831.5799999996088,2,0,0,44194,WMM2,1432036,false,false,1786,image-keyboard-response,8
true,14,0,0,0,true,q,false,true,0.0-2.0-0.58-0.528-3.528,0,1,1,81,false,stim,false,0,858.9249999998137,2,1,2,44194,WMM2,1434423,false,false,1789,image-keyboard-response,9
true,14,2,0,2,true,d,false,true,0.0-2.0-0.58-0.529-3.529,0,1,1,68,false,stim,false,2,987.339999999851,2,1,1,44194,WMM2,1436941,false,false,1792,image-keyboard-response,10
true,14,2,0,2,true,d,false,true,0.0-2.0-0.58-0.530-3.530,0,1,1,68,false,stim,false,2,536.1850000000559,2,1,1,44194,WMM2,1439007,false,false,1795,image-keyboard-response,11
true,14,1,0,1,true,z,false,true,0.0-2.0-0.59-0.531-3.531,0,1,1,90,false,stim,false,1,677.7600000000093,2,0,0,44194,WMM2,1441219,false,false,1798,image-keyboard-response,12
true,14,1,0,1,true,z,false,true,0.0-2.0-0.59-0.532-3.532,0,1,1,90,false,stim,false,1,755.4249999998137,2,0,0,44194,WMM2,1443533,false,false,1801,image-keyboard-response,13
true,14,0,0,0,true,q,false,true,0.0-2.0-0.59-0.533-3.533,0,1,1,81,false,stim,false,0,1199.595000000205,2,1,2,44194,WMM2,1446265,false,false,1804,image-keyboard-response,14
true,14,1,0,1,true,z,false,true,0.0-2.0-0.59-0.534-3.534,0,1,1,90,false,stim,false,1,948.6999999997206,2,0,0,44194,WMM2,1448740,false,false,1807,image-keyboard-response,15
true,14,2,0,2,true,d,false,true,0.0-2.0-0.59-0.535-3.535,0,1,1,68,false,stim,false,2,879.5199999997858,2,1,1,44194,WMM2,1451148,false,false,1810,image-keyboard-response,16
true,14,0,0,0,true,q,false,true,0.0-2.0-0.59-0.536-3.536,0,1,1,81,false,stim,false,0,840.8349999999627,2,1,2,44194,WMM2,1453517,false,false,1813,image-keyboard-response,17
true,14,2,0,2,true,d,false,true,0.0-2.0-0.59-0.537-3.537,0,1,1,68,false,stim,false,2,1158.0199999997858,2,1,1,44194,WMM2,1456207,false,false,1816,image-keyboard-response,18
true,14,0,0,0,true,q,false,true,0.0-2.0-0.59-0.538-3.538,0,1,1,81,false,stim,false,0,1203.4799999997485,2,1,2,44194,WMM2,1458930,false,false,1819,image-keyboard-response,19
true,14,1,0,2,false,d,true,false,0.0-2.0-0.59-0.539-3.539,0,1,1,90,false,stim,false,2,1767.8750000002328,2,1,1,44194,WMM2,1462229,false,false,1822,image-keyboard-response,20
true,14,1,0,1,true,z,false,true,0.0-2.0-0.60-0.540-3.540,0,1,1,90,false,stim,false,1,1563.5349999999162,2,0,0,44194,WMM2,1465338,false,false,1825,image-keyboard-response,21
true,14,1,0,1,true,z,false,true,0.0-2.0-0.60-0.541-3.541,0,1,1,90,false,stim,false,1,924.035000000149,2,0,0,44194,WMM2,1467810,false,false,1828,image-keyboard-response,22
true,14,1,0,1,true,z,false,true,0.0-2.0-0.60-0.542-3.542,0,1,1,90,false,stim,false,1,512.6100000003353,2,0,0,44194,WMM2,1469868,false,false,1831,image-keyboard-response,23
true,14,2,0,2,true,d,false,true,0.0-2.0-0.60-0.543-3.543,0,1,1,68,false,stim,false,2,514.6549999997951,2,1,1,44194,WMM2,1471921,false,false,1834,image-keyboard-response,24
true,14,0,0,0,true,q,false,true,0.0-2.0-0.60-0.544-3.544,0,1,1,81,false,stim,false,0,1190.2749999999069,2,1,2,44194,WMM2,1474656,false,false,1837,image-keyboard-response,25
true,14,0,0,0,true,q,false,true,0.0-2.0-0.60-0.545-3.545,0,1,1,81,false,stim,false,0,827.3500000000931,2,1,2,44194,WMM2,1477025,false,false,1840,image-keyboard-response,26
true,14,2,0,2,true,d,false,true,0.0-2.0-0.60-0.546-3.546,0,1,1,68,false,stim,false,2,759.0249999999069,2,1,1,44194,WMM2,1479327,false,false,1843,image-keyboard-response,27
true,14,0,0,0,true,q,false,true,0.0-2.0-0.60-0.547-3.547,0,1,1,81,false,stim,false,0,1711.8300000003073,2,0,2,44194,WMM2,1482585,false,false,1846,image-keyboard-response,28
true,14,2,0,2,true,d,false,true,0.0-2.0-0.60-0.548-3.548,0,1,1,68,false,stim,false,2,1014.410000000149,2,1,1,44194,WMM2,1485132,false,false,1849,image-keyboard-response,29
true,14,0,0,0,true,q,false,false,0.0-2.0-0.61-0.549-3.549,0,1,1,81,false,stim,false,0,1847.0149999998976,2,0,2,44194,WMM2,1488515,false,true,1852,image-keyboard-response,30
true,14,1,0,1,true,z,false,true,0.0-2.0-0.61-0.550-3.550,0,1,1,90,false,stim,false,1,821.7550000001211,2,1,0,44194,WMM2,1490872,false,false,1855,image-keyboard-response,31
true,14,0,0,0,true,q,false,false,0.0-2.0-0.61-0.551-3.551,0,1,1,81,false,stim,false,0,970.4050000000279,2,0,2,44194,WMM2,1493382,false,true,1858,image-keyboard-response,32
true,14,2,0,2,true,d,false,true,0.0-2.0-0.61-0.552-3.552,0,1,1,68,false,stim,false,2,1155.4000000001397,2,1,1,44194,WMM2,1496071,false,false,1861,image-keyboard-response,33
true,14,1,0,1,true,z,false,true,0.0-2.0-0.61-0.553-3.553,0,1,1,90,false,stim,false,1,908.184999999823,2,1,0,44194,WMM2,1498514,false,false,1864,image-keyboard-response,34
true,14,2,0,2,true,d,false,true,0.0-2.0-0.61-0.554-3.554,0,1,1,68,false,stim,false,2,1333.9749999998603,2,1,1,44194,WMM2,1501381,false,false,1867,image-keyboard-response,35
true,14,0,0,0,true,q,false,true,0.0-2.0-0.61-0.555-3.555,0,1,1,81,false,stim,false,0,1414.9549999996088,2,0,2,44194,WMM2,1504329,false,false,1870,image-keyboard-response,36
true,14,1,0,1,true,z,false,true,0.0-2.0-0.61-0.556-3.556,0,1,1,90,false,stim,false,1,2206.399999999907,2,1,0,44194,WMM2,1508066,false,false,1873,image-keyboard-response,37
true,15,2,2,2,true,d,false,true,0.0-2.0-0.61-0.557-3.557,1,1,0,68,true,stim,false,2,1059.0649999999441,2,1,1,44194,WMM2,1510654,false,false,1876,image-keyboard-response,1
true,15,2,2,1,false,z,true,false,0.0-2.0-0.62-0.558-3.558,1,1,0,68,false,stim,false,1,962.3349999997299,2,1,0,44194,WMM2,1513146,false,false,1879,image-keyboard-response,2
true,15,0,2,2,false,d,false,false,0.0-2.0-0.62-0.559-3.559,1,1,0,81,false,stim,true,0,1475.5649999997113,2,0,2,44194,WMM2,1516152,false,false,1882,image-keyboard-response,3
true,15,2,2,2,true,d,false,true,0.0-2.0-0.62-0.560-3.560,1,1,0,68,false,stim,false,2,1334.8849999997765,2,1,1,44194,WMM2,1519029,false,false,1885,image-keyboard-response,4
true,15,0,2,2,false,d,false,false,0.0-2.0-0.62-0.561-3.561,1,1,0,81,false,stim,true,0,1114.6350000000093,2,0,2,44194,WMM2,1521680,false,false,1888,image-keyboard-response,5
true,15,1,2,1,true,z,false,true,0.0-2.0-0.62-0.562-3.562,1,1,0,90,false,stim,false,1,823.3249999999534,2,1,0,44194,WMM2,1524031,false,false,1891,image-keyboard-response,6
true,15,2,2,2,true,d,false,true,0.0-2.0-0.62-0.563-3.563,1,1,0,68,false,stim,false,0,713.364999999525,2,0,2,44194,WMM2,1526279,false,false,1894,image-keyboard-response,7
true,15,1,2,2,false,d,true,false,0.0-2.0-0.62-0.564-3.564,1,1,0,90,false,stim,false,2,1201.2100000001956,2,1,1,44194,WMM2,1529007,false,false,1897,image-keyboard-response,8
true,15,0,2,1,false,z,true,true,0.0-2.0-0.62-0.565-3.565,1,1,0,81,false,stim,false,1,1086.9849999998696,2,1,0,44194,WMM2,1531625,false,true,1900,image-keyboard-response,9
true,15,2,2,2,true,d,false,true,0.0-2.0-0.62-0.566-3.566,1,1,0,68,false,stim,false,2,1213.2149999996182,2,1,1,44194,WMM2,1534405,false,false,1903,image-keyboard-response,10
true,15,2,2,2,true,d,false,true,0.0-2.0-0.63-0.567-3.567,1,1,0,68,false,stim,false,2,756.4450000000652,2,1,1,44194,WMM2,1536678,false,false,1906,image-keyboard-response,11
true,15,2,2,2,true,d,false,false,0.0-2.0-0.63-0.568-3.568,1,1,0,68,false,stim,false,2,457.05000000004657,2,1,1,44194,WMM2,1538667,false,true,1909,image-keyboard-response,12
true,15,0,2,1,false,z,true,false,0.0-2.0-0.63-0.569-3.569,1,1,0,81,false,stim,false,1,710.0100000002421,2,1,0,44194,WMM2,1540912,false,false,1912,image-keyboard-response,13
true,15,1,2,2,false,d,true,false,0.0-2.0-0.63-0.570-3.570,1,1,0,90,false,stim,false,0,920.3299999998417,2,0,2,44194,WMM2,1543368,false,false,1915,image-keyboard-response,14
true,15,2,2,2,true,d,false,true,0.0-2.0-0.63-0.571-3.571,1,1,0,68,false,stim,false,0,781.8149999999441,2,0,2,44194,WMM2,1545689,false,false,1918,image-keyboard-response,15
true,15,2,2,2,true,d,false,true,0.0-2.0-0.63-0.572-3.572,1,1,0,68,false,stim,false,2,1441.0149999998976,2,1,1,44194,WMM2,1548656,false,false,1921,image-keyboard-response,16
true,15,2,2,2,true,d,false,true,0.0-2.0-0.63-0.573-3.573,1,1,0,68,false,stim,false,0,759.2549999998882,2,0,2,44194,WMM2,1550943,false,false,1924,image-keyboard-response,17
true,15,0,2,1,false,z,true,false,0.0-2.0-0.63-0.574-3.574,1,1,0,81,false,stim,false,1,585.4799999997485,2,1,0,44194,WMM2,1553064,false,false,1927,image-keyboard-response,18
true,15,0,2,1,false,z,true,false,0.0-2.0-0.63-0.575-3.575,1,1,0,81,false,stim,false,1,610.160000000149,2,1,0,44194,WMM2,1555207,false,false,1930,image-keyboard-response,19
true,15,0,2,1,false,z,true,false,0.0-2.0-0.64-0.576-3.576,1,1,0,81,false,stim,false,1,458.8850000000093,2,1,0,44194,WMM2,1557198,false,false,1933,image-keyboard-response,20
true,15,2,2,2,true,d,false,true,0.0-2.0-0.64-0.577-3.577,1,1,0,68,false,stim,false,0,654.8850000000093,2,0,2,44194,WMM2,1559397,false,false,1936,image-keyboard-response,21
true,15,2,2,2,true,d,false,false,0.0-2.0-0.64-0.578-3.578,1,1,0,68,false,stim,false,2,639.7450000001118,2,1,1,44194,WMM2,1561582,false,true,1939,image-keyboard-response,22
true,15,2,2,2,true,d,false,true,0.0-2.0-0.64-0.579-3.579,1,1,0,68,false,stim,false,0,859.690000000177,2,0,2,44194,WMM2,1563987,false,false,1942,image-keyboard-response,23
true,15,1,2,1,true,z,false,true,0.0-2.0-0.64-0.580-3.580,1,1,0,90,false,stim,false,1,975.6949999995995,2,1,0,44194,WMM2,1566491,false,false,1945,image-keyboard-response,24
true,15,2,2,2,true,d,false,false,0.0-2.0-0.64-0.581-3.581,1,1,0,68,false,stim,false,2,794.5749999999534,2,1,1,44194,WMM2,1568833,false,true,1948,image-keyboard-response,25
true,15,2,2,2,true,d,false,true,0.0-2.0-0.64-0.582-3.582,1,1,0,68,false,stim,false,0,354.3949999997858,2,0,2,44194,WMM2,1570735,false,false,1951,image-keyboard-response,26
true,15,1,2,1,true,z,false,true,0.0-2.0-0.64-0.583-3.583,1,1,0,90,false,stim,false,1,506.34499999973923,2,1,0,44194,WMM2,1572783,false,false,1954,image-keyboard-response,27
true,15,0,2,2,false,d,true,false,0.0-2.0-0.64-0.584-3.584,1,1,0,81,false,stim,false,2,483.94499999983236,2,1,1,44194,WMM2,1574827,false,false,1957,image-keyboard-response,28
true,15,2,2,2,true,d,false,true,0.0-2.0-0.65-0.585-3.585,1,1,0,68,false,stim,false,0,791.605000000447,2,1,2,44194,WMM2,1577164,false,false,1960,image-keyboard-response,29
true,15,1,2,2,false,d,true,true,0.0-2.0-0.65-0.586-3.586,1,1,0,90,false,stim,false,2,437.8349999997299,2,1,1,44194,WMM2,1579138,false,true,1963,image-keyboard-response,30
