answered,blockNum,choice,condition,corResp,correct,correct_response,explo,fb,internal_node_id,isStable_1,isStable_2,isStable_3,key_press,newBlock,part,persev,persevResp,rt,sessNum,stableAS,stimulus,subject,task,time_elapsed,training,trap,trial_index,trial_type,trialsInBlock
true,1,1,0,1,true,z,false,false,0.0-2.0-0.0-0.0-3.0,0,0,0,90,true,stim,false,-1,808.7149999992107,3,0,2,44194,WMM2,161238,false,true,118,image-keyboard-response,1
true,1,2,0,2,true,d,false,true,0.0-2.0-0.0-0.1-3.1,0,0,0,68,false,stim,false,-1,624.0049999996554,3,0,1,44194,WMM2,163379,false,false,121,image-keyboard-response,2
true,1,2,0,2,true,d,false,true,0.0-2.0-0.0-0.2-3.2,0,0,0,68,false,stim,false,-1,567.3100000003469,3,0,1,44194,WMM2,165458,false,false,124,image-keyboard-response,3
true,1,2,0,1,false,z,true,false,0.0-2.0-0.0-0.3-3.3,0,0,0,68,false,stim,false,-1,644.045000000915,3,0,2,44194,WMM2,167615,false,false,127,image-keyboard-response,4
true,1,0,0,1,false,z,true,true,0.0-2.0-0.0-0.4-3.4,0,0,0,81,false,stim,false,-1,642.3050000012154,3,0,0,44194,WMM2,169773,false,true,130,image-keyboard-response,5
true,1,0,0,1,false,z,true,false,0.0-2.0-0.0-0.5-3.5,0,0,0,81,false,stim,false,-1,485.1699999999255,3,0,0,44194,WMM2,171769,false,false,133,image-keyboard-response,6
true,1,0,0,1,false,z,true,false,0.0-2.0-0.0-0.6-3.6,0,0,0,81,false,stim,false,-1,726.9999999989523,3,0,2,44194,WMM2,174007,false,false,136,image-keyboard-response,7
true,1,2,0,2,true,d,false,true,0.0-2.0-0.0-0.7-3.7,0,0,0,68,false,stim,false,-1,731.2799999999697,3,0,1,44194,WMM2,176251,false,false,139,image-keyboard-response,8
true,1,0,0,1,false,z,true,true,0.0-2.0-0.0-0.8-3.8,0,0,0,81,false,stim,false,-1,649.42499999961,3,0,0,44194,WMM2,178414,false,true,142,image-keyboard-response,9
true,1,2,0,2,true,d,false,false,0.0-2.0-0.1-0.9-3.9,0,0,0,68,false,stim,false,-1,745.0750000007101,3,0,1,44194,WMM2,180678,false,true,145,image-keyboard-response,10
true,1,0,0,1,false,z,true,false,0.0-2.0-0.1-0.10-3.10,0,0,0,81,false,stim,false,-1,589.4599999992643,3,0,0,44194,WMM2,182783,false,false,148,image-keyboard-response,11
true,1,2,0,2,true,d,false,true,0.0-2.0-0.1-0.11-3.11,0,0,0,68,false,stim,false,-1,662.5100000001257,3,0,1,44194,WMM2,184956,false,false,151,image-keyboard-response,12
true,1,0,0,1,false,z,true,false,0.0-2.0-0.1-0.12-3.12,0,0,0,81,false,stim,false,-1,1209.1650000002119,3,0,2,44194,WMM2,187679,false,false,154,image-keyboard-response,13
true,1,2,0,2,true,d,false,true,0.0-2.0-0.1-0.13-3.13,0,0,0,68,false,stim,false,-1,734.1149999992922,3,0,1,44194,WMM2,189927,false,false,157,image-keyboard-response,14
true,1,1,0,1,true,z,false,true,0.0-2.0-0.1-0.14-3.14,0,0,0,90,false,stim,false,-1,391.7750000000815,3,0,2,44194,WMM2,191835,false,false,160,image-keyboard-response,15
true,1,0,0,1,false,z,true,false,0.0-2.0-0.1-0.15-3.15,0,0,0,81,false,stim,false,-1,593.3100000002014,3,0,0,44194,WMM2,193943,false,false,163,image-keyboard-response,16
true,1,0,0,1,false,z,true,false,0.0-2.0-0.1-0.16-3.16,0,0,0,81,false,stim,false,-1,520.9500000000698,3,0,0,44194,WMM2,195977,false,false,166,image-keyboard-response,17
true,1,1,0,1,true,z,false,true,0.0-2.0-0.1-0.17-3.17,0,0,0,90,false,stim,false,-1,1207.125000000815,3,0,2,44194,WMM2,198699,false,false,169,image-keyboard-response,18
true,1,1,0,1,true,z,false,true,0.0-2.0-0.2-0.18-3.18,0,0,0,90,false,stim,false,-1,550.8349999999919,3,0,2,44194,WMM2,200764,false,false,172,image-keyboard-response,19
true,1,2,0,2,true,d,false,true,0.0-2.0-0.2-0.19-3.19,0,0,0,68,false,stim,false,-1,699.4300000005751,3,0,1,44194,WMM2,202980,false,false,175,image-keyboard-response,20
true,1,1,0,1,true,z,false,true,0.0-2.0-0.2-0.20-3.20,0,0,0,90,false,stim,false,-1,705.6949999987555,3,0,2,44194,WMM2,205202,false,false,178,image-keyboard-response,21
true,1,2,0,2,true,d,false,true,0.0-2.0-0.2-0.21-3.21,0,0,0,68,false,stim,false,-1,982.8350000007194,3,0,1,44194,WMM2,207698,false,false,181,image-keyboard-response,22
true,1,2,0,2,true,d,false,true,0.0-2.0-0.2-0.22-3.22,0,0,0,68,false,stim,false,-1,1029.7399999999325,3,0,1,44194,WMM2,210244,false,false,184,image-keyboard-response,23
true,1,1,0,1,true,z,false,true,0.0-2.0-0.2-0.23-3.23,0,0,0,90,false,stim,false,-1,815.1049999996612,3,0,2,44194,WMM2,212576,false,false,187,image-keyboard-response,24
true,1,0,0,1,false,z,true,false,0.0-2.0-0.2-0.24-3.24,0,0,0,81,false,stim,false,-1,813.3850000012899,3,0,0,44194,WMM2,214904,false,false,190,image-keyboard-response,25
true,1,1,0,1,true,z,false,true,0.0-2.0-0.2-0.25-3.25,0,0,0,90,false,stim,false,-1,537.184999999241,3,0,0,44194,WMM2,216958,false,false,193,image-keyboard-response,26
true,1,1,0,1,true,z,false,true,0.0-2.0-0.2-0.26-3.26,0,0,0,90,false,stim,false,-1,506.98499999998603,3,0,0,44194,WMM2,218994,false,false,196,image-keyboard-response,27
true,1,2,0,2,true,d,false,true,0.0-2.0-0.3-0.27-3.27,0,0,0,68,false,stim,false,-1,819.8200000005891,3,0,1,44194,WMM2,221335,false,false,199,image-keyboard-response,28
true,1,1,0,1,true,z,false,true,0.0-2.0-0.3-0.28-3.28,0,0,0,90,false,stim,false,-1,662.0499999989988,3,1,0,44194,WMM2,223513,false,false,202,image-keyboard-response,29
true,1,1,0,1,true,z,false,true,0.0-2.0-0.3-0.29-3.29,0,0,0,90,false,stim,false,-1,464.6150000007474,3,0,2,44194,WMM2,225492,false,false,205,image-keyboard-response,30
true,1,2,0,2,true,d,false,true,0.0-2.0-0.3-0.30-3.30,0,0,0,68,false,stim,false,-1,997.6200000000827,3,0,1,44194,WMM2,228001,false,false,208,image-keyboard-response,31
true,1,1,0,1,true,z,false,true,0.0-2.0-0.3-0.31-3.31,0,0,0,90,false,stim,false,-1,665.3549999991956,3,1,0,44194,WMM2,230186,false,false,211,image-keyboard-response,32
true,1,1,0,1,true,z,false,true,0.0-2.0-0.3-0.32-3.32,0,0,0,90,false,stim,false,-1,1118.5450000011479,3,0,2,44194,WMM2,232819,false,false,214,image-keyboard-response,33
true,1,2,0,2,true,d,false,true,0.0-2.0-0.3-0.33-3.33,0,0,0,68,false,stim,false,-1,736.7799999992712,3,0,1,44194,WMM2,235073,false,false,217,image-keyboard-response,34
true,1,1,0,1,true,z,false,false,0.0-2.0-0.3-0.34-3.34,0,0,0,90,false,stim,false,-1,905.9499999984982,3,1,0,44194,WMM2,237496,false,true,220,image-keyboard-response,35
true,1,1,0,1,true,z,false,true,0.0-2.0-0.3-0.35-3.35,0,0,0,90,false,stim,false,-1,1074.319999999716,3,0,2,44194,WMM2,240085,false,false,223,image-keyboard-response,36
true,1,2,0,2,true,d,false,true,0.0-2.0-0.4-0.36-3.36,0,0,0,68,false,stim,false,-1,683.6899999998568,3,0,1,44194,WMM2,242283,false,false,226,image-keyboard-response,37
true,2,1,1,1,true,z,false,true,0.0-2.0-0.4-0.37-3.37,1,0,0,90,true,stim,false,1,817.984999999695,3,1,0,44194,WMM2,244614,false,false,229,image-keyboard-response,1
true,2,1,1,2,false,d,false,false,0.0-2.0-0.4-0.38-3.38,1,0,0,90,false,stim,true,1,1040.8200000001525,3,0,2,44194,WMM2,247171,false,false,232,image-keyboard-response,2
true,2,2,1,1,false,z,false,false,0.0-2.0-0.4-0.39-3.39,1,0,0,68,false,stim,true,2,627.2399999998161,3,0,1,44194,WMM2,249310,false,false,235,image-keyboard-response,3
true,2,1,1,1,true,z,false,true,0.0-2.0-0.4-0.40-3.40,1,0,0,90,false,stim,false,1,1014.3300000000163,3,1,0,44194,WMM2,251839,false,false,238,image-keyboard-response,4
true,2,2,1,1,false,z,false,false,0.0-2.0-0.4-0.41-3.41,1,0,0,68,false,stim,true,2,1094.6149999999907,3,0,1,44194,WMM2,254446,false,false,241,image-keyboard-response,5
true,2,1,1,2,false,d,false,false,0.0-2.0-0.4-0.42-3.42,1,0,0,90,false,stim,true,1,699.3399999991525,3,0,2,44194,WMM2,256662,false,false,244,image-keyboard-response,6
true,2,1,1,1,true,z,false,true,0.0-2.0-0.4-0.43-3.43,1,0,0,90,false,stim,false,1,606.7399999992922,3,1,0,44194,WMM2,258785,false,false,247,image-keyboard-response,7
true,2,1,1,2,false,d,false,false,0.0-2.0-0.4-0.44-3.44,1,0,0,90,false,stim,true,1,1104.589999999036,3,0,2,44194,WMM2,261405,false,false,250,image-keyboard-response,8
true,2,1,1,1,true,z,false,true,0.0-2.0-0.5-0.45-3.45,1,0,0,90,false,stim,false,1,590.8650000001071,3,1,0,44194,WMM2,263510,false,false,253,image-keyboard-response,9
true,2,0,1,1,false,z,true,false,0.0-2.0-0.5-0.46-3.46,1,0,0,81,false,stim,false,2,728.0499999996973,3,0,1,44194,WMM2,265752,false,false,256,image-keyboard-response,10
true,2,1,1,1,true,z,false,true,0.0-2.0-0.5-0.47-3.47,1,0,0,90,false,stim,false,2,543.879999999248,3,0,1,44194,WMM2,267812,false,false,259,image-keyboard-response,11
true,2,1,1,1,true,z,false,true,0.0-2.0-0.5-0.48-3.48,1,0,0,90,false,stim,false,1,415.18499999982305,3,1,0,44194,WMM2,269742,false,false,262,image-keyboard-response,12
true,2,2,1,2,true,d,false,true,0.0-2.0-0.5-0.49-3.49,1,0,0,68,false,stim,false,1,1326.8449999995646,3,0,2,44194,WMM2,272583,false,false,265,image-keyboard-response,13
true,2,2,1,2,true,d,false,true,0.0-2.0-0.5-0.50-3.50,1,0,0,68,false,stim,false,1,434.9849999998696,3,0,2,44194,WMM2,274530,false,false,268,image-keyboard-response,14
true,2,1,1,1,true,z,false,true,0.0-2.0-0.5-0.51-3.51,1,0,0,90,false,stim,false,2,1110.9899999991758,3,0,1,44194,WMM2,277156,false,false,271,image-keyboard-response,15
true,2,2,1,2,true,d,false,false,0.0-2.0-0.5-0.52-3.52,1,0,0,68,false,stim,false,1,676.7849999996834,3,0,2,44194,WMM2,279344,false,true,274,image-keyboard-response,16
true,2,1,1,1,true,z,false,true,0.0-2.0-0.5-0.53-3.53,1,0,0,90,false,stim,false,1,938.9550000014715,3,1,0,44194,WMM2,281799,false,false,277,image-keyboard-response,17
true,2,2,1,2,true,d,false,true,0.0-2.0-0.6-0.54-3.54,1,0,0,68,false,stim,false,1,1057.9550000002491,3,0,2,44194,WMM2,284373,false,false,280,image-keyboard-response,18
true,2,2,1,2,true,d,false,true,0.0-2.0-0.6-0.55-3.55,1,0,0,68,false,stim,false,1,474.50000000023283,3,0,2,44194,WMM2,286364,false,false,283,image-keyboard-response,19
true,2,1,1,1,true,z,false,true,0.0-2.0-0.6-0.56-3.56,1,0,0,90,false,stim,false,1,1251.3349999990314,3,1,0,44194,WMM2,289134,false,false,286,image-keyboard-response,20
true,2,1,1,1,true,z,false,true,0.0-2.0-0.6-0.57-3.57,1,0,0,90,false,stim,false,1,499.03499999892665,3,1,0,44194,WMM2,291156,false,false,289,image-keyboard-response,21
true,2,1,1,1,true,z,false,false,0.0-2.0-0.6-0.58-3.58,1,0,0,90,false,stim,false,2,1898.6249999997672,3,1,1,44194,WMM2,294570,false,true,292,image-keyboard-response,22
true,2,1,1,1,true,z,false,true,0.0-2.0-0.6-0.59-3.59,1,0,0,90,false,stim,false,2,648.1800000001676,3,1,1,44194,WMM2,296733,false,false,295,image-keyboard-response,23
true,2,1,1,1,true,z,false,true,0.0-2.0-0.6-0.60-3.60,1,0,0,90,false,stim,false,2,447.86999999999534,3,1,1,44194,WMM2,298693,false,false,298,image-keyboard-response,24
true,2,1,1,1,true,z,false,true,0.0-2.0-0.6-0.61-3.61,1,0,0,90,false,stim,false,1,896.8949999999022,3,1,0,44194,WMM2,301109,false,false,301,image-keyboard-response,25
true,2,2,1,2,true,d,false,false,0.0-2.0-0.6-0.62-3.62,1,0,0,68,false,stim,false,1,535.7850000000326,3,0,2,44194,WMM2,303159,false,true,304,image-keyboard-response,26
true,2,1,1,1,true,z,false,true,0.0-2.0-0.7-0.63-3.63,1,0,0,90,false,stim,false,1,524.7849999995669,3,1,0,44194,WMM2,305197,false,false,307,image-keyboard-response,27
true,2,1,1,1,true,z,false,false,0.0-2.0-0.7-0.64-3.64,1,0,0,90,false,stim,false,2,1160.4150000003283,3,1,1,44194,WMM2,307870,false,true,310,image-keyboard-response,28
true,2,2,1,2,true,d,false,true,0.0-2.0-0.7-0.65-3.65,1,0,0,68,false,stim,false,1,609.8750000001164,3,0,2,44194,WMM2,309996,false,false,313,image-keyboard-response,29
true,2,1,1,1,true,z,false,true,0.0-2.0-0.7-0.66-3.66,1,0,0,90,false,stim,false,2,550.2449999985402,3,1,1,44194,WMM2,312059,false,false,316,image-keyboard-response,30
true,3,2,4,2,true,d,false,true,0.0-2.0-0.7-0.67-3.67,1,1,0,68,true,stim,false,2,722.0649999999441,3,0,2,44194,WMM2,314296,false,false,319,image-keyboard-response,1
true,3,1,4,1,true,z,false,false,0.0-2.0-0.7-0.68-3.68,1,1,0,90,false,stim,false,1,807.460000000021,3,1,1,44194,WMM2,316618,false,true,322,image-keyboard-response,2
true,3,1,4,1,true,z,false,true,0.0-2.0-0.7-0.69-3.69,1,1,0,90,false,stim,false,1,903.6450000003097,3,1,0,44194,WMM2,319038,false,false,325,image-keyboard-response,3
true,3,2,4,2,true,d,false,true,0.0-2.0-0.7-0.70-3.70,1,1,0,68,false,stim,false,2,794.5550000004005,3,0,2,44194,WMM2,321345,false,false,328,image-keyboard-response,4
true,3,1,4,1,true,z,false,true,0.0-2.0-0.7-0.71-3.71,1,1,0,90,false,stim,false,1,815.4400000003516,3,1,0,44194,WMM2,323676,false,false,331,image-keyboard-response,5
true,3,2,4,2,true,d,false,true,0.0-2.0-0.8-0.72-3.72,1,1,0,68,false,stim,false,2,1026.50499999983,3,0,2,44194,WMM2,326217,false,false,334,image-keyboard-response,6
true,3,1,4,1,true,z,false,false,0.0-2.0-0.8-0.73-3.73,1,1,0,90,false,stim,false,1,1038.7599999994272,3,1,0,44194,WMM2,328783,false,true,337,image-keyboard-response,7
true,3,1,4,1,true,z,false,true,0.0-2.0-0.8-0.74-3.74,1,1,0,90,false,stim,false,1,412.3650000001071,3,1,0,44194,WMM2,330711,false,false,340,image-keyboard-response,8
true,3,2,4,2,true,d,false,true,0.0-2.0-0.8-0.75-3.75,1,1,0,68,false,stim,false,2,848.7599999989616,3,0,2,44194,WMM2,333075,false,false,343,image-keyboard-response,9
true,3,1,4,1,true,z,false,true,0.0-2.0-0.8-0.76-3.76,1,1,0,90,false,stim,false,1,1448.8099999998813,3,1,1,44194,WMM2,336044,false,false,346,image-keyboard-response,10
true,3,1,4,1,true,z,false,true,0.0-2.0-0.8-0.77-3.77,1,1,0,90,false,stim,false,1,1208.3249999996042,3,1,1,44194,WMM2,338771,false,false,349,image-keyboard-response,11
true,3,2,4,2,true,d,false,true,0.0-2.0-0.8-0.78-3.78,1,1,0,68,false,stim,false,2,1423.6949999994831,3,0,2,44194,WMM2,341713,false,false,352,image-keyboard-response,12
true,3,1,4,1,true,z,false,true,0.0-2.0-0.8-0.79-3.79,1,1,0,90,false,stim,false,1,1381.6149999983609,3,1,0,44194,WMM2,344608,false,false,355,image-keyboard-response,13
true,3,1,4,1,true,z,false,true,0.0-2.0-0.8-0.80-3.80,1,1,0,90,false,stim,false,1,997.5450000001583,3,1,1,44194,WMM2,347142,false,false,358,image-keyboard-response,14
true,3,1,4,1,true,z,false,true,0.0-2.0-0.9-0.81-3.81,1,1,0,90,false,stim,false,1,749.3749999994179,3,1,1,44194,WMM2,349406,false,false,361,image-keyboard-response,15
true,3,1,4,1,true,z,false,true,0.0-2.0-0.9-0.82-3.82,1,1,0,90,false,stim,false,1,1116.4599999992643,3,1,0,44194,WMM2,352039,false,false,364,image-keyboard-response,16
true,3,1,4,1,true,z,false,true,0.0-2.0-0.9-0.83-3.83,1,1,0,90,false,stim,false,1,504.4250000009779,3,1,0,44194,WMM2,354058,false,false,367,image-keyboard-response,17
true,3,2,4,2,true,d,false,false,0.0-2.0-0.9-0.84-3.84,1,1,0,68,false,stim,false,2,443.7699999999022,3,0,2,44194,WMM2,356011,false,true,370,image-keyboard-response,18
true,3,1,4,1,true,z,false,true,0.0-2.0-0.9-0.85-3.85,1,1,0,90,false,stim,false,1,715.4900000005146,3,1,1,44194,WMM2,358240,false,false,373,image-keyboard-response,19
true,3,2,4,2,true,d,false,true,0.0-2.0-0.9-0.86-3.86,1,1,0,68,false,stim,false,2,540.3949999999604,3,0,2,44194,WMM2,360294,false,false,376,image-keyboard-response,20
true,3,1,4,1,true,z,false,true,0.0-2.0-0.9-0.87-3.87,1,1,0,90,false,stim,false,1,799.0300000001444,3,1,0,44194,WMM2,362616,false,false,379,image-keyboard-response,21
true,3,2,4,2,true,d,false,true,0.0-2.0-0.9-0.88-3.88,1,1,0,68,false,stim,false,2,779.8650000004563,3,1,2,44194,WMM2,364915,false,false,382,image-keyboard-response,22
true,3,1,4,1,true,z,false,true,0.0-2.0-0.9-0.89-3.89,1,1,0,90,false,stim,false,1,940.1950000010547,3,0,1,44194,WMM2,367368,false,false,385,image-keyboard-response,23
true,3,1,4,1,true,z,false,true,0.0-2.0-0.10-0.90-3.90,1,1,0,90,false,stim,false,1,484.80999999993946,3,0,1,44194,WMM2,369367,false,false,388,image-keyboard-response,24
true,3,1,4,1,true,z,false,true,0.0-2.0-0.10-0.91-3.91,1,1,0,90,false,stim,false,1,430.519999999844,3,0,1,44194,WMM2,371312,false,false,391,image-keyboard-response,25
true,3,1,4,1,true,z,false,true,0.0-2.0-0.10-0.92-3.92,1,1,0,90,false,stim,false,1,491.38999999925727,3,0,1,44194,WMM2,373317,false,false,394,image-keyboard-response,26
true,3,2,4,2,true,d,false,false,0.0-2.0-0.10-0.93-3.93,1,1,0,68,false,stim,false,2,580.1900000005844,3,1,2,44194,WMM2,375412,false,true,397,image-keyboard-response,27
true,3,2,4,2,true,d,false,true,0.0-2.0-0.10-0.94-3.94,1,1,0,68,false,stim,false,2,413.37000000016997,3,1,2,44194,WMM2,377345,false,false,400,image-keyboard-response,28
true,3,1,4,1,true,z,false,true,0.0-2.0-0.10-0.95-3.95,1,1,0,90,false,stim,false,1,663.7849999988684,3,1,0,44194,WMM2,379540,false,false,403,image-keyboard-response,29
true,3,1,4,1,true,z,false,true,0.0-2.0-0.10-0.96-3.96,1,1,0,90,false,stim,false,1,581.2900000000373,3,1,0,44194,WMM2,381634,false,false,406,image-keyboard-response,30
true,4,2,2,2,true,d,false,true,0.0-2.0-0.10-0.97-3.97,1,0,1,68,true,stim,false,2,597.2199999996228,3,1,2,44194,WMM2,383750,false,false,409,image-keyboard-response,1
true,4,1,2,1,true,z,false,true,0.0-2.0-0.10-0.98-3.98,1,0,1,90,false,stim,false,1,421.43000000034226,3,1,0,44194,WMM2,385681,false,false,412,image-keyboard-response,2
true,4,2,2,2,true,d,false,true,0.0-2.0-0.11-0.99-3.99,1,0,1,68,false,stim,false,2,674.6100000000442,3,1,2,44194,WMM2,387871,false,false,415,image-keyboard-response,3
true,4,1,2,1,true,z,false,true,0.0-2.0-0.11-0.100-3.100,1,0,1,90,false,stim,false,1,899.5949999989825,3,1,0,44194,WMM2,390285,false,false,418,image-keyboard-response,4
true,4,2,2,2,true,d,false,true,0.0-2.0-0.11-0.101-3.101,1,0,1,68,false,stim,false,2,616.7249999998603,3,1,2,44194,WMM2,392418,false,false,421,image-keyboard-response,5
true,4,2,2,2,true,d,false,false,0.0-2.0-0.11-0.102-3.102,1,0,1,68,false,stim,false,2,417.35999999946216,3,1,2,44194,WMM2,394352,false,true,424,image-keyboard-response,6
true,4,1,2,0,false,q,false,false,0.0-2.0-0.11-0.103-3.103,1,0,1,90,false,stim,true,1,703.2749999999069,3,0,1,44194,WMM2,396576,false,false,427,image-keyboard-response,7
true,4,1,2,0,false,q,false,false,0.0-2.0-0.11-0.104-3.104,1,0,1,90,false,stim,true,1,438.3899999993737,3,0,1,44194,WMM2,398537,false,false,430,image-keyboard-response,8
true,4,1,2,1,true,z,false,true,0.0-2.0-0.11-0.105-3.105,1,0,1,90,false,stim,false,1,798.705000001064,3,1,0,44194,WMM2,400853,false,false,433,image-keyboard-response,9
true,4,0,2,0,true,q,false,true,0.0-2.0-0.11-0.106-3.106,1,0,1,81,false,stim,false,1,708.4549999999581,3,0,1,44194,WMM2,403083,false,false,436,image-keyboard-response,10
true,4,1,2,1,true,z,false,true,0.0-2.0-0.11-0.107-3.107,1,0,1,90,false,stim,false,1,722.8799999993062,3,1,0,44194,WMM2,405345,false,false,439,image-keyboard-response,11
true,4,2,2,2,true,d,false,true,0.0-2.0-0.12-0.108-3.108,1,0,1,68,false,stim,false,2,1090.1800000010408,3,1,2,44194,WMM2,407972,false,false,442,image-keyboard-response,12
true,4,0,2,0,true,q,false,true,0.0-2.0-0.12-0.109-3.109,1,0,1,81,false,stim,false,1,1086.7199999993318,3,0,1,44194,WMM2,410577,false,false,445,image-keyboard-response,13
true,4,1,2,1,true,z,false,true,0.0-2.0-0.12-0.110-3.110,1,0,1,90,false,stim,false,1,435.3749999991269,3,1,0,44194,WMM2,412534,false,false,448,image-keyboard-response,14
true,4,2,2,2,true,d,false,false,0.0-2.0-0.12-0.111-3.111,1,0,1,68,false,stim,false,2,447.2249999999185,3,1,2,44194,WMM2,414493,false,true,451,image-keyboard-response,15
true,4,0,2,0,true,q,false,true,0.0-2.0-0.12-0.112-3.112,1,0,1,81,false,stim,false,1,808.3950000000186,3,0,1,44194,WMM2,416817,false,false,454,image-keyboard-response,16
true,4,2,2,2,true,d,false,true,0.0-2.0-0.12-0.113-3.113,1,0,1,68,false,stim,false,2,963.0100000013481,3,1,2,44194,WMM2,419299,false,false,457,image-keyboard-response,17
true,4,1,2,1,true,z,false,true,0.0-2.0-0.12-0.114-3.114,1,0,1,90,false,stim,false,1,416.7149999993853,3,1,0,44194,WMM2,421232,false,false,460,image-keyboard-response,18
true,4,1,2,1,true,z,false,false,0.0-2.0-0.12-0.115-3.115,1,0,1,90,false,stim,false,1,495.00500000064494,3,1,0,44194,WMM2,423252,false,true,463,image-keyboard-response,19
true,4,0,2,0,true,q,false,true,0.0-2.0-0.12-0.116-3.116,1,0,1,81,false,stim,false,1,802.0599999999395,3,0,1,44194,WMM2,425573,false,false,466,image-keyboard-response,20
true,4,2,2,2,true,d,false,true,0.0-2.0-0.13-0.117-3.117,1,0,1,68,false,stim,false,2,819.4000000003143,3,0,2,44194,WMM2,427921,false,false,469,image-keyboard-response,21
true,4,0,2,0,true,q,false,false,0.0-2.0-0.13-0.118-3.118,1,0,1,81,false,stim,false,1,1075.6250000012806,3,1,1,44194,WMM2,430517,false,true,472,image-keyboard-response,22
true,4,1,2,1,true,z,false,true,0.0-2.0-0.13-0.119-3.119,1,0,1,90,false,stim,false,1,1073.6799999995274,3,1,0,44194,WMM2,433116,false,false,475,image-keyboard-response,23
true,4,2,2,2,true,d,false,false,0.0-2.0-0.13-0.120-3.120,1,0,1,68,false,stim,false,2,735.8850000000093,3,0,2,44194,WMM2,435369,false,true,478,image-keyboard-response,24
true,4,0,2,0,true,q,false,true,0.0-2.0-0.13-0.121-3.121,1,0,1,81,false,stim,false,1,815.3099999999395,3,1,1,44194,WMM2,437704,false,false,481,image-keyboard-response,25
true,4,1,2,1,true,z,false,true,0.0-2.0-0.13-0.122-3.122,1,0,1,90,false,stim,false,1,1024.744999998773,3,1,0,44194,WMM2,440247,false,false,484,image-keyboard-response,26
true,4,2,2,2,true,d,false,true,0.0-2.0-0.13-0.123-3.123,1,0,1,68,false,stim,false,2,873.7399999991176,3,0,2,44194,WMM2,442642,false,false,487,image-keyboard-response,27
true,4,0,2,0,true,q,false,false,0.0-2.0-0.13-0.124-3.124,1,0,1,81,false,stim,false,1,849.5350000011967,3,1,1,44194,WMM2,445010,false,true,490,image-keyboard-response,28
true,4,1,2,1,true,z,false,false,0.0-2.0-0.13-0.125-3.125,1,0,1,90,false,stim,false,1,593.4999999990105,3,1,0,44194,WMM2,447117,false,true,493,image-keyboard-response,29
true,4,2,2,2,true,d,false,true,0.0-2.0-0.14-0.126-3.126,1,0,1,68,false,stim,false,2,930.2900000002701,3,0,2,44194,WMM2,449575,false,false,496,image-keyboard-response,30
true,5,1,3,0,false,q,true,false,0.0-2.0-0.14-0.127-3.127,1,1,0,90,true,stim,false,0,787.4350000001723,3,1,1,44194,WMM2,451881,false,false,499,image-keyboard-response,1
true,5,2,3,1,false,z,false,false,0.0-2.0-0.14-0.128-3.128,1,1,0,68,false,stim,true,2,715.6250000007567,3,0,2,44194,WMM2,454130,false,false,502,image-keyboard-response,2
true,5,1,3,1,true,z,false,false,0.0-2.0-0.14-0.129-3.129,1,1,0,90,false,stim,false,1,1673.1600000002654,3,1,0,44194,WMM2,457316,false,true,505,image-keyboard-response,3
true,5,0,3,0,true,q,false,true,0.0-2.0-0.14-0.130-3.130,1,1,0,81,false,stim,false,0,963.249999998894,3,1,1,44194,WMM2,459796,false,false,508,image-keyboard-response,4
true,5,0,3,0,true,q,false,false,0.0-2.0-0.14-0.131-3.131,1,1,0,81,false,stim,false,0,497.0099999991944,3,1,1,44194,WMM2,461811,false,true,511,image-keyboard-response,5
true,5,1,3,1,true,z,false,true,0.0-2.0-0.14-0.132-3.132,1,1,0,90,false,stim,false,1,1983.6649999997462,3,1,0,44194,WMM2,465315,false,false,514,image-keyboard-response,6
true,5,2,3,1,false,z,false,false,0.0-2.0-0.14-0.133-3.133,1,1,0,68,false,stim,true,2,615.9749999988126,3,0,2,44194,WMM2,467449,false,false,517,image-keyboard-response,7
true,5,1,3,1,true,z,false,true,0.0-2.0-0.14-0.134-3.134,1,1,0,90,false,stim,false,1,741.289999999979,3,1,0,44194,WMM2,469708,false,false,520,image-keyboard-response,8
true,5,0,3,0,true,q,false,true,0.0-2.0-0.15-0.135-3.135,1,1,0,81,false,stim,false,0,1056.0850000001374,3,1,1,44194,WMM2,472288,false,false,523,image-keyboard-response,9
true,5,2,3,1,false,z,false,false,0.0-2.0-0.15-0.136-3.136,1,1,0,68,false,stim,true,2,824.6950000011711,3,0,2,44194,WMM2,474630,false,false,526,image-keyboard-response,10
true,5,2,3,1,false,z,false,false,0.0-2.0-0.15-0.137-3.137,1,1,0,68,false,stim,true,2,548.6699999982957,3,0,2,44194,WMM2,476698,false,false,529,image-keyboard-response,11
true,5,0,3,0,true,q,false,true,0.0-2.0-0.15-0.138-3.138,1,1,0,81,false,stim,false,0,1126.4699999992154,3,1,1,44194,WMM2,479343,false,false,532,image-keyboard-response,12
true,5,1,3,1,true,z,false,true,0.0-2.0-0.15-0.139-3.139,1,1,0,90,false,stim,false,1,1206.2050000004238,3,1,0,44194,WMM2,482067,false,false,535,image-keyboard-response,13
true,5,0,3,0,true,q,false,true,0.0-2.0-0.15-0.140-3.140,1,1,0,81,false,stim,false,0,724.97999999905,3,1,1,44194,WMM2,484312,false,false,538,image-keyboard-response,14
true,5,1,3,1,true,z,false,true,0.0-2.0-0.15-0.141-3.141,1,1,0,90,false,stim,false,2,563.280000000319,3,0,2,44194,WMM2,486389,false,false,541,image-keyboard-response,15
true,5,0,3,1,false,z,true,false,0.0-2.0-0.15-0.142-3.142,1,1,0,81,false,stim,false,1,654.0900000000256,3,1,0,44194,WMM2,488562,false,false,544,image-keyboard-response,16
true,5,1,3,1,true,z,false,false,0.0-2.0-0.15-0.143-3.143,1,1,0,90,false,stim,false,1,2100.1649999998044,3,1,0,44194,WMM2,492180,false,true,547,image-keyboard-response,17
true,5,0,3,0,true,q,false,true,0.0-2.0-0.16-0.144-3.144,1,1,0,81,false,stim,false,0,1228.3950000000768,3,1,1,44194,WMM2,494933,false,false,550,image-keyboard-response,18
true,5,1,3,1,true,z,false,true,0.0-2.0-0.16-0.145-3.145,1,1,0,90,false,stim,false,2,2183.73500000051,3,0,2,44194,WMM2,498642,false,false,553,image-keyboard-response,19
true,5,1,3,1,true,z,false,false,0.0-2.0-0.16-0.146-3.146,1,1,0,90,false,stim,false,1,1507.8850000008824,3,1,0,44194,WMM2,501672,false,true,556,image-keyboard-response,20
true,5,1,3,1,true,z,false,true,0.0-2.0-0.16-0.147-3.147,1,1,0,90,false,stim,false,2,650.8049999992945,3,1,2,44194,WMM2,503841,false,false,559,image-keyboard-response,21
true,5,0,3,0,true,q,false,true,0.0-2.0-0.16-0.148-3.148,1,1,0,81,false,stim,false,0,789.6900000014575,3,0,1,44194,WMM2,506152,false,false,562,image-keyboard-response,22
true,5,1,3,1,true,z,false,true,0.0-2.0-0.16-0.149-3.149,1,1,0,90,false,stim,false,2,1168.6849999987753,3,1,2,44194,WMM2,508833,false,false,565,image-keyboard-response,23
true,5,0,3,0,true,q,false,true,0.0-2.0-0.16-0.150-3.150,1,1,0,81,false,stim,false,0,734.6000000016065,3,0,1,44194,WMM2,511085,false,false,568,image-keyboard-response,24
true,5,1,3,1,true,z,false,true,0.0-2.0-0.16-0.151-3.151,1,1,0,90,false,stim,false,1,468.3100000001723,3,0,0,44194,WMM2,513073,false,false,571,image-keyboard-response,25
true,5,1,3,1,true,z,false,true,0.0-2.0-0.16-0.152-3.152,1,1,0,90,false,stim,false,1,472.1499999995576,3,0,0,44194,WMM2,515067,false,false,574,image-keyboard-response,26
true,5,1,3,1,true,z,false,true,0.0-2.0-0.17-0.153-3.153,1,1,0,90,false,stim,false,2,1075.7350000003353,3,1,2,44194,WMM2,517662,false,false,577,image-keyboard-response,27
true,5,1,3,1,true,z,false,true,0.0-2.0-0.17-0.154-3.154,1,1,0,90,false,stim,false,2,517.6499999997905,3,1,2,44194,WMM2,519694,false,false,580,image-keyboard-response,28
true,5,1,3,1,true,z,false,true,0.0-2.0-0.17-0.155-3.155,1,1,0,90,false,stim,false,2,553.3400000004331,3,1,2,44194,WMM2,521773,false,false,583,image-keyboard-response,29
true,5,0,3,0,true,q,false,true,0.0-2.0-0.17-0.156-3.156,1,1,0,81,false,stim,false,0,1124.3699999995297,3,0,1,44194,WMM2,524421,false,false,586,image-keyboard-response,30
true,6,1,1,2,false,d,false,false,0.0-2.0-0.17-0.157-3.157,0,0,1,90,true,stim,true,1,714.6900000006426,3,0,0,44194,WMM2,526654,false,false,589,image-keyboard-response,1
true,6,1,1,2,false,d,false,false,0.0-2.0-0.17-0.158-3.158,0,0,1,90,false,stim,true,1,485.445000000298,3,0,0,44194,WMM2,528657,false,false,592,image-keyboard-response,2
true,6,0,1,2,false,d,true,false,0.0-2.0-0.17-0.159-3.159,0,0,1,81,false,stim,false,1,740.8099999993574,3,0,0,44194,WMM2,530915,false,false,595,image-keyboard-response,3
true,6,0,1,1,false,z,false,false,0.0-2.0-0.17-0.160-3.160,0,0,1,81,false,stim,true,0,852.1799999998184,3,0,1,44194,WMM2,533286,false,false,598,image-keyboard-response,4
true,6,0,1,1,false,z,false,false,0.0-2.0-0.17-0.161-3.161,0,0,1,81,false,stim,true,0,392.8249999990221,3,0,1,44194,WMM2,535212,false,false,601,image-keyboard-response,5
true,6,1,1,2,false,d,false,false,0.0-2.0-0.18-0.162-3.162,0,0,1,90,false,stim,true,1,692.6850000000559,3,0,0,44194,WMM2,537427,false,false,604,image-keyboard-response,6
true,6,0,1,1,false,z,false,false,0.0-2.0-0.18-0.163-3.163,0,0,1,81,false,stim,true,0,745.5100000007078,3,0,1,44194,WMM2,539696,false,false,607,image-keyboard-response,7
true,6,1,1,1,true,z,false,true,0.0-2.0-0.18-0.164-3.164,0,0,1,90,false,stim,false,1,864.7550000005867,3,1,2,44194,WMM2,542083,false,false,610,image-keyboard-response,8
true,6,1,1,1,true,z,false,true,0.0-2.0-0.18-0.165-3.165,0,0,1,90,false,stim,false,1,685.1999999999534,3,1,2,44194,WMM2,544293,false,false,613,image-keyboard-response,9
true,6,1,1,1,true,z,false,true,0.0-2.0-0.18-0.166-3.166,0,0,1,90,false,stim,false,0,1346.20999999973,3,0,1,44194,WMM2,547161,false,false,616,image-keyboard-response,10
true,6,1,1,1,true,z,false,true,0.0-2.0-0.18-0.167-3.167,0,0,1,90,false,stim,false,1,1062.5600000002887,3,1,2,44194,WMM2,549743,false,false,619,image-keyboard-response,11
true,6,0,1,2,false,d,true,false,0.0-2.0-0.18-0.168-3.168,0,0,1,81,false,stim,false,1,971.910000000149,3,0,0,44194,WMM2,552228,false,false,622,image-keyboard-response,12
true,6,1,1,1,true,z,false,true,0.0-2.0-0.18-0.169-3.169,0,0,1,90,false,stim,false,0,625.7500000010477,3,0,1,44194,WMM2,554367,false,false,625,image-keyboard-response,13
true,6,1,1,2,false,d,false,false,0.0-2.0-0.18-0.170-3.170,0,0,1,90,false,stim,true,1,658.4600000005448,3,0,0,44194,WMM2,556541,false,false,628,image-keyboard-response,14
true,6,1,1,1,true,z,false,true,0.0-2.0-0.19-0.171-3.171,0,0,1,90,false,stim,false,1,531.7350000005681,3,1,2,44194,WMM2,558591,false,false,631,image-keyboard-response,15
true,6,1,1,1,true,z,false,true,0.0-2.0-0.19-0.172-3.172,0,0,1,90,false,stim,false,0,402.0,3,0,1,44194,WMM2,560511,false,false,634,image-keyboard-response,16
true,6,1,1,1,true,z,false,false,0.0-2.0-0.19-0.173-3.173,0,0,1,90,false,stim,false,1,405.07000000064727,3,1,2,44194,WMM2,562435,false,true,637,image-keyboard-response,17
true,6,1,1,1,true,z,false,true,0.0-2.0-0.19-0.174-3.174,0,0,1,90,false,stim,false,0,435.3399999999674,3,0,1,44194,WMM2,564388,false,false,640,image-keyboard-response,18
true,6,1,1,1,true,z,false,true,0.0-2.0-0.19-0.175-3.175,0,0,1,90,false,stim,false,0,403.7499999994179,3,0,1,44194,WMM2,566306,false,false,643,image-keyboard-response,19
true,6,2,1,2,true,d,false,true,0.0-2.0-0.19-0.176-3.176,0,0,1,68,false,stim,false,1,950.7049999992596,3,0,0,44194,WMM2,568774,false,false,646,image-keyboard-response,20
true,6,2,1,2,true,d,false,true,0.0-2.0-0.19-0.177-3.177,0,0,1,68,false,stim,false,1,494.3800000001211,3,0,0,44194,WMM2,570796,false,false,649,image-keyboard-response,21
true,6,2,1,2,true,d,false,false,0.0-2.0-0.19-0.178-3.178,0,0,1,68,false,stim,false,1,512.1550000002608,3,1,0,44194,WMM2,572832,false,true,652,image-keyboard-response,22
true,6,1,1,1,true,z,false,false,0.0-2.0-0.19-0.179-3.179,0,0,1,90,false,stim,false,1,1068.63499999966,3,1,2,44194,WMM2,575419,false,true,655,image-keyboard-response,23
true,6,1,1,1,true,z,false,true,0.0-2.0-0.20-0.180-3.180,0,0,1,90,false,stim,false,0,483.7049999986775,3,0,1,44194,WMM2,577419,false,false,658,image-keyboard-response,24
true,6,2,1,2,true,d,false,true,0.0-2.0-0.20-0.181-3.181,0,0,1,68,false,stim,false,1,622.7250000011409,3,1,0,44194,WMM2,579562,false,false,661,image-keyboard-response,25
true,6,2,1,2,true,d,false,true,0.0-2.0-0.20-0.182-3.182,0,0,1,68,false,stim,false,1,642.1800000007497,3,1,0,44194,WMM2,581722,false,false,664,image-keyboard-response,26
true,6,1,1,1,true,z,false,false,0.0-2.0-0.20-0.183-3.183,0,0,1,90,false,stim,false,1,1431.630000000936,3,1,2,44194,WMM2,584672,false,true,667,image-keyboard-response,27
true,6,1,1,1,true,z,false,true,0.0-2.0-0.20-0.184-3.184,0,0,1,90,false,stim,false,0,1720.0049999991897,3,0,1,44194,WMM2,587913,false,false,670,image-keyboard-response,28
true,6,1,1,1,true,z,false,true,0.0-2.0-0.20-0.185-3.185,0,0,1,90,false,stim,false,1,1401.4050000004936,3,1,2,44194,WMM2,590835,false,false,673,image-keyboard-response,29
true,6,1,1,1,true,z,false,true,0.0-2.0-0.20-0.186-3.186,0,0,1,90,false,stim,false,1,507.59499999915715,3,1,2,44194,WMM2,592864,false,false,676,image-keyboard-response,30
true,6,1,1,1,true,z,false,true,0.0-2.0-0.20-0.187-3.187,0,0,1,90,false,stim,false,0,534.5049999996554,3,0,1,44194,WMM2,594918,false,false,679,image-keyboard-response,31
true,7,2,4,2,true,d,false,true,0.0-2.0-0.20-0.188-3.188,1,0,1,68,true,stim,false,2,744.2899999987567,3,1,0,44194,WMM2,597190,false,false,682,image-keyboard-response,1
true,7,1,4,1,true,z,false,true,0.0-2.0-0.21-0.189-3.189,1,0,1,90,false,stim,false,1,1218.6049999999814,3,0,1,44194,WMM2,599928,false,false,685,image-keyboard-response,2
true,7,1,4,1,true,z,false,true,0.0-2.0-0.21-0.190-3.190,1,0,1,90,false,stim,false,1,1008.4100000003818,3,1,2,44194,WMM2,602455,false,false,688,image-keyboard-response,3
true,7,1,4,1,true,z,false,true,0.0-2.0-0.21-0.191-3.191,1,0,1,90,false,stim,false,1,869.8199999998324,3,0,1,44194,WMM2,604856,false,false,691,image-keyboard-response,4
true,7,2,4,2,true,d,false,false,0.0-2.0-0.21-0.192-3.192,1,0,1,68,false,stim,false,2,765.559999999823,3,1,0,44194,WMM2,607140,false,true,694,image-keyboard-response,5
true,7,1,4,2,false,d,true,false,0.0-2.0-0.21-0.193-3.193,1,0,1,90,false,stim,false,2,744.0999999998603,3,1,0,44194,WMM2,609404,false,false,697,image-keyboard-response,6
true,7,1,4,1,true,z,false,true,0.0-2.0-0.21-0.194-3.194,1,0,1,90,false,stim,false,1,889.3749999988358,3,0,1,44194,WMM2,611814,false,false,700,image-keyboard-response,7
true,7,1,4,1,true,z,false,true,0.0-2.0-0.21-0.195-3.195,1,0,1,90,false,stim,false,1,1389.7350000006845,3,1,2,44194,WMM2,614751,false,false,703,image-keyboard-response,8
true,7,2,4,1,false,z,true,false,0.0-2.0-0.21-0.196-3.196,1,0,1,68,false,stim,false,1,937.434999999823,3,1,2,44194,WMM2,617211,false,false,706,image-keyboard-response,9
true,7,1,4,2,false,d,true,false,0.0-2.0-0.21-0.197-3.197,1,0,1,90,false,stim,false,2,592.0000000004657,3,1,0,44194,WMM2,619321,false,false,709,image-keyboard-response,10
true,7,1,4,1,true,z,false,false,0.0-2.0-0.22-0.198-3.198,1,0,1,90,false,stim,false,1,932.2999999985332,3,0,1,44194,WMM2,621772,false,true,712,image-keyboard-response,11
true,7,1,4,2,false,d,true,false,0.0-2.0-0.22-0.199-3.199,1,0,1,90,false,stim,false,2,853.5400000000373,3,1,0,44194,WMM2,624138,false,false,715,image-keyboard-response,12
true,7,1,4,1,true,z,false,true,0.0-2.0-0.22-0.200-3.200,1,0,1,90,false,stim,false,1,566.9949999992969,3,1,2,44194,WMM2,626223,false,false,718,image-keyboard-response,13
true,7,1,4,1,true,z,false,false,0.0-2.0-0.22-0.201-3.201,1,0,1,90,false,stim,false,1,456.6950000007637,3,1,2,44194,WMM2,628198,false,true,721,image-keyboard-response,14
true,7,2,4,2,true,d,false,true,0.0-2.0-0.22-0.202-3.202,1,0,1,68,false,stim,false,2,519.5800000001909,3,1,0,44194,WMM2,630238,false,false,724,image-keyboard-response,15
true,7,1,4,1,true,z,false,true,0.0-2.0-0.22-0.203-3.203,1,0,1,90,false,stim,false,1,793.930000001681,3,0,1,44194,WMM2,632551,false,false,727,image-keyboard-response,16
true,7,1,4,1,true,z,false,false,0.0-2.0-0.22-0.204-3.204,1,0,1,90,false,stim,false,1,747.4100000017788,3,0,1,44194,WMM2,634814,false,true,730,image-keyboard-response,17
true,7,2,4,2,true,d,false,true,0.0-2.0-0.22-0.205-3.205,1,0,1,68,false,stim,false,2,688.2799999985145,3,1,0,44194,WMM2,637017,false,false,733,image-keyboard-response,18
true,7,1,4,1,true,z,false,true,0.0-2.0-0.22-0.206-3.206,1,0,1,90,false,stim,false,1,1276.0699999999488,3,1,2,44194,WMM2,639812,false,false,736,image-keyboard-response,19
true,7,1,4,1,true,z,false,true,0.0-2.0-0.23-0.207-3.207,1,0,1,90,false,stim,false,1,671.5999999997439,3,1,2,44194,WMM2,642003,false,false,739,image-keyboard-response,20
true,7,1,4,2,false,d,true,false,0.0-2.0-0.23-0.208-3.208,1,0,1,90,false,stim,false,2,1496.0750000010012,3,0,0,44194,WMM2,645028,false,false,742,image-keyboard-response,21
true,7,1,4,1,true,z,false,true,0.0-2.0-0.23-0.209-3.209,1,0,1,90,false,stim,false,1,1628.009999998496,3,1,1,44194,WMM2,648169,false,false,745,image-keyboard-response,22
true,7,1,4,1,true,z,false,true,0.0-2.0-0.23-0.210-3.210,1,0,1,90,false,stim,false,1,546.3300000010058,3,1,1,44194,WMM2,650241,false,false,748,image-keyboard-response,23
true,7,2,4,2,true,d,false,true,0.0-2.0-0.23-0.211-3.211,1,0,1,68,false,stim,false,2,859.6099999995204,3,0,0,44194,WMM2,652625,false,false,751,image-keyboard-response,24
true,7,1,4,1,true,z,false,false,0.0-2.0-0.23-0.212-3.212,1,0,1,90,false,stim,false,1,877.0800000001909,3,0,2,44194,WMM2,655026,false,true,754,image-keyboard-response,25
true,7,1,4,1,true,z,false,true,0.0-2.0-0.23-0.213-3.213,1,0,1,90,false,stim,false,1,559.9450000008801,3,0,2,44194,WMM2,657107,false,false,757,image-keyboard-response,26
true,7,1,4,1,true,z,false,true,0.0-2.0-0.23-0.214-3.214,1,0,1,90,false,stim,false,1,847.3949999988545,3,1,1,44194,WMM2,659475,false,false,760,image-keyboard-response,27
true,7,2,4,2,true,d,false,true,0.0-2.0-0.23-0.215-3.215,1,0,1,68,false,stim,false,2,1693.284999999334,3,0,0,44194,WMM2,662682,false,false,763,image-keyboard-response,28
true,7,1,4,1,true,z,false,true,0.0-2.0-0.24-0.216-3.216,1,0,1,90,false,stim,false,1,664.3899999998976,3,0,2,44194,WMM2,664867,false,false,766,image-keyboard-response,29
true,7,2,4,2,true,d,false,true,0.0-2.0-0.24-0.217-3.217,1,0,1,68,false,stim,false,2,724.1099999992875,3,0,0,44194,WMM2,667120,false,false,769,image-keyboard-response,30
true,8,2,1,1,false,z,false,false,0.0-2.0-0.24-0.218-3.218,0,1,0,68,true,stim,true,2,989.7099999998463,3,0,0,44194,WMM2,669629,false,false,772,image-keyboard-response,1
true,8,1,1,1,true,z,false,false,0.0-2.0-0.24-0.219-3.219,0,1,0,90,false,stim,false,1,748.1700000007404,3,1,1,44194,WMM2,671896,false,true,775,image-keyboard-response,2
true,8,2,1,0,false,q,true,false,0.0-2.0-0.24-0.220-3.220,0,1,0,68,false,stim,false,1,797.1500000003725,3,0,2,44194,WMM2,674214,false,false,778,image-keyboard-response,3
true,8,2,1,1,false,z,false,false,0.0-2.0-0.24-0.221-3.221,0,1,0,68,false,stim,true,2,762.5650000008754,3,0,0,44194,WMM2,676498,false,false,781,image-keyboard-response,4
true,8,1,1,1,true,z,false,true,0.0-2.0-0.24-0.222-3.222,0,1,0,90,false,stim,false,1,753.1849999995902,3,1,1,44194,WMM2,678773,false,false,784,image-keyboard-response,5
true,8,1,1,0,false,q,false,false,0.0-2.0-0.24-0.223-3.223,0,1,0,90,false,stim,true,1,785.9899999984773,3,0,2,44194,WMM2,681085,false,false,787,image-keyboard-response,6
true,8,1,1,1,true,z,false,true,0.0-2.0-0.24-0.224-3.224,0,1,0,90,false,stim,false,1,661.0149999996647,3,1,1,44194,WMM2,683268,false,false,790,image-keyboard-response,7
true,8,2,1,1,false,z,false,false,0.0-2.0-0.25-0.225-3.225,0,1,0,68,false,stim,true,2,760.8800000017509,3,0,0,44194,WMM2,685550,false,false,793,image-keyboard-response,8
true,8,1,1,0,false,q,false,false,0.0-2.0-0.25-0.226-3.226,0,1,0,90,false,stim,true,1,578.2649999982677,3,0,2,44194,WMM2,687649,false,false,796,image-keyboard-response,9
true,8,1,1,0,false,q,false,false,0.0-2.0-0.25-0.227-3.227,0,1,0,90,false,stim,true,1,740.9050000004936,3,0,2,44194,WMM2,689911,false,false,799,image-keyboard-response,10
true,8,1,1,1,true,z,false,true,0.0-2.0-0.25-0.228-3.228,0,1,0,90,false,stim,false,1,753.5699999990175,3,1,1,44194,WMM2,692213,false,false,802,image-keyboard-response,11
true,8,0,1,1,false,z,true,false,0.0-2.0-0.25-0.229-3.229,0,1,0,81,false,stim,false,2,769.5999999996275,3,0,0,44194,WMM2,694506,false,false,805,image-keyboard-response,12
true,8,1,1,1,true,z,false,true,0.0-2.0-0.25-0.230-3.230,0,1,0,90,false,stim,false,2,547.5349999996834,3,0,0,44194,WMM2,696574,false,false,808,image-keyboard-response,13
true,8,1,1,1,true,z,false,true,0.0-2.0-0.25-0.231-3.231,0,1,0,90,false,stim,false,1,813.8550000003306,3,1,1,44194,WMM2,698909,false,false,811,image-keyboard-response,14
true,8,2,1,0,false,q,true,true,0.0-2.0-0.25-0.232-3.232,0,1,0,68,false,stim,false,1,1019.1000000013737,3,0,2,44194,WMM2,701446,false,true,814,image-keyboard-response,15
true,8,1,1,1,true,z,false,true,0.0-2.0-0.25-0.233-3.233,0,1,0,90,false,stim,false,1,356.80499999946915,3,1,1,44194,WMM2,703328,false,false,817,image-keyboard-response,16
true,8,1,1,1,true,z,false,false,0.0-2.0-0.26-0.234-3.234,0,1,0,90,false,stim,false,2,539.2700000010664,3,0,0,44194,WMM2,705387,false,true,820,image-keyboard-response,17
true,8,2,1,0,false,q,true,false,0.0-2.0-0.26-0.235-3.235,0,1,0,68,false,stim,false,1,739.3350000001956,3,0,2,44194,WMM2,707647,false,false,823,image-keyboard-response,18
true,8,1,1,1,true,z,false,true,0.0-2.0-0.26-0.236-3.236,0,1,0,90,false,stim,false,1,1071.2850000000326,3,1,1,44194,WMM2,710242,false,false,826,image-keyboard-response,19
true,8,1,1,1,true,z,false,true,0.0-2.0-0.26-0.237-3.237,0,1,0,90,false,stim,false,1,691.7200000006706,3,1,1,44194,WMM2,712458,false,false,829,image-keyboard-response,20
true,8,2,1,0,false,q,true,false,0.0-2.0-0.26-0.238-3.238,0,1,0,68,false,stim,false,1,762.494999999064,3,0,2,44194,WMM2,714748,false,false,832,image-keyboard-response,21
true,8,2,1,0,false,q,true,false,0.0-2.0-0.26-0.239-3.239,0,1,0,68,false,stim,false,1,642.2450000009267,3,0,2,44194,WMM2,716919,false,false,835,image-keyboard-response,22
true,8,1,1,1,true,z,false,true,0.0-2.0-0.26-0.240-3.240,0,1,0,90,false,stim,false,2,747.9450000009965,3,0,0,44194,WMM2,719197,false,false,838,image-keyboard-response,23
true,8,1,1,1,true,z,false,true,0.0-2.0-0.26-0.241-3.241,0,1,0,90,false,stim,false,1,645.4950000006938,3,1,1,44194,WMM2,721370,false,false,841,image-keyboard-response,24
true,8,1,1,1,true,z,false,true,0.0-2.0-0.26-0.242-3.242,0,1,0,90,false,stim,false,2,630.554999999702,3,0,0,44194,WMM2,723527,false,false,844,image-keyboard-response,25
true,8,1,1,1,true,z,false,true,0.0-2.0-0.27-0.243-3.243,0,1,0,90,false,stim,false,2,501.164999999688,3,0,0,44194,WMM2,725555,false,false,847,image-keyboard-response,26
true,8,1,1,1,true,z,false,true,0.0-2.0-0.27-0.244-3.244,0,1,0,90,false,stim,false,1,260.00000000023283,3,1,1,44194,WMM2,727342,false,false,850,image-keyboard-response,27
true,8,1,1,1,true,z,false,true,0.0-2.0-0.27-0.245-3.245,0,1,0,90,false,stim,false,1,368.4849999990547,3,1,1,44194,WMM2,729243,false,false,853,image-keyboard-response,28
true,8,2,1,0,false,q,true,false,0.0-2.0-0.27-0.246-3.246,0,1,0,68,false,stim,false,1,1273.5700000012293,3,0,2,44194,WMM2,732040,false,false,856,image-keyboard-response,29
true,8,1,1,1,true,z,false,true,0.0-2.0-0.27-0.247-3.247,0,1,0,90,false,stim,false,1,756.8199999986682,3,1,1,44194,WMM2,734322,false,false,859,image-keyboard-response,30
true,8,1,1,1,true,z,false,true,0.0-2.0-0.27-0.248-3.248,0,1,0,90,false,stim,false,2,689.3099999997066,3,0,0,44194,WMM2,736542,false,false,862,image-keyboard-response,31
true,8,1,1,1,true,z,false,true,0.0-2.0-0.27-0.249-3.249,0,1,0,90,false,stim,false,2,364.0400000003865,3,0,0,44194,WMM2,738434,false,false,865,image-keyboard-response,32
true,8,1,1,0,false,q,false,false,0.0-2.0-0.27-0.250-3.250,0,1,0,90,false,stim,true,1,725.4449999999488,3,0,2,44194,WMM2,740688,false,false,868,image-keyboard-response,33
true,8,0,1,0,true,q,false,true,0.0-2.0-0.27-0.251-3.251,0,1,0,81,false,stim,false,1,646.0499999994645,3,0,2,44194,WMM2,742864,false,false,871,image-keyboard-response,34
true,8,1,1,1,true,z,false,true,0.0-2.0-0.28-0.252-3.252,0,1,0,90,false,stim,false,2,137.22000000043772,3,0,0,44194,WMM2,744533,false,false,874,image-keyboard-response,35
true,8,1,1,1,true,z,false,true,0.0-2.0-0.28-0.253-3.253,0,1,0,90,false,stim,false,1,600.375,3,1,1,44194,WMM2,746656,false,false,877,image-keyboard-response,36
true,8,0,1,0,true,q,false,true,0.0-2.0-0.28-0.254-3.254,0,1,0,81,false,stim,false,1,585.8750000006985,3,0,2,44194,WMM2,748768,false,false,880,image-keyboard-response,37
true,8,1,1,1,true,z,false,true,0.0-2.0-0.28-0.255-3.255,0,1,0,90,false,stim,false,1,924.8050000005169,3,1,1,44194,WMM2,751217,false,false,883,image-keyboard-response,38
true,8,1,1,1,true,z,false,true,0.0-2.0-0.28-0.256-3.256,0,1,0,90,false,stim,false,2,827.3799999988405,3,0,0,44194,WMM2,753566,false,false,886,image-keyboard-response,39
true,8,0,1,1,false,z,true,false,0.0-2.0-0.28-0.257-3.257,0,1,0,81,false,stim,false,1,909.6050000006799,3,1,1,44194,WMM2,755996,false,false,889,image-keyboard-response,40
true,8,1,1,0,false,q,false,false,0.0-2.0-0.28-0.258-3.258,0,1,0,90,false,stim,true,1,802.0799999994924,3,1,2,44194,WMM2,758317,false,false,892,image-keyboard-response,41
true,8,0,1,0,true,q,false,true,0.0-2.0-0.28-0.259-3.259,0,1,0,81,false,stim,false,1,936.3499999999767,3,1,2,44194,WMM2,760770,false,false,895,image-keyboard-response,42
true,8,1,1,1,true,z,false,true,0.0-2.0-0.28-0.260-3.260,0,1,0,90,false,stim,false,2,756.0049999993062,3,0,0,44194,WMM2,763052,false,false,898,image-keyboard-response,43
true,8,0,1,0,true,q,false,false,0.0-2.0-0.29-0.261-3.261,0,1,0,81,false,stim,false,1,816.0050000005867,3,1,2,44194,WMM2,765429,false,true,901,image-keyboard-response,44
true,8,1,1,1,true,z,false,true,0.0-2.0-0.29-0.262-3.262,0,1,0,90,false,stim,false,2,892.6750000009779,3,0,0,44194,WMM2,767843,false,false,904,image-keyboard-response,45
true,8,1,1,1,true,z,false,true,0.0-2.0-0.29-0.263-3.263,0,1,0,90,false,stim,false,2,910.2899999998044,3,0,0,44194,WMM2,770294,false,false,907,image-keyboard-response,46
true,8,1,1,1,true,z,false,false,0.0-2.0-0.29-0.264-3.264,0,1,0,90,false,stim,false,1,1531.3799999984913,3,1,1,44194,WMM2,773349,false,true,910,image-keyboard-response,47
true,9,1,2,1,true,z,false,true,0.0-2.0-0.29-0.265-3.265,0,1,1,90,true,stim,false,1,886.5749999986729,3,1,1,44194,WMM2,775759,false,false,913,image-keyboard-response,1
true,9,1,2,1,true,z,false,true,0.0-2.0-0.29-0.266-3.266,0,1,1,90,false,stim,false,1,542.3499999997439,3,1,1,44194,WMM2,777822,false,false,916,image-keyboard-response,2
true,9,0,2,0,true,q,false,true,0.0-2.0-0.29-0.267-3.267,0,1,1,81,false,stim,false,0,748.6449999996694,3,1,2,44194,WMM2,780095,false,false,919,image-keyboard-response,3
true,9,0,2,0,true,q,false,false,0.0-2.0-0.29-0.268-3.268,0,1,1,81,false,stim,false,0,727.5750000007683,3,1,2,44194,WMM2,782345,false,true,922,image-keyboard-response,4
true,9,1,2,2,false,d,false,false,0.0-2.0-0.29-0.269-3.269,0,1,1,90,false,stim,true,1,1180.3199999994831,3,0,0,44194,WMM2,785046,false,false,925,image-keyboard-response,5
true,9,1,2,2,false,d,false,false,0.0-2.0-0.30-0.270-3.270,0,1,1,90,false,stim,true,1,790.3850000002421,3,0,0,44194,WMM2,787352,false,false,928,image-keyboard-response,6
true,9,1,2,1,true,z,false,true,0.0-2.0-0.30-0.271-3.271,0,1,1,90,false,stim,false,1,792.0899999989197,3,1,1,44194,WMM2,789674,false,false,931,image-keyboard-response,7
true,9,0,2,0,true,q,false,true,0.0-2.0-0.30-0.272-3.272,0,1,1,81,false,stim,false,0,587.3699999992969,3,1,2,44194,WMM2,791780,false,false,934,image-keyboard-response,8
true,9,1,2,1,true,z,false,true,0.0-2.0-0.30-0.273-3.273,0,1,1,90,false,stim,false,1,975.2750000007218,3,1,1,44194,WMM2,794281,false,false,937,image-keyboard-response,9
true,9,1,2,1,true,z,false,true,0.0-2.0-0.30-0.274-3.274,0,1,1,90,false,stim,false,1,444.8149999990128,3,1,1,44194,WMM2,796246,false,false,940,image-keyboard-response,10
true,9,0,2,0,true,q,false,true,0.0-2.0-0.30-0.275-3.275,0,1,1,81,false,stim,false,0,767.5199999994365,3,1,2,44194,WMM2,798538,false,false,943,image-keyboard-response,11
true,9,1,2,0,false,q,true,false,0.0-2.0-0.30-0.276-3.276,0,1,1,90,false,stim,false,0,1369.1699999999255,3,1,2,44194,WMM2,801426,false,false,946,image-keyboard-response,12
true,9,2,2,2,true,d,false,true,0.0-2.0-0.30-0.277-3.277,0,1,1,68,false,stim,false,1,1282.4700000000885,3,0,0,44194,WMM2,804223,false,false,949,image-keyboard-response,13
true,9,2,2,2,true,d,false,true,0.0-2.0-0.30-0.278-3.278,0,1,1,68,false,stim,false,1,412.00000000034925,3,0,0,44194,WMM2,806158,false,false,952,image-keyboard-response,14
true,9,0,2,0,true,q,false,true,0.0-2.0-0.31-0.279-3.279,0,1,1,81,false,stim,false,0,663.0100000001257,3,1,2,44194,WMM2,808350,false,false,955,image-keyboard-response,15
true,9,1,2,1,true,z,false,true,0.0-2.0-0.31-0.280-3.280,0,1,1,90,false,stim,false,1,1393.330000000773,3,1,1,44194,WMM2,811268,false,false,958,image-keyboard-response,16
true,9,1,2,1,true,z,false,true,0.0-2.0-0.31-0.281-3.281,0,1,1,90,false,stim,false,1,757.6900000004098,3,1,1,44194,WMM2,813555,false,false,961,image-keyboard-response,17
true,9,2,2,0,false,q,true,false,0.0-2.0-0.31-0.282-3.282,0,1,1,68,false,stim,false,0,1001.7899999984074,3,1,2,44194,WMM2,816072,false,false,964,image-keyboard-response,18
true,9,1,2,1,true,z,false,true,0.0-2.0-0.31-0.283-3.283,0,1,1,90,false,stim,false,1,1538.4950000006938,3,1,1,44194,WMM2,819128,false,false,967,image-keyboard-response,19
true,9,0,2,0,true,q,false,true,0.0-2.0-0.31-0.284-3.284,0,1,1,81,false,stim,false,0,486.419999999227,3,1,2,44194,WMM2,821131,false,false,970,image-keyboard-response,20
true,9,1,2,2,false,d,false,false,0.0-2.0-0.31-0.285-3.285,0,1,1,90,false,stim,true,1,1746.7299999989336,3,0,0,44194,WMM2,824414,false,false,973,image-keyboard-response,21
true,9,2,2,2,true,d,false,true,0.0-2.0-0.31-0.286-3.286,0,1,1,68,false,stim,false,1,1587.4400000011083,3,0,0,44194,WMM2,827536,false,false,976,image-keyboard-response,22
true,9,2,2,2,true,d,false,false,0.0-2.0-0.31-0.287-3.287,0,1,1,68,false,stim,false,1,501.53999999933876,3,0,0,44194,WMM2,829574,false,true,979,image-keyboard-response,23
true,9,1,2,1,true,z,false,true,0.0-2.0-0.32-0.288-3.288,0,1,1,90,false,stim,false,1,1335.1499999989755,3,1,1,44194,WMM2,832437,false,false,982,image-keyboard-response,24
true,9,0,2,0,true,q,false,true,0.0-2.0-0.32-0.289-3.289,0,1,1,81,false,stim,false,0,982.2700000004843,3,1,2,44194,WMM2,834954,false,false,985,image-keyboard-response,25
true,9,2,2,2,true,d,false,true,0.0-2.0-0.32-0.290-3.290,0,1,1,68,false,stim,false,1,1728.3400000014808,3,1,0,44194,WMM2,838209,false,false,988,image-keyboard-response,26
true,9,0,2,0,true,q,false,true,0.0-2.0-0.32-0.291-3.291,0,1,1,81,false,stim,false,0,2100.8349999993807,3,1,2,44194,WMM2,841832,false,false,991,image-keyboard-response,27
true,9,2,2,2,true,d,false,true,0.0-2.0-0.32-0.292-3.292,0,1,1,68,false,stim,false,1,742.0849999998463,3,1,0,44194,WMM2,844096,false,false,994,image-keyboard-response,28
true,9,2,2,2,true,d,false,true,0.0-2.0-0.32-0.293-3.293,0,1,1,68,false,stim,false,1,471.9599999990314,3,1,0,44194,WMM2,846088,false,false,997,image-keyboard-response,29
true,9,1,2,1,true,z,false,true,0.0-2.0-0.32-0.294-3.294,0,1,1,90,false,stim,false,1,1110.0049999986077,3,0,1,44194,WMM2,848716,false,false,1000,image-keyboard-response,30
true,9,0,2,0,true,q,false,true,0.0-2.0-0.32-0.295-3.295,0,1,1,81,false,stim,false,0,1373.144999999553,3,1,2,44194,WMM2,851634,false,false,1003,image-keyboard-response,31
true,9,2,2,1,false,z,true,false,0.0-2.0-0.32-0.296-3.296,0,1,1,68,false,stim,false,1,1861.1599999985192,3,0,1,44194,WMM2,855018,false,false,1006,image-keyboard-response,32
true,9,0,2,0,true,q,false,true,0.0-2.0-0.33-0.297-3.297,0,1,1,81,false,stim,false,0,1297.4300000005169,3,1,2,44194,WMM2,857850,false,false,1009,image-keyboard-response,33
true,9,1,2,1,true,z,false,true,0.0-2.0-0.33-0.298-3.298,0,1,1,90,false,stim,false,1,651.614999998943,3,0,1,44194,WMM2,860020,false,false,1012,image-keyboard-response,34
true,9,0,2,0,true,q,false,true,0.0-2.0-0.33-0.299-3.299,0,1,1,81,false,stim,false,0,1820.780000000028,3,1,2,44194,WMM2,863364,false,false,1015,image-keyboard-response,35
true,10,1,2,0,false,q,false,false,0.0-2.0-0.33-0.300-3.300,1,0,1,90,true,stim,true,1,1769.0000000002328,3,0,1,44194,WMM2,866665,false,false,1018,image-keyboard-response,1
true,10,2,2,2,true,d,false,true,0.0-2.0-0.33-0.301-3.301,1,0,1,68,false,stim,false,2,1124.9850000003353,3,1,0,44194,WMM2,869319,false,false,1021,image-keyboard-response,2
true,10,2,2,0,false,q,true,false,0.0-2.0-0.33-0.302-3.302,1,0,1,68,false,stim,false,1,932.4299999990035,3,0,1,44194,WMM2,871777,false,false,1024,image-keyboard-response,3
true,10,0,2,2,false,d,true,false,0.0-2.0-0.33-0.303-3.303,1,0,1,81,false,stim,false,2,1424.0250000002561,3,1,0,44194,WMM2,874716,false,false,1027,image-keyboard-response,4
true,10,2,2,2,true,d,false,true,0.0-2.0-0.33-0.304-3.304,1,0,1,68,false,stim,false,2,1152.105000001029,3,1,0,44194,WMM2,877389,false,false,1030,image-keyboard-response,5
true,10,0,2,0,true,q,false,true,0.0-2.0-0.33-0.305-3.305,1,0,1,81,false,stim,false,0,1605.144999999553,3,1,2,44194,WMM2,880517,false,false,1033,image-keyboard-response,6
true,10,2,2,2,true,d,false,true,0.0-2.0-0.34-0.306-3.306,1,0,1,68,false,stim,false,2,1713.514999999432,3,1,0,44194,WMM2,883756,false,false,1036,image-keyboard-response,7
true,10,0,2,0,true,q,false,true,0.0-2.0-0.34-0.307-3.307,1,0,1,81,false,stim,false,0,619.350000000908,3,1,2,44194,WMM2,885899,false,false,1039,image-keyboard-response,8
true,10,2,2,2,true,d,false,false,0.0-2.0-0.34-0.308-3.308,1,0,1,68,false,stim,false,2,966.28000000061,3,1,0,44194,WMM2,888389,false,true,1042,image-keyboard-response,9
true,10,0,2,0,true,q,false,true,0.0-2.0-0.34-0.309-3.309,1,0,1,81,false,stim,false,0,840.1549999997951,3,1,2,44194,WMM2,890756,false,false,1045,image-keyboard-response,10
true,10,2,2,2,true,d,false,true,0.0-2.0-0.34-0.310-3.310,1,0,1,68,false,stim,false,2,1326.9700000000885,3,1,0,44194,WMM2,893604,false,false,1048,image-keyboard-response,11
true,10,1,2,0,false,q,false,false,0.0-2.0-0.34-0.311-3.311,1,0,1,90,false,stim,true,1,1126.5849999999627,3,0,1,44194,WMM2,896249,false,false,1051,image-keyboard-response,12
true,10,1,2,0,false,q,false,true,0.0-2.0-0.34-0.312-3.312,1,0,1,90,false,stim,true,1,536.0549999986542,3,0,1,44194,WMM2,898304,false,true,1054,image-keyboard-response,13
true,10,1,2,0,false,q,false,true,0.0-2.0-0.34-0.313-3.313,1,0,1,90,false,stim,true,1,441.625000001397,3,0,1,44194,WMM2,900261,false,true,1057,image-keyboard-response,14
true,10,2,2,0,false,q,true,false,0.0-2.0-0.34-0.314-3.314,1,0,1,68,false,stim,false,0,628.9149999993388,3,1,2,44194,WMM2,902410,false,false,1060,image-keyboard-response,15
true,10,1,2,0,false,q,false,false,0.0-2.0-0.35-0.315-3.315,1,0,1,90,false,stim,true,1,1808.0350000000326,3,0,1,44194,WMM2,905742,false,false,1063,image-keyboard-response,16
true,10,0,2,0,true,q,false,true,0.0-2.0-0.35-0.316-3.316,1,0,1,81,false,stim,false,0,1556.3599999987055,3,1,2,44194,WMM2,908820,false,false,1066,image-keyboard-response,17
true,10,2,2,0,false,q,true,false,0.0-2.0-0.35-0.317-3.317,1,0,1,68,false,stim,false,1,1490.4750000004424,3,0,1,44194,WMM2,911835,false,false,1069,image-keyboard-response,18
true,10,2,2,2,true,d,false,true,0.0-2.0-0.35-0.318-3.318,1,0,1,68,false,stim,false,2,2071.9050000007264,3,1,0,44194,WMM2,915431,false,false,1072,image-keyboard-response,19
true,10,2,2,2,true,d,false,true,0.0-2.0-0.35-0.319-3.319,1,0,1,68,false,stim,false,2,1052.7550000005867,3,1,0,44194,WMM2,918006,false,false,1075,image-keyboard-response,20
true,10,1,2,0,false,q,true,true,0.0-2.0-0.35-0.320-3.320,1,0,1,90,false,stim,false,0,1390.2250000010245,3,1,2,44194,WMM2,920925,false,true,1078,image-keyboard-response,21
true,10,1,2,0,false,q,false,false,0.0-2.0-0.35-0.321-3.321,1,0,1,90,false,stim,true,1,2024.6800000004005,3,0,1,44194,WMM2,924478,false,false,1081,image-keyboard-response,22
true,10,0,2,0,true,q,false,true,0.0-2.0-0.35-0.322-3.322,1,0,1,81,false,stim,false,0,1164.5850000004284,3,1,2,44194,WMM2,927171,false,false,1084,image-keyboard-response,23
true,10,2,2,2,true,d,false,true,0.0-2.0-0.35-0.323-3.323,1,0,1,68,false,stim,false,2,1631.7650000001304,3,1,0,44194,WMM2,930331,false,false,1087,image-keyboard-response,24
true,10,1,2,0,false,q,false,false,0.0-2.0-0.36-0.324-3.324,1,0,1,90,false,stim,true,1,1071.7399999994086,3,0,1,44194,WMM2,932935,false,false,1090,image-keyboard-response,25
true,10,0,2,0,true,q,false,true,0.0-2.0-0.36-0.325-3.325,1,0,1,81,false,stim,false,0,1219.5400000000373,3,1,2,44194,WMM2,935685,false,false,1093,image-keyboard-response,26
true,10,0,2,0,true,q,false,true,0.0-2.0-0.36-0.326-3.326,1,0,1,81,false,stim,false,0,1230.565000001574,3,1,2,44194,WMM2,938439,false,false,1096,image-keyboard-response,27
true,10,2,2,2,true,d,false,true,0.0-2.0-0.36-0.327-3.327,1,0,1,68,false,stim,false,2,1662.8799999998882,3,1,0,44194,WMM2,941626,false,false,1099,image-keyboard-response,28
true,10,0,2,0,true,q,false,true,0.0-2.0-0.36-0.328-3.328,1,0,1,81,false,stim,false,0,868.5400000013178,3,1,2,44194,WMM2,944044,false,false,1102,image-keyboard-response,29
true,10,1,2,0,false,q,false,true,0.0-2.0-0.36-0.329-3.329,1,0,1,90,false,stim,true,1,956.5899999997346,3,0,1,44194,WMM2,946530,false,true,1105,image-keyboard-response,30
true,10,0,2,2,false,d,true,false,0.0-2.0-0.36-0.330-3.330,1,0,1,81,false,stim,false,2,754.8950000000186,3,1,0,44194,WMM2,948813,false,false,1108,image-keyboard-response,31
true,10,0,2,2,false,d,true,true,0.0-2.0-0.36-0.331-3.331,1,0,1,81,false,stim,false,2,1254.315000000177,3,1,0,44194,WMM2,951603,false,true,1111,image-keyboard-response,32
true,10,1,2,0,false,q,false,false,0.0-2.0-0.36-0.332-3.332,1,0,1,90,false,stim,true,1,998.4449999992503,3,0,1,44194,WMM2,954132,false,false,1114,image-keyboard-response,33
true,10,1,2,0,false,q,true,false,0.0-2.0-0.37-0.333-3.333,1,0,1,90,false,stim,false,0,1194.8549999997485,3,1,2,44194,WMM2,956852,false,false,1117,image-keyboard-response,34
true,10,0,2,0,true,q,false,true,0.0-2.0-0.37-0.334-3.334,1,0,1,81,false,stim,false,0,806.0750000004191,3,1,2,44194,WMM2,959177,false,false,1120,image-keyboard-response,35
true,10,2,2,0,false,q,true,false,0.0-2.0-0.37-0.335-3.335,1,0,1,68,false,stim,false,1,836.2700000016484,3,0,1,44194,WMM2,961538,false,false,1123,image-keyboard-response,36
true,10,0,2,2,false,d,true,false,0.0-2.0-0.37-0.336-3.336,1,0,1,81,false,stim,false,2,747.2499999984866,3,1,0,44194,WMM2,963817,false,false,1126,image-keyboard-response,37
true,10,0,2,0,true,q,false,true,0.0-2.0-0.37-0.337-3.337,1,0,1,81,false,stim,false,0,1287.0000000002328,3,1,2,44194,WMM2,966629,false,false,1129,image-keyboard-response,38
true,10,0,2,2,false,d,true,false,0.0-2.0-0.37-0.338-3.338,1,0,1,81,false,stim,false,2,516.6599999992177,3,1,0,44194,WMM2,968686,false,false,1132,image-keyboard-response,39
true,10,1,2,0,false,q,false,false,0.0-2.0-0.37-0.339-3.339,1,0,1,90,false,stim,true,1,1365.309999999241,3,0,1,44194,WMM2,971576,false,false,1135,image-keyboard-response,40
true,10,0,2,0,true,q,false,true,0.0-2.0-0.37-0.340-3.340,1,0,1,81,false,stim,false,1,374.06999999983236,3,0,1,44194,WMM2,973477,false,false,1138,image-keyboard-response,41
true,10,0,2,2,false,d,true,false,0.0-2.0-0.37-0.341-3.341,1,0,1,81,false,stim,false,2,212.37999999895692,3,1,0,44194,WMM2,975221,false,false,1141,image-keyboard-response,42
true,10,0,2,2,false,d,true,false,0.0-2.0-0.38-0.342-3.342,1,0,1,81,false,stim,false,2,367.8349999990314,3,1,0,44194,WMM2,977120,false,false,1144,image-keyboard-response,43
true,10,2,2,2,true,d,false,true,0.0-2.0-0.38-0.343-3.343,1,0,1,68,false,stim,false,2,577.5949999988079,3,1,0,44194,WMM2,979225,false,false,1147,image-keyboard-response,44
true,10,0,2,0,true,q,false,true,0.0-2.0-0.38-0.344-3.344,1,0,1,81,false,stim,false,0,508.56500000006054,3,1,2,44194,WMM2,981260,false,false,1150,image-keyboard-response,45
true,10,0,2,0,true,q,false,false,0.0-2.0-0.38-0.345-3.345,1,0,1,81,false,stim,false,1,682.9049999996787,3,0,1,44194,WMM2,983470,false,true,1153,image-keyboard-response,46
true,10,0,2,0,true,q,false,true,0.0-2.0-0.38-0.346-3.346,1,0,1,81,false,stim,false,0,649.7600000002421,3,1,2,44194,WMM2,985655,false,false,1156,image-keyboard-response,47
true,10,2,2,2,true,d,false,true,0.0-2.0-0.38-0.347-3.347,1,0,1,68,false,stim,false,2,608.6400000003632,3,1,0,44194,WMM2,987803,false,false,1159,image-keyboard-response,48
true,10,0,2,0,true,q,false,true,0.0-2.0-0.38-0.348-3.348,1,0,1,81,false,stim,false,1,730.3599999995204,3,1,1,44194,WMM2,990061,false,false,1162,image-keyboard-response,49
true,10,0,2,0,true,q,false,true,0.0-2.0-0.38-0.349-3.349,1,0,1,81,false,stim,false,0,714.2800000001444,3,1,2,44194,WMM2,992294,false,false,1165,image-keyboard-response,50
true,10,0,2,0,true,q,false,true,0.0-2.0-0.38-0.350-3.350,1,0,1,81,false,stim,false,1,788.7350000001024,3,1,1,44194,WMM2,994603,false,false,1168,image-keyboard-response,51
true,10,0,2,0,true,q,false,true,0.0-2.0-0.39-0.351-3.351,1,0,1,81,false,stim,false,1,328.71499999961816,3,1,1,44194,WMM2,996460,false,false,1171,image-keyboard-response,52
true,10,2,2,2,true,d,false,true,0.0-2.0-0.39-0.352-3.352,1,0,1,68,false,stim,false,2,563.7200000000885,3,0,0,44194,WMM2,998546,false,false,1174,image-keyboard-response,53
true,10,0,2,0,true,q,false,true,0.0-2.0-0.39-0.353-3.353,1,0,1,81,false,stim,false,1,330.0300000010757,3,1,1,44194,WMM2,1000395,false,false,1177,image-keyboard-response,54
true,10,0,2,0,true,q,false,true,0.0-2.0-0.39-0.354-3.354,1,0,1,81,false,stim,false,0,411.0,3,1,2,44194,WMM2,1002327,false,false,1180,image-keyboard-response,55
true,10,2,2,2,true,d,false,false,0.0-2.0-0.39-0.355-3.355,1,0,1,68,false,stim,false,2,387.66499999840744,3,0,0,44194,WMM2,1004245,false,true,1183,image-keyboard-response,56
true,10,0,2,0,true,q,false,true,0.0-2.0-0.39-0.356-3.356,1,0,1,81,false,stim,false,0,815.3149999998277,3,1,2,44194,WMM2,1006587,false,false,1186,image-keyboard-response,57
true,10,2,2,2,true,d,false,true,0.0-2.0-0.39-0.357-3.357,1,0,1,68,false,stim,false,2,575.9000000016531,3,0,0,44194,WMM2,1008697,false,false,1189,image-keyboard-response,58
true,11,0,3,0,true,q,false,true,0.0-2.0-0.39-0.358-3.358,0,1,1,81,true,stim,false,0,654.7350000001024,3,1,1,44194,WMM2,1010877,false,false,1192,image-keyboard-response,1
true,11,0,3,0,true,q,false,true,0.0-2.0-0.39-0.359-3.359,0,1,1,81,false,stim,false,0,1255.2950000008568,3,1,2,44194,WMM2,1013660,false,false,1195,image-keyboard-response,2
true,11,0,3,0,true,q,false,true,0.0-2.0-0.40-0.360-3.360,0,1,1,81,false,stim,false,0,387.21000000077765,3,1,2,44194,WMM2,1015558,false,false,1198,image-keyboard-response,3
true,11,0,3,0,true,q,false,true,0.0-2.0-0.40-0.361-3.361,0,1,1,81,false,stim,false,0,636.4299999986542,3,1,1,44194,WMM2,1017738,false,false,1201,image-keyboard-response,4
true,11,0,3,0,true,q,false,true,0.0-2.0-0.40-0.362-3.362,0,1,1,81,false,stim,false,0,475.78500000049826,3,1,1,44194,WMM2,1019726,false,false,1204,image-keyboard-response,5
true,11,0,3,0,true,q,false,false,0.0-2.0-0.40-0.363-3.363,0,1,1,81,false,stim,false,0,328.9199999999255,3,1,2,44194,WMM2,1021571,false,true,1207,image-keyboard-response,6
true,11,2,3,1,false,z,false,false,0.0-2.0-0.40-0.364-3.364,0,1,1,68,false,stim,true,2,446.6949999986682,3,0,0,44194,WMM2,1023541,false,false,1210,image-keyboard-response,7
true,11,0,3,0,true,q,false,true,0.0-2.0-0.40-0.365-3.365,0,1,1,81,false,stim,false,0,382.57999999949243,3,1,2,44194,WMM2,1025444,false,false,1213,image-keyboard-response,8
true,11,2,3,1,false,z,false,false,0.0-2.0-0.40-0.366-3.366,0,1,1,68,false,stim,true,2,422.5399999995716,3,0,0,44194,WMM2,1027388,false,false,1216,image-keyboard-response,9
true,11,2,3,1,false,z,false,false,0.0-2.0-0.40-0.367-3.367,0,1,1,68,false,stim,true,2,439.4249999986496,3,0,0,44194,WMM2,1029349,false,false,1219,image-keyboard-response,10
true,11,0,3,0,true,q,false,true,0.0-2.0-0.40-0.368-3.368,0,1,1,81,false,stim,false,0,396.9300000007497,3,1,1,44194,WMM2,1031269,false,false,1222,image-keyboard-response,11
true,11,0,3,0,true,q,false,true,0.0-2.0-0.41-0.369-3.369,0,1,1,81,false,stim,false,0,622.8750000009313,3,1,1,44194,WMM2,1033412,false,false,1225,image-keyboard-response,12
true,11,0,3,0,true,q,false,false,0.0-2.0-0.41-0.370-3.370,0,1,1,81,false,stim,false,0,52.02999999886379,3,1,2,44194,WMM2,1034979,false,true,1228,image-keyboard-response,13
true,11,0,3,1,false,z,true,false,0.0-2.0-0.41-0.371-3.371,0,1,1,81,false,stim,false,2,7.600000000791624,3,0,0,44194,WMM2,1036510,false,false,1231,image-keyboard-response,14
true,11,0,3,0,true,q,false,true,0.0-2.0-0.41-0.372-3.372,0,1,1,81,false,stim,false,0,528.1999999987893,3,1,2,44194,WMM2,1038563,false,false,1234,image-keyboard-response,15
true,11,1,3,1,true,z,false,true,0.0-2.0-0.41-0.373-3.373,0,1,1,90,false,stim,false,2,628.4000000013039,3,0,0,44194,WMM2,1040709,false,false,1237,image-keyboard-response,16
true,11,0,3,0,true,q,false,true,0.0-2.0-0.41-0.374-3.374,0,1,1,81,false,stim,false,0,803.6649999995716,3,1,2,44194,WMM2,1043038,false,false,1240,image-keyboard-response,17
true,11,0,3,1,false,z,true,false,0.0-2.0-0.41-0.375-3.375,0,1,1,81,false,stim,false,2,566.8599999989383,3,0,0,44194,WMM2,1045122,false,false,1243,image-keyboard-response,18
true,11,0,3,0,true,q,false,true,0.0-2.0-0.41-0.376-3.376,0,1,1,81,false,stim,false,0,465.15500000002794,3,1,1,44194,WMM2,1047115,false,false,1246,image-keyboard-response,19
true,11,0,3,0,true,q,false,false,0.0-2.0-0.41-0.377-3.377,0,1,1,81,false,stim,false,0,1127.3399999991525,3,1,1,44194,WMM2,1049769,false,true,1249,image-keyboard-response,20
true,11,0,3,0,true,q,false,false,0.0-2.0-0.42-0.378-3.378,0,1,1,81,false,stim,false,0,1423.9650000000838,3,1,2,44194,WMM2,1052727,false,true,1252,image-keyboard-response,21
true,11,0,3,0,true,q,false,true,0.0-2.0-0.42-0.379-3.379,0,1,1,81,false,stim,false,0,700.3200000000652,3,1,2,44194,WMM2,1054952,false,false,1255,image-keyboard-response,22
true,11,1,3,1,true,z,false,true,0.0-2.0-0.42-0.380-3.380,0,1,1,90,false,stim,false,2,623.220000001369,3,0,0,44194,WMM2,1057107,false,false,1258,image-keyboard-response,23
true,11,1,3,1,true,z,false,true,0.0-2.0-0.42-0.381-3.381,0,1,1,90,false,stim,false,2,522.9199999994598,3,0,0,44194,WMM2,1059174,false,false,1261,image-keyboard-response,24
true,11,0,3,0,true,q,false,true,0.0-2.0-0.42-0.382-3.382,0,1,1,81,false,stim,false,0,1404.5850000001956,3,0,1,44194,WMM2,1062133,false,false,1264,image-keyboard-response,25
true,11,1,3,1,true,z,false,true,0.0-2.0-0.42-0.383-3.383,0,1,1,90,false,stim,false,2,586.0400000002701,3,1,0,44194,WMM2,1064245,false,false,1267,image-keyboard-response,26
true,11,0,3,0,true,q,false,false,0.0-2.0-0.42-0.384-3.384,0,1,1,81,false,stim,false,0,719.5950000004377,3,1,2,44194,WMM2,1066492,false,true,1270,image-keyboard-response,27
true,11,0,3,0,true,q,false,true,0.0-2.0-0.42-0.385-3.385,0,1,1,81,false,stim,false,0,1960.4650000000838,3,0,1,44194,WMM2,1069983,false,false,1273,image-keyboard-response,28
true,11,0,3,0,true,q,false,true,0.0-2.0-0.42-0.386-3.386,0,1,1,81,false,stim,false,0,612.0050000008196,3,0,1,44194,WMM2,1072121,false,false,1276,image-keyboard-response,29
true,11,0,3,0,true,q,false,true,0.0-2.0-0.43-0.387-3.387,0,1,1,81,false,stim,false,0,538.9299999987707,3,0,1,44194,WMM2,1074191,false,false,1279,image-keyboard-response,30
true,11,1,3,1,true,z,false,true,0.0-2.0-0.43-0.388-3.388,0,1,1,90,false,stim,false,2,464.12500000046566,3,1,0,44194,WMM2,1076184,false,false,1282,image-keyboard-response,31
true,11,1,3,1,true,z,false,false,0.0-2.0-0.43-0.389-3.389,0,1,1,90,false,stim,false,2,445.34000000031665,3,1,0,44194,WMM2,1078157,false,true,1285,image-keyboard-response,32
true,11,0,3,0,true,q,false,true,0.0-2.0-0.43-0.390-3.390,0,1,1,81,false,stim,false,0,1337.5049999994226,3,1,2,44194,WMM2,1081019,false,false,1288,image-keyboard-response,33
true,11,0,3,0,true,q,false,false,0.0-2.0-0.43-0.391-3.391,0,1,1,81,false,stim,false,0,578.7849999996834,3,0,1,44194,WMM2,1083127,false,true,1291,image-keyboard-response,34
true,12,0,3,2,false,d,false,false,0.0-2.0-0.43-0.392-3.392,1,0,1,81,true,stim,true,0,319.3799999989569,3,0,1,44194,WMM2,1084968,false,false,1294,image-keyboard-response,1
true,12,1,3,0,false,q,true,false,0.0-2.0-0.43-0.393-3.393,1,0,1,90,false,stim,false,0,772.1000000000931,3,1,2,44194,WMM2,1087269,false,false,1297,image-keyboard-response,2
true,12,0,3,1,false,z,true,false,0.0-2.0-0.43-0.394-3.394,1,0,1,81,false,stim,false,1,612.7900000009686,3,1,0,44194,WMM2,1089413,false,false,1300,image-keyboard-response,3
true,12,0,3,0,true,q,false,true,0.0-2.0-0.43-0.395-3.395,1,0,1,81,false,stim,false,0,1604.5150000008289,3,1,2,44194,WMM2,1092588,false,false,1303,image-keyboard-response,4
true,12,0,3,2,false,d,false,false,0.0-2.0-0.44-0.396-3.396,1,0,1,81,false,stim,true,0,711.3150000004098,3,0,1,44194,WMM2,1094839,false,false,1306,image-keyboard-response,5
true,12,0,3,0,true,q,false,true,0.0-2.0-0.44-0.397-3.397,1,0,1,81,false,stim,false,0,948.5149999998976,3,1,2,44194,WMM2,1097310,false,false,1309,image-keyboard-response,6
true,12,1,3,1,true,z,false,false,0.0-2.0-0.44-0.398-3.398,1,0,1,90,false,stim,false,1,772.8449999995064,3,1,0,44194,WMM2,1099617,false,true,1312,image-keyboard-response,7
true,12,0,3,1,false,z,true,false,0.0-2.0-0.44-0.399-3.399,1,0,1,81,false,stim,false,1,806.7800000009593,3,1,0,44194,WMM2,1101946,false,false,1315,image-keyboard-response,8
true,12,0,3,2,false,d,false,false,0.0-2.0-0.44-0.400-3.400,1,0,1,81,false,stim,true,0,1178.3850000011735,3,0,1,44194,WMM2,1104649,false,false,1318,image-keyboard-response,9
true,12,0,3,1,false,z,true,false,0.0-2.0-0.44-0.401-3.401,1,0,1,81,false,stim,false,1,795.409999998752,3,1,0,44194,WMM2,1106969,false,false,1321,image-keyboard-response,10
true,12,1,3,0,false,q,true,false,0.0-2.0-0.44-0.402-3.402,1,0,1,90,false,stim,false,0,612.3799999987241,3,1,2,44194,WMM2,1109108,false,false,1324,image-keyboard-response,11
true,12,1,3,0,false,q,true,true,0.0-2.0-0.44-0.403-3.403,1,0,1,90,false,stim,false,0,417.0850000011269,3,1,2,44194,WMM2,1111049,false,true,1327,image-keyboard-response,12
true,12,1,3,2,false,d,true,false,0.0-2.0-0.44-0.404-3.404,1,0,1,90,false,stim,false,0,523.3250000001863,3,0,1,44194,WMM2,1113099,false,false,1330,image-keyboard-response,13
true,12,0,3,2,false,d,false,false,0.0-2.0-0.45-0.405-3.405,1,0,1,81,false,stim,true,0,387.625000001397,3,0,1,44194,WMM2,1115019,false,false,1333,image-keyboard-response,14
true,12,2,3,2,true,d,false,true,0.0-2.0-0.45-0.406-3.406,1,0,1,68,false,stim,false,0,502.5999999998603,3,0,1,44194,WMM2,1117056,false,false,1336,image-keyboard-response,15
true,12,2,3,1,false,z,true,true,0.0-2.0-0.45-0.407-3.407,1,0,1,68,false,stim,false,1,939.4100000008475,3,1,0,44194,WMM2,1119520,false,true,1339,image-keyboard-response,16
true,12,1,3,0,false,q,true,false,0.0-2.0-0.45-0.408-3.408,1,0,1,90,false,stim,false,0,511.0599999988917,3,1,2,44194,WMM2,1121552,false,false,1342,image-keyboard-response,17
true,12,2,3,1,false,z,true,true,0.0-2.0-0.45-0.409-3.409,1,0,1,68,false,stim,false,1,471.16000000108033,3,1,0,44194,WMM2,1123549,false,true,1345,image-keyboard-response,18
true,12,1,3,0,false,q,true,true,0.0-2.0-0.45-0.410-3.410,1,0,1,90,false,stim,false,0,489.2400000006892,3,1,2,44194,WMM2,1125562,false,true,1348,image-keyboard-response,19
true,12,1,3,0,false,q,true,false,0.0-2.0-0.45-0.411-3.411,1,0,1,90,false,stim,false,0,396.7400000002235,3,1,2,44194,WMM2,1127490,false,false,1351,image-keyboard-response,20
true,12,2,3,1,false,z,true,false,0.0-2.0-0.45-0.412-3.412,1,0,1,68,false,stim,false,1,558.5449999999255,3,1,0,44194,WMM2,1129584,false,false,1354,image-keyboard-response,21
true,12,2,3,2,true,d,false,true,0.0-2.0-0.45-0.413-3.413,1,0,1,68,false,stim,false,0,408.0200000007171,3,0,1,44194,WMM2,1131531,false,false,1357,image-keyboard-response,22
true,12,2,3,2,true,d,false,true,0.0-2.0-0.46-0.414-3.414,1,0,1,68,false,stim,false,0,477.1099999998696,3,0,1,44194,WMM2,1133543,false,false,1360,image-keyboard-response,23
true,12,2,3,1,false,z,true,false,0.0-2.0-0.46-0.415-3.415,1,0,1,68,false,stim,false,1,400.1399999996647,3,1,0,44194,WMM2,1135481,false,false,1363,image-keyboard-response,24
true,12,2,3,1,false,z,true,false,0.0-2.0-0.46-0.416-3.416,1,0,1,68,false,stim,false,1,452.59999999869615,3,1,0,44194,WMM2,1137464,false,false,1366,image-keyboard-response,25
true,12,1,3,0,false,q,true,false,0.0-2.0-0.46-0.417-3.417,1,0,1,90,false,stim,false,0,1009.7249999998603,3,1,2,44194,WMM2,1140003,false,false,1369,image-keyboard-response,26
true,12,1,3,0,false,q,true,true,0.0-2.0-0.46-0.418-3.418,1,0,1,90,false,stim,false,0,352.1099999998696,3,1,2,44194,WMM2,1141891,false,true,1372,image-keyboard-response,27
true,12,1,3,0,false,q,true,false,0.0-2.0-0.46-0.419-3.419,1,0,1,90,false,stim,false,0,364.9050000004936,3,1,2,44194,WMM2,1143790,false,false,1375,image-keyboard-response,28
true,12,2,3,1,false,z,true,false,0.0-2.0-0.46-0.420-3.420,1,0,1,68,false,stim,false,1,511.9249999988824,3,1,0,44194,WMM2,1145838,false,false,1378,image-keyboard-response,29
true,12,2,3,2,true,d,false,true,0.0-2.0-0.46-0.421-3.421,1,0,1,68,false,stim,false,0,617.065000000177,3,0,1,44194,WMM2,1148006,false,false,1381,image-keyboard-response,30
true,12,2,3,2,true,d,false,true,0.0-2.0-0.46-0.422-3.422,1,0,1,68,false,stim,false,0,753.2449999998789,3,0,1,44194,WMM2,1150285,false,false,1384,image-keyboard-response,31
true,12,1,3,0,false,q,true,false,0.0-2.0-0.47-0.423-3.423,1,0,1,90,false,stim,false,0,684.7849999994505,3,1,2,44194,WMM2,1152504,false,false,1387,image-keyboard-response,32
true,12,2,3,2,true,d,false,true,0.0-2.0-0.47-0.424-3.424,1,0,1,68,false,stim,false,0,614.3900000008289,3,0,1,44194,WMM2,1154653,false,false,1390,image-keyboard-response,33
true,12,2,3,0,false,q,true,false,0.0-2.0-0.47-0.425-3.425,1,0,1,68,false,stim,false,0,389.820000000298,3,1,2,44194,WMM2,1156585,false,false,1393,image-keyboard-response,34
true,12,2,3,2,true,d,false,true,0.0-2.0-0.47-0.426-3.426,1,0,1,68,false,stim,false,0,779.634999999078,3,0,1,44194,WMM2,1158896,false,false,1396,image-keyboard-response,35
true,12,0,3,1,false,z,true,false,0.0-2.0-0.47-0.427-3.427,1,0,1,81,false,stim,false,1,674.0850000006612,3,1,0,44194,WMM2,1161094,false,false,1399,image-keyboard-response,36
true,12,1,3,1,true,z,false,true,0.0-2.0-0.47-0.428-3.428,1,0,1,90,false,stim,false,1,808.9849999998696,3,1,0,44194,WMM2,1163473,false,false,1402,image-keyboard-response,37
true,12,2,3,0,false,q,true,false,0.0-2.0-0.47-0.429-3.429,1,0,1,68,false,stim,false,0,1358.3849999995437,3,1,2,44194,WMM2,1166381,false,false,1405,image-keyboard-response,38
true,12,1,3,2,false,d,true,false,0.0-2.0-0.47-0.430-3.430,1,0,1,90,false,stim,false,0,1437.5600000002887,3,0,1,44194,WMM2,1169363,false,false,1408,image-keyboard-response,39
true,12,0,3,1,false,z,true,false,0.0-2.0-0.47-0.431-3.431,1,0,1,81,false,stim,false,1,1172.4999999988358,3,1,0,44194,WMM2,1172064,false,false,1411,image-keyboard-response,40
true,12,1,3,2,false,d,true,false,0.0-2.0-0.48-0.432-3.432,1,0,1,90,false,stim,false,0,1105.7849999996834,3,0,1,44194,WMM2,1174701,false,false,1414,image-keyboard-response,41
true,12,2,3,1,false,z,true,false,0.0-2.0-0.48-0.433-3.433,1,0,1,68,false,stim,false,1,1054.219999999972,3,1,0,44194,WMM2,1177287,false,false,1417,image-keyboard-response,42
true,12,2,3,0,false,q,true,true,0.0-2.0-0.48-0.434-3.434,1,0,1,68,false,stim,false,0,1382.2899999995716,3,1,2,44194,WMM2,1180202,false,true,1420,image-keyboard-response,43
true,12,0,3,1,false,z,true,true,0.0-2.0-0.48-0.435-3.435,1,0,1,81,false,stim,false,1,1106.1599999994505,3,1,0,44194,WMM2,1182841,false,true,1423,image-keyboard-response,44
true,12,1,3,2,false,d,true,false,0.0-2.0-0.48-0.436-3.436,1,0,1,90,false,stim,false,0,734.2499999995343,3,0,1,44194,WMM2,1185113,false,false,1426,image-keyboard-response,45
true,12,2,3,0,false,q,true,false,0.0-2.0-0.48-0.437-3.437,1,0,1,68,false,stim,false,0,686.7499999988358,3,1,2,44194,WMM2,1187329,false,false,1429,image-keyboard-response,46
true,12,2,3,2,true,d,false,false,0.0-2.0-0.48-0.438-3.438,1,0,1,68,false,stim,false,0,688.259999999078,3,0,1,44194,WMM2,1189552,false,true,1432,image-keyboard-response,47
true,12,2,3,0,false,q,true,false,0.0-2.0-0.48-0.439-3.439,1,0,1,68,false,stim,false,0,889.4500000006519,3,1,2,44194,WMM2,1191982,false,false,1435,image-keyboard-response,48
true,12,0,3,1,false,z,true,false,0.0-2.0-0.48-0.440-3.440,1,0,1,81,false,stim,false,1,478.2900000009686,3,1,0,44194,WMM2,1193991,false,false,1438,image-keyboard-response,49
true,12,0,3,2,false,d,false,false,0.0-2.0-0.49-0.441-3.441,1,0,1,81,false,stim,true,0,429.01999999955297,3,0,1,44194,WMM2,1195955,false,false,1441,image-keyboard-response,50
true,12,1,3,1,true,z,false,true,0.0-2.0-0.49-0.442-3.442,1,0,1,90,false,stim,false,1,609.8300000012387,3,1,0,44194,WMM2,1198099,false,false,1444,image-keyboard-response,51
true,12,1,3,1,true,z,false,true,0.0-2.0-0.49-0.443-3.443,1,0,1,90,false,stim,false,1,813.4150000005029,3,1,0,44194,WMM2,1200432,false,false,1447,image-keyboard-response,52
true,12,2,3,0,false,q,true,false,0.0-2.0-0.49-0.444-3.444,1,0,1,68,false,stim,false,0,797.7950000003912,3,1,2,44194,WMM2,1202757,false,false,1450,image-keyboard-response,53
true,12,0,3,2,false,d,false,false,0.0-2.0-0.49-0.445-3.445,1,0,1,81,false,stim,true,0,709.2050000010058,3,0,1,44194,WMM2,1205005,false,false,1453,image-keyboard-response,54
true,12,2,3,2,true,d,false,true,0.0-2.0-0.49-0.446-3.446,1,0,1,68,false,stim,false,0,1246.9200000013225,3,0,1,44194,WMM2,1207776,false,false,1456,image-keyboard-response,55
true,12,2,3,0,false,q,true,true,0.0-2.0-0.49-0.447-3.447,1,0,1,68,false,stim,false,0,991.5749999983236,3,1,2,44194,WMM2,1210288,false,true,1459,image-keyboard-response,56
true,12,1,3,1,true,z,false,true,0.0-2.0-0.49-0.448-3.448,1,0,1,90,false,stim,false,1,675.9999999995343,3,1,0,44194,WMM2,1212486,false,false,1462,image-keyboard-response,57
true,12,2,3,0,false,q,true,false,0.0-2.0-0.49-0.449-3.449,1,0,1,68,false,stim,false,0,1146.6150000013877,3,1,2,44194,WMM2,1215156,false,false,1465,image-keyboard-response,58
true,12,2,3,0,false,q,true,false,0.0-2.0-0.50-0.450-3.450,1,0,1,68,false,stim,false,0,428.6549999995623,3,1,2,44194,WMM2,1217116,false,false,1468,image-keyboard-response,59
true,12,1,3,1,true,z,false,true,0.0-2.0-0.50-0.451-3.451,1,0,1,90,false,stim,false,1,573.8649999985937,3,1,0,44194,WMM2,1219222,false,false,1471,image-keyboard-response,60
true,13,2,4,0,false,q,true,false,0.0-2.0-0.50-0.452-3.452,1,0,1,68,true,stim,false,0,669.7549999989569,3,1,2,44194,WMM2,1221421,false,false,1474,image-keyboard-response,1
true,13,2,4,0,false,q,true,false,0.0-2.0-0.50-0.453-3.453,1,0,1,68,false,stim,false,0,562.6849999988917,3,1,2,44194,WMM2,1223512,false,false,1477,image-keyboard-response,2
true,13,1,4,1,true,z,false,true,0.0-2.0-0.50-0.454-3.454,1,0,1,90,false,stim,false,1,759.0049999998882,3,1,0,44194,WMM2,1225801,false,false,1480,image-keyboard-response,3
true,13,2,4,2,true,d,false,true,0.0-2.0-0.50-0.455-3.455,1,0,1,68,false,stim,false,2,410.31499999924563,3,0,1,44194,WMM2,1227737,false,false,1483,image-keyboard-response,4
true,13,1,4,1,true,z,false,true,0.0-2.0-0.50-0.456-3.456,1,0,1,90,false,stim,false,1,739.5850000011269,3,1,0,44194,WMM2,1230003,false,false,1486,image-keyboard-response,5
true,13,2,4,2,true,d,false,true,0.0-2.0-0.50-0.457-3.457,1,0,1,68,false,stim,false,2,860.9749999996275,3,0,1,44194,WMM2,1232386,false,false,1489,image-keyboard-response,6
true,13,2,4,2,true,d,false,true,0.0-2.0-0.50-0.458-3.458,1,0,1,68,false,stim,false,2,599.809999999823,3,0,1,44194,WMM2,1234497,false,false,1492,image-keyboard-response,7
true,13,1,4,1,true,z,false,true,0.0-2.0-0.51-0.459-3.459,1,0,1,90,false,stim,false,1,661.6650000014342,3,1,0,44194,WMM2,1236688,false,false,1495,image-keyboard-response,8
true,13,2,4,2,true,d,false,true,0.0-2.0-0.51-0.460-3.460,1,0,1,68,false,stim,false,2,1038.6500000003725,3,0,1,44194,WMM2,1239251,false,false,1498,image-keyboard-response,9
true,13,1,4,1,true,z,false,false,0.0-2.0-0.51-0.461-3.461,1,0,1,90,false,stim,false,1,373.7449999989476,3,1,0,44194,WMM2,1241175,false,true,1501,image-keyboard-response,10
true,13,2,4,0,false,q,true,false,0.0-2.0-0.51-0.462-3.462,1,0,1,68,false,stim,false,0,628.9400000004098,3,1,2,44194,WMM2,1243332,false,false,1504,image-keyboard-response,11
true,13,2,4,2,true,d,false,true,0.0-2.0-0.51-0.463-3.463,1,0,1,68,false,stim,false,2,1414.255000001518,3,0,1,44194,WMM2,1246273,false,false,1507,image-keyboard-response,12
true,13,2,4,0,false,q,true,false,0.0-2.0-0.51-0.464-3.464,1,0,1,68,false,stim,false,0,522.2699999993201,3,1,2,44194,WMM2,1248328,false,false,1510,image-keyboard-response,13
true,13,2,4,2,true,d,false,true,0.0-2.0-0.51-0.465-3.465,1,0,1,68,false,stim,false,2,653.3000000000466,3,0,1,44194,WMM2,1250506,false,false,1513,image-keyboard-response,14
true,13,2,4,0,false,q,true,false,0.0-2.0-0.51-0.466-3.466,1,0,1,68,false,stim,false,0,515.2649999998976,3,1,2,44194,WMM2,1252545,false,false,1516,image-keyboard-response,15
true,13,1,4,1,true,z,false,false,0.0-2.0-0.51-0.467-3.467,1,0,1,90,false,stim,false,1,765.6950000000652,3,1,0,44194,WMM2,1254838,false,true,1519,image-keyboard-response,16
true,13,1,4,0,false,q,true,false,0.0-2.0-0.52-0.468-3.468,1,0,1,90,false,stim,false,0,682.9650000000838,3,1,2,44194,WMM2,1257053,false,false,1522,image-keyboard-response,17
true,13,0,4,0,true,q,false,true,0.0-2.0-0.52-0.469-3.469,1,0,1,81,false,stim,false,0,574.9599999999627,3,1,2,44194,WMM2,1259156,false,false,1525,image-keyboard-response,18
true,13,2,4,2,true,d,false,true,0.0-2.0-0.52-0.470-3.470,1,0,1,68,false,stim,false,2,805.8049999999348,3,0,1,44194,WMM2,1261486,false,false,1528,image-keyboard-response,19
true,13,1,4,1,true,z,false,true,0.0-2.0-0.52-0.471-3.471,1,0,1,90,false,stim,false,1,1067.1149999997579,3,1,0,44194,WMM2,1264078,false,false,1531,image-keyboard-response,20
true,13,2,4,2,true,d,false,true,0.0-2.0-0.52-0.472-3.472,1,0,1,68,false,stim,false,2,1243.3400000007823,3,0,1,44194,WMM2,1266861,false,false,1534,image-keyboard-response,21
true,13,1,4,1,true,z,false,false,0.0-2.0-0.52-0.473-3.473,1,0,1,90,false,stim,false,1,793.1600000010803,3,1,0,44194,WMM2,1269204,false,true,1537,image-keyboard-response,22
true,13,1,4,1,true,z,false,true,0.0-2.0-0.52-0.474-3.474,1,0,1,90,false,stim,false,1,712.170000000624,3,1,0,44194,WMM2,1271458,false,false,1540,image-keyboard-response,23
true,13,2,4,2,true,d,false,true,0.0-2.0-0.52-0.475-3.475,1,0,1,68,false,stim,false,2,778.3600000003353,3,0,1,44194,WMM2,1273773,false,false,1543,image-keyboard-response,24
true,13,0,4,0,true,q,false,true,0.0-2.0-0.52-0.476-3.476,1,0,1,81,false,stim,false,0,544.9850000005681,3,1,2,44194,WMM2,1275839,false,false,1546,image-keyboard-response,25
true,13,1,4,1,true,z,false,true,0.0-2.0-0.53-0.477-3.477,1,0,1,90,false,stim,false,1,1022.845000001369,3,0,0,44194,WMM2,1278395,false,false,1549,image-keyboard-response,26
true,13,2,4,0,false,q,true,false,0.0-2.0-0.53-0.478-3.478,1,0,1,68,false,stim,false,0,1309.6200000001118,3,1,2,44194,WMM2,1281232,false,false,1552,image-keyboard-response,27
true,13,1,4,1,true,z,false,true,0.0-2.0-0.53-0.479-3.479,1,0,1,90,false,stim,false,1,1621.2099999992643,3,0,0,44194,WMM2,1284377,false,false,1555,image-keyboard-response,28
true,13,1,4,1,true,z,false,true,0.0-2.0-0.53-0.480-3.480,1,0,1,90,false,stim,false,1,836.4500000006519,3,0,0,44194,WMM2,1286737,false,false,1558,image-keyboard-response,29
true,13,2,4,2,true,d,false,true,0.0-2.0-0.53-0.481-3.481,1,0,1,68,false,stim,false,2,573.0849999999627,3,1,1,44194,WMM2,1288836,false,false,1561,image-keyboard-response,30
true,13,0,4,0,true,q,false,true,0.0-2.0-0.53-0.482-3.482,1,0,1,81,false,stim,false,0,1179.369999999879,3,1,2,44194,WMM2,1291549,false,false,1564,image-keyboard-response,31
true,13,2,4,2,true,d,false,true,0.0-2.0-0.53-0.483-3.483,1,0,1,68,false,stim,false,2,1433.8250000001863,3,1,1,44194,WMM2,1294507,false,false,1567,image-keyboard-response,32
true,13,2,4,2,true,d,false,true,0.0-2.0-0.53-0.484-3.484,1,0,1,68,false,stim,false,2,470.38499999884516,3,1,1,44194,WMM2,1296501,false,false,1570,image-keyboard-response,33
true,13,0,4,0,true,q,false,true,0.0-2.0-0.53-0.485-3.485,1,0,1,81,false,stim,false,0,1698.790000000503,3,1,2,44194,WMM2,1299727,false,false,1573,image-keyboard-response,34
true,13,1,4,2,false,d,true,true,0.0-2.0-0.54-0.486-3.486,1,0,1,90,false,stim,false,2,1309.4600000004284,3,1,1,44194,WMM2,1302560,false,true,1576,image-keyboard-response,35
true,14,0,0,1,false,z,true,false,0.0-2.0-0.54-0.487-3.487,0,1,1,81,true,stim,false,1,1125.1400000001304,3,0,0,44194,WMM2,1425946,false,false,1699,image-keyboard-response,1
true,14,1,0,0,false,q,true,false,0.0-2.0-0.54-0.488-3.488,0,1,1,90,false,stim,false,0,650.475000000326,3,1,2,44194,WMM2,1428153,false,false,1702,image-keyboard-response,2
true,14,1,0,2,false,d,true,false,0.0-2.0-0.54-0.489-3.489,0,1,1,90,false,stim,false,2,707.7799999988638,3,1,1,44194,WMM2,1430394,false,false,1705,image-keyboard-response,3
true,14,1,0,0,false,q,true,false,0.0-2.0-0.54-0.490-3.490,0,1,1,90,false,stim,false,0,627.8450000009034,3,1,2,44194,WMM2,1432546,false,false,1708,image-keyboard-response,4
true,14,2,0,2,true,d,false,false,0.0-2.0-0.54-0.491-3.491,0,1,1,68,false,stim,false,2,545.6050000011455,3,1,1,44194,WMM2,1434618,false,true,1711,image-keyboard-response,5
true,14,2,0,1,false,z,true,false,0.0-2.0-0.54-0.492-3.492,0,1,1,68,false,stim,false,1,947.3300000010058,3,0,0,44194,WMM2,1437088,false,false,1714,image-keyboard-response,6
true,14,1,0,1,true,z,false,true,0.0-2.0-0.54-0.493-3.493,0,1,1,90,false,stim,false,1,443.17000000039116,3,0,0,44194,WMM2,1439056,false,false,1717,image-keyboard-response,7
true,14,0,0,0,true,q,false,true,0.0-2.0-0.54-0.494-3.494,0,1,1,81,false,stim,false,0,755.8699999989476,3,1,2,44194,WMM2,1441352,false,false,1720,image-keyboard-response,8
true,14,1,0,1,true,z,false,true,0.0-2.0-0.55-0.495-3.495,0,1,1,90,false,stim,false,1,1031.5100000007078,3,0,0,44194,WMM2,1443915,false,false,1723,image-keyboard-response,9
true,14,0,0,0,true,q,false,false,0.0-2.0-0.55-0.496-3.496,0,1,1,81,false,stim,false,0,708.5750000006519,3,1,2,44194,WMM2,1446145,false,true,1726,image-keyboard-response,10
true,14,0,0,2,false,d,true,false,0.0-2.0-0.55-0.497-3.497,0,1,1,81,false,stim,false,2,624.0849999992643,3,1,1,44194,WMM2,1448294,false,false,1729,image-keyboard-response,11
true,14,1,0,2,false,d,true,false,0.0-2.0-0.55-0.498-3.498,0,1,1,90,false,stim,false,2,1300.5999999986961,3,1,1,44194,WMM2,1451113,false,false,1732,image-keyboard-response,12
true,14,1,0,1,true,z,false,true,0.0-2.0-0.55-0.499-3.499,0,1,1,90,false,stim,false,1,1122.4449999991339,3,0,0,44194,WMM2,1453753,false,false,1735,image-keyboard-response,13
true,14,2,0,2,true,d,false,true,0.0-2.0-0.55-0.500-3.500,0,1,1,68,false,stim,false,2,661.3149999994785,3,1,1,44194,WMM2,1455944,false,false,1738,image-keyboard-response,14
true,14,0,0,0,true,q,false,true,0.0-2.0-0.55-0.501-3.501,0,1,1,81,false,stim,false,0,1113.6150000002235,3,1,2,44194,WMM2,1458586,false,false,1741,image-keyboard-response,15
true,14,1,0,1,true,z,false,true,0.0-2.0-0.55-0.502-3.502,0,1,1,90,false,stim,false,1,409.0049999996554,3,0,0,44194,WMM2,1460506,false,false,1744,image-keyboard-response,16
true,14,0,0,0,true,q,false,true,0.0-2.0-0.55-0.503-3.503,0,1,1,81,false,stim,false,0,887.3800000001211,3,1,2,44194,WMM2,1462919,false,false,1747,image-keyboard-response,17
true,14,2,0,2,true,d,false,true,0.0-2.0-0.56-0.504-3.504,0,1,1,68,false,stim,false,2,1592.4800000011455,3,1,1,44194,WMM2,1466045,false,false,1750,image-keyboard-response,18
true,14,2,0,2,true,d,false,true,0.0-2.0-0.56-0.505-3.505,0,1,1,68,false,stim,false,2,531.0000000009313,3,1,1,44194,WMM2,1468103,false,false,1753,image-keyboard-response,19
true,14,1,0,1,true,z,false,true,0.0-2.0-0.56-0.506-3.506,0,1,1,90,false,stim,false,1,1003.0750000004191,3,0,0,44194,WMM2,1470624,false,false,1756,image-keyboard-response,20
true,14,0,0,0,true,q,false,true,0.0-2.0-0.56-0.507-3.507,0,1,1,81,false,stim,false,0,1251.940000000177,3,0,2,44194,WMM2,1473411,false,false,1759,image-keyboard-response,21
true,14,1,0,1,true,z,false,true,0.0-2.0-0.56-0.508-3.508,0,1,1,90,false,stim,false,1,1599.2600000009406,3,1,0,44194,WMM2,1476534,false,false,1762,image-keyboard-response,22
true,14,2,0,2,true,d,false,true,0.0-2.0-0.56-0.509-3.509,0,1,1,68,false,stim,false,2,731.4949999998789,3,1,1,44194,WMM2,1478793,false,false,1765,image-keyboard-response,23
true,14,0,0,0,true,q,false,true,0.0-2.0-0.56-0.510-3.510,0,1,1,81,false,stim,false,0,765.0149999991991,3,0,2,44194,WMM2,1481090,false,false,1768,image-keyboard-response,24
true,14,1,0,1,true,z,false,false,0.0-2.0-0.56-0.511-3.511,0,1,1,90,false,stim,false,1,763.0000000009313,3,1,0,44194,WMM2,1483386,false,true,1771,image-keyboard-response,25
true,14,2,0,0,false,q,true,false,0.0-2.0-0.56-0.512-3.512,0,1,1,68,false,stim,false,0,1043.7750000001397,3,0,2,44194,WMM2,1485960,false,false,1774,image-keyboard-response,26
true,14,1,0,1,true,z,false,false,0.0-2.0-0.57-0.513-3.513,0,1,1,90,false,stim,false,1,906.5550000015646,3,1,0,44194,WMM2,1488404,false,true,1777,image-keyboard-response,27
true,14,1,0,1,true,z,false,true,0.0-2.0-0.57-0.514-3.514,0,1,1,90,false,stim,false,1,964.5400000009686,3,1,0,44194,WMM2,1490890,false,false,1780,image-keyboard-response,28
true,14,0,0,0,true,q,false,true,0.0-2.0-0.57-0.515-3.515,0,1,1,81,false,stim,false,0,891.2150000014808,3,0,2,44194,WMM2,1493317,false,false,1783,image-keyboard-response,29
true,14,2,0,2,true,d,false,true,0.0-2.0-0.57-0.516-3.516,0,1,1,68,false,stim,false,2,961.5500000000466,3,1,1,44194,WMM2,1495808,false,false,1786,image-keyboard-response,30
true,15,2,2,2,true,d,false,true,0.0-2.0-0.57-0.517-3.517,1,1,0,68,true,stim,false,2,726.0150000001304,3,1,1,44194,WMM2,1498060,false,false,1789,image-keyboard-response,1
true,15,0,2,2,false,d,false,false,0.0-2.0-0.57-0.518-3.518,1,1,0,81,false,stim,true,0,2006.3849999988452,3,0,2,44194,WMM2,1501594,false,false,1792,image-keyboard-response,2
true,15,1,2,1,true,z,false,true,0.0-2.0-0.57-0.519-3.519,1,1,0,90,false,stim,false,1,818.3349999999627,3,1,0,44194,WMM2,1503950,false,false,1795,image-keyboard-response,3
true,15,2,2,2,true,d,false,true,0.0-2.0-0.57-0.520-3.520,1,1,0,68,false,stim,false,0,1162.3349999990314,3,0,2,44194,WMM2,1506646,false,false,1798,image-keyboard-response,4
true,15,1,2,2,false,d,true,false,0.0-2.0-0.57-0.521-3.521,1,1,0,90,false,stim,false,2,1303.0150000012945,3,1,1,44194,WMM2,1509530,false,false,1801,image-keyboard-response,5
true,15,2,2,2,true,d,false,true,0.0-2.0-0.58-0.522-3.522,1,1,0,68,false,stim,false,2,580.8799999994226,3,1,1,44194,WMM2,1511642,false,false,1804,image-keyboard-response,6
true,15,1,2,1,true,z,false,true,0.0-2.0-0.58-0.523-3.523,1,1,0,90,false,stim,false,1,873.8450000002049,3,1,0,44194,WMM2,1514043,false,false,1807,image-keyboard-response,7
true,15,0,2,2,false,d,false,false,0.0-2.0-0.58-0.524-3.524,1,1,0,81,false,stim,true,0,977.4099999994505,3,0,2,44194,WMM2,1516550,false,false,1810,image-keyboard-response,8
true,15,2,2,1,false,z,true,false,0.0-2.0-0.58-0.525-3.525,1,1,0,68,false,stim,false,1,1322.0099999997765,3,1,0,44194,WMM2,1519402,false,false,1813,image-keyboard-response,9
true,15,0,2,2,false,d,true,false,0.0-2.0-0.58-0.526-3.526,1,1,0,81,false,stim,false,2,1583.9550000000745,3,1,1,44194,WMM2,1522508,false,false,1816,image-keyboard-response,10
true,15,2,2,2,true,d,false,true,0.0-2.0-0.58-0.527-3.527,1,1,0,68,false,stim,false,2,558.0850000004284,3,1,1,44194,WMM2,1524597,false,false,1819,image-keyboard-response,11
true,15,1,2,1,true,z,false,true,0.0-2.0-0.58-0.528-3.528,1,1,0,90,false,stim,false,1,711.3499999996275,3,1,0,44194,WMM2,1526835,false,false,1822,image-keyboard-response,12
true,15,0,2,2,false,d,false,false,0.0-2.0-0.58-0.529-3.529,1,1,0,81,false,stim,true,0,566.5200000002515,3,0,2,44194,WMM2,1528930,false,false,1825,image-keyboard-response,13
true,15,0,2,2,false,d,false,true,0.0-2.0-0.58-0.530-3.530,1,1,0,81,false,stim,true,0,499.30499999946915,3,0,2,44194,WMM2,1530957,false,true,1828,image-keyboard-response,14
true,15,1,2,1,true,z,false,true,0.0-2.0-0.59-0.531-3.531,1,1,0,90,false,stim,false,1,1376.6999999987893,3,1,0,44194,WMM2,1533861,false,false,1831,image-keyboard-response,15
true,15,0,2,2,false,d,false,false,0.0-2.0-0.59-0.532-3.532,1,1,0,81,false,stim,true,0,1304.8399999989197,3,0,2,44194,WMM2,1536691,false,false,1834,image-keyboard-response,16
true,15,0,2,2,false,d,false,false,0.0-2.0-0.59-0.533-3.533,1,1,0,81,false,stim,true,0,674.1949999995995,3,0,2,44194,WMM2,1538894,false,false,1837,image-keyboard-response,17
true,15,1,2,1,true,z,false,true,0.0-2.0-0.59-0.534-3.534,1,1,0,90,false,stim,false,1,632.6050000006799,3,1,0,44194,WMM2,1541053,false,false,1840,image-keyboard-response,18
true,15,1,2,1,true,z,false,true,0.0-2.0-0.59-0.535-3.535,1,1,0,90,false,stim,false,1,619.2150000005495,3,1,0,44194,WMM2,1543197,false,false,1843,image-keyboard-response,19
true,15,2,2,2,true,d,false,true,0.0-2.0-0.59-0.536-3.536,1,1,0,68,false,stim,false,2,1262.4350000005215,3,1,1,44194,WMM2,1545987,false,false,1846,image-keyboard-response,20
true,15,0,2,2,false,d,false,true,0.0-2.0-0.59-0.537-3.537,1,1,0,81,false,stim,true,0,421.1049999995157,3,0,2,44194,WMM2,1547964,false,true,1849,image-keyboard-response,21
true,15,2,2,2,true,d,false,true,0.0-2.0-0.59-0.538-3.538,1,1,0,68,false,stim,false,2,1035.0800000014715,3,1,1,44194,WMM2,1550545,false,false,1852,image-keyboard-response,22
true,15,2,2,2,true,d,false,false,0.0-2.0-0.59-0.539-3.539,1,1,0,68,false,stim,false,2,1112.6400000012945,3,1,1,44194,WMM2,1553198,false,true,1855,image-keyboard-response,23
true,15,1,2,1,true,z,false,true,0.0-2.0-0.60-0.540-3.540,1,1,0,90,false,stim,false,1,930.3950000011828,3,1,0,44194,WMM2,1555663,false,false,1858,image-keyboard-response,24
true,15,1,2,1,true,z,false,false,0.0-2.0-0.60-0.541-3.541,1,1,0,90,false,stim,false,1,718.6950000012293,3,1,0,44194,WMM2,1557916,false,true,1861,image-keyboard-response,25
true,15,0,2,2,false,d,false,false,0.0-2.0-0.60-0.542-3.542,1,1,0,81,false,stim,true,0,1110.2650000012945,3,0,2,44194,WMM2,1560560,false,false,1864,image-keyboard-response,26
true,15,2,2,2,true,d,false,true,0.0-2.0-0.60-0.543-3.543,1,1,0,68,false,stim,false,2,1038.6699999999255,3,1,1,44194,WMM2,1563132,false,false,1867,image-keyboard-response,27
true,15,2,2,2,true,d,false,true,0.0-2.0-0.60-0.544-3.544,1,1,0,68,false,stim,false,2,897.6700000003912,3,1,1,44194,WMM2,1565571,false,false,1870,image-keyboard-response,28
true,15,0,2,2,false,d,false,false,0.0-2.0-0.60-0.545-3.545,1,1,0,81,false,stim,true,0,936.1050000006799,3,0,2,44194,WMM2,1568050,false,false,1873,image-keyboard-response,29
true,15,1,2,1,true,z,false,true,0.0-2.0-0.60-0.546-3.546,1,1,0,90,false,stim,false,1,914.919999999227,3,1,0,44194,WMM2,1570507,false,false,1876,image-keyboard-response,30
true,15,2,2,2,true,d,false,true,0.0-2.0-0.60-0.547-3.547,1,1,0,68,false,stim,false,2,1176.9250000014435,3,1,1,44194,WMM2,1573221,false,false,1879,image-keyboard-response,31
true,15,0,2,2,false,d,false,false,0.0-2.0-0.60-0.548-3.548,1,1,0,81,false,stim,true,0,1234.7350000001024,3,0,2,44194,WMM2,1575991,false,false,1882,image-keyboard-response,32
true,15,2,2,2,true,d,false,false,0.0-2.0-0.61-0.549-3.549,1,1,0,68,false,stim,false,2,1128.5600000009872,3,1,1,44194,WMM2,1578658,false,true,1885,image-keyboard-response,33
true,15,1,2,1,true,z,false,true,0.0-2.0-0.61-0.550-3.550,1,1,0,90,false,stim,false,1,620.7100000011269,3,1,0,44194,WMM2,1580815,false,false,1888,image-keyboard-response,34
true,15,2,2,2,true,d,false,true,0.0-2.0-0.61-0.551-3.551,1,1,0,68,false,stim,false,2,698.2349999998696,3,1,1,44194,WMM2,1583050,false,false,1891,image-keyboard-response,35
true,15,0,2,2,false,d,false,false,0.0-2.0-0.61-0.552-3.552,1,1,0,81,false,stim,true,0,337.410000000149,3,0,2,44194,WMM2,1584933,false,false,1894,image-keyboard-response,36
true,15,1,2,1,true,z,false,true,0.0-2.0-0.61-0.553-3.553,1,1,0,90,false,stim,false,1,694.4550000005402,3,1,0,44194,WMM2,1587174,false,false,1897,image-keyboard-response,37
true,15,0,2,2,false,d,false,false,0.0-2.0-0.61-0.554-3.554,1,1,0,81,false,stim,true,0,1432.1849999995902,3,0,2,44194,WMM2,1590156,false,false,1900,image-keyboard-response,38
true,15,2,2,2,true,d,false,true,0.0-2.0-0.61-0.555-3.555,1,1,0,68,false,stim,false,2,591.1650000016671,3,1,1,44194,WMM2,1592322,false,false,1903,image-keyboard-response,39
true,15,1,2,2,false,d,true,false,0.0-2.0-0.61-0.556-3.556,1,1,0,90,false,stim,false,0,627.9300000006333,3,0,2,44194,WMM2,1594494,false,false,1906,image-keyboard-response,40
true,15,1,2,1,true,z,false,true,0.0-2.0-0.61-0.557-3.557,1,1,0,90,false,stim,false,1,782.9550000005402,3,1,0,44194,WMM2,1596807,false,false,1909,image-keyboard-response,41
true,15,1,2,1,true,z,false,true,0.0-2.0-0.62-0.558-3.558,1,1,0,90,false,stim,false,1,538.8000000002794,3,1,0,44194,WMM2,1598896,false,false,1912,image-keyboard-response,42
true,15,2,2,2,true,d,false,true,0.0-2.0-0.62-0.559-3.559,1,1,0,68,false,stim,false,0,1906.6299999994226,3,0,2,44194,WMM2,1602342,false,false,1915,image-keyboard-response,43
true,15,2,2,2,true,d,false,true,0.0-2.0-0.62-0.560-3.560,1,1,0,68,false,stim,false,0,549.8700000008103,3,0,2,44194,WMM2,1604432,false,false,1918,image-keyboard-response,44
true,15,2,2,2,true,d,false,true,0.0-2.0-0.62-0.561-3.561,1,1,0,68,false,stim,false,2,627.9300000006333,3,1,1,44194,WMM2,1606605,false,false,1921,image-keyboard-response,45
true,15,1,2,1,true,z,false,true,0.0-2.0-0.62-0.562-3.562,1,1,0,90,false,stim,false,1,616.6599999996834,3,0,0,44194,WMM2,1608748,false,false,1924,image-keyboard-response,46
true,15,2,2,2,true,d,false,true,0.0-2.0-0.62-0.563-3.563,1,1,0,68,false,stim,false,2,632.7800000000279,3,1,1,44194,WMM2,1610903,false,false,1927,image-keyboard-response,47
true,15,2,2,2,true,d,false,true,0.0-2.0-0.62-0.564-3.564,1,1,0,68,false,stim,false,0,678.2249999998603,3,1,2,44194,WMM2,1613106,false,false,1930,image-keyboard-response,48
true,15,1,2,1,true,z,false,true,0.0-2.0-0.62-0.565-3.565,1,1,0,90,false,stim,false,1,601.1250000011642,3,0,0,44194,WMM2,1615234,false,false,1933,image-keyboard-response,49
true,15,2,2,2,true,d,false,true,0.0-2.0-0.62-0.566-3.566,1,1,0,68,false,stim,false,2,691.4049999995623,3,1,1,44194,WMM2,1617448,false,false,1936,image-keyboard-response,50
true,15,1,2,1,true,z,false,true,0.0-2.0-0.63-0.567-3.567,1,1,0,90,false,stim,false,1,669.7000000004191,3,0,0,44194,WMM2,1619645,false,false,1939,image-keyboard-response,51
true,15,2,2,2,true,d,false,true,0.0-2.0-0.63-0.568-3.568,1,1,0,68,false,stim,false,0,620.5300000000279,3,1,2,44194,WMM2,1621792,false,false,1942,image-keyboard-response,52
true,15,2,2,2,true,d,false,true,0.0-2.0-0.63-0.569-3.569,1,1,0,68,false,stim,false,2,688.4749999991618,3,1,1,44194,WMM2,1624005,false,false,1945,image-keyboard-response,53
true,15,2,2,2,true,d,false,true,0.0-2.0-0.63-0.570-3.570,1,1,0,68,false,stim,false,0,595.4700000002049,3,1,2,44194,WMM2,1626133,false,false,1948,image-keyboard-response,54
true,16,1,2,0,false,q,false,false,0.0-2.0-0.63-0.571-3.571,0,1,1,90,true,stim,true,1,883.8400000003166,3,0,0,44194,WMM2,1628543,false,false,1951,image-keyboard-response,1
true,16,1,2,0,false,q,false,false,0.0-2.0-0.63-0.572-3.572,0,1,1,90,false,stim,true,1,422.67499999981374,3,0,0,44194,WMM2,1630493,false,false,1954,image-keyboard-response,2
true,16,2,2,2,true,d,false,true,0.0-2.0-0.63-0.573-3.573,0,1,1,68,false,stim,false,2,848.2999999995809,3,1,1,44194,WMM2,1632862,false,false,1957,image-keyboard-response,3
true,16,2,2,2,true,d,false,true,0.0-2.0-0.63-0.574-3.574,0,1,1,68,false,stim,false,2,662.6749999995809,3,1,2,44194,WMM2,1635056,false,false,1960,image-keyboard-response,4
true,16,2,2,2,true,d,false,true,0.0-2.0-0.63-0.575-3.575,0,1,1,68,false,stim,false,2,582.0549999990035,3,1,1,44194,WMM2,1637162,false,false,1963,image-keyboard-response,5
true,16,1,2,0,false,q,false,true,0.0-2.0-0.64-0.576-3.576,0,1,1,90,false,stim,true,1,593.4250000009779,3,0,0,44194,WMM2,1639279,false,true,1966,image-keyboard-response,6
true,16,1,2,0,false,q,false,false,0.0-2.0-0.64-0.577-3.577,0,1,1,90,false,stim,true,1,613.7549999984913,3,0,0,44194,WMM2,1641421,false,false,1969,image-keyboard-response,7
true,16,2,2,2,true,d,false,true,0.0-2.0-0.64-0.578-3.578,0,1,1,68,false,stim,false,2,663.3100000000559,3,1,2,44194,WMM2,1643613,false,false,1972,image-keyboard-response,8
true,16,2,2,2,true,d,false,true,0.0-2.0-0.64-0.579-3.579,0,1,1,68,false,stim,false,2,696.519999999553,3,1,2,44194,WMM2,1645845,false,false,1975,image-keyboard-response,9
true,16,2,2,2,true,d,false,true,0.0-2.0-0.64-0.580-3.580,0,1,1,68,false,stim,false,2,684.3150000004098,3,1,1,44194,WMM2,1648061,false,false,1978,image-keyboard-response,10
true,16,2,2,2,true,d,false,true,0.0-2.0-0.64-0.581-3.581,0,1,1,68,false,stim,false,2,521.1999999992549,3,1,1,44194,WMM2,1650116,false,false,1981,image-keyboard-response,11
true,16,2,2,2,true,d,false,true,0.0-2.0-0.64-0.582-3.582,0,1,1,68,false,stim,false,2,404.95000000018626,3,1,2,44194,WMM2,1652057,false,false,1984,image-keyboard-response,12
true,16,2,2,2,true,d,false,true,0.0-2.0-0.64-0.583-3.583,0,1,1,68,false,stim,false,2,467.9150000012014,3,1,1,44194,WMM2,1654057,false,false,1987,image-keyboard-response,13
true,16,1,2,0,false,q,false,true,0.0-2.0-0.64-0.584-3.584,0,1,1,90,false,stim,true,1,817.100000000326,3,0,0,44194,WMM2,1656408,false,true,1990,image-keyboard-response,14
true,16,1,2,0,false,q,false,false,0.0-2.0-0.65-0.585-3.585,0,1,1,90,false,stim,true,1,783.6100000005681,3,0,0,44194,WMM2,1658726,false,false,1993,image-keyboard-response,15
