answered,blockNum,choice,condition,corResp,correct,correct_response,explo,fb,internal_node_id,isStable_1,isStable_2,isStable_3,key_press,newBlock,part,persev,persevResp,rt,sessNum,stableAS,stimulus,subject,task,time_elapsed,training,trap,trial_index,trial_type,trialsInBlock
false,1,-1,0,0,false,q,false,false,0.0-2.0-0.0-0.0-3.0,0,0,0,,true,stim,true,-1,,0,0,0,44466,WMM1,316718,false,false,188,image-keyboard-response,1
true,1,1,0,2,false,d,true,false,0.0-2.0-0.0-0.1-3.1,0,0,0,90,false,stim,false,-1,2165.0,0,0,1,44466,WMM1,320388,false,false,191,image-keyboard-response,2
false,1,-1,0,0,false,q,false,false,0.0-2.0-0.0-0.2-3.2,0,0,0,,false,stim,true,-1,,0,0,0,44466,WMM1,324896,false,false,194,image-keyboard-response,3
true,1,0,0,2,false,d,true,false,0.0-2.0-0.0-0.3-3.3,0,0,0,81,false,stim,false,-1,2131.0,0,0,1,44466,WMM1,328532,false,false,197,image-keyboard-response,4
true,1,0,0,0,true,q,false,true,0.0-2.0-0.0-0.4-3.4,0,0,0,81,false,stim,false,-1,2495.0,0,0,0,44466,WMM1,332533,false,false,200,image-keyboard-response,5
true,1,2,0,2,true,d,false,true,0.0-2.0-0.0-0.5-3.5,0,0,0,68,false,stim,false,-1,1885.0,0,0,2,44466,WMM1,335924,false,false,203,image-keyboard-response,6
true,1,0,0,2,false,d,true,false,0.0-2.0-0.0-0.6-3.6,0,0,0,81,false,stim,false,-1,2316.0,0,0,1,44466,WMM1,339746,false,false,206,image-keyboard-response,7
false,1,-1,0,2,false,d,false,false,0.0-2.0-0.0-0.7-3.7,0,0,0,,false,stim,true,-1,,0,0,2,44466,WMM1,344252,false,false,209,image-keyboard-response,8
false,1,-1,0,2,false,d,false,false,0.0-2.0-0.0-0.8-3.8,0,0,0,,false,stim,true,-1,,0,0,2,44466,WMM1,348758,false,false,212,image-keyboard-response,9
false,1,-1,0,2,false,d,false,false,0.0-2.0-0.1-0.9-3.9,0,0,0,,false,stim,true,-1,,0,0,1,44466,WMM1,353264,false,false,215,image-keyboard-response,10
false,1,-1,0,0,false,q,false,false,0.0-2.0-0.1-0.10-3.10,0,0,0,,false,stim,true,-1,,0,0,0,44466,WMM1,357770,false,false,218,image-keyboard-response,11
true,1,1,0,2,false,d,true,false,0.0-2.0-0.1-0.11-3.11,0,0,0,90,false,stim,false,-1,1922.0,0,0,1,44466,WMM1,361197,false,false,221,image-keyboard-response,12
true,1,0,0,2,false,d,true,false,0.0-2.0-0.1-0.12-3.12,0,0,0,81,false,stim,false,-1,2863.0,0,0,2,44466,WMM1,365564,false,false,224,image-keyboard-response,13
true,1,1,0,2,false,d,true,false,0.0-2.0-0.1-0.13-3.13,0,0,0,90,false,stim,false,-1,1504.0,0,0,2,44466,WMM1,368572,false,false,227,image-keyboard-response,14
true,1,1,0,0,false,q,true,false,0.0-2.0-0.1-0.14-3.14,0,0,0,90,false,stim,false,-1,2719.999999999942,0,0,0,44466,WMM1,372796,false,false,230,image-keyboard-response,15
true,1,2,0,2,true,d,false,true,0.0-2.0-0.1-0.15-3.15,0,0,0,68,false,stim,false,-1,1638.0000000000582,0,0,2,44466,WMM1,375939,false,false,233,image-keyboard-response,16
true,1,2,0,0,false,q,true,false,0.0-2.0-0.1-0.16-3.16,0,0,0,68,false,stim,false,-1,1791.0,0,0,0,44466,WMM1,379236,false,false,236,image-keyboard-response,17
true,1,2,0,2,true,d,false,true,0.0-2.0-0.1-0.17-3.17,0,0,0,68,false,stim,false,-1,1759.0,0,0,1,44466,WMM1,382500,false,false,239,image-keyboard-response,18
true,1,2,0,2,true,d,false,true,0.0-2.0-0.2-0.18-3.18,0,0,0,68,false,stim,false,-1,1671.0,0,0,1,44466,WMM1,385677,false,false,242,image-keyboard-response,19
true,1,2,0,0,false,q,true,false,0.0-2.0-0.2-0.19-3.19,0,0,0,68,false,stim,false,-1,1358.0,0,0,0,44466,WMM1,388539,false,false,245,image-keyboard-response,20
true,1,2,0,2,true,d,false,true,0.0-2.0-0.2-0.20-3.20,0,0,0,68,false,stim,false,-1,1551.0,0,0,1,44466,WMM1,391596,false,false,248,image-keyboard-response,21
true,1,1,0,2,false,d,true,false,0.0-2.0-0.2-0.21-3.21,0,0,0,90,false,stim,false,-1,2220.0,0,0,2,44466,WMM1,395324,false,false,251,image-keyboard-response,22
true,1,0,0,2,false,d,true,false,0.0-2.0-0.2-0.22-3.22,0,0,0,81,false,stim,false,-1,2613.0,0,0,2,44466,WMM1,399442,false,false,254,image-keyboard-response,23
true,1,2,0,0,false,q,true,false,0.0-2.0-0.2-0.23-3.23,0,0,0,68,false,stim,false,-1,2770.0,0,0,0,44466,WMM1,403717,false,false,257,image-keyboard-response,24
true,1,1,0,0,false,q,true,false,0.0-2.0-0.2-0.24-3.24,0,0,0,90,false,stim,false,-1,1254.0,0,0,0,44466,WMM1,406476,false,false,260,image-keyboard-response,25
true,1,0,0,2,false,d,true,false,0.0-2.0-0.2-0.25-3.25,0,0,0,81,false,stim,false,-1,2286.0,0,0,2,44466,WMM1,410267,false,false,263,image-keyboard-response,26
true,1,2,0,2,true,d,false,true,0.0-2.0-0.2-0.26-3.26,0,0,0,68,false,stim,false,-1,2942.999999999942,0,0,1,44466,WMM1,414716,false,false,266,image-keyboard-response,27
true,1,2,0,2,true,d,false,true,0.0-2.0-0.3-0.27-3.27,0,0,0,68,false,stim,false,-1,1181.0,0,0,1,44466,WMM1,417404,false,false,269,image-keyboard-response,28
true,1,2,0,2,true,d,false,false,0.0-2.0-0.3-0.28-3.28,0,0,0,68,false,stim,false,-1,1760.0,0,0,2,44466,WMM1,420668,false,true,272,image-keyboard-response,29
true,1,2,0,0,false,q,true,false,0.0-2.0-0.3-0.29-3.29,0,0,0,68,false,stim,false,-1,2909.999999999942,0,0,0,44466,WMM1,425082,false,false,275,image-keyboard-response,30
true,1,0,0,0,true,q,false,true,0.0-2.0-0.3-0.30-3.30,0,0,0,81,false,stim,false,-1,2989.0,0,0,0,44466,WMM1,429579,false,false,278,image-keyboard-response,31
true,1,0,0,0,true,q,false,true,0.0-2.0-0.3-0.31-3.31,0,0,0,81,false,stim,false,-1,1791.0,0,0,0,44466,WMM1,432876,false,false,281,image-keyboard-response,32
true,1,2,0,2,true,d,false,false,0.0-2.0-0.3-0.32-3.32,0,0,0,68,false,stim,false,-1,2316.0,0,0,1,44466,WMM1,436698,false,true,284,image-keyboard-response,33
true,1,1,0,2,false,d,true,false,0.0-2.0-0.3-0.33-3.33,0,0,0,90,false,stim,false,-1,2558.0,0,0,1,44466,WMM1,440763,false,false,287,image-keyboard-response,34
false,1,-1,0,2,false,d,false,false,0.0-2.0-0.3-0.34-3.34,0,0,0,,false,stim,true,-1,,0,0,2,44466,WMM1,445270,false,false,290,image-keyboard-response,35
true,1,1,0,2,false,d,true,false,0.0-2.0-0.3-0.35-3.35,0,0,0,90,false,stim,false,-1,539.0,0,0,2,44466,WMM1,447316,false,false,293,image-keyboard-response,36
false,1,-1,0,0,false,q,false,true,0.0-2.0-0.4-0.36-3.36,0,0,0,,false,stim,true,-1,,0,0,0,44466,WMM1,451824,false,true,296,image-keyboard-response,37
false,1,-1,0,2,false,d,false,false,0.0-2.0-0.4-0.37-3.37,0,0,0,,false,stim,true,-1,,0,0,2,44466,WMM1,456330,false,false,299,image-keyboard-response,38
true,1,1,0,2,false,d,true,false,0.0-2.0-0.4-0.38-3.38,0,0,0,90,false,stim,false,-1,1179.0,0,0,1,44466,WMM1,459018,false,false,302,image-keyboard-response,39
true,1,1,0,2,false,d,true,false,0.0-2.0-0.4-0.39-3.39,0,0,0,90,false,stim,false,-1,2608.0,0,0,2,44466,WMM1,463132,false,false,305,image-keyboard-response,40
true,1,2,0,2,true,d,false,true,0.0-2.0-0.4-0.40-3.40,0,0,0,68,false,stim,false,-1,2012.0,0,0,1,44466,WMM1,466652,false,false,308,image-keyboard-response,41
false,1,-1,0,0,false,q,false,false,0.0-2.0-0.4-0.41-3.41,0,0,0,,false,stim,true,-1,,0,0,0,44466,WMM1,471158,false,false,311,image-keyboard-response,42
true,1,1,0,0,false,q,true,false,0.0-2.0-0.4-0.42-3.42,0,0,0,90,false,stim,false,-1,1509.0000000000582,0,0,0,44466,WMM1,474172,false,false,314,image-keyboard-response,43
true,1,1,0,2,false,d,true,false,0.0-2.0-0.4-0.43-3.43,0,0,0,90,false,stim,false,-1,2695.0,0,0,2,44466,WMM1,478373,false,false,317,image-keyboard-response,44
false,1,-1,0,2,false,d,false,false,0.0-2.0-0.4-0.44-3.44,0,0,0,,false,stim,true,-1,,0,0,1,44466,WMM1,482880,false,false,320,image-keyboard-response,45
true,1,0,0,2,false,d,true,false,0.0-2.0-0.5-0.45-3.45,0,0,0,81,false,stim,false,-1,1417.9999999999418,0,0,1,44466,WMM1,485805,false,false,323,image-keyboard-response,46
true,1,1,0,2,false,d,true,false,0.0-2.0-0.5-0.46-3.46,0,0,0,90,false,stim,false,-1,2713.0,0,0,1,44466,WMM1,490025,false,false,326,image-keyboard-response,47
true,1,2,0,0,false,q,true,false,0.0-2.0-0.5-0.47-3.47,0,0,0,68,false,stim,false,-1,1520.0000000000582,0,0,0,44466,WMM1,493052,false,false,329,image-keyboard-response,48
true,1,0,0,0,true,q,false,true,0.0-2.0-0.5-0.48-3.48,0,0,0,81,false,stim,false,-1,1258.0000000000582,0,0,0,44466,WMM1,495814,false,false,332,image-keyboard-response,49
false,1,-1,0,2,false,d,false,false,0.0-2.0-0.5-0.49-3.49,0,0,0,,false,stim,true,-1,,0,0,2,44466,WMM1,500320,false,false,335,image-keyboard-response,50
true,1,0,0,0,true,q,false,false,0.0-2.0-0.5-0.50-3.50,0,0,0,81,false,stim,false,-1,1440.9999999999418,0,0,0,44466,WMM1,503268,false,true,338,image-keyboard-response,51
true,1,2,0,2,true,d,false,true,0.0-2.0-0.5-0.51-3.51,0,0,0,68,false,stim,false,-1,1964.0,0,0,1,44466,WMM1,506737,false,false,341,image-keyboard-response,52
true,1,0,0,2,false,d,true,false,0.0-2.0-0.5-0.52-3.52,0,0,0,81,false,stim,false,-1,2787.000000000058,0,0,2,44466,WMM1,511028,false,false,344,image-keyboard-response,53
false,1,-1,0,2,false,d,false,false,0.0-2.0-0.5-0.53-3.53,0,0,0,,false,stim,true,-1,,0,0,2,44466,WMM1,515534,false,false,347,image-keyboard-response,54
true,1,2,0,2,true,d,false,true,0.0-2.0-0.6-0.54-3.54,0,0,0,68,false,stim,false,-1,1700.0000000000582,0,0,1,44466,WMM1,518739,false,false,350,image-keyboard-response,55
true,1,2,0,2,true,d,false,true,0.0-2.0-0.6-0.55-3.55,0,0,0,68,false,stim,false,-1,1317.0,0,0,1,44466,WMM1,521561,false,false,353,image-keyboard-response,56
true,1,0,0,2,false,d,true,false,0.0-2.0-0.6-0.56-3.56,0,0,0,81,false,stim,false,-1,1570.0000000001164,0,0,2,44466,WMM1,524637,false,false,356,image-keyboard-response,57
true,1,1,0,2,false,d,true,false,0.0-2.0-0.6-0.57-3.57,0,0,0,90,false,stim,false,-1,1429.9999999998836,0,0,2,44466,WMM1,527571,false,false,359,image-keyboard-response,58
true,1,1,0,0,false,q,true,false,0.0-2.0-0.6-0.58-3.58,0,0,0,90,false,stim,false,-1,2652.0,0,0,0,44466,WMM1,531729,false,false,362,image-keyboard-response,59
true,1,0,0,0,true,q,false,true,0.0-2.0-0.6-0.59-3.59,0,0,0,81,false,stim,false,-1,649.0,0,0,0,44466,WMM1,533884,false,false,365,image-keyboard-response,60
false,2,-1,1,0,false,q,true,false,0.0-2.0-0.6-0.60-3.60,0,0,0,,true,stim,false,2,,0,0,1,44466,WMM1,538390,false,false,368,image-keyboard-response,1
true,2,0,1,2,false,d,false,true,0.0-2.0-0.6-0.61-3.61,0,0,0,81,false,stim,true,0,1524.0,0,0,0,44466,WMM1,541419,false,true,371,image-keyboard-response,2
false,2,-1,1,1,false,z,true,false,0.0-2.0-0.6-0.62-3.62,0,0,0,,false,stim,false,2,,0,0,2,44466,WMM1,545924,false,false,374,image-keyboard-response,3
true,2,0,1,2,false,d,false,false,0.0-2.0-0.7-0.63-3.63,0,0,0,81,false,stim,true,0,2532.0000000001164,0,0,0,44466,WMM1,549964,false,false,377,image-keyboard-response,4
true,2,0,1,2,false,d,false,false,0.0-2.0-0.7-0.64-3.64,0,0,0,81,false,stim,true,0,998.9999999998836,0,0,0,44466,WMM1,552468,false,false,380,image-keyboard-response,5
true,2,0,1,0,true,q,false,true,0.0-2.0-0.7-0.65-3.65,0,0,0,81,false,stim,false,2,1583.0,0,0,1,44466,WMM1,555556,false,false,383,image-keyboard-response,6
false,2,-1,1,0,false,q,true,false,0.0-2.0-0.7-0.66-3.66,0,0,0,,false,stim,false,2,,0,0,1,44466,WMM1,560061,false,false,386,image-keyboard-response,7
true,2,0,1,0,true,q,false,true,0.0-2.0-0.7-0.67-3.67,0,0,0,81,false,stim,false,2,532.0,0,0,1,44466,WMM1,562099,false,false,389,image-keyboard-response,8
true,2,1,1,1,true,z,false,true,0.0-2.0-0.7-0.68-3.68,0,0,0,90,false,stim,false,2,1952.0,0,0,2,44466,WMM1,565556,false,false,392,image-keyboard-response,9
true,2,1,1,1,true,z,false,true,0.0-2.0-0.7-0.69-3.69,0,0,0,90,false,stim,false,2,2663.0,0,0,2,44466,WMM1,569724,false,false,395,image-keyboard-response,10
true,2,0,1,2,false,d,false,true,0.0-2.0-0.7-0.70-3.70,0,0,0,81,false,stim,true,0,2230.0,0,0,0,44466,WMM1,573459,false,true,398,image-keyboard-response,11
true,2,1,1,1,true,z,false,true,0.0-2.0-0.7-0.71-3.71,0,0,0,90,false,stim,false,2,1787.9999999998836,0,0,2,44466,WMM1,576757,false,false,401,image-keyboard-response,12
true,2,1,1,2,false,d,true,false,0.0-2.0-0.8-0.72-3.72,0,0,0,90,false,stim,false,0,916.9999999998836,0,0,0,44466,WMM1,579179,false,false,404,image-keyboard-response,13
true,2,1,1,0,false,q,true,false,0.0-2.0-0.8-0.73-3.73,0,0,0,90,false,stim,false,2,2593.0,0,0,1,44466,WMM1,583277,false,false,407,image-keyboard-response,14
true,2,0,1,0,true,q,false,true,0.0-2.0-0.8-0.74-3.74,0,0,0,81,false,stim,false,2,1711.0,0,0,1,44466,WMM1,586492,false,false,410,image-keyboard-response,15
true,2,0,1,0,true,q,false,true,0.0-2.0-0.8-0.75-3.75,0,0,0,81,false,stim,false,2,800.0,0,0,1,44466,WMM1,588797,false,false,413,image-keyboard-response,16
true,2,1,1,1,true,z,false,true,0.0-2.0-0.8-0.76-3.76,0,0,0,90,false,stim,false,2,2351.0,0,0,2,44466,WMM1,592652,false,false,416,image-keyboard-response,17
true,2,2,1,2,true,d,false,true,0.0-2.0-0.8-0.77-3.77,0,0,0,68,false,stim,false,0,2199.0,0,0,0,44466,WMM1,596356,false,false,419,image-keyboard-response,18
true,2,0,1,1,false,z,true,false,0.0-2.0-0.8-0.78-3.78,0,0,0,81,false,stim,false,2,2512.0,0,0,2,44466,WMM1,600372,false,false,422,image-keyboard-response,19
true,2,1,1,1,true,z,false,false,0.0-2.0-0.8-0.79-3.79,0,0,0,90,false,stim,false,2,1214.0,0,0,2,44466,WMM1,603091,false,true,425,image-keyboard-response,20
false,2,-1,1,2,false,d,true,false,0.0-2.0-0.8-0.80-3.80,0,0,0,,false,stim,false,0,,0,0,0,44466,WMM1,607598,false,false,428,image-keyboard-response,21
true,2,1,1,1,true,z,false,true,0.0-2.0-0.9-0.81-3.81,0,0,0,90,false,stim,false,2,1707.0000000001164,0,0,2,44466,WMM1,610810,false,false,431,image-keyboard-response,22
true,2,2,1,2,true,d,false,true,0.0-2.0-0.9-0.82-3.82,0,0,0,68,false,stim,false,0,2015.9999999998836,0,0,0,44466,WMM1,614332,false,false,434,image-keyboard-response,23
false,2,-1,1,0,false,q,true,false,0.0-2.0-0.9-0.83-3.83,0,0,0,,false,stim,false,2,,0,0,1,44466,WMM1,618838,false,false,437,image-keyboard-response,24
false,2,-1,1,1,false,z,true,false,0.0-2.0-0.9-0.84-3.84,0,0,0,,false,stim,false,2,,0,0,2,44466,WMM1,623344,false,false,440,image-keyboard-response,25
true,2,1,1,1,true,z,false,true,0.0-2.0-0.9-0.85-3.85,0,0,0,90,false,stim,false,2,673.0,0,0,2,44466,WMM1,625523,false,false,443,image-keyboard-response,26
true,2,2,1,0,false,q,false,false,0.0-2.0-0.9-0.86-3.86,0,0,0,68,false,stim,true,2,1664.0,0,0,1,44466,WMM1,628693,false,false,446,image-keyboard-response,27
true,2,0,1,0,true,q,false,true,0.0-2.0-0.9-0.87-3.87,0,0,0,81,false,stim,false,2,1130.0,0,0,1,44466,WMM1,631329,false,false,449,image-keyboard-response,28
true,2,2,1,2,true,d,false,true,0.0-2.0-0.9-0.88-3.88,0,0,0,68,false,stim,false,0,2609.9999999998836,0,0,0,44466,WMM1,635444,false,false,452,image-keyboard-response,29
true,2,2,1,2,true,d,false,true,0.0-2.0-0.9-0.89-3.89,0,0,0,68,false,stim,false,0,965.0,0,0,0,44466,WMM1,637915,false,false,455,image-keyboard-response,30
true,2,0,1,0,true,q,false,true,0.0-2.0-0.10-0.90-3.90,0,0,0,81,false,stim,false,2,2416.0,0,0,1,44466,WMM1,641837,false,false,458,image-keyboard-response,31
true,2,0,1,0,true,q,false,true,0.0-2.0-0.10-0.91-3.91,0,0,0,81,false,stim,false,2,732.0,0,0,1,44466,WMM1,644075,false,false,461,image-keyboard-response,32
true,2,1,1,1,true,z,false,true,0.0-2.0-0.10-0.92-3.92,0,0,0,90,false,stim,false,2,1638.0000000001164,0,0,2,44466,WMM1,647219,false,false,464,image-keyboard-response,33
true,2,2,1,2,true,d,false,true,0.0-2.0-0.10-0.93-3.93,0,0,0,68,false,stim,false,0,1791.0,0,0,0,44466,WMM1,650516,false,false,467,image-keyboard-response,34
true,2,0,1,0,true,q,false,true,0.0-2.0-0.10-0.94-3.94,0,0,0,81,false,stim,false,2,2583.0,0,0,1,44466,WMM1,654604,false,false,470,image-keyboard-response,35
true,2,2,1,2,true,d,false,true,0.0-2.0-0.10-0.95-3.95,0,0,0,68,false,stim,false,0,1886.0,0,0,0,44466,WMM1,657996,false,false,473,image-keyboard-response,36
true,2,1,1,1,true,z,false,false,0.0-2.0-0.10-0.96-3.96,0,0,0,90,false,stim,false,2,1742.0,0,0,2,44466,WMM1,661244,false,true,476,image-keyboard-response,37
true,2,0,1,1,false,z,true,false,0.0-2.0-0.10-0.97-3.97,0,0,0,81,false,stim,false,2,687.0,0,0,2,44466,WMM1,663436,false,false,479,image-keyboard-response,38
true,2,2,1,2,true,d,false,true,0.0-2.0-0.10-0.98-3.98,0,0,0,68,false,stim,false,0,2654.0,0,0,0,44466,WMM1,667596,false,false,482,image-keyboard-response,39
true,2,2,1,1,false,z,false,false,0.0-2.0-0.11-0.99-3.99,0,0,0,68,false,stim,true,2,1566.0,0,0,2,44466,WMM1,670668,false,false,485,image-keyboard-response,40
true,2,1,1,1,true,z,false,true,0.0-2.0-0.11-0.100-3.100,0,0,0,90,false,stim,false,2,2245.0,0,0,2,44466,WMM1,674419,false,false,488,image-keyboard-response,41
true,2,2,1,2,true,d,false,true,0.0-2.0-0.11-0.101-3.101,0,0,0,68,false,stim,false,0,2272.0,0,0,0,44466,WMM1,678196,false,false,491,image-keyboard-response,42
true,2,0,1,0,true,q,false,true,0.0-2.0-0.11-0.102-3.102,0,0,0,81,false,stim,false,2,1869.0,0,0,1,44466,WMM1,681572,false,false,494,image-keyboard-response,43
true,3,0,1,1,false,z,false,false,0.0-2.0-0.11-0.103-3.103,0,0,0,81,true,stim,true,0,887.0000000001164,0,0,1,44466,WMM1,683964,false,false,497,image-keyboard-response,1
true,3,1,1,2,false,d,false,false,0.0-2.0-0.11-0.104-3.104,0,0,0,90,false,stim,true,1,2206.0,0,0,2,44466,WMM1,687676,false,false,500,image-keyboard-response,2
false,3,-1,1,0,false,q,true,true,0.0-2.0-0.11-0.105-3.105,0,0,0,,false,stim,false,2,,0,0,0,44466,WMM1,692186,false,true,503,image-keyboard-response,3
true,3,0,1,0,true,q,false,true,0.0-2.0-0.11-0.106-3.106,0,0,0,81,false,stim,false,2,1823.0,0,0,0,44466,WMM1,695515,false,false,506,image-keyboard-response,4
true,3,2,1,1,false,z,true,false,0.0-2.0-0.11-0.107-3.107,0,0,0,68,false,stim,false,0,2878.0,0,0,1,44466,WMM1,699898,false,false,509,image-keyboard-response,5
false,3,-1,1,0,false,q,true,false,0.0-2.0-0.12-0.108-3.108,0,0,0,,false,stim,false,2,,0,0,0,44466,WMM1,704405,false,false,512,image-keyboard-response,6
true,3,0,1,1,false,z,false,false,0.0-2.0-0.12-0.109-3.109,0,0,0,81,false,stim,true,0,4.000000000116415,0,0,1,44466,WMM1,705916,false,false,515,image-keyboard-response,7
false,3,-1,1,1,false,z,true,false,0.0-2.0-0.12-0.110-3.110,0,0,0,,false,stim,false,0,,0,0,1,44466,WMM1,710422,false,false,518,image-keyboard-response,8
true,3,1,1,2,false,d,false,true,0.0-2.0-0.12-0.111-3.111,0,0,0,90,false,stim,true,1,2691.0000000001164,0,0,2,44466,WMM1,714618,false,true,521,image-keyboard-response,9
true,3,2,1,1,false,z,true,false,0.0-2.0-0.12-0.112-3.112,0,0,0,68,false,stim,false,0,1800.0,0,0,1,44466,WMM1,717923,false,false,524,image-keyboard-response,10
true,3,0,1,0,true,q,false,true,0.0-2.0-0.12-0.113-3.113,0,0,0,81,false,stim,false,2,2447.0,0,0,0,44466,WMM1,721878,false,false,527,image-keyboard-response,11
true,3,0,1,2,false,d,true,false,0.0-2.0-0.12-0.114-3.114,0,0,0,81,false,stim,false,1,2117.0,0,0,2,44466,WMM1,725500,false,false,530,image-keyboard-response,12
true,3,1,1,2,false,d,false,false,0.0-2.0-0.12-0.115-3.115,0,0,0,90,false,stim,true,1,751.0,0,0,2,44466,WMM1,727756,false,false,533,image-keyboard-response,13
true,3,0,1,0,true,q,false,true,0.0-2.0-0.12-0.116-3.116,0,0,0,81,false,stim,false,2,2534.0,0,0,0,44466,WMM1,731795,false,false,536,image-keyboard-response,14
true,3,0,1,0,true,q,false,true,0.0-2.0-0.13-0.117-3.117,0,0,0,81,false,stim,false,2,767.0,0,0,0,44466,WMM1,734068,false,false,539,image-keyboard-response,15
true,3,1,1,2,false,d,false,false,0.0-2.0-0.13-0.118-3.118,0,0,0,90,false,stim,true,1,2382.0,0,0,2,44466,WMM1,737956,false,false,542,image-keyboard-response,16
true,3,0,1,0,true,q,false,true,0.0-2.0-0.13-0.119-3.119,0,0,0,81,false,stim,false,2,2591.0,0,0,0,44466,WMM1,742051,false,false,545,image-keyboard-response,17
true,3,0,1,1,false,z,false,false,0.0-2.0-0.13-0.120-3.120,0,0,0,81,false,stim,true,0,2024.0,0,0,1,44466,WMM1,745580,false,false,548,image-keyboard-response,18
true,3,1,1,1,true,z,false,true,0.0-2.0-0.13-0.121-3.121,0,0,0,90,false,stim,false,0,1550.0,0,0,1,44466,WMM1,748636,false,false,551,image-keyboard-response,19
true,3,1,1,1,true,z,false,true,0.0-2.0-0.13-0.122-3.122,0,0,0,90,false,stim,false,0,902.0,0,0,1,44466,WMM1,751043,false,false,554,image-keyboard-response,20
true,3,0,1,0,true,q,false,true,0.0-2.0-0.13-0.123-3.123,0,0,0,81,false,stim,false,2,1950.0,0,0,0,44466,WMM1,754500,false,false,557,image-keyboard-response,21
true,3,2,1,2,true,d,false,true,0.0-2.0-0.13-0.124-3.124,0,0,0,68,false,stim,false,1,1073.0,0,0,2,44466,WMM1,757078,false,false,560,image-keyboard-response,22
true,3,2,1,2,true,d,false,true,0.0-2.0-0.13-0.125-3.125,0,0,0,68,false,stim,false,1,949.0,0,0,2,44466,WMM1,759533,false,false,563,image-keyboard-response,23
true,3,0,1,0,true,q,false,true,0.0-2.0-0.14-0.126-3.126,0,0,0,81,false,stim,false,2,2093.0000000001164,0,0,0,44466,WMM1,763132,false,false,566,image-keyboard-response,24
true,3,0,1,0,true,q,false,true,0.0-2.0-0.14-0.127-3.127,0,0,0,81,false,stim,false,2,901.9999999998836,0,0,0,44466,WMM1,765539,false,false,569,image-keyboard-response,25
true,3,1,1,1,true,z,false,true,0.0-2.0-0.14-0.128-3.128,0,0,0,90,false,stim,false,0,1278.0,0,1,1,44466,WMM1,768324,false,false,572,image-keyboard-response,26
true,3,1,1,1,true,z,false,true,0.0-2.0-0.14-0.129-3.129,0,0,0,90,false,stim,false,0,837.0,0,1,1,44466,WMM1,770667,false,false,575,image-keyboard-response,27
true,3,2,1,2,true,d,false,false,0.0-2.0-0.14-0.130-3.130,0,0,0,68,false,stim,false,1,1164.0,0,0,2,44466,WMM1,773338,false,true,578,image-keyboard-response,28
true,3,0,1,2,false,d,true,false,0.0-2.0-0.14-0.131-3.131,0,0,0,81,false,stim,false,1,712.0,0,0,2,44466,WMM1,775555,false,false,581,image-keyboard-response,29
false,3,-1,1,0,false,q,true,true,0.0-2.0-0.14-0.132-3.132,0,0,0,,false,stim,false,2,,0,0,0,44466,WMM1,780062,false,true,584,image-keyboard-response,30
true,3,1,1,1,true,z,false,true,0.0-2.0-0.14-0.133-3.133,0,0,0,90,false,stim,false,0,1884.0,0,1,1,44466,WMM1,783452,false,false,587,image-keyboard-response,31
true,3,2,1,2,true,d,false,true,0.0-2.0-0.14-0.134-3.134,0,0,0,68,false,stim,false,1,2154.0,0,0,2,44466,WMM1,787110,false,false,590,image-keyboard-response,32
true,3,2,1,2,true,d,false,true,0.0-2.0-0.15-0.135-3.135,0,0,0,68,false,stim,false,1,1468.0,0,0,2,44466,WMM1,790084,false,false,593,image-keyboard-response,33
true,4,1,3,1,true,z,false,true,0.0-2.0-0.15-0.136-3.136,0,1,0,90,true,stim,false,1,1734.0,0,1,1,44466,WMM1,793324,false,false,596,image-keyboard-response,1
true,4,0,3,2,false,d,false,false,0.0-2.0-0.15-0.137-3.137,0,1,0,81,false,stim,true,0,1423.0,0,0,0,44466,WMM1,796253,false,false,599,image-keyboard-response,2
true,4,1,3,1,true,z,false,true,0.0-2.0-0.15-0.138-3.138,0,1,0,90,false,stim,false,1,1680.0,0,1,1,44466,WMM1,799444,false,false,602,image-keyboard-response,3
true,4,2,3,2,true,d,false,true,0.0-2.0-0.15-0.139-3.139,0,1,0,68,false,stim,false,0,1844.0,0,0,0,44466,WMM1,802794,false,false,605,image-keyboard-response,4
true,4,1,3,1,true,z,false,true,0.0-2.0-0.15-0.140-3.140,0,1,0,90,false,stim,false,1,2706.0,0,1,1,44466,WMM1,807004,false,false,608,image-keyboard-response,5
true,4,2,3,2,true,d,false,true,0.0-2.0-0.15-0.141-3.141,0,1,0,68,false,stim,false,0,1855.0,0,0,0,44466,WMM1,810364,false,false,611,image-keyboard-response,6
true,4,2,3,1,false,z,false,true,0.0-2.0-0.15-0.142-3.142,0,1,0,68,false,stim,true,2,1310.0,0,0,2,44466,WMM1,813180,false,true,614,image-keyboard-response,7
true,4,2,3,1,false,z,false,true,0.0-2.0-0.15-0.143-3.143,0,1,0,68,false,stim,true,2,1213.9999999998836,0,0,2,44466,WMM1,815899,false,true,617,image-keyboard-response,8
true,4,2,3,1,false,z,false,true,0.0-2.0-0.16-0.144-3.144,0,1,0,68,false,stim,true,2,1183.0,0,0,2,44466,WMM1,818588,false,true,620,image-keyboard-response,9
true,4,2,3,2,true,d,false,true,0.0-2.0-0.16-0.145-3.145,0,1,0,68,false,stim,false,0,1975.0,0,0,0,44466,WMM1,822068,false,false,623,image-keyboard-response,10
true,4,2,3,1,false,z,false,false,0.0-2.0-0.16-0.146-3.146,0,1,0,68,false,stim,true,2,1487.0000000001164,0,0,2,44466,WMM1,825060,false,false,626,image-keyboard-response,11
true,4,1,3,1,true,z,false,true,0.0-2.0-0.16-0.147-3.147,0,1,0,90,false,stim,false,1,1528.0,0,1,1,44466,WMM1,828092,false,false,629,image-keyboard-response,12
true,4,2,3,2,true,d,false,true,0.0-2.0-0.16-0.148-3.148,0,1,0,68,false,stim,false,0,1455.0,0,0,0,44466,WMM1,831053,false,false,632,image-keyboard-response,13
true,4,1,3,1,true,z,false,true,0.0-2.0-0.16-0.149-3.149,0,1,0,90,false,stim,false,1,2147.0,0,1,1,44466,WMM1,834706,false,false,635,image-keyboard-response,14
true,4,1,3,1,true,z,false,false,0.0-2.0-0.16-0.150-3.150,0,1,0,90,false,stim,false,1,833.0,0,1,1,44466,WMM1,837044,false,true,638,image-keyboard-response,15
true,4,2,3,2,true,d,false,true,0.0-2.0-0.16-0.151-3.151,0,1,0,68,false,stim,false,0,2047.0,0,0,0,44466,WMM1,840596,false,false,641,image-keyboard-response,16
false,4,-1,3,1,false,z,true,false,0.0-2.0-0.16-0.152-3.152,0,1,0,,false,stim,false,2,,0,0,2,44466,WMM1,845102,false,false,644,image-keyboard-response,17
true,4,1,3,1,true,z,false,true,0.0-2.0-0.17-0.153-3.153,0,1,0,90,false,stim,false,2,1954.0,0,0,2,44466,WMM1,848564,false,false,647,image-keyboard-response,18
true,4,1,3,1,true,z,false,true,0.0-2.0-0.17-0.154-3.154,0,1,0,90,false,stim,false,2,924.9999999998836,0,0,2,44466,WMM1,850995,false,false,650,image-keyboard-response,19
true,4,2,3,1,false,z,true,true,0.0-2.0-0.17-0.155-3.155,0,1,0,68,false,stim,false,1,1974.0,0,1,1,44466,WMM1,854475,false,true,653,image-keyboard-response,20
false,4,-1,3,2,false,d,true,false,0.0-2.0-0.17-0.156-3.156,0,1,0,,false,stim,false,0,,0,0,0,44466,WMM1,858981,false,false,656,image-keyboard-response,21
true,4,1,3,2,false,d,true,false,0.0-2.0-0.17-0.157-3.157,0,1,0,90,false,stim,false,0,833.9999999998836,0,0,0,44466,WMM1,861323,false,false,659,image-keyboard-response,22
false,4,-1,3,1,false,z,true,false,0.0-2.0-0.17-0.158-3.158,0,1,0,,false,stim,false,1,,0,1,1,44466,WMM1,865830,false,false,662,image-keyboard-response,23
true,4,1,3,1,true,z,false,true,0.0-2.0-0.17-0.159-3.159,0,1,0,90,false,stim,false,2,1619.0,0,0,2,44466,WMM1,868956,false,false,665,image-keyboard-response,24
true,4,2,3,2,true,d,false,true,0.0-2.0-0.17-0.160-3.160,0,1,0,68,false,stim,false,0,2559.0,0,0,0,44466,WMM1,873021,false,false,668,image-keyboard-response,25
true,4,2,3,1,false,z,true,false,0.0-2.0-0.17-0.161-3.161,0,1,0,68,false,stim,false,1,1450.0,0,1,1,44466,WMM1,875979,false,false,671,image-keyboard-response,26
true,4,1,3,1,true,z,false,true,0.0-2.0-0.18-0.162-3.162,0,1,0,90,false,stim,false,2,1806.0,0,0,2,44466,WMM1,879292,false,false,674,image-keyboard-response,27
true,4,2,3,2,true,d,false,true,0.0-2.0-0.18-0.163-3.163,0,1,0,68,false,stim,false,0,1912.0,0,0,0,44466,WMM1,882710,false,false,677,image-keyboard-response,28
true,4,2,3,2,true,d,false,true,0.0-2.0-0.18-0.164-3.164,0,1,0,68,false,stim,false,0,739.0000000001164,0,0,0,44466,WMM1,884954,false,false,680,image-keyboard-response,29
true,4,1,3,1,true,z,false,true,0.0-2.0-0.18-0.165-3.165,0,1,0,90,false,stim,false,2,2273.0000000001164,0,0,2,44466,WMM1,888733,false,false,683,image-keyboard-response,30
false,4,-1,3,1,false,z,true,false,0.0-2.0-0.18-0.166-3.166,0,1,0,,false,stim,false,1,,0,1,1,44466,WMM1,893239,false,false,686,image-keyboard-response,31
true,4,1,3,1,true,z,false,true,0.0-2.0-0.18-0.167-3.167,0,1,0,90,false,stim,false,1,931.0,0,1,1,44466,WMM1,895676,false,false,689,image-keyboard-response,32
true,4,1,3,1,true,z,false,false,0.0-2.0-0.18-0.168-3.168,0,1,0,90,false,stim,false,2,1623.0,0,0,2,44466,WMM1,898804,false,true,692,image-keyboard-response,33
true,4,1,3,1,true,z,false,true,0.0-2.0-0.18-0.169-3.169,0,1,0,90,false,stim,false,1,2774.0,0,1,1,44466,WMM1,903084,false,false,695,image-keyboard-response,34
true,4,2,3,2,true,d,false,true,0.0-2.0-0.18-0.170-3.170,0,1,0,68,false,stim,false,0,1692.0,0,1,0,44466,WMM1,906284,false,false,698,image-keyboard-response,35
true,4,2,3,1,false,z,true,false,0.0-2.0-0.19-0.171-3.171,0,1,0,68,false,stim,false,1,1607.9999999998836,0,0,1,44466,WMM1,909404,false,false,701,image-keyboard-response,36
true,4,2,3,2,true,d,false,true,0.0-2.0-0.19-0.172-3.172,0,1,0,68,false,stim,false,0,1949.0,0,1,0,44466,WMM1,912859,false,false,704,image-keyboard-response,37
true,4,1,3,1,true,z,false,false,0.0-2.0-0.19-0.173-3.173,0,1,0,90,false,stim,false,2,2334.0,0,0,2,44466,WMM1,916698,false,true,707,image-keyboard-response,38
true,4,2,3,1,false,z,false,false,0.0-2.0-0.19-0.174-3.174,0,1,0,68,false,stim,true,2,894.0,0,0,2,44466,WMM1,919097,false,false,710,image-keyboard-response,39
true,4,2,3,2,true,d,false,true,0.0-2.0-0.19-0.175-3.175,0,1,0,68,false,stim,false,0,1488.0000000001164,0,1,0,44466,WMM1,922089,false,false,713,image-keyboard-response,40
true,4,2,3,2,true,d,false,true,0.0-2.0-0.19-0.176-3.176,0,1,0,68,false,stim,false,0,1288.0,0,1,0,44466,WMM1,924883,false,false,716,image-keyboard-response,41
true,4,0,3,1,false,z,true,false,0.0-2.0-0.19-0.177-3.177,0,1,0,81,false,stim,false,2,1767.0,0,0,2,44466,WMM1,928155,false,false,719,image-keyboard-response,42
true,4,1,3,1,true,z,false,true,0.0-2.0-0.19-0.178-3.178,0,1,0,90,false,stim,false,1,1919.0000000001164,0,0,1,44466,WMM1,931579,false,false,722,image-keyboard-response,43
true,4,1,3,1,true,z,false,true,0.0-2.0-0.19-0.179-3.179,0,1,0,90,false,stim,false,1,1039.0,0,0,1,44466,WMM1,934124,false,false,725,image-keyboard-response,44
true,5,1,3,2,false,d,false,false,0.0-2.0-0.20-0.180-3.180,1,0,0,90,true,stim,true,1,725.0,0,0,1,44466,WMM1,936355,false,false,728,image-keyboard-response,1
true,5,2,3,2,true,d,false,true,0.0-2.0-0.20-0.181-3.181,1,0,0,68,false,stim,false,2,1727.0,0,1,0,44466,WMM1,939589,false,false,731,image-keyboard-response,2
true,5,2,3,2,true,d,false,true,0.0-2.0-0.20-0.182-3.182,1,0,0,68,false,stim,false,1,2336.9999999998836,0,0,1,44466,WMM1,943431,false,false,734,image-keyboard-response,3
true,5,2,3,2,true,d,false,true,0.0-2.0-0.20-0.183-3.183,1,0,0,68,false,stim,false,2,1324.9999999998836,0,1,0,44466,WMM1,946260,false,false,737,image-keyboard-response,4
true,5,2,3,0,false,q,true,false,0.0-2.0-0.20-0.184-3.184,1,0,0,68,false,stim,false,1,1663.0,0,0,2,44466,WMM1,949428,false,false,740,image-keyboard-response,5
true,5,1,3,0,false,q,false,false,0.0-2.0-0.20-0.185-3.185,1,0,0,90,false,stim,true,1,1702.0,0,0,2,44466,WMM1,952635,false,false,743,image-keyboard-response,6
true,5,2,3,2,true,d,false,true,0.0-2.0-0.20-0.186-3.186,1,0,0,68,false,stim,false,1,2144.0,0,0,1,44466,WMM1,956284,false,false,746,image-keyboard-response,7
true,5,2,3,2,true,d,false,true,0.0-2.0-0.20-0.187-3.187,1,0,0,68,false,stim,false,2,1858.0,0,1,0,44466,WMM1,959653,false,false,749,image-keyboard-response,8
true,5,0,3,0,true,q,false,true,0.0-2.0-0.20-0.188-3.188,1,0,0,81,false,stim,false,1,1825.0,0,0,2,44466,WMM1,962989,false,false,752,image-keyboard-response,9
false,5,-1,3,2,false,d,true,true,0.0-2.0-0.21-0.189-3.189,1,0,0,,false,stim,false,1,,0,0,1,44466,WMM1,967496,false,true,755,image-keyboard-response,10
false,5,-1,3,0,false,q,true,false,0.0-2.0-0.21-0.190-3.190,1,0,0,,false,stim,false,1,,0,0,2,44466,WMM1,972003,false,false,758,image-keyboard-response,11
true,5,2,3,2,true,d,false,true,0.0-2.0-0.21-0.191-3.191,1,0,0,68,false,stim,false,1,1822.0,0,0,1,44466,WMM1,975332,false,false,761,image-keyboard-response,12
true,5,2,3,2,true,d,false,true,0.0-2.0-0.21-0.192-3.192,1,0,0,68,false,stim,false,2,2303.0,0,1,0,44466,WMM1,979140,false,false,764,image-keyboard-response,13
false,5,-1,3,0,false,q,true,false,0.0-2.0-0.21-0.193-3.193,1,0,0,,false,stim,false,1,,0,0,2,44466,WMM1,983646,false,false,767,image-keyboard-response,14
true,5,2,3,2,true,d,false,true,0.0-2.0-0.21-0.194-3.194,1,0,0,68,false,stim,false,2,1459.0,0,1,0,44466,WMM1,986612,false,false,770,image-keyboard-response,15
true,5,2,3,2,true,d,false,true,0.0-2.0-0.21-0.195-3.195,1,0,0,68,false,stim,false,2,766.0,0,1,0,44466,WMM1,988883,false,false,773,image-keyboard-response,16
true,5,1,3,0,false,q,false,false,0.0-2.0-0.21-0.196-3.196,1,0,0,90,false,stim,true,1,1998.0,0,0,2,44466,WMM1,992388,false,false,776,image-keyboard-response,17
true,5,2,3,2,true,d,false,false,0.0-2.0-0.21-0.197-3.197,1,0,0,68,false,stim,false,1,2021.0,0,0,1,44466,WMM1,995914,false,true,779,image-keyboard-response,18
false,5,-1,3,0,false,q,true,false,0.0-2.0-0.22-0.198-3.198,1,0,0,,false,stim,false,1,,0,0,2,44466,WMM1,1000421,false,false,782,image-keyboard-response,19
true,5,2,3,2,true,d,false,true,0.0-2.0-0.22-0.199-3.199,1,0,0,68,false,stim,false,2,1413.0,0,1,0,44466,WMM1,1003340,false,false,785,image-keyboard-response,20
true,5,2,3,2,true,d,false,true,0.0-2.0-0.22-0.200-3.200,1,0,0,68,false,stim,false,1,2045.0,0,0,1,44466,WMM1,1006893,false,false,788,image-keyboard-response,21
true,5,2,3,2,true,d,false,true,0.0-2.0-0.22-0.201-3.201,1,0,0,68,false,stim,false,2,1675.0,0,1,0,44466,WMM1,1010075,false,false,791,image-keyboard-response,22
true,5,1,3,0,false,q,false,false,0.0-2.0-0.22-0.202-3.202,1,0,0,90,false,stim,true,1,2236.0,0,0,2,44466,WMM1,1013817,false,false,794,image-keyboard-response,23
true,5,2,3,2,true,d,false,true,0.0-2.0-0.22-0.203-3.203,1,0,0,68,false,stim,false,1,936.0,0,0,1,44466,WMM1,1016259,false,false,797,image-keyboard-response,24
true,5,0,3,0,true,q,false,false,0.0-2.0-0.22-0.204-3.204,1,0,0,81,false,stim,false,1,1088.0000000001164,0,0,2,44466,WMM1,1018853,false,true,800,image-keyboard-response,25
true,5,2,3,2,true,d,false,true,0.0-2.0-0.22-0.205-3.205,1,0,0,68,false,stim,false,1,2118.0000000001164,0,0,1,44466,WMM1,1022483,false,false,803,image-keyboard-response,26
true,5,2,3,2,true,d,false,true,0.0-2.0-0.22-0.206-3.206,1,0,0,68,false,stim,false,2,703.0,0,1,0,44466,WMM1,1024693,false,false,806,image-keyboard-response,27
true,5,2,3,2,true,d,false,true,0.0-2.0-0.23-0.207-3.207,1,0,0,68,false,stim,false,2,1891.0000000001164,0,1,0,44466,WMM1,1028092,false,false,809,image-keyboard-response,28
true,5,2,3,2,true,d,false,true,0.0-2.0-0.23-0.208-3.208,1,0,0,68,false,stim,false,2,734.0,0,1,0,44466,WMM1,1030332,false,false,812,image-keyboard-response,29
true,5,0,3,0,true,q,false,true,0.0-2.0-0.23-0.209-3.209,1,0,0,81,false,stim,false,1,2154.9999999998836,0,0,2,44466,WMM1,1033995,false,false,815,image-keyboard-response,30
true,5,2,3,2,true,d,false,true,0.0-2.0-0.23-0.210-3.210,1,0,0,68,false,stim,false,1,1780.9999999998836,0,0,1,44466,WMM1,1037283,false,false,818,image-keyboard-response,31
true,5,2,3,2,true,d,false,true,0.0-2.0-0.23-0.211-3.211,1,0,0,68,false,stim,false,2,1430.9999999997672,0,0,0,44466,WMM1,1040220,false,false,821,image-keyboard-response,32
true,5,0,3,0,true,q,false,true,0.0-2.0-0.23-0.212-3.212,1,0,0,81,false,stim,false,1,580.9999999998836,0,0,2,44466,WMM1,1042307,false,false,824,image-keyboard-response,33
true,5,0,3,0,true,q,false,true,0.0-2.0-0.23-0.213-3.213,1,0,0,81,false,stim,false,1,839.9999999998836,0,0,2,44466,WMM1,1044653,false,false,827,image-keyboard-response,34
true,5,2,3,2,true,d,false,true,0.0-2.0-0.23-0.214-3.214,1,0,0,68,false,stim,false,1,574.0,0,0,1,44466,WMM1,1046732,false,false,830,image-keyboard-response,35
true,5,2,3,2,true,d,false,true,0.0-2.0-0.23-0.215-3.215,1,0,0,68,false,stim,false,1,574.0,0,0,1,44466,WMM1,1048813,false,false,833,image-keyboard-response,36
true,5,0,3,0,true,q,false,false,0.0-2.0-0.24-0.216-3.216,1,0,0,81,false,stim,false,1,1070.0,0,0,2,44466,WMM1,1051388,false,true,836,image-keyboard-response,37
true,5,2,3,2,true,d,false,true,0.0-2.0-0.24-0.217-3.217,1,0,0,68,false,stim,false,1,2109.0,0,0,1,44466,WMM1,1055004,false,false,839,image-keyboard-response,38
true,5,2,3,2,true,d,false,true,0.0-2.0-0.24-0.218-3.218,1,0,0,68,false,stim,false,2,1774.0,0,0,0,44466,WMM1,1058284,false,false,842,image-keyboard-response,39
true,5,2,3,2,true,d,false,true,0.0-2.0-0.24-0.219-3.219,1,0,0,68,false,stim,false,2,999.0,0,0,0,44466,WMM1,1060789,false,false,845,image-keyboard-response,40
true,6,2,2,1,false,z,false,false,0.0-2.0-0.24-0.220-3.220,0,0,0,68,true,stim,true,2,730.0,0,0,1,44466,WMM1,1063025,false,false,848,image-keyboard-response,1
true,6,1,2,1,true,z,false,true,0.0-2.0-0.24-0.221-3.221,0,0,0,90,false,stim,false,2,902.0,0,0,1,44466,WMM1,1065433,false,false,851,image-keyboard-response,2
true,6,1,2,2,false,d,true,false,0.0-2.0-0.24-0.222-3.222,0,0,0,90,false,stim,false,0,1953.0,0,0,2,44466,WMM1,1068892,false,false,854,image-keyboard-response,3
true,6,2,2,0,false,q,false,false,0.0-2.0-0.24-0.223-3.223,0,0,0,68,false,stim,true,2,1264.0,0,0,0,44466,WMM1,1071660,false,false,857,image-keyboard-response,4
true,6,0,2,2,false,d,false,false,0.0-2.0-0.24-0.224-3.224,0,0,0,81,false,stim,true,0,1503.0,0,0,2,44466,WMM1,1074668,false,false,860,image-keyboard-response,5
true,6,2,2,2,true,d,false,true,0.0-2.0-0.25-0.225-3.225,0,0,0,68,false,stim,false,0,734.9999999997672,0,0,2,44466,WMM1,1076908,false,false,863,image-keyboard-response,6
false,6,-1,2,1,false,z,true,false,0.0-2.0-0.25-0.226-3.226,0,0,0,,false,stim,false,2,,0,0,1,44466,WMM1,1081414,false,false,866,image-keyboard-response,7
true,6,1,2,1,true,z,false,true,0.0-2.0-0.25-0.227-3.227,0,0,0,90,false,stim,false,2,2563.0,0,0,1,44466,WMM1,1085483,false,false,869,image-keyboard-response,8
true,6,1,2,0,false,q,true,false,0.0-2.0-0.25-0.228-3.228,0,0,0,90,false,stim,false,2,2023.0,0,0,0,44466,WMM1,1089012,false,false,872,image-keyboard-response,9
true,6,1,2,1,true,z,false,true,0.0-2.0-0.25-0.229-3.229,0,0,0,90,false,stim,false,2,2335.0,0,0,1,44466,WMM1,1092852,false,false,875,image-keyboard-response,10
true,6,2,2,2,true,d,false,true,0.0-2.0-0.25-0.230-3.230,0,0,0,68,false,stim,false,0,2439.0,0,0,2,44466,WMM1,1096796,false,false,878,image-keyboard-response,11
true,6,2,2,2,true,d,false,false,0.0-2.0-0.25-0.231-3.231,0,0,0,68,false,stim,false,0,943.0,0,0,2,44466,WMM1,1099244,false,true,881,image-keyboard-response,12
true,6,0,2,0,true,q,false,false,0.0-2.0-0.25-0.232-3.232,0,0,0,81,false,stim,false,2,2631.0,0,0,0,44466,WMM1,1103380,false,true,884,image-keyboard-response,13
true,6,1,2,0,false,q,true,false,0.0-2.0-0.25-0.233-3.233,0,0,0,90,false,stim,false,2,1919.0,0,0,0,44466,WMM1,1106804,false,false,887,image-keyboard-response,14
true,6,2,2,0,false,q,false,false,0.0-2.0-0.26-0.234-3.234,0,0,0,68,false,stim,true,2,651.0,0,0,0,44466,WMM1,1108962,false,false,890,image-keyboard-response,15
false,6,-1,2,2,false,d,true,false,0.0-2.0-0.26-0.235-3.235,0,0,0,,false,stim,false,0,,0,0,2,44466,WMM1,1113470,false,false,893,image-keyboard-response,16
false,6,-1,2,1,false,z,true,false,0.0-2.0-0.26-0.236-3.236,0,0,0,,false,stim,false,2,,0,0,1,44466,WMM1,1117976,false,false,896,image-keyboard-response,17
true,6,2,2,0,false,q,false,false,0.0-2.0-0.26-0.237-3.237,0,0,0,68,false,stim,true,2,2032.9999999997672,0,0,0,44466,WMM1,1121514,false,false,899,image-keyboard-response,18
true,6,1,2,1,true,z,false,true,0.0-2.0-0.26-0.238-3.238,0,0,0,90,false,stim,false,2,1441.0,0,0,1,44466,WMM1,1124468,false,false,902,image-keyboard-response,19
true,6,1,2,1,true,z,false,true,0.0-2.0-0.26-0.239-3.239,0,0,0,90,false,stim,false,2,734.0,0,0,1,44466,WMM1,1126709,false,false,905,image-keyboard-response,20
true,6,2,2,2,true,d,false,false,0.0-2.0-0.26-0.240-3.240,0,0,0,68,false,stim,false,0,1244.0,0,0,2,44466,WMM1,1129459,false,true,908,image-keyboard-response,21
true,6,1,2,2,false,d,true,false,0.0-2.0-0.26-0.241-3.241,0,0,0,90,false,stim,false,0,809.0,0,0,2,44466,WMM1,1131773,false,false,911,image-keyboard-response,22
true,6,2,2,0,false,q,false,false,0.0-2.0-0.26-0.242-3.242,0,0,0,68,false,stim,true,2,2164.999999999767,0,0,0,44466,WMM1,1135444,false,false,914,image-keyboard-response,23
true,6,0,2,2,false,d,false,false,0.0-2.0-0.27-0.243-3.243,0,0,0,81,false,stim,true,0,1067.9999999997672,0,0,2,44466,WMM1,1138019,false,false,917,image-keyboard-response,24
true,6,1,2,1,true,z,false,false,0.0-2.0-0.27-0.244-3.244,0,0,0,90,false,stim,false,2,1828.0,0,0,1,44466,WMM1,1141355,false,true,920,image-keyboard-response,25
true,6,0,2,1,false,z,true,true,0.0-2.0-0.27-0.245-3.245,0,0,0,81,false,stim,false,2,773.0,0,0,1,44466,WMM1,1143634,false,true,923,image-keyboard-response,26
true,6,0,2,0,true,q,false,true,0.0-2.0-0.27-0.246-3.246,0,0,0,81,false,stim,false,2,1317.0,0,0,0,44466,WMM1,1146458,false,false,926,image-keyboard-response,27
true,6,0,2,2,false,d,false,false,0.0-2.0-0.27-0.247-3.247,0,0,0,81,false,stim,true,0,1670.0,0,0,2,44466,WMM1,1149635,false,false,929,image-keyboard-response,28
true,6,0,2,0,true,q,false,true,0.0-2.0-0.27-0.248-3.248,0,0,0,81,false,stim,false,2,799.0,0,0,0,44466,WMM1,1151940,false,false,932,image-keyboard-response,29
true,6,0,2,0,true,q,false,true,0.0-2.0-0.27-0.249-3.249,0,0,0,81,false,stim,false,2,1117.0,0,0,0,44466,WMM1,1154563,false,false,935,image-keyboard-response,30
true,6,2,2,2,true,d,false,true,0.0-2.0-0.27-0.250-3.250,0,0,0,68,false,stim,false,0,1406.0,0,0,2,44466,WMM1,1157475,false,false,938,image-keyboard-response,31
true,6,0,2,1,false,z,true,false,0.0-2.0-0.27-0.251-3.251,0,0,0,81,false,stim,false,2,1773.9999999997672,0,0,1,44466,WMM1,1160755,false,false,941,image-keyboard-response,32
true,6,2,2,2,true,d,false,true,0.0-2.0-0.28-0.252-3.252,0,0,0,68,false,stim,false,0,1038.0,0,0,2,44466,WMM1,1163300,false,false,944,image-keyboard-response,33
true,6,1,2,1,true,z,false,true,0.0-2.0-0.28-0.253-3.253,0,0,0,90,false,stim,false,2,787.0,0,0,1,44466,WMM1,1165595,false,false,947,image-keyboard-response,34
true,6,2,2,2,true,d,false,false,0.0-2.0-0.28-0.254-3.254,0,0,0,68,false,stim,false,0,1797.0,0,0,2,44466,WMM1,1168900,false,true,950,image-keyboard-response,35
true,6,0,2,0,true,q,false,true,0.0-2.0-0.28-0.255-3.255,0,0,0,81,false,stim,false,2,1652.0,0,0,0,44466,WMM1,1172060,false,false,953,image-keyboard-response,36
true,6,1,2,1,true,z,false,true,0.0-2.0-0.28-0.256-3.256,0,0,0,90,false,stim,false,2,1548.0,0,0,1,44466,WMM1,1175116,false,false,956,image-keyboard-response,37
true,6,0,2,0,true,q,false,true,0.0-2.0-0.28-0.257-3.257,0,0,0,81,false,stim,false,2,1669.0,0,0,0,44466,WMM1,1178293,false,false,959,image-keyboard-response,38
true,6,2,2,2,true,d,false,true,0.0-2.0-0.28-0.258-3.258,0,0,0,68,false,stim,false,0,1165.0,0,0,2,44466,WMM1,1180964,false,false,962,image-keyboard-response,39
true,6,0,2,0,true,q,false,true,0.0-2.0-0.28-0.259-3.259,0,0,0,81,false,stim,false,2,1286.0,0,0,0,44466,WMM1,1183755,false,false,965,image-keyboard-response,40
true,6,1,2,1,true,z,false,true,0.0-2.0-0.28-0.260-3.260,0,0,0,90,false,stim,false,2,1445.0,0,0,1,44466,WMM1,1186706,false,false,968,image-keyboard-response,41
true,6,2,2,2,true,d,false,true,0.0-2.0-0.29-0.261-3.261,0,0,0,68,false,stim,false,0,1782.0,0,0,2,44466,WMM1,1189995,false,false,971,image-keyboard-response,42
true,6,1,2,1,true,z,false,true,0.0-2.0-0.29-0.262-3.262,0,0,0,90,false,stim,false,2,1327.0,0,0,1,44466,WMM1,1192828,false,false,974,image-keyboard-response,43
true,6,1,2,1,true,z,false,true,0.0-2.0-0.29-0.263-3.263,0,0,0,90,false,stim,false,2,782.0,0,0,1,44466,WMM1,1195115,false,false,977,image-keyboard-response,44
true,6,2,2,2,true,d,false,true,0.0-2.0-0.29-0.264-3.264,0,0,0,68,false,stim,false,0,1263.0000000002328,0,0,2,44466,WMM1,1197884,false,false,980,image-keyboard-response,45
true,6,0,2,0,true,q,false,true,0.0-2.0-0.29-0.265-3.265,0,0,0,81,false,stim,false,2,1199.0,0,0,0,44466,WMM1,1200589,false,false,983,image-keyboard-response,46
true,6,1,2,1,true,z,false,true,0.0-2.0-0.29-0.266-3.266,0,0,0,90,false,stim,false,2,1391.0,0,0,1,44466,WMM1,1203484,false,false,986,image-keyboard-response,47
true,7,0,1,1,false,z,false,true,0.0-2.0-0.29-0.267-3.267,0,0,0,81,true,stim,true,0,1198.0,0,0,0,44466,WMM1,1206189,false,true,989,image-keyboard-response,1
true,7,2,1,1,false,z,false,false,0.0-2.0-0.29-0.268-3.268,0,0,0,68,false,stim,true,2,1477.0,0,0,2,44466,WMM1,1209172,false,false,992,image-keyboard-response,2
true,7,0,1,1,false,z,false,false,0.0-2.0-0.29-0.269-3.269,0,0,0,81,false,stim,true,0,1501.0,0,0,0,44466,WMM1,1212180,false,false,995,image-keyboard-response,3
true,7,1,1,1,true,z,false,true,0.0-2.0-0.30-0.270-3.270,0,0,0,90,false,stim,false,2,2437.0,0,0,2,44466,WMM1,1216125,false,false,998,image-keyboard-response,4
true,7,1,1,2,false,d,false,false,0.0-2.0-0.30-0.271-3.271,0,0,0,90,false,stim,true,1,1311.0,0,0,1,44466,WMM1,1218948,false,false,1001,image-keyboard-response,5
true,7,0,1,1,false,z,true,false,0.0-2.0-0.30-0.272-3.272,0,0,0,81,false,stim,false,2,2319.0,0,0,2,44466,WMM1,1222773,false,false,1004,image-keyboard-response,6
true,7,2,1,2,true,d,false,true,0.0-2.0-0.30-0.273-3.273,0,0,0,68,false,stim,false,1,1804.9999999997672,0,0,1,44466,WMM1,1226085,false,false,1007,image-keyboard-response,7
true,7,2,1,1,false,z,true,false,0.0-2.0-0.30-0.274-3.274,0,0,0,68,false,stim,false,0,1821.0,0,0,0,44466,WMM1,1229412,false,false,1010,image-keyboard-response,8
true,7,0,1,1,false,z,false,false,0.0-2.0-0.30-0.275-3.275,0,0,0,81,false,stim,true,0,1534.0,0,0,0,44466,WMM1,1232453,false,false,1013,image-keyboard-response,9
true,7,1,1,1,true,z,false,true,0.0-2.0-0.30-0.276-3.276,0,0,0,90,false,stim,false,2,1676.0,0,0,2,44466,WMM1,1235635,false,false,1016,image-keyboard-response,10
true,7,2,1,2,true,d,false,true,0.0-2.0-0.30-0.277-3.277,0,0,0,68,false,stim,false,1,1374.0,0,0,1,44466,WMM1,1238515,false,false,1019,image-keyboard-response,11
true,7,1,1,1,true,z,false,true,0.0-2.0-0.30-0.278-3.278,0,0,0,90,false,stim,false,0,1207.0,0,0,0,44466,WMM1,1241228,false,false,1022,image-keyboard-response,12
true,7,1,1,1,true,z,false,true,0.0-2.0-0.31-0.279-3.279,0,0,0,90,false,stim,false,0,2069.0,0,0,0,44466,WMM1,1244804,false,false,1025,image-keyboard-response,13
true,7,2,1,2,true,d,false,true,0.0-2.0-0.31-0.280-3.280,0,0,0,68,false,stim,false,1,1124.0,0,0,1,44466,WMM1,1247434,false,false,1028,image-keyboard-response,14
true,7,2,1,2,true,d,false,true,0.0-2.0-0.31-0.281-3.281,0,0,0,68,false,stim,false,1,640.0,0,0,1,44466,WMM1,1249580,false,false,1031,image-keyboard-response,15
true,7,1,1,1,true,z,false,true,0.0-2.0-0.31-0.282-3.282,0,0,0,90,false,stim,false,2,1546.0,0,0,2,44466,WMM1,1252633,false,false,1034,image-keyboard-response,16
true,7,1,1,1,true,z,false,true,0.0-2.0-0.31-0.283-3.283,0,0,0,90,false,stim,false,2,1153.0,0,0,2,44466,WMM1,1255292,false,false,1037,image-keyboard-response,17
true,7,1,1,1,true,z,false,true,0.0-2.0-0.31-0.284-3.284,0,0,0,90,false,stim,false,0,1854.0,0,0,0,44466,WMM1,1258651,false,false,1040,image-keyboard-response,18
true,7,1,1,1,true,z,false,true,0.0-2.0-0.31-0.285-3.285,0,0,0,90,false,stim,false,0,727.0000000002328,0,0,0,44466,WMM1,1260884,false,false,1043,image-keyboard-response,19
true,7,2,1,2,true,d,false,true,0.0-2.0-0.31-0.286-3.286,0,0,0,68,false,stim,false,1,1078.0,0,0,1,44466,WMM1,1263468,false,false,1046,image-keyboard-response,20
true,7,1,1,1,true,z,false,true,0.0-2.0-0.31-0.287-3.287,0,0,0,90,false,stim,false,2,1829.0,0,0,2,44466,WMM1,1266804,false,false,1049,image-keyboard-response,21
true,7,1,1,1,true,z,false,true,0.0-2.0-0.32-0.288-3.288,0,0,0,90,false,stim,false,2,1403.0,0,0,2,44466,WMM1,1269714,false,false,1052,image-keyboard-response,22
true,7,2,1,2,true,d,false,true,0.0-2.0-0.32-0.289-3.289,0,0,0,68,false,stim,false,1,1376.0,0,0,1,44466,WMM1,1272595,false,false,1055,image-keyboard-response,23
true,7,1,1,1,true,z,false,true,0.0-2.0-0.32-0.290-3.290,0,0,0,90,false,stim,false,2,1487.0,0,0,2,44466,WMM1,1275588,false,false,1058,image-keyboard-response,24
true,7,1,1,1,true,z,false,false,0.0-2.0-0.32-0.291-3.291,0,0,0,90,false,stim,false,0,1669.0,0,0,0,44466,WMM1,1278764,false,true,1061,image-keyboard-response,25
true,7,2,1,1,false,z,true,false,0.0-2.0-0.32-0.292-3.292,0,0,0,68,false,stim,false,0,1262.0,0,0,0,44466,WMM1,1281532,false,false,1064,image-keyboard-response,26
true,7,2,1,2,true,d,false,true,0.0-2.0-0.32-0.293-3.293,0,0,0,68,false,stim,false,1,2848.0,0,0,1,44466,WMM1,1285885,false,false,1067,image-keyboard-response,27
true,7,2,1,2,true,d,false,true,0.0-2.0-0.32-0.294-3.294,0,0,0,68,false,stim,false,1,1069.0,0,0,1,44466,WMM1,1288460,false,false,1070,image-keyboard-response,28
true,7,0,1,1,false,z,false,false,0.0-2.0-0.32-0.295-3.295,0,0,0,81,false,stim,true,0,646.0,0,0,0,44466,WMM1,1290612,false,false,1073,image-keyboard-response,29
true,7,1,1,1,true,z,false,true,0.0-2.0-0.32-0.296-3.296,0,0,0,90,false,stim,false,2,1982.0,0,0,2,44466,WMM1,1294100,false,false,1076,image-keyboard-response,30
true,8,0,2,0,true,q,false,true,0.0-2.0-0.33-0.297-3.297,0,0,0,81,true,stim,false,1,1996.0,0,0,0,44466,WMM1,1297604,false,false,1079,image-keyboard-response,1
true,8,2,2,1,false,z,false,false,0.0-2.0-0.33-0.298-3.298,0,0,0,68,false,stim,true,2,2340.0,0,0,1,44466,WMM1,1301451,false,false,1082,image-keyboard-response,2
true,8,1,2,2,false,d,false,false,0.0-2.0-0.33-0.299-3.299,0,0,0,90,false,stim,true,1,1199.0,0,0,2,44466,WMM1,1304155,false,false,1085,image-keyboard-response,3
true,8,0,2,0,true,q,false,true,0.0-2.0-0.33-0.300-3.300,0,0,0,81,false,stim,false,1,1983.0000000002328,0,0,0,44466,WMM1,1307644,false,false,1088,image-keyboard-response,4
true,8,0,2,0,true,q,false,true,0.0-2.0-0.33-0.301-3.301,0,0,0,81,false,stim,false,1,821.0,0,0,0,44466,WMM1,1309972,false,false,1091,image-keyboard-response,5
true,8,1,2,2,false,d,false,false,0.0-2.0-0.33-0.302-3.302,0,0,0,90,false,stim,true,1,1819.0000000002328,0,0,2,44466,WMM1,1313298,false,false,1094,image-keyboard-response,6
true,8,1,2,1,true,z,false,true,0.0-2.0-0.33-0.303-3.303,0,0,0,90,false,stim,false,2,2965.0,0,0,1,44466,WMM1,1317771,false,false,1097,image-keyboard-response,7
true,8,2,2,2,true,d,false,true,0.0-2.0-0.33-0.304-3.304,0,0,0,68,false,stim,false,1,1856.0,0,0,2,44466,WMM1,1321132,false,false,1100,image-keyboard-response,8
true,8,1,2,1,true,z,false,true,0.0-2.0-0.33-0.305-3.305,0,0,0,90,false,stim,false,2,1558.0,0,0,1,44466,WMM1,1324205,false,false,1103,image-keyboard-response,9
true,8,1,2,1,true,z,false,true,0.0-2.0-0.34-0.306-3.306,0,0,0,90,false,stim,false,2,958.0,0,0,1,44466,WMM1,1326668,false,false,1106,image-keyboard-response,10
true,8,0,2,0,true,q,false,false,0.0-2.0-0.34-0.307-3.307,0,0,0,81,false,stim,false,1,1420.0,0,0,0,44466,WMM1,1329595,false,true,1109,image-keyboard-response,11
true,8,1,2,1,true,z,false,true,0.0-2.0-0.34-0.308-3.308,0,0,0,90,false,stim,false,2,2191.0,0,0,1,44466,WMM1,1333292,false,false,1112,image-keyboard-response,12
true,8,2,2,2,true,d,false,true,0.0-2.0-0.34-0.309-3.309,0,0,0,68,false,stim,false,1,581.0,0,0,2,44466,WMM1,1335380,false,false,1115,image-keyboard-response,13
true,8,2,2,2,true,d,false,true,0.0-2.0-0.34-0.310-3.310,0,0,0,68,false,stim,false,1,1414.0,0,0,2,44466,WMM1,1338300,false,false,1118,image-keyboard-response,14
true,8,2,2,0,false,q,true,false,0.0-2.0-0.34-0.311-3.311,0,0,0,68,false,stim,false,1,636.9999999997672,0,0,0,44466,WMM1,1340444,false,false,1121,image-keyboard-response,15
true,8,2,2,2,true,d,false,true,0.0-2.0-0.34-0.312-3.312,0,0,0,68,false,stim,false,1,1035.9999999997672,0,0,2,44466,WMM1,1342988,false,false,1124,image-keyboard-response,16
true,8,1,2,1,true,z,false,true,0.0-2.0-0.34-0.313-3.313,0,0,0,90,false,stim,false,2,1095.0,0,0,1,44466,WMM1,1345588,false,false,1127,image-keyboard-response,17
true,8,0,2,0,true,q,false,true,0.0-2.0-0.34-0.314-3.314,0,0,0,81,false,stim,false,1,701.0,0,0,0,44466,WMM1,1347794,false,false,1130,image-keyboard-response,18
true,8,1,2,1,true,z,false,true,0.0-2.0-0.35-0.315-3.315,0,0,0,90,false,stim,false,2,1600.0,0,0,1,44466,WMM1,1350900,false,false,1133,image-keyboard-response,19
true,8,2,2,2,true,d,false,true,0.0-2.0-0.35-0.316-3.316,0,0,0,68,false,stim,false,1,1550.0,0,0,2,44466,WMM1,1353956,false,false,1136,image-keyboard-response,20
true,8,1,2,1,true,z,false,true,0.0-2.0-0.35-0.317-3.317,0,0,0,90,false,stim,false,2,1212.0,0,0,1,44466,WMM1,1356676,false,false,1139,image-keyboard-response,21
true,8,0,2,0,true,q,false,true,0.0-2.0-0.35-0.318-3.318,0,0,0,81,false,stim,false,1,1125.0,0,0,0,44466,WMM1,1359308,false,false,1142,image-keyboard-response,22
true,8,2,2,2,true,d,false,false,0.0-2.0-0.35-0.319-3.319,0,0,0,68,false,stim,false,1,1213.0,0,1,2,44466,WMM1,1362028,false,true,1145,image-keyboard-response,23
true,8,0,2,0,true,q,false,true,0.0-2.0-0.35-0.320-3.320,0,0,0,81,false,stim,false,1,1165.0,0,0,0,44466,WMM1,1364700,false,false,1148,image-keyboard-response,24
true,8,1,2,1,true,z,false,true,0.0-2.0-0.35-0.321-3.321,0,0,0,90,false,stim,false,2,1357.0,0,0,1,44466,WMM1,1367564,false,false,1151,image-keyboard-response,25
true,8,1,2,2,false,d,false,false,0.0-2.0-0.35-0.322-3.322,0,0,0,90,false,stim,true,1,637.0,0,1,2,44466,WMM1,1369709,false,false,1154,image-keyboard-response,26
true,8,0,2,0,true,q,false,true,0.0-2.0-0.35-0.323-3.323,0,0,0,81,false,stim,false,1,2085.0,0,0,0,44466,WMM1,1373300,false,false,1157,image-keyboard-response,27
true,8,1,2,1,true,z,false,true,0.0-2.0-0.36-0.324-3.324,0,0,0,90,false,stim,false,2,1322.0,0,0,1,44466,WMM1,1376131,false,false,1160,image-keyboard-response,28
true,8,0,2,2,false,d,true,false,0.0-2.0-0.36-0.325-3.325,0,0,0,81,false,stim,false,1,686.0,0,1,2,44466,WMM1,1378324,false,false,1163,image-keyboard-response,29
true,8,1,2,1,true,z,false,true,0.0-2.0-0.36-0.326-3.326,0,0,0,90,false,stim,false,2,1644.0,0,0,1,44466,WMM1,1381475,false,false,1166,image-keyboard-response,30
true,8,2,2,0,false,q,true,false,0.0-2.0-0.36-0.327-3.327,0,0,0,68,false,stim,false,1,1527.9999999997672,0,0,0,44466,WMM1,1384508,false,false,1169,image-keyboard-response,31
true,8,1,2,1,true,z,false,true,0.0-2.0-0.36-0.328-3.328,0,0,0,90,false,stim,false,2,1808.0,0,0,1,44466,WMM1,1387820,false,false,1172,image-keyboard-response,32
true,9,0,3,1,false,z,false,false,0.0-2.0-0.36-0.329-3.329,0,0,1,81,true,stim,true,0,2052.999999999767,0,0,0,44466,WMM1,1391380,false,false,1175,image-keyboard-response,1
true,9,2,3,2,true,d,false,true,0.0-2.0-0.36-0.330-3.330,0,0,1,68,false,stim,false,2,1599.0,0,1,2,44466,WMM1,1394484,false,false,1178,image-keyboard-response,2
true,9,2,3,2,true,d,false,true,0.0-2.0-0.36-0.331-3.331,0,0,1,68,false,stim,false,2,797.0000000002328,0,1,2,44466,WMM1,1396788,false,false,1181,image-keyboard-response,3
true,9,2,3,1,false,z,true,false,0.0-2.0-0.36-0.332-3.332,0,0,1,68,false,stim,false,0,501.0,0,0,0,44466,WMM1,1398796,false,false,1184,image-keyboard-response,4
true,9,1,3,2,false,d,false,false,0.0-2.0-0.37-0.333-3.333,0,0,1,90,false,stim,true,1,1224.9999999997672,0,0,1,44466,WMM1,1401532,false,false,1187,image-keyboard-response,5
true,9,2,3,1,false,z,true,false,0.0-2.0-0.37-0.334-3.334,0,0,1,68,false,stim,false,0,917.9999999997672,0,0,0,44466,WMM1,1403956,false,false,1190,image-keyboard-response,6
true,9,0,3,1,false,z,false,false,0.0-2.0-0.37-0.335-3.335,0,0,1,81,false,stim,true,0,637.0,0,0,0,44466,WMM1,1406100,false,false,1193,image-keyboard-response,7
true,9,2,3,2,true,d,false,true,0.0-2.0-0.37-0.336-3.336,0,0,1,68,false,stim,false,2,1708.0,0,1,2,44466,WMM1,1409315,false,false,1196,image-keyboard-response,8
true,9,2,3,2,true,d,false,true,0.0-2.0-0.37-0.337-3.337,0,0,1,68,false,stim,false,1,1372.0,0,0,1,44466,WMM1,1412195,false,false,1199,image-keyboard-response,9
true,9,2,3,2,true,d,false,true,0.0-2.0-0.37-0.338-3.338,0,0,1,68,false,stim,false,2,1748.9999999997672,0,1,2,44466,WMM1,1415460,false,false,1202,image-keyboard-response,10
true,9,0,3,1,false,z,false,false,0.0-2.0-0.37-0.339-3.339,0,0,1,81,false,stim,true,0,2396.0,0,0,0,44466,WMM1,1419363,false,false,1205,image-keyboard-response,11
true,9,2,3,2,true,d,false,true,0.0-2.0-0.37-0.340-3.340,0,0,1,68,false,stim,false,1,2141.0,0,0,1,44466,WMM1,1423012,false,false,1208,image-keyboard-response,12
true,9,2,3,2,true,d,false,true,0.0-2.0-0.37-0.341-3.341,0,0,1,68,false,stim,false,2,1708.9999999997672,0,1,2,44466,WMM1,1426228,false,false,1211,image-keyboard-response,13
true,9,2,3,2,true,d,false,true,0.0-2.0-0.38-0.342-3.342,0,0,1,68,false,stim,false,1,1299.0,0,0,1,44466,WMM1,1429034,false,false,1214,image-keyboard-response,14
true,9,2,3,1,false,z,true,false,0.0-2.0-0.38-0.343-3.343,0,0,1,68,false,stim,false,0,575.0000000002328,0,0,0,44466,WMM1,1431115,false,false,1217,image-keyboard-response,15
true,9,2,3,2,true,d,false,true,0.0-2.0-0.38-0.344-3.344,0,0,1,68,false,stim,false,2,2957.0,0,1,2,44466,WMM1,1435580,false,false,1220,image-keyboard-response,16
true,9,2,3,2,true,d,false,true,0.0-2.0-0.38-0.345-3.345,0,0,1,68,false,stim,false,2,908.9999999997672,0,1,2,44466,WMM1,1437996,false,false,1223,image-keyboard-response,17
true,9,2,3,2,true,d,false,true,0.0-2.0-0.38-0.346-3.346,0,0,1,68,false,stim,false,1,775.0,0,0,1,44466,WMM1,1440276,false,false,1226,image-keyboard-response,18
true,9,0,3,1,false,z,false,false,0.0-2.0-0.38-0.347-3.347,0,0,1,81,false,stim,true,0,1193.0,0,0,0,44466,WMM1,1442977,false,false,1229,image-keyboard-response,19
true,9,1,3,1,true,z,false,true,0.0-2.0-0.38-0.348-3.348,0,0,1,90,false,stim,false,0,1615.0,0,0,0,44466,WMM1,1446098,false,false,1232,image-keyboard-response,20
true,9,2,3,2,true,d,false,true,0.0-2.0-0.38-0.349-3.349,0,0,1,68,false,stim,false,2,2667.0,0,1,2,44466,WMM1,1450275,false,false,1235,image-keyboard-response,21
true,9,2,3,2,true,d,false,true,0.0-2.0-0.38-0.350-3.350,0,0,1,68,false,stim,false,1,612.0,0,0,1,44466,WMM1,1452395,false,false,1238,image-keyboard-response,22
true,9,1,3,1,true,z,false,false,0.0-2.0-0.39-0.351-3.351,0,0,1,90,false,stim,false,0,1274.0,0,0,0,44466,WMM1,1455180,false,true,1241,image-keyboard-response,23
true,9,2,3,2,true,d,false,true,0.0-2.0-0.39-0.352-3.352,0,0,1,68,false,stim,false,1,2236.0,0,0,1,44466,WMM1,1458925,false,false,1244,image-keyboard-response,24
true,9,1,3,2,false,d,false,false,0.0-2.0-0.39-0.353-3.353,0,0,1,90,false,stim,true,1,1660.0,0,0,1,44466,WMM1,1462091,false,false,1247,image-keyboard-response,25
true,9,2,3,2,true,d,false,false,0.0-2.0-0.39-0.354-3.354,0,0,1,68,false,stim,false,2,2861.0,0,0,2,44466,WMM1,1466460,false,true,1250,image-keyboard-response,26
true,9,1,3,2,false,d,true,false,0.0-2.0-0.39-0.355-3.355,0,0,1,90,false,stim,false,2,1637.0,0,0,2,44466,WMM1,1469604,false,false,1253,image-keyboard-response,27
true,9,2,3,1,false,z,true,false,0.0-2.0-0.39-0.356-3.356,0,0,1,68,false,stim,false,0,989.0,0,0,0,44466,WMM1,1472100,false,false,1256,image-keyboard-response,28
true,9,0,3,2,false,d,true,true,0.0-2.0-0.39-0.357-3.357,0,0,1,81,false,stim,false,2,780.0,0,0,2,44466,WMM1,1474389,false,true,1259,image-keyboard-response,29
true,9,2,3,1,false,z,true,false,0.0-2.0-0.39-0.358-3.358,0,0,1,68,false,stim,false,0,2231.0,0,0,0,44466,WMM1,1478125,false,false,1262,image-keyboard-response,30
true,9,2,3,2,true,d,false,true,0.0-2.0-0.39-0.359-3.359,0,0,1,68,false,stim,false,1,1325.0,0,0,1,44466,WMM1,1480955,false,false,1265,image-keyboard-response,31
true,9,2,3,2,true,d,false,true,0.0-2.0-0.40-0.360-3.360,0,0,1,68,false,stim,false,1,1142.9999999997672,0,0,1,44466,WMM1,1483604,false,false,1268,image-keyboard-response,32
true,9,0,3,1,false,z,false,false,0.0-2.0-0.40-0.361-3.361,0,0,1,81,false,stim,true,0,1021.0,0,0,0,44466,WMM1,1486132,false,false,1271,image-keyboard-response,33
true,10,2,4,2,true,d,false,true,0.0-2.0-0.40-0.362-3.362,0,0,0,68,true,stim,false,1,990.0,0,0,0,44466,WMM1,1488628,false,false,1274,image-keyboard-response,1
true,10,0,4,0,true,q,false,true,0.0-2.0-0.40-0.363-3.363,0,0,0,81,false,stim,false,2,2222.000000000233,0,0,2,44466,WMM1,1492355,false,false,1277,image-keyboard-response,2
true,10,0,4,0,true,q,false,true,0.0-2.0-0.40-0.364-3.364,0,0,0,81,false,stim,false,2,1074.0,0,0,2,44466,WMM1,1494937,false,false,1280,image-keyboard-response,3
true,10,2,4,0,false,q,false,false,0.0-2.0-0.40-0.365-3.365,0,0,0,68,false,stim,true,2,1223.0,0,0,1,44466,WMM1,1497668,false,false,1283,image-keyboard-response,4
true,10,2,4,2,true,d,false,true,0.0-2.0-0.40-0.366-3.366,0,0,0,68,false,stim,false,1,2060.0,0,0,0,44466,WMM1,1501236,false,false,1286,image-keyboard-response,5
true,10,0,4,0,true,q,false,true,0.0-2.0-0.40-0.367-3.367,0,0,0,81,false,stim,false,2,1959.0,0,0,1,44466,WMM1,1504700,false,false,1289,image-keyboard-response,6
true,10,0,4,0,true,q,false,true,0.0-2.0-0.40-0.368-3.368,0,0,0,81,false,stim,false,2,1479.0,0,0,2,44466,WMM1,1507686,false,false,1292,image-keyboard-response,7
true,10,2,4,2,true,d,false,true,0.0-2.0-0.41-0.369-3.369,0,0,0,68,false,stim,false,1,2467.999999999767,0,0,0,44466,WMM1,1511660,false,false,1295,image-keyboard-response,8
true,10,0,4,0,true,q,false,true,0.0-2.0-0.41-0.370-3.370,0,0,0,81,false,stim,false,2,1612.0,0,0,2,44466,WMM1,1514780,false,false,1298,image-keyboard-response,9
true,10,0,4,0,true,q,false,true,0.0-2.0-0.41-0.371-3.371,0,0,0,81,false,stim,false,2,1061.0000000002328,0,0,1,44466,WMM1,1517355,false,false,1301,image-keyboard-response,10
true,10,0,4,0,true,q,false,true,0.0-2.0-0.41-0.372-3.372,0,0,0,81,false,stim,false,2,686.0000000002328,0,0,1,44466,WMM1,1519548,false,false,1304,image-keyboard-response,11
true,10,0,4,0,true,q,false,true,0.0-2.0-0.41-0.373-3.373,0,0,0,81,false,stim,false,2,983.0,0,0,1,44466,WMM1,1522036,false,false,1307,image-keyboard-response,12
true,10,0,4,0,true,q,false,true,0.0-2.0-0.41-0.374-3.374,0,0,0,81,false,stim,false,2,1311.0,0,0,2,44466,WMM1,1524851,false,false,1310,image-keyboard-response,13
true,10,2,4,2,true,d,false,true,0.0-2.0-0.41-0.375-3.375,0,0,0,68,false,stim,false,1,1423.0,0,0,0,44466,WMM1,1527780,false,false,1313,image-keyboard-response,14
true,10,0,4,0,true,q,false,true,0.0-2.0-0.41-0.376-3.376,0,0,0,81,false,stim,false,2,1310.0000000002328,0,0,2,44466,WMM1,1530596,false,false,1316,image-keyboard-response,15
true,10,2,4,2,true,d,false,true,0.0-2.0-0.41-0.377-3.377,0,0,0,68,false,stim,false,1,1150.0,0,0,0,44466,WMM1,1533251,false,false,1319,image-keyboard-response,16
true,10,0,4,0,true,q,false,true,0.0-2.0-0.42-0.378-3.378,0,0,0,81,false,stim,false,2,1262.0000000002328,0,0,1,44466,WMM1,1536020,false,false,1322,image-keyboard-response,17
true,10,0,4,0,true,q,false,true,0.0-2.0-0.42-0.379-3.379,0,0,0,81,false,stim,false,2,2181.0,0,0,2,44466,WMM1,1539708,false,false,1325,image-keyboard-response,18
true,10,0,4,0,true,q,false,true,0.0-2.0-0.42-0.380-3.380,0,0,0,81,false,stim,false,2,709.0,0,0,2,44466,WMM1,1541924,false,false,1328,image-keyboard-response,19
true,10,2,4,2,true,d,false,true,0.0-2.0-0.42-0.381-3.381,0,0,0,68,false,stim,false,1,2174.000000000233,0,0,0,44466,WMM1,1545605,false,false,1331,image-keyboard-response,20
true,10,2,4,2,true,d,false,true,0.0-2.0-0.42-0.382-3.382,0,0,0,68,false,stim,false,1,812.0,0,0,0,44466,WMM1,1547925,false,false,1334,image-keyboard-response,21
true,10,0,4,0,true,q,false,true,0.0-2.0-0.42-0.383-3.383,0,0,0,81,false,stim,false,2,925.0000000002328,0,0,1,44466,WMM1,1550356,false,false,1337,image-keyboard-response,22
true,10,0,4,0,true,q,false,true,0.0-2.0-0.42-0.384-3.384,0,0,0,81,false,stim,false,2,1348.0000000002328,0,0,2,44466,WMM1,1553211,false,false,1340,image-keyboard-response,23
true,10,2,4,2,true,d,false,true,0.0-2.0-0.42-0.385-3.385,0,0,0,68,false,stim,false,1,1830.0000000002328,0,0,0,44466,WMM1,1556548,false,false,1343,image-keyboard-response,24
true,10,0,4,0,true,q,false,true,0.0-2.0-0.42-0.386-3.386,0,0,0,81,false,stim,false,2,820.0000000002328,0,0,1,44466,WMM1,1558875,false,false,1346,image-keyboard-response,25
true,10,2,4,2,true,d,false,true,0.0-2.0-0.43-0.387-3.387,0,0,0,68,false,stim,false,1,1237.0,0,0,0,44466,WMM1,1561620,false,false,1349,image-keyboard-response,26
true,10,0,4,0,true,q,false,true,0.0-2.0-0.43-0.388-3.388,0,0,0,81,false,stim,false,2,1057.0,0,0,2,44466,WMM1,1564182,false,false,1352,image-keyboard-response,27
true,10,0,4,0,true,q,false,true,0.0-2.0-0.43-0.389-3.389,0,0,0,81,false,stim,false,2,720.0,0,0,2,44466,WMM1,1566410,false,false,1355,image-keyboard-response,28
true,10,2,4,2,true,d,false,true,0.0-2.0-0.43-0.390-3.390,0,0,0,68,false,stim,false,1,1105.0,0,0,0,44466,WMM1,1569020,false,false,1358,image-keyboard-response,29
true,10,0,4,0,true,q,false,true,0.0-2.0-0.43-0.391-3.391,0,0,0,81,false,stim,false,2,925.0000000002328,0,0,1,44466,WMM1,1571451,false,false,1361,image-keyboard-response,30
true,11,2,2,0,false,q,false,false,0.0-2.0-0.43-0.392-3.392,0,0,0,68,true,stim,true,2,1623.0,0,0,0,44466,WMM1,1574580,false,false,1364,image-keyboard-response,1
true,11,0,2,1,false,z,false,false,0.0-2.0-0.43-0.393-3.393,0,0,0,81,false,stim,true,0,1813.0,0,0,1,44466,WMM1,1577900,false,false,1367,image-keyboard-response,2
true,11,2,2,1,false,z,true,false,0.0-2.0-0.43-0.394-3.394,0,0,0,68,false,stim,false,0,1341.0,0,0,1,44466,WMM1,1580748,false,false,1370,image-keyboard-response,3
true,11,2,2,2,true,d,false,true,0.0-2.0-0.43-0.395-3.395,0,0,0,68,false,stim,false,0,1997.0,0,0,2,44466,WMM1,1584251,false,false,1373,image-keyboard-response,4
false,11,-1,2,0,false,q,true,false,0.0-2.0-0.44-0.396-3.396,0,0,0,,false,stim,false,2,,0,0,0,44466,WMM1,1588759,false,false,1376,image-keyboard-response,5
true,11,0,2,1,false,z,false,false,0.0-2.0-0.44-0.397-3.397,0,0,0,81,false,stim,true,0,1521.0000000002328,0,0,1,44466,WMM1,1591788,false,false,1379,image-keyboard-response,6
true,11,1,2,1,true,z,false,true,0.0-2.0-0.44-0.398-3.398,0,0,0,90,false,stim,false,0,1733.0000000002328,0,0,1,44466,WMM1,1595029,false,false,1382,image-keyboard-response,7
true,11,2,2,2,true,d,false,true,0.0-2.0-0.44-0.399-3.399,0,0,0,68,false,stim,false,0,2820.000000000233,0,0,2,44466,WMM1,1599355,false,false,1385,image-keyboard-response,8
true,11,2,2,2,true,d,false,true,0.0-2.0-0.44-0.400-3.400,0,0,0,68,false,stim,false,0,901.0,0,0,2,44466,WMM1,1601763,false,false,1388,image-keyboard-response,9
true,11,1,2,0,false,q,true,false,0.0-2.0-0.44-0.401-3.401,0,0,0,90,false,stim,false,2,2030.0,0,0,0,44466,WMM1,1605300,false,false,1391,image-keyboard-response,10
true,11,1,2,1,true,z,false,true,0.0-2.0-0.44-0.402-3.402,0,0,0,90,false,stim,false,0,2029.0,0,0,1,44466,WMM1,1608836,false,false,1394,image-keyboard-response,11
true,11,0,2,0,true,q,false,true,0.0-2.0-0.44-0.403-3.403,0,0,0,81,false,stim,false,2,645.0,0,0,0,44466,WMM1,1610988,false,false,1397,image-keyboard-response,12
true,11,2,2,2,true,d,false,true,0.0-2.0-0.44-0.404-3.404,0,0,0,68,false,stim,false,0,1346.0,0,0,2,44466,WMM1,1613840,false,false,1400,image-keyboard-response,13
true,11,2,2,2,true,d,false,true,0.0-2.0-0.45-0.405-3.405,0,0,0,68,false,stim,false,0,798.0,0,0,2,44466,WMM1,1616153,false,false,1403,image-keyboard-response,14
true,11,0,2,0,true,q,false,true,0.0-2.0-0.45-0.406-3.406,0,0,0,81,false,stim,false,2,671.0,0,0,0,44466,WMM1,1618331,false,false,1406,image-keyboard-response,15
true,11,0,2,0,true,q,false,true,0.0-2.0-0.45-0.407-3.407,0,0,0,81,false,stim,false,2,743.0,0,0,0,44466,WMM1,1620580,false,false,1409,image-keyboard-response,16
true,11,2,2,2,true,d,false,true,0.0-2.0-0.45-0.408-3.408,0,0,0,68,false,stim,false,0,1195.9999999997672,0,0,2,44466,WMM1,1623282,false,false,1412,image-keyboard-response,17
true,11,1,2,1,true,z,false,true,0.0-2.0-0.45-0.409-3.409,0,0,0,90,false,stim,false,0,1270.0,0,0,1,44466,WMM1,1626060,false,false,1415,image-keyboard-response,18
true,11,2,2,2,true,d,false,false,0.0-2.0-0.45-0.410-3.410,0,0,0,68,false,stim,false,0,1477.9999999997672,0,0,2,44466,WMM1,1629045,false,true,1418,image-keyboard-response,19
true,11,1,2,1,true,z,false,true,0.0-2.0-0.45-0.411-3.411,0,0,0,90,false,stim,false,0,2151.999999999767,0,0,1,44466,WMM1,1632700,false,false,1421,image-keyboard-response,20
true,11,1,2,1,true,z,false,true,0.0-2.0-0.45-0.412-3.412,0,0,0,90,false,stim,false,0,827.0,0,0,1,44466,WMM1,1635034,false,false,1424,image-keyboard-response,21
true,11,0,2,0,true,q,false,true,0.0-2.0-0.45-0.413-3.413,0,0,0,81,false,stim,false,2,1568.0,0,0,0,44466,WMM1,1638108,false,false,1427,image-keyboard-response,22
true,11,1,2,2,false,d,true,false,0.0-2.0-0.46-0.414-3.414,0,0,0,90,false,stim,false,0,1132.9999999997672,0,0,2,44466,WMM1,1640748,false,false,1430,image-keyboard-response,23
true,11,1,2,1,true,z,false,true,0.0-2.0-0.46-0.415-3.415,0,0,0,90,false,stim,false,0,2391.0,0,0,1,44466,WMM1,1644645,false,false,1433,image-keyboard-response,24
true,11,1,2,1,true,z,false,true,0.0-2.0-0.46-0.416-3.416,0,0,0,90,false,stim,false,0,1722.9999999997672,0,0,1,44466,WMM1,1647876,false,false,1436,image-keyboard-response,25
true,11,0,2,0,true,q,false,false,0.0-2.0-0.46-0.417-3.417,0,0,0,81,false,stim,false,2,782.0,0,0,0,44466,WMM1,1650165,false,true,1439,image-keyboard-response,26
true,11,1,2,0,false,q,true,false,0.0-2.0-0.46-0.418-3.418,0,0,0,90,false,stim,false,2,1460.0,0,0,0,44466,WMM1,1653132,false,false,1442,image-keyboard-response,27
true,11,1,2,1,true,z,false,true,0.0-2.0-0.46-0.419-3.419,0,0,0,90,false,stim,false,0,2254.0,0,0,1,44466,WMM1,1656891,false,false,1445,image-keyboard-response,28
true,11,0,2,2,false,d,false,false,0.0-2.0-0.46-0.420-3.420,0,0,0,81,false,stim,true,0,1408.0,0,0,2,44466,WMM1,1659806,false,false,1448,image-keyboard-response,29
true,11,2,2,2,true,d,false,true,0.0-2.0-0.46-0.421-3.421,0,0,0,68,false,stim,false,0,1004.0,0,0,2,44466,WMM1,1662316,false,false,1451,image-keyboard-response,30
true,12,0,1,1,false,z,false,false,0.0-2.0-0.46-0.422-3.422,0,0,0,81,true,stim,true,0,1465.0,0,0,0,44466,WMM1,1665285,false,false,1454,image-keyboard-response,1
true,12,1,1,1,true,z,false,true,0.0-2.0-0.47-0.423-3.423,0,0,0,90,false,stim,false,0,1158.0,0,0,0,44466,WMM1,1667949,false,false,1457,image-keyboard-response,2
true,12,2,1,0,false,q,false,false,0.0-2.0-0.47-0.424-3.424,0,0,0,68,false,stim,true,2,1789.0,0,0,2,44466,WMM1,1671244,false,false,1460,image-keyboard-response,3
true,12,1,1,1,true,z,false,true,0.0-2.0-0.47-0.425-3.425,0,0,0,90,false,stim,false,0,2018.0000000002328,0,0,0,44466,WMM1,1674769,false,false,1463,image-keyboard-response,4
true,12,1,1,0,false,q,true,false,0.0-2.0-0.47-0.426-3.426,0,0,0,90,false,stim,false,2,1609.0000000002328,0,0,2,44466,WMM1,1677884,false,false,1466,image-keyboard-response,5
true,12,1,1,1,true,z,false,true,0.0-2.0-0.47-0.427-3.427,0,0,0,90,false,stim,false,0,2799.0,0,0,0,44466,WMM1,1682189,false,false,1469,image-keyboard-response,6
true,12,2,1,0,false,q,false,false,0.0-2.0-0.47-0.428-3.428,0,0,0,68,false,stim,true,2,766.0,0,0,2,44466,WMM1,1684460,false,false,1472,image-keyboard-response,7
true,12,1,1,2,false,d,false,false,0.0-2.0-0.47-0.429-3.429,0,0,0,90,false,stim,true,1,1604.0,0,0,1,44466,WMM1,1687571,false,false,1475,image-keyboard-response,8
true,12,2,1,2,true,d,false,true,0.0-2.0-0.47-0.430-3.430,0,0,0,68,false,stim,false,1,670.9999999997672,0,0,1,44466,WMM1,1689748,false,false,1478,image-keyboard-response,9
true,12,2,1,2,true,d,false,true,0.0-2.0-0.47-0.431-3.431,0,0,0,68,false,stim,false,1,859.0,0,0,1,44466,WMM1,1692113,false,false,1481,image-keyboard-response,10
true,12,2,1,1,false,z,true,false,0.0-2.0-0.48-0.432-3.432,0,0,0,68,false,stim,false,0,2785.0,0,0,0,44466,WMM1,1696405,false,false,1484,image-keyboard-response,11
true,12,2,1,2,true,d,false,true,0.0-2.0-0.48-0.433-3.433,0,0,0,68,false,stim,false,1,1597.0000000002328,0,0,1,44466,WMM1,1699509,false,false,1487,image-keyboard-response,12
true,12,2,1,0,false,q,false,false,0.0-2.0-0.48-0.434-3.434,0,0,0,68,false,stim,true,2,1256.0,0,0,2,44466,WMM1,1702270,false,false,1490,image-keyboard-response,13
true,12,0,1,0,true,q,false,true,0.0-2.0-0.48-0.435-3.435,0,0,0,81,false,stim,false,2,653.0,0,0,2,44466,WMM1,1704428,false,false,1493,image-keyboard-response,14
true,12,1,1,1,true,z,false,true,0.0-2.0-0.48-0.436-3.436,0,0,0,90,false,stim,false,0,1606.0,0,0,0,44466,WMM1,1707540,false,false,1496,image-keyboard-response,15
true,12,2,1,2,true,d,false,true,0.0-2.0-0.48-0.437-3.437,0,0,0,68,false,stim,false,1,1273.9999999997672,0,0,1,44466,WMM1,1710322,false,false,1499,image-keyboard-response,16
true,12,2,1,2,true,d,false,true,0.0-2.0-0.48-0.438-3.438,0,0,0,68,false,stim,false,1,741.0,0,0,1,44466,WMM1,1712577,false,false,1502,image-keyboard-response,17
true,12,0,1,0,true,q,false,true,0.0-2.0-0.48-0.439-3.439,0,0,0,81,false,stim,false,2,1264.0,0,0,2,44466,WMM1,1715349,false,false,1505,image-keyboard-response,18
true,12,1,1,1,true,z,false,true,0.0-2.0-0.48-0.440-3.440,0,0,0,90,false,stim,false,0,1060.9999999997672,0,0,0,44466,WMM1,1717916,false,false,1508,image-keyboard-response,19
true,12,2,1,2,true,d,false,true,0.0-2.0-0.49-0.441-3.441,0,0,0,68,false,stim,false,1,2476.0,0,0,1,44466,WMM1,1721900,false,false,1511,image-keyboard-response,20
true,12,2,1,2,true,d,false,true,0.0-2.0-0.49-0.442-3.442,0,0,0,68,false,stim,false,1,637.0,0,0,1,44466,WMM1,1724044,false,false,1514,image-keyboard-response,21
true,12,1,1,1,true,z,false,true,0.0-2.0-0.49-0.443-3.443,0,0,0,90,false,stim,false,0,1701.0,0,0,0,44466,WMM1,1727252,false,false,1517,image-keyboard-response,22
true,12,0,1,0,true,q,false,true,0.0-2.0-0.49-0.444-3.444,0,0,0,81,false,stim,false,2,1677.0,0,0,2,44466,WMM1,1730435,false,false,1520,image-keyboard-response,23
true,12,1,1,1,true,z,false,true,0.0-2.0-0.49-0.445-3.445,0,0,0,90,false,stim,false,0,2782.999999999767,0,0,0,44466,WMM1,1734725,false,false,1523,image-keyboard-response,24
true,12,0,1,0,true,q,false,true,0.0-2.0-0.49-0.446-3.446,0,0,0,81,false,stim,false,2,1252.9999999997672,0,0,2,44466,WMM1,1737484,false,false,1526,image-keyboard-response,25
true,12,1,1,1,true,z,false,true,0.0-2.0-0.49-0.447-3.447,0,0,0,90,false,stim,false,0,1798.0,0,0,0,44466,WMM1,1740789,false,false,1529,image-keyboard-response,26
true,12,0,1,0,true,q,false,true,0.0-2.0-0.49-0.448-3.448,0,0,0,81,false,stim,false,2,1323.0,0,0,2,44466,WMM1,1743620,false,false,1532,image-keyboard-response,27
true,12,2,1,2,true,d,false,false,0.0-2.0-0.49-0.449-3.449,0,0,0,68,false,stim,false,1,1181.0,0,0,1,44466,WMM1,1746309,false,true,1535,image-keyboard-response,28
true,12,0,1,0,true,q,false,true,0.0-2.0-0.50-0.450-3.450,0,0,0,81,false,stim,false,2,1539.0,0,0,2,44466,WMM1,1749356,false,false,1538,image-keyboard-response,29
true,12,0,1,0,true,q,false,true,0.0-2.0-0.50-0.451-3.451,0,0,0,81,false,stim,false,2,1374.0,0,0,2,44466,WMM1,1752236,false,false,1541,image-keyboard-response,30
true,13,1,2,1,true,z,false,true,0.0-2.0-0.50-0.452-3.452,0,0,0,90,true,stim,false,2,1613.0000000002328,0,0,1,44466,WMM1,1755356,false,false,1544,image-keyboard-response,1
true,13,1,2,0,false,q,false,false,0.0-2.0-0.50-0.453-3.453,0,0,0,90,false,stim,true,1,2511.0,0,0,0,44466,WMM1,1759380,false,false,1547,image-keyboard-response,2
true,13,0,2,2,false,d,false,false,0.0-2.0-0.50-0.454-3.454,0,0,0,81,false,stim,true,0,1842.0000000002328,0,0,2,44466,WMM1,1762731,false,false,1550,image-keyboard-response,3
true,13,1,2,0,false,q,false,false,0.0-2.0-0.50-0.455-3.455,0,0,0,90,false,stim,true,1,2723.0,0,0,0,44466,WMM1,1766965,false,false,1553,image-keyboard-response,4
true,13,0,2,0,true,q,false,true,0.0-2.0-0.50-0.456-3.456,0,0,0,81,false,stim,false,1,1644.9999999997672,0,0,0,44466,WMM1,1770117,false,false,1556,image-keyboard-response,5
true,13,1,2,1,true,z,false,true,0.0-2.0-0.50-0.457-3.457,0,0,0,90,false,stim,false,2,1482.0,0,0,1,44466,WMM1,1773109,false,false,1559,image-keyboard-response,6
true,13,2,2,1,false,z,false,false,0.0-2.0-0.50-0.458-3.458,0,0,0,68,false,stim,true,2,1935.0000000002328,0,0,1,44466,WMM1,1776548,false,false,1562,image-keyboard-response,7
true,13,1,2,1,true,z,false,true,0.0-2.0-0.51-0.459-3.459,0,0,0,90,false,stim,false,2,1581.0,0,0,1,44466,WMM1,1779636,false,false,1565,image-keyboard-response,8
true,13,0,2,0,true,q,false,true,0.0-2.0-0.51-0.460-3.460,0,0,0,81,false,stim,false,1,1795.9999999997672,0,0,0,44466,WMM1,1782940,false,false,1568,image-keyboard-response,9
true,13,2,2,2,true,d,false,true,0.0-2.0-0.51-0.461-3.461,0,0,0,68,false,stim,false,0,2642.0,0,0,2,44466,WMM1,1787089,false,false,1571,image-keyboard-response,10
true,13,1,2,1,true,z,false,true,0.0-2.0-0.51-0.462-3.462,0,0,0,90,false,stim,false,2,2289.000000000233,0,0,1,44466,WMM1,1790884,false,false,1574,image-keyboard-response,11
true,13,0,2,0,true,q,false,true,0.0-2.0-0.51-0.463-3.463,0,0,0,81,false,stim,false,1,2442.0,0,0,0,44466,WMM1,1794836,false,false,1577,image-keyboard-response,12
true,13,2,2,2,true,d,false,true,0.0-2.0-0.51-0.464-3.464,0,0,0,68,false,stim,false,0,1412.0,0,0,2,44466,WMM1,1797756,false,false,1580,image-keyboard-response,13
true,13,0,2,0,true,q,false,true,0.0-2.0-0.51-0.465-3.465,0,0,0,81,false,stim,false,1,1672.0,0,0,0,44466,WMM1,1800939,false,false,1583,image-keyboard-response,14
true,13,1,2,1,true,z,false,true,0.0-2.0-0.51-0.466-3.466,0,0,0,90,false,stim,false,2,1374.0,0,0,1,44466,WMM1,1803820,false,false,1586,image-keyboard-response,15
true,13,2,2,2,true,d,false,false,0.0-2.0-0.51-0.467-3.467,0,0,0,68,false,stim,false,0,1276.9999999997672,0,0,2,44466,WMM1,1806604,false,true,1589,image-keyboard-response,16
true,13,1,2,1,true,z,false,true,0.0-2.0-0.52-0.468-3.468,0,0,0,90,false,stim,false,2,1860.0000000002328,0,0,1,44466,WMM1,1809971,false,false,1592,image-keyboard-response,17
true,13,0,2,2,false,d,false,false,0.0-2.0-0.52-0.469-3.469,0,0,0,81,false,stim,true,0,1373.0,0,0,2,44466,WMM1,1812850,false,false,1595,image-keyboard-response,18
true,13,1,2,2,false,d,true,false,0.0-2.0-0.52-0.470-3.470,0,0,0,90,false,stim,false,0,1151.9999999997672,0,0,2,44466,WMM1,1815507,false,false,1598,image-keyboard-response,19
true,13,0,2,0,true,q,false,true,0.0-2.0-0.52-0.471-3.471,0,0,0,81,false,stim,false,1,1882.0,0,0,0,44466,WMM1,1818909,false,false,1601,image-keyboard-response,20
true,13,1,2,1,true,z,false,true,0.0-2.0-0.52-0.472-3.472,0,0,0,90,false,stim,false,2,1939.0000000002328,0,0,1,44466,WMM1,1822356,false,false,1604,image-keyboard-response,21
true,13,2,2,2,true,d,false,true,0.0-2.0-0.52-0.473-3.473,0,0,0,68,false,stim,false,0,777.0000000002328,0,0,2,44466,WMM1,1824644,false,false,1607,image-keyboard-response,22
true,13,1,2,0,false,q,false,false,0.0-2.0-0.52-0.474-3.474,0,0,0,90,false,stim,true,1,2274.999999999767,0,0,0,44466,WMM1,1828428,false,false,1610,image-keyboard-response,23
true,13,0,2,0,true,q,false,false,0.0-2.0-0.52-0.475-3.475,0,0,0,81,false,stim,false,1,1415.0000000002328,0,0,0,44466,WMM1,1831356,false,true,1613,image-keyboard-response,24
true,13,1,2,1,true,z,false,true,0.0-2.0-0.52-0.476-3.476,0,0,0,90,false,stim,false,2,2145.999999999767,0,0,1,44466,WMM1,1835011,false,false,1616,image-keyboard-response,25
true,13,2,2,0,false,q,true,false,0.0-2.0-0.53-0.477-3.477,0,0,0,68,false,stim,false,1,1463.0,0,0,0,44466,WMM1,1837989,false,false,1619,image-keyboard-response,26
true,13,0,2,0,true,q,false,true,0.0-2.0-0.53-0.478-3.478,0,0,0,81,false,stim,false,1,1724.0000000002328,0,0,0,44466,WMM1,1841220,false,false,1622,image-keyboard-response,27
true,13,2,2,2,true,d,false,true,0.0-2.0-0.53-0.479-3.479,0,0,0,68,false,stim,false,0,2408.999999999767,0,0,2,44466,WMM1,1845140,false,false,1625,image-keyboard-response,28
true,13,1,2,1,true,z,false,false,0.0-2.0-0.53-0.480-3.480,0,0,0,90,false,stim,false,2,1211.0,0,0,1,44466,WMM1,1847860,false,true,1628,image-keyboard-response,29
false,13,-1,2,1,false,z,true,false,0.0-2.0-0.53-0.481-3.481,0,0,0,,false,stim,false,2,,0,0,1,44466,WMM1,1852371,false,false,1631,image-keyboard-response,30
true,13,0,2,0,true,q,false,true,0.0-2.0-0.53-0.482-3.482,0,0,0,81,false,stim,false,1,2231.0,0,0,0,44466,WMM1,1856109,false,false,1634,image-keyboard-response,31
true,13,2,2,1,false,z,false,false,0.0-2.0-0.53-0.483-3.483,0,0,0,68,false,stim,true,2,1850.0,0,0,1,44466,WMM1,1859469,false,false,1637,image-keyboard-response,32
true,13,2,2,2,true,d,false,true,0.0-2.0-0.53-0.484-3.484,0,0,0,68,false,stim,false,0,1452.0,0,0,2,44466,WMM1,1862429,false,false,1640,image-keyboard-response,33
true,13,2,2,2,true,d,false,true,0.0-2.0-0.53-0.485-3.485,0,0,0,68,false,stim,false,0,857.0,0,0,2,44466,WMM1,1864797,false,false,1643,image-keyboard-response,34
true,13,0,2,0,true,q,false,true,0.0-2.0-0.54-0.486-3.486,0,0,0,81,false,stim,false,1,2240.000000000233,0,0,0,44466,WMM1,1868548,false,false,1646,image-keyboard-response,35
true,13,2,2,2,true,d,false,true,0.0-2.0-0.54-0.487-3.487,0,0,0,68,false,stim,false,0,1618.0,0,0,2,44466,WMM1,1871676,false,false,1649,image-keyboard-response,36
false,13,-1,2,0,false,q,true,false,0.0-2.0-0.54-0.488-3.488,0,0,0,,false,stim,false,1,,0,0,0,44466,WMM1,1876186,false,false,1652,image-keyboard-response,37
true,13,0,2,0,true,q,false,false,0.0-2.0-0.54-0.489-3.489,0,0,0,81,false,stim,false,1,693.0,0,0,0,44466,WMM1,1878389,false,true,1655,image-keyboard-response,38
true,13,1,2,2,false,d,true,false,0.0-2.0-0.54-0.490-3.490,0,0,0,90,false,stim,false,0,908.0,0,0,2,44466,WMM1,1880805,false,false,1658,image-keyboard-response,39
true,13,1,2,1,true,z,false,false,0.0-2.0-0.54-0.491-3.491,0,0,0,90,false,stim,false,2,1625.0,0,0,1,44466,WMM1,1883940,false,true,1661,image-keyboard-response,40
true,13,2,2,1,false,z,false,false,0.0-2.0-0.54-0.492-3.492,0,0,0,68,false,stim,true,2,1307.0,0,0,1,44466,WMM1,1886756,false,false,1664,image-keyboard-response,41
true,13,2,2,2,true,d,false,true,0.0-2.0-0.54-0.493-3.493,0,0,0,68,false,stim,false,0,1570.0,0,0,2,44466,WMM1,1889835,false,false,1667,image-keyboard-response,42
true,13,0,2,1,false,z,true,false,0.0-2.0-0.54-0.494-3.494,0,0,0,81,false,stim,false,2,2728.000000000233,0,0,1,44466,WMM1,1894076,false,false,1670,image-keyboard-response,43
true,13,2,2,0,false,q,true,false,0.0-2.0-0.55-0.495-3.495,0,0,0,68,false,stim,false,1,1216.0,0,0,0,44466,WMM1,1896804,false,false,1673,image-keyboard-response,44
true,13,2,2,1,false,z,false,false,0.0-2.0-0.55-0.496-3.496,0,0,0,68,false,stim,true,2,1873.0,0,0,1,44466,WMM1,1900187,false,false,1676,image-keyboard-response,45
true,13,2,2,2,true,d,false,true,0.0-2.0-0.55-0.497-3.497,0,0,0,68,false,stim,false,0,1671.0,0,0,2,44466,WMM1,1903364,false,false,1679,image-keyboard-response,46
true,13,0,2,0,true,q,false,false,0.0-2.0-0.55-0.498-3.498,0,0,0,81,false,stim,false,1,1415.0,0,0,0,44466,WMM1,1906291,false,true,1682,image-keyboard-response,47
true,13,2,2,1,false,z,false,false,0.0-2.0-0.55-0.499-3.499,0,0,0,68,false,stim,true,2,2237.0,0,0,1,44466,WMM1,1910036,false,false,1685,image-keyboard-response,48
true,13,1,2,0,false,q,false,false,0.0-2.0-0.55-0.500-3.500,0,0,0,90,false,stim,true,1,1866.0,0,0,0,44466,WMM1,1913411,false,false,1688,image-keyboard-response,49
true,13,2,2,2,true,d,false,true,0.0-2.0-0.55-0.501-3.501,0,0,0,68,false,stim,false,0,1802.9999999997672,0,0,2,44466,WMM1,1916725,false,false,1691,image-keyboard-response,50
true,13,0,2,1,false,z,true,false,0.0-2.0-0.55-0.502-3.502,0,0,0,81,false,stim,false,2,1213.0,0,1,1,44466,WMM1,1919448,false,false,1694,image-keyboard-response,51
true,13,2,2,2,true,d,false,true,0.0-2.0-0.55-0.503-3.503,0,0,0,68,false,stim,false,0,2338.0,0,1,2,44466,WMM1,1923292,false,false,1697,image-keyboard-response,52
true,13,1,2,1,true,z,false,false,0.0-2.0-0.56-0.504-3.504,0,0,0,90,false,stim,false,2,1378.0,0,1,1,44466,WMM1,1926177,false,true,1700,image-keyboard-response,53
true,13,0,2,0,true,q,false,true,0.0-2.0-0.56-0.505-3.505,0,0,0,81,false,stim,false,1,2394.0,0,1,0,44466,WMM1,1930090,false,false,1703,image-keyboard-response,54
true,13,2,2,2,true,d,false,true,0.0-2.0-0.56-0.506-3.506,0,0,0,68,false,stim,false,0,2074.000000000233,0,1,2,44466,WMM1,1933673,false,false,1706,image-keyboard-response,55
true,13,1,2,1,true,z,false,true,0.0-2.0-0.56-0.507-3.507,0,0,0,90,false,stim,false,2,1602.0,0,1,1,44466,WMM1,1936780,false,false,1709,image-keyboard-response,56
true,13,0,2,0,true,q,false,true,0.0-2.0-0.56-0.508-3.508,0,0,0,81,false,stim,false,1,1550.0000000002328,0,1,0,44466,WMM1,1939836,false,false,1712,image-keyboard-response,57
true,13,1,2,1,true,z,false,true,0.0-2.0-0.56-0.509-3.509,0,0,0,90,false,stim,false,2,1268.0,0,1,1,44466,WMM1,1942611,false,false,1715,image-keyboard-response,58
true,13,2,2,2,true,d,false,true,0.0-2.0-0.56-0.510-3.510,0,0,0,68,false,stim,false,0,1228.0,0,1,2,44466,WMM1,1945348,false,false,1718,image-keyboard-response,59
true,13,0,2,0,true,q,false,false,0.0-2.0-0.56-0.511-3.511,0,0,0,81,false,stim,false,1,1594.9999999997672,0,1,0,44466,WMM1,1948450,false,true,1721,image-keyboard-response,60
false,14,-1,0,2,false,d,true,false,0.0-2.0-0.56-0.512-3.512,1,1,1,,true,stim,false,2,,0,1,2,44466,WMM1,2073255,false,false,1844,image-keyboard-response,1
false,14,-1,0,0,false,q,true,false,0.0-2.0-0.57-0.513-3.513,1,1,1,,false,stim,false,0,,0,1,0,44466,WMM1,2077769,false,false,1847,image-keyboard-response,2
true,14,1,0,1,true,z,false,true,0.0-2.0-0.57-0.514-3.514,1,1,1,90,false,stim,false,1,2476.999999999767,0,1,1,44466,WMM1,2081754,false,false,1850,image-keyboard-response,3
true,14,0,0,0,true,q,false,true,0.0-2.0-0.57-0.515-3.515,1,1,1,81,false,stim,false,0,1376.0,0,1,0,44466,WMM1,2084636,false,false,1853,image-keyboard-response,4
true,14,2,0,2,true,d,false,false,0.0-2.0-0.57-0.516-3.516,1,1,1,68,false,stim,false,2,1840.9999999997672,0,1,2,44466,WMM1,2087984,false,true,1856,image-keyboard-response,5
true,14,0,0,0,true,q,false,true,0.0-2.0-0.57-0.517-3.517,1,1,1,81,false,stim,false,0,2515.0000000004657,0,1,0,44466,WMM1,2092008,false,false,1859,image-keyboard-response,6
true,14,1,0,1,true,z,false,true,0.0-2.0-0.57-0.518-3.518,1,1,1,90,false,stim,false,1,1716.0,0,1,1,44466,WMM1,2095231,false,false,1862,image-keyboard-response,7
true,14,2,0,2,true,d,false,true,0.0-2.0-0.57-0.519-3.519,1,1,1,68,false,stim,false,2,1985.0,0,1,2,44466,WMM1,2098724,false,false,1865,image-keyboard-response,8
false,14,-1,0,1,false,z,true,false,0.0-2.0-0.57-0.520-3.520,1,1,1,,false,stim,false,1,,0,1,1,44466,WMM1,2103232,false,false,1868,image-keyboard-response,9
true,14,2,0,2,true,d,false,true,0.0-2.0-0.57-0.521-3.521,1,1,1,68,false,stim,false,2,1697.0,0,1,2,44466,WMM1,2106436,false,false,1871,image-keyboard-response,10
true,14,2,0,2,true,d,false,true,0.0-2.0-0.58-0.522-3.522,1,1,1,68,false,stim,false,2,911.9999999995343,0,1,2,44466,WMM1,2108859,false,false,1874,image-keyboard-response,11
true,14,1,0,1,true,z,false,true,0.0-2.0-0.58-0.523-3.523,1,1,1,90,false,stim,false,1,1813.0,0,1,1,44466,WMM1,2112179,false,false,1877,image-keyboard-response,12
true,14,1,0,1,true,z,false,true,0.0-2.0-0.58-0.524-3.524,1,1,1,90,false,stim,false,1,1060.0,0,1,1,44466,WMM1,2114748,false,false,1880,image-keyboard-response,13
true,14,0,0,0,true,q,false,true,0.0-2.0-0.58-0.525-3.525,1,1,1,81,false,stim,false,0,2053.0,0,1,0,44466,WMM1,2118308,false,false,1883,image-keyboard-response,14
true,14,2,0,2,true,d,false,true,0.0-2.0-0.58-0.526-3.526,1,1,1,68,false,stim,false,2,1556.0,0,1,2,44466,WMM1,2121371,false,false,1886,image-keyboard-response,15
true,14,1,0,1,true,z,false,true,0.0-2.0-0.58-0.527-3.527,1,1,1,90,false,stim,false,1,1187.0,0,1,1,44466,WMM1,2124064,false,false,1889,image-keyboard-response,16
true,14,2,0,2,true,d,false,true,0.0-2.0-0.58-0.528-3.528,1,1,1,68,false,stim,false,2,1530.0,0,1,2,44466,WMM1,2127100,false,false,1892,image-keyboard-response,17
true,14,0,0,0,true,q,false,false,0.0-2.0-0.58-0.529-3.529,1,1,1,81,false,stim,false,0,884.0,0,1,0,44466,WMM1,2129491,false,true,1895,image-keyboard-response,18
true,14,2,0,0,false,q,true,false,0.0-2.0-0.58-0.530-3.530,1,1,1,68,false,stim,false,0,2173.0,0,1,0,44466,WMM1,2133171,false,false,1898,image-keyboard-response,19
true,14,1,0,1,true,z,false,false,0.0-2.0-0.59-0.531-3.531,1,1,1,90,false,stim,false,1,2968.0,0,1,1,44466,WMM1,2137661,false,true,1901,image-keyboard-response,20
false,14,-1,0,0,false,q,true,true,0.0-2.0-0.59-0.532-3.532,1,1,1,,false,stim,false,0,,0,1,0,44466,WMM1,2142171,false,true,1904,image-keyboard-response,21
true,14,1,0,2,false,d,true,false,0.0-2.0-0.59-0.533-3.533,1,1,1,90,false,stim,false,2,1793.0000000004657,0,1,2,44466,WMM1,2145476,false,false,1907,image-keyboard-response,22
true,14,1,0,0,false,q,true,false,0.0-2.0-0.59-0.534-3.534,1,1,1,90,false,stim,false,0,2114.0,0,1,0,44466,WMM1,2149100,false,false,1910,image-keyboard-response,23
true,14,0,0,0,true,q,false,true,0.0-2.0-0.59-0.535-3.535,1,1,1,81,false,stim,false,0,1559.0,0,1,0,44466,WMM1,2152170,false,false,1913,image-keyboard-response,24
true,14,2,0,1,false,z,true,false,0.0-2.0-0.59-0.536-3.536,1,1,1,68,false,stim,false,1,2054.0,0,1,1,44466,WMM1,2155732,false,false,1916,image-keyboard-response,25
true,14,0,0,2,false,d,true,false,0.0-2.0-0.59-0.537-3.537,1,1,1,81,false,stim,false,2,2223.0,0,1,2,44466,WMM1,2159468,false,false,1919,image-keyboard-response,26
true,14,0,0,1,false,z,true,false,0.0-2.0-0.59-0.538-3.538,1,1,1,81,false,stim,false,1,2330.0,0,1,1,44466,WMM1,2163308,false,false,1922,image-keyboard-response,27
true,14,2,0,2,true,d,false,true,0.0-2.0-0.59-0.539-3.539,1,1,1,68,false,stim,false,2,1452.0,0,1,2,44466,WMM1,2166268,false,false,1925,image-keyboard-response,28
true,14,2,0,2,true,d,false,true,0.0-2.0-0.60-0.540-3.540,1,1,1,68,false,stim,false,2,1153.0,0,1,2,44466,WMM1,2168931,false,false,1928,image-keyboard-response,29
true,14,2,0,2,true,d,false,true,0.0-2.0-0.60-0.541-3.541,1,1,1,68,false,stim,false,2,698.0,0,1,2,44466,WMM1,2171140,false,false,1931,image-keyboard-response,30
true,14,2,0,2,true,d,false,true,0.0-2.0-0.60-0.542-3.542,1,1,1,68,false,stim,false,2,897.0,0,1,2,44466,WMM1,2173547,false,false,1934,image-keyboard-response,31
true,14,1,0,1,true,z,false,true,0.0-2.0-0.60-0.543-3.543,1,1,1,90,false,stim,false,1,2402.0,0,1,1,44466,WMM1,2177461,false,false,1937,image-keyboard-response,32
true,14,1,0,1,true,z,false,true,0.0-2.0-0.60-0.544-3.544,1,1,1,90,false,stim,false,1,1378.0,0,1,1,44466,WMM1,2180348,false,false,1940,image-keyboard-response,33
true,14,1,0,1,true,z,false,true,0.0-2.0-0.60-0.545-3.545,1,1,1,90,false,stim,false,1,1314.0,0,1,1,44466,WMM1,2183172,false,false,1943,image-keyboard-response,34
true,14,0,0,0,true,q,false,true,0.0-2.0-0.60-0.546-3.546,1,1,1,81,false,stim,false,0,2410.0,0,1,0,44466,WMM1,2187092,false,false,1946,image-keyboard-response,35
true,14,0,0,0,true,q,false,true,0.0-2.0-0.60-0.547-3.547,1,1,1,81,false,stim,false,0,743.0,0,0,0,44466,WMM1,2189348,false,false,1949,image-keyboard-response,36
true,14,0,0,0,true,q,false,true,0.0-2.0-0.60-0.548-3.548,1,1,1,81,false,stim,false,0,893.0,0,0,0,44466,WMM1,2191747,false,false,1952,image-keyboard-response,37
true,14,1,0,1,true,z,false,true,0.0-2.0-0.61-0.549-3.549,1,1,1,90,false,stim,false,1,1984.0,0,0,1,44466,WMM1,2195239,false,false,1955,image-keyboard-response,38
true,14,2,0,2,true,d,false,true,0.0-2.0-0.61-0.550-3.550,1,1,1,68,false,stim,false,2,1249.0,0,0,2,44466,WMM1,2197996,false,false,1958,image-keyboard-response,39
true,14,0,0,0,true,q,false,true,0.0-2.0-0.61-0.551-3.551,1,1,1,81,false,stim,false,0,1373.0,0,0,0,44466,WMM1,2200877,false,false,1961,image-keyboard-response,40
true,14,1,0,1,true,z,false,true,0.0-2.0-0.61-0.552-3.552,1,1,1,90,false,stim,false,1,1867.0,0,0,1,44466,WMM1,2204251,false,false,1964,image-keyboard-response,41
true,14,1,0,1,true,z,false,true,0.0-2.0-0.61-0.553-3.553,1,1,1,90,false,stim,false,1,1149.0,0,0,1,44466,WMM1,2206907,false,false,1967,image-keyboard-response,42
true,14,2,0,2,true,d,false,false,0.0-2.0-0.61-0.554-3.554,1,1,1,68,false,stim,false,2,1179.0,0,0,2,44466,WMM1,2209596,false,true,1970,image-keyboard-response,43
true,14,0,0,0,true,q,false,true,0.0-2.0-0.61-0.555-3.555,1,1,1,81,false,stim,false,0,2251.0,0,0,0,44466,WMM1,2213356,false,false,1973,image-keyboard-response,44
true,14,0,0,2,false,d,true,true,0.0-2.0-0.61-0.556-3.556,1,1,1,81,false,stim,false,2,1260.0,0,0,2,44466,WMM1,2216125,false,true,1976,image-keyboard-response,45
true,15,0,1,1,false,z,false,false,0.0-2.0-0.61-0.557-3.557,0,0,0,81,true,stim,true,0,1979.0,0,0,0,44466,WMM1,2219612,false,false,1979,image-keyboard-response,1
true,15,1,1,0,false,q,false,false,0.0-2.0-0.62-0.558-3.558,0,0,0,90,false,stim,true,1,1261.0,0,0,1,44466,WMM1,2222381,false,false,1982,image-keyboard-response,2
true,15,2,1,1,false,z,true,false,0.0-2.0-0.62-0.559-3.559,0,0,0,68,false,stim,false,0,2317.0,0,0,0,44466,WMM1,2226204,false,false,1985,image-keyboard-response,3
true,15,0,1,0,true,q,false,true,0.0-2.0-0.62-0.560-3.560,0,0,0,81,false,stim,false,1,2557.0,0,0,1,44466,WMM1,2230268,false,false,1988,image-keyboard-response,4
true,15,1,1,1,true,z,false,true,0.0-2.0-0.62-0.561-3.561,0,0,0,90,false,stim,false,0,2108.0,0,0,0,44466,WMM1,2233885,false,false,1991,image-keyboard-response,5
true,15,0,1,0,true,q,false,true,0.0-2.0-0.62-0.562-3.562,0,0,0,81,false,stim,false,2,1516.0,0,0,2,44466,WMM1,2236908,false,false,1994,image-keyboard-response,6
true,15,0,1,0,true,q,false,true,0.0-2.0-0.62-0.563-3.563,0,0,0,81,false,stim,false,2,1132.0,0,0,2,44466,WMM1,2239547,false,false,1997,image-keyboard-response,7
true,15,1,1,1,true,z,false,false,0.0-2.0-0.62-0.564-3.564,0,0,0,90,false,stim,false,0,1609.0,0,0,0,44466,WMM1,2242663,false,true,2000,image-keyboard-response,8
true,15,0,1,0,true,q,false,true,0.0-2.0-0.62-0.565-3.565,0,0,0,81,false,stim,false,1,1965.0,0,0,1,44466,WMM1,2246147,false,false,2003,image-keyboard-response,9
true,15,0,1,0,true,q,false,true,0.0-2.0-0.62-0.566-3.566,0,0,0,81,false,stim,false,2,1254.0,0,0,2,44466,WMM1,2248907,false,false,2006,image-keyboard-response,10
true,15,0,1,1,false,z,false,true,0.0-2.0-0.63-0.567-3.567,0,0,0,81,false,stim,true,0,685.0000000004657,0,0,0,44466,WMM1,2251101,false,true,2009,image-keyboard-response,11
true,15,0,1,1,false,z,false,false,0.0-2.0-0.63-0.568-3.568,0,0,0,81,false,stim,true,0,837.0,0,0,0,44466,WMM1,2253444,false,false,2012,image-keyboard-response,12
true,15,0,1,0,true,q,false,true,0.0-2.0-0.63-0.569-3.569,0,0,0,81,false,stim,false,2,1101.0000000004657,0,0,2,44466,WMM1,2256052,false,false,2015,image-keyboard-response,13
true,15,0,1,0,true,q,false,true,0.0-2.0-0.63-0.570-3.570,0,0,0,81,false,stim,false,2,865.0000000004657,0,0,2,44466,WMM1,2258427,false,false,2018,image-keyboard-response,14
true,15,0,1,0,true,q,false,false,0.0-2.0-0.63-0.571-3.571,0,0,0,81,false,stim,false,2,741.0,0,0,2,44466,WMM1,2260676,false,true,2021,image-keyboard-response,15
true,15,0,1,0,true,q,false,true,0.0-2.0-0.63-0.572-3.572,0,0,0,81,false,stim,false,1,1293.0000000004657,0,0,1,44466,WMM1,2263476,false,false,2024,image-keyboard-response,16
true,15,0,1,0,true,q,false,true,0.0-2.0-0.63-0.573-3.573,0,0,0,81,false,stim,false,1,1051.9999999995343,0,0,1,44466,WMM1,2266037,false,false,2027,image-keyboard-response,17
true,15,0,1,1,false,z,false,false,0.0-2.0-0.63-0.574-3.574,0,0,0,81,false,stim,true,0,1843.0,0,0,0,44466,WMM1,2269388,false,false,2030,image-keyboard-response,18
true,15,0,1,0,true,q,false,true,0.0-2.0-0.63-0.575-3.575,0,0,0,81,false,stim,false,1,1980.0,0,0,1,44466,WMM1,2272876,false,false,2033,image-keyboard-response,19
true,15,1,1,1,true,z,false,false,0.0-2.0-0.64-0.576-3.576,0,0,0,90,false,stim,false,0,631.0,0,0,0,44466,WMM1,2275018,false,true,2036,image-keyboard-response,20
true,15,2,1,0,false,q,false,false,0.0-2.0-0.64-0.577-3.577,0,0,0,68,false,stim,true,2,2509.0,0,0,2,44466,WMM1,2279037,false,false,2039,image-keyboard-response,21
true,15,0,1,0,true,q,false,true,0.0-2.0-0.64-0.578-3.578,0,0,0,81,false,stim,false,2,2631.0,0,0,2,44466,WMM1,2283181,false,false,2042,image-keyboard-response,22
true,15,2,1,1,false,z,true,false,0.0-2.0-0.64-0.579-3.579,0,0,0,68,false,stim,false,0,1882.0000000004657,0,0,0,44466,WMM1,2286572,false,false,2045,image-keyboard-response,23
true,15,0,1,1,false,z,false,false,0.0-2.0-0.64-0.580-3.580,0,0,0,81,false,stim,true,0,859.0,0,0,0,44466,WMM1,2288941,false,false,2048,image-keyboard-response,24
true,15,0,1,0,true,q,false,false,0.0-2.0-0.64-0.581-3.581,0,0,0,81,false,stim,false,1,1639.0,0,0,1,44466,WMM1,2292092,false,true,2051,image-keyboard-response,25
true,15,2,1,0,false,q,true,false,0.0-2.0-0.64-0.582-3.582,0,0,0,68,false,stim,false,1,683.0,0,0,1,44466,WMM1,2294282,false,false,2054,image-keyboard-response,26
true,15,1,1,0,false,q,false,false,0.0-2.0-0.64-0.583-3.583,0,0,0,90,false,stim,true,1,1230.0,0,0,1,44466,WMM1,2297021,false,false,2057,image-keyboard-response,27
true,15,0,1,0,true,q,false,false,0.0-2.0-0.64-0.584-3.584,0,0,0,81,false,stim,false,2,2411.0,0,0,2,44466,WMM1,2300941,false,true,2060,image-keyboard-response,28
false,15,-1,1,0,false,q,true,false,0.0-2.0-0.65-0.585-3.585,0,0,0,,false,stim,false,1,,0,0,1,44466,WMM1,2305455,false,false,2063,image-keyboard-response,29
true,15,1,1,1,true,z,false,true,0.0-2.0-0.65-0.586-3.586,0,0,0,90,false,stim,false,0,1240.0,0,0,0,44466,WMM1,2308201,false,false,2066,image-keyboard-response,30
true,15,0,1,0,true,q,false,true,0.0-2.0-0.65-0.587-3.587,0,0,0,81,false,stim,false,2,2301.9999999995343,0,0,2,44466,WMM1,2312008,false,false,2069,image-keyboard-response,31
true,15,0,1,0,true,q,false,true,0.0-2.0-0.65-0.588-3.588,0,0,0,81,false,stim,false,2,925.9999999995343,0,0,2,44466,WMM1,2314440,false,false,2072,image-keyboard-response,32
true,15,1,1,1,true,z,false,true,0.0-2.0-0.65-0.589-3.589,0,0,0,90,false,stim,false,0,1230.0,0,0,0,44466,WMM1,2317176,false,false,2075,image-keyboard-response,33
true,15,1,1,1,true,z,false,true,0.0-2.0-0.65-0.590-3.590,0,0,0,90,false,stim,false,0,839.0,0,0,0,44466,WMM1,2319520,false,false,2078,image-keyboard-response,34
true,15,2,1,0,false,q,true,false,0.0-2.0-0.65-0.591-3.591,0,0,0,68,false,stim,false,1,1353.0,0,0,1,44466,WMM1,2322377,false,false,2081,image-keyboard-response,35
true,15,0,1,0,true,q,false,true,0.0-2.0-0.65-0.592-3.592,0,0,0,81,false,stim,false,2,1316.0,0,0,2,44466,WMM1,2325203,false,false,2084,image-keyboard-response,36
true,15,0,1,0,true,q,false,true,0.0-2.0-0.65-0.593-3.593,0,0,0,81,false,stim,false,1,581.0,0,0,1,44466,WMM1,2327292,false,false,2087,image-keyboard-response,37
true,15,0,1,0,true,q,false,true,0.0-2.0-0.66-0.594-3.594,0,0,0,81,false,stim,false,1,1020.0,0,0,1,44466,WMM1,2329825,false,false,2090,image-keyboard-response,38
true,15,1,1,1,true,z,false,false,0.0-2.0-0.66-0.595-3.595,0,0,0,90,false,stim,false,0,2359.0,0,0,0,44466,WMM1,2333692,false,true,2093,image-keyboard-response,39
true,15,0,1,1,false,z,false,false,0.0-2.0-0.66-0.596-3.596,0,0,0,81,false,stim,true,0,2404.0,0,0,0,44466,WMM1,2337601,false,false,2096,image-keyboard-response,40
true,15,0,1,0,true,q,false,true,0.0-2.0-0.66-0.597-3.597,0,0,0,81,false,stim,false,2,1319.0,0,0,2,44466,WMM1,2340424,false,false,2099,image-keyboard-response,41
true,15,0,1,0,true,q,false,true,0.0-2.0-0.66-0.598-3.598,0,0,0,81,false,stim,false,1,1317.0,0,0,1,44466,WMM1,2343252,false,false,2102,image-keyboard-response,42
true,15,2,1,1,false,z,true,false,0.0-2.0-0.66-0.599-3.599,0,0,0,68,false,stim,false,0,476.0,0,0,0,44466,WMM1,2345232,false,false,2105,image-keyboard-response,43
true,15,0,1,0,true,q,false,true,0.0-2.0-0.66-0.600-3.600,0,0,0,81,false,stim,false,1,1520.0,0,0,1,44466,WMM1,2348256,false,false,2108,image-keyboard-response,44
true,15,0,1,0,true,q,false,true,0.0-2.0-0.66-0.601-3.601,0,0,0,81,false,stim,false,2,1183.0,0,0,2,44466,WMM1,2350944,false,false,2111,image-keyboard-response,45
true,15,0,1,0,true,q,false,true,0.0-2.0-0.66-0.602-3.602,0,0,0,81,false,stim,false,2,689.0,0,0,2,44466,WMM1,2353137,false,false,2114,image-keyboard-response,46
true,15,0,1,0,true,q,false,true,0.0-2.0-0.67-0.603-3.603,0,0,0,81,false,stim,false,2,653.0,0,0,2,44466,WMM1,2355299,false,false,2117,image-keyboard-response,47
true,15,2,1,1,false,z,true,false,0.0-2.0-0.67-0.604-3.604,0,0,0,68,false,stim,false,0,582.0,0,0,0,44466,WMM1,2357386,false,false,2120,image-keyboard-response,48
true,16,1,2,0,false,q,false,false,0.0-2.0-0.67-0.605-3.605,0,0,0,90,true,stim,true,1,779.0,0,0,0,44466,WMM1,2359673,false,false,2123,image-keyboard-response,1
true,16,0,2,2,false,d,false,true,0.0-2.0-0.67-0.606-3.606,0,0,0,81,false,stim,true,0,1160.0,0,0,2,44466,WMM1,2362336,false,true,2126,image-keyboard-response,2
true,16,0,2,0,true,q,false,true,0.0-2.0-0.67-0.607-3.607,0,0,0,81,false,stim,false,1,481.0,0,0,0,44466,WMM1,2364320,false,false,2129,image-keyboard-response,3
true,16,0,2,1,false,z,false,false,0.0-2.0-0.67-0.608-3.608,0,0,0,81,false,stim,true,0,848.0,0,0,1,44466,WMM1,2366672,false,false,2132,image-keyboard-response,4
true,16,1,2,1,true,z,false,true,0.0-2.0-0.67-0.609-3.609,0,0,0,90,false,stim,false,0,1856.0000000004657,0,0,1,44466,WMM1,2370032,false,false,2135,image-keyboard-response,5
true,16,0,2,2,false,d,false,false,0.0-2.0-0.67-0.610-3.610,0,0,0,81,false,stim,true,0,1839.0,0,0,2,44466,WMM1,2373375,false,false,2138,image-keyboard-response,6
true,16,0,2,1,false,z,false,false,0.0-2.0-0.67-0.611-3.611,0,0,0,81,false,stim,true,0,2440.0,0,0,1,44466,WMM1,2377324,false,false,2141,image-keyboard-response,7
true,16,0,2,0,true,q,false,true,0.0-2.0-0.68-0.612-3.612,0,0,0,81,false,stim,false,1,2259.0,0,0,0,44466,WMM1,2381092,false,false,2144,image-keyboard-response,8
true,16,1,2,1,true,z,false,true,0.0-2.0-0.68-0.613-3.613,0,0,0,90,false,stim,false,0,940.0,0,0,1,44466,WMM1,2383540,false,false,2147,image-keyboard-response,9
true,16,1,2,1,true,z,false,true,0.0-2.0-0.68-0.614-3.614,0,0,0,90,false,stim,false,0,738.0,0,0,1,44466,WMM1,2385786,false,false,2150,image-keyboard-response,10
true,16,2,2,2,true,d,false,true,0.0-2.0-0.68-0.615-3.615,0,0,0,68,false,stim,false,0,1373.0,0,0,2,44466,WMM1,2388667,false,false,2153,image-keyboard-response,11
true,16,0,2,0,true,q,false,false,0.0-2.0-0.68-0.616-3.616,0,0,0,81,false,stim,false,1,1571.0000000004657,0,0,0,44466,WMM1,2391744,false,true,2156,image-keyboard-response,12
true,16,1,2,1,true,z,false,true,0.0-2.0-0.68-0.617-3.617,0,0,0,90,false,stim,false,0,2026.0000000004657,0,0,1,44466,WMM1,2395273,false,false,2159,image-keyboard-response,13
