answered,blockNum,choice,condition,corResp,correct,correct_response,explo,fb,internal_node_id,isStable_1,isStable_2,isStable_3,key_press,newBlock,part,persev,persevResp,rt,sessNum,stableAS,stimulus,subject,task,time_elapsed,training,trap,trial_index,trial_type,trialsInBlock
true,1,2,0,2,true,d,false,true,0.0-2.0-0.0-0.0-3.0,0,0,0,68,true,stim,false,-1,1477,1,0,1,44466,WMM1,237901,false,false,142,image-keyboard-response,1
false,1,-1,0,0,false,q,false,false,0.0-2.0-0.0-0.1-3.1,0,0,0,,false,stim,true,-1,,1,0,0,44466,WMM1,242416,false,false,145,image-keyboard-response,2
true,1,2,0,2,true,d,false,true,0.0-2.0-0.0-0.2-3.2,0,0,0,68,false,stim,false,-1,798,1,0,2,44466,WMM1,244725,false,false,148,image-keyboard-response,3
true,1,2,0,2,true,d,false,true,0.0-2.0-0.0-0.3-3.3,0,0,0,68,false,stim,false,-1,1601,1,0,2,44466,WMM1,247837,false,false,151,image-keyboard-response,4
true,1,2,0,2,true,d,false,true,0.0-2.0-0.0-0.4-3.4,0,0,0,68,false,stim,false,-1,1669,1,0,1,44466,WMM1,251012,false,false,154,image-keyboard-response,5
true,1,2,0,0,false,q,true,false,0.0-2.0-0.0-0.5-3.5,0,0,0,68,false,stim,false,-1,1443,1,0,0,44466,WMM1,253964,false,false,157,image-keyboard-response,6
true,1,2,0,2,true,d,false,true,0.0-2.0-0.0-0.6-3.6,0,0,0,68,false,stim,false,-1,1584,1,0,2,44466,WMM1,257059,false,false,160,image-keyboard-response,7
true,1,2,0,0,false,q,true,false,0.0-2.0-0.0-0.7-3.7,0,0,0,68,false,stim,false,-1,1597,1,0,0,44466,WMM1,260164,false,false,163,image-keyboard-response,8
true,1,2,0,2,true,d,false,true,0.0-2.0-0.0-0.8-3.8,0,0,0,68,false,stim,false,-1,1122,1,0,1,44466,WMM1,262795,false,false,166,image-keyboard-response,9
true,1,1,0,2,false,d,true,false,0.0-2.0-0.1-0.9-3.9,0,0,0,90,false,stim,false,-1,1641,1,0,2,44466,WMM1,265947,false,false,169,image-keyboard-response,10
true,1,2,0,2,true,d,false,true,0.0-2.0-0.1-0.10-3.10,0,0,0,68,false,stim,false,-1,860,1,0,2,44466,WMM1,268316,false,false,172,image-keyboard-response,11
true,1,1,0,0,false,q,true,false,0.0-2.0-0.1-0.11-3.11,0,0,0,90,false,stim,false,-1,2428,1,0,0,44466,WMM1,272252,false,false,175,image-keyboard-response,12
false,1,-1,0,2,false,d,false,false,0.0-2.0-0.1-0.12-3.12,0,0,0,,false,stim,true,-1,,1,0,1,44466,WMM1,276769,false,false,178,image-keyboard-response,13
true,1,0,0,0,true,q,false,true,0.0-2.0-0.1-0.13-3.13,0,0,0,81,false,stim,false,-1,2331,1,0,0,44466,WMM1,280612,false,false,181,image-keyboard-response,14
true,1,2,0,2,true,d,false,true,0.0-2.0-0.1-0.14-3.14,0,0,0,68,false,stim,false,-1,1581,1,0,2,44466,WMM1,283700,false,false,184,image-keyboard-response,15
true,1,2,0,2,true,d,false,true,0.0-2.0-0.1-0.15-3.15,0,0,0,68,false,stim,false,-1,1884,1,0,1,44466,WMM1,287093,false,false,187,image-keyboard-response,16
true,1,2,0,2,true,d,false,true,0.0-2.0-0.1-0.16-3.16,0,0,0,68,false,stim,false,-1,1254,1,0,1,44466,WMM1,289860,false,false,190,image-keyboard-response,17
true,1,0,0,0,true,q,false,true,0.0-2.0-0.1-0.17-3.17,0,0,0,81,false,stim,false,-1,1669,1,0,0,44466,WMM1,293037,false,false,193,image-keyboard-response,18
true,1,2,0,2,true,d,false,true,0.0-2.0-0.2-0.18-3.18,0,0,0,68,false,stim,false,-1,1599,1,0,2,44466,WMM1,296149,false,false,196,image-keyboard-response,19
true,1,2,0,2,true,d,false,true,0.0-2.0-0.2-0.19-3.19,0,0,0,68,false,stim,false,-1,1697,1,0,1,44466,WMM1,299357,false,false,199,image-keyboard-response,20
true,1,2,0,2,true,d,false,true,0.0-2.0-0.2-0.20-3.20,0,0,0,68,false,stim,false,-1,953,1,0,1,44466,WMM1,301821,false,false,202,image-keyboard-response,21
true,1,0,0,0,true,q,false,true,0.0-2.0-0.2-0.21-3.21,0,0,0,81,false,stim,false,-1,1694,1,0,0,44466,WMM1,305026,false,false,205,image-keyboard-response,22
true,1,0,0,0,true,q,false,true,0.0-2.0-0.2-0.22-3.22,0,0,0,81,false,stim,false,-1,773,1,0,0,44466,WMM1,307308,false,false,208,image-keyboard-response,23
true,1,2,0,2,true,d,false,true,0.0-2.0-0.2-0.23-3.23,0,0,0,68,false,stim,false,-1,1417,1,0,2,44466,WMM1,310237,false,false,211,image-keyboard-response,24
true,1,2,0,2,true,d,false,true,0.0-2.0-0.2-0.24-3.24,0,0,0,68,false,stim,false,-1,2250,1,0,1,44466,WMM1,313997,false,false,214,image-keyboard-response,25
true,1,2,0,2,true,d,false,true,0.0-2.0-0.2-0.25-3.25,0,0,0,68,false,stim,false,-1,1720,1,0,2,44466,WMM1,317228,false,false,217,image-keyboard-response,26
true,1,0,0,0,true,q,false,false,0.0-2.0-0.2-0.26-3.26,0,0,0,81,false,stim,false,-1,1671,1,0,0,44466,WMM1,320414,false,true,220,image-keyboard-response,27
true,1,2,0,2,true,d,false,true,0.0-2.0-0.3-0.27-3.27,0,0,0,68,false,stim,false,-1,1324,1,0,1,44466,WMM1,323244,false,false,223,image-keyboard-response,28
true,1,1,0,0,false,q,true,false,0.0-2.0-0.3-0.28-3.28,0,0,0,90,false,stim,false,-1,2118,1,0,0,44466,WMM1,326868,false,false,226,image-keyboard-response,29
true,1,0,0,0,true,q,false,true,0.0-2.0-0.3-0.29-3.29,0,0,0,81,false,stim,false,-1,1451,1,0,0,44466,WMM1,329827,false,false,229,image-keyboard-response,30
true,2,2,1,1,false,z,false,false,0.0-2.0-0.3-0.30-3.30,0,0,0,68,true,stim,true,2,2125,1,0,2,44466,WMM1,333460,false,false,232,image-keyboard-response,1
true,2,0,1,1,false,z,true,false,0.0-2.0-0.3-0.31-3.31,0,0,0,81,false,stim,false,2,957,1,0,2,44466,WMM1,335924,false,false,235,image-keyboard-response,2
true,2,2,1,0,false,q,false,false,0.0-2.0-0.3-0.32-3.32,0,0,0,68,false,stim,true,2,2376,1,0,1,44466,WMM1,339810,false,false,238,image-keyboard-response,3
true,2,0,1,2,false,d,false,false,0.0-2.0-0.3-0.33-3.33,0,0,0,81,false,stim,true,0,2500,1,0,0,44466,WMM1,343820,false,false,241,image-keyboard-response,4
true,2,1,1,0,false,q,true,false,0.0-2.0-0.3-0.34-3.34,0,0,0,90,false,stim,false,2,1776,1,0,1,44466,WMM1,347107,false,false,244,image-keyboard-response,5
false,2,-1,1,1,false,z,true,false,0.0-2.0-0.3-0.35-3.35,0,0,0,,false,stim,false,2,,1,0,2,44466,WMM1,351621,false,false,247,image-keyboard-response,6
true,2,0,1,2,false,d,false,false,0.0-2.0-0.4-0.36-3.36,0,0,0,81,false,stim,true,0,1533,1,0,0,44466,WMM1,354669,false,false,250,image-keyboard-response,7
true,2,1,1,2,false,d,true,false,0.0-2.0-0.4-0.37-3.37,0,0,0,90,false,stim,false,0,1374,1,0,0,44466,WMM1,357549,false,false,253,image-keyboard-response,8
true,2,1,1,0,false,q,true,false,0.0-2.0-0.4-0.38-3.38,0,0,0,90,false,stim,false,2,2620,1,0,1,44466,WMM1,361677,false,false,256,image-keyboard-response,9
true,2,0,1,2,false,d,false,false,0.0-2.0-0.4-0.39-3.39,0,0,0,81,false,stim,true,0,1810,1,0,0,44466,WMM1,364995,false,false,259,image-keyboard-response,10
true,2,1,1,1,true,z,false,true,0.0-2.0-0.4-0.40-3.40,0,0,0,90,false,stim,false,2,1339,1,0,2,44466,WMM1,367842,false,false,262,image-keyboard-response,11
true,2,1,1,1,true,z,false,true,0.0-2.0-0.4-0.41-3.41,0,0,0,90,false,stim,false,2,1955,1,0,2,44466,WMM1,371308,false,false,265,image-keyboard-response,12
true,2,0,1,0,true,q,false,true,0.0-2.0-0.4-0.42-3.42,0,0,0,81,false,stim,false,2,2955,1,0,1,44466,WMM1,375772,false,false,268,image-keyboard-response,13
true,2,1,1,1,true,z,false,true,0.0-2.0-0.4-0.43-3.43,0,0,0,90,false,stim,false,2,1607,1,0,2,44466,WMM1,378884,false,false,271,image-keyboard-response,14
true,2,1,1,0,false,q,true,false,0.0-2.0-0.4-0.44-3.44,0,0,0,90,false,stim,false,2,864,1,0,1,44466,WMM1,381260,false,false,274,image-keyboard-response,15
false,2,-1,1,1,false,z,true,true,0.0-2.0-0.5-0.45-3.45,0,0,0,,false,stim,false,2,,1,0,2,44466,WMM1,385777,false,true,277,image-keyboard-response,16
true,2,2,1,2,true,d,false,true,0.0-2.0-0.5-0.46-3.46,0,0,0,68,false,stim,false,0,1653,1,0,0,44466,WMM1,388939,false,false,280,image-keyboard-response,17
true,2,2,1,2,true,d,false,true,0.0-2.0-0.5-0.47-3.47,0,0,0,68,false,stim,false,0,994,1,0,0,44466,WMM1,391437,false,false,283,image-keyboard-response,18
true,2,0,1,1,false,z,true,false,0.0-2.0-0.5-0.48-3.48,0,0,0,81,false,stim,false,2,1842,1,0,2,44466,WMM1,394788,false,false,286,image-keyboard-response,19
true,2,2,1,2,true,d,false,true,0.0-2.0-0.5-0.49-3.49,0,0,0,68,false,stim,false,0,2069,1,0,0,44466,WMM1,398365,false,false,289,image-keyboard-response,20
true,2,0,1,0,true,q,false,true,0.0-2.0-0.5-0.50-3.50,0,0,0,81,false,stim,false,2,1558,1,0,1,44466,WMM1,401437,false,false,292,image-keyboard-response,21
true,2,0,1,0,true,q,false,true,0.0-2.0-0.5-0.51-3.51,0,0,0,81,false,stim,false,2,834,1,0,1,44466,WMM1,403780,false,false,295,image-keyboard-response,22
true,2,0,1,1,false,z,true,true,0.0-2.0-0.5-0.52-3.52,0,0,0,81,false,stim,false,2,2302,1,0,2,44466,WMM1,407596,false,true,298,image-keyboard-response,23
true,2,0,1,0,true,q,false,true,0.0-2.0-0.5-0.53-3.53,0,0,0,81,false,stim,false,2,1924,1,0,1,44466,WMM1,411036,false,false,301,image-keyboard-response,24
true,2,0,1,0,true,q,false,false,0.0-2.0-0.6-0.54-3.54,0,0,0,81,false,stim,false,2,1110,1,0,1,44466,WMM1,413661,false,true,304,image-keyboard-response,25
true,2,2,1,2,true,d,false,true,0.0-2.0-0.6-0.55-3.55,0,0,0,68,false,stim,false,0,1817,1,0,0,44466,WMM1,416988,false,false,307,image-keyboard-response,26
true,2,2,1,0,false,q,false,false,0.0-2.0-0.6-0.56-3.56,0,0,0,68,false,stim,true,2,1758,1,0,1,44466,WMM1,420260,false,false,310,image-keyboard-response,27
true,2,0,1,1,false,z,true,true,0.0-2.0-0.6-0.57-3.57,0,0,0,81,false,stim,false,2,2029,1,0,2,44466,WMM1,423796,false,true,313,image-keyboard-response,28
true,2,2,1,0,false,q,false,true,0.0-2.0-0.6-0.58-3.58,0,0,0,68,false,stim,true,2,1582,1,0,1,44466,WMM1,426884,false,true,316,image-keyboard-response,29
true,2,0,1,1,false,z,true,true,0.0-2.0-0.6-0.59-3.59,0,0,0,81,false,stim,false,2,1213,1,0,2,44466,WMM1,429604,false,true,319,image-keyboard-response,30
true,2,2,1,1,false,z,false,false,0.0-2.0-0.6-0.60-3.60,0,0,0,68,false,stim,true,2,973,1,0,2,44466,WMM1,432084,false,false,322,image-keyboard-response,31
true,2,2,1,2,true,d,false,true,0.0-2.0-0.6-0.61-3.61,0,0,0,68,false,stim,false,0,2059,1,0,0,44466,WMM1,435652,false,false,325,image-keyboard-response,32
true,2,2,1,2,true,d,false,true,0.0-2.0-0.6-0.62-3.62,0,0,0,68,false,stim,false,0,1807,1,0,0,44466,WMM1,438964,false,false,328,image-keyboard-response,33
true,2,2,1,0,false,q,false,false,0.0-2.0-0.7-0.63-3.63,0,0,0,68,false,stim,true,2,1572,1,0,1,44466,WMM1,442052,false,false,331,image-keyboard-response,34
true,2,0,1,1,false,z,true,false,0.0-2.0-0.7-0.64-3.64,0,0,0,81,false,stim,false,2,1529,1,0,2,44466,WMM1,445092,false,false,334,image-keyboard-response,35
true,2,2,1,2,true,d,false,true,0.0-2.0-0.7-0.65-3.65,0,0,0,68,false,stim,false,0,1390,1,0,0,44466,WMM1,447990,false,false,337,image-keyboard-response,36
true,2,2,1,0,false,q,false,false,0.0-2.0-0.7-0.66-3.66,0,0,0,68,false,stim,true,2,1197,1,0,1,44466,WMM1,450700,false,false,340,image-keyboard-response,37
false,2,-1,1,1,false,z,true,false,0.0-2.0-0.7-0.67-3.67,0,0,0,,false,stim,false,2,,1,0,2,44466,WMM1,455216,false,false,343,image-keyboard-response,38
true,2,1,1,1,true,z,false,false,0.0-2.0-0.7-0.68-3.68,0,0,0,90,false,stim,false,2,693,1,0,2,44466,WMM1,457420,false,true,346,image-keyboard-response,39
true,2,2,1,0,false,q,false,false,0.0-2.0-0.7-0.69-3.69,0,0,0,68,false,stim,true,2,2651,1,0,1,44466,WMM1,461580,false,false,349,image-keyboard-response,40
true,2,2,1,2,true,d,false,false,0.0-2.0-0.7-0.70-3.70,0,0,0,68,false,stim,false,0,2080,1,0,0,44466,WMM1,465172,false,true,352,image-keyboard-response,41
true,2,0,1,2,false,d,false,false,0.0-2.0-0.7-0.71-3.71,0,0,0,81,false,stim,true,0,999,1,0,0,44466,WMM1,467684,false,false,355,image-keyboard-response,42
true,2,1,1,1,true,z,false,true,0.0-2.0-0.8-0.72-3.72,0,0,0,90,false,stim,false,2,1193,1,0,2,44466,WMM1,470388,false,false,358,image-keyboard-response,43
true,2,1,1,0,false,q,true,false,0.0-2.0-0.8-0.73-3.73,0,0,0,90,false,stim,false,2,1482,1,0,1,44466,WMM1,473380,false,false,361,image-keyboard-response,44
true,2,2,1,2,true,d,false,true,0.0-2.0-0.8-0.74-3.74,0,0,0,68,false,stim,false,0,1036,1,0,0,44466,WMM1,475924,false,false,364,image-keyboard-response,45
true,2,1,1,1,true,z,false,true,0.0-2.0-0.8-0.75-3.75,0,0,0,90,false,stim,false,2,2896,1,0,2,44466,WMM1,480332,false,false,367,image-keyboard-response,46
true,2,2,1,0,false,q,false,false,0.0-2.0-0.8-0.76-3.76,0,0,0,68,false,stim,true,2,975,1,0,1,44466,WMM1,482820,false,false,370,image-keyboard-response,47
true,2,1,1,2,false,d,true,false,0.0-2.0-0.8-0.77-3.77,0,0,0,90,false,stim,false,0,1744,1,0,0,44466,WMM1,486076,false,false,373,image-keyboard-response,48
true,2,1,1,1,true,z,false,true,0.0-2.0-0.8-0.78-3.78,0,0,0,90,false,stim,false,2,2053,1,0,2,44466,WMM1,489644,false,false,376,image-keyboard-response,49
true,2,0,1,2,false,d,false,false,0.0-2.0-0.8-0.79-3.79,0,0,0,81,false,stim,true,0,1989,1,0,0,44466,WMM1,493147,false,false,379,image-keyboard-response,50
true,2,1,1,0,false,q,true,false,0.0-2.0-0.8-0.80-3.80,0,0,0,90,false,stim,false,2,1459,1,0,1,44466,WMM1,496116,false,false,382,image-keyboard-response,51
true,2,2,1,0,false,q,false,true,0.0-2.0-0.9-0.81-3.81,0,0,0,68,false,stim,true,2,1129,1,0,1,44466,WMM1,498757,false,true,385,image-keyboard-response,52
true,2,2,1,0,false,q,false,false,0.0-2.0-0.9-0.82-3.82,0,0,0,68,false,stim,true,2,1126,1,0,1,44466,WMM1,501389,false,false,388,image-keyboard-response,53
true,2,1,1,1,true,z,false,true,0.0-2.0-0.9-0.83-3.83,0,0,0,90,false,stim,false,2,1132,1,0,2,44466,WMM1,504028,false,false,391,image-keyboard-response,54
true,2,0,1,2,false,d,false,false,0.0-2.0-0.9-0.84-3.84,0,0,0,81,false,stim,true,0,2190,1,0,0,44466,WMM1,507732,false,false,394,image-keyboard-response,55
true,2,1,1,1,true,z,false,true,0.0-2.0-0.9-0.85-3.85,0,0,0,90,false,stim,false,2,1393,1,0,2,44466,WMM1,510636,false,false,397,image-keyboard-response,56
true,2,1,1,2,false,d,true,false,0.0-2.0-0.9-0.86-3.86,0,0,0,90,false,stim,false,0,2883,1,0,0,44466,WMM1,515028,false,false,400,image-keyboard-response,57
true,2,1,1,2,false,d,true,false,0.0-2.0-0.9-0.87-3.87,0,0,0,90,false,stim,false,0,2416,1,0,0,44466,WMM1,518956,false,false,403,image-keyboard-response,58
true,2,2,1,0,false,q,false,false,0.0-2.0-0.9-0.88-3.88,0,0,0,68,false,stim,true,2,1782,1,0,1,44466,WMM1,522252,false,false,406,image-keyboard-response,59
true,2,2,1,1,false,z,false,true,0.0-2.0-0.9-0.89-3.89,0,0,0,68,false,stim,true,2,1355,1,0,2,44466,WMM1,525116,false,true,409,image-keyboard-response,60
false,3,-1,1,0,false,q,true,false,0.0-2.0-0.10-0.90-3.90,0,0,0,,true,stim,false,2,,1,0,0,44466,WMM1,529625,false,false,412,image-keyboard-response,1
true,3,2,1,1,false,z,true,false,0.0-2.0-0.10-0.91-3.91,0,0,0,68,false,stim,false,0,1328,1,0,1,44466,WMM1,532460,false,false,415,image-keyboard-response,2
true,3,0,1,1,false,z,false,false,0.0-2.0-0.10-0.92-3.92,0,0,0,81,false,stim,true,0,1307,1,0,1,44466,WMM1,535276,false,false,418,image-keyboard-response,3
true,3,1,1,0,false,q,true,true,0.0-2.0-0.10-0.93-3.93,0,0,0,90,false,stim,false,2,2284,1,0,0,44466,WMM1,539068,false,true,421,image-keyboard-response,4
true,3,1,1,0,false,q,true,false,0.0-2.0-0.10-0.94-3.94,0,0,0,90,false,stim,false,2,1243,1,0,0,44466,WMM1,541820,false,false,424,image-keyboard-response,5
true,3,2,1,2,true,d,false,true,0.0-2.0-0.10-0.95-3.95,0,0,0,68,false,stim,false,1,2038,1,0,2,44466,WMM1,545364,false,false,427,image-keyboard-response,6
true,3,0,1,1,false,z,false,false,0.0-2.0-0.10-0.96-3.96,0,0,0,81,false,stim,true,0,2763,1,0,1,44466,WMM1,549638,false,false,430,image-keyboard-response,7
true,3,2,1,2,true,d,false,true,0.0-2.0-0.10-0.97-3.97,0,0,0,68,false,stim,false,1,1671,1,0,2,44466,WMM1,552820,false,false,433,image-keyboard-response,8
true,3,2,1,2,true,d,false,true,0.0-2.0-0.10-0.98-3.98,0,0,0,68,false,stim,false,1,794,1,0,2,44466,WMM1,555124,false,false,436,image-keyboard-response,9
true,3,2,1,2,true,d,false,true,0.0-2.0-0.11-0.99-3.99,0,0,0,68,false,stim,false,1,992,1,0,2,44466,WMM1,557628,false,false,439,image-keyboard-response,10
true,3,1,1,0,false,q,true,false,0.0-2.0-0.11-0.100-3.100,0,0,0,90,false,stim,false,2,2169,1,0,0,44466,WMM1,561308,false,false,442,image-keyboard-response,11
true,3,2,1,1,false,z,true,false,0.0-2.0-0.11-0.101-3.101,0,0,0,68,false,stim,false,0,2711,1,0,1,44466,WMM1,565532,false,false,445,image-keyboard-response,12
true,3,0,1,1,false,z,false,false,0.0-2.0-0.11-0.102-3.102,0,0,0,81,false,stim,true,0,870,1,0,1,44466,WMM1,567916,false,false,448,image-keyboard-response,13
true,3,2,1,2,true,d,false,true,0.0-2.0-0.11-0.103-3.103,0,0,0,68,false,stim,false,1,1894,1,0,2,44466,WMM1,571324,false,false,451,image-keyboard-response,14
true,3,1,1,1,true,z,false,true,0.0-2.0-0.11-0.104-3.104,0,0,0,90,false,stim,false,0,701,1,0,1,44466,WMM1,573541,false,false,454,image-keyboard-response,15
true,3,0,1,0,true,q,false,true,0.0-2.0-0.11-0.105-3.105,0,0,0,81,false,stim,false,2,2348,1,0,0,44466,WMM1,577397,false,false,457,image-keyboard-response,16
true,3,0,1,0,true,q,false,true,0.0-2.0-0.11-0.106-3.106,0,0,0,81,false,stim,false,2,856,1,0,0,44466,WMM1,579764,false,false,460,image-keyboard-response,17
true,3,2,1,2,true,d,false,true,0.0-2.0-0.11-0.107-3.107,0,0,0,68,false,stim,false,1,1382,1,0,2,44466,WMM1,582660,false,false,463,image-keyboard-response,18
true,3,0,1,1,false,z,false,false,0.0-2.0-0.12-0.108-3.108,0,0,0,81,false,stim,true,0,814,1,0,1,44466,WMM1,584984,false,false,466,image-keyboard-response,19
true,3,0,1,0,true,q,false,true,0.0-2.0-0.12-0.109-3.109,0,0,0,81,false,stim,false,2,2622,1,0,0,44466,WMM1,589114,false,false,469,image-keyboard-response,20
true,3,2,1,2,true,d,false,true,0.0-2.0-0.12-0.110-3.110,0,0,0,68,false,stim,false,1,1274,1,0,2,44466,WMM1,591900,false,false,472,image-keyboard-response,21
true,3,0,1,0,true,q,false,true,0.0-2.0-0.12-0.111-3.111,0,0,0,81,false,stim,false,2,1618,1,0,0,44466,WMM1,595028,false,false,475,image-keyboard-response,22
true,3,2,1,1,false,z,true,false,0.0-2.0-0.12-0.112-3.112,0,0,0,68,false,stim,false,0,1595,1,0,1,44466,WMM1,598140,false,false,478,image-keyboard-response,23
true,3,1,1,1,true,z,false,true,0.0-2.0-0.12-0.113-3.113,0,0,0,90,false,stim,false,0,1519,1,0,1,44466,WMM1,601172,false,false,481,image-keyboard-response,24
true,3,2,1,2,true,d,false,true,0.0-2.0-0.12-0.114-3.114,0,0,0,68,false,stim,false,1,2586,1,0,2,44466,WMM1,605268,false,false,484,image-keyboard-response,25
true,3,2,1,2,true,d,false,true,0.0-2.0-0.12-0.115-3.115,0,0,0,68,false,stim,false,1,855,1,0,2,44466,WMM1,607636,false,false,487,image-keyboard-response,26
true,3,0,1,0,true,q,false,true,0.0-2.0-0.12-0.116-3.116,0,0,0,81,false,stim,false,2,1169,1,0,0,44466,WMM1,610315,false,false,490,image-keyboard-response,27
true,3,1,1,1,true,z,false,true,0.0-2.0-0.13-0.117-3.117,0,0,0,90,false,stim,false,0,1574,1,0,1,44466,WMM1,613404,false,false,493,image-keyboard-response,28
true,3,0,1,0,true,q,false,true,0.0-2.0-0.13-0.118-3.118,0,0,0,81,false,stim,false,2,1448,1,0,0,44466,WMM1,616364,false,false,496,image-keyboard-response,29
true,3,1,1,1,true,z,false,true,0.0-2.0-0.13-0.119-3.119,0,0,0,90,false,stim,false,0,1994,1,1,1,44466,WMM1,619868,false,false,499,image-keyboard-response,30
true,3,1,1,1,true,z,false,true,0.0-2.0-0.13-0.120-3.120,0,0,0,90,false,stim,false,0,884,1,1,1,44466,WMM1,622268,false,false,502,image-keyboard-response,31
true,3,2,1,2,true,d,false,true,0.0-2.0-0.13-0.121-3.121,0,0,0,68,false,stim,false,1,1303,1,0,2,44466,WMM1,625084,false,false,505,image-keyboard-response,32
true,3,0,1,0,true,q,false,true,0.0-2.0-0.13-0.122-3.122,0,0,0,81,false,stim,false,2,1323,1,0,0,44466,WMM1,627916,false,false,508,image-keyboard-response,33
true,3,2,1,2,true,d,false,true,0.0-2.0-0.13-0.123-3.123,0,0,0,68,false,stim,false,1,1468,1,0,2,44466,WMM1,630893,false,false,511,image-keyboard-response,34
true,3,0,1,0,true,q,false,true,0.0-2.0-0.13-0.124-3.124,0,0,0,81,false,stim,false,2,1727,1,0,0,44466,WMM1,634133,false,false,514,image-keyboard-response,35
true,3,1,1,2,false,d,false,false,0.0-2.0-0.13-0.125-3.125,0,0,0,90,false,stim,true,1,1612,1,0,2,44466,WMM1,637259,false,false,517,image-keyboard-response,36
true,3,2,1,2,true,d,false,true,0.0-2.0-0.14-0.126-3.126,0,0,0,68,false,stim,false,1,1739,1,0,2,44466,WMM1,640508,false,false,520,image-keyboard-response,37
true,3,0,1,0,true,q,false,false,0.0-2.0-0.14-0.127-3.127,0,0,0,81,false,stim,false,2,1407,1,0,0,44466,WMM1,643427,false,true,523,image-keyboard-response,38
true,4,2,3,1,false,z,false,false,0.0-2.0-0.14-0.128-3.128,0,1,0,68,true,stim,true,2,1951,1,0,2,44466,WMM1,646885,false,false,526,image-keyboard-response,1
true,4,0,3,2,false,d,false,false,0.0-2.0-0.14-0.129-3.129,0,1,0,81,false,stim,true,0,2559,1,0,0,44466,WMM1,650949,false,false,529,image-keyboard-response,2
true,4,1,3,1,true,z,false,true,0.0-2.0-0.14-0.130-3.130,0,1,0,90,false,stim,false,1,1298,1,1,1,44466,WMM1,653756,false,false,532,image-keyboard-response,3
true,4,1,3,1,true,z,false,true,0.0-2.0-0.14-0.131-3.131,0,1,0,90,false,stim,false,1,1434,1,1,1,44466,WMM1,656700,false,false,535,image-keyboard-response,4
true,4,0,3,1,false,z,true,false,0.0-2.0-0.14-0.132-3.132,0,1,0,81,false,stim,false,2,2048,1,0,2,44466,WMM1,660260,false,false,538,image-keyboard-response,5
true,4,1,3,1,true,z,false,true,0.0-2.0-0.14-0.133-3.133,0,1,0,90,false,stim,false,1,1489,1,1,1,44466,WMM1,663258,false,false,541,image-keyboard-response,6
true,4,2,3,2,true,d,false,true,0.0-2.0-0.14-0.134-3.134,0,1,0,68,false,stim,false,0,1803,1,0,0,44466,WMM1,666572,false,false,544,image-keyboard-response,7
true,4,2,3,1,false,z,true,false,0.0-2.0-0.15-0.135-3.135,0,1,0,68,false,stim,false,1,2413,1,1,1,44466,WMM1,670493,false,false,547,image-keyboard-response,8
true,4,0,3,1,false,z,true,false,0.0-2.0-0.15-0.136-3.136,0,1,0,81,false,stim,false,1,999,1,1,1,44466,WMM1,673004,false,false,550,image-keyboard-response,9
true,4,1,3,1,true,z,false,true,0.0-2.0-0.15-0.137-3.137,0,1,0,90,false,stim,false,2,2997,1,0,2,44466,WMM1,677508,false,false,553,image-keyboard-response,10
true,4,1,3,1,true,z,false,true,0.0-2.0-0.15-0.138-3.138,0,1,0,90,false,stim,false,2,2049,1,0,2,44466,WMM1,681068,false,false,556,image-keyboard-response,11
true,4,1,3,1,true,z,false,true,0.0-2.0-0.15-0.139-3.139,0,1,0,90,false,stim,false,2,1190,1,0,2,44466,WMM1,683773,false,false,559,image-keyboard-response,12
true,4,2,3,2,true,d,false,true,0.0-2.0-0.15-0.140-3.140,0,1,0,68,false,stim,false,0,1729,1,0,0,44466,WMM1,687013,false,false,562,image-keyboard-response,13
true,4,2,3,1,false,z,true,false,0.0-2.0-0.15-0.141-3.141,0,1,0,68,false,stim,false,1,2541,1,1,1,44466,WMM1,691068,false,false,565,image-keyboard-response,14
true,4,2,3,2,true,d,false,true,0.0-2.0-0.15-0.142-3.142,0,1,0,68,false,stim,false,0,2586,1,0,0,44466,WMM1,695164,false,false,568,image-keyboard-response,15
true,4,2,3,2,true,d,false,true,0.0-2.0-0.15-0.143-3.143,0,1,0,68,false,stim,false,0,863,1,0,0,44466,WMM1,697532,false,false,571,image-keyboard-response,16
true,4,1,3,1,true,z,false,true,0.0-2.0-0.16-0.144-3.144,0,1,0,90,false,stim,false,2,2210,1,0,2,44466,WMM1,701252,false,false,574,image-keyboard-response,17
true,4,0,3,1,false,z,true,false,0.0-2.0-0.16-0.145-3.145,0,1,0,81,false,stim,false,1,2093,1,1,1,44466,WMM1,704852,false,false,577,image-keyboard-response,18
true,4,2,3,2,true,d,false,true,0.0-2.0-0.16-0.146-3.146,0,1,0,68,false,stim,false,0,2092,1,0,0,44466,WMM1,708453,false,false,580,image-keyboard-response,19
true,4,2,3,2,true,d,false,true,0.0-2.0-0.16-0.147-3.147,0,1,0,68,false,stim,false,0,761,1,0,0,44466,WMM1,710725,false,false,583,image-keyboard-response,20
true,4,1,3,1,true,z,false,true,0.0-2.0-0.16-0.148-3.148,0,1,0,90,false,stim,false,2,1721,1,0,2,44466,WMM1,713956,false,false,586,image-keyboard-response,21
true,4,1,3,1,true,z,false,true,0.0-2.0-0.16-0.149-3.149,0,1,0,90,false,stim,false,1,2073,1,1,1,44466,WMM1,717541,false,false,589,image-keyboard-response,22
true,4,2,3,2,true,d,false,true,0.0-2.0-0.16-0.150-3.150,0,1,0,68,false,stim,false,0,1925,1,0,0,44466,WMM1,720980,false,false,592,image-keyboard-response,23
true,4,1,3,1,true,z,false,true,0.0-2.0-0.16-0.151-3.151,0,1,0,90,false,stim,false,2,863,1,0,2,44466,WMM1,723357,false,false,595,image-keyboard-response,24
true,4,1,3,1,true,z,false,true,0.0-2.0-0.16-0.152-3.152,0,1,0,90,false,stim,false,1,872,1,1,1,44466,WMM1,725739,false,false,598,image-keyboard-response,25
true,4,2,3,2,true,d,false,true,0.0-2.0-0.17-0.153-3.153,0,1,0,68,false,stim,false,0,1455,1,1,0,44466,WMM1,728716,false,false,601,image-keyboard-response,26
true,4,1,3,1,true,z,false,true,0.0-2.0-0.17-0.154-3.154,0,1,0,90,false,stim,false,2,932,1,0,2,44466,WMM1,731156,false,false,604,image-keyboard-response,27
true,4,1,3,1,true,z,false,true,0.0-2.0-0.17-0.155-3.155,0,1,0,90,false,stim,false,1,1960,1,0,1,44466,WMM1,734628,false,false,607,image-keyboard-response,28
true,4,1,3,1,true,z,false,true,0.0-2.0-0.17-0.156-3.156,0,1,0,90,false,stim,false,1,674,1,0,1,44466,WMM1,736812,false,false,610,image-keyboard-response,29
true,4,1,3,1,true,z,false,true,0.0-2.0-0.17-0.157-3.157,0,1,0,90,false,stim,false,1,653,1,0,1,44466,WMM1,738980,false,false,613,image-keyboard-response,30
true,4,1,3,1,true,z,false,false,0.0-2.0-0.17-0.158-3.158,0,1,0,90,false,stim,false,2,2022,1,0,2,44466,WMM1,742516,false,true,616,image-keyboard-response,31
true,4,2,3,2,true,d,false,true,0.0-2.0-0.17-0.159-3.159,0,1,0,68,false,stim,false,0,2704,1,1,0,44466,WMM1,746732,false,false,619,image-keyboard-response,32
true,4,1,3,1,true,z,false,true,0.0-2.0-0.17-0.160-3.160,0,1,0,90,false,stim,false,2,2177,1,0,2,44466,WMM1,750420,false,false,622,image-keyboard-response,33
true,4,2,3,2,true,d,false,true,0.0-2.0-0.17-0.161-3.161,0,1,0,68,false,stim,false,0,1861,1,1,0,44466,WMM1,753797,false,false,625,image-keyboard-response,34
true,4,1,3,1,true,z,false,false,0.0-2.0-0.18-0.162-3.162,0,1,0,90,false,stim,false,1,2414,1,0,1,44466,WMM1,757723,false,true,628,image-keyboard-response,35
true,5,2,3,2,true,d,false,true,0.0-2.0-0.18-0.163-3.163,1,0,0,68,true,stim,false,2,2624,1,1,0,44466,WMM1,761860,false,false,631,image-keyboard-response,1
true,5,1,3,0,false,q,false,false,0.0-2.0-0.18-0.164-3.164,1,0,0,90,false,stim,true,1,2140,1,0,2,44466,WMM1,765509,false,false,634,image-keyboard-response,2
true,5,1,3,2,false,d,false,true,0.0-2.0-0.18-0.165-3.165,1,0,0,90,false,stim,true,1,2198,1,0,1,44466,WMM1,769220,false,true,637,image-keyboard-response,3
true,5,0,3,0,true,q,false,true,0.0-2.0-0.18-0.166-3.166,1,0,0,81,false,stim,false,1,2088,1,0,2,44466,WMM1,772818,false,false,640,image-keyboard-response,4
true,5,2,3,2,true,d,false,true,0.0-2.0-0.18-0.167-3.167,1,0,0,68,false,stim,false,2,1732,1,1,0,44466,WMM1,776061,false,false,643,image-keyboard-response,5
true,5,1,3,2,false,d,false,false,0.0-2.0-0.18-0.168-3.168,1,0,0,90,false,stim,true,1,1595,1,0,1,44466,WMM1,779164,false,false,646,image-keyboard-response,6
true,5,0,3,0,true,q,false,false,0.0-2.0-0.18-0.169-3.169,1,0,0,81,false,stim,false,1,1699,1,0,2,44466,WMM1,782380,false,true,649,image-keyboard-response,7
true,5,2,3,2,true,d,false,true,0.0-2.0-0.18-0.170-3.170,1,0,0,68,false,stim,false,2,2236,1,1,0,44466,WMM1,786124,false,false,652,image-keyboard-response,8
true,5,2,3,0,false,q,true,false,0.0-2.0-0.19-0.171-3.171,1,0,0,68,false,stim,false,1,702,1,0,2,44466,WMM1,788340,false,false,655,image-keyboard-response,9
false,5,-1,3,2,false,d,true,false,0.0-2.0-0.19-0.172-3.172,1,0,0,,false,stim,false,2,,1,1,0,44466,WMM1,792857,false,false,658,image-keyboard-response,10
true,5,2,3,0,false,q,true,false,0.0-2.0-0.19-0.173-3.173,1,0,0,68,false,stim,false,1,1426,1,0,2,44466,WMM1,795788,false,false,661,image-keyboard-response,11
true,5,1,3,2,false,d,false,false,0.0-2.0-0.19-0.174-3.174,1,0,0,90,false,stim,true,1,2497,1,0,1,44466,WMM1,799796,false,false,664,image-keyboard-response,12
true,5,2,3,2,true,d,false,true,0.0-2.0-0.19-0.175-3.175,1,0,0,68,false,stim,false,2,2547,1,1,0,44466,WMM1,803852,false,false,667,image-keyboard-response,13
true,5,0,3,2,false,d,true,false,0.0-2.0-0.19-0.176-3.176,1,0,0,81,false,stim,false,1,1655,1,0,1,44466,WMM1,807020,false,false,670,image-keyboard-response,14
true,5,2,3,2,true,d,false,true,0.0-2.0-0.19-0.177-3.177,1,0,0,68,false,stim,false,1,1985,1,0,1,44466,WMM1,810517,false,false,673,image-keyboard-response,15
true,5,2,3,2,true,d,false,true,0.0-2.0-0.19-0.178-3.178,1,0,0,68,false,stim,false,2,1883,1,1,0,44466,WMM1,813908,false,false,676,image-keyboard-response,16
true,5,1,3,0,false,q,false,false,0.0-2.0-0.19-0.179-3.179,1,0,0,90,false,stim,true,1,1883,1,0,2,44466,WMM1,817300,false,false,679,image-keyboard-response,17
true,5,2,3,2,true,d,false,true,0.0-2.0-0.20-0.180-3.180,1,0,0,68,false,stim,false,1,2358,1,0,1,44466,WMM1,821172,false,false,682,image-keyboard-response,18
true,5,0,3,0,true,q,false,true,0.0-2.0-0.20-0.181-3.181,1,0,0,81,false,stim,false,1,1216,1,0,2,44466,WMM1,823900,false,false,685,image-keyboard-response,19
true,5,0,3,0,true,q,false,true,0.0-2.0-0.20-0.182-3.182,1,0,0,81,false,stim,false,1,840,1,0,2,44466,WMM1,826253,false,false,688,image-keyboard-response,20
true,5,2,3,2,true,d,false,true,0.0-2.0-0.20-0.183-3.183,1,0,0,68,false,stim,false,2,1669,1,0,0,44466,WMM1,829437,false,false,691,image-keyboard-response,21
true,5,2,3,2,true,d,false,true,0.0-2.0-0.20-0.184-3.184,1,0,0,68,false,stim,false,2,735,1,0,0,44466,WMM1,831684,false,false,694,image-keyboard-response,22
true,5,0,3,0,true,q,false,true,0.0-2.0-0.20-0.185-3.185,1,0,0,81,false,stim,false,1,1797,1,0,2,44466,WMM1,834995,false,false,697,image-keyboard-response,23
true,5,2,3,2,true,d,false,true,0.0-2.0-0.20-0.186-3.186,1,0,0,68,false,stim,false,1,1785,1,0,1,44466,WMM1,838292,false,false,700,image-keyboard-response,24
true,5,2,3,2,true,d,false,true,0.0-2.0-0.20-0.187-3.187,1,0,0,68,false,stim,false,1,625,1,0,1,44466,WMM1,840436,false,false,703,image-keyboard-response,25
true,5,2,3,2,true,d,false,true,0.0-2.0-0.20-0.188-3.188,1,0,0,68,false,stim,false,2,1353,1,0,0,44466,WMM1,843300,false,false,706,image-keyboard-response,26
true,5,2,3,2,true,d,false,true,0.0-2.0-0.21-0.189-3.189,1,0,0,68,false,stim,false,1,1260,1,0,1,44466,WMM1,846068,false,false,709,image-keyboard-response,27
true,5,0,3,0,true,q,false,true,0.0-2.0-0.21-0.190-3.190,1,0,0,81,false,stim,false,1,1523,1,0,2,44466,WMM1,849099,false,false,712,image-keyboard-response,28
true,5,2,3,2,true,d,false,true,0.0-2.0-0.21-0.191-3.191,1,0,0,68,false,stim,false,2,1564,1,0,0,44466,WMM1,852180,false,false,715,image-keyboard-response,29
true,5,2,3,2,true,d,false,true,0.0-2.0-0.21-0.192-3.192,1,0,0,68,false,stim,false,2,666,1,0,0,44466,WMM1,854356,false,false,718,image-keyboard-response,30
true,6,0,2,2,false,d,false,false,0.0-2.0-0.21-0.193-3.193,0,0,0,81,true,stim,true,0,1659,1,0,2,44466,WMM1,857524,false,false,721,image-keyboard-response,1
true,6,2,2,0,false,q,false,true,0.0-2.0-0.21-0.194-3.194,0,0,0,68,false,stim,true,2,2427,1,0,0,44466,WMM1,861460,false,true,724,image-keyboard-response,2
true,6,2,2,1,false,z,false,false,0.0-2.0-0.21-0.195-3.195,0,0,0,68,false,stim,true,2,1707,1,0,1,44466,WMM1,864676,false,false,727,image-keyboard-response,3
true,6,1,2,2,false,d,true,false,0.0-2.0-0.21-0.196-3.196,0,0,0,90,false,stim,false,0,1861,1,0,2,44466,WMM1,868051,false,false,730,image-keyboard-response,4
true,6,0,2,1,false,z,true,false,0.0-2.0-0.21-0.197-3.197,0,0,0,81,false,stim,false,2,2797,1,0,1,44466,WMM1,872364,false,false,733,image-keyboard-response,5
true,6,0,2,2,false,d,false,false,0.0-2.0-0.22-0.198-3.198,0,0,0,81,false,stim,true,0,2087,1,0,2,44466,WMM1,875964,false,false,736,image-keyboard-response,6
true,6,1,2,1,true,z,false,true,0.0-2.0-0.22-0.199-3.199,0,0,0,90,false,stim,false,2,1802,1,0,1,44466,WMM1,879277,false,false,739,image-keyboard-response,7
true,6,2,2,0,false,q,false,false,0.0-2.0-0.22-0.200-3.200,0,0,0,68,false,stim,true,2,1704,1,0,0,44466,WMM1,882491,false,false,742,image-keyboard-response,8
true,6,2,2,2,true,d,false,true,0.0-2.0-0.22-0.201-3.201,0,0,0,68,false,stim,false,0,1513,1,0,2,44466,WMM1,885517,false,false,745,image-keyboard-response,9
true,6,2,2,1,false,z,false,false,0.0-2.0-0.22-0.202-3.202,0,0,0,68,false,stim,true,2,2663,1,0,1,44466,WMM1,889693,false,false,748,image-keyboard-response,10
true,6,0,2,1,false,z,true,false,0.0-2.0-0.22-0.203-3.203,0,0,0,81,false,stim,false,2,581,1,0,1,44466,WMM1,891781,false,false,751,image-keyboard-response,11
true,6,2,2,2,true,d,false,true,0.0-2.0-0.22-0.204-3.204,0,0,0,68,false,stim,false,0,1919,1,0,2,44466,WMM1,895213,false,false,754,image-keyboard-response,12
true,6,2,2,0,false,q,false,false,0.0-2.0-0.22-0.205-3.205,0,0,0,68,false,stim,true,2,2375,1,0,0,44466,WMM1,899101,false,false,757,image-keyboard-response,13
true,6,1,2,0,false,q,true,false,0.0-2.0-0.22-0.206-3.206,0,0,0,90,false,stim,false,2,570,1,0,0,44466,WMM1,901180,false,false,760,image-keyboard-response,14
true,6,2,2,2,true,d,false,true,0.0-2.0-0.23-0.207-3.207,0,0,0,68,false,stim,false,0,2751,1,0,2,44466,WMM1,905442,false,false,763,image-keyboard-response,15
true,6,0,2,0,true,q,false,true,0.0-2.0-0.23-0.208-3.208,0,0,0,81,false,stim,false,2,1286,1,0,0,44466,WMM1,908234,false,false,766,image-keyboard-response,16
true,6,0,2,1,false,z,true,true,0.0-2.0-0.23-0.209-3.209,0,0,0,81,false,stim,false,2,1790,1,0,1,44466,WMM1,911531,false,true,769,image-keyboard-response,17
true,6,0,2,1,false,z,true,false,0.0-2.0-0.23-0.210-3.210,0,0,0,81,false,stim,false,2,607,1,0,1,44466,WMM1,913649,false,false,772,image-keyboard-response,18
true,6,2,2,1,false,z,false,false,0.0-2.0-0.23-0.211-3.211,0,0,0,68,false,stim,true,2,2212,1,0,1,44466,WMM1,917373,false,false,775,image-keyboard-response,19
true,6,0,2,0,true,q,false,true,0.0-2.0-0.23-0.212-3.212,0,0,0,81,false,stim,false,2,1917,1,0,0,44466,WMM1,920804,false,false,778,image-keyboard-response,20
true,6,1,2,0,false,q,true,false,0.0-2.0-0.23-0.213-3.213,0,0,0,90,false,stim,false,2,1836,1,0,0,44466,WMM1,924156,false,false,781,image-keyboard-response,21
true,6,2,2,2,true,d,false,true,0.0-2.0-0.23-0.214-3.214,0,0,0,68,false,stim,false,0,1475,1,0,2,44466,WMM1,927146,false,false,784,image-keyboard-response,22
true,6,2,2,2,true,d,false,true,0.0-2.0-0.23-0.215-3.215,0,0,0,68,false,stim,false,0,946,1,0,2,44466,WMM1,929604,false,false,787,image-keyboard-response,23
true,6,0,2,1,false,z,true,true,0.0-2.0-0.24-0.216-3.216,0,0,0,81,false,stim,false,2,1668,1,0,1,44466,WMM1,932788,false,true,790,image-keyboard-response,24
true,6,0,2,1,false,z,true,false,0.0-2.0-0.24-0.217-3.217,0,0,0,81,false,stim,false,2,852,1,0,1,44466,WMM1,935155,false,false,793,image-keyboard-response,25
true,6,1,2,0,false,q,true,false,0.0-2.0-0.24-0.218-3.218,0,0,0,90,false,stim,false,2,2123,1,0,0,44466,WMM1,938788,false,false,796,image-keyboard-response,26
true,6,2,2,2,true,d,false,true,0.0-2.0-0.24-0.219-3.219,0,0,0,68,false,stim,false,0,2656,1,0,2,44466,WMM1,942963,false,false,799,image-keyboard-response,27
true,6,2,2,2,true,d,false,true,0.0-2.0-0.24-0.220-3.220,0,0,0,68,false,stim,false,0,715,1,0,2,44466,WMM1,945197,false,false,802,image-keyboard-response,28
true,6,0,2,0,true,q,false,true,0.0-2.0-0.24-0.221-3.221,0,0,0,81,false,stim,false,2,1974,1,0,0,44466,WMM1,948686,false,false,805,image-keyboard-response,29
true,6,0,2,0,true,q,false,true,0.0-2.0-0.24-0.222-3.222,0,0,0,81,false,stim,false,2,805,1,0,0,44466,WMM1,951004,false,false,808,image-keyboard-response,30
true,6,1,2,1,true,z,false,true,0.0-2.0-0.24-0.223-3.223,0,0,0,90,false,stim,false,2,2436,1,0,1,44466,WMM1,954957,false,false,811,image-keyboard-response,31
true,6,2,2,2,true,d,false,false,0.0-2.0-0.24-0.224-3.224,0,0,0,68,false,stim,false,0,1185,1,0,2,44466,WMM1,957652,false,true,814,image-keyboard-response,32
true,6,0,2,0,true,q,false,true,0.0-2.0-0.25-0.225-3.225,0,0,0,81,false,stim,false,2,2014,1,0,0,44466,WMM1,961181,false,false,817,image-keyboard-response,33
true,6,1,2,1,true,z,false,true,0.0-2.0-0.25-0.226-3.226,0,0,0,90,false,stim,false,2,1753,1,0,1,44466,WMM1,964444,false,false,820,image-keyboard-response,34
true,6,1,2,1,true,z,false,true,0.0-2.0-0.25-0.227-3.227,0,0,0,90,false,stim,false,2,1181,1,0,1,44466,WMM1,967140,false,false,823,image-keyboard-response,35
true,6,1,2,1,true,z,false,true,0.0-2.0-0.25-0.228-3.228,0,0,0,90,false,stim,false,2,663,1,0,1,44466,WMM1,969316,false,false,826,image-keyboard-response,36
true,6,1,2,2,false,d,true,false,0.0-2.0-0.25-0.229-3.229,0,0,0,90,false,stim,false,0,2399,1,0,2,44466,WMM1,973229,false,false,829,image-keyboard-response,37
true,6,0,2,2,false,d,false,false,0.0-2.0-0.25-0.230-3.230,0,0,0,81,false,stim,true,0,1160,1,0,2,44466,WMM1,975900,false,false,832,image-keyboard-response,38
true,6,2,2,2,true,d,false,true,0.0-2.0-0.25-0.231-3.231,0,0,0,68,false,stim,false,0,611,1,0,2,44466,WMM1,978020,false,false,835,image-keyboard-response,39
true,6,0,2,0,true,q,false,true,0.0-2.0-0.25-0.232-3.232,0,0,0,81,false,stim,false,2,2042,1,0,0,44466,WMM1,981573,false,false,838,image-keyboard-response,40
true,6,0,2,0,true,q,false,false,0.0-2.0-0.25-0.233-3.233,0,0,0,81,false,stim,false,2,816,1,0,0,44466,WMM1,983901,false,true,841,image-keyboard-response,41
true,6,1,2,1,true,z,false,true,0.0-2.0-0.26-0.234-3.234,0,0,0,90,false,stim,false,2,1752,1,0,1,44466,WMM1,987165,false,false,844,image-keyboard-response,42
true,6,1,2,0,false,q,true,false,0.0-2.0-0.26-0.235-3.235,0,0,0,90,false,stim,false,2,2137,1,0,0,44466,WMM1,990812,false,false,847,image-keyboard-response,43
true,6,2,2,0,false,q,false,false,0.0-2.0-0.26-0.236-3.236,0,0,0,68,false,stim,true,2,907,1,0,0,44466,WMM1,993228,false,false,850,image-keyboard-response,44
true,7,0,1,1,false,z,false,false,0.0-2.0-0.26-0.237-3.237,0,0,0,81,true,stim,true,0,606,1,0,0,44466,WMM1,995341,false,false,853,image-keyboard-response,1
true,7,2,1,1,false,z,false,false,0.0-2.0-0.26-0.238-3.238,0,0,0,68,false,stim,true,2,2240,1,0,2,44466,WMM1,999093,false,false,856,image-keyboard-response,2
true,7,1,1,1,true,z,false,true,0.0-2.0-0.26-0.239-3.239,0,0,0,90,false,stim,false,2,1040,1,0,2,44466,WMM1,1001645,false,false,859,image-keyboard-response,3
true,7,1,1,2,false,d,false,false,0.0-2.0-0.26-0.240-3.240,0,0,0,90,false,stim,true,1,1788,1,0,1,44466,WMM1,1004948,false,false,862,image-keyboard-response,4
true,7,2,1,1,false,z,false,false,0.0-2.0-0.26-0.241-3.241,0,0,0,68,false,stim,true,2,611,1,0,2,44466,WMM1,1007069,false,false,865,image-keyboard-response,5
false,7,-1,1,2,false,d,true,false,0.0-2.0-0.26-0.242-3.242,0,0,0,,false,stim,false,1,,1,0,1,44466,WMM1,1011585,false,false,868,image-keyboard-response,6
true,7,1,1,1,true,z,false,true,0.0-2.0-0.27-0.243-3.243,0,0,0,90,false,stim,false,2,2552,1,0,2,44466,WMM1,1015644,false,false,871,image-keyboard-response,7
true,7,1,1,1,true,z,false,true,0.0-2.0-0.27-0.244-3.244,0,0,0,90,false,stim,false,0,2174,1,0,0,44466,WMM1,1019332,false,false,874,image-keyboard-response,8
true,7,1,1,1,true,z,false,true,0.0-2.0-0.27-0.245-3.245,0,0,0,90,false,stim,false,0,1344,1,0,0,44466,WMM1,1022188,false,false,877,image-keyboard-response,9
true,7,2,1,2,true,d,false,false,0.0-2.0-0.27-0.246-3.246,0,0,0,68,false,stim,false,1,2199,1,0,1,44466,WMM1,1025900,false,true,880,image-keyboard-response,10
true,7,0,1,2,false,d,true,true,0.0-2.0-0.27-0.247-3.247,0,0,0,81,false,stim,false,1,613,1,0,1,44466,WMM1,1028028,false,true,883,image-keyboard-response,11
true,7,0,1,2,false,d,true,false,0.0-2.0-0.27-0.248-3.248,0,0,0,81,false,stim,false,1,533,1,0,1,44466,WMM1,1030077,false,false,886,image-keyboard-response,12
true,7,1,1,1,true,z,false,true,0.0-2.0-0.27-0.249-3.249,0,0,0,90,false,stim,false,2,2115,1,0,2,44466,WMM1,1033708,false,false,889,image-keyboard-response,13
true,7,1,1,1,true,z,false,false,0.0-2.0-0.27-0.250-3.250,0,0,0,90,false,stim,false,0,1654,1,0,0,44466,WMM1,1036876,false,true,892,image-keyboard-response,14
true,7,1,1,1,true,z,false,true,0.0-2.0-0.27-0.251-3.251,0,0,0,90,false,stim,false,2,2143,1,0,2,44466,WMM1,1040530,false,false,895,image-keyboard-response,15
true,7,0,1,1,false,z,false,false,0.0-2.0-0.28-0.252-3.252,0,0,0,81,false,stim,true,0,1942,1,0,0,44466,WMM1,1043980,false,false,898,image-keyboard-response,16
true,7,1,1,1,true,z,false,true,0.0-2.0-0.28-0.253-3.253,0,0,0,90,false,stim,false,2,2130,1,0,2,44466,WMM1,1047636,false,false,901,image-keyboard-response,17
true,7,0,1,2,false,d,true,false,0.0-2.0-0.28-0.254-3.254,0,0,0,81,false,stim,false,1,1254,1,0,1,44466,WMM1,1050404,false,false,904,image-keyboard-response,18
true,7,1,1,1,true,z,false,false,0.0-2.0-0.28-0.255-3.255,0,0,0,90,false,stim,false,2,1744,1,0,2,44466,WMM1,1053661,false,true,907,image-keyboard-response,19
false,7,-1,1,1,false,z,true,false,0.0-2.0-0.28-0.256-3.256,0,0,0,,false,stim,false,0,,1,0,0,44466,WMM1,1058176,false,false,910,image-keyboard-response,20
true,7,2,1,1,false,z,false,false,0.0-2.0-0.28-0.257-3.257,0,0,0,68,false,stim,true,2,2529,1,0,2,44466,WMM1,1062221,false,false,913,image-keyboard-response,21
true,7,0,1,1,false,z,false,false,0.0-2.0-0.28-0.258-3.258,0,0,0,81,false,stim,true,0,2185,1,0,0,44466,WMM1,1065924,false,false,916,image-keyboard-response,22
true,7,1,1,2,false,d,false,false,0.0-2.0-0.28-0.259-3.259,0,0,0,90,false,stim,true,1,2560,1,0,1,44466,WMM1,1069996,false,false,919,image-keyboard-response,23
true,7,0,1,2,false,d,true,false,0.0-2.0-0.28-0.260-3.260,0,0,0,81,false,stim,false,1,677,1,0,1,44466,WMM1,1072188,false,false,922,image-keyboard-response,24
true,7,2,1,1,false,z,false,false,0.0-2.0-0.29-0.261-3.261,0,0,0,68,false,stim,true,2,2078,1,0,2,44466,WMM1,1075780,false,false,925,image-keyboard-response,25
true,7,2,1,1,false,z,true,false,0.0-2.0-0.29-0.262-3.262,0,0,0,68,false,stim,false,0,2297,1,0,0,44466,WMM1,1079596,false,false,928,image-keyboard-response,26
true,7,1,1,1,true,z,false,true,0.0-2.0-0.29-0.263-3.263,0,0,0,90,false,stim,false,0,701,1,0,0,44466,WMM1,1081811,false,false,931,image-keyboard-response,27
true,7,1,1,1,true,z,false,true,0.0-2.0-0.29-0.264-3.264,0,0,0,90,false,stim,false,0,1181,1,0,0,44466,WMM1,1084509,false,false,934,image-keyboard-response,28
true,7,2,1,2,true,d,false,false,0.0-2.0-0.29-0.265-3.265,0,0,0,68,false,stim,false,1,1718,1,0,1,44466,WMM1,1087740,false,true,937,image-keyboard-response,29
true,7,0,1,2,false,d,true,false,0.0-2.0-0.29-0.266-3.266,0,0,0,81,false,stim,false,1,641,1,0,1,44466,WMM1,1089892,false,false,940,image-keyboard-response,30
true,7,2,1,1,false,z,false,false,0.0-2.0-0.29-0.267-3.267,0,0,0,68,false,stim,true,2,1731,1,0,2,44466,WMM1,1093140,false,false,943,image-keyboard-response,31
true,7,1,1,2,false,d,false,false,0.0-2.0-0.29-0.268-3.268,0,0,0,90,false,stim,true,1,1081,1,0,1,44466,WMM1,1095737,false,false,946,image-keyboard-response,32
true,7,1,1,1,true,z,false,true,0.0-2.0-0.29-0.269-3.269,0,0,0,90,false,stim,false,2,1202,1,0,2,44466,WMM1,1098452,false,false,949,image-keyboard-response,33
true,7,0,1,2,false,d,true,false,0.0-2.0-0.30-0.270-3.270,0,0,0,81,false,stim,false,1,1229,1,0,1,44466,WMM1,1101197,false,false,952,image-keyboard-response,34
true,7,1,1,1,true,z,false,true,0.0-2.0-0.30-0.271-3.271,0,0,0,90,false,stim,false,2,2182,1,0,2,44466,WMM1,1104892,false,false,955,image-keyboard-response,35
true,7,1,1,1,true,z,false,true,0.0-2.0-0.30-0.272-3.272,0,0,0,90,false,stim,false,0,1715,1,0,0,44466,WMM1,1108125,false,false,958,image-keyboard-response,36
true,7,1,1,1,true,z,false,true,0.0-2.0-0.30-0.273-3.273,0,0,0,90,false,stim,false,0,1642,1,0,0,44466,WMM1,1111277,false,false,961,image-keyboard-response,37
true,7,1,1,1,true,z,false,true,0.0-2.0-0.30-0.274-3.274,0,0,0,90,false,stim,false,0,694,1,0,0,44466,WMM1,1113484,false,false,964,image-keyboard-response,38
true,7,1,1,1,true,z,false,true,0.0-2.0-0.30-0.275-3.275,0,0,0,90,false,stim,false,2,1693,1,0,2,44466,WMM1,1116692,false,false,967,image-keyboard-response,39
true,7,2,1,2,true,d,false,true,0.0-2.0-0.30-0.276-3.276,0,0,0,68,false,stim,false,1,1414,1,0,1,44466,WMM1,1119620,false,false,970,image-keyboard-response,40
true,7,2,1,1,false,z,false,false,0.0-2.0-0.30-0.277-3.277,0,0,0,68,false,stim,true,2,680,1,0,2,44466,WMM1,1121813,false,false,973,image-keyboard-response,41
true,7,2,1,2,true,d,false,true,0.0-2.0-0.30-0.278-3.278,0,0,0,68,false,stim,false,1,2344,1,0,1,44466,WMM1,1125668,false,false,976,image-keyboard-response,42
true,7,2,1,2,true,d,false,true,0.0-2.0-0.31-0.279-3.279,0,0,0,68,false,stim,false,1,856,1,0,1,44466,WMM1,1128044,false,false,979,image-keyboard-response,43
true,7,1,1,1,true,z,false,true,0.0-2.0-0.31-0.280-3.280,0,0,0,90,false,stim,false,2,949,1,0,2,44466,WMM1,1130509,false,false,982,image-keyboard-response,44
true,7,1,1,1,true,z,false,true,0.0-2.0-0.31-0.281-3.281,0,0,0,90,false,stim,false,2,631,1,0,2,44466,WMM1,1132652,false,false,985,image-keyboard-response,45
true,7,1,1,1,true,z,false,true,0.0-2.0-0.31-0.282-3.282,0,0,0,90,false,stim,false,0,1597,1,0,0,44466,WMM1,1135764,false,false,988,image-keyboard-response,46
true,7,2,1,2,true,d,false,true,0.0-2.0-0.31-0.283-3.283,0,0,0,68,false,stim,false,1,1706,1,0,1,44466,WMM1,1138980,false,false,991,image-keyboard-response,47
true,7,2,1,2,true,d,false,true,0.0-2.0-0.31-0.284-3.284,0,0,0,68,false,stim,false,1,615,1,0,1,44466,WMM1,1141107,false,false,994,image-keyboard-response,48
true,7,1,1,1,true,z,false,true,0.0-2.0-0.31-0.285-3.285,0,0,0,90,false,stim,false,2,2097,1,0,2,44466,WMM1,1144717,false,false,997,image-keyboard-response,49
true,7,1,1,1,true,z,false,false,0.0-2.0-0.31-0.286-3.286,0,0,0,90,false,stim,false,0,1991,1,0,0,44466,WMM1,1148219,false,true,1000,image-keyboard-response,50
true,7,2,1,1,false,z,true,false,0.0-2.0-0.31-0.287-3.287,0,0,0,68,false,stim,false,0,1329,1,0,0,44466,WMM1,1151068,false,false,1003,image-keyboard-response,51
true,7,0,1,1,false,z,false,false,0.0-2.0-0.32-0.288-3.288,0,0,0,81,false,stim,true,0,612,1,0,0,44466,WMM1,1153196,false,false,1006,image-keyboard-response,52
true,7,1,1,1,true,z,false,true,0.0-2.0-0.32-0.289-3.289,0,0,0,90,false,stim,false,2,1873,1,0,2,44466,WMM1,1156580,false,false,1009,image-keyboard-response,53
true,7,1,1,1,true,z,false,true,0.0-2.0-0.32-0.290-3.290,0,0,0,90,false,stim,false,2,1032,1,0,2,44466,WMM1,1159125,false,false,1012,image-keyboard-response,54
true,7,2,1,2,true,d,false,true,0.0-2.0-0.32-0.291-3.291,0,0,0,68,false,stim,false,1,1627,1,0,1,44466,WMM1,1162267,false,false,1015,image-keyboard-response,55
true,8,0,2,0,true,q,false,true,0.0-2.0-0.32-0.292-3.292,0,0,0,81,true,stim,false,1,1284,1,0,0,44466,WMM1,1165060,false,false,1018,image-keyboard-response,1
true,8,2,2,1,false,z,false,false,0.0-2.0-0.32-0.293-3.293,0,0,0,68,false,stim,true,2,1891,1,0,1,44466,WMM1,1168468,false,false,1021,image-keyboard-response,2
true,8,1,2,1,true,z,false,false,0.0-2.0-0.32-0.294-3.294,0,0,0,90,false,stim,false,2,1240,1,0,1,44466,WMM1,1171220,false,true,1024,image-keyboard-response,3
true,8,1,2,2,false,d,false,false,0.0-2.0-0.32-0.295-3.295,0,0,0,90,false,stim,true,1,1624,1,0,2,44466,WMM1,1174357,false,false,1027,image-keyboard-response,4
true,8,0,2,0,true,q,false,true,0.0-2.0-0.32-0.296-3.296,0,0,0,81,false,stim,false,1,2316,1,0,0,44466,WMM1,1178182,false,false,1030,image-keyboard-response,5
true,8,0,2,0,true,q,false,true,0.0-2.0-0.33-0.297-3.297,0,0,0,81,false,stim,false,1,750,1,0,0,44466,WMM1,1180444,false,false,1033,image-keyboard-response,6
true,8,0,2,2,false,d,true,false,0.0-2.0-0.33-0.298-3.298,0,0,0,81,false,stim,false,1,677,1,0,2,44466,WMM1,1182629,false,false,1036,image-keyboard-response,7
false,8,-1,2,2,false,d,true,false,0.0-2.0-0.33-0.299-3.299,0,0,0,,false,stim,false,1,,1,0,2,44466,WMM1,1187143,false,false,1039,image-keyboard-response,8
true,8,0,2,0,true,q,false,true,0.0-2.0-0.33-0.300-3.300,0,0,0,81,false,stim,false,1,2080,1,0,0,44466,WMM1,1190733,false,false,1042,image-keyboard-response,9
true,8,1,2,1,true,z,false,false,0.0-2.0-0.33-0.301-3.301,0,0,0,90,false,stim,false,2,1893,1,0,1,44466,WMM1,1194140,false,true,1045,image-keyboard-response,10
true,8,0,2,0,true,q,false,true,0.0-2.0-0.33-0.302-3.302,0,0,0,81,false,stim,false,1,1589,1,0,0,44466,WMM1,1197244,false,false,1048,image-keyboard-response,11
true,8,0,2,1,false,z,true,false,0.0-2.0-0.33-0.303-3.303,0,0,0,81,false,stim,false,2,1251,1,0,1,44466,WMM1,1200004,false,false,1051,image-keyboard-response,12
true,8,1,2,1,true,z,false,false,0.0-2.0-0.33-0.304-3.304,0,0,0,90,false,stim,false,2,889,1,0,1,44466,WMM1,1202405,false,true,1054,image-keyboard-response,13
true,8,2,2,2,true,d,false,true,0.0-2.0-0.33-0.305-3.305,0,0,0,68,false,stim,false,1,1405,1,0,2,44466,WMM1,1205318,false,false,1057,image-keyboard-response,14
true,8,2,2,0,false,q,true,false,0.0-2.0-0.34-0.306-3.306,0,0,0,68,false,stim,false,1,670,1,0,0,44466,WMM1,1207500,false,false,1060,image-keyboard-response,15
false,8,-1,2,1,false,z,true,false,0.0-2.0-0.34-0.307-3.307,0,0,0,,false,stim,false,2,,1,0,1,44466,WMM1,1212016,false,false,1063,image-keyboard-response,16
true,8,0,2,0,true,q,false,true,0.0-2.0-0.34-0.308-3.308,0,0,0,81,false,stim,false,1,1799,1,0,0,44466,WMM1,1215324,false,false,1066,image-keyboard-response,17
true,8,2,2,2,true,d,false,true,0.0-2.0-0.34-0.309-3.309,0,0,0,68,false,stim,false,1,1915,1,0,2,44466,WMM1,1218755,false,false,1069,image-keyboard-response,18
true,8,2,2,2,true,d,false,true,0.0-2.0-0.34-0.310-3.310,0,0,0,68,false,stim,false,1,714,1,0,2,44466,WMM1,1220981,false,false,1072,image-keyboard-response,19
true,8,2,2,2,true,d,false,true,0.0-2.0-0.34-0.311-3.311,0,0,0,68,false,stim,false,1,944,1,0,2,44466,WMM1,1223437,false,false,1075,image-keyboard-response,20
true,8,0,2,0,true,q,false,true,0.0-2.0-0.34-0.312-3.312,0,0,0,81,false,stim,false,1,1599,1,0,0,44466,WMM1,1226549,false,false,1078,image-keyboard-response,21
true,8,0,2,1,false,z,true,false,0.0-2.0-0.34-0.313-3.313,0,0,0,81,false,stim,false,2,1990,1,0,1,44466,WMM1,1230053,false,false,1081,image-keyboard-response,22
true,8,1,2,1,true,z,false,true,0.0-2.0-0.34-0.314-3.314,0,0,0,90,false,stim,false,2,954,1,0,1,44466,WMM1,1232523,false,false,1084,image-keyboard-response,23
true,8,1,2,1,true,z,false,true,0.0-2.0-0.35-0.315-3.315,0,0,0,90,false,stim,false,2,999,1,0,1,44466,WMM1,1235036,false,false,1087,image-keyboard-response,24
true,8,2,2,2,true,d,false,true,0.0-2.0-0.35-0.316-3.316,0,0,0,68,false,stim,false,1,1814,1,1,2,44466,WMM1,1238363,false,false,1090,image-keyboard-response,25
true,8,2,2,2,true,d,false,true,0.0-2.0-0.35-0.317-3.317,0,0,0,68,false,stim,false,1,1290,1,1,2,44466,WMM1,1241164,false,false,1093,image-keyboard-response,26
true,8,0,2,0,true,q,false,true,0.0-2.0-0.35-0.318-3.318,0,0,0,81,false,stim,false,1,1669,1,0,0,44466,WMM1,1244349,false,false,1096,image-keyboard-response,27
true,8,1,2,1,true,z,false,true,0.0-2.0-0.35-0.319-3.319,0,0,0,90,false,stim,false,2,1928,1,0,1,44466,WMM1,1247789,false,false,1099,image-keyboard-response,28
true,8,1,2,1,true,z,false,true,0.0-2.0-0.35-0.320-3.320,0,0,0,90,false,stim,false,2,735,1,0,1,44466,WMM1,1250044,false,false,1102,image-keyboard-response,29
true,8,0,2,0,true,q,false,true,0.0-2.0-0.35-0.321-3.321,0,0,0,81,false,stim,false,1,1781,1,0,0,44466,WMM1,1253340,false,false,1105,image-keyboard-response,30
true,8,2,2,2,true,d,false,true,0.0-2.0-0.35-0.322-3.322,0,0,0,68,false,stim,false,1,1373,1,1,2,44466,WMM1,1256228,false,false,1108,image-keyboard-response,31
true,8,0,2,0,true,q,false,true,0.0-2.0-0.35-0.323-3.323,0,0,0,81,false,stim,false,1,1653,1,0,0,44466,WMM1,1259396,false,false,1111,image-keyboard-response,32
true,8,1,2,1,true,z,false,true,0.0-2.0-0.36-0.324-3.324,0,0,0,90,false,stim,false,2,1894,1,0,1,44466,WMM1,1262805,false,false,1114,image-keyboard-response,33
true,8,0,2,0,true,q,false,true,0.0-2.0-0.36-0.325-3.325,0,0,0,81,false,stim,false,1,1308,1,0,0,44466,WMM1,1265627,false,false,1117,image-keyboard-response,34
true,9,0,3,1,false,z,false,false,0.0-2.0-0.36-0.326-3.326,0,0,1,81,true,stim,true,0,733,1,0,0,44466,WMM1,1267876,false,false,1120,image-keyboard-response,1
true,9,2,3,2,true,d,false,true,0.0-2.0-0.36-0.327-3.327,0,0,1,68,false,stim,false,2,1997,1,1,2,44466,WMM1,1271382,false,false,1123,image-keyboard-response,2
true,9,2,3,2,true,d,false,true,0.0-2.0-0.36-0.328-3.328,0,0,1,68,false,stim,false,2,966,1,1,2,44466,WMM1,1273861,false,false,1126,image-keyboard-response,3
true,9,2,3,2,true,d,false,true,0.0-2.0-0.36-0.329-3.329,0,0,1,68,false,stim,false,2,757,1,1,2,44466,WMM1,1276132,false,false,1129,image-keyboard-response,4
true,9,1,3,1,true,z,false,true,0.0-2.0-0.36-0.330-3.330,0,0,1,90,false,stim,false,0,2329,1,0,0,44466,WMM1,1279973,false,false,1132,image-keyboard-response,5
true,9,1,3,2,false,d,false,false,0.0-2.0-0.36-0.331-3.331,0,0,1,90,false,stim,true,1,1991,1,0,1,44466,WMM1,1283473,false,false,1135,image-keyboard-response,6
true,9,0,3,2,false,d,true,false,0.0-2.0-0.36-0.332-3.332,0,0,1,81,false,stim,false,1,1160,1,0,1,44466,WMM1,1286148,false,false,1138,image-keyboard-response,7
true,9,2,3,2,true,d,false,true,0.0-2.0-0.37-0.333-3.333,0,0,1,68,false,stim,false,2,1441,1,1,2,44466,WMM1,1289108,false,false,1141,image-keyboard-response,8
true,9,2,3,2,true,d,false,true,0.0-2.0-0.37-0.334-3.334,0,0,1,68,false,stim,false,2,777,1,1,2,44466,WMM1,1291397,false,false,1144,image-keyboard-response,9
true,9,1,3,1,true,z,false,false,0.0-2.0-0.37-0.335-3.335,0,0,1,90,false,stim,false,0,1655,1,0,0,44466,WMM1,1294565,false,true,1147,image-keyboard-response,10
true,9,0,3,1,false,z,false,false,0.0-2.0-0.37-0.336-3.336,0,0,1,81,false,stim,true,0,1259,1,0,0,44466,WMM1,1297333,false,false,1150,image-keyboard-response,11
true,9,2,3,2,true,d,false,true,0.0-2.0-0.37-0.337-3.337,0,0,1,68,false,stim,false,1,1021,1,0,1,44466,WMM1,1299868,false,false,1153,image-keyboard-response,12
true,9,2,3,2,true,d,false,true,0.0-2.0-0.37-0.338-3.338,0,0,1,68,false,stim,false,2,1590,1,1,2,44466,WMM1,1302972,false,false,1156,image-keyboard-response,13
true,9,2,3,2,true,d,false,true,0.0-2.0-0.37-0.339-3.339,0,0,1,68,false,stim,false,1,1487,1,0,1,44466,WMM1,1305969,false,false,1159,image-keyboard-response,14
true,9,2,3,1,false,z,true,false,0.0-2.0-0.37-0.340-3.340,0,0,1,68,false,stim,false,0,1053,1,0,0,44466,WMM1,1308533,false,false,1162,image-keyboard-response,15
true,9,2,3,2,true,d,false,true,0.0-2.0-0.37-0.341-3.341,0,0,1,68,false,stim,false,1,897,1,0,1,44466,WMM1,1310939,false,false,1165,image-keyboard-response,16
true,9,2,3,2,true,d,false,false,0.0-2.0-0.38-0.342-3.342,0,0,1,68,false,stim,false,1,604,1,0,1,44466,WMM1,1313060,false,true,1168,image-keyboard-response,17
true,9,2,3,2,true,d,false,true,0.0-2.0-0.38-0.343-3.343,0,0,1,68,false,stim,false,2,1562,1,1,2,44466,WMM1,1316133,false,false,1171,image-keyboard-response,18
true,9,1,3,1,true,z,false,true,0.0-2.0-0.38-0.344-3.344,0,0,1,90,false,stim,false,0,1751,1,0,0,44466,WMM1,1319397,false,false,1174,image-keyboard-response,19
true,9,0,3,2,false,d,true,true,0.0-2.0-0.38-0.345-3.345,0,0,1,81,false,stim,false,1,1976,1,0,1,44466,WMM1,1322885,false,true,1177,image-keyboard-response,20
true,9,0,3,2,false,d,true,false,0.0-2.0-0.38-0.346-3.346,0,0,1,81,false,stim,false,1,703,1,0,1,44466,WMM1,1325099,false,false,1180,image-keyboard-response,21
true,9,2,3,2,true,d,false,false,0.0-2.0-0.38-0.347-3.347,0,0,1,68,false,stim,false,2,1948,1,1,2,44466,WMM1,1328565,false,true,1183,image-keyboard-response,22
true,9,1,3,2,false,d,true,false,0.0-2.0-0.38-0.348-3.348,0,0,1,90,false,stim,false,2,708,1,1,2,44466,WMM1,1330788,false,false,1186,image-keyboard-response,23
true,9,1,3,1,true,z,false,true,0.0-2.0-0.38-0.349-3.349,0,0,1,90,false,stim,false,0,1894,1,0,0,44466,WMM1,1334196,false,false,1189,image-keyboard-response,24
true,9,1,3,1,true,z,false,false,0.0-2.0-0.38-0.350-3.350,0,0,1,90,false,stim,false,0,854,1,0,0,44466,WMM1,1336564,false,true,1192,image-keyboard-response,25
true,9,0,3,2,false,d,true,false,0.0-2.0-0.39-0.351-3.351,0,0,1,81,false,stim,false,1,2149,1,0,1,44466,WMM1,1340229,false,false,1195,image-keyboard-response,26
true,9,0,3,1,false,z,false,true,0.0-2.0-0.39-0.352-3.352,0,0,1,81,false,stim,true,0,2340,1,0,0,44466,WMM1,1344084,false,true,1198,image-keyboard-response,27
true,9,0,3,1,false,z,false,false,0.0-2.0-0.39-0.353-3.353,0,0,1,81,false,stim,true,0,1482,1,0,0,44466,WMM1,1347093,false,false,1201,image-keyboard-response,28
true,9,2,3,2,true,d,false,true,0.0-2.0-0.39-0.354-3.354,0,0,1,68,false,stim,false,1,1646,1,0,1,44466,WMM1,1350261,false,false,1204,image-keyboard-response,29
true,9,2,3,2,true,d,false,true,0.0-2.0-0.39-0.355-3.355,0,0,1,68,false,stim,false,1,804,1,0,1,44466,WMM1,1352580,false,false,1207,image-keyboard-response,30
true,9,1,3,2,false,d,true,false,0.0-2.0-0.39-0.356-3.356,0,0,1,90,false,stim,false,2,1671,1,1,2,44466,WMM1,1355764,false,false,1210,image-keyboard-response,31
true,9,0,3,2,false,d,true,false,0.0-2.0-0.39-0.357-3.357,0,0,1,81,false,stim,false,2,541,1,1,2,44466,WMM1,1357820,false,false,1213,image-keyboard-response,32
true,9,2,3,2,true,d,false,true,0.0-2.0-0.39-0.358-3.358,0,0,1,68,false,stim,false,2,745,1,1,2,44466,WMM1,1360084,false,false,1216,image-keyboard-response,33
true,9,2,3,1,false,z,true,true,0.0-2.0-0.39-0.359-3.359,0,0,1,68,false,stim,false,0,2067,1,0,0,44466,WMM1,1363666,false,true,1219,image-keyboard-response,34
true,9,2,3,1,false,z,true,false,0.0-2.0-0.40-0.360-3.360,0,0,1,68,false,stim,false,0,761,1,0,0,44466,WMM1,1365941,false,false,1222,image-keyboard-response,35
true,9,0,3,1,false,z,false,false,0.0-2.0-0.40-0.361-3.361,0,0,1,81,false,stim,true,0,1672,1,0,0,44466,WMM1,1369132,false,false,1225,image-keyboard-response,36
true,9,2,3,2,true,d,false,true,0.0-2.0-0.40-0.362-3.362,0,0,1,68,false,stim,false,2,2495,1,1,2,44466,WMM1,1373147,false,false,1228,image-keyboard-response,37
true,9,1,3,1,true,z,false,true,0.0-2.0-0.40-0.363-3.363,0,0,1,90,false,stim,false,0,2242,1,0,0,44466,WMM1,1376908,false,false,1231,image-keyboard-response,38
true,9,2,3,2,true,d,false,true,0.0-2.0-0.40-0.364-3.364,0,0,1,68,false,stim,false,2,1438,1,1,2,44466,WMM1,1379860,false,false,1234,image-keyboard-response,39
true,9,2,3,2,true,d,false,false,0.0-2.0-0.40-0.365-3.365,0,0,1,68,false,stim,false,1,1252,1,0,1,44466,WMM1,1382629,false,true,1237,image-keyboard-response,40
true,9,0,3,2,false,d,true,false,0.0-2.0-0.40-0.366-3.366,0,0,1,81,false,stim,false,1,1157,1,0,1,44466,WMM1,1385299,false,false,1240,image-keyboard-response,41
true,9,2,3,2,true,d,false,true,0.0-2.0-0.40-0.367-3.367,0,0,1,68,false,stim,false,2,1460,1,1,2,44466,WMM1,1388276,false,false,1243,image-keyboard-response,42
true,9,1,3,2,false,d,false,false,0.0-2.0-0.40-0.368-3.368,0,0,1,90,false,stim,true,1,727,1,0,1,44466,WMM1,1390524,false,false,1246,image-keyboard-response,43
true,9,2,3,2,true,d,false,true,0.0-2.0-0.41-0.369-3.369,0,0,1,68,false,stim,false,1,2659,1,0,1,44466,WMM1,1394701,false,false,1249,image-keyboard-response,44
true,9,2,3,2,true,d,false,true,0.0-2.0-0.41-0.370-3.370,0,0,1,68,false,stim,false,1,908,1,0,1,44466,WMM1,1397124,false,false,1252,image-keyboard-response,45
true,9,1,3,1,true,z,false,true,0.0-2.0-0.41-0.371-3.371,0,0,1,90,false,stim,false,0,1469,1,0,0,44466,WMM1,1400108,false,false,1255,image-keyboard-response,46
true,9,2,3,2,true,d,false,true,0.0-2.0-0.41-0.372-3.372,0,0,1,68,false,stim,false,1,1478,1,0,1,44466,WMM1,1403100,false,false,1258,image-keyboard-response,47
true,9,2,3,2,true,d,false,true,0.0-2.0-0.41-0.373-3.373,0,0,1,68,false,stim,false,2,1500,1,0,2,44466,WMM1,1406116,false,false,1261,image-keyboard-response,48
true,9,2,3,2,true,d,false,true,0.0-2.0-0.41-0.374-3.374,0,0,1,68,false,stim,false,2,813,1,0,2,44466,WMM1,1408444,false,false,1264,image-keyboard-response,49
true,9,1,3,1,true,z,false,true,0.0-2.0-0.41-0.375-3.375,0,0,1,90,false,stim,false,0,1674,1,0,0,44466,WMM1,1411629,false,false,1267,image-keyboard-response,50
true,9,1,3,1,true,z,false,true,0.0-2.0-0.41-0.376-3.376,0,0,1,90,false,stim,false,0,840,1,0,0,44466,WMM1,1413980,false,false,1270,image-keyboard-response,51
true,9,2,3,2,true,d,false,true,0.0-2.0-0.41-0.377-3.377,0,0,1,68,false,stim,false,2,2021,1,0,2,44466,WMM1,1417516,false,false,1273,image-keyboard-response,52
true,9,2,3,2,true,d,false,true,0.0-2.0-0.42-0.378-3.378,0,0,1,68,false,stim,false,2,727,1,0,2,44466,WMM1,1419758,false,false,1276,image-keyboard-response,53
true,9,2,3,2,true,d,false,false,0.0-2.0-0.42-0.379-3.379,0,0,1,68,false,stim,false,1,1533,1,0,1,44466,WMM1,1422804,false,true,1279,image-keyboard-response,54
true,9,1,3,1,true,z,false,true,0.0-2.0-0.42-0.380-3.380,0,0,1,90,false,stim,false,0,1909,1,0,0,44466,WMM1,1426228,false,false,1282,image-keyboard-response,55
true,9,2,3,2,true,d,false,true,0.0-2.0-0.42-0.381-3.381,0,0,1,68,false,stim,false,2,1965,1,0,2,44466,WMM1,1429708,false,false,1285,image-keyboard-response,56
true,10,1,4,0,false,q,true,false,0.0-2.0-0.42-0.382-3.382,0,0,0,90,true,stim,false,2,2308,1,0,1,44466,WMM1,1433532,false,false,1288,image-keyboard-response,1
true,10,0,4,0,true,q,false,true,0.0-2.0-0.42-0.383-3.383,0,0,0,81,false,stim,false,2,1354,1,0,1,44466,WMM1,1436397,false,false,1291,image-keyboard-response,2
true,10,1,4,2,false,d,false,false,0.0-2.0-0.42-0.384-3.384,0,0,0,90,false,stim,true,1,1664,1,0,0,44466,WMM1,1439580,false,false,1294,image-keyboard-response,3
true,10,2,4,2,true,d,false,true,0.0-2.0-0.42-0.385-3.385,0,0,0,68,false,stim,false,1,1207,1,0,0,44466,WMM1,1442300,false,false,1297,image-keyboard-response,4
true,10,2,4,0,false,q,false,false,0.0-2.0-0.42-0.386-3.386,0,0,0,68,false,stim,true,2,1761,1,0,2,44466,WMM1,1445581,false,false,1300,image-keyboard-response,5
true,10,2,4,2,true,d,false,true,0.0-2.0-0.43-0.387-3.387,0,0,0,68,false,stim,false,1,2557,1,0,0,44466,WMM1,1449661,false,false,1303,image-keyboard-response,6
true,10,2,4,2,true,d,false,true,0.0-2.0-0.43-0.388-3.388,0,0,0,68,false,stim,false,1,636,1,0,0,44466,WMM1,1451811,false,false,1306,image-keyboard-response,7
true,10,0,4,0,true,q,false,true,0.0-2.0-0.43-0.389-3.389,0,0,0,81,false,stim,false,2,1733,1,0,1,44466,WMM1,1455060,false,false,1309,image-keyboard-response,8
true,10,0,4,0,true,q,false,true,0.0-2.0-0.43-0.390-3.390,0,0,0,81,false,stim,false,2,693,1,0,1,44466,WMM1,1457268,false,false,1312,image-keyboard-response,9
true,10,1,4,0,false,q,true,false,0.0-2.0-0.43-0.391-3.391,0,0,0,90,false,stim,false,2,1774,1,0,2,44466,WMM1,1460556,false,false,1315,image-keyboard-response,10
true,10,0,4,0,true,q,false,true,0.0-2.0-0.43-0.392-3.392,0,0,0,81,false,stim,false,2,1333,1,0,2,44466,WMM1,1463404,false,false,1318,image-keyboard-response,11
true,10,2,4,2,true,d,false,true,0.0-2.0-0.43-0.393-3.393,0,0,0,68,false,stim,false,1,2248,1,0,0,44466,WMM1,1467164,false,false,1321,image-keyboard-response,12
true,10,0,4,0,true,q,false,true,0.0-2.0-0.43-0.394-3.394,0,0,0,81,false,stim,false,2,1020,1,0,1,44466,WMM1,1469699,false,false,1324,image-keyboard-response,13
true,10,0,4,0,true,q,false,true,0.0-2.0-0.43-0.395-3.395,0,0,0,81,false,stim,false,2,609,1,0,2,44466,WMM1,1471819,false,false,1327,image-keyboard-response,14
true,10,0,4,0,true,q,false,true,0.0-2.0-0.44-0.396-3.396,0,0,0,81,false,stim,false,2,1414,1,0,1,44466,WMM1,1474746,false,false,1330,image-keyboard-response,15
true,10,0,4,0,true,q,false,true,0.0-2.0-0.44-0.397-3.397,0,0,0,81,false,stim,false,2,691,1,0,1,44466,WMM1,1476949,false,false,1333,image-keyboard-response,16
true,10,2,4,2,true,d,false,true,0.0-2.0-0.44-0.398-3.398,0,0,0,68,false,stim,false,1,1178,1,0,0,44466,WMM1,1479645,false,false,1336,image-keyboard-response,17
true,10,2,4,2,true,d,false,true,0.0-2.0-0.44-0.399-3.399,0,0,0,68,false,stim,false,1,632,1,0,0,44466,WMM1,1481789,false,false,1339,image-keyboard-response,18
true,10,0,4,0,true,q,false,false,0.0-2.0-0.44-0.400-3.400,0,0,0,81,false,stim,false,2,1715,1,0,1,44466,WMM1,1485021,false,true,1342,image-keyboard-response,19
true,10,0,4,0,true,q,false,true,0.0-2.0-0.44-0.401-3.401,0,0,0,81,false,stim,false,2,1163,1,0,2,44466,WMM1,1487700,false,false,1345,image-keyboard-response,20
true,10,0,4,0,true,q,false,true,0.0-2.0-0.44-0.402-3.402,0,0,0,81,false,stim,false,2,996,1,0,2,44466,WMM1,1490211,false,false,1348,image-keyboard-response,21
true,10,2,4,2,true,d,false,true,0.0-2.0-0.44-0.403-3.403,0,0,0,68,false,stim,false,1,1122,1,0,0,44466,WMM1,1492844,false,false,1351,image-keyboard-response,22
true,10,0,4,0,true,q,false,true,0.0-2.0-0.44-0.404-3.404,0,0,0,81,false,stim,false,2,853,1,0,2,44466,WMM1,1495212,false,false,1354,image-keyboard-response,23
true,10,1,4,0,false,q,true,false,0.0-2.0-0.45-0.405-3.405,0,0,0,90,false,stim,false,2,1600,1,0,1,44466,WMM1,1498324,false,false,1357,image-keyboard-response,24
true,10,0,4,0,true,q,false,true,0.0-2.0-0.45-0.406-3.406,0,0,0,81,false,stim,false,2,1478,1,0,2,44466,WMM1,1501315,false,false,1360,image-keyboard-response,25
false,10,-1,4,2,false,d,true,false,0.0-2.0-0.45-0.407-3.407,0,0,0,,false,stim,false,1,,1,0,0,44466,WMM1,1505832,false,false,1363,image-keyboard-response,26
true,10,2,4,0,false,q,false,false,0.0-2.0-0.45-0.408-3.408,0,0,0,68,false,stim,true,2,1508,1,0,1,44466,WMM1,1508852,false,false,1366,image-keyboard-response,27
true,10,0,4,2,false,d,true,false,0.0-2.0-0.45-0.409-3.409,0,0,0,81,false,stim,false,1,2693,1,0,0,44466,WMM1,1513060,false,false,1369,image-keyboard-response,28
true,10,0,4,0,true,q,false,true,0.0-2.0-0.45-0.410-3.410,0,0,0,81,false,stim,false,2,1725,1,0,2,44466,WMM1,1516301,false,false,1372,image-keyboard-response,29
true,10,0,4,0,true,q,false,true,0.0-2.0-0.45-0.411-3.411,0,0,0,81,false,stim,false,2,1242,1,0,2,44466,WMM1,1519060,false,false,1375,image-keyboard-response,30
true,11,2,2,0,false,q,false,false,0.0-2.0-0.45-0.412-3.412,0,0,0,68,true,stim,true,2,1999,1,0,0,44466,WMM1,1522573,false,false,1378,image-keyboard-response,1
true,11,1,2,1,true,z,false,true,0.0-2.0-0.45-0.413-3.413,0,0,0,90,false,stim,false,0,1898,1,0,1,44466,WMM1,1525981,false,false,1381,image-keyboard-response,2
true,11,1,2,1,true,z,false,true,0.0-2.0-0.46-0.414-3.414,0,0,0,90,false,stim,false,0,986,1,0,1,44466,WMM1,1528477,false,false,1384,image-keyboard-response,3
true,11,1,2,1,true,z,false,false,0.0-2.0-0.46-0.415-3.415,0,0,0,90,false,stim,false,0,550,1,0,1,44466,WMM1,1530540,false,true,1387,image-keyboard-response,4
true,11,0,2,1,false,z,false,false,0.0-2.0-0.46-0.416-3.416,0,0,0,81,false,stim,true,0,953,1,0,1,44466,WMM1,1533004,false,false,1390,image-keyboard-response,5
true,11,1,2,0,false,q,true,true,0.0-2.0-0.46-0.417-3.417,0,0,0,90,false,stim,false,2,2858,1,0,0,44466,WMM1,1537373,false,true,1393,image-keyboard-response,6
true,11,0,2,2,false,d,false,false,0.0-2.0-0.46-0.418-3.418,0,0,0,81,false,stim,true,0,2119,1,0,2,44466,WMM1,1541004,false,false,1396,image-keyboard-response,7
true,11,2,2,2,true,d,false,true,0.0-2.0-0.46-0.419-3.419,0,0,0,68,false,stim,false,0,826,1,0,2,44466,WMM1,1543348,false,false,1399,image-keyboard-response,8
true,11,1,2,0,false,q,true,false,0.0-2.0-0.46-0.420-3.420,0,0,0,90,false,stim,false,2,2171,1,0,0,44466,WMM1,1547044,false,false,1402,image-keyboard-response,9
true,11,0,2,2,false,d,false,false,0.0-2.0-0.46-0.421-3.421,0,0,0,81,false,stim,true,0,646,1,0,2,44466,WMM1,1549205,false,false,1405,image-keyboard-response,10
true,11,0,2,0,true,q,false,true,0.0-2.0-0.46-0.422-3.422,0,0,0,81,false,stim,false,2,2150,1,0,0,44466,WMM1,1552868,false,false,1408,image-keyboard-response,11
true,11,1,2,1,true,z,false,true,0.0-2.0-0.47-0.423-3.423,0,0,0,90,false,stim,false,0,1790,1,0,1,44466,WMM1,1556173,false,false,1411,image-keyboard-response,12
true,11,2,2,2,true,d,false,true,0.0-2.0-0.47-0.424-3.424,0,0,0,68,false,stim,false,0,1674,1,0,2,44466,WMM1,1559357,false,false,1414,image-keyboard-response,13
true,11,2,2,2,true,d,false,true,0.0-2.0-0.47-0.425-3.425,0,0,0,68,false,stim,false,0,1178,1,0,2,44466,WMM1,1562044,false,false,1417,image-keyboard-response,14
true,11,2,2,2,true,d,false,true,0.0-2.0-0.47-0.426-3.426,0,0,0,68,false,stim,false,0,747,1,0,2,44466,WMM1,1564301,false,false,1420,image-keyboard-response,15
true,11,0,2,0,true,q,false,true,0.0-2.0-0.47-0.427-3.427,0,0,0,81,false,stim,false,2,1789,1,0,0,44466,WMM1,1567604,false,false,1423,image-keyboard-response,16
true,11,0,2,0,true,q,false,true,0.0-2.0-0.47-0.428-3.428,0,0,0,81,false,stim,false,2,737,1,0,0,44466,WMM1,1569853,false,false,1426,image-keyboard-response,17
true,11,0,2,0,true,q,false,true,0.0-2.0-0.47-0.429-3.429,0,0,0,81,false,stim,false,2,757,1,0,0,44466,WMM1,1572125,false,false,1429,image-keyboard-response,18
true,11,1,2,1,true,z,false,true,0.0-2.0-0.47-0.430-3.430,0,0,0,90,false,stim,false,0,1876,1,0,1,44466,WMM1,1575517,false,false,1432,image-keyboard-response,19
true,11,1,2,1,true,z,false,true,0.0-2.0-0.47-0.431-3.431,0,0,0,90,false,stim,false,0,678,1,0,1,44466,WMM1,1577708,false,false,1435,image-keyboard-response,20
true,11,2,2,2,true,d,false,true,0.0-2.0-0.48-0.432-3.432,0,0,0,68,false,stim,false,0,1227,1,0,2,44466,WMM1,1580453,false,false,1438,image-keyboard-response,21
true,11,0,2,0,true,q,false,false,0.0-2.0-0.48-0.433-3.433,0,0,0,81,false,stim,false,2,1589,1,0,0,44466,WMM1,1583555,false,true,1441,image-keyboard-response,22
true,11,2,2,2,true,d,false,false,0.0-2.0-0.48-0.434-3.434,0,0,0,68,false,stim,false,0,1491,1,0,2,44466,WMM1,1586558,false,true,1444,image-keyboard-response,23
true,11,2,2,0,false,q,false,true,0.0-2.0-0.48-0.435-3.435,0,0,0,68,false,stim,true,2,2081,1,0,0,44466,WMM1,1590148,false,true,1447,image-keyboard-response,24
true,11,1,2,1,true,z,false,true,0.0-2.0-0.48-0.436-3.436,0,0,0,90,false,stim,false,0,1765,1,0,1,44466,WMM1,1593428,false,false,1450,image-keyboard-response,25
true,11,2,2,0,false,q,false,true,0.0-2.0-0.48-0.437-3.437,0,0,0,68,false,stim,true,2,1648,1,0,0,44466,WMM1,1596588,false,true,1453,image-keyboard-response,26
true,11,1,2,1,true,z,false,true,0.0-2.0-0.48-0.438-3.438,0,0,0,90,false,stim,false,0,1450,1,0,1,44466,WMM1,1599549,false,false,1456,image-keyboard-response,27
true,11,1,2,2,false,d,true,false,0.0-2.0-0.48-0.439-3.439,0,0,0,90,false,stim,false,0,2612,1,0,2,44466,WMM1,1603669,false,false,1459,image-keyboard-response,28
true,11,1,2,1,true,z,false,true,0.0-2.0-0.48-0.440-3.440,0,0,0,90,false,stim,false,0,1911,1,0,1,44466,WMM1,1607092,false,false,1462,image-keyboard-response,29
true,11,1,2,1,true,z,false,true,0.0-2.0-0.49-0.441-3.441,0,0,0,90,false,stim,false,0,732,1,0,1,44466,WMM1,1609340,false,false,1465,image-keyboard-response,30
true,12,2,1,1,false,z,true,false,0.0-2.0-0.49-0.442-3.442,0,0,0,68,true,stim,false,0,1172,1,0,0,44466,WMM1,1612029,false,false,1468,image-keyboard-response,1
true,12,1,1,0,false,q,true,false,0.0-2.0-0.49-0.443-3.443,0,0,0,90,false,stim,false,2,2908,1,0,2,44466,WMM1,1616453,false,false,1471,image-keyboard-response,2
true,12,1,1,2,false,d,false,false,0.0-2.0-0.49-0.444-3.444,0,0,0,90,false,stim,true,1,2027,1,0,1,44466,WMM1,1619997,false,false,1474,image-keyboard-response,3
true,12,0,1,0,true,q,false,true,0.0-2.0-0.49-0.445-3.445,0,0,0,81,false,stim,false,2,1368,1,0,2,44466,WMM1,1622877,false,false,1477,image-keyboard-response,4
true,12,0,1,1,false,z,false,false,0.0-2.0-0.49-0.446-3.446,0,0,0,81,false,stim,true,0,1877,1,0,0,44466,WMM1,1626269,false,false,1480,image-keyboard-response,5
true,12,0,1,0,true,q,false,true,0.0-2.0-0.49-0.447-3.447,0,0,0,81,false,stim,false,2,2421,1,0,2,44466,WMM1,1630205,false,false,1483,image-keyboard-response,6
true,12,1,1,1,true,z,false,true,0.0-2.0-0.49-0.448-3.448,0,0,0,90,false,stim,false,0,1260,1,0,0,44466,WMM1,1632980,false,false,1486,image-keyboard-response,7
true,12,2,1,2,true,d,false,true,0.0-2.0-0.49-0.449-3.449,0,0,0,68,false,stim,false,1,2208,1,0,1,44466,WMM1,1636701,false,false,1489,image-keyboard-response,8
true,12,2,1,2,true,d,false,true,0.0-2.0-0.50-0.450-3.450,0,0,0,68,false,stim,false,1,970,1,0,1,44466,WMM1,1639189,false,false,1492,image-keyboard-response,9
true,12,2,1,2,true,d,false,true,0.0-2.0-0.50-0.451-3.451,0,0,0,68,false,stim,false,1,679,1,0,1,44466,WMM1,1641380,false,false,1495,image-keyboard-response,10
true,12,0,1,0,true,q,false,true,0.0-2.0-0.50-0.452-3.452,0,0,0,81,false,stim,false,2,1821,1,0,2,44466,WMM1,1644716,false,false,1498,image-keyboard-response,11
true,12,1,1,1,true,z,false,true,0.0-2.0-0.50-0.453-3.453,0,0,0,90,false,stim,false,0,1740,1,0,0,44466,WMM1,1647980,false,false,1501,image-keyboard-response,12
true,12,1,1,1,true,z,false,true,0.0-2.0-0.50-0.454-3.454,0,0,0,90,false,stim,false,0,725,1,0,0,44466,WMM1,1650220,false,false,1504,image-keyboard-response,13
true,12,2,1,2,true,d,false,true,0.0-2.0-0.50-0.455-3.455,0,0,0,68,false,stim,false,1,1786,1,0,1,44466,WMM1,1653524,false,false,1507,image-keyboard-response,14
true,12,1,1,1,true,z,false,true,0.0-2.0-0.50-0.456-3.456,0,0,0,90,false,stim,false,0,1272,1,0,0,44466,WMM1,1656307,false,false,1510,image-keyboard-response,15
true,12,0,1,0,true,q,false,true,0.0-2.0-0.50-0.457-3.457,0,0,0,81,false,stim,false,2,1126,1,0,2,44466,WMM1,1658948,false,false,1513,image-keyboard-response,16
true,12,0,1,0,true,q,false,true,0.0-2.0-0.50-0.458-3.458,0,0,0,81,false,stim,false,2,1620,1,0,2,44466,WMM1,1662077,false,false,1516,image-keyboard-response,17
true,12,1,1,1,true,z,false,true,0.0-2.0-0.51-0.459-3.459,0,0,0,90,false,stim,false,0,2211,1,0,0,44466,WMM1,1665804,false,false,1519,image-keyboard-response,18
true,12,1,1,1,true,z,false,true,0.0-2.0-0.51-0.460-3.460,0,0,0,90,false,stim,false,0,760,1,0,0,44466,WMM1,1668077,false,false,1522,image-keyboard-response,19
true,12,2,1,2,true,d,false,true,0.0-2.0-0.51-0.461-3.461,0,0,0,68,false,stim,false,1,1548,1,0,1,44466,WMM1,1671140,false,false,1525,image-keyboard-response,20
true,12,1,1,1,true,z,false,true,0.0-2.0-0.51-0.462-3.462,0,0,0,90,false,stim,false,0,1170,1,0,0,44466,WMM1,1673829,false,false,1528,image-keyboard-response,21
true,12,0,1,0,true,q,false,true,0.0-2.0-0.51-0.463-3.463,0,0,0,81,false,stim,false,2,974,1,0,2,44466,WMM1,1676316,false,false,1531,image-keyboard-response,22
true,12,0,1,0,true,q,false,true,0.0-2.0-0.51-0.464-3.464,0,0,0,81,false,stim,false,2,772,1,0,2,44466,WMM1,1678603,false,false,1534,image-keyboard-response,23
true,12,2,1,2,true,d,false,true,0.0-2.0-0.51-0.465-3.465,0,0,0,68,false,stim,false,1,1899,1,0,1,44466,WMM1,1682013,false,false,1537,image-keyboard-response,24
true,12,2,1,2,true,d,false,true,0.0-2.0-0.51-0.466-3.466,0,0,0,68,false,stim,false,1,676,1,0,1,44466,WMM1,1684204,false,false,1540,image-keyboard-response,25
false,12,-1,1,0,false,q,true,false,0.0-2.0-0.51-0.467-3.467,0,0,0,,false,stim,false,2,,1,0,2,44466,WMM1,1688717,false,false,1543,image-keyboard-response,26
true,12,0,1,0,true,q,false,true,0.0-2.0-0.52-0.468-3.468,0,0,0,81,false,stim,false,2,673,1,0,2,44466,WMM1,1690908,false,false,1546,image-keyboard-response,27
true,12,2,1,2,true,d,false,true,0.0-2.0-0.52-0.469-3.469,0,0,0,68,false,stim,false,1,1799,1,0,1,44466,WMM1,1694221,false,false,1549,image-keyboard-response,28
true,12,2,1,2,true,d,false,true,0.0-2.0-0.52-0.470-3.470,0,0,0,68,false,stim,false,1,582,1,0,1,44466,WMM1,1696316,false,false,1552,image-keyboard-response,29
true,12,1,1,1,true,z,false,true,0.0-2.0-0.52-0.471-3.471,0,0,0,90,false,stim,false,0,942,1,0,0,44466,WMM1,1698773,false,false,1555,image-keyboard-response,30
true,13,2,2,1,false,z,false,false,0.0-2.0-0.52-0.472-3.472,0,0,0,68,true,stim,true,2,1630,1,0,1,44466,WMM1,1701916,false,false,1558,image-keyboard-response,1
true,13,0,2,2,false,d,false,false,0.0-2.0-0.52-0.473-3.473,0,0,0,81,false,stim,true,0,1364,1,0,2,44466,WMM1,1704796,false,false,1561,image-keyboard-response,2
true,13,1,2,0,false,q,false,false,0.0-2.0-0.52-0.474-3.474,0,0,0,90,false,stim,true,1,1765,1,0,0,44466,WMM1,1708076,false,false,1564,image-keyboard-response,3
true,13,0,2,0,true,q,false,true,0.0-2.0-0.52-0.475-3.475,0,0,0,81,false,stim,false,1,677,1,0,0,44466,WMM1,1710269,false,false,1567,image-keyboard-response,4
true,13,2,2,2,true,d,false,false,0.0-2.0-0.52-0.476-3.476,0,0,0,68,false,stim,false,0,1939,1,0,2,44466,WMM1,1713716,false,true,1570,image-keyboard-response,5
true,13,1,2,2,false,d,true,false,0.0-2.0-0.53-0.477-3.477,0,0,0,90,false,stim,false,0,700,1,0,2,44466,WMM1,1715931,false,false,1573,image-keyboard-response,6
true,13,2,2,2,true,d,false,true,0.0-2.0-0.53-0.478-3.478,0,0,0,68,false,stim,false,0,2034,1,0,2,44466,WMM1,1719485,false,false,1576,image-keyboard-response,7
true,13,2,2,0,false,q,true,false,0.0-2.0-0.53-0.479-3.479,0,0,0,68,false,stim,false,1,1863,1,0,0,44466,WMM1,1722861,false,false,1579,image-keyboard-response,8
true,13,0,2,1,false,z,true,false,0.0-2.0-0.53-0.480-3.480,0,0,0,81,false,stim,false,2,2176,1,0,1,44466,WMM1,1726549,false,false,1582,image-keyboard-response,9
true,13,2,2,1,false,z,false,false,0.0-2.0-0.53-0.481-3.481,0,0,0,68,false,stim,true,2,2166,1,0,1,44466,WMM1,1730228,false,false,1585,image-keyboard-response,10
true,13,1,2,1,true,z,false,true,0.0-2.0-0.53-0.482-3.482,0,0,0,90,false,stim,false,2,616,1,0,1,44466,WMM1,1732356,false,false,1588,image-keyboard-response,11
true,13,0,2,0,true,q,false,true,0.0-2.0-0.53-0.483-3.483,0,0,0,81,false,stim,false,1,985,1,0,0,44466,WMM1,1734851,false,false,1591,image-keyboard-response,12
true,13,0,2,0,true,q,false,true,0.0-2.0-0.53-0.484-3.484,0,0,0,81,false,stim,false,1,765,1,0,0,44466,WMM1,1737132,false,false,1594,image-keyboard-response,13
true,13,2,2,2,true,d,false,true,0.0-2.0-0.53-0.485-3.485,0,0,0,68,false,stim,false,0,1216,1,0,2,44466,WMM1,1739860,false,false,1597,image-keyboard-response,14
true,13,1,2,1,true,z,false,true,0.0-2.0-0.54-0.486-3.486,0,0,0,90,false,stim,false,2,1951,1,0,1,44466,WMM1,1743324,false,false,1600,image-keyboard-response,15
true,13,0,2,0,true,q,false,true,0.0-2.0-0.54-0.487-3.487,0,0,0,81,false,stim,false,1,1452,1,0,0,44466,WMM1,1746301,false,false,1603,image-keyboard-response,16
true,13,0,2,0,true,q,false,false,0.0-2.0-0.54-0.488-3.488,0,0,0,81,false,stim,false,1,628,1,0,0,44466,WMM1,1748445,false,true,1606,image-keyboard-response,17
true,13,2,2,2,true,d,false,true,0.0-2.0-0.54-0.489-3.489,0,0,0,68,false,stim,false,0,1949,1,0,2,44466,WMM1,1751908,false,false,1609,image-keyboard-response,18
true,13,2,2,2,true,d,false,true,0.0-2.0-0.54-0.490-3.490,0,0,0,68,false,stim,false,0,634,1,0,2,44466,WMM1,1754060,false,false,1612,image-keyboard-response,19
true,13,1,2,1,true,z,false,false,0.0-2.0-0.54-0.491-3.491,0,0,0,90,false,stim,false,2,1893,1,0,1,44466,WMM1,1757468,false,true,1615,image-keyboard-response,20
true,13,2,2,2,true,d,false,true,0.0-2.0-0.54-0.492-3.492,0,0,0,68,false,stim,false,0,2192,1,1,2,44466,WMM1,1761180,false,false,1618,image-keyboard-response,21
true,13,2,2,0,false,q,true,false,0.0-2.0-0.54-0.493-3.493,0,0,0,68,false,stim,false,1,1598,1,1,0,44466,WMM1,1764292,false,false,1621,image-keyboard-response,22
true,13,2,2,1,false,z,false,false,0.0-2.0-0.54-0.494-3.494,0,0,0,68,false,stim,true,2,2613,1,1,1,44466,WMM1,1768421,false,false,1624,image-keyboard-response,23
true,13,2,2,2,true,d,false,false,0.0-2.0-0.55-0.495-3.495,0,0,0,68,false,stim,false,0,1109,1,1,2,44466,WMM1,1771044,false,true,1627,image-keyboard-response,24
true,13,0,2,0,true,q,false,true,0.0-2.0-0.55-0.496-3.496,0,0,0,81,false,stim,false,1,2570,1,1,0,44466,WMM1,1775125,false,false,1630,image-keyboard-response,25
true,13,0,2,2,false,d,false,true,0.0-2.0-0.55-0.497-3.497,0,0,0,81,false,stim,true,0,1193,1,1,2,44466,WMM1,1777836,false,true,1633,image-keyboard-response,26
true,13,0,2,0,true,q,false,true,0.0-2.0-0.55-0.498-3.498,0,0,0,81,false,stim,false,1,2692,1,1,0,44466,WMM1,1782042,false,false,1636,image-keyboard-response,27
true,13,0,2,1,false,z,true,false,0.0-2.0-0.55-0.499-3.499,0,0,0,81,false,stim,false,2,1355,1,1,1,44466,WMM1,1784907,false,false,1639,image-keyboard-response,28
true,13,2,2,1,false,z,false,false,0.0-2.0-0.55-0.500-3.500,0,0,0,68,false,stim,true,2,1876,1,1,1,44466,WMM1,1788299,false,false,1642,image-keyboard-response,29
true,13,1,2,1,true,z,false,true,0.0-2.0-0.55-0.501-3.501,0,0,0,90,false,stim,false,2,809,1,1,1,44466,WMM1,1790629,false,false,1645,image-keyboard-response,30
false,14,-1,0,2,false,d,true,false,0.0-2.0-0.55-0.502-3.502,1,1,1,,true,stim,false,2,,1,1,2,44466,WMM1,1915573,false,false,1768,image-keyboard-response,1
true,14,0,0,0,true,q,false,true,0.0-2.0-0.55-0.503-3.503,1,1,1,81,false,stim,false,0,1171,1,1,0,44466,WMM1,1918260,false,false,1771,image-keyboard-response,2
true,14,0,0,1,false,z,true,false,0.0-2.0-0.56-0.504-3.504,1,1,1,81,false,stim,false,1,2340,1,1,1,44466,WMM1,1922117,false,false,1774,image-keyboard-response,3
true,14,2,0,2,true,d,false,true,0.0-2.0-0.56-0.505-3.505,1,1,1,68,false,stim,false,2,1769,1,1,2,44466,WMM1,1925404,false,false,1777,image-keyboard-response,4
true,14,2,0,2,true,d,false,true,0.0-2.0-0.56-0.506-3.506,1,1,1,68,false,stim,false,2,847,1,1,2,44466,WMM1,1927764,false,false,1780,image-keyboard-response,5
true,14,0,0,0,true,q,false,true,0.0-2.0-0.56-0.507-3.507,1,1,1,81,false,stim,false,0,2293,1,1,0,44466,WMM1,1931572,false,false,1783,image-keyboard-response,6
true,14,0,0,0,true,q,false,true,0.0-2.0-0.56-0.508-3.508,1,1,1,81,false,stim,false,0,1153,1,1,0,44466,WMM1,1934237,false,false,1786,image-keyboard-response,7
true,14,2,0,1,false,z,true,false,0.0-2.0-0.56-0.509-3.509,1,1,1,68,false,stim,false,1,1550,1,1,1,44466,WMM1,1937300,false,false,1789,image-keyboard-response,8
true,14,0,0,0,true,q,false,true,0.0-2.0-0.56-0.510-3.510,1,1,1,81,false,stim,false,0,1507,1,1,0,44466,WMM1,1940325,false,false,1792,image-keyboard-response,9
true,14,1,0,1,true,z,false,true,0.0-2.0-0.56-0.511-3.511,1,1,1,90,false,stim,false,1,908,1,1,1,44466,WMM1,1942748,false,false,1795,image-keyboard-response,10
true,14,2,0,2,true,d,false,true,0.0-2.0-0.56-0.512-3.512,1,1,1,68,false,stim,false,2,1490,1,1,2,44466,WMM1,1945757,false,false,1798,image-keyboard-response,11
true,14,1,0,1,true,z,false,true,0.0-2.0-0.57-0.513-3.513,1,1,1,90,false,stim,false,1,1548,1,1,1,44466,WMM1,1948837,false,false,1801,image-keyboard-response,12
true,14,0,0,0,true,q,false,true,0.0-2.0-0.57-0.514-3.514,1,1,1,81,false,stim,false,0,1678,1,1,0,44466,WMM1,1952029,false,false,1804,image-keyboard-response,13
true,14,0,0,0,true,q,false,true,0.0-2.0-0.57-0.515-3.515,1,1,1,81,false,stim,false,0,728,1,1,0,44466,WMM1,1954277,false,false,1807,image-keyboard-response,14
true,14,0,0,0,true,q,false,true,0.0-2.0-0.57-0.516-3.516,1,1,1,81,false,stim,false,0,719,1,1,0,44466,WMM1,1956510,false,false,1810,image-keyboard-response,15
false,14,-1,0,2,false,d,true,false,0.0-2.0-0.57-0.517-3.517,1,1,1,,false,stim,false,2,,1,1,2,44466,WMM1,1961037,false,false,1813,image-keyboard-response,16
true,14,2,0,2,true,d,false,true,0.0-2.0-0.57-0.518-3.518,1,1,1,68,false,stim,false,2,770,1,1,2,44466,WMM1,1963325,false,false,1816,image-keyboard-response,17
true,14,1,0,1,true,z,false,false,0.0-2.0-0.57-0.519-3.519,1,1,1,90,false,stim,false,1,1343,1,1,1,44466,WMM1,1966180,false,true,1819,image-keyboard-response,18
true,14,0,0,1,false,z,true,false,0.0-2.0-0.57-0.520-3.520,1,1,1,81,false,stim,false,1,858,1,1,1,44466,WMM1,1968554,false,false,1822,image-keyboard-response,19
true,14,2,0,2,true,d,false,true,0.0-2.0-0.57-0.521-3.521,1,1,1,68,false,stim,false,2,1744,1,1,2,44466,WMM1,1971813,false,false,1825,image-keyboard-response,20
true,14,2,0,2,true,d,false,true,0.0-2.0-0.58-0.522-3.522,1,1,1,68,false,stim,false,2,1037,1,1,2,44466,WMM1,1974364,false,false,1828,image-keyboard-response,21
true,14,2,0,2,true,d,false,true,0.0-2.0-0.58-0.523-3.523,1,1,1,68,false,stim,false,2,669,1,1,2,44466,WMM1,1976556,false,false,1831,image-keyboard-response,22
true,14,2,0,1,false,z,true,false,0.0-2.0-0.58-0.524-3.524,1,1,1,68,false,stim,false,1,962,1,1,1,44466,WMM1,1979037,false,false,1834,image-keyboard-response,23
true,14,0,0,0,true,q,false,true,0.0-2.0-0.58-0.525-3.525,1,1,1,81,false,stim,false,0,1485,1,1,0,44466,WMM1,1982044,false,false,1837,image-keyboard-response,24
true,14,0,0,0,true,q,false,true,0.0-2.0-0.58-0.526-3.526,1,1,1,81,false,stim,false,0,1263,1,1,0,44466,WMM1,1984829,false,false,1840,image-keyboard-response,25
true,14,2,0,2,true,d,false,true,0.0-2.0-0.58-0.527-3.527,1,1,1,68,false,stim,false,2,1692,1,1,2,44466,WMM1,1988043,false,false,1843,image-keyboard-response,26
true,14,1,0,1,true,z,false,true,0.0-2.0-0.58-0.528-3.528,1,1,1,90,false,stim,false,1,1426,1,1,1,44466,WMM1,1990988,false,false,1846,image-keyboard-response,27
true,14,0,0,0,true,q,false,true,0.0-2.0-0.58-0.529-3.529,1,1,1,81,false,stim,false,0,1760,1,1,0,44466,WMM1,1994268,false,false,1849,image-keyboard-response,28
true,14,1,0,1,true,z,false,true,0.0-2.0-0.58-0.530-3.530,1,1,1,90,false,stim,false,1,1183,1,1,1,44466,WMM1,1996971,false,false,1852,image-keyboard-response,29
true,14,1,0,1,true,z,false,true,0.0-2.0-0.59-0.531-3.531,1,1,1,90,false,stim,false,1,726,1,0,1,44466,WMM1,1999221,false,false,1855,image-keyboard-response,30
true,14,2,0,2,true,d,false,true,0.0-2.0-0.59-0.532-3.532,1,1,1,68,false,stim,false,2,1365,1,0,2,44466,WMM1,2002100,false,false,1858,image-keyboard-response,31
true,14,0,0,0,true,q,false,false,0.0-2.0-0.59-0.533-3.533,1,1,1,81,false,stim,false,0,1669,1,0,0,44466,WMM1,2005285,false,true,1861,image-keyboard-response,32
true,14,2,0,0,false,q,true,false,0.0-2.0-0.59-0.534-3.534,1,1,1,68,false,stim,false,0,1075,1,0,0,44466,WMM1,2007876,false,false,1864,image-keyboard-response,33
true,14,2,0,2,true,d,false,true,0.0-2.0-0.59-0.535-3.535,1,1,1,68,false,stim,false,2,1790,1,0,2,44466,WMM1,2011180,false,false,1867,image-keyboard-response,34
true,14,1,0,0,false,q,true,true,0.0-2.0-0.59-0.536-3.536,1,1,1,90,false,stim,false,0,1859,1,0,0,44466,WMM1,2014556,false,true,1870,image-keyboard-response,35
true,14,2,0,2,true,d,false,true,0.0-2.0-0.59-0.537-3.537,1,1,1,68,false,stim,false,2,1826,1,0,2,44466,WMM1,2017900,false,false,1873,image-keyboard-response,36
true,14,1,0,1,true,z,false,true,0.0-2.0-0.59-0.538-3.538,1,1,1,90,false,stim,false,1,1364,1,0,1,44466,WMM1,2020780,false,false,1876,image-keyboard-response,37
true,14,1,0,1,true,z,false,true,0.0-2.0-0.59-0.539-3.539,1,1,1,90,false,stim,false,1,1014,1,0,1,44466,WMM1,2023308,false,false,1879,image-keyboard-response,38
true,14,1,0,1,true,z,false,true,0.0-2.0-0.60-0.540-3.540,1,1,1,90,false,stim,false,1,815,1,0,1,44466,WMM1,2025642,false,false,1882,image-keyboard-response,39
true,15,1,1,1,true,z,false,true,0.0-2.0-0.60-0.541-3.541,0,0,0,90,true,stim,false,0,1319,1,0,0,44466,WMM1,2028477,false,false,1885,image-keyboard-response,1
true,15,1,1,0,false,q,false,false,0.0-2.0-0.60-0.542-3.542,0,0,0,90,false,stim,true,1,1588,1,0,1,44466,WMM1,2031589,false,false,1888,image-keyboard-response,2
true,15,2,1,0,false,q,false,false,0.0-2.0-0.60-0.543-3.543,0,0,0,68,false,stim,true,2,1437,1,0,2,44466,WMM1,2034540,false,false,1891,image-keyboard-response,3
true,15,1,1,1,true,z,false,true,0.0-2.0-0.60-0.544-3.544,0,0,0,90,false,stim,false,0,1348,1,0,0,44466,WMM1,2037404,false,false,1894,image-keyboard-response,4
true,15,1,1,0,false,q,true,true,0.0-2.0-0.60-0.545-3.545,0,0,0,90,false,stim,false,2,1736,1,0,2,44466,WMM1,2040652,false,true,1897,image-keyboard-response,5
true,15,1,1,1,true,z,false,true,0.0-2.0-0.60-0.546-3.546,0,0,0,90,false,stim,false,0,2633,1,0,0,44466,WMM1,2044805,false,false,1900,image-keyboard-response,6
true,15,2,1,0,false,q,true,false,0.0-2.0-0.60-0.547-3.547,0,0,0,68,false,stim,false,1,995,1,0,1,44466,WMM1,2047333,false,false,1903,image-keyboard-response,7
true,15,1,1,0,false,q,true,false,0.0-2.0-0.60-0.548-3.548,0,0,0,90,false,stim,false,2,1555,1,0,2,44466,WMM1,2050405,false,false,1906,image-keyboard-response,8
true,15,1,1,1,true,z,false,true,0.0-2.0-0.61-0.549-3.549,0,0,0,90,false,stim,false,0,1670,1,0,0,44466,WMM1,2053588,false,false,1909,image-keyboard-response,9
true,15,0,1,0,true,q,false,true,0.0-2.0-0.61-0.550-3.550,0,0,0,81,false,stim,false,1,1412,1,0,1,44466,WMM1,2056516,false,false,1912,image-keyboard-response,10
true,15,0,1,0,true,q,false,false,0.0-2.0-0.61-0.551-3.551,0,0,0,81,false,stim,false,2,1084,1,0,2,44466,WMM1,2059115,false,true,1915,image-keyboard-response,11
true,15,0,1,0,true,q,false,true,0.0-2.0-0.61-0.552-3.552,0,0,0,81,false,stim,false,1,1269,1,0,1,44466,WMM1,2061900,false,false,1918,image-keyboard-response,12
true,15,1,1,1,true,z,false,true,0.0-2.0-0.61-0.553-3.553,0,0,0,90,false,stim,false,0,1202,1,0,0,44466,WMM1,2064620,false,false,1921,image-keyboard-response,13
true,15,0,1,0,true,q,false,true,0.0-2.0-0.61-0.554-3.554,0,0,0,81,false,stim,false,1,1464,1,0,1,44466,WMM1,2067597,false,false,1924,image-keyboard-response,14
true,15,1,1,1,true,z,false,false,0.0-2.0-0.61-0.555-3.555,0,0,0,90,false,stim,false,0,1800,1,0,0,44466,WMM1,2070908,false,true,1927,image-keyboard-response,15
true,15,2,1,0,false,q,false,false,0.0-2.0-0.61-0.556-3.556,0,0,0,68,false,stim,true,2,1407,1,0,2,44466,WMM1,2073836,false,false,1930,image-keyboard-response,16
true,15,0,1,0,true,q,false,true,0.0-2.0-0.61-0.557-3.557,0,0,0,81,false,stim,false,2,625,1,0,2,44466,WMM1,2075978,false,false,1933,image-keyboard-response,17
true,15,0,1,1,false,z,false,false,0.0-2.0-0.62-0.558-3.558,0,0,0,81,false,stim,true,0,1762,1,0,0,44466,WMM1,2079260,false,false,1936,image-keyboard-response,18
true,15,0,1,0,true,q,false,true,0.0-2.0-0.62-0.559-3.559,0,0,0,81,false,stim,false,2,2390,1,0,2,44466,WMM1,2083164,false,false,1939,image-keyboard-response,19
true,15,0,1,0,true,q,false,true,0.0-2.0-0.62-0.560-3.560,0,0,0,81,false,stim,false,1,2075,1,0,1,44466,WMM1,2086758,false,false,1942,image-keyboard-response,20
true,15,0,1,0,true,q,false,true,0.0-2.0-0.62-0.561-3.561,0,0,0,81,false,stim,false,1,1131,1,0,1,44466,WMM1,2089413,false,false,1945,image-keyboard-response,21
true,15,2,1,0,false,q,false,false,0.0-2.0-0.62-0.562-3.562,0,0,0,68,false,stim,true,2,1182,1,0,2,44466,WMM1,2092116,false,false,1948,image-keyboard-response,22
true,15,0,1,0,true,q,false,true,0.0-2.0-0.62-0.563-3.563,0,0,0,81,false,stim,false,1,1520,1,0,1,44466,WMM1,2095156,false,false,1951,image-keyboard-response,23
true,15,0,1,0,true,q,false,true,0.0-2.0-0.62-0.564-3.564,0,0,0,81,false,stim,false,2,606,1,0,2,44466,WMM1,2097283,false,false,1954,image-keyboard-response,24
true,15,2,1,1,false,z,true,false,0.0-2.0-0.62-0.565-3.565,0,0,0,68,false,stim,false,0,822,1,0,0,44466,WMM1,2099626,false,false,1957,image-keyboard-response,25
true,15,0,1,1,false,z,false,false,0.0-2.0-0.62-0.566-3.566,0,0,0,81,false,stim,true,0,1419,1,0,0,44466,WMM1,2102565,false,false,1960,image-keyboard-response,26
true,15,0,1,0,true,q,false,false,0.0-2.0-0.63-0.567-3.567,0,0,0,81,false,stim,false,1,1557,1,0,1,44466,WMM1,2105636,false,true,1963,image-keyboard-response,27
true,15,0,1,0,true,q,false,true,0.0-2.0-0.63-0.568-3.568,0,0,0,81,false,stim,false,2,1367,1,0,2,44466,WMM1,2108524,false,false,1966,image-keyboard-response,28
true,15,1,1,0,false,q,false,false,0.0-2.0-0.63-0.569-3.569,0,0,0,90,false,stim,true,1,880,1,0,1,44466,WMM1,2110926,false,false,1969,image-keyboard-response,29
true,15,2,1,1,false,z,true,false,0.0-2.0-0.63-0.570-3.570,0,0,0,68,false,stim,false,0,2308,1,0,0,44466,WMM1,2114749,false,false,1972,image-keyboard-response,30
true,15,1,1,1,true,z,false,false,0.0-2.0-0.63-0.571-3.571,0,0,0,90,false,stim,false,0,1604,1,0,0,44466,WMM1,2117875,false,true,1975,image-keyboard-response,31
true,15,0,1,0,true,q,false,true,0.0-2.0-0.63-0.572-3.572,0,0,0,81,false,stim,false,2,1176,1,0,2,44466,WMM1,2120573,false,false,1978,image-keyboard-response,32
true,15,2,1,0,false,q,true,true,0.0-2.0-0.63-0.573-3.573,0,0,0,68,false,stim,false,1,1311,1,0,1,44466,WMM1,2123405,false,true,1981,image-keyboard-response,33
true,15,0,1,1,false,z,false,false,0.0-2.0-0.63-0.574-3.574,0,0,0,81,false,stim,true,0,825,1,0,0,44466,WMM1,2125748,false,false,1984,image-keyboard-response,34
true,15,0,1,0,true,q,false,true,0.0-2.0-0.63-0.575-3.575,0,0,0,81,false,stim,false,2,1472,1,0,2,44466,WMM1,2128740,false,false,1987,image-keyboard-response,35
true,15,2,1,0,false,q,true,false,0.0-2.0-0.64-0.576-3.576,0,0,0,68,false,stim,false,1,1214,1,0,1,44466,WMM1,2131477,false,false,1990,image-keyboard-response,36
true,15,1,1,0,false,q,false,false,0.0-2.0-0.64-0.577-3.577,0,0,0,90,false,stim,true,1,1210,1,0,1,44466,WMM1,2134212,false,false,1993,image-keyboard-response,37
true,15,0,1,0,true,q,false,true,0.0-2.0-0.64-0.578-3.578,0,0,0,81,false,stim,false,2,1595,1,0,2,44466,WMM1,2137331,false,false,1996,image-keyboard-response,38
true,15,0,1,0,true,q,false,true,0.0-2.0-0.64-0.579-3.579,0,0,0,81,false,stim,false,2,782,1,0,2,44466,WMM1,2139635,false,false,1999,image-keyboard-response,39
true,15,0,1,1,false,z,false,false,0.0-2.0-0.64-0.580-3.580,0,0,0,81,false,stim,true,0,2714,1,0,0,44466,WMM1,2143885,false,false,2002,image-keyboard-response,40
true,15,0,1,0,true,q,false,true,0.0-2.0-0.64-0.581-3.581,0,0,0,81,false,stim,false,2,2114,1,0,2,44466,WMM1,2147516,false,false,2005,image-keyboard-response,41
true,15,2,1,1,false,z,true,false,0.0-2.0-0.64-0.582-3.582,0,0,0,68,false,stim,false,0,2227,1,0,0,44466,WMM1,2151261,false,false,2008,image-keyboard-response,42
true,15,0,1,1,false,z,false,false,0.0-2.0-0.64-0.583-3.583,0,0,0,81,false,stim,true,0,1045,1,0,0,44466,WMM1,2153820,false,false,2011,image-keyboard-response,43
true,15,0,1,0,true,q,false,true,0.0-2.0-0.64-0.584-3.584,0,0,0,81,false,stim,false,1,1974,1,0,1,44466,WMM1,2157316,false,false,2014,image-keyboard-response,44
true,15,1,1,1,true,z,false,true,0.0-2.0-0.65-0.585-3.585,0,0,0,90,false,stim,false,0,2523,1,0,0,44466,WMM1,2161364,false,false,2017,image-keyboard-response,45
true,15,0,1,0,true,q,false,true,0.0-2.0-0.65-0.586-3.586,0,0,0,81,false,stim,false,1,1545,1,0,1,44466,WMM1,2164429,false,false,2020,image-keyboard-response,46
true,15,0,1,0,true,q,false,true,0.0-2.0-0.65-0.587-3.587,0,0,0,81,false,stim,false,1,600,1,0,1,44466,WMM1,2166547,false,false,2023,image-keyboard-response,47
true,15,0,1,0,true,q,false,true,0.0-2.0-0.65-0.588-3.588,0,0,0,81,false,stim,false,1,497,1,0,1,44466,WMM1,2168563,false,false,2026,image-keyboard-response,48
true,15,0,1,0,true,q,false,true,0.0-2.0-0.65-0.589-3.589,0,0,0,81,false,stim,false,2,1306,1,0,2,44466,WMM1,2171389,false,false,2029,image-keyboard-response,49
true,15,1,1,1,true,z,false,false,0.0-2.0-0.65-0.590-3.590,0,0,0,90,false,stim,false,0,1206,1,0,0,44466,WMM1,2174116,false,true,2032,image-keyboard-response,50
true,15,0,1,0,true,q,false,true,0.0-2.0-0.65-0.591-3.591,0,0,0,81,false,stim,false,2,1823,1,0,2,44466,WMM1,2177460,false,false,2035,image-keyboard-response,51
true,15,2,1,1,false,z,true,false,0.0-2.0-0.65-0.592-3.592,0,0,0,68,false,stim,false,0,998,1,0,0,44466,WMM1,2179973,false,false,2038,image-keyboard-response,52
true,15,0,1,0,true,q,false,false,0.0-2.0-0.65-0.593-3.593,0,0,0,81,false,stim,false,2,1870,1,0,2,44466,WMM1,2183356,false,true,2041,image-keyboard-response,53
true,15,0,1,0,true,q,false,true,0.0-2.0-0.66-0.594-3.594,0,0,0,81,false,stim,false,1,1695,1,0,1,44466,WMM1,2186573,false,false,2044,image-keyboard-response,54
true,15,1,1,0,false,q,true,false,0.0-2.0-0.66-0.595-3.595,0,0,0,90,false,stim,false,2,1522,1,0,2,44466,WMM1,2189612,false,false,2047,image-keyboard-response,55
true,15,1,1,1,true,z,false,true,0.0-2.0-0.66-0.596-3.596,0,0,0,90,false,stim,false,0,1600,1,0,0,44466,WMM1,2192724,false,false,2050,image-keyboard-response,56
false,15,-1,1,0,false,q,true,false,0.0-2.0-0.66-0.597-3.597,0,0,0,,false,stim,false,2,,1,0,2,44466,WMM1,2197240,false,false,2053,image-keyboard-response,57
true,15,0,1,0,true,q,false,true,0.0-2.0-0.66-0.598-3.598,0,0,0,81,false,stim,false,1,1807,1,0,1,44466,WMM1,2200564,false,false,2056,image-keyboard-response,58
true,15,1,1,1,true,z,false,true,0.0-2.0-0.66-0.599-3.599,0,0,0,90,false,stim,false,0,833,1,0,0,44466,WMM1,2202916,false,false,2059,image-keyboard-response,59
true,15,0,1,0,true,q,false,true,0.0-2.0-0.66-0.600-3.600,0,0,0,81,false,stim,false,1,1604,1,0,1,44466,WMM1,2206034,false,false,2062,image-keyboard-response,60
true,16,1,2,0,false,q,false,false,0.0-2.0-0.66-0.601-3.601,0,0,0,90,true,stim,true,1,1402,1,0,0,44466,WMM1,2208947,false,false,2065,image-keyboard-response,1
true,16,1,2,2,false,d,true,false,0.0-2.0-0.66-0.602-3.602,0,0,0,90,false,stim,false,0,1586,1,0,2,44466,WMM1,2212052,false,false,2068,image-keyboard-response,2
true,16,0,2,1,false,z,false,false,0.0-2.0-0.67-0.603-3.603,0,0,0,81,false,stim,true,0,2068,1,0,1,44466,WMM1,2215636,false,false,2071,image-keyboard-response,3
true,16,2,2,2,true,d,false,true,0.0-2.0-0.67-0.604-3.604,0,0,0,68,false,stim,false,0,1949,1,0,2,44466,WMM1,2219100,false,false,2074,image-keyboard-response,4
true,16,2,2,2,true,d,false,true,0.0-2.0-0.67-0.605-3.605,0,0,0,68,false,stim,false,0,2134,1,0,2,44466,WMM1,2222749,false,false,2077,image-keyboard-response,5
true,16,1,2,1,true,z,false,true,0.0-2.0-0.67-0.606-3.606,0,0,0,90,false,stim,false,0,1873,1,0,1,44466,WMM1,2226140,false,false,2080,image-keyboard-response,6
true,16,2,2,0,false,q,true,true,0.0-2.0-0.67-0.607-3.607,0,0,0,68,false,stim,false,1,1985,1,0,0,44466,WMM1,2229636,false,true,2083,image-keyboard-response,7
true,16,2,2,0,false,q,true,false,0.0-2.0-0.67-0.608-3.608,0,0,0,68,false,stim,false,1,669,1,0,0,44466,WMM1,2231821,false,false,2086,image-keyboard-response,8
true,16,1,2,1,true,z,false,true,0.0-2.0-0.67-0.609-3.609,0,0,0,90,false,stim,false,0,1563,1,0,1,44466,WMM1,2234893,false,false,2089,image-keyboard-response,9
true,16,2,2,2,true,d,false,true,0.0-2.0-0.67-0.610-3.610,0,0,0,68,false,stim,false,0,1109,1,0,2,44466,WMM1,2237517,false,false,2092,image-keyboard-response,10
true,16,0,2,0,true,q,false,true,0.0-2.0-0.67-0.611-3.611,0,0,0,81,false,stim,false,1,2133,1,0,0,44466,WMM1,2241165,false,false,2095,image-keyboard-response,11
true,16,0,2,0,true,q,false,true,0.0-2.0-0.68-0.612-3.612,0,0,0,81,false,stim,false,1,759,1,0,0,44466,WMM1,2243440,false,false,2098,image-keyboard-response,12
true,16,2,2,2,true,d,false,true,0.0-2.0-0.68-0.613-3.613,0,0,0,68,false,stim,false,0,1906,1,0,2,44466,WMM1,2246877,false,false,2101,image-keyboard-response,13
true,16,0,2,0,true,q,false,true,0.0-2.0-0.68-0.614-3.614,0,0,0,81,false,stim,false,1,1810,1,0,0,44466,WMM1,2250204,false,false,2104,image-keyboard-response,14
true,16,1,2,1,true,z,false,true,0.0-2.0-0.68-0.615-3.615,0,0,0,90,false,stim,false,0,1223,1,0,1,44466,WMM1,2252948,false,false,2107,image-keyboard-response,15
true,16,2,2,2,true,d,false,true,0.0-2.0-0.68-0.616-3.616,0,0,0,68,false,stim,false,0,1177,1,0,2,44466,WMM1,2255644,false,false,2110,image-keyboard-response,16
true,16,0,2,0,true,q,false,true,0.0-2.0-0.68-0.617-3.617,0,0,0,81,false,stim,false,1,1653,1,0,0,44466,WMM1,2258812,false,false,2113,image-keyboard-response,17
true,16,1,2,1,true,z,false,true,0.0-2.0-0.68-0.618-3.618,0,0,0,90,false,stim,false,0,1564,1,0,1,44466,WMM1,2261893,false,false,2116,image-keyboard-response,18
true,16,2,2,2,true,d,false,true,0.0-2.0-0.68-0.619-3.619,0,0,0,68,false,stim,false,0,1126,1,0,2,44466,WMM1,2264532,false,false,2119,image-keyboard-response,19
true,16,1,2,1,true,z,false,true,0.0-2.0-0.68-0.620-3.620,0,0,0,90,false,stim,false,0,1944,1,0,1,44466,WMM1,2267988,false,false,2122,image-keyboard-response,20
true,16,0,2,0,true,q,false,true,0.0-2.0-0.69-0.621-3.621,0,0,0,81,false,stim,false,1,1180,1,0,0,44466,WMM1,2270697,false,false,2125,image-keyboard-response,21
true,16,2,2,2,true,d,false,true,0.0-2.0-0.69-0.622-3.622,0,0,0,68,false,stim,false,0,1020,1,0,2,44466,WMM1,2273235,false,false,2128,image-keyboard-response,22
true,16,1,2,1,true,z,false,true,0.0-2.0-0.69-0.623-3.623,0,0,0,90,false,stim,false,0,1513,1,0,1,44466,WMM1,2276268,false,false,2131,image-keyboard-response,23
true,16,1,2,1,true,z,false,true,0.0-2.0-0.69-0.624-3.624,0,0,0,90,false,stim,false,0,613,1,0,1,44466,WMM1,2278396,false,false,2134,image-keyboard-response,24
true,16,0,2,0,true,q,false,true,0.0-2.0-0.69-0.625-3.625,0,0,0,81,false,stim,false,1,1398,1,0,0,44466,WMM1,2281316,false,false,2137,image-keyboard-response,25
true,16,2,2,2,true,d,false,true,0.0-2.0-0.69-0.626-3.626,0,0,0,68,false,stim,false,0,1190,1,0,2,44466,WMM1,2284020,false,false,2140,image-keyboard-response,26
true,16,1,2,1,true,z,false,true,0.0-2.0-0.69-0.627-3.627,0,0,0,90,false,stim,false,0,2642,1,0,1,44466,WMM1,2288180,false,false,2143,image-keyboard-response,27
true,16,0,2,0,true,q,false,true,0.0-2.0-0.69-0.628-3.628,0,0,0,81,false,stim,false,1,1657,1,0,0,44466,WMM1,2291357,false,false,2146,image-keyboard-response,28
true,16,2,2,2,true,d,false,true,0.0-2.0-0.69-0.629-3.629,0,0,0,68,false,stim,false,0,935,1,0,2,44466,WMM1,2293812,false,false,2149,image-keyboard-response,29
true,16,2,2,2,true,d,false,true,0.0-2.0-0.70-0.630-3.630,0,0,0,68,false,stim,false,0,689,1,0,2,44466,WMM1,2296020,false,false,2152,image-keyboard-response,30
true,17,1,4,2,false,d,false,false,0.0-2.0-0.70-0.631-3.631,0,0,0,90,true,stim,true,1,1698,1,0,1,44466,WMM1,2299236,false,false,2155,image-keyboard-response,1
true,17,0,4,2,false,d,false,false,0.0-2.0-0.70-0.632-3.632,0,0,0,81,false,stim,true,0,2022,1,0,0,44466,WMM1,2302772,false,false,2158,image-keyboard-response,2
true,17,2,4,1,false,z,false,false,0.0-2.0-0.70-0.633-3.633,0,0,0,68,false,stim,true,2,1565,1,0,2,44466,WMM1,2305852,false,false,2161,image-keyboard-response,3
true,17,2,4,2,true,d,false,true,0.0-2.0-0.70-0.634-3.634,0,0,0,68,false,stim,false,0,1434,1,0,0,44466,WMM1,2308804,false,false,2164,image-keyboard-response,4
