answered,blockNum,choice,condition,corResp,correct,correct_response,explo,fb,internal_node_id,isStable_1,isStable_2,isStable_3,key_press,newBlock,part,persev,persevResp,rt,sessNum,stableAS,stimulus,subject,task,time_elapsed,training,trap,trial_index,trial_type,trialsInBlock
true,1,1,0,2,false,d,true,false,0.0-2.0-0.0-0.0-3.0,0,0,0,90,true,stim,false,-1,1142.0,3,0,1,49494,WMM2,74800,false,false,79,image-keyboard-response,1
true,1,1,0,2,false,d,true,false,0.0-2.0-0.0-0.1-3.1,0,0,0,90,false,stim,false,-1,949.0,3,0,0,49494,WMM2,77256,false,false,82,image-keyboard-response,2
true,1,1,0,1,true,z,false,true,0.0-2.0-0.0-0.2-3.2,0,0,0,90,false,stim,false,-1,820.9999999999854,3,0,2,49494,WMM2,79585,false,false,85,image-keyboard-response,3
true,1,1,0,1,true,z,false,true,0.0-2.0-0.0-0.3-3.3,0,0,0,90,false,stim,false,-1,1052.0,3,0,2,49494,WMM2,82143,false,false,88,image-keyboard-response,4
true,1,2,0,2,true,d,false,true,0.0-2.0-0.0-0.4-3.4,0,0,0,68,false,stim,false,-1,931.9999999999854,3,0,0,49494,WMM2,84582,false,false,91,image-keyboard-response,5
true,1,2,0,2,true,d,false,true,0.0-2.0-0.0-0.5-3.5,0,0,0,68,false,stim,false,-1,1733.0,3,0,1,49494,WMM2,87821,false,false,94,image-keyboard-response,6
true,1,2,0,2,true,d,false,true,0.0-2.0-0.0-0.6-3.6,0,0,0,68,false,stim,false,-1,760.0,3,0,0,49494,WMM2,90087,false,false,97,image-keyboard-response,7
true,1,2,0,2,true,d,false,true,0.0-2.0-0.0-0.7-3.7,0,0,0,68,false,stim,false,-1,1158.0,3,0,1,49494,WMM2,92752,false,false,100,image-keyboard-response,8
true,1,1,0,1,true,z,false,true,0.0-2.0-0.0-0.8-3.8,0,0,0,90,false,stim,false,-1,872.9999999999854,3,0,2,49494,WMM2,95134,false,false,103,image-keyboard-response,9
true,1,2,0,2,true,d,false,false,0.0-2.0-0.1-0.9-3.9,0,0,0,68,false,stim,false,-1,784.9999999999854,3,0,0,49494,WMM2,97426,false,true,106,image-keyboard-response,10
false,1,-1,0,1,false,z,false,false,0.0-2.0-0.1-0.10-3.10,0,0,0,,false,stim,true,-1,,3,0,2,49494,WMM2,101934,false,false,109,image-keyboard-response,11
true,1,2,0,2,true,d,false,true,0.0-2.0-0.1-0.11-3.11,0,0,0,68,false,stim,false,-1,856.0,3,0,0,49494,WMM2,104296,false,false,112,image-keyboard-response,12
true,1,1,0,1,true,z,false,true,0.0-2.0-0.1-0.12-3.12,0,0,0,90,false,stim,false,-1,957.0000000000146,3,0,2,49494,WMM2,106760,false,false,115,image-keyboard-response,13
true,1,2,0,2,true,d,false,true,0.0-2.0-0.1-0.13-3.13,0,0,0,68,false,stim,false,-1,801.0,3,0,1,49494,WMM2,109068,false,false,118,image-keyboard-response,14
true,1,2,0,2,true,d,false,true,0.0-2.0-0.1-0.14-3.14,0,0,0,68,false,stim,false,-1,1021.0,3,0,0,49494,WMM2,111596,false,false,121,image-keyboard-response,15
true,1,2,0,2,true,d,false,true,0.0-2.0-0.1-0.15-3.15,0,0,0,68,false,stim,false,-1,1201.0,3,0,1,49494,WMM2,114304,false,false,124,image-keyboard-response,16
true,1,1,0,1,true,z,false,true,0.0-2.0-0.1-0.16-3.16,0,0,0,90,false,stim,false,-1,704.0,3,0,2,49494,WMM2,116515,false,false,127,image-keyboard-response,17
true,1,2,0,2,true,d,false,true,0.0-2.0-0.1-0.17-3.17,0,0,0,68,false,stim,false,-1,1164.9999999999854,3,0,1,49494,WMM2,119187,false,false,130,image-keyboard-response,18
true,1,2,0,2,true,d,false,true,0.0-2.0-0.2-0.18-3.18,0,0,0,68,false,stim,false,-1,856.0000000000146,3,0,1,49494,WMM2,121549,false,false,133,image-keyboard-response,19
true,1,2,0,2,true,d,false,true,0.0-2.0-0.2-0.19-3.19,0,0,0,68,false,stim,false,-1,729.0,3,0,1,49494,WMM2,123785,false,false,136,image-keyboard-response,20
true,1,2,0,2,true,d,false,true,0.0-2.0-0.2-0.20-3.20,0,0,0,68,false,stim,false,-1,2198.0000000000146,3,0,0,49494,WMM2,127490,false,false,139,image-keyboard-response,21
true,1,2,0,2,true,d,false,true,0.0-2.0-0.2-0.21-3.21,0,0,0,68,false,stim,false,-1,596.0,3,0,0,49494,WMM2,129593,false,false,142,image-keyboard-response,22
true,1,1,0,1,true,z,false,true,0.0-2.0-0.2-0.22-3.22,0,0,0,90,false,stim,false,-1,1300.0,3,1,2,49494,WMM2,132400,false,false,145,image-keyboard-response,23
true,1,1,0,1,true,z,false,true,0.0-2.0-0.2-0.23-3.23,0,0,0,90,false,stim,false,-1,620.0,3,1,2,49494,WMM2,134527,false,false,148,image-keyboard-response,24
true,1,2,0,2,true,d,false,true,0.0-2.0-0.2-0.24-3.24,0,0,0,68,false,stim,false,-1,869.0,3,1,1,49494,WMM2,136902,false,false,151,image-keyboard-response,25
true,1,1,0,1,true,z,false,true,0.0-2.0-0.2-0.25-3.25,0,0,0,90,false,stim,false,-1,891.0,3,1,2,49494,WMM2,139300,false,false,154,image-keyboard-response,26
true,1,2,0,2,true,d,false,true,0.0-2.0-0.2-0.26-3.26,0,0,0,68,false,stim,false,-1,988.0,3,0,0,49494,WMM2,141795,false,false,157,image-keyboard-response,27
true,1,1,0,1,true,z,false,true,0.0-2.0-0.3-0.27-3.27,0,0,0,90,false,stim,false,-1,1781.0,3,1,2,49494,WMM2,145083,false,false,160,image-keyboard-response,28
true,1,2,0,2,true,d,false,true,0.0-2.0-0.3-0.28-3.28,0,0,0,68,false,stim,false,-1,1805.0,3,0,0,49494,WMM2,148395,false,false,163,image-keyboard-response,29
true,1,2,0,2,true,d,false,true,0.0-2.0-0.3-0.29-3.29,0,0,0,68,false,stim,false,-1,717.0,3,0,0,49494,WMM2,150619,false,false,166,image-keyboard-response,30
true,2,2,2,2,true,d,false,true,0.0-2.0-0.3-0.30-3.30,0,1,1,68,true,stim,false,2,2437.000000000029,3,1,1,49494,WMM2,154562,false,false,169,image-keyboard-response,1
true,2,1,2,1,true,z,false,true,0.0-2.0-0.3-0.31-3.31,0,1,1,90,false,stim,false,1,1439.0,3,1,2,49494,WMM2,157508,false,false,172,image-keyboard-response,2
true,2,2,2,0,false,q,false,false,0.0-2.0-0.3-0.32-3.32,0,1,1,68,false,stim,true,2,754.0,3,0,0,49494,WMM2,159768,false,false,175,image-keyboard-response,3
true,2,1,2,1,true,z,false,true,0.0-2.0-0.3-0.33-3.33,0,1,1,90,false,stim,false,1,1501.0,3,1,2,49494,WMM2,162775,false,false,178,image-keyboard-response,4
true,2,2,2,2,true,d,false,false,0.0-2.0-0.3-0.34-3.34,0,1,1,68,false,stim,false,2,759.0,3,1,1,49494,WMM2,165040,false,true,181,image-keyboard-response,5
true,2,2,2,2,true,d,false,true,0.0-2.0-0.3-0.35-3.35,0,1,1,68,false,stim,false,2,1525.0,3,1,1,49494,WMM2,168071,false,false,184,image-keyboard-response,6
true,2,1,2,1,true,z,false,false,0.0-2.0-0.4-0.36-3.36,0,1,1,90,false,stim,false,1,1207.0,3,1,2,49494,WMM2,170785,false,true,187,image-keyboard-response,7
true,2,2,2,0,false,q,false,true,0.0-2.0-0.4-0.37-3.37,0,1,1,68,false,stim,true,2,945.0000000000291,3,0,0,49494,WMM2,173235,false,true,190,image-keyboard-response,8
true,2,2,2,0,false,q,false,false,0.0-2.0-0.4-0.38-3.38,0,1,1,68,false,stim,true,2,851.0,3,0,0,49494,WMM2,175593,false,false,193,image-keyboard-response,9
true,2,2,2,0,false,q,false,false,0.0-2.0-0.4-0.39-3.39,0,1,1,68,false,stim,true,2,770.0,3,0,0,49494,WMM2,177869,false,false,196,image-keyboard-response,10
true,2,1,2,1,true,z,false,true,0.0-2.0-0.4-0.40-3.40,0,1,1,90,false,stim,false,1,996.0,3,1,2,49494,WMM2,180371,false,false,199,image-keyboard-response,11
true,2,1,2,1,true,z,false,false,0.0-2.0-0.4-0.41-3.41,0,1,1,90,false,stim,false,1,732.0,3,1,2,49494,WMM2,182610,false,true,202,image-keyboard-response,12
true,2,2,2,2,true,d,false,true,0.0-2.0-0.4-0.42-3.42,0,1,1,68,false,stim,false,2,944.0,3,1,1,49494,WMM2,185061,false,false,205,image-keyboard-response,13
true,2,2,2,2,true,d,false,true,0.0-2.0-0.4-0.43-3.43,0,1,1,68,false,stim,false,2,685.9999999999709,3,1,1,49494,WMM2,187254,false,false,208,image-keyboard-response,14
true,2,2,2,2,true,d,false,true,0.0-2.0-0.4-0.44-3.44,0,1,1,68,false,stim,false,2,615.0,3,1,1,49494,WMM2,189375,false,false,211,image-keyboard-response,15
true,2,0,2,0,true,q,false,true,0.0-2.0-0.5-0.45-3.45,0,1,1,81,false,stim,false,2,2072.0,3,0,0,49494,WMM2,192954,false,false,214,image-keyboard-response,16
true,2,1,2,1,true,z,false,true,0.0-2.0-0.5-0.46-3.46,0,1,1,90,false,stim,false,1,1407.0,3,1,2,49494,WMM2,195867,false,false,217,image-keyboard-response,17
true,2,1,2,1,true,z,false,true,0.0-2.0-0.5-0.47-3.47,0,1,1,90,false,stim,false,1,569.0000000000291,3,1,2,49494,WMM2,197943,false,false,220,image-keyboard-response,18
true,2,2,2,2,true,d,false,true,0.0-2.0-0.5-0.48-3.48,0,1,1,68,false,stim,false,2,683.0,3,1,1,49494,WMM2,200134,false,false,223,image-keyboard-response,19
true,2,0,2,0,true,q,false,true,0.0-2.0-0.5-0.49-3.49,0,1,1,81,false,stim,false,2,978.0,3,0,0,49494,WMM2,202619,false,false,226,image-keyboard-response,20
true,2,1,2,1,true,z,false,true,0.0-2.0-0.5-0.50-3.50,0,1,1,90,false,stim,false,1,1703.0,3,1,2,49494,WMM2,205829,false,false,229,image-keyboard-response,21
true,2,2,2,2,true,d,false,false,0.0-2.0-0.5-0.51-3.51,0,1,1,68,false,stim,false,2,822.0,3,0,1,49494,WMM2,208158,false,true,232,image-keyboard-response,22
true,2,1,2,2,false,d,true,false,0.0-2.0-0.5-0.52-3.52,0,1,1,90,false,stim,false,2,1856.000000000029,3,0,1,49494,WMM2,211521,false,false,235,image-keyboard-response,23
true,2,0,2,0,true,q,false,true,0.0-2.0-0.5-0.53-3.53,0,1,1,81,false,stim,false,2,881.0,3,1,0,49494,WMM2,213909,false,false,238,image-keyboard-response,24
true,2,0,2,0,true,q,false,true,0.0-2.0-0.6-0.54-3.54,0,1,1,81,false,stim,false,2,578.9999999999709,3,1,0,49494,WMM2,215993,false,false,241,image-keyboard-response,25
true,2,1,2,1,true,z,false,true,0.0-2.0-0.6-0.55-3.55,0,1,1,90,false,stim,false,1,962.0000000000291,3,1,2,49494,WMM2,218461,false,false,244,image-keyboard-response,26
true,2,0,2,2,false,d,true,false,0.0-2.0-0.6-0.56-3.56,0,1,1,81,false,stim,false,2,1157.999999999971,3,0,1,49494,WMM2,221125,false,false,247,image-keyboard-response,27
true,2,2,2,2,true,d,false,true,0.0-2.0-0.6-0.57-3.57,0,1,1,68,false,stim,false,2,660.0,3,0,1,49494,WMM2,223290,false,false,250,image-keyboard-response,28
true,2,0,2,0,true,q,false,true,0.0-2.0-0.6-0.58-3.58,0,1,1,81,false,stim,false,2,852.0,3,1,0,49494,WMM2,225649,false,false,253,image-keyboard-response,29
true,2,1,2,1,true,z,false,true,0.0-2.0-0.6-0.59-3.59,0,1,1,90,false,stim,false,1,977.0,3,1,2,49494,WMM2,228133,false,false,256,image-keyboard-response,30
true,3,0,2,0,true,q,false,true,0.0-2.0-0.6-0.60-3.60,1,0,1,81,true,stim,false,0,804.9999999999709,3,1,0,49494,WMM2,230445,false,false,259,image-keyboard-response,1
true,3,2,2,1,false,z,false,false,0.0-2.0-0.6-0.61-3.61,1,0,1,68,false,stim,true,2,1282.0,3,0,1,49494,WMM2,233234,false,false,262,image-keyboard-response,2
true,3,1,2,1,true,z,false,true,0.0-2.0-0.6-0.62-3.62,1,0,1,90,false,stim,false,1,808.9999999999709,3,1,2,49494,WMM2,235550,false,false,265,image-keyboard-response,3
true,3,0,2,0,true,q,false,true,0.0-2.0-0.7-0.63-3.63,1,0,1,81,false,stim,false,0,737.0,3,1,0,49494,WMM2,237794,false,false,268,image-keyboard-response,4
true,3,0,2,0,true,q,false,true,0.0-2.0-0.7-0.64-3.64,1,0,1,81,false,stim,false,0,572.0000000000291,3,1,0,49494,WMM2,239872,false,false,271,image-keyboard-response,5
true,3,1,2,1,true,z,false,true,0.0-2.0-0.7-0.65-3.65,1,0,1,90,false,stim,false,2,2656.999999999971,3,0,1,49494,WMM2,244035,false,false,274,image-keyboard-response,6
true,3,1,2,1,true,z,false,true,0.0-2.0-0.7-0.66-3.66,1,0,1,90,false,stim,false,1,1089.0,3,1,2,49494,WMM2,246630,false,false,277,image-keyboard-response,7
true,3,1,2,1,true,z,false,true,0.0-2.0-0.7-0.67-3.67,1,0,1,90,false,stim,false,1,1433.0,3,1,2,49494,WMM2,249570,false,false,280,image-keyboard-response,8
true,3,1,2,1,true,z,false,true,0.0-2.0-0.7-0.68-3.68,1,0,1,90,false,stim,false,2,990.0,3,0,1,49494,WMM2,252067,false,false,283,image-keyboard-response,9
true,3,1,2,1,true,z,false,true,0.0-2.0-0.7-0.69-3.69,1,0,1,90,false,stim,false,1,865.0,3,1,2,49494,WMM2,254439,false,false,286,image-keyboard-response,10
true,3,1,2,1,true,z,false,true,0.0-2.0-0.7-0.70-3.70,1,0,1,90,false,stim,false,2,818.9999999999418,3,0,1,49494,WMM2,256764,false,false,289,image-keyboard-response,11
true,3,0,2,0,true,q,false,true,0.0-2.0-0.7-0.71-3.71,1,0,1,81,false,stim,false,0,1418.0,3,1,0,49494,WMM2,259689,false,false,292,image-keyboard-response,12
true,3,1,2,1,true,z,false,true,0.0-2.0-0.8-0.72-3.72,1,0,1,90,false,stim,false,1,1477.0,3,1,2,49494,WMM2,262672,false,false,295,image-keyboard-response,13
true,3,1,2,1,true,z,false,true,0.0-2.0-0.8-0.73-3.73,1,0,1,90,false,stim,false,2,1155.0,3,0,1,49494,WMM2,265334,false,false,298,image-keyboard-response,14
true,3,0,2,0,true,q,false,true,0.0-2.0-0.8-0.74-3.74,1,0,1,81,false,stim,false,0,863.0,3,1,0,49494,WMM2,267705,false,false,301,image-keyboard-response,15
true,3,1,2,1,true,z,false,false,0.0-2.0-0.8-0.75-3.75,1,0,1,90,false,stim,false,1,1222.0,3,1,2,49494,WMM2,270434,false,true,304,image-keyboard-response,16
true,3,1,2,1,true,z,false,true,0.0-2.0-0.8-0.76-3.76,1,0,1,90,false,stim,false,1,1264.0000000000582,3,1,2,49494,WMM2,273202,false,false,307,image-keyboard-response,17
true,3,0,2,0,true,q,false,false,0.0-2.0-0.8-0.77-3.77,1,0,1,81,false,stim,false,0,1793.0,3,1,0,49494,WMM2,276502,false,true,310,image-keyboard-response,18
true,3,0,2,0,true,q,false,false,0.0-2.0-0.8-0.78-3.78,1,0,1,81,false,stim,false,0,1023.0,3,1,0,49494,WMM2,279031,false,true,313,image-keyboard-response,19
true,3,1,2,1,true,z,false,false,0.0-2.0-0.8-0.79-3.79,1,0,1,90,false,stim,false,2,1091.0,3,0,1,49494,WMM2,281630,false,true,316,image-keyboard-response,20
true,3,1,2,1,true,z,false,true,0.0-2.0-0.8-0.80-3.80,1,0,1,90,false,stim,false,2,693.0,3,1,1,49494,WMM2,283829,false,false,319,image-keyboard-response,21
true,3,1,2,1,true,z,false,true,0.0-2.0-0.9-0.81-3.81,1,0,1,90,false,stim,false,2,625.0,3,1,1,49494,WMM2,285961,false,false,322,image-keyboard-response,22
true,3,0,2,0,true,q,false,true,0.0-2.0-0.9-0.82-3.82,1,0,1,81,false,stim,false,0,977.0,3,1,0,49494,WMM2,288445,false,false,325,image-keyboard-response,23
true,3,1,2,1,true,z,false,true,0.0-2.0-0.9-0.83-3.83,1,0,1,90,false,stim,false,1,1041.0,3,0,2,49494,WMM2,290992,false,false,328,image-keyboard-response,24
true,3,1,2,1,true,z,false,true,0.0-2.0-0.9-0.84-3.84,1,0,1,90,false,stim,false,2,1033.0,3,1,1,49494,WMM2,293532,false,false,331,image-keyboard-response,25
true,3,0,2,0,true,q,false,true,0.0-2.0-0.9-0.85-3.85,1,0,1,81,false,stim,false,0,2311.0,3,1,0,49494,WMM2,297348,false,false,334,image-keyboard-response,26
true,3,1,2,1,true,z,false,false,0.0-2.0-0.9-0.86-3.86,1,0,1,90,false,stim,false,2,1475.0000000000582,3,1,1,49494,WMM2,300339,false,true,337,image-keyboard-response,27
true,3,0,2,0,true,q,false,true,0.0-2.0-0.9-0.87-3.87,1,0,1,81,false,stim,false,0,812.0,3,1,0,49494,WMM2,302658,false,false,340,image-keyboard-response,28
true,3,1,2,1,true,z,false,true,0.0-2.0-0.9-0.88-3.88,1,0,1,90,false,stim,false,1,1152.0,3,0,2,49494,WMM2,305318,false,false,343,image-keyboard-response,29
true,3,1,2,1,true,z,false,true,0.0-2.0-0.9-0.89-3.89,1,0,1,90,false,stim,false,1,922.0,3,0,2,49494,WMM2,307747,false,false,346,image-keyboard-response,30
true,4,1,3,0,false,q,false,false,0.0-2.0-0.10-0.90-3.90,1,1,0,90,true,stim,true,1,968.0,3,0,2,49494,WMM2,310222,false,false,349,image-keyboard-response,1
true,4,0,3,0,true,q,false,false,0.0-2.0-0.10-0.91-3.91,1,1,0,81,false,stim,false,0,1109.0,3,1,0,49494,WMM2,312838,false,true,352,image-keyboard-response,2
true,4,1,3,1,true,z,false,true,0.0-2.0-0.10-0.92-3.92,1,1,0,90,false,stim,false,1,1261.0,3,1,1,49494,WMM2,315606,false,false,355,image-keyboard-response,3
true,4,1,3,1,true,z,false,true,0.0-2.0-0.10-0.93-3.93,1,1,0,90,false,stim,false,1,690.0,3,1,1,49494,WMM2,317802,false,false,358,image-keyboard-response,4
true,4,0,3,0,true,q,false,true,0.0-2.0-0.10-0.94-3.94,1,1,0,81,false,stim,false,0,1686.0,3,1,0,49494,WMM2,320995,false,false,361,image-keyboard-response,5
true,4,1,3,1,true,z,false,true,0.0-2.0-0.10-0.95-3.95,1,1,0,90,false,stim,false,1,1284.0000000000582,3,1,1,49494,WMM2,323786,false,false,364,image-keyboard-response,6
true,4,1,3,0,false,q,false,true,0.0-2.0-0.10-0.96-3.96,1,1,0,90,false,stim,true,1,2325.0,3,0,2,49494,WMM2,327620,false,true,367,image-keyboard-response,7
true,4,1,3,0,false,q,false,false,0.0-2.0-0.10-0.97-3.97,1,1,0,90,false,stim,true,1,680.0,3,0,2,49494,WMM2,329807,false,false,370,image-keyboard-response,8
true,4,0,3,0,true,q,false,true,0.0-2.0-0.10-0.98-3.98,1,1,0,81,false,stim,false,0,1584.0,3,1,0,49494,WMM2,332898,false,false,373,image-keyboard-response,9
true,4,0,3,0,true,q,false,true,0.0-2.0-0.11-0.99-3.99,1,1,0,81,false,stim,false,0,863.0,3,1,0,49494,WMM2,335268,false,false,376,image-keyboard-response,10
true,4,0,3,0,true,q,false,true,0.0-2.0-0.11-0.100-3.100,1,1,0,81,false,stim,false,0,1214.9999999999418,3,1,0,49494,WMM2,337989,false,false,379,image-keyboard-response,11
true,4,1,3,1,true,z,false,true,0.0-2.0-0.11-0.101-3.101,1,1,0,90,false,stim,false,1,1476.0,3,1,1,49494,WMM2,340972,false,false,382,image-keyboard-response,12
true,4,1,3,1,true,z,false,true,0.0-2.0-0.11-0.102-3.102,1,1,0,90,false,stim,false,1,929.0,3,1,1,49494,WMM2,343408,false,false,385,image-keyboard-response,13
true,4,0,3,0,true,q,false,true,0.0-2.0-0.11-0.103-3.103,1,1,0,81,false,stim,false,0,2069.000000000058,3,1,0,49494,WMM2,346983,false,false,388,image-keyboard-response,14
true,4,1,3,0,false,q,false,false,0.0-2.0-0.11-0.104-3.104,1,1,0,90,false,stim,true,1,1374.0000000000582,3,0,2,49494,WMM2,349863,false,false,391,image-keyboard-response,15
true,4,2,3,0,false,q,true,false,0.0-2.0-0.11-0.105-3.105,1,1,0,68,false,stim,false,1,1259.0,3,0,2,49494,WMM2,352628,false,false,394,image-keyboard-response,16
true,4,0,3,0,true,q,false,false,0.0-2.0-0.11-0.106-3.106,1,1,0,81,false,stim,false,1,801.0000000000582,3,0,2,49494,WMM2,354935,false,true,397,image-keyboard-response,17
true,4,1,3,1,true,z,false,true,0.0-2.0-0.11-0.107-3.107,1,1,0,90,false,stim,false,1,933.0,3,1,1,49494,WMM2,357374,false,false,400,image-keyboard-response,18
true,4,1,3,1,true,z,false,false,0.0-2.0-0.12-0.108-3.108,1,1,0,90,false,stim,false,1,728.0,3,1,1,49494,WMM2,359612,false,true,403,image-keyboard-response,19
true,4,0,3,0,true,q,false,true,0.0-2.0-0.12-0.109-3.109,1,1,0,81,false,stim,false,0,797.0,3,1,0,49494,WMM2,361916,false,false,406,image-keyboard-response,20
true,4,1,3,1,true,z,false,true,0.0-2.0-0.12-0.110-3.110,1,1,0,90,false,stim,false,1,1011.0000000000582,3,1,1,49494,WMM2,364435,false,false,409,image-keyboard-response,21
true,4,0,3,0,true,q,false,true,0.0-2.0-0.12-0.111-3.111,1,1,0,81,false,stim,false,0,711.0,3,1,0,49494,WMM2,366654,false,false,412,image-keyboard-response,22
true,4,1,3,1,true,z,false,true,0.0-2.0-0.12-0.112-3.112,1,1,0,90,false,stim,false,1,931.9999999999418,3,1,1,49494,WMM2,369093,false,false,415,image-keyboard-response,23
true,4,1,3,0,false,q,false,false,0.0-2.0-0.12-0.113-3.113,1,1,0,90,false,stim,true,1,1266.0,3,0,2,49494,WMM2,371866,false,false,418,image-keyboard-response,24
true,4,1,3,0,false,q,false,false,0.0-2.0-0.12-0.114-3.114,1,1,0,90,false,stim,true,1,962.0,3,0,2,49494,WMM2,374336,false,false,421,image-keyboard-response,25
true,4,0,3,0,true,q,false,true,0.0-2.0-0.12-0.115-3.115,1,1,0,81,false,stim,false,0,914.0,3,1,0,49494,WMM2,376758,false,false,424,image-keyboard-response,26
true,4,1,3,0,false,q,false,false,0.0-2.0-0.12-0.116-3.116,1,1,0,90,false,stim,true,1,1280.0,3,0,2,49494,WMM2,379545,false,false,427,image-keyboard-response,27
true,4,1,3,0,false,q,false,false,0.0-2.0-0.13-0.117-3.117,1,1,0,90,false,stim,true,1,1216.0,3,0,2,49494,WMM2,382270,false,false,430,image-keyboard-response,28
true,4,1,3,1,true,z,false,true,0.0-2.0-0.13-0.118-3.118,1,1,0,90,false,stim,false,1,1638.0,3,1,1,49494,WMM2,385415,false,false,433,image-keyboard-response,29
true,4,0,3,0,true,q,false,true,0.0-2.0-0.13-0.119-3.119,1,1,0,81,false,stim,false,0,2377.000000000058,3,1,0,49494,WMM2,389310,false,false,436,image-keyboard-response,30
true,4,1,3,0,false,q,false,false,0.0-2.0-0.13-0.120-3.120,1,1,0,90,false,stim,true,1,1056.0,3,0,2,49494,WMM2,391873,false,false,439,image-keyboard-response,31
true,4,0,3,0,true,q,false,false,0.0-2.0-0.13-0.121-3.121,1,1,0,81,false,stim,false,0,864.0,3,1,0,49494,WMM2,394244,false,true,442,image-keyboard-response,32
true,4,1,3,1,true,z,false,true,0.0-2.0-0.13-0.122-3.122,1,1,0,90,false,stim,false,1,1004.0,3,1,1,49494,WMM2,396756,false,false,445,image-keyboard-response,33
true,4,1,3,0,false,q,false,false,0.0-2.0-0.13-0.123-3.123,1,1,0,90,false,stim,true,1,2203.999999999942,3,0,2,49494,WMM2,400466,false,false,448,image-keyboard-response,34
true,4,1,3,1,true,z,false,true,0.0-2.0-0.13-0.124-3.124,1,1,0,90,false,stim,false,1,1082.0,3,1,1,49494,WMM2,403055,false,false,451,image-keyboard-response,35
true,4,0,3,0,true,q,false,true,0.0-2.0-0.13-0.125-3.125,1,1,0,81,false,stim,false,0,1242.0,3,1,0,49494,WMM2,405805,false,false,454,image-keyboard-response,36
true,4,1,3,0,false,q,false,false,0.0-2.0-0.14-0.126-3.126,1,1,0,90,false,stim,true,1,1375.0,3,0,2,49494,WMM2,408688,false,false,457,image-keyboard-response,37
true,4,1,3,1,true,z,false,true,0.0-2.0-0.14-0.127-3.127,1,1,0,90,false,stim,false,1,2434.0,3,1,1,49494,WMM2,412629,false,false,460,image-keyboard-response,38
false,4,-1,3,0,false,q,true,false,0.0-2.0-0.14-0.128-3.128,1,1,0,,false,stim,false,1,,3,0,2,49494,WMM2,417137,false,false,463,image-keyboard-response,39
true,4,0,3,0,true,q,false,true,0.0-2.0-0.14-0.129-3.129,1,1,0,81,false,stim,false,0,832.9999999999418,3,1,0,49494,WMM2,419477,false,false,466,image-keyboard-response,40
true,4,0,3,0,true,q,false,true,0.0-2.0-0.14-0.130-3.130,1,1,0,81,false,stim,false,0,798.0,3,1,0,49494,WMM2,421782,false,false,469,image-keyboard-response,41
true,4,1,3,1,true,z,false,true,0.0-2.0-0.14-0.131-3.131,1,1,0,90,false,stim,false,1,1126.0,3,1,1,49494,WMM2,424416,false,false,472,image-keyboard-response,42
true,4,1,3,0,false,q,false,false,0.0-2.0-0.14-0.132-3.132,1,1,0,90,false,stim,true,1,944.0,3,0,2,49494,WMM2,426868,false,false,475,image-keyboard-response,43
true,4,1,3,1,true,z,false,false,0.0-2.0-0.14-0.133-3.133,1,1,0,90,false,stim,false,1,795.0,3,1,1,49494,WMM2,429171,false,true,478,image-keyboard-response,44
true,4,0,3,0,true,q,false,true,0.0-2.0-0.14-0.134-3.134,1,1,0,81,false,stim,false,0,671.0,3,1,0,49494,WMM2,431349,false,false,481,image-keyboard-response,45
true,4,0,3,0,true,q,false,true,0.0-2.0-0.15-0.135-3.135,1,1,0,81,false,stim,false,1,750.0,3,0,2,49494,WMM2,433607,false,false,484,image-keyboard-response,46
true,4,1,3,1,true,z,false,true,0.0-2.0-0.15-0.136-3.136,1,1,0,90,false,stim,false,1,1160.0000000000582,3,1,1,49494,WMM2,436274,false,false,487,image-keyboard-response,47
true,4,0,3,0,true,q,false,true,0.0-2.0-0.15-0.137-3.137,1,1,0,81,false,stim,false,0,714.0,3,1,0,49494,WMM2,438496,false,false,490,image-keyboard-response,48
true,4,1,3,1,true,z,false,true,0.0-2.0-0.15-0.138-3.138,1,1,0,90,false,stim,false,1,1137.0,3,1,1,49494,WMM2,441140,false,false,493,image-keyboard-response,49
true,4,0,3,0,true,q,false,true,0.0-2.0-0.15-0.139-3.139,1,1,0,81,false,stim,false,0,817.0000000000582,3,1,0,49494,WMM2,443464,false,false,496,image-keyboard-response,50
true,4,0,3,0,true,q,false,true,0.0-2.0-0.15-0.140-3.140,1,1,0,81,false,stim,false,1,1409.9999999999418,3,1,2,49494,WMM2,446381,false,false,499,image-keyboard-response,51
true,4,0,3,0,true,q,false,true,0.0-2.0-0.15-0.141-3.141,1,1,0,81,false,stim,false,0,788.0,3,0,0,49494,WMM2,448681,false,false,502,image-keyboard-response,52
true,4,1,3,1,true,z,false,true,0.0-2.0-0.15-0.142-3.142,1,1,0,90,false,stim,false,1,897.0,3,1,1,49494,WMM2,451085,false,false,505,image-keyboard-response,53
true,4,0,3,0,true,q,false,true,0.0-2.0-0.15-0.143-3.143,1,1,0,81,false,stim,false,1,837.0,3,1,2,49494,WMM2,453429,false,false,508,image-keyboard-response,54
true,4,0,3,0,true,q,false,true,0.0-2.0-0.16-0.144-3.144,1,1,0,81,false,stim,false,1,620.0,3,1,2,49494,WMM2,455556,false,false,511,image-keyboard-response,55
true,4,0,3,0,true,q,false,true,0.0-2.0-0.16-0.145-3.145,1,1,0,81,false,stim,false,0,937.0000000000582,3,0,0,49494,WMM2,458000,false,false,514,image-keyboard-response,56
true,4,1,3,1,true,z,false,true,0.0-2.0-0.16-0.146-3.146,1,1,0,90,false,stim,false,1,1053.0,3,1,1,49494,WMM2,460559,false,false,517,image-keyboard-response,57
true,4,0,3,0,true,q,false,true,0.0-2.0-0.16-0.147-3.147,1,1,0,81,false,stim,false,0,1349.0,3,0,0,49494,WMM2,463415,false,false,520,image-keyboard-response,58
true,4,0,3,0,true,q,false,true,0.0-2.0-0.16-0.148-3.148,1,1,0,81,false,stim,false,1,1676.0,3,1,2,49494,WMM2,466598,false,false,523,image-keyboard-response,59
true,4,0,3,0,true,q,false,true,0.0-2.0-0.16-0.149-3.149,1,1,0,81,false,stim,false,0,2760.0,3,0,0,49494,WMM2,470866,false,false,526,image-keyboard-response,60
true,5,0,2,1,false,z,true,false,0.0-2.0-0.16-0.150-3.150,0,1,1,81,true,stim,false,1,1687.0000000000582,3,1,1,49494,WMM2,474060,false,false,529,image-keyboard-response,1
true,5,0,2,0,true,q,false,true,0.0-2.0-0.16-0.151-3.151,0,1,1,81,false,stim,false,0,722.0,3,1,2,49494,WMM2,476289,false,false,532,image-keyboard-response,2
true,5,1,2,1,true,z,false,true,0.0-2.0-0.16-0.152-3.152,0,1,1,90,false,stim,false,1,561.0,3,1,1,49494,WMM2,478357,false,false,535,image-keyboard-response,3
true,5,1,2,1,true,z,false,true,0.0-2.0-0.17-0.153-3.153,0,1,1,90,false,stim,false,1,578.0,3,1,1,49494,WMM2,480442,false,false,538,image-keyboard-response,4
true,5,0,2,2,false,d,false,false,0.0-2.0-0.17-0.154-3.154,0,1,1,81,false,stim,true,0,1599.0000000000582,3,0,0,49494,WMM2,483548,false,false,541,image-keyboard-response,5
true,5,1,2,1,true,z,false,true,0.0-2.0-0.17-0.155-3.155,0,1,1,90,false,stim,false,1,1367.0,3,1,1,49494,WMM2,486422,false,false,544,image-keyboard-response,6
true,5,0,2,0,true,q,false,true,0.0-2.0-0.17-0.156-3.156,0,1,1,81,false,stim,false,0,1785.0000000000582,3,1,2,49494,WMM2,489714,false,false,547,image-keyboard-response,7
true,5,0,2,2,false,d,false,false,0.0-2.0-0.17-0.157-3.157,0,1,1,81,false,stim,true,0,1137.9999999999418,3,0,0,49494,WMM2,492359,false,false,550,image-keyboard-response,8
true,5,0,2,0,true,q,false,true,0.0-2.0-0.17-0.158-3.158,0,1,1,81,false,stim,false,0,1173.0,3,1,2,49494,WMM2,495039,false,false,553,image-keyboard-response,9
true,5,0,2,2,false,d,false,false,0.0-2.0-0.17-0.159-3.159,0,1,1,81,false,stim,true,0,1813.0,3,0,0,49494,WMM2,498359,false,false,556,image-keyboard-response,10
true,5,0,2,0,true,q,false,true,0.0-2.0-0.17-0.160-3.160,0,1,1,81,false,stim,false,0,1246.0,3,1,2,49494,WMM2,501112,false,false,559,image-keyboard-response,11
true,5,1,2,1,true,z,false,true,0.0-2.0-0.17-0.161-3.161,0,1,1,90,false,stim,false,1,676.0,3,1,1,49494,WMM2,503295,false,false,562,image-keyboard-response,12
true,5,1,2,1,true,z,false,true,0.0-2.0-0.18-0.162-3.162,0,1,1,90,false,stim,false,1,641.0,3,1,1,49494,WMM2,505444,false,false,565,image-keyboard-response,13
true,5,0,2,2,false,d,false,false,0.0-2.0-0.18-0.163-3.163,0,1,1,81,false,stim,true,0,1020.0,3,0,0,49494,WMM2,507970,false,false,568,image-keyboard-response,14
true,5,0,2,0,true,q,false,true,0.0-2.0-0.18-0.164-3.164,0,1,1,81,false,stim,false,0,1752.9999999998836,3,1,2,49494,WMM2,511231,false,false,571,image-keyboard-response,15
true,5,0,2,0,true,q,false,false,0.0-2.0-0.18-0.165-3.165,0,1,1,81,false,stim,false,0,825.9999999998836,3,1,2,49494,WMM2,513563,false,true,574,image-keyboard-response,16
true,5,1,2,1,true,z,false,true,0.0-2.0-0.18-0.166-3.166,0,1,1,90,false,stim,false,1,886.0,3,1,1,49494,WMM2,515956,false,false,577,image-keyboard-response,17
true,5,0,2,2,false,d,false,false,0.0-2.0-0.18-0.167-3.167,0,1,1,81,false,stim,true,0,976.0,3,0,0,49494,WMM2,518439,false,false,580,image-keyboard-response,18
true,5,1,2,1,true,z,false,true,0.0-2.0-0.18-0.168-3.168,0,1,1,90,false,stim,false,1,1246.9999999999418,3,1,1,49494,WMM2,521193,false,false,583,image-keyboard-response,19
true,5,2,2,2,true,d,false,true,0.0-2.0-0.18-0.169-3.169,0,1,1,68,false,stim,false,0,664.0,3,0,0,49494,WMM2,523365,false,false,586,image-keyboard-response,20
true,5,0,2,0,true,q,false,true,0.0-2.0-0.18-0.170-3.170,0,1,1,81,false,stim,false,0,1095.0,3,1,2,49494,WMM2,525967,false,false,589,image-keyboard-response,21
true,5,0,2,0,true,q,false,true,0.0-2.0-0.19-0.171-3.171,0,1,1,81,false,stim,false,0,618.0,3,1,2,49494,WMM2,528093,false,false,592,image-keyboard-response,22
true,5,0,2,0,true,q,false,true,0.0-2.0-0.19-0.172-3.172,0,1,1,81,false,stim,false,0,652.0,3,1,2,49494,WMM2,530253,false,false,595,image-keyboard-response,23
true,5,0,2,0,true,q,false,true,0.0-2.0-0.19-0.173-3.173,0,1,1,81,false,stim,false,0,845.0,3,1,2,49494,WMM2,532605,false,false,598,image-keyboard-response,24
true,5,1,2,1,true,z,false,true,0.0-2.0-0.19-0.174-3.174,0,1,1,90,false,stim,false,1,1183.0,3,1,1,49494,WMM2,535300,false,false,601,image-keyboard-response,25
true,5,1,2,1,true,z,false,true,0.0-2.0-0.19-0.175-3.175,0,1,1,90,false,stim,false,1,778.0,3,1,1,49494,WMM2,537586,false,false,604,image-keyboard-response,26
true,5,2,2,2,true,d,false,false,0.0-2.0-0.19-0.176-3.176,0,1,1,68,false,stim,false,0,1747.0,3,0,0,49494,WMM2,540840,false,true,607,image-keyboard-response,27
true,5,1,2,1,true,z,false,true,0.0-2.0-0.19-0.177-3.177,0,1,1,90,false,stim,false,1,1047.0,3,1,1,49494,WMM2,543395,false,false,610,image-keyboard-response,28
true,5,2,2,2,true,d,false,true,0.0-2.0-0.19-0.178-3.178,0,1,1,68,false,stim,false,0,1047.0,3,0,0,49494,WMM2,545949,false,false,613,image-keyboard-response,29
true,5,2,2,2,true,d,false,true,0.0-2.0-0.19-0.179-3.179,0,1,1,68,false,stim,false,0,765.0000000001164,3,0,0,49494,WMM2,548222,false,false,616,image-keyboard-response,30
true,5,2,2,2,true,d,false,true,0.0-2.0-0.20-0.180-3.180,0,1,1,68,false,stim,false,0,678.0,3,0,0,49494,WMM2,550408,false,false,619,image-keyboard-response,31
true,5,1,2,1,true,z,false,true,0.0-2.0-0.20-0.181-3.181,0,1,1,90,false,stim,false,1,1292.0,3,1,1,49494,WMM2,553208,false,false,622,image-keyboard-response,32
true,5,0,2,0,true,q,false,false,0.0-2.0-0.20-0.182-3.182,0,1,1,81,false,stim,false,0,818.0,3,0,2,49494,WMM2,555533,false,true,625,image-keyboard-response,33
true,5,1,2,1,true,z,false,true,0.0-2.0-0.20-0.183-3.183,0,1,1,90,false,stim,false,1,940.0,3,1,1,49494,WMM2,557980,false,false,628,image-keyboard-response,34
true,5,1,2,1,true,z,false,true,0.0-2.0-0.20-0.184-3.184,0,1,1,90,false,stim,false,1,646.0,3,1,1,49494,WMM2,560133,false,false,631,image-keyboard-response,35
true,5,0,2,0,true,q,false,true,0.0-2.0-0.20-0.185-3.185,0,1,1,81,false,stim,false,0,1356.0,3,0,2,49494,WMM2,562997,false,false,634,image-keyboard-response,36
true,5,0,2,0,true,q,false,true,0.0-2.0-0.20-0.186-3.186,0,1,1,81,false,stim,false,0,710.0,3,0,2,49494,WMM2,565214,false,false,637,image-keyboard-response,37
true,6,2,1,1,false,z,false,false,0.0-2.0-0.20-0.187-3.187,0,1,0,68,true,stim,true,2,1061.9999999998836,3,0,0,49494,WMM2,567784,false,false,640,image-keyboard-response,1
true,6,2,1,1,false,z,false,false,0.0-2.0-0.20-0.188-3.188,0,1,0,68,false,stim,true,2,698.0,3,0,0,49494,WMM2,569990,false,false,643,image-keyboard-response,2
true,6,1,1,1,true,z,false,true,0.0-2.0-0.21-0.189-3.189,0,1,0,90,false,stim,false,2,1133.0000000001164,3,0,0,49494,WMM2,572631,false,false,646,image-keyboard-response,3
true,6,1,1,1,true,z,false,true,0.0-2.0-0.21-0.190-3.190,0,1,0,90,false,stim,false,2,846.0,3,0,0,49494,WMM2,574984,false,false,649,image-keyboard-response,4
true,6,0,1,2,false,d,false,true,0.0-2.0-0.21-0.191-3.191,0,1,0,81,false,stim,true,0,1554.0,3,0,2,49494,WMM2,578044,false,true,652,image-keyboard-response,5
true,6,1,1,1,true,z,false,false,0.0-2.0-0.21-0.192-3.192,0,1,0,90,false,stim,false,2,959.0,3,0,0,49494,WMM2,580511,false,true,655,image-keyboard-response,6
true,6,1,1,1,true,z,false,true,0.0-2.0-0.21-0.193-3.193,0,1,0,90,false,stim,false,1,913.0,3,1,1,49494,WMM2,582931,false,false,658,image-keyboard-response,7
true,6,0,1,2,false,d,false,false,0.0-2.0-0.21-0.194-3.194,0,1,0,81,false,stim,true,0,1234.0,3,0,2,49494,WMM2,585671,false,false,661,image-keyboard-response,8
true,6,1,1,1,true,z,false,true,0.0-2.0-0.21-0.195-3.195,0,1,0,90,false,stim,false,1,809.0,3,1,1,49494,WMM2,587987,false,false,664,image-keyboard-response,9
true,6,0,1,2,false,d,false,false,0.0-2.0-0.21-0.196-3.196,0,1,0,81,false,stim,true,0,838.0,3,0,2,49494,WMM2,590332,false,false,667,image-keyboard-response,10
true,6,1,1,1,true,z,false,true,0.0-2.0-0.21-0.197-3.197,0,1,0,90,false,stim,false,1,808.0,3,1,1,49494,WMM2,592647,false,false,670,image-keyboard-response,11
true,6,1,1,1,true,z,false,true,0.0-2.0-0.22-0.198-3.198,0,1,0,90,false,stim,false,1,578.0000000001164,3,1,1,49494,WMM2,594732,false,false,673,image-keyboard-response,12
true,6,2,1,1,false,z,false,false,0.0-2.0-0.22-0.199-3.199,0,1,0,68,false,stim,true,2,925.0,3,0,0,49494,WMM2,597164,false,false,676,image-keyboard-response,13
true,6,1,1,1,true,z,false,true,0.0-2.0-0.22-0.200-3.200,0,1,0,90,false,stim,false,1,1099.0,3,1,1,49494,WMM2,599770,false,false,679,image-keyboard-response,14
true,6,0,1,2,false,d,false,false,0.0-2.0-0.22-0.201-3.201,0,1,0,81,false,stim,true,0,942.0,3,0,2,49494,WMM2,602219,false,false,682,image-keyboard-response,15
true,6,1,1,2,false,d,true,false,0.0-2.0-0.22-0.202-3.202,0,1,0,90,false,stim,false,0,794.0,3,0,2,49494,WMM2,604520,false,false,685,image-keyboard-response,16
true,6,1,1,1,true,z,false,false,0.0-2.0-0.22-0.203-3.203,0,1,0,90,false,stim,false,1,964.0,3,1,1,49494,WMM2,606991,false,true,688,image-keyboard-response,17
true,6,1,1,1,true,z,false,true,0.0-2.0-0.22-0.204-3.204,0,1,0,90,false,stim,false,2,1340.0,3,0,0,49494,WMM2,609838,false,false,691,image-keyboard-response,18
true,6,1,1,1,true,z,false,true,0.0-2.0-0.22-0.205-3.205,0,1,0,90,false,stim,false,2,524.0,3,0,0,49494,WMM2,611868,false,false,694,image-keyboard-response,19
true,6,2,1,2,true,d,false,true,0.0-2.0-0.22-0.206-3.206,0,1,0,68,false,stim,false,0,1194.0,3,0,2,49494,WMM2,614569,false,false,697,image-keyboard-response,20
true,6,0,1,1,false,z,true,false,0.0-2.0-0.23-0.207-3.207,0,1,0,81,false,stim,false,1,1289.0,3,1,1,49494,WMM2,617366,false,false,700,image-keyboard-response,21
true,6,1,1,1,true,z,false,true,0.0-2.0-0.23-0.208-3.208,0,1,0,90,false,stim,false,1,570.0,3,1,1,49494,WMM2,619448,false,false,703,image-keyboard-response,22
true,6,1,1,1,true,z,false,true,0.0-2.0-0.23-0.209-3.209,0,1,0,90,false,stim,false,2,519.0,3,0,0,49494,WMM2,621475,false,false,706,image-keyboard-response,23
true,6,2,1,2,true,d,false,true,0.0-2.0-0.23-0.210-3.210,0,1,0,68,false,stim,false,0,825.9999999998836,3,0,2,49494,WMM2,623808,false,false,709,image-keyboard-response,24
true,6,2,1,2,true,d,false,true,0.0-2.0-0.23-0.211-3.211,0,1,0,68,false,stim,false,0,795.0,3,0,2,49494,WMM2,626111,false,false,712,image-keyboard-response,25
true,6,1,1,1,true,z,false,false,0.0-2.0-0.23-0.212-3.212,0,1,0,90,false,stim,false,1,783.0,3,1,1,49494,WMM2,628402,false,true,715,image-keyboard-response,26
true,6,1,1,1,true,z,false,true,0.0-2.0-0.23-0.213-3.213,0,1,0,90,false,stim,false,2,677.0,3,1,0,49494,WMM2,630587,false,false,718,image-keyboard-response,27
true,6,2,1,2,true,d,false,true,0.0-2.0-0.23-0.214-3.214,0,1,0,68,false,stim,false,0,773.0,3,0,2,49494,WMM2,632867,false,false,721,image-keyboard-response,28
true,6,1,1,1,true,z,false,true,0.0-2.0-0.23-0.215-3.215,0,1,0,90,false,stim,false,2,854.0,3,1,0,49494,WMM2,635228,false,false,724,image-keyboard-response,29
true,6,1,1,1,true,z,false,true,0.0-2.0-0.24-0.216-3.216,0,1,0,90,false,stim,false,2,619.0,3,1,0,49494,WMM2,637354,false,false,727,image-keyboard-response,30
true,6,1,1,1,true,z,false,true,0.0-2.0-0.24-0.217-3.217,0,1,0,90,false,stim,false,1,2193.0000000001164,3,1,1,49494,WMM2,641055,false,false,730,image-keyboard-response,31
true,6,1,1,1,true,z,false,true,0.0-2.0-0.24-0.218-3.218,0,1,0,90,false,stim,false,2,719.0000000001164,3,1,0,49494,WMM2,643280,false,false,733,image-keyboard-response,32
true,6,1,1,1,true,z,false,true,0.0-2.0-0.24-0.219-3.219,0,1,0,90,false,stim,false,1,1254.0,3,1,1,49494,WMM2,646042,false,false,736,image-keyboard-response,33
true,6,1,1,1,true,z,false,true,0.0-2.0-0.24-0.220-3.220,0,1,0,90,false,stim,false,1,811.9999999998836,3,1,1,49494,WMM2,648361,false,false,739,image-keyboard-response,34
true,6,2,1,1,false,z,false,false,0.0-2.0-0.24-0.221-3.221,0,1,0,68,false,stim,true,2,1305.0,3,1,0,49494,WMM2,651173,false,false,742,image-keyboard-response,35
true,6,1,1,2,false,d,true,false,0.0-2.0-0.24-0.222-3.222,0,1,0,90,false,stim,false,0,957.9999999998836,3,0,2,49494,WMM2,653637,false,false,745,image-keyboard-response,36
true,7,1,4,2,false,d,true,false,0.0-2.0-0.24-0.223-3.223,1,1,0,90,true,stim,false,2,2101.0,3,0,2,49494,WMM2,657245,false,false,748,image-keyboard-response,1
true,7,0,4,2,false,d,true,false,0.0-2.0-0.24-0.224-3.224,1,1,0,81,false,stim,false,2,668.0,3,0,2,49494,WMM2,659420,false,false,751,image-keyboard-response,2
true,7,2,4,1,false,z,true,true,0.0-2.0-0.25-0.225-3.225,1,1,0,68,false,stim,false,1,1450.0,3,1,0,49494,WMM2,662378,false,true,754,image-keyboard-response,3
true,7,2,4,2,true,d,false,true,0.0-2.0-0.25-0.226-3.226,1,1,0,68,false,stim,false,2,977.0,3,0,2,49494,WMM2,664861,false,false,757,image-keyboard-response,4
true,7,1,4,1,true,z,false,true,0.0-2.0-0.25-0.227-3.227,1,1,0,90,false,stim,false,1,833.0,3,1,1,49494,WMM2,667201,false,false,760,image-keyboard-response,5
true,7,1,4,1,true,z,false,false,0.0-2.0-0.25-0.228-3.228,1,1,0,90,false,stim,false,1,766.0,3,1,1,49494,WMM2,669475,false,true,763,image-keyboard-response,6
true,7,2,4,1,false,z,true,false,0.0-2.0-0.25-0.229-3.229,1,1,0,68,false,stim,false,1,1016.9999999998836,3,1,0,49494,WMM2,671999,false,false,766,image-keyboard-response,7
true,7,1,4,2,false,d,true,false,0.0-2.0-0.25-0.230-3.230,1,1,0,90,false,stim,false,2,1085.9999999998836,3,0,2,49494,WMM2,674592,false,false,769,image-keyboard-response,8
true,7,2,4,1,false,z,true,false,0.0-2.0-0.25-0.231-3.231,1,1,0,68,false,stim,false,1,1249.0,3,1,1,49494,WMM2,677348,false,false,772,image-keyboard-response,9
true,7,2,4,1,false,z,true,true,0.0-2.0-0.25-0.232-3.232,1,1,0,68,false,stim,false,1,1569.0000000001164,3,1,0,49494,WMM2,680424,false,true,775,image-keyboard-response,10
true,7,2,4,2,true,d,false,true,0.0-2.0-0.25-0.233-3.233,1,1,0,68,false,stim,false,2,653.0,3,0,2,49494,WMM2,682584,false,false,778,image-keyboard-response,11
true,7,2,4,2,true,d,false,false,0.0-2.0-0.26-0.234-3.234,1,1,0,68,false,stim,false,2,614.0,3,0,2,49494,WMM2,684706,false,true,781,image-keyboard-response,12
true,7,1,4,1,true,z,false,true,0.0-2.0-0.26-0.235-3.235,1,1,0,90,false,stim,false,1,1005.0,3,1,1,49494,WMM2,687218,false,false,784,image-keyboard-response,13
true,7,1,4,1,true,z,false,true,0.0-2.0-0.26-0.236-3.236,1,1,0,90,false,stim,false,1,531.0000000001164,3,1,1,49494,WMM2,689256,false,false,787,image-keyboard-response,14
true,7,1,4,1,true,z,false,true,0.0-2.0-0.26-0.237-3.237,1,1,0,90,false,stim,false,1,614.0000000001164,3,1,1,49494,WMM2,691376,false,false,790,image-keyboard-response,15
true,7,2,4,1,false,z,true,false,0.0-2.0-0.26-0.238-3.238,1,1,0,68,false,stim,false,1,878.0,3,1,0,49494,WMM2,693761,false,false,793,image-keyboard-response,16
true,7,2,4,2,true,d,false,true,0.0-2.0-0.26-0.239-3.239,1,1,0,68,false,stim,false,2,916.0,3,0,2,49494,WMM2,696185,false,false,796,image-keyboard-response,17
true,7,2,4,2,true,d,false,true,0.0-2.0-0.26-0.240-3.240,1,1,0,68,false,stim,false,2,609.0,3,0,2,49494,WMM2,698302,false,false,799,image-keyboard-response,18
true,7,2,4,1,false,z,true,true,0.0-2.0-0.26-0.241-3.241,1,1,0,68,false,stim,false,1,1967.0,3,1,0,49494,WMM2,701783,false,true,802,image-keyboard-response,19
true,7,2,4,1,false,z,true,false,0.0-2.0-0.26-0.242-3.242,1,1,0,68,false,stim,false,1,836.0,3,1,0,49494,WMM2,704127,false,false,805,image-keyboard-response,20
true,7,1,4,1,true,z,false,true,0.0-2.0-0.27-0.243-3.243,1,1,0,90,false,stim,false,1,1311.0,3,1,0,49494,WMM2,706947,false,false,808,image-keyboard-response,21
true,7,1,4,1,true,z,false,true,0.0-2.0-0.27-0.244-3.244,1,1,0,90,false,stim,false,1,756.0,3,1,0,49494,WMM2,709211,false,false,811,image-keyboard-response,22
true,7,1,4,1,true,z,false,true,0.0-2.0-0.27-0.245-3.245,1,1,0,90,false,stim,false,1,539.0,3,1,1,49494,WMM2,711258,false,false,814,image-keyboard-response,23
true,7,1,4,1,true,z,false,true,0.0-2.0-0.27-0.246-3.246,1,1,0,90,false,stim,false,1,716.0000000001164,3,1,0,49494,WMM2,713482,false,false,817,image-keyboard-response,24
true,7,2,4,2,true,d,false,true,0.0-2.0-0.27-0.247-3.247,1,1,0,68,false,stim,false,2,572.0,3,0,2,49494,WMM2,715563,false,false,820,image-keyboard-response,25
true,7,2,4,1,false,z,true,false,0.0-2.0-0.27-0.248-3.248,1,1,0,68,false,stim,false,1,630.0,3,1,1,49494,WMM2,717700,false,false,823,image-keyboard-response,26
true,7,2,4,2,true,d,false,true,0.0-2.0-0.27-0.249-3.249,1,1,0,68,false,stim,false,2,680.0,3,0,2,49494,WMM2,719887,false,false,826,image-keyboard-response,27
true,7,2,4,2,true,d,false,true,0.0-2.0-0.27-0.250-3.250,1,1,0,68,false,stim,false,2,675.9999999998836,3,0,2,49494,WMM2,722071,false,false,829,image-keyboard-response,28
true,7,1,4,1,true,z,false,true,0.0-2.0-0.27-0.251-3.251,1,1,0,90,false,stim,false,1,695.0,3,1,1,49494,WMM2,724274,false,false,832,image-keyboard-response,29
true,7,1,4,1,true,z,false,true,0.0-2.0-0.28-0.252-3.252,1,1,0,90,false,stim,false,1,554.0,3,1,1,49494,WMM2,726335,false,false,835,image-keyboard-response,30
true,7,2,4,2,true,d,false,true,0.0-2.0-0.28-0.253-3.253,1,1,0,68,false,stim,false,2,804.0,3,0,2,49494,WMM2,728646,false,false,838,image-keyboard-response,31
true,7,1,4,1,true,z,false,true,0.0-2.0-0.28-0.254-3.254,1,1,0,90,false,stim,false,1,680.0,3,1,1,49494,WMM2,730833,false,false,841,image-keyboard-response,32
true,7,1,4,1,true,z,false,false,0.0-2.0-0.28-0.255-3.255,1,1,0,90,false,stim,false,1,564.0,3,1,1,49494,WMM2,732904,false,true,844,image-keyboard-response,33
true,7,2,4,1,false,z,true,false,0.0-2.0-0.28-0.256-3.256,1,1,0,68,false,stim,false,1,1212.0,3,0,0,49494,WMM2,735624,false,false,847,image-keyboard-response,34
true,8,2,1,1,false,z,false,false,0.0-2.0-0.28-0.257-3.257,0,1,0,68,true,stim,true,2,900.9999999998836,3,0,2,49494,WMM2,738032,false,false,850,image-keyboard-response,1
true,8,1,1,1,true,z,false,true,0.0-2.0-0.28-0.258-3.258,0,1,0,90,false,stim,false,2,827.0,3,0,2,49494,WMM2,740367,false,false,853,image-keyboard-response,2
true,8,1,1,2,false,d,false,false,0.0-2.0-0.28-0.259-3.259,0,1,0,90,false,stim,true,1,709.0,3,0,0,49494,WMM2,742583,false,false,856,image-keyboard-response,3
true,8,0,1,2,false,d,true,false,0.0-2.0-0.28-0.260-3.260,0,1,0,81,false,stim,false,1,767.0000000001164,3,0,0,49494,WMM2,744857,false,false,859,image-keyboard-response,4
true,8,1,1,1,true,z,false,true,0.0-2.0-0.29-0.261-3.261,0,1,0,90,false,stim,false,2,961.0,3,0,2,49494,WMM2,749524,false,false,862,image-keyboard-response,5
true,8,1,1,2,false,d,false,false,0.0-2.0-0.29-0.262-3.262,0,1,0,90,false,stim,true,1,1012.0000000001164,3,0,0,49494,WMM2,752044,false,false,865,image-keyboard-response,6
true,8,1,1,1,true,z,false,true,0.0-2.0-0.29-0.263-3.263,0,1,0,90,false,stim,false,1,1330.0,3,1,1,49494,WMM2,754883,false,false,868,image-keyboard-response,7
true,8,1,1,1,true,z,false,true,0.0-2.0-0.29-0.264-3.264,0,1,0,90,false,stim,false,1,1017.0,3,1,1,49494,WMM2,757408,false,false,871,image-keyboard-response,8
true,8,2,1,2,true,d,false,true,0.0-2.0-0.29-0.265-3.265,0,1,0,68,false,stim,false,1,1093.0,3,0,0,49494,WMM2,760009,false,false,874,image-keyboard-response,9
true,8,1,1,1,true,z,false,true,0.0-2.0-0.29-0.266-3.266,0,1,0,90,false,stim,false,2,996.0,3,0,2,49494,WMM2,762514,false,false,877,image-keyboard-response,10
true,8,2,1,2,true,d,false,true,0.0-2.0-0.29-0.267-3.267,0,1,0,68,false,stim,false,1,748.0000000001164,3,0,0,49494,WMM2,764770,false,false,880,image-keyboard-response,11
true,8,1,1,1,true,z,false,false,0.0-2.0-0.29-0.268-3.268,0,1,0,90,false,stim,false,1,920.0,3,1,1,49494,WMM2,767197,false,true,883,image-keyboard-response,12
true,8,1,1,1,true,z,false,false,0.0-2.0-0.29-0.269-3.269,0,1,0,90,false,stim,false,2,893.0,3,0,2,49494,WMM2,769598,false,true,886,image-keyboard-response,13
true,8,1,1,1,true,z,false,true,0.0-2.0-0.30-0.270-3.270,0,1,0,90,false,stim,false,1,782.0,3,1,1,49494,WMM2,771887,false,false,889,image-keyboard-response,14
true,8,1,1,1,true,z,false,true,0.0-2.0-0.30-0.271-3.271,0,1,0,90,false,stim,false,2,625.0,3,0,2,49494,WMM2,774020,false,false,892,image-keyboard-response,15
true,8,1,1,1,true,z,false,true,0.0-2.0-0.30-0.272-3.272,0,1,0,90,false,stim,false,2,655.0,3,0,2,49494,WMM2,776182,false,false,895,image-keyboard-response,16
true,8,2,1,2,true,d,false,true,0.0-2.0-0.30-0.273-3.273,0,1,0,68,false,stim,false,1,814.9999999998836,3,0,0,49494,WMM2,778513,false,false,898,image-keyboard-response,17
true,8,1,1,1,true,z,false,true,0.0-2.0-0.30-0.274-3.274,0,1,0,90,false,stim,false,1,891.9999999998836,3,1,1,49494,WMM2,780922,false,false,901,image-keyboard-response,18
true,8,2,1,2,true,d,false,true,0.0-2.0-0.30-0.275-3.275,0,1,0,68,false,stim,false,1,1058.0,3,0,0,49494,WMM2,783488,false,false,904,image-keyboard-response,19
true,8,2,1,2,true,d,false,false,0.0-2.0-0.30-0.276-3.276,0,1,0,68,false,stim,false,1,822.9999999998836,3,0,0,49494,WMM2,785819,false,true,907,image-keyboard-response,20
true,8,1,1,1,true,z,false,true,0.0-2.0-0.30-0.277-3.277,0,1,0,90,false,stim,false,2,923.0,3,1,2,49494,WMM2,788251,false,false,910,image-keyboard-response,21
true,8,1,1,1,true,z,false,false,0.0-2.0-0.30-0.278-3.278,0,1,0,90,false,stim,false,1,867.0,3,1,1,49494,WMM2,790625,false,true,913,image-keyboard-response,22
true,8,2,1,2,true,d,false,true,0.0-2.0-0.31-0.279-3.279,0,1,0,68,false,stim,false,1,879.0,3,0,0,49494,WMM2,793012,false,false,916,image-keyboard-response,23
true,8,0,1,1,false,z,true,false,0.0-2.0-0.31-0.280-3.280,0,1,0,81,false,stim,false,1,755.9999999998836,3,1,1,49494,WMM2,795276,false,false,919,image-keyboard-response,24
true,8,1,1,1,true,z,false,true,0.0-2.0-0.31-0.281-3.281,0,1,0,90,false,stim,false,2,697.0,3,1,2,49494,WMM2,797480,false,false,922,image-keyboard-response,25
true,8,1,1,1,true,z,false,true,0.0-2.0-0.31-0.282-3.282,0,1,0,90,false,stim,false,2,1536.0,3,1,2,49494,WMM2,800523,false,false,925,image-keyboard-response,26
true,8,2,1,1,false,z,true,false,0.0-2.0-0.31-0.283-3.283,0,1,0,68,false,stim,false,1,1019.9999999998836,3,1,1,49494,WMM2,803050,false,false,928,image-keyboard-response,27
true,8,1,1,1,true,z,false,true,0.0-2.0-0.31-0.284-3.284,0,1,0,90,false,stim,false,2,935.0,3,1,2,49494,WMM2,805492,false,false,931,image-keyboard-response,28
true,8,1,1,1,true,z,false,false,0.0-2.0-0.31-0.285-3.285,0,1,0,90,false,stim,false,1,929.0,3,1,1,49494,WMM2,807927,false,true,934,image-keyboard-response,29
true,8,2,1,2,true,d,false,true,0.0-2.0-0.31-0.286-3.286,0,1,0,68,false,stim,false,1,1130.0,3,0,0,49494,WMM2,810564,false,false,937,image-keyboard-response,30
true,9,2,4,2,true,d,false,true,0.0-2.0-0.31-0.287-3.287,0,1,1,68,true,stim,false,2,759.0,3,0,0,49494,WMM2,812830,false,false,940,image-keyboard-response,1
true,9,1,4,1,true,z,false,true,0.0-2.0-0.32-0.288-3.288,0,1,1,90,false,stim,false,1,845.0,3,1,2,49494,WMM2,815301,false,false,943,image-keyboard-response,2
true,9,2,4,2,true,d,false,true,0.0-2.0-0.32-0.289-3.289,0,1,1,68,false,stim,false,2,849.0,3,0,0,49494,WMM2,817659,false,false,946,image-keyboard-response,3
true,9,1,4,1,true,z,false,true,0.0-2.0-0.32-0.290-3.290,0,1,1,90,false,stim,false,1,933.0,3,1,2,49494,WMM2,820099,false,false,949,image-keyboard-response,4
true,9,0,4,1,false,z,true,false,0.0-2.0-0.32-0.291-3.291,0,1,1,81,false,stim,false,1,1181.9999999998836,3,1,1,49494,WMM2,822789,false,false,952,image-keyboard-response,5
true,9,1,4,1,true,z,false,false,0.0-2.0-0.32-0.292-3.292,0,1,1,90,false,stim,false,1,822.0,3,1,1,49494,WMM2,825119,false,true,955,image-keyboard-response,6
true,9,2,4,2,true,d,false,true,0.0-2.0-0.32-0.293-3.293,0,1,1,68,false,stim,false,2,1388.9999999998836,3,0,0,49494,WMM2,828015,false,false,958,image-keyboard-response,7
true,9,2,4,2,true,d,false,true,0.0-2.0-0.32-0.294-3.294,0,1,1,68,false,stim,false,2,699.0000000001164,3,0,0,49494,WMM2,830222,false,false,961,image-keyboard-response,8
true,9,1,4,1,true,z,false,true,0.0-2.0-0.32-0.295-3.295,0,1,1,90,false,stim,false,1,787.0,3,1,2,49494,WMM2,832517,false,false,964,image-keyboard-response,9
true,9,2,4,1,false,z,true,true,0.0-2.0-0.32-0.296-3.296,0,1,1,68,false,stim,false,1,943.9999999998836,3,1,1,49494,WMM2,834969,false,true,967,image-keyboard-response,10
true,9,1,4,1,true,z,false,true,0.0-2.0-0.33-0.297-3.297,0,1,1,90,false,stim,false,1,1085.9999999998836,3,1,2,49494,WMM2,837563,false,false,970,image-keyboard-response,11
true,9,2,4,2,true,d,false,false,0.0-2.0-0.33-0.298-3.298,0,1,1,68,false,stim,false,2,1085.0,3,0,0,49494,WMM2,840156,false,true,973,image-keyboard-response,12
true,9,1,4,1,true,z,false,true,0.0-2.0-0.33-0.299-3.299,0,1,1,90,false,stim,false,1,1381.0,3,1,1,49494,WMM2,843046,false,false,976,image-keyboard-response,13
true,9,1,4,1,true,z,false,true,0.0-2.0-0.33-0.300-3.300,0,1,1,90,false,stim,false,1,1233.0,3,1,2,49494,WMM2,845787,false,false,979,image-keyboard-response,14
true,9,1,4,1,true,z,false,true,0.0-2.0-0.33-0.301-3.301,0,1,1,90,false,stim,false,1,801.9999999998836,3,1,2,49494,WMM2,848096,false,false,982,image-keyboard-response,15
true,9,2,4,2,true,d,false,true,0.0-2.0-0.33-0.302-3.302,0,1,1,68,false,stim,false,2,1252.0,3,0,0,49494,WMM2,850856,false,false,985,image-keyboard-response,16
true,9,2,4,1,false,z,true,false,0.0-2.0-0.33-0.303-3.303,0,1,1,68,false,stim,false,1,964.0000000001164,3,1,1,49494,WMM2,853328,false,false,988,image-keyboard-response,17
true,9,1,4,1,true,z,false,true,0.0-2.0-0.33-0.304-3.304,0,1,1,90,false,stim,false,1,614.0,3,1,1,49494,WMM2,855450,false,false,991,image-keyboard-response,18
true,9,2,4,2,true,d,false,true,0.0-2.0-0.33-0.305-3.305,0,1,1,68,false,stim,false,2,1364.0,3,0,0,49494,WMM2,858321,false,false,994,image-keyboard-response,19
true,9,1,4,1,true,z,false,true,0.0-2.0-0.34-0.306-3.306,0,1,1,90,false,stim,false,1,1038.0,3,1,1,49494,WMM2,860868,false,false,997,image-keyboard-response,20
true,9,1,4,1,true,z,false,true,0.0-2.0-0.34-0.307-3.307,0,1,1,90,false,stim,false,1,533.9999999998836,3,1,1,49494,WMM2,862910,false,false,1000,image-keyboard-response,21
true,9,1,4,1,true,z,false,true,0.0-2.0-0.34-0.308-3.308,0,1,1,90,false,stim,false,1,617.0,3,1,1,49494,WMM2,865053,false,false,1003,image-keyboard-response,22
true,9,2,4,2,true,d,false,true,0.0-2.0-0.34-0.309-3.309,0,1,1,68,false,stim,false,2,979.0,3,0,0,49494,WMM2,867539,false,false,1006,image-keyboard-response,23
true,9,2,4,2,true,d,false,true,0.0-2.0-0.34-0.310-3.310,0,1,1,68,false,stim,false,2,673.0,3,0,0,49494,WMM2,869720,false,false,1009,image-keyboard-response,24
true,9,2,4,2,true,d,false,true,0.0-2.0-0.34-0.311-3.311,0,1,1,68,false,stim,false,2,599.0,3,0,0,49494,WMM2,871827,false,false,1012,image-keyboard-response,25
true,9,1,4,1,true,z,false,true,0.0-2.0-0.34-0.312-3.312,0,1,1,90,false,stim,false,1,878.0,3,0,2,49494,WMM2,874212,false,false,1015,image-keyboard-response,26
true,9,1,4,1,true,z,false,true,0.0-2.0-0.34-0.313-3.313,0,1,1,90,false,stim,false,1,611.0,3,0,2,49494,WMM2,876331,false,false,1018,image-keyboard-response,27
true,9,1,4,1,true,z,false,true,0.0-2.0-0.34-0.314-3.314,0,1,1,90,false,stim,false,1,716.0,3,0,2,49494,WMM2,878555,false,false,1021,image-keyboard-response,28
true,9,2,4,1,false,z,true,false,0.0-2.0-0.35-0.315-3.315,0,1,1,68,false,stim,false,1,1240.0,3,1,1,49494,WMM2,881303,false,false,1024,image-keyboard-response,29
true,9,2,4,2,true,d,false,true,0.0-2.0-0.35-0.316-3.316,0,1,1,68,false,stim,false,2,1391.0,3,0,0,49494,WMM2,884202,false,false,1027,image-keyboard-response,30
true,10,1,1,1,true,z,false,true,0.0-2.0-0.35-0.317-3.317,0,1,0,90,true,stim,false,1,644.0,3,1,1,49494,WMM2,886354,false,false,1030,image-keyboard-response,1
true,10,2,1,2,true,d,false,true,0.0-2.0-0.35-0.318-3.318,0,1,0,68,false,stim,false,1,1042.0,3,0,2,49494,WMM2,888903,false,false,1033,image-keyboard-response,2
true,10,1,1,0,false,q,true,false,0.0-2.0-0.35-0.319-3.319,0,1,0,90,false,stim,false,2,1257.0,3,0,0,49494,WMM2,891667,false,false,1036,image-keyboard-response,3
true,10,2,1,2,true,d,false,true,0.0-2.0-0.35-0.320-3.320,0,1,0,68,false,stim,false,1,1278.0,3,0,2,49494,WMM2,894450,false,false,1039,image-keyboard-response,4
true,10,2,1,2,true,d,false,true,0.0-2.0-0.35-0.321-3.321,0,1,0,68,false,stim,false,1,703.0,3,0,2,49494,WMM2,896660,false,false,1042,image-keyboard-response,5
true,10,1,1,1,true,z,false,true,0.0-2.0-0.35-0.322-3.322,0,1,0,90,false,stim,false,1,1064.0000000001164,3,1,1,49494,WMM2,899232,false,false,1045,image-keyboard-response,6
true,10,2,1,0,false,q,false,false,0.0-2.0-0.35-0.323-3.323,0,1,0,68,false,stim,true,2,1331.0,3,0,0,49494,WMM2,902070,false,false,1048,image-keyboard-response,7
true,10,1,1,0,false,q,true,false,0.0-2.0-0.36-0.324-3.324,0,1,0,90,false,stim,false,2,687.9999999998836,3,0,0,49494,WMM2,904266,false,false,1051,image-keyboard-response,8
true,10,1,1,2,false,d,false,false,0.0-2.0-0.36-0.325-3.325,0,1,0,90,false,stim,true,1,1846.0,3,0,2,49494,WMM2,907619,false,false,1054,image-keyboard-response,9
true,10,2,1,2,true,d,false,true,0.0-2.0-0.36-0.326-3.326,0,1,0,68,false,stim,false,1,663.9999999998836,3,0,2,49494,WMM2,909790,false,false,1057,image-keyboard-response,10
true,10,0,1,1,false,z,true,false,0.0-2.0-0.36-0.327-3.327,0,1,0,81,false,stim,false,1,1202.0,3,1,1,49494,WMM2,912500,false,false,1060,image-keyboard-response,11
true,10,1,1,1,true,z,false,true,0.0-2.0-0.36-0.328-3.328,0,1,0,90,false,stim,false,1,624.0000000001164,3,1,1,49494,WMM2,914631,false,false,1063,image-keyboard-response,12
true,10,2,1,0,false,q,false,false,0.0-2.0-0.36-0.329-3.329,0,1,0,68,false,stim,true,2,1380.0,3,0,0,49494,WMM2,917519,false,false,1066,image-keyboard-response,13
true,10,1,1,1,true,z,false,true,0.0-2.0-0.36-0.330-3.330,0,1,0,90,false,stim,false,1,1211.0,3,1,1,49494,WMM2,920239,false,false,1069,image-keyboard-response,14
true,10,1,1,0,false,q,true,false,0.0-2.0-0.36-0.331-3.331,0,1,0,90,false,stim,false,2,531.9999999998836,3,0,0,49494,WMM2,922278,false,false,1072,image-keyboard-response,15
true,10,2,1,2,true,d,false,false,0.0-2.0-0.36-0.332-3.332,0,1,0,68,false,stim,false,1,1074.0,3,0,2,49494,WMM2,924858,false,true,1075,image-keyboard-response,16
true,10,1,1,1,true,z,false,true,0.0-2.0-0.37-0.333-3.333,0,1,0,90,false,stim,false,1,765.0,3,1,1,49494,WMM2,927131,false,false,1078,image-keyboard-response,17
true,10,0,1,0,true,q,false,false,0.0-2.0-0.37-0.334-3.334,0,1,0,81,false,stim,false,2,1073.0,3,0,0,49494,WMM2,929712,false,true,1081,image-keyboard-response,18
true,10,1,1,2,false,d,false,false,0.0-2.0-0.37-0.335-3.335,0,1,0,90,false,stim,true,1,2229.0000000001164,3,0,2,49494,WMM2,933448,false,false,1084,image-keyboard-response,19
true,10,1,1,1,true,z,false,true,0.0-2.0-0.37-0.336-3.336,0,1,0,90,false,stim,false,1,795.0,3,1,1,49494,WMM2,935750,false,false,1087,image-keyboard-response,20
true,10,2,1,2,true,d,false,false,0.0-2.0-0.37-0.337-3.337,0,1,0,68,false,stim,false,1,595.0,3,0,2,49494,WMM2,937854,false,true,1090,image-keyboard-response,21
true,10,0,1,2,false,d,true,false,0.0-2.0-0.37-0.338-3.338,0,1,0,81,false,stim,false,1,671.0,3,0,2,49494,WMM2,940034,false,false,1093,image-keyboard-response,22
true,10,2,1,0,false,q,false,false,0.0-2.0-0.37-0.339-3.339,0,1,0,68,false,stim,true,2,1311.0,3,0,0,49494,WMM2,942853,false,false,1096,image-keyboard-response,23
true,10,1,1,0,false,q,true,false,0.0-2.0-0.37-0.340-3.340,0,1,0,90,false,stim,false,2,757.0,3,0,0,49494,WMM2,945119,false,false,1099,image-keyboard-response,24
true,10,1,1,1,true,z,false,true,0.0-2.0-0.37-0.341-3.341,0,1,0,90,false,stim,false,1,2099.0,3,1,1,49494,WMM2,948735,false,false,1102,image-keyboard-response,25
true,10,1,1,1,true,z,false,true,0.0-2.0-0.38-0.342-3.342,0,1,0,90,false,stim,false,1,773.0,3,1,1,49494,WMM2,951017,false,false,1105,image-keyboard-response,26
true,10,0,1,0,true,q,false,true,0.0-2.0-0.38-0.343-3.343,0,1,0,81,false,stim,false,2,972.0,3,0,0,49494,WMM2,953498,false,false,1108,image-keyboard-response,27
true,10,1,1,2,false,d,false,true,0.0-2.0-0.38-0.344-3.344,0,1,0,90,false,stim,true,1,961.0,3,0,2,49494,WMM2,955968,false,true,1111,image-keyboard-response,28
true,10,1,1,1,true,z,false,true,0.0-2.0-0.38-0.345-3.345,0,1,0,90,false,stim,false,1,593.9999999998836,3,1,1,49494,WMM2,958071,false,false,1114,image-keyboard-response,29
true,10,0,1,0,true,q,false,true,0.0-2.0-0.38-0.346-3.346,0,1,0,81,false,stim,false,2,740.0,3,0,0,49494,WMM2,960320,false,false,1117,image-keyboard-response,30
true,10,1,1,2,false,d,false,false,0.0-2.0-0.38-0.347-3.347,0,1,0,90,false,stim,true,1,601.0,3,0,2,49494,WMM2,962429,false,false,1120,image-keyboard-response,31
true,10,0,1,0,true,q,false,true,0.0-2.0-0.38-0.348-3.348,0,1,0,81,false,stim,false,2,881.9999999998836,3,0,0,49494,WMM2,964820,false,false,1123,image-keyboard-response,32
true,10,1,1,1,true,z,false,true,0.0-2.0-0.38-0.349-3.349,0,1,0,90,false,stim,false,1,657.0,3,1,1,49494,WMM2,966987,false,false,1126,image-keyboard-response,33
true,10,1,1,2,false,d,false,false,0.0-2.0-0.38-0.350-3.350,0,1,0,90,false,stim,true,1,850.0,3,0,2,49494,WMM2,969345,false,false,1129,image-keyboard-response,34
true,10,2,1,2,true,d,false,true,0.0-2.0-0.39-0.351-3.351,0,1,0,68,false,stim,false,1,770.0,3,0,2,49494,WMM2,971625,false,false,1132,image-keyboard-response,35
true,10,1,1,0,false,q,true,false,0.0-2.0-0.39-0.352-3.352,0,1,0,90,false,stim,false,2,880.0,3,0,0,49494,WMM2,974013,false,false,1135,image-keyboard-response,36
true,10,1,1,1,true,z,false,true,0.0-2.0-0.39-0.353-3.353,0,1,0,90,false,stim,false,1,805.0,3,1,1,49494,WMM2,976327,false,false,1138,image-keyboard-response,37
true,10,1,1,1,true,z,false,true,0.0-2.0-0.39-0.354-3.354,0,1,0,90,false,stim,false,1,659.0,3,1,1,49494,WMM2,978495,false,false,1141,image-keyboard-response,38
true,10,0,1,0,true,q,false,true,0.0-2.0-0.39-0.355-3.355,0,1,0,81,false,stim,false,2,772.0000000001164,3,0,0,49494,WMM2,980775,false,false,1144,image-keyboard-response,39
true,10,0,1,0,true,q,false,true,0.0-2.0-0.39-0.356-3.356,0,1,0,81,false,stim,false,2,900.0,3,0,0,49494,WMM2,983184,false,false,1147,image-keyboard-response,40
true,10,2,1,2,true,d,false,false,0.0-2.0-0.39-0.357-3.357,0,1,0,68,false,stim,false,1,1574.9999999998836,3,0,2,49494,WMM2,986268,false,true,1150,image-keyboard-response,41
true,10,1,1,1,true,z,false,true,0.0-2.0-0.39-0.358-3.358,0,1,0,90,false,stim,false,1,1049.0,3,0,1,49494,WMM2,988826,false,false,1153,image-keyboard-response,42
true,10,1,1,2,false,d,false,true,0.0-2.0-0.39-0.359-3.359,0,1,0,90,false,stim,true,1,2219.0,3,1,2,49494,WMM2,992553,false,true,1156,image-keyboard-response,43
true,10,1,1,1,true,z,false,true,0.0-2.0-0.40-0.360-3.360,0,1,0,90,false,stim,false,1,813.0,3,0,1,49494,WMM2,994875,false,false,1159,image-keyboard-response,44
true,10,1,1,2,false,d,false,true,0.0-2.0-0.40-0.361-3.361,0,1,0,90,false,stim,true,1,810.0,3,1,2,49494,WMM2,997192,false,true,1162,image-keyboard-response,45
true,10,1,1,2,false,d,false,true,0.0-2.0-0.40-0.362-3.362,0,1,0,90,false,stim,true,1,699.0,3,1,2,49494,WMM2,999398,false,true,1165,image-keyboard-response,46
true,10,1,1,2,false,d,false,true,0.0-2.0-0.40-0.363-3.363,0,1,0,90,false,stim,true,1,921.0,3,1,2,49494,WMM2,1001827,false,true,1168,image-keyboard-response,47
true,10,1,1,1,true,z,false,false,0.0-2.0-0.40-0.364-3.364,0,1,0,90,false,stim,false,1,793.0,3,0,1,49494,WMM2,1004127,false,true,1171,image-keyboard-response,48
true,10,0,1,0,true,q,false,true,0.0-2.0-0.40-0.365-3.365,0,1,0,81,false,stim,false,2,1003.0,3,1,0,49494,WMM2,1006637,false,false,1174,image-keyboard-response,49
true,10,0,1,0,true,q,false,false,0.0-2.0-0.40-0.366-3.366,0,1,0,81,false,stim,false,2,1371.0000000001164,3,1,0,49494,WMM2,1009515,false,true,1177,image-keyboard-response,50
true,10,1,1,1,true,z,false,true,0.0-2.0-0.40-0.367-3.367,0,1,0,90,false,stim,false,1,1329.0000000001164,3,0,1,49494,WMM2,1012352,false,false,1180,image-keyboard-response,51
true,11,0,3,0,true,q,false,true,0.0-2.0-0.40-0.368-3.368,1,0,1,81,true,stim,false,0,1179.0000000001164,3,1,0,49494,WMM2,1015039,false,false,1183,image-keyboard-response,1
true,11,0,3,0,true,q,false,true,0.0-2.0-0.41-0.369-3.369,1,0,1,81,false,stim,false,0,907.0,3,1,0,49494,WMM2,1017455,false,false,1186,image-keyboard-response,2
true,11,1,3,0,false,q,false,false,0.0-2.0-0.41-0.370-3.370,1,0,1,90,false,stim,true,1,1232.0,3,0,1,49494,WMM2,1020195,false,false,1189,image-keyboard-response,3
true,11,0,3,0,true,q,false,true,0.0-2.0-0.41-0.371-3.371,1,0,1,81,false,stim,false,0,827.0,3,1,0,49494,WMM2,1022530,false,false,1192,image-keyboard-response,4
true,11,2,3,0,false,q,true,false,0.0-2.0-0.41-0.372-3.372,1,0,1,68,false,stim,false,1,737.0000000001164,3,0,1,49494,WMM2,1024775,false,false,1195,image-keyboard-response,5
true,11,1,3,2,false,d,true,false,0.0-2.0-0.41-0.373-3.373,1,0,1,90,false,stim,false,2,969.9999999997672,3,1,2,49494,WMM2,1027253,false,false,1198,image-keyboard-response,6
true,11,2,3,2,true,d,false,true,0.0-2.0-0.41-0.374-3.374,1,0,1,68,false,stim,false,2,1784.0000000001164,3,1,2,49494,WMM2,1030553,false,false,1201,image-keyboard-response,7
true,11,2,3,2,true,d,false,true,0.0-2.0-0.41-0.375-3.375,1,0,1,68,false,stim,false,2,1079.0,3,1,2,49494,WMM2,1033140,false,false,1204,image-keyboard-response,8
true,11,1,3,0,false,q,false,false,0.0-2.0-0.41-0.376-3.376,1,0,1,90,false,stim,true,1,1417.9999999998836,3,0,1,49494,WMM2,1036066,false,false,1207,image-keyboard-response,9
true,11,0,3,0,true,q,false,true,0.0-2.0-0.41-0.377-3.377,1,0,1,81,false,stim,false,0,790.0,3,1,0,49494,WMM2,1038364,false,false,1210,image-keyboard-response,10
true,11,0,3,0,true,q,false,false,0.0-2.0-0.42-0.378-3.378,1,0,1,81,false,stim,false,0,766.0000000001164,3,1,0,49494,WMM2,1040638,false,true,1213,image-keyboard-response,11
true,11,0,3,0,true,q,false,false,0.0-2.0-0.42-0.379-3.379,1,0,1,81,false,stim,false,0,670.0000000001164,3,1,0,49494,WMM2,1042816,false,true,1216,image-keyboard-response,12
true,11,2,3,2,true,d,false,true,0.0-2.0-0.42-0.380-3.380,1,0,1,68,false,stim,false,2,954.0,3,1,2,49494,WMM2,1045279,false,false,1219,image-keyboard-response,13
true,11,2,3,2,true,d,false,true,0.0-2.0-0.42-0.381-3.381,1,0,1,68,false,stim,false,2,724.0,3,1,2,49494,WMM2,1047510,false,false,1222,image-keyboard-response,14
true,11,2,3,2,true,d,false,true,0.0-2.0-0.42-0.382-3.382,1,0,1,68,false,stim,false,2,615.0,3,1,2,49494,WMM2,1049633,false,false,1225,image-keyboard-response,15
true,11,1,3,0,false,q,false,false,0.0-2.0-0.42-0.383-3.383,1,0,1,90,false,stim,true,1,1248.0,3,0,1,49494,WMM2,1052389,false,false,1228,image-keyboard-response,16
true,11,2,3,0,false,q,true,false,0.0-2.0-0.42-0.384-3.384,1,0,1,68,false,stim,false,1,974.0,3,0,1,49494,WMM2,1054870,false,false,1231,image-keyboard-response,17
true,11,0,3,0,true,q,false,false,0.0-2.0-0.42-0.385-3.385,1,0,1,81,false,stim,false,1,617.9999999997672,3,0,1,49494,WMM2,1056996,false,true,1234,image-keyboard-response,18
true,11,0,3,0,true,q,false,true,0.0-2.0-0.42-0.386-3.386,1,0,1,81,false,stim,false,0,964.9999999997672,3,1,0,49494,WMM2,1059468,false,false,1237,image-keyboard-response,19
true,11,1,3,2,false,d,true,false,0.0-2.0-0.43-0.387-3.387,1,0,1,90,false,stim,false,2,923.0,3,1,2,49494,WMM2,1061899,false,false,1240,image-keyboard-response,20
true,11,0,3,0,true,q,false,true,0.0-2.0-0.43-0.388-3.388,1,0,1,81,false,stim,false,0,861.0,3,1,0,49494,WMM2,1064269,false,false,1243,image-keyboard-response,21
true,11,1,3,0,false,q,false,false,0.0-2.0-0.43-0.389-3.389,1,0,1,90,false,stim,true,1,1222.0,3,0,1,49494,WMM2,1067001,false,false,1246,image-keyboard-response,22
true,11,0,3,0,true,q,false,true,0.0-2.0-0.43-0.390-3.390,1,0,1,81,false,stim,false,0,770.0,3,1,0,49494,WMM2,1069280,false,false,1249,image-keyboard-response,23
true,11,2,3,2,true,d,false,true,0.0-2.0-0.43-0.391-3.391,1,0,1,68,false,stim,false,2,914.0,3,1,2,49494,WMM2,1071703,false,false,1252,image-keyboard-response,24
true,11,0,3,0,true,q,false,true,0.0-2.0-0.43-0.392-3.392,1,0,1,81,false,stim,false,0,804.0,3,1,0,49494,WMM2,1074016,false,false,1255,image-keyboard-response,25
true,11,2,3,2,true,d,false,true,0.0-2.0-0.43-0.393-3.393,1,0,1,68,false,stim,false,2,934.0,3,1,2,49494,WMM2,1076459,false,false,1258,image-keyboard-response,26
true,11,1,3,0,false,q,false,false,0.0-2.0-0.43-0.394-3.394,1,0,1,90,false,stim,true,1,1286.0,3,0,1,49494,WMM2,1079254,false,false,1261,image-keyboard-response,27
true,11,0,3,0,true,q,false,true,0.0-2.0-0.43-0.395-3.395,1,0,1,81,false,stim,false,1,744.0,3,0,1,49494,WMM2,1081506,false,false,1264,image-keyboard-response,28
true,11,2,3,2,true,d,false,true,0.0-2.0-0.44-0.396-3.396,1,0,1,68,false,stim,false,2,1249.0,3,1,2,49494,WMM2,1084264,false,false,1267,image-keyboard-response,29
true,11,0,3,0,true,q,false,true,0.0-2.0-0.44-0.397-3.397,1,0,1,81,false,stim,false,0,842.0,3,1,0,49494,WMM2,1086615,false,false,1270,image-keyboard-response,30
true,11,2,3,2,true,d,false,true,0.0-2.0-0.44-0.398-3.398,1,0,1,68,false,stim,false,2,1002.0,3,1,2,49494,WMM2,1089126,false,false,1273,image-keyboard-response,31
true,11,0,3,0,true,q,false,true,0.0-2.0-0.44-0.399-3.399,1,0,1,81,false,stim,false,0,821.0,3,1,0,49494,WMM2,1091457,false,false,1276,image-keyboard-response,32
true,11,2,3,2,true,d,false,true,0.0-2.0-0.44-0.400-3.400,1,0,1,68,false,stim,false,2,944.0,3,1,2,49494,WMM2,1093910,false,false,1279,image-keyboard-response,33
true,11,0,3,0,true,q,false,false,0.0-2.0-0.44-0.401-3.401,1,0,1,81,false,stim,false,0,1179.0,3,1,0,49494,WMM2,1096597,false,true,1282,image-keyboard-response,34
true,11,0,3,0,true,q,false,true,0.0-2.0-0.44-0.402-3.402,1,0,1,81,false,stim,false,1,1520.0,3,0,1,49494,WMM2,1099626,false,false,1285,image-keyboard-response,35
true,11,0,3,0,true,q,false,true,0.0-2.0-0.44-0.403-3.403,1,0,1,81,false,stim,false,1,755.0,3,1,1,49494,WMM2,1101890,false,false,1288,image-keyboard-response,36
true,11,0,3,0,true,q,false,true,0.0-2.0-0.44-0.404-3.404,1,0,1,81,false,stim,false,1,823.0,3,1,1,49494,WMM2,1104221,false,false,1291,image-keyboard-response,37
true,11,0,3,0,true,q,false,true,0.0-2.0-0.45-0.405-3.405,1,0,1,81,false,stim,false,1,785.0,3,1,1,49494,WMM2,1106515,false,false,1294,image-keyboard-response,38
true,11,0,3,0,true,q,false,false,0.0-2.0-0.45-0.406-3.406,1,0,1,81,false,stim,false,0,1156.9999999997672,3,1,0,49494,WMM2,1109179,false,true,1297,image-keyboard-response,39
true,11,2,3,2,true,d,false,true,0.0-2.0-0.45-0.407-3.407,1,0,1,68,false,stim,false,2,1160.0,3,0,2,49494,WMM2,1111847,false,false,1300,image-keyboard-response,40
true,11,2,3,2,true,d,false,true,0.0-2.0-0.45-0.408-3.408,1,0,1,68,false,stim,false,2,1265.0,3,0,2,49494,WMM2,1114627,false,false,1303,image-keyboard-response,41
true,11,0,3,0,true,q,false,true,0.0-2.0-0.45-0.409-3.409,1,0,1,81,false,stim,false,0,1271.0,3,1,0,49494,WMM2,1117406,false,false,1306,image-keyboard-response,42
true,11,2,3,2,true,d,false,true,0.0-2.0-0.45-0.410-3.410,1,0,1,68,false,stim,false,2,1769.0,3,0,2,49494,WMM2,1120683,false,false,1309,image-keyboard-response,43
true,11,0,3,0,true,q,false,true,0.0-2.0-0.45-0.411-3.411,1,0,1,81,false,stim,false,1,1648.0,3,1,1,49494,WMM2,1123839,false,false,1312,image-keyboard-response,44
true,11,0,3,0,true,q,false,false,0.0-2.0-0.45-0.412-3.412,1,0,1,81,false,stim,false,1,570.0,3,1,1,49494,WMM2,1125916,false,true,1315,image-keyboard-response,45
true,12,2,4,0,false,q,true,false,0.0-2.0-0.45-0.413-3.413,1,1,0,68,true,stim,false,0,1599.0,3,1,0,49494,WMM2,1129023,false,false,1318,image-keyboard-response,1
true,12,2,4,2,true,d,false,true,0.0-2.0-0.46-0.414-3.414,1,1,0,68,false,stim,false,2,1183.0,3,0,2,49494,WMM2,1131714,false,false,1321,image-keyboard-response,2
true,12,2,4,2,true,d,false,true,0.0-2.0-0.46-0.415-3.415,1,1,0,68,false,stim,false,2,659.0,3,0,2,49494,WMM2,1133881,false,false,1324,image-keyboard-response,3
true,12,0,4,0,true,q,false,false,0.0-2.0-0.46-0.416-3.416,1,1,0,81,false,stim,false,0,1005.0,3,1,0,49494,WMM2,1136394,false,true,1327,image-keyboard-response,4
true,12,0,4,0,true,q,false,false,0.0-2.0-0.46-0.417-3.417,1,1,0,81,false,stim,false,0,1454.0,3,1,1,49494,WMM2,1139356,false,true,1330,image-keyboard-response,5
true,12,0,4,0,true,q,false,true,0.0-2.0-0.46-0.418-3.418,1,1,0,81,false,stim,false,0,1659.0,3,1,0,49494,WMM2,1142523,false,false,1333,image-keyboard-response,6
true,12,0,4,0,true,q,false,true,0.0-2.0-0.46-0.419-3.419,1,1,0,81,false,stim,false,0,617.0,3,1,0,49494,WMM2,1144649,false,false,1336,image-keyboard-response,7
true,12,2,4,0,false,q,true,false,0.0-2.0-0.46-0.420-3.420,1,1,0,68,false,stim,false,0,1470.0,3,1,1,49494,WMM2,1147626,false,false,1339,image-keyboard-response,8
true,12,1,4,2,false,d,true,false,0.0-2.0-0.46-0.421-3.421,1,1,0,90,false,stim,false,2,939.0,3,0,2,49494,WMM2,1150073,false,false,1342,image-keyboard-response,9
true,12,2,4,0,false,q,true,false,0.0-2.0-0.46-0.422-3.422,1,1,0,68,false,stim,false,0,1736.0,3,1,1,49494,WMM2,1153317,false,false,1345,image-keyboard-response,10
true,12,0,4,0,true,q,false,false,0.0-2.0-0.47-0.423-3.423,1,1,0,81,false,stim,false,0,771.0,3,1,1,49494,WMM2,1155597,false,true,1348,image-keyboard-response,11
true,12,1,4,0,false,q,true,false,0.0-2.0-0.47-0.424-3.424,1,1,0,90,false,stim,false,0,869.0000000002328,3,1,1,49494,WMM2,1157974,false,false,1351,image-keyboard-response,12
true,12,0,4,0,true,q,false,false,0.0-2.0-0.47-0.425-3.425,1,1,0,81,false,stim,false,0,913.0,3,1,0,49494,WMM2,1160394,false,true,1354,image-keyboard-response,13
true,12,1,4,0,false,q,true,false,0.0-2.0-0.47-0.426-3.426,1,1,0,90,false,stim,false,0,765.0000000002328,3,1,0,49494,WMM2,1162668,false,false,1357,image-keyboard-response,14
true,12,2,4,0,false,q,true,false,0.0-2.0-0.47-0.427-3.427,1,1,0,68,false,stim,false,0,684.0000000002328,3,1,0,49494,WMM2,1164859,false,false,1360,image-keyboard-response,15
true,12,1,4,2,false,d,true,true,0.0-2.0-0.47-0.428-3.428,1,1,0,90,false,stim,false,2,1218.0,3,0,2,49494,WMM2,1167584,false,true,1363,image-keyboard-response,16
true,12,1,4,2,false,d,true,false,0.0-2.0-0.47-0.429-3.429,1,1,0,90,false,stim,false,2,600.0,3,0,2,49494,WMM2,1169692,false,false,1366,image-keyboard-response,17
true,12,1,4,2,false,d,true,false,0.0-2.0-0.47-0.430-3.430,1,1,0,90,false,stim,false,2,672.0,3,0,2,49494,WMM2,1171872,false,false,1369,image-keyboard-response,18
true,12,0,4,0,true,q,false,true,0.0-2.0-0.47-0.431-3.431,1,1,0,81,false,stim,false,0,1028.0000000002328,3,1,1,49494,WMM2,1174407,false,false,1372,image-keyboard-response,19
true,12,0,4,0,true,q,false,true,0.0-2.0-0.48-0.432-3.432,1,1,0,81,false,stim,false,0,674.0,3,1,1,49494,WMM2,1176589,false,false,1375,image-keyboard-response,20
true,12,0,4,0,true,q,false,true,0.0-2.0-0.48-0.433-3.433,1,1,0,81,false,stim,false,0,657.0,3,1,1,49494,WMM2,1178754,false,false,1378,image-keyboard-response,21
true,12,2,4,0,false,q,true,false,0.0-2.0-0.48-0.434-3.434,1,1,0,68,false,stim,false,0,1523.9999999997672,3,1,0,49494,WMM2,1181788,false,false,1381,image-keyboard-response,22
true,12,0,4,2,false,d,true,false,0.0-2.0-0.48-0.435-3.435,1,1,0,81,false,stim,false,2,1515.0,3,0,2,49494,WMM2,1184812,false,false,1384,image-keyboard-response,23
true,12,1,4,2,false,d,true,false,0.0-2.0-0.48-0.436-3.436,1,1,0,90,false,stim,false,2,700.9999999997672,3,0,2,49494,WMM2,1187021,false,false,1387,image-keyboard-response,24
true,12,0,4,0,true,q,false,true,0.0-2.0-0.48-0.437-3.437,1,1,0,81,false,stim,false,0,1336.0,3,1,0,49494,WMM2,1189867,false,false,1390,image-keyboard-response,25
true,12,0,4,0,true,q,false,false,0.0-2.0-0.48-0.438-3.438,1,1,0,81,false,stim,false,0,587.0,3,1,1,49494,WMM2,1191964,false,true,1393,image-keyboard-response,26
true,12,0,4,2,false,d,true,false,0.0-2.0-0.48-0.439-3.439,1,1,0,81,false,stim,false,2,1439.0,3,0,2,49494,WMM2,1194917,false,false,1396,image-keyboard-response,27
true,12,0,4,0,true,q,false,false,0.0-2.0-0.48-0.440-3.440,1,1,0,81,false,stim,false,0,676.0,3,1,0,49494,WMM2,1197103,false,true,1399,image-keyboard-response,28
true,12,1,4,0,false,q,true,true,0.0-2.0-0.49-0.441-3.441,1,1,0,90,false,stim,false,0,2599.0,3,1,1,49494,WMM2,1201221,false,true,1402,image-keyboard-response,29
true,12,1,4,0,false,q,true,false,0.0-2.0-0.49-0.442-3.442,1,1,0,90,false,stim,false,0,884.0,3,1,0,49494,WMM2,1203614,false,false,1405,image-keyboard-response,30
true,12,0,4,0,true,q,false,true,0.0-2.0-0.49-0.443-3.443,1,1,0,81,false,stim,false,0,638.0,3,1,0,49494,WMM2,1205761,false,false,1408,image-keyboard-response,31
true,12,0,4,0,true,q,false,true,0.0-2.0-0.49-0.444-3.444,1,1,0,81,false,stim,false,0,878.0,3,1,0,49494,WMM2,1208149,false,false,1411,image-keyboard-response,32
true,12,2,4,2,true,d,false,true,0.0-2.0-0.49-0.445-3.445,1,1,0,68,false,stim,false,2,1336.0,3,0,2,49494,WMM2,1210994,false,false,1414,image-keyboard-response,33
true,12,2,4,2,true,d,false,true,0.0-2.0-0.49-0.446-3.446,1,1,0,68,false,stim,false,2,616.9999999997672,3,0,2,49494,WMM2,1213120,false,false,1417,image-keyboard-response,34
true,12,0,4,0,true,q,false,true,0.0-2.0-0.49-0.447-3.447,1,1,0,81,false,stim,false,0,947.0,3,1,1,49494,WMM2,1215579,false,false,1420,image-keyboard-response,35
true,12,2,4,2,true,d,false,true,0.0-2.0-0.49-0.448-3.448,1,1,0,68,false,stim,false,2,907.0,3,0,2,49494,WMM2,1217996,false,false,1423,image-keyboard-response,36
true,12,0,4,0,true,q,false,true,0.0-2.0-0.49-0.449-3.449,1,1,0,81,false,stim,false,0,761.0,3,1,1,49494,WMM2,1220268,false,false,1426,image-keyboard-response,37
true,12,0,4,0,true,q,false,true,0.0-2.0-0.50-0.450-3.450,1,1,0,81,false,stim,false,0,933.0,3,1,0,49494,WMM2,1222711,false,false,1429,image-keyboard-response,38
true,12,0,4,0,true,q,false,true,0.0-2.0-0.50-0.451-3.451,1,1,0,81,false,stim,false,0,1606.0,3,0,1,49494,WMM2,1225824,false,false,1432,image-keyboard-response,39
true,12,0,4,0,true,q,false,true,0.0-2.0-0.50-0.452-3.452,1,1,0,81,false,stim,false,0,743.0,3,0,1,49494,WMM2,1228075,false,false,1435,image-keyboard-response,40
true,12,2,4,2,true,d,false,true,0.0-2.0-0.50-0.453-3.453,1,1,0,68,false,stim,false,2,877.0,3,1,2,49494,WMM2,1230462,false,false,1438,image-keyboard-response,41
true,12,2,4,2,true,d,false,true,0.0-2.0-0.50-0.454-3.454,1,1,0,68,false,stim,false,2,549.0,3,1,2,49494,WMM2,1232519,false,false,1441,image-keyboard-response,42
true,12,2,4,2,true,d,false,true,0.0-2.0-0.50-0.455-3.455,1,1,0,68,false,stim,false,2,648.0,3,1,2,49494,WMM2,1234675,false,false,1444,image-keyboard-response,43
true,12,0,4,0,true,q,false,false,0.0-2.0-0.50-0.456-3.456,1,1,0,81,false,stim,false,0,949.0,3,1,0,49494,WMM2,1237133,false,true,1447,image-keyboard-response,44
true,12,0,4,0,true,q,false,false,0.0-2.0-0.50-0.457-3.457,1,1,0,81,false,stim,false,0,1469.0,3,0,1,49494,WMM2,1240110,false,true,1450,image-keyboard-response,45
true,12,0,4,0,true,q,false,true,0.0-2.0-0.50-0.458-3.458,1,1,0,81,false,stim,false,0,1227.0,3,1,0,49494,WMM2,1242846,false,false,1453,image-keyboard-response,46
true,12,2,4,2,true,d,false,true,0.0-2.0-0.51-0.459-3.459,1,1,0,68,false,stim,false,2,1164.0,3,1,2,49494,WMM2,1245519,false,false,1456,image-keyboard-response,47
true,13,0,3,0,true,q,false,true,0.0-2.0-0.51-0.460-3.460,1,0,1,81,true,stim,false,0,728.0,3,1,0,49494,WMM2,1247756,false,false,1459,image-keyboard-response,1
true,13,2,3,2,true,d,false,false,0.0-2.0-0.51-0.461-3.461,1,0,1,68,false,stim,false,2,834.0,3,1,2,49494,WMM2,1250096,false,true,1462,image-keyboard-response,2
true,13,0,3,0,true,q,false,true,0.0-2.0-0.51-0.462-3.462,1,0,1,81,false,stim,false,0,824.0,3,1,0,49494,WMM2,1252427,false,false,1465,image-keyboard-response,3
true,13,0,3,2,false,d,false,false,0.0-2.0-0.51-0.463-3.463,1,0,1,81,false,stim,true,0,1673.0,3,0,1,49494,WMM2,1255610,false,false,1468,image-keyboard-response,4
true,13,0,3,0,true,q,false,false,0.0-2.0-0.51-0.464-3.464,1,0,1,81,false,stim,false,0,802.0,3,1,0,49494,WMM2,1257920,false,true,1471,image-keyboard-response,5
true,13,2,3,2,true,d,false,false,0.0-2.0-0.51-0.465-3.465,1,0,1,68,false,stim,false,2,973.0,3,1,2,49494,WMM2,1260402,false,true,1474,image-keyboard-response,6
true,13,1,3,2,false,d,true,false,0.0-2.0-0.51-0.466-3.466,1,0,1,90,false,stim,false,0,998.0,3,0,1,49494,WMM2,1262911,false,false,1477,image-keyboard-response,7
true,13,0,3,2,false,d,false,false,0.0-2.0-0.51-0.467-3.467,1,0,1,81,false,stim,true,0,766.0,3,0,1,49494,WMM2,1265184,false,false,1480,image-keyboard-response,8
true,13,2,3,0,false,q,true,false,0.0-2.0-0.52-0.468-3.468,1,0,1,68,false,stim,false,0,1405.9999999997672,3,1,0,49494,WMM2,1268101,false,false,1483,image-keyboard-response,9
true,13,1,3,2,false,d,true,false,0.0-2.0-0.52-0.469-3.469,1,0,1,90,false,stim,false,0,961.0,3,0,1,49494,WMM2,1270570,false,false,1486,image-keyboard-response,10
true,13,0,3,2,false,d,true,false,0.0-2.0-0.52-0.470-3.470,1,0,1,81,false,stim,false,2,1134.0,3,1,2,49494,WMM2,1273211,false,false,1489,image-keyboard-response,11
true,13,2,3,0,false,q,true,false,0.0-2.0-0.52-0.471-3.471,1,0,1,68,false,stim,false,0,1656.0,3,1,0,49494,WMM2,1276374,false,false,1492,image-keyboard-response,12
true,13,1,3,2,false,d,true,false,0.0-2.0-0.52-0.472-3.472,1,0,1,90,false,stim,false,0,982.0,3,0,1,49494,WMM2,1278865,false,false,1495,image-keyboard-response,13
true,13,0,3,2,false,d,true,false,0.0-2.0-0.52-0.473-3.473,1,0,1,81,false,stim,false,2,1277.0,3,1,2,49494,WMM2,1281650,false,false,1498,image-keyboard-response,14
true,13,1,3,2,false,d,true,false,0.0-2.0-0.52-0.474-3.474,1,0,1,90,false,stim,false,0,1487.0,3,0,1,49494,WMM2,1284655,false,false,1501,image-keyboard-response,15
true,13,2,3,2,true,d,false,false,0.0-2.0-0.52-0.475-3.475,1,0,1,68,false,stim,false,2,1256.0,3,1,2,49494,WMM2,1287421,false,true,1504,image-keyboard-response,16
true,13,1,3,0,false,q,true,false,0.0-2.0-0.52-0.476-3.476,1,0,1,90,false,stim,false,0,1676.0,3,1,0,49494,WMM2,1290605,false,false,1507,image-keyboard-response,17
true,13,0,3,0,true,q,false,false,0.0-2.0-0.53-0.477-3.477,1,0,1,81,false,stim,false,0,776.0,3,1,0,49494,WMM2,1292891,false,true,1510,image-keyboard-response,18
true,13,0,3,2,false,d,true,false,0.0-2.0-0.53-0.478-3.478,1,0,1,81,false,stim,false,2,1361.0,3,1,2,49494,WMM2,1295760,false,false,1513,image-keyboard-response,19
true,13,1,3,2,false,d,true,false,0.0-2.0-0.53-0.479-3.479,1,0,1,90,false,stim,false,2,603.0,3,1,2,49494,WMM2,1297872,false,false,1516,image-keyboard-response,20
true,13,2,3,2,true,d,false,true,0.0-2.0-0.53-0.480-3.480,1,0,1,68,false,stim,false,2,555.0,3,1,2,49494,WMM2,1299935,false,false,1519,image-keyboard-response,21
true,13,1,3,0,false,q,true,false,0.0-2.0-0.53-0.481-3.481,1,0,1,90,false,stim,false,0,1623.0,3,1,0,49494,WMM2,1303069,false,false,1522,image-keyboard-response,22
true,13,2,3,2,true,d,false,true,0.0-2.0-0.53-0.482-3.482,1,0,1,68,false,stim,false,0,1062.0,3,0,1,49494,WMM2,1305641,false,false,1525,image-keyboard-response,23
true,13,2,3,0,false,q,true,true,0.0-2.0-0.53-0.483-3.483,1,0,1,68,false,stim,false,0,828.0,3,1,0,49494,WMM2,1307980,false,true,1528,image-keyboard-response,24
true,13,2,3,2,true,d,false,true,0.0-2.0-0.53-0.484-3.484,1,0,1,68,false,stim,false,0,667.0000000002328,3,0,1,49494,WMM2,1310157,false,false,1531,image-keyboard-response,25
true,13,2,3,2,true,d,false,false,0.0-2.0-0.53-0.485-3.485,1,0,1,68,false,stim,false,0,553.0,3,0,1,49494,WMM2,1312219,false,true,1534,image-keyboard-response,26
true,13,2,3,0,false,q,true,true,0.0-2.0-0.54-0.486-3.486,1,0,1,68,false,stim,false,0,742.0,3,1,0,49494,WMM2,1314472,false,true,1537,image-keyboard-response,27
true,13,2,3,2,true,d,false,true,0.0-2.0-0.54-0.487-3.487,1,0,1,68,false,stim,false,2,608.0000000002328,3,1,2,49494,WMM2,1316590,false,false,1540,image-keyboard-response,28
true,13,2,3,0,false,q,true,false,0.0-2.0-0.54-0.488-3.488,1,0,1,68,false,stim,false,0,697.0,3,1,0,49494,WMM2,1318797,false,false,1543,image-keyboard-response,29
true,13,2,3,0,false,q,true,false,0.0-2.0-0.54-0.489-3.489,1,0,1,68,false,stim,false,0,551.0,3,1,0,49494,WMM2,1320860,false,false,1546,image-keyboard-response,30
true,13,2,3,2,true,d,false,true,0.0-2.0-0.54-0.490-3.490,1,0,1,68,false,stim,false,0,1110.0,3,0,1,49494,WMM2,1323479,false,false,1549,image-keyboard-response,31
true,13,2,3,2,true,d,false,true,0.0-2.0-0.54-0.491-3.491,1,0,1,68,false,stim,false,2,859.0,3,1,2,49494,WMM2,1325848,false,false,1552,image-keyboard-response,32
true,13,2,3,2,true,d,false,true,0.0-2.0-0.54-0.492-3.492,1,0,1,68,false,stim,false,0,634.9999999997672,3,0,1,49494,WMM2,1327994,false,false,1555,image-keyboard-response,33
true,13,2,3,2,true,d,false,true,0.0-2.0-0.54-0.493-3.493,1,0,1,68,false,stim,false,0,626.0,3,0,1,49494,WMM2,1330126,false,false,1558,image-keyboard-response,34
true,13,2,3,2,true,d,false,true,0.0-2.0-0.54-0.494-3.494,1,0,1,68,false,stim,false,2,1017.0,3,1,2,49494,WMM2,1332654,false,false,1561,image-keyboard-response,35
true,13,2,3,0,false,q,true,false,0.0-2.0-0.55-0.495-3.495,1,0,1,68,false,stim,false,0,1261.0,3,1,0,49494,WMM2,1335425,false,false,1564,image-keyboard-response,36
true,13,2,3,2,true,d,false,true,0.0-2.0-0.55-0.496-3.496,1,0,1,68,false,stim,false,2,934.9999999997672,3,1,2,49494,WMM2,1337871,false,false,1567,image-keyboard-response,37
true,13,2,3,2,true,d,false,true,0.0-2.0-0.55-0.497-3.497,1,0,1,68,false,stim,false,0,1011.0,3,0,1,49494,WMM2,1340392,false,false,1570,image-keyboard-response,38
true,13,2,3,2,true,d,false,true,0.0-2.0-0.55-0.498-3.498,1,0,1,68,false,stim,false,0,703.0,3,0,1,49494,WMM2,1342604,false,false,1573,image-keyboard-response,39
true,13,2,3,2,true,d,false,false,0.0-2.0-0.55-0.499-3.499,1,0,1,68,false,stim,false,2,978.0,3,1,2,49494,WMM2,1345094,false,true,1576,image-keyboard-response,40
true,13,1,3,0,false,q,true,false,0.0-2.0-0.55-0.500-3.500,1,0,1,90,false,stim,false,0,1543.0000000002328,3,1,0,49494,WMM2,1348147,false,false,1579,image-keyboard-response,41
true,13,0,3,0,true,q,false,true,0.0-2.0-0.55-0.501-3.501,1,0,1,81,false,stim,false,0,685.0,3,1,0,49494,WMM2,1350343,false,false,1582,image-keyboard-response,42
true,13,2,3,2,true,d,false,true,0.0-2.0-0.55-0.502-3.502,1,0,1,68,false,stim,false,2,811.0,3,1,2,49494,WMM2,1352664,false,false,1585,image-keyboard-response,43
true,13,2,3,2,true,d,false,true,0.0-2.0-0.55-0.503-3.503,1,0,1,68,false,stim,false,0,973.0000000002328,3,0,1,49494,WMM2,1355148,false,false,1588,image-keyboard-response,44
true,13,2,3,2,true,d,false,true,0.0-2.0-0.56-0.504-3.504,1,0,1,68,false,stim,false,2,667.0,3,1,2,49494,WMM2,1357328,false,false,1591,image-keyboard-response,45
true,13,0,3,0,true,q,false,true,0.0-2.0-0.56-0.505-3.505,1,0,1,81,false,stim,false,0,709.0,3,1,0,49494,WMM2,1359547,false,false,1594,image-keyboard-response,46
true,13,2,3,2,true,d,false,true,0.0-2.0-0.56-0.506-3.506,1,0,1,68,false,stim,false,0,863.0,3,1,1,49494,WMM2,1361920,false,false,1597,image-keyboard-response,47
true,13,2,3,2,true,d,false,true,0.0-2.0-0.56-0.507-3.507,1,0,1,68,false,stim,false,0,524.0,3,1,1,49494,WMM2,1363954,false,false,1600,image-keyboard-response,48
true,13,2,3,2,true,d,false,true,0.0-2.0-0.56-0.508-3.508,1,0,1,68,false,stim,false,2,1770.0000000002328,3,0,2,49494,WMM2,1367243,false,false,1603,image-keyboard-response,49
true,13,2,3,2,true,d,false,true,0.0-2.0-0.56-0.509-3.509,1,0,1,68,false,stim,false,0,747.0,3,1,1,49494,WMM2,1369498,false,false,1606,image-keyboard-response,50
true,13,0,3,0,true,q,false,true,0.0-2.0-0.56-0.510-3.510,1,0,1,81,false,stim,false,0,981.0,3,1,0,49494,WMM2,1371988,false,false,1609,image-keyboard-response,51
true,13,2,3,2,true,d,false,true,0.0-2.0-0.56-0.511-3.511,1,0,1,68,false,stim,false,2,1423.0,3,0,2,49494,WMM2,1374922,false,false,1612,image-keyboard-response,52
true,13,0,3,0,true,q,false,true,0.0-2.0-0.56-0.512-3.512,1,0,1,81,false,stim,false,0,919.0000000002328,3,1,0,49494,WMM2,1377349,false,false,1615,image-keyboard-response,53
true,13,2,3,2,true,d,false,true,0.0-2.0-0.57-0.513-3.513,1,0,1,68,false,stim,false,2,1565.0,3,0,2,49494,WMM2,1380422,false,false,1618,image-keyboard-response,54
true,13,2,3,2,true,d,false,true,0.0-2.0-0.57-0.514-3.514,1,0,1,68,false,stim,false,2,688.0,3,0,2,49494,WMM2,1382620,false,false,1621,image-keyboard-response,55
true,13,0,3,0,true,q,false,true,0.0-2.0-0.57-0.515-3.515,1,0,1,81,false,stim,false,0,2356.0,3,1,0,49494,WMM2,1386484,false,false,1624,image-keyboard-response,56
true,14,2,0,2,true,d,false,false,0.0-2.0-0.57-0.516-3.516,1,1,0,68,true,stim,false,2,1995.0,3,0,2,49494,WMM2,1394963,false,true,1632,image-keyboard-response,1
true,14,0,0,0,true,q,false,true,0.0-2.0-0.57-0.517-3.517,1,1,0,81,false,stim,false,0,809.0,3,1,0,49494,WMM2,1397280,false,false,1635,image-keyboard-response,2
true,14,2,0,2,true,d,false,true,0.0-2.0-0.57-0.518-3.518,1,1,0,68,false,stim,false,2,899.0,3,1,1,49494,WMM2,1399688,false,false,1638,image-keyboard-response,3
true,14,0,0,0,true,q,false,true,0.0-2.0-0.57-0.519-3.519,1,1,0,81,false,stim,false,0,743.0,3,1,0,49494,WMM2,1401939,false,false,1641,image-keyboard-response,4
true,14,2,0,2,true,d,false,true,0.0-2.0-0.57-0.520-3.520,1,1,0,68,false,stim,false,2,793.0,3,1,1,49494,WMM2,1404242,false,false,1644,image-keyboard-response,5
true,14,2,0,2,true,d,false,true,0.0-2.0-0.57-0.521-3.521,1,1,0,68,false,stim,false,2,653.0,3,1,1,49494,WMM2,1406403,false,false,1647,image-keyboard-response,6
true,14,0,0,0,true,q,false,true,0.0-2.0-0.58-0.522-3.522,1,1,0,81,false,stim,false,0,698.0,3,1,0,49494,WMM2,1408619,false,false,1650,image-keyboard-response,7
true,14,2,0,2,true,d,false,true,0.0-2.0-0.58-0.523-3.523,1,1,0,68,false,stim,false,2,947.0,3,1,1,49494,WMM2,1411075,false,false,1653,image-keyboard-response,8
true,14,0,0,0,true,q,false,true,0.0-2.0-0.58-0.524-3.524,1,1,0,81,false,stim,false,0,835.0,3,1,0,49494,WMM2,1413418,false,false,1656,image-keyboard-response,9
true,14,2,0,2,true,d,false,true,0.0-2.0-0.58-0.525-3.525,1,1,0,68,false,stim,false,2,1596.0,3,0,2,49494,WMM2,1416523,false,false,1659,image-keyboard-response,10
true,14,2,0,2,true,d,false,true,0.0-2.0-0.58-0.526-3.526,1,1,0,68,false,stim,false,2,1323.0,3,1,1,49494,WMM2,1419356,false,false,1662,image-keyboard-response,11
true,14,2,0,2,true,d,false,false,0.0-2.0-0.58-0.527-3.527,1,1,0,68,false,stim,false,2,782.0000000002328,3,0,2,49494,WMM2,1421647,false,true,1665,image-keyboard-response,12
true,14,2,0,2,true,d,false,true,0.0-2.0-0.58-0.528-3.528,1,1,0,68,false,stim,false,2,1563.0,3,0,2,49494,WMM2,1424718,false,false,1668,image-keyboard-response,13
true,14,0,0,0,true,q,false,true,0.0-2.0-0.58-0.529-3.529,1,1,0,81,false,stim,false,0,2164.0,3,1,0,49494,WMM2,1428392,false,false,1671,image-keyboard-response,14
true,14,2,0,2,true,d,false,true,0.0-2.0-0.58-0.530-3.530,1,1,0,68,false,stim,false,2,2285.0,3,1,1,49494,WMM2,1432185,false,false,1674,image-keyboard-response,15
true,14,0,0,0,true,q,false,true,0.0-2.0-0.59-0.531-3.531,1,1,0,81,false,stim,false,0,1385.0,3,1,0,49494,WMM2,1435080,false,false,1677,image-keyboard-response,16
true,14,2,0,2,true,d,false,true,0.0-2.0-0.59-0.532-3.532,1,1,0,68,false,stim,false,2,1242.9999999997672,3,0,2,49494,WMM2,1437833,false,false,1680,image-keyboard-response,17
true,14,2,0,2,true,d,false,true,0.0-2.0-0.59-0.533-3.533,1,1,0,68,false,stim,false,2,590.0,3,0,2,49494,WMM2,1439932,false,false,1683,image-keyboard-response,18
true,14,2,0,2,true,d,false,true,0.0-2.0-0.59-0.534-3.534,1,1,0,68,false,stim,false,2,1215.0,3,0,2,49494,WMM2,1442655,false,false,1686,image-keyboard-response,19
true,14,2,0,2,true,d,false,true,0.0-2.0-0.59-0.535-3.535,1,1,0,68,false,stim,false,2,991.0,3,1,1,49494,WMM2,1445156,false,false,1689,image-keyboard-response,20
true,14,2,0,2,true,d,false,true,0.0-2.0-0.59-0.536-3.536,1,1,0,68,false,stim,false,2,1041.9999999997672,3,0,1,49494,WMM2,1447708,false,false,1692,image-keyboard-response,21
true,14,0,0,0,true,q,false,true,0.0-2.0-0.59-0.537-3.537,1,1,0,81,false,stim,false,0,1487.0000000002328,3,0,0,49494,WMM2,1450705,false,false,1695,image-keyboard-response,22
true,14,2,0,2,true,d,false,true,0.0-2.0-0.59-0.538-3.538,1,1,0,68,false,stim,false,2,2134.0,3,0,1,49494,WMM2,1454347,false,false,1698,image-keyboard-response,23
true,14,0,0,0,true,q,false,true,0.0-2.0-0.59-0.539-3.539,1,1,0,81,false,stim,false,0,1073.0,3,0,0,49494,WMM2,1456939,false,false,1701,image-keyboard-response,24
true,14,2,0,2,true,d,false,true,0.0-2.0-0.60-0.540-3.540,1,1,0,68,false,stim,false,2,2051.0,3,1,2,49494,WMM2,1460501,false,false,1704,image-keyboard-response,25
true,14,2,0,2,true,d,false,true,0.0-2.0-0.60-0.541-3.541,1,1,0,68,false,stim,false,2,661.0,3,1,2,49494,WMM2,1462671,false,false,1707,image-keyboard-response,26
true,14,0,0,0,true,q,false,true,0.0-2.0-0.60-0.542-3.542,1,1,0,81,false,stim,false,0,858.0,3,0,0,49494,WMM2,1465037,false,false,1710,image-keyboard-response,27
true,14,2,0,2,true,d,false,true,0.0-2.0-0.60-0.543-3.543,1,1,0,68,false,stim,false,2,1035.0,3,1,2,49494,WMM2,1467580,false,false,1713,image-keyboard-response,28
true,14,0,0,0,true,q,false,true,0.0-2.0-0.60-0.544-3.544,1,1,0,81,false,stim,false,0,1697.0,3,0,0,49494,WMM2,1470786,false,false,1716,image-keyboard-response,29
true,14,0,0,0,true,q,false,false,0.0-2.0-0.60-0.545-3.545,1,1,0,81,false,stim,false,0,633.0,3,0,0,49494,WMM2,1472927,false,true,1719,image-keyboard-response,30
true,15,2,1,0,false,q,false,false,0.0-2.0-0.60-0.546-3.546,0,0,1,68,true,stim,true,2,2054.0,3,0,1,49494,WMM2,1476489,false,false,1722,image-keyboard-response,1
true,15,2,1,0,false,q,false,false,0.0-2.0-0.60-0.547-3.547,0,0,1,68,false,stim,true,2,1327.0,3,0,1,49494,WMM2,1479324,false,false,1725,image-keyboard-response,2
true,15,2,1,0,false,q,false,false,0.0-2.0-0.60-0.548-3.548,0,0,1,68,false,stim,true,2,1887.0,3,0,1,49494,WMM2,1482719,false,false,1728,image-keyboard-response,3
true,15,1,1,0,false,q,true,false,0.0-2.0-0.61-0.549-3.549,0,0,1,90,false,stim,false,2,1410.0,3,0,1,49494,WMM2,1485640,false,false,1731,image-keyboard-response,4
true,15,0,1,0,true,q,false,true,0.0-2.0-0.61-0.550-3.550,0,0,1,81,false,stim,false,2,605.0000000002328,3,0,1,49494,WMM2,1487754,false,false,1734,image-keyboard-response,5
true,15,0,1,1,false,z,false,false,0.0-2.0-0.61-0.551-3.551,0,0,1,81,false,stim,true,0,769.0,3,0,0,49494,WMM2,1490031,false,false,1737,image-keyboard-response,6
true,15,2,1,2,true,d,false,true,0.0-2.0-0.61-0.552-3.552,0,0,1,68,false,stim,false,2,1078.9999999997672,3,1,2,49494,WMM2,1492621,false,false,1740,image-keyboard-response,7
true,15,2,1,2,true,d,false,true,0.0-2.0-0.61-0.553-3.553,0,0,1,68,false,stim,false,2,665.0,3,1,2,49494,WMM2,1494796,false,false,1743,image-keyboard-response,8
true,15,0,1,1,false,z,false,false,0.0-2.0-0.61-0.554-3.554,0,0,1,81,false,stim,true,0,893.0,3,0,0,49494,WMM2,1497196,false,false,1746,image-keyboard-response,9
true,15,2,1,2,true,d,false,false,0.0-2.0-0.61-0.555-3.555,0,0,1,68,false,stim,false,2,937.0,3,1,2,49494,WMM2,1499643,false,true,1749,image-keyboard-response,10
true,15,0,1,1,false,z,false,false,0.0-2.0-0.61-0.556-3.556,0,0,1,81,false,stim,true,0,803.0,3,0,0,49494,WMM2,1501954,false,false,1752,image-keyboard-response,11
true,15,2,1,0,false,q,false,false,0.0-2.0-0.61-0.557-3.557,0,0,1,68,false,stim,true,2,1142.0,3,0,1,49494,WMM2,1504605,false,false,1755,image-keyboard-response,12
true,15,0,1,0,true,q,false,true,0.0-2.0-0.62-0.558-3.558,0,0,1,81,false,stim,false,2,1616.0,3,0,1,49494,WMM2,1507733,false,false,1758,image-keyboard-response,13
true,15,0,1,0,true,q,false,true,0.0-2.0-0.62-0.559-3.559,0,0,1,81,false,stim,false,2,615.0,3,0,1,49494,WMM2,1509856,false,false,1761,image-keyboard-response,14
true,15,1,1,1,true,z,false,true,0.0-2.0-0.62-0.560-3.560,0,0,1,90,false,stim,false,0,1397.0,3,0,0,49494,WMM2,1512763,false,false,1764,image-keyboard-response,15
true,15,1,1,1,true,z,false,true,0.0-2.0-0.62-0.561-3.561,0,0,1,90,false,stim,false,0,612.9999999997672,3,0,0,49494,WMM2,1514885,false,false,1767,image-keyboard-response,16
true,15,2,1,2,true,d,false,true,0.0-2.0-0.62-0.562-3.562,0,0,1,68,false,stim,false,2,1179.0,3,1,2,49494,WMM2,1517573,false,false,1770,image-keyboard-response,17
true,15,2,1,2,true,d,false,true,0.0-2.0-0.62-0.563-3.563,0,0,1,68,false,stim,false,2,611.0,3,1,2,49494,WMM2,1519692,false,false,1773,image-keyboard-response,18
true,15,1,1,1,true,z,false,true,0.0-2.0-0.62-0.564-3.564,0,0,1,90,false,stim,false,0,1002.0,3,0,0,49494,WMM2,1522202,false,false,1776,image-keyboard-response,19
true,15,2,1,2,true,d,false,true,0.0-2.0-0.62-0.565-3.565,0,0,1,68,false,stim,false,2,1048.0,3,1,2,49494,WMM2,1524760,false,false,1779,image-keyboard-response,20
true,15,0,1,0,true,q,false,false,0.0-2.0-0.62-0.566-3.566,0,0,1,81,false,stim,false,2,1805.0,3,1,1,49494,WMM2,1528075,false,true,1782,image-keyboard-response,21
true,15,1,1,1,true,z,false,true,0.0-2.0-0.63-0.567-3.567,0,0,1,90,false,stim,false,0,870.0,3,1,0,49494,WMM2,1530456,false,false,1785,image-keyboard-response,22
true,15,1,1,1,true,z,false,true,0.0-2.0-0.63-0.568-3.568,0,0,1,90,false,stim,false,0,644.9999999997672,3,1,0,49494,WMM2,1532610,false,false,1788,image-keyboard-response,23
true,15,2,1,2,true,d,false,true,0.0-2.0-0.63-0.569-3.569,0,0,1,68,false,stim,false,2,1981.0,3,0,2,49494,WMM2,1536101,false,false,1791,image-keyboard-response,24
true,15,2,1,2,true,d,false,true,0.0-2.0-0.63-0.570-3.570,0,0,1,68,false,stim,false,2,579.9999999997672,3,0,2,49494,WMM2,1538189,false,false,1794,image-keyboard-response,25
true,15,2,1,2,true,d,false,true,0.0-2.0-0.63-0.571-3.571,0,0,1,68,false,stim,false,2,674.0,3,0,2,49494,WMM2,1540371,false,false,1797,image-keyboard-response,26
true,15,0,1,0,true,q,false,false,0.0-2.0-0.63-0.572-3.572,0,0,1,81,false,stim,false,2,1702.0,3,1,1,49494,WMM2,1543583,false,true,1800,image-keyboard-response,27
true,15,0,1,0,true,q,false,true,0.0-2.0-0.63-0.573-3.573,0,0,1,81,false,stim,false,2,2278.000000000233,3,1,1,49494,WMM2,1547379,false,false,1803,image-keyboard-response,28
true,15,0,1,0,true,q,false,true,0.0-2.0-0.63-0.574-3.574,0,0,1,81,false,stim,false,2,658.9999999997672,3,1,1,49494,WMM2,1549546,false,false,1806,image-keyboard-response,29
true,15,1,1,1,true,z,false,false,0.0-2.0-0.63-0.575-3.575,0,0,1,90,false,stim,false,0,987.0,3,1,0,49494,WMM2,1552043,false,true,1809,image-keyboard-response,30
true,16,0,3,0,true,q,false,false,0.0-2.0-0.64-0.576-3.576,1,1,0,81,true,stim,false,0,834.0000000002328,3,1,1,49494,WMM2,1554387,false,true,1812,image-keyboard-response,1
true,16,1,3,1,true,z,false,true,0.0-2.0-0.64-0.577-3.577,1,1,0,90,false,stim,false,1,759.0,3,1,0,49494,WMM2,1556654,false,false,1815,image-keyboard-response,2
true,16,2,3,0,false,q,false,false,0.0-2.0-0.64-0.578-3.578,1,1,0,68,false,stim,true,2,902.0,3,0,2,49494,WMM2,1559064,false,false,1818,image-keyboard-response,3
true,16,1,3,1,true,z,false,false,0.0-2.0-0.64-0.579-3.579,1,1,0,90,false,stim,false,1,840.0,3,1,0,49494,WMM2,1561414,false,true,1821,image-keyboard-response,4
true,16,2,3,0,false,q,false,false,0.0-2.0-0.64-0.580-3.580,1,1,0,68,false,stim,true,2,1140.0,3,0,2,49494,WMM2,1564064,false,false,1824,image-keyboard-response,5
true,16,0,3,0,true,q,false,true,0.0-2.0-0.64-0.581-3.581,1,1,0,81,false,stim,false,0,991.0,3,1,1,49494,WMM2,1566563,false,false,1827,image-keyboard-response,6
true,16,1,3,0,false,q,true,false,0.0-2.0-0.64-0.582-3.582,1,1,0,90,false,stim,false,2,1685.0,3,0,2,49494,WMM2,1569759,false,false,1830,image-keyboard-response,7
true,16,0,3,0,true,q,false,true,0.0-2.0-0.64-0.583-3.583,1,1,0,81,false,stim,false,0,822.0000000002328,3,1,1,49494,WMM2,1572089,false,false,1833,image-keyboard-response,8
true,16,0,3,1,false,z,true,true,0.0-2.0-0.64-0.584-3.584,1,1,0,81,false,stim,false,1,1118.0,3,1,0,49494,WMM2,1574716,false,true,1836,image-keyboard-response,9
true,16,0,3,0,true,q,false,false,0.0-2.0-0.65-0.585-3.585,1,1,0,81,false,stim,false,0,907.0,3,1,1,49494,WMM2,1577133,false,true,1839,image-keyboard-response,10
true,16,0,3,1,false,z,true,false,0.0-2.0-0.65-0.586-3.586,1,1,0,81,false,stim,false,1,724.0,3,1,0,49494,WMM2,1579366,false,false,1842,image-keyboard-response,11
true,16,0,3,0,true,q,false,true,0.0-2.0-0.65-0.587-3.587,1,1,0,81,false,stim,false,2,920.0,3,0,2,49494,WMM2,1581794,false,false,1845,image-keyboard-response,12
true,16,0,3,0,true,q,false,true,0.0-2.0-0.65-0.588-3.588,1,1,0,81,false,stim,false,2,574.0,3,0,2,49494,WMM2,1583877,false,false,1848,image-keyboard-response,13
true,16,0,3,0,true,q,false,true,0.0-2.0-0.65-0.589-3.589,1,1,0,81,false,stim,false,0,791.0,3,1,1,49494,WMM2,1586178,false,false,1851,image-keyboard-response,14
true,16,0,3,1,false,z,true,false,0.0-2.0-0.65-0.590-3.590,1,1,0,81,false,stim,false,1,674.9999999997672,3,1,0,49494,WMM2,1588361,false,false,1854,image-keyboard-response,15
true,16,0,3,0,true,q,false,true,0.0-2.0-0.65-0.591-3.591,1,1,0,81,false,stim,false,0,706.0,3,1,1,49494,WMM2,1590576,false,false,1857,image-keyboard-response,16
true,16,0,3,0,true,q,false,false,0.0-2.0-0.65-0.592-3.592,1,1,0,81,false,stim,false,2,868.0,3,0,2,49494,WMM2,1592952,false,true,1860,image-keyboard-response,17
true,16,0,3,1,false,z,true,true,0.0-2.0-0.65-0.593-3.593,1,1,0,81,false,stim,false,1,1271.0,3,1,0,49494,WMM2,1595733,false,true,1863,image-keyboard-response,18
true,16,0,3,0,true,q,false,true,0.0-2.0-0.66-0.594-3.594,1,1,0,81,false,stim,false,2,1881.0,3,0,2,49494,WMM2,1599123,false,false,1866,image-keyboard-response,19
true,16,0,3,0,true,q,false,true,0.0-2.0-0.66-0.595-3.595,1,1,0,81,false,stim,false,0,895.0,3,1,1,49494,WMM2,1601528,false,false,1869,image-keyboard-response,20
true,16,0,3,0,true,q,false,true,0.0-2.0-0.66-0.596-3.596,1,1,0,81,false,stim,false,2,966.0000000002328,3,0,2,49494,WMM2,1604004,false,false,1872,image-keyboard-response,21
true,16,0,3,0,true,q,false,true,0.0-2.0-0.66-0.597-3.597,1,1,0,81,false,stim,false,0,768.0000000002328,3,1,1,49494,WMM2,1606282,false,false,1875,image-keyboard-response,22
true,16,0,3,0,true,q,false,true,0.0-2.0-0.66-0.598-3.598,1,1,0,81,false,stim,false,0,707.0,3,1,1,49494,WMM2,1608501,false,false,1878,image-keyboard-response,23
true,16,0,3,0,true,q,false,true,0.0-2.0-0.66-0.599-3.599,1,1,0,81,false,stim,false,2,898.9999999997672,3,0,2,49494,WMM2,1610911,false,false,1881,image-keyboard-response,24
true,16,0,3,1,false,z,true,false,0.0-2.0-0.66-0.600-3.600,1,1,0,81,false,stim,false,1,984.0000000002328,3,1,0,49494,WMM2,1613407,false,false,1884,image-keyboard-response,25
true,16,1,3,1,true,z,false,true,0.0-2.0-0.66-0.601-3.601,1,1,0,90,false,stim,false,1,557.9999999997672,3,1,0,49494,WMM2,1615475,false,false,1887,image-keyboard-response,26
true,16,1,3,1,true,z,false,true,0.0-2.0-0.66-0.602-3.602,1,1,0,90,false,stim,false,1,555.0,3,1,0,49494,WMM2,1617540,false,false,1890,image-keyboard-response,27
true,16,1,3,1,true,z,false,true,0.0-2.0-0.67-0.603-3.603,1,1,0,90,false,stim,false,1,596.0,3,0,0,49494,WMM2,1619648,false,false,1893,image-keyboard-response,28
true,16,0,3,0,true,q,false,true,0.0-2.0-0.67-0.604-3.604,1,1,0,81,false,stim,false,2,1594.0,3,0,2,49494,WMM2,1622750,false,false,1896,image-keyboard-response,29
true,16,0,3,0,true,q,false,true,0.0-2.0-0.67-0.605-3.605,1,1,0,81,false,stim,false,0,830.0000000002328,3,1,1,49494,WMM2,1625090,false,false,1899,image-keyboard-response,30
true,16,0,3,0,true,q,false,false,0.0-2.0-0.67-0.606-3.606,1,1,0,81,false,stim,false,0,2629.0,3,1,1,49494,WMM2,1629241,false,true,1902,image-keyboard-response,31
true,16,1,3,1,true,z,false,true,0.0-2.0-0.67-0.607-3.607,1,1,0,90,false,stim,false,1,1177.0000000002328,3,0,0,49494,WMM2,1631926,false,false,1905,image-keyboard-response,32
true,16,0,3,0,true,q,false,true,0.0-2.0-0.67-0.608-3.608,1,1,0,81,false,stim,false,0,1129.9999999997672,3,1,1,49494,WMM2,1634566,false,false,1908,image-keyboard-response,33
true,16,0,3,0,true,q,false,true,0.0-2.0-0.67-0.609-3.609,1,1,0,81,false,stim,false,2,1309.0,3,0,2,49494,WMM2,1637384,false,false,1911,image-keyboard-response,34
true,16,0,3,0,true,q,false,true,0.0-2.0-0.67-0.610-3.610,1,1,0,81,false,stim,false,2,730.0,3,0,2,49494,WMM2,1639621,false,false,1914,image-keyboard-response,35
true,16,2,3,1,false,z,true,false,0.0-2.0-0.67-0.611-3.611,1,1,0,68,false,stim,false,1,813.0,3,0,0,49494,WMM2,1641943,false,false,1917,image-keyboard-response,36
true,16,0,3,0,true,q,false,false,0.0-2.0-0.68-0.612-3.612,1,1,0,81,false,stim,false,0,711.0,3,1,1,49494,WMM2,1644165,false,true,1920,image-keyboard-response,37
true,17,0,1,2,false,d,false,false,0.0-2.0-0.68-0.613-3.613,0,1,0,81,true,stim,true,0,931.0,3,0,2,49494,WMM2,1646605,false,false,1923,image-keyboard-response,1
true,17,0,1,2,false,d,false,false,0.0-2.0-0.68-0.614-3.614,0,1,0,81,false,stim,true,0,1303.0000000002328,3,0,2,49494,WMM2,1649417,false,false,1926,image-keyboard-response,2
true,17,1,1,2,false,d,true,false,0.0-2.0-0.68-0.615-3.615,0,1,0,90,false,stim,false,0,885.0,3,0,2,49494,WMM2,1651812,false,false,1929,image-keyboard-response,3
true,17,0,1,0,true,q,false,true,0.0-2.0-0.68-0.616-3.616,0,1,0,81,false,stim,false,0,956.0,3,1,1,49494,WMM2,1654275,false,false,1932,image-keyboard-response,4
true,17,0,1,0,true,q,false,true,0.0-2.0-0.68-0.617-3.617,0,1,0,81,false,stim,false,0,883.0000000002328,3,1,1,49494,WMM2,1656666,false,false,1935,image-keyboard-response,5
true,17,0,1,2,false,d,true,false,0.0-2.0-0.68-0.618-3.618,0,1,0,81,false,stim,false,1,1257.0,3,0,0,49494,WMM2,1659433,false,false,1938,image-keyboard-response,6
