answered,blockNum,choice,condition,corResp,correct,correct_response,explo,fb,internal_node_id,isStable_1,isStable_2,isStable_3,key_press,newBlock,part,persev,persevResp,rt,sessNum,stableAS,stimulus,subject,task,time_elapsed,training,trap,trial_index,trial_type,trialsInBlock
true,1,1,0,2,false,d,true,true,0.0-2.0-0.0-0.0-3.0,0,0,0,90,true,stim,false,-1,785.0,2,0,1,49494,WMM2,181643,false,true,184,image-keyboard-response,1
true,1,1,0,2,false,d,true,false,0.0-2.0-0.0-0.1-3.1,0,0,0,90,false,stim,false,-1,536.0,2,0,1,49494,WMM2,183683,false,false,187,image-keyboard-response,2
true,1,2,0,1,false,z,true,false,0.0-2.0-0.0-0.2-3.2,0,0,0,68,false,stim,false,-1,1960.0,2,0,2,49494,WMM2,187147,false,false,190,image-keyboard-response,3
true,1,0,0,2,false,d,true,true,0.0-2.0-0.0-0.3-3.3,0,0,0,81,false,stim,false,-1,871.0,2,0,0,49494,WMM2,189523,false,true,193,image-keyboard-response,4
true,1,1,0,1,true,z,false,true,0.0-2.0-0.0-0.4-3.4,0,0,0,90,false,stim,false,-1,1392.0,2,0,2,49494,WMM2,192419,false,false,196,image-keyboard-response,5
true,1,1,0,2,false,d,true,false,0.0-2.0-0.0-0.5-3.5,0,0,0,90,false,stim,false,-1,1272.0,2,0,1,49494,WMM2,195195,false,false,199,image-keyboard-response,6
true,1,0,0,2,false,d,true,false,0.0-2.0-0.0-0.6-3.6,0,0,0,81,false,stim,false,-1,741.9999999999709,2,0,0,49494,WMM2,197443,false,false,202,image-keyboard-response,7
true,1,2,0,1,false,z,true,false,0.0-2.0-0.0-0.7-3.7,0,0,0,68,false,stim,false,-1,1175.0,2,0,2,49494,WMM2,200123,false,false,205,image-keyboard-response,8
true,1,1,0,2,false,d,true,false,0.0-2.0-0.0-0.8-3.8,0,0,0,90,false,stim,false,-1,1184.0,2,0,0,49494,WMM2,202811,false,false,208,image-keyboard-response,9
true,1,0,0,2,false,d,true,false,0.0-2.0-0.1-0.9-3.9,0,0,0,81,false,stim,false,-1,2128.0,2,0,1,49494,WMM2,206443,false,false,211,image-keyboard-response,10
true,1,0,0,2,false,d,true,false,0.0-2.0-0.1-0.10-3.10,0,0,0,81,false,stim,false,-1,1240.0,2,0,0,49494,WMM2,209187,false,false,214,image-keyboard-response,11
true,1,2,0,2,true,d,false,true,0.0-2.0-0.1-0.11-3.11,0,0,0,68,false,stim,false,-1,1112.0,2,0,1,49494,WMM2,211803,false,false,217,image-keyboard-response,12
true,1,1,0,1,true,z,false,true,0.0-2.0-0.1-0.12-3.12,0,0,0,90,false,stim,false,-1,960.0000000000291,2,0,2,49494,WMM2,214267,false,false,220,image-keyboard-response,13
true,1,1,0,1,true,z,false,true,0.0-2.0-0.1-0.13-3.13,0,0,0,90,false,stim,false,-1,576.0,2,0,2,49494,WMM2,216346,false,false,223,image-keyboard-response,14
true,1,2,0,2,true,d,false,true,0.0-2.0-0.1-0.14-3.14,0,0,0,68,false,stim,false,-1,928.0000000000291,2,0,1,49494,WMM2,218779,false,false,226,image-keyboard-response,15
true,1,1,0,2,false,d,true,false,0.0-2.0-0.1-0.15-3.15,0,0,0,90,false,stim,false,-1,1456.0,2,0,0,49494,WMM2,221739,false,false,229,image-keyboard-response,16
true,1,2,0,1,false,z,true,false,0.0-2.0-0.1-0.16-3.16,0,0,0,68,false,stim,false,-1,1543.0,2,0,2,49494,WMM2,224787,false,false,232,image-keyboard-response,17
true,1,0,0,2,false,d,true,false,0.0-2.0-0.1-0.17-3.17,0,0,0,81,false,stim,false,-1,944.0,2,0,0,49494,WMM2,227235,false,false,235,image-keyboard-response,18
true,1,2,0,1,false,z,true,false,0.0-2.0-0.2-0.18-3.18,0,0,0,68,false,stim,false,-1,1400.0,2,0,2,49494,WMM2,230139,false,false,238,image-keyboard-response,19
true,1,1,0,2,false,d,true,false,0.0-2.0-0.2-0.19-3.19,0,0,0,90,false,stim,false,-1,855.0000000000291,2,0,0,49494,WMM2,232499,false,false,241,image-keyboard-response,20
true,1,0,0,2,false,d,true,false,0.0-2.0-0.2-0.20-3.20,0,0,0,81,false,stim,false,-1,1975.0,2,0,1,49494,WMM2,235979,false,false,244,image-keyboard-response,21
true,1,1,0,1,true,z,false,true,0.0-2.0-0.2-0.21-3.21,0,0,0,90,false,stim,false,-1,1191.0,2,0,2,49494,WMM2,238675,false,false,247,image-keyboard-response,22
true,1,1,0,1,true,z,false,true,0.0-2.0-0.2-0.22-3.22,0,0,0,90,false,stim,false,-1,495.0,2,0,2,49494,WMM2,240675,false,false,250,image-keyboard-response,23
true,1,2,0,2,true,d,false,true,0.0-2.0-0.2-0.23-3.23,0,0,0,68,false,stim,false,-1,1408.0,2,0,1,49494,WMM2,243587,false,false,253,image-keyboard-response,24
true,1,1,0,2,false,d,true,false,0.0-2.0-0.2-0.24-3.24,0,0,0,90,false,stim,false,-1,1415.0,2,0,0,49494,WMM2,246506,false,false,256,image-keyboard-response,25
true,1,1,0,2,false,d,true,false,0.0-2.0-0.2-0.25-3.25,0,0,0,90,false,stim,false,-1,807.9999999999709,2,0,1,49494,WMM2,248819,false,false,259,image-keyboard-response,26
true,1,0,0,2,false,d,true,false,0.0-2.0-0.2-0.26-3.26,0,0,0,81,false,stim,false,-1,1023.0,2,0,0,49494,WMM2,251346,false,false,262,image-keyboard-response,27
true,1,2,0,1,false,z,true,false,0.0-2.0-0.3-0.27-3.27,0,0,0,68,false,stim,false,-1,935.0,2,0,2,49494,WMM2,253786,false,false,265,image-keyboard-response,28
true,1,1,0,1,true,z,false,true,0.0-2.0-0.3-0.28-3.28,0,0,0,90,false,stim,false,-1,632.9999999999709,2,0,2,49494,WMM2,255923,false,false,268,image-keyboard-response,29
true,1,0,0,2,false,d,true,false,0.0-2.0-0.3-0.29-3.29,0,0,0,81,false,stim,false,-1,1624.0,2,0,0,49494,WMM2,259050,false,false,271,image-keyboard-response,30
true,1,2,0,2,true,d,false,false,0.0-2.0-0.3-0.30-3.30,0,0,0,68,false,stim,false,-1,575.0,2,0,0,49494,WMM2,261130,false,true,274,image-keyboard-response,31
true,1,2,0,2,true,d,false,true,0.0-2.0-0.3-0.31-3.31,0,0,0,68,false,stim,false,-1,1071.0,2,0,1,49494,WMM2,263706,false,false,277,image-keyboard-response,32
true,1,1,0,2,false,d,true,false,0.0-2.0-0.3-0.32-3.32,0,0,0,90,false,stim,false,-1,1055.0,2,0,0,49494,WMM2,266266,false,false,280,image-keyboard-response,33
true,1,2,0,2,true,d,false,true,0.0-2.0-0.3-0.33-3.33,0,0,0,68,false,stim,false,-1,903.0000000000582,2,0,1,49494,WMM2,268674,false,false,283,image-keyboard-response,34
true,1,2,0,2,true,d,false,true,0.0-2.0-0.3-0.34-3.34,0,0,0,68,false,stim,false,-1,576.0,2,0,1,49494,WMM2,270754,false,false,286,image-keyboard-response,35
true,1,1,0,1,true,z,false,true,0.0-2.0-0.3-0.35-3.35,0,0,0,90,false,stim,false,-1,640.0,2,0,2,49494,WMM2,272898,false,false,289,image-keyboard-response,36
true,1,1,0,1,true,z,false,true,0.0-2.0-0.4-0.36-3.36,0,0,0,90,false,stim,false,-1,455.0,2,0,2,49494,WMM2,274858,false,false,292,image-keyboard-response,37
true,1,2,0,2,true,d,false,true,0.0-2.0-0.4-0.37-3.37,0,0,0,68,false,stim,false,-1,632.0,2,0,1,49494,WMM2,276994,false,false,295,image-keyboard-response,38
true,1,2,0,2,true,d,false,true,0.0-2.0-0.4-0.38-3.38,0,0,0,68,false,stim,false,-1,1265.0000000000582,2,0,0,49494,WMM2,279762,false,false,298,image-keyboard-response,39
true,1,1,0,1,true,z,false,true,0.0-2.0-0.4-0.39-3.39,0,0,0,90,false,stim,false,-1,1214.0,2,0,2,49494,WMM2,282482,false,false,301,image-keyboard-response,40
true,1,2,0,2,true,d,false,true,0.0-2.0-0.4-0.40-3.40,0,0,0,68,false,stim,false,-1,935.0,2,0,0,49494,WMM2,284922,false,false,304,image-keyboard-response,41
true,1,2,0,2,true,d,false,false,0.0-2.0-0.4-0.41-3.41,0,0,0,68,false,stim,false,-1,2240.0,2,1,1,49494,WMM2,288666,false,true,307,image-keyboard-response,42
true,1,1,0,2,false,d,true,false,0.0-2.0-0.4-0.42-3.42,0,0,0,90,false,stim,false,-1,495.0,2,1,1,49494,WMM2,290666,false,false,310,image-keyboard-response,43
true,1,2,0,1,false,z,true,false,0.0-2.0-0.4-0.43-3.43,0,0,0,68,false,stim,false,-1,967.0000000000582,2,1,2,49494,WMM2,293138,false,false,313,image-keyboard-response,44
true,1,2,0,2,true,d,false,true,0.0-2.0-0.4-0.44-3.44,0,0,0,68,false,stim,false,-1,1664.0,2,0,0,49494,WMM2,296306,false,false,316,image-keyboard-response,45
true,1,2,0,2,true,d,false,true,0.0-2.0-0.5-0.45-3.45,0,0,0,68,false,stim,false,-1,486.9999999999418,2,0,0,49494,WMM2,298298,false,false,319,image-keyboard-response,46
true,1,2,0,2,true,d,false,true,0.0-2.0-0.5-0.46-3.46,0,0,0,68,false,stim,false,-1,511.0,2,0,0,49494,WMM2,300314,false,false,322,image-keyboard-response,47
true,1,1,0,2,false,d,true,false,0.0-2.0-0.5-0.47-3.47,0,0,0,90,false,stim,false,-1,1359.0,2,1,1,49494,WMM2,303178,false,false,325,image-keyboard-response,48
true,1,2,0,2,true,d,false,true,0.0-2.0-0.5-0.48-3.48,0,0,0,68,false,stim,false,-1,824.0,2,1,1,49494,WMM2,305506,false,false,328,image-keyboard-response,49
true,1,1,0,1,true,z,false,true,0.0-2.0-0.5-0.49-3.49,0,0,0,90,false,stim,false,-1,1449.0,2,1,2,49494,WMM2,308458,false,false,331,image-keyboard-response,50
true,1,2,0,2,true,d,false,true,0.0-2.0-0.5-0.50-3.50,0,0,0,68,false,stim,false,-1,959.0,2,1,1,49494,WMM2,310922,false,false,334,image-keyboard-response,51
true,2,2,2,0,false,q,false,false,0.0-2.0-0.5-0.51-3.51,0,1,1,68,true,stim,true,2,1272.0000000000582,2,0,0,49494,WMM2,313698,false,false,337,image-keyboard-response,1
true,2,2,2,1,false,z,true,false,0.0-2.0-0.5-0.52-3.52,0,1,1,68,false,stim,false,1,1750.9999999999418,2,1,2,49494,WMM2,316954,false,false,340,image-keyboard-response,2
true,2,1,2,1,true,z,false,true,0.0-2.0-0.5-0.53-3.53,0,1,1,90,false,stim,false,1,640.0,2,1,2,49494,WMM2,319098,false,false,343,image-keyboard-response,3
true,2,2,2,0,false,q,false,false,0.0-2.0-0.6-0.54-3.54,0,1,1,68,false,stim,true,2,1335.9999999999418,2,0,0,49494,WMM2,321938,false,false,346,image-keyboard-response,4
true,2,1,2,2,false,d,true,false,0.0-2.0-0.6-0.55-3.55,0,1,1,90,false,stim,false,2,1015.0,2,1,1,49494,WMM2,324457,false,false,349,image-keyboard-response,5
true,2,2,2,2,true,d,false,true,0.0-2.0-0.6-0.56-3.56,0,1,1,68,false,stim,false,2,2576.0,2,1,1,49494,WMM2,328538,false,false,352,image-keyboard-response,6
true,2,2,2,0,false,q,false,false,0.0-2.0-0.6-0.57-3.57,0,1,1,68,false,stim,true,2,1439.0,2,0,0,49494,WMM2,331482,false,false,355,image-keyboard-response,7
true,2,2,2,2,true,d,false,true,0.0-2.0-0.6-0.58-3.58,0,1,1,68,false,stim,false,2,863.0,2,1,1,49494,WMM2,333850,false,false,358,image-keyboard-response,8
true,2,2,2,1,false,z,true,false,0.0-2.0-0.6-0.59-3.59,0,1,1,68,false,stim,false,1,1839.0,2,1,2,49494,WMM2,337193,false,false,361,image-keyboard-response,9
true,2,1,2,0,false,q,true,true,0.0-2.0-0.6-0.60-3.60,0,1,1,90,false,stim,false,2,895.0,2,0,0,49494,WMM2,339594,false,true,364,image-keyboard-response,10
true,2,1,2,1,true,z,false,true,0.0-2.0-0.6-0.61-3.61,0,1,1,90,false,stim,false,1,1568.0,2,1,2,49494,WMM2,342666,false,false,367,image-keyboard-response,11
true,2,1,2,1,true,z,false,true,0.0-2.0-0.6-0.62-3.62,0,1,1,90,false,stim,false,1,440.0,2,1,2,49494,WMM2,344609,false,false,370,image-keyboard-response,12
true,2,1,2,1,true,z,false,false,0.0-2.0-0.7-0.63-3.63,0,1,1,90,false,stim,false,1,519.0,2,1,2,49494,WMM2,346633,false,true,373,image-keyboard-response,13
true,2,1,2,1,true,z,false,false,0.0-2.0-0.7-0.64-3.64,0,1,1,90,false,stim,false,1,1215.9999999999418,2,1,2,49494,WMM2,349353,false,true,376,image-keyboard-response,14
true,2,1,2,1,true,z,false,true,0.0-2.0-0.7-0.65-3.65,0,1,1,90,false,stim,false,1,1032.0,2,1,2,49494,WMM2,351889,false,false,379,image-keyboard-response,15
true,2,2,2,2,true,d,false,true,0.0-2.0-0.7-0.66-3.66,0,1,1,68,false,stim,false,2,2480.0,2,1,1,49494,WMM2,355873,false,false,382,image-keyboard-response,16
true,2,1,2,0,false,q,true,true,0.0-2.0-0.7-0.67-3.67,0,1,1,90,false,stim,false,2,1079.0,2,0,0,49494,WMM2,358457,false,true,385,image-keyboard-response,17
true,2,1,2,0,false,q,true,false,0.0-2.0-0.7-0.68-3.68,0,1,1,90,false,stim,false,2,895.0,2,0,0,49494,WMM2,360857,false,false,388,image-keyboard-response,18
true,2,2,2,2,true,d,false,true,0.0-2.0-0.7-0.69-3.69,0,1,1,68,false,stim,false,2,1287.0000000000582,2,1,1,49494,WMM2,363649,false,false,391,image-keyboard-response,19
true,2,2,2,2,true,d,false,true,0.0-2.0-0.7-0.70-3.70,0,1,1,68,false,stim,false,2,567.0000000000582,2,1,1,49494,WMM2,365721,false,false,394,image-keyboard-response,20
true,2,2,2,0,false,q,false,false,0.0-2.0-0.7-0.71-3.71,0,1,1,68,false,stim,true,2,863.0,2,0,0,49494,WMM2,368089,false,false,397,image-keyboard-response,21
true,2,2,2,2,true,d,false,true,0.0-2.0-0.8-0.72-3.72,0,1,1,68,false,stim,false,2,823.0,2,1,1,49494,WMM2,370417,false,false,400,image-keyboard-response,22
true,2,0,2,0,true,q,false,true,0.0-2.0-0.8-0.73-3.73,0,1,1,81,false,stim,false,2,757.9999999999418,2,0,0,49494,WMM2,372681,false,false,403,image-keyboard-response,23
true,2,2,2,2,true,d,false,true,0.0-2.0-0.8-0.74-3.74,0,1,1,68,false,stim,false,2,743.0,2,1,1,49494,WMM2,374929,false,false,406,image-keyboard-response,24
true,2,1,2,1,true,z,false,true,0.0-2.0-0.8-0.75-3.75,0,1,1,90,false,stim,false,1,880.0,2,1,2,49494,WMM2,377313,false,false,409,image-keyboard-response,25
true,2,1,2,1,true,z,false,true,0.0-2.0-0.8-0.76-3.76,0,1,1,90,false,stim,false,1,400.0,2,1,2,49494,WMM2,379217,false,false,412,image-keyboard-response,26
true,2,0,2,0,true,q,false,true,0.0-2.0-0.8-0.77-3.77,0,1,1,81,false,stim,false,2,783.0,2,0,0,49494,WMM2,381505,false,false,415,image-keyboard-response,27
true,2,2,2,2,true,d,false,true,0.0-2.0-0.8-0.78-3.78,0,1,1,68,false,stim,false,2,1183.0,2,0,1,49494,WMM2,384193,false,false,418,image-keyboard-response,28
true,2,1,2,1,true,z,false,true,0.0-2.0-0.8-0.79-3.79,0,1,1,90,false,stim,false,1,871.0,2,1,2,49494,WMM2,386569,false,false,421,image-keyboard-response,29
true,2,0,2,0,true,q,false,true,0.0-2.0-0.8-0.80-3.80,0,1,1,81,false,stim,false,2,735.0,2,1,0,49494,WMM2,388809,false,false,424,image-keyboard-response,30
true,2,2,2,2,true,d,false,true,0.0-2.0-0.9-0.81-3.81,0,1,1,68,false,stim,false,2,1032.0,2,0,1,49494,WMM2,391345,false,false,427,image-keyboard-response,31
true,2,1,2,1,true,z,false,false,0.0-2.0-0.9-0.82-3.82,0,1,1,90,false,stim,false,1,415.0,2,1,2,49494,WMM2,393265,false,true,430,image-keyboard-response,32
true,2,2,2,2,true,d,false,true,0.0-2.0-0.9-0.83-3.83,0,1,1,68,false,stim,false,2,687.0,2,0,1,49494,WMM2,395457,false,false,433,image-keyboard-response,33
true,2,0,2,0,true,q,false,true,0.0-2.0-0.9-0.84-3.84,0,1,1,81,false,stim,false,2,703.0,2,1,0,49494,WMM2,397665,false,false,436,image-keyboard-response,34
true,2,2,2,2,true,d,false,true,0.0-2.0-0.9-0.85-3.85,0,1,1,68,false,stim,false,2,727.0,2,0,1,49494,WMM2,399897,false,false,439,image-keyboard-response,35
true,2,1,2,1,true,z,false,false,0.0-2.0-0.9-0.86-3.86,0,1,1,90,false,stim,false,1,1144.0,2,1,2,49494,WMM2,402545,false,true,442,image-keyboard-response,36
true,2,2,2,1,false,z,true,true,0.0-2.0-0.9-0.87-3.87,0,1,1,68,false,stim,false,1,496.0,2,1,2,49494,WMM2,404545,false,true,445,image-keyboard-response,37
true,3,0,2,0,true,q,false,true,0.0-2.0-0.9-0.88-3.88,1,0,1,81,true,stim,false,0,599.0000000000582,2,1,0,49494,WMM2,406649,false,false,448,image-keyboard-response,1
true,3,0,2,0,true,q,false,true,0.0-2.0-0.9-0.89-3.89,1,0,1,81,false,stim,false,0,463.0,2,1,0,49494,WMM2,408617,false,false,451,image-keyboard-response,2
true,3,2,2,1,false,z,true,false,0.0-2.0-0.10-0.90-3.90,1,0,1,68,false,stim,false,1,655.0,2,1,2,49494,WMM2,410777,false,false,454,image-keyboard-response,3
true,3,2,2,1,false,z,false,false,0.0-2.0-0.10-0.91-3.91,1,0,1,68,false,stim,true,2,400.0,2,0,1,49494,WMM2,412681,false,false,457,image-keyboard-response,4
true,3,2,2,1,false,z,true,false,0.0-2.0-0.10-0.92-3.92,1,0,1,68,false,stim,false,1,703.0,2,1,2,49494,WMM2,414889,false,false,460,image-keyboard-response,5
true,3,0,2,0,true,q,false,true,0.0-2.0-0.10-0.93-3.93,1,0,1,81,false,stim,false,0,615.0,2,1,0,49494,WMM2,417009,false,false,463,image-keyboard-response,6
true,3,1,2,1,true,z,false,true,0.0-2.0-0.10-0.94-3.94,1,0,1,90,false,stim,false,1,527.0,2,1,2,49494,WMM2,419041,false,false,466,image-keyboard-response,7
true,3,0,2,0,true,q,false,true,0.0-2.0-0.10-0.95-3.95,1,0,1,81,false,stim,false,0,600.0,2,1,0,49494,WMM2,421144,false,false,469,image-keyboard-response,8
true,3,1,2,1,true,z,false,true,0.0-2.0-0.10-0.96-3.96,1,0,1,90,false,stim,false,2,551.0,2,0,1,49494,WMM2,423200,false,false,472,image-keyboard-response,9
true,3,0,2,0,true,q,false,true,0.0-2.0-0.10-0.97-3.97,1,0,1,81,false,stim,false,0,640.0,2,1,0,49494,WMM2,425344,false,false,475,image-keyboard-response,10
true,3,1,2,1,true,z,false,true,0.0-2.0-0.10-0.98-3.98,1,0,1,90,false,stim,false,2,431.0,2,0,1,49494,WMM2,427280,false,false,478,image-keyboard-response,11
true,3,1,2,1,true,z,false,true,0.0-2.0-0.11-0.99-3.99,1,0,1,90,false,stim,false,2,1167.9999999999418,2,0,1,49494,WMM2,429953,false,false,481,image-keyboard-response,12
true,3,0,2,0,true,q,false,true,0.0-2.0-0.11-0.100-3.100,1,0,1,81,false,stim,false,0,671.0,2,1,0,49494,WMM2,432128,false,false,484,image-keyboard-response,13
true,3,1,2,1,true,z,false,true,0.0-2.0-0.11-0.101-3.101,1,0,1,90,false,stim,false,1,512.0,2,1,2,49494,WMM2,434144,false,false,487,image-keyboard-response,14
true,3,1,2,1,true,z,false,true,0.0-2.0-0.11-0.102-3.102,1,0,1,90,false,stim,false,1,551.0,2,1,2,49494,WMM2,436200,false,false,490,image-keyboard-response,15
true,3,1,2,1,true,z,false,true,0.0-2.0-0.11-0.103-3.103,1,0,1,90,false,stim,false,2,584.0,2,0,1,49494,WMM2,438288,false,false,493,image-keyboard-response,16
true,3,0,2,0,true,q,false,true,0.0-2.0-0.11-0.104-3.104,1,0,1,81,false,stim,false,0,495.0,2,1,0,49494,WMM2,440288,false,false,496,image-keyboard-response,17
true,3,1,2,1,true,z,false,true,0.0-2.0-0.11-0.105-3.105,1,0,1,90,false,stim,false,1,423.0,2,1,2,49494,WMM2,442216,false,false,499,image-keyboard-response,18
true,3,0,2,0,true,q,false,true,0.0-2.0-0.11-0.106-3.106,1,0,1,81,false,stim,false,0,621.0,2,1,0,49494,WMM2,444344,false,false,502,image-keyboard-response,19
true,3,1,2,1,true,z,false,true,0.0-2.0-0.11-0.107-3.107,1,0,1,90,false,stim,false,2,456.0,2,0,1,49494,WMM2,446304,false,false,505,image-keyboard-response,20
true,3,1,2,1,true,z,false,true,0.0-2.0-0.12-0.108-3.108,1,0,1,90,false,stim,false,1,399.0,2,0,2,49494,WMM2,448208,false,false,508,image-keyboard-response,21
true,3,0,2,0,true,q,false,false,0.0-2.0-0.12-0.109-3.109,1,0,1,81,false,stim,false,0,568.0000000000582,2,1,0,49494,WMM2,450280,false,true,511,image-keyboard-response,22
true,3,0,2,0,true,q,false,true,0.0-2.0-0.12-0.110-3.110,1,0,1,81,false,stim,false,0,1024.0,2,1,0,49494,WMM2,452808,false,false,514,image-keyboard-response,23
true,3,1,2,1,true,z,false,true,0.0-2.0-0.12-0.111-3.111,1,0,1,90,false,stim,false,2,672.0,2,1,1,49494,WMM2,454984,false,false,517,image-keyboard-response,24
true,3,1,2,1,true,z,false,true,0.0-2.0-0.12-0.112-3.112,1,0,1,90,false,stim,false,1,496.0,2,0,2,49494,WMM2,456984,false,false,520,image-keyboard-response,25
true,3,1,2,1,true,z,false,true,0.0-2.0-0.12-0.113-3.113,1,0,1,90,false,stim,false,2,863.0,2,1,1,49494,WMM2,459352,false,false,523,image-keyboard-response,26
true,3,0,2,0,true,q,false,true,0.0-2.0-0.12-0.114-3.114,1,0,1,81,false,stim,false,0,710.9999999999418,2,1,0,49494,WMM2,461568,false,false,526,image-keyboard-response,27
true,3,1,2,1,true,z,false,false,0.0-2.0-0.12-0.115-3.115,1,0,1,90,false,stim,false,2,697.0,2,1,1,49494,WMM2,463768,false,true,529,image-keyboard-response,28
true,3,1,2,1,true,z,false,true,0.0-2.0-0.12-0.116-3.116,1,0,1,90,false,stim,false,1,816.0000000000582,2,0,2,49494,WMM2,466088,false,false,532,image-keyboard-response,29
true,3,1,2,1,true,z,false,true,0.0-2.0-0.13-0.117-3.117,1,0,1,90,false,stim,false,1,575.0,2,0,2,49494,WMM2,468168,false,false,535,image-keyboard-response,30
true,4,0,3,0,true,q,false,true,0.0-2.0-0.13-0.118-3.118,1,1,0,81,true,stim,false,0,855.9999999999418,2,1,0,49494,WMM2,470528,false,false,538,image-keyboard-response,1
true,4,1,3,1,true,z,false,true,0.0-2.0-0.13-0.119-3.119,1,1,0,90,false,stim,false,1,640.0000000000582,2,1,1,49494,WMM2,472672,false,false,541,image-keyboard-response,2
true,4,0,3,0,true,q,false,true,0.0-2.0-0.13-0.120-3.120,1,1,0,81,false,stim,false,0,633.0000000000582,2,1,0,49494,WMM2,474808,false,false,544,image-keyboard-response,3
true,4,1,3,1,true,z,false,true,0.0-2.0-0.13-0.121-3.121,1,1,0,90,false,stim,false,1,599.0,2,1,1,49494,WMM2,476912,false,false,547,image-keyboard-response,4
true,4,1,3,0,false,q,false,false,0.0-2.0-0.13-0.122-3.122,1,1,0,90,false,stim,true,1,798.9999999999418,2,0,2,49494,WMM2,479216,false,false,550,image-keyboard-response,5
true,4,1,3,1,true,z,false,true,0.0-2.0-0.13-0.123-3.123,1,1,0,90,false,stim,false,1,775.0,2,1,1,49494,WMM2,481496,false,false,553,image-keyboard-response,6
true,4,0,3,0,true,q,false,true,0.0-2.0-0.13-0.124-3.124,1,1,0,81,false,stim,false,0,536.0,2,1,0,49494,WMM2,483536,false,false,556,image-keyboard-response,7
true,4,2,3,0,false,q,true,false,0.0-2.0-0.13-0.125-3.125,1,1,0,68,false,stim,false,1,759.0,2,0,2,49494,WMM2,485800,false,false,559,image-keyboard-response,8
true,4,0,3,0,true,q,false,true,0.0-2.0-0.14-0.126-3.126,1,1,0,81,false,stim,false,1,559.0,2,0,2,49494,WMM2,487864,false,false,562,image-keyboard-response,9
true,4,0,3,0,true,q,false,true,0.0-2.0-0.14-0.127-3.127,1,1,0,81,false,stim,false,0,702.9999999999418,2,1,0,49494,WMM2,490072,false,false,565,image-keyboard-response,10
true,4,0,3,0,true,q,false,true,0.0-2.0-0.14-0.128-3.128,1,1,0,81,false,stim,false,0,560.0,2,1,0,49494,WMM2,492136,false,false,568,image-keyboard-response,11
true,4,0,3,0,true,q,false,true,0.0-2.0-0.14-0.129-3.129,1,1,0,81,false,stim,false,1,983.0000000000582,2,0,2,49494,WMM2,494624,false,false,571,image-keyboard-response,12
true,4,0,3,0,true,q,false,true,0.0-2.0-0.14-0.130-3.130,1,1,0,81,false,stim,false,1,496.0000000000582,2,0,2,49494,WMM2,496624,false,false,574,image-keyboard-response,13
true,4,1,3,1,true,z,false,false,0.0-2.0-0.14-0.131-3.131,1,1,0,90,false,stim,false,1,1320.0,2,1,1,49494,WMM2,499448,false,true,577,image-keyboard-response,14
true,4,0,3,0,true,q,false,true,0.0-2.0-0.14-0.132-3.132,1,1,0,81,false,stim,false,0,648.0000000000582,2,1,0,49494,WMM2,501600,false,false,580,image-keyboard-response,15
true,4,2,3,1,false,z,true,true,0.0-2.0-0.14-0.133-3.133,1,1,0,68,false,stim,false,1,1391.0,2,1,1,49494,WMM2,504496,false,true,583,image-keyboard-response,16
true,4,2,3,1,false,z,true,false,0.0-2.0-0.14-0.134-3.134,1,1,0,68,false,stim,false,1,496.0,2,1,1,49494,WMM2,506496,false,false,586,image-keyboard-response,17
true,4,2,3,1,false,z,true,false,0.0-2.0-0.15-0.135-3.135,1,1,0,68,false,stim,false,1,479.0,2,1,1,49494,WMM2,508480,false,false,589,image-keyboard-response,18
true,4,1,3,0,false,q,false,false,0.0-2.0-0.15-0.136-3.136,1,1,0,90,false,stim,true,1,910.9999999999418,2,0,2,49494,WMM2,510896,false,false,592,image-keyboard-response,19
true,4,1,3,1,true,z,false,true,0.0-2.0-0.15-0.137-3.137,1,1,0,90,false,stim,false,1,1264.0,2,1,1,49494,WMM2,513664,false,false,595,image-keyboard-response,20
true,4,0,3,0,true,q,false,true,0.0-2.0-0.15-0.138-3.138,1,1,0,81,false,stim,false,0,606.9999999999418,2,1,0,49494,WMM2,515776,false,false,598,image-keyboard-response,21
true,4,0,3,0,true,q,false,true,0.0-2.0-0.15-0.139-3.139,1,1,0,81,false,stim,false,1,1829.0,2,0,2,49494,WMM2,519111,false,false,601,image-keyboard-response,22
true,4,0,3,0,true,q,false,true,0.0-2.0-0.15-0.140-3.140,1,1,0,81,false,stim,false,0,455.0000000000582,2,1,0,49494,WMM2,521071,false,false,604,image-keyboard-response,23
true,4,0,3,0,true,q,false,true,0.0-2.0-0.15-0.141-3.141,1,1,0,81,false,stim,false,1,471.9999999999418,2,0,2,49494,WMM2,523047,false,false,607,image-keyboard-response,24
true,4,2,3,1,false,z,true,false,0.0-2.0-0.15-0.142-3.142,1,1,0,68,false,stim,false,1,976.0,2,1,1,49494,WMM2,525527,false,false,610,image-keyboard-response,25
true,4,0,3,0,true,q,false,true,0.0-2.0-0.15-0.143-3.143,1,1,0,81,false,stim,false,0,615.0,2,1,0,49494,WMM2,527647,false,false,613,image-keyboard-response,26
true,4,2,3,0,false,q,true,false,0.0-2.0-0.16-0.144-3.144,1,1,0,68,false,stim,false,1,2399.0,2,0,2,49494,WMM2,531551,false,false,616,image-keyboard-response,27
true,4,0,3,0,true,q,false,false,0.0-2.0-0.16-0.145-3.145,1,1,0,81,false,stim,false,0,567.0,2,1,0,49494,WMM2,533623,false,true,619,image-keyboard-response,28
true,4,0,3,1,false,z,true,true,0.0-2.0-0.16-0.146-3.146,1,1,0,81,false,stim,false,1,815.0,2,1,1,49494,WMM2,535943,false,true,622,image-keyboard-response,29
true,4,0,3,0,true,q,false,true,0.0-2.0-0.16-0.147-3.147,1,1,0,81,false,stim,false,0,688.0,2,1,0,49494,WMM2,538135,false,false,625,image-keyboard-response,30
true,4,1,3,0,false,q,false,false,0.0-2.0-0.16-0.148-3.148,1,1,0,90,false,stim,true,1,855.0,2,0,2,49494,WMM2,540495,false,false,628,image-keyboard-response,31
true,4,0,3,0,true,q,false,true,0.0-2.0-0.16-0.149-3.149,1,1,0,81,false,stim,false,0,767.0,2,1,0,49494,WMM2,542767,false,false,631,image-keyboard-response,32
true,4,0,3,1,false,z,true,false,0.0-2.0-0.16-0.150-3.150,1,1,0,81,false,stim,false,1,1072.0000000001164,2,1,1,49494,WMM2,545343,false,false,634,image-keyboard-response,33
true,4,1,3,0,false,q,false,false,0.0-2.0-0.16-0.151-3.151,1,1,0,90,false,stim,true,1,1688.0000000001164,2,0,2,49494,WMM2,548535,false,false,637,image-keyboard-response,34
true,4,0,3,1,false,z,true,true,0.0-2.0-0.16-0.152-3.152,1,1,0,81,false,stim,false,1,872.0,2,1,1,49494,WMM2,550911,false,true,640,image-keyboard-response,35
true,4,0,3,0,true,q,false,false,0.0-2.0-0.17-0.153-3.153,1,1,0,81,false,stim,false,0,807.0,2,1,0,49494,WMM2,553223,false,true,643,image-keyboard-response,36
true,4,1,3,0,false,q,true,false,0.0-2.0-0.17-0.154-3.154,1,1,0,90,false,stim,false,0,815.0,2,1,0,49494,WMM2,555543,false,false,646,image-keyboard-response,37
true,4,2,3,0,false,q,true,false,0.0-2.0-0.17-0.155-3.155,1,1,0,68,false,stim,false,1,1087.0,2,0,2,49494,WMM2,558135,false,false,649,image-keyboard-response,38
true,4,0,3,0,true,q,false,true,0.0-2.0-0.17-0.156-3.156,1,1,0,81,false,stim,false,0,1464.0,2,1,0,49494,WMM2,561103,false,false,652,image-keyboard-response,39
true,4,1,3,1,true,z,false,true,0.0-2.0-0.17-0.157-3.157,1,1,0,90,false,stim,false,1,975.0000000001164,2,1,1,49494,WMM2,563583,false,false,655,image-keyboard-response,40
true,4,1,3,0,false,q,false,true,0.0-2.0-0.17-0.158-3.158,1,1,0,90,false,stim,true,1,1495.9999999998836,2,0,2,49494,WMM2,566583,false,true,658,image-keyboard-response,41
true,4,1,3,1,true,z,false,true,0.0-2.0-0.17-0.159-3.159,1,1,0,90,false,stim,false,1,510.9999999998836,2,1,1,49494,WMM2,568599,false,false,661,image-keyboard-response,42
true,4,1,3,0,false,q,false,false,0.0-2.0-0.17-0.160-3.160,1,1,0,90,false,stim,true,1,448.0,2,0,2,49494,WMM2,570551,false,false,664,image-keyboard-response,43
true,4,1,3,1,true,z,false,true,0.0-2.0-0.17-0.161-3.161,1,1,0,90,false,stim,false,1,687.0,2,1,1,49494,WMM2,572743,false,false,667,image-keyboard-response,44
true,4,0,3,0,true,q,false,true,0.0-2.0-0.18-0.162-3.162,1,1,0,81,false,stim,false,0,751.0,2,1,0,49494,WMM2,574999,false,false,670,image-keyboard-response,45
true,4,0,3,0,true,q,false,true,0.0-2.0-0.18-0.163-3.163,1,1,0,81,false,stim,false,0,456.0,2,1,0,49494,WMM2,576959,false,false,673,image-keyboard-response,46
true,4,1,3,1,true,z,false,true,0.0-2.0-0.18-0.164-3.164,1,1,0,90,false,stim,false,1,671.0,2,1,1,49494,WMM2,579135,false,false,676,image-keyboard-response,47
true,4,1,3,0,false,q,false,false,0.0-2.0-0.18-0.165-3.165,1,1,0,90,false,stim,true,1,721.0,2,0,2,49494,WMM2,581359,false,false,679,image-keyboard-response,48
true,4,2,3,0,false,q,true,true,0.0-2.0-0.18-0.166-3.166,1,1,0,68,false,stim,false,1,719.0000000001164,2,0,2,49494,WMM2,583583,false,true,682,image-keyboard-response,49
true,4,0,3,0,true,q,false,true,0.0-2.0-0.18-0.167-3.167,1,1,0,81,false,stim,false,0,542.9999999998836,2,1,0,49494,WMM2,585631,false,false,685,image-keyboard-response,50
true,4,2,3,0,false,q,true,false,0.0-2.0-0.18-0.168-3.168,1,1,0,68,false,stim,false,1,736.0,2,1,2,49494,WMM2,587871,false,false,688,image-keyboard-response,51
true,4,1,3,1,true,z,false,true,0.0-2.0-0.18-0.169-3.169,1,1,0,90,false,stim,false,1,920.0,2,1,1,49494,WMM2,590295,false,false,691,image-keyboard-response,52
true,4,1,3,1,true,z,false,true,0.0-2.0-0.18-0.170-3.170,1,1,0,90,false,stim,false,1,431.0,2,1,1,49494,WMM2,592231,false,false,694,image-keyboard-response,53
true,4,2,3,0,false,q,true,false,0.0-2.0-0.19-0.171-3.171,1,1,0,68,false,stim,false,1,1391.0,2,1,2,49494,WMM2,595127,false,false,697,image-keyboard-response,54
true,4,1,3,1,true,z,false,true,0.0-2.0-0.19-0.172-3.172,1,1,0,90,false,stim,false,1,783.0000000001164,2,1,1,49494,WMM2,597415,false,false,700,image-keyboard-response,55
true,4,0,3,0,true,q,false,true,0.0-2.0-0.19-0.173-3.173,1,1,0,81,false,stim,false,0,589.0000000001164,2,0,0,49494,WMM2,599511,false,false,703,image-keyboard-response,56
true,4,0,3,0,true,q,false,true,0.0-2.0-0.19-0.174-3.174,1,1,0,81,false,stim,false,1,520.0000000001164,2,1,2,49494,WMM2,601534,false,false,706,image-keyboard-response,57
true,4,1,3,1,true,z,false,true,0.0-2.0-0.19-0.175-3.175,1,1,0,90,false,stim,false,1,598.0,2,1,1,49494,WMM2,603639,false,false,709,image-keyboard-response,58
true,4,0,3,0,true,q,false,true,0.0-2.0-0.19-0.176-3.176,1,1,0,81,false,stim,false,0,535.0,2,0,0,49494,WMM2,605679,false,false,712,image-keyboard-response,59
true,4,0,3,0,true,q,false,false,0.0-2.0-0.19-0.177-3.177,1,1,0,81,false,stim,false,1,647.0,2,1,2,49494,WMM2,607831,false,true,715,image-keyboard-response,60
true,5,1,2,1,true,z,false,true,0.0-2.0-0.19-0.178-3.178,0,1,1,90,true,stim,false,1,671.0,2,1,1,49494,WMM2,610007,false,false,718,image-keyboard-response,1
true,5,0,2,2,false,d,false,false,0.0-2.0-0.19-0.179-3.179,0,1,1,81,false,stim,true,0,663.0,2,0,0,49494,WMM2,612175,false,false,721,image-keyboard-response,2
true,5,0,2,0,true,q,false,false,0.0-2.0-0.20-0.180-3.180,0,1,1,81,false,stim,false,0,1894.0,2,1,2,49494,WMM2,615574,false,true,724,image-keyboard-response,3
true,5,1,2,0,false,q,true,true,0.0-2.0-0.20-0.181-3.181,0,1,1,90,false,stim,false,0,687.0,2,1,2,49494,WMM2,617766,false,true,727,image-keyboard-response,4
true,5,1,2,0,false,q,true,false,0.0-2.0-0.20-0.182-3.182,0,1,1,90,false,stim,false,0,631.0,2,1,2,49494,WMM2,619902,false,false,730,image-keyboard-response,5
true,5,1,2,1,true,z,false,false,0.0-2.0-0.20-0.183-3.183,0,1,1,90,false,stim,false,1,967.0,2,1,1,49494,WMM2,622374,false,true,733,image-keyboard-response,6
true,5,0,2,2,false,d,false,false,0.0-2.0-0.20-0.184-3.184,0,1,1,81,false,stim,true,0,992.0,2,0,0,49494,WMM2,624870,false,false,736,image-keyboard-response,7
true,5,1,2,2,false,d,true,false,0.0-2.0-0.20-0.185-3.185,0,1,1,90,false,stim,false,0,1023.0,2,0,0,49494,WMM2,627398,false,false,739,image-keyboard-response,8
true,5,2,2,1,false,z,true,false,0.0-2.0-0.20-0.186-3.186,0,1,1,68,false,stim,false,1,1823.0,2,1,1,49494,WMM2,630726,false,false,742,image-keyboard-response,9
true,5,1,2,1,true,z,false,true,0.0-2.0-0.20-0.187-3.187,0,1,1,90,false,stim,false,1,958.0,2,1,1,49494,WMM2,633190,false,false,745,image-keyboard-response,10
true,5,2,2,2,true,d,false,true,0.0-2.0-0.20-0.188-3.188,0,1,1,68,false,stim,false,0,2144.0,2,0,0,49494,WMM2,636838,false,false,748,image-keyboard-response,11
true,5,2,2,2,true,d,false,true,0.0-2.0-0.21-0.189-3.189,0,1,1,68,false,stim,false,0,519.0,2,0,0,49494,WMM2,638862,false,false,751,image-keyboard-response,12
true,5,2,2,0,false,q,true,false,0.0-2.0-0.21-0.190-3.190,0,1,1,68,false,stim,false,0,1023.0000000001164,2,1,2,49494,WMM2,641390,false,false,754,image-keyboard-response,13
true,5,2,2,2,true,d,false,true,0.0-2.0-0.21-0.191-3.191,0,1,1,68,false,stim,false,0,688.0000000001164,2,0,0,49494,WMM2,643582,false,false,757,image-keyboard-response,14
true,5,1,2,0,false,q,true,false,0.0-2.0-0.21-0.192-3.192,0,1,1,90,false,stim,false,0,894.9999999998836,2,1,2,49494,WMM2,645982,false,false,760,image-keyboard-response,15
true,5,1,2,1,true,z,false,true,0.0-2.0-0.21-0.193-3.193,0,1,1,90,false,stim,false,1,911.9999999998836,2,1,1,49494,WMM2,648398,false,false,763,image-keyboard-response,16
true,5,1,2,1,true,z,false,true,0.0-2.0-0.21-0.194-3.194,0,1,1,90,false,stim,false,1,431.0,2,1,1,49494,WMM2,650334,false,false,766,image-keyboard-response,17
true,5,1,2,1,true,z,false,true,0.0-2.0-0.21-0.195-3.195,0,1,1,90,false,stim,false,1,414.0,2,1,1,49494,WMM2,652254,false,false,769,image-keyboard-response,18
true,5,2,2,2,true,d,false,false,0.0-2.0-0.21-0.196-3.196,0,1,1,68,false,stim,false,0,728.0000000001164,2,0,0,49494,WMM2,654486,false,true,772,image-keyboard-response,19
true,5,1,2,0,false,q,true,false,0.0-2.0-0.21-0.197-3.197,0,1,1,90,false,stim,false,0,360.0,2,1,2,49494,WMM2,656350,false,false,775,image-keyboard-response,20
true,5,0,2,0,true,q,false,true,0.0-2.0-0.22-0.198-3.198,0,1,1,81,false,stim,false,0,429.9999999998836,2,1,2,49494,WMM2,658286,false,false,778,image-keyboard-response,21
true,5,1,2,1,true,z,false,true,0.0-2.0-0.22-0.199-3.199,0,1,1,90,false,stim,false,1,656.0,2,1,1,49494,WMM2,660446,false,false,781,image-keyboard-response,22
true,5,0,2,0,true,q,false,true,0.0-2.0-0.22-0.200-3.200,0,1,1,81,false,stim,false,0,639.0,2,1,2,49494,WMM2,662590,false,false,784,image-keyboard-response,23
true,5,2,2,2,true,d,false,true,0.0-2.0-0.22-0.201-3.201,0,1,1,68,false,stim,false,0,1159.0,2,0,0,49494,WMM2,665254,false,false,787,image-keyboard-response,24
true,5,1,2,1,true,z,false,true,0.0-2.0-0.22-0.202-3.202,0,1,1,90,false,stim,false,1,717.9999999998836,2,1,1,49494,WMM2,667478,false,false,790,image-keyboard-response,25
true,5,0,2,0,true,q,false,true,0.0-2.0-0.22-0.203-3.203,0,1,1,81,false,stim,false,0,544.0,2,0,2,49494,WMM2,669526,false,false,793,image-keyboard-response,26
true,5,2,2,2,true,d,false,true,0.0-2.0-0.22-0.204-3.204,0,1,1,68,false,stim,false,0,535.0,2,0,0,49494,WMM2,671566,false,false,796,image-keyboard-response,27
true,5,1,2,1,true,z,false,false,0.0-2.0-0.22-0.205-3.205,0,1,1,90,false,stim,false,1,655.0,2,1,1,49494,WMM2,673726,false,true,799,image-keyboard-response,28
true,5,2,2,2,true,d,false,true,0.0-2.0-0.22-0.206-3.206,0,1,1,68,false,stim,false,0,621.0,2,0,0,49494,WMM2,675854,false,false,802,image-keyboard-response,29
true,5,0,2,0,true,q,false,true,0.0-2.0-0.23-0.207-3.207,0,1,1,81,false,stim,false,0,552.0,2,0,2,49494,WMM2,677910,false,false,805,image-keyboard-response,30
true,5,1,2,1,true,z,false,true,0.0-2.0-0.23-0.208-3.208,0,1,1,90,false,stim,false,1,487.0,2,1,1,49494,WMM2,679902,false,false,808,image-keyboard-response,31
true,5,0,2,0,true,q,false,true,0.0-2.0-0.23-0.209-3.209,0,1,1,81,false,stim,false,0,631.0,2,0,2,49494,WMM2,682038,false,false,811,image-keyboard-response,32
true,5,1,2,1,true,z,false,true,0.0-2.0-0.23-0.210-3.210,0,1,1,90,false,stim,false,1,480.0,2,1,1,49494,WMM2,684022,false,false,814,image-keyboard-response,33
true,6,2,1,1,false,z,false,false,0.0-2.0-0.23-0.211-3.211,0,1,0,68,true,stim,true,2,583.0,2,0,0,49494,WMM2,686110,false,false,817,image-keyboard-response,1
true,6,2,1,1,false,z,false,false,0.0-2.0-0.23-0.212-3.212,0,1,0,68,false,stim,true,2,448.0000000001164,2,0,0,49494,WMM2,688062,false,false,820,image-keyboard-response,2
true,6,1,1,1,true,z,false,true,0.0-2.0-0.23-0.213-3.213,0,1,0,90,false,stim,false,2,536.0,2,0,0,49494,WMM2,690102,false,false,823,image-keyboard-response,3
true,6,0,1,2,false,d,false,false,0.0-2.0-0.23-0.214-3.214,0,1,0,81,false,stim,true,0,607.0,2,0,2,49494,WMM2,692214,false,false,826,image-keyboard-response,4
true,6,1,1,1,true,z,false,true,0.0-2.0-0.23-0.215-3.215,0,1,0,90,false,stim,false,1,606.0,2,1,1,49494,WMM2,694326,false,false,829,image-keyboard-response,5
true,6,1,1,1,true,z,false,true,0.0-2.0-0.24-0.216-3.216,0,1,0,90,false,stim,false,2,399.0,2,0,0,49494,WMM2,696230,false,false,832,image-keyboard-response,6
true,6,0,1,2,false,d,false,false,0.0-2.0-0.24-0.217-3.217,0,1,0,81,false,stim,true,0,912.0,2,0,2,49494,WMM2,698646,false,false,835,image-keyboard-response,7
true,6,1,1,1,true,z,false,true,0.0-2.0-0.24-0.218-3.218,0,1,0,90,false,stim,false,2,623.0,2,0,0,49494,WMM2,700773,false,false,838,image-keyboard-response,8
true,6,1,1,1,true,z,false,true,0.0-2.0-0.24-0.219-3.219,0,1,0,90,false,stim,false,2,454.9999999998836,2,0,0,49494,WMM2,702734,false,false,841,image-keyboard-response,9
true,6,1,1,1,true,z,false,true,0.0-2.0-0.24-0.220-3.220,0,1,0,90,false,stim,false,1,744.0,2,1,1,49494,WMM2,704982,false,false,844,image-keyboard-response,10
true,6,2,1,2,true,d,false,true,0.0-2.0-0.24-0.221-3.221,0,1,0,68,false,stim,false,0,895.0,2,0,2,49494,WMM2,707381,false,false,847,image-keyboard-response,11
true,6,1,1,1,true,z,false,true,0.0-2.0-0.24-0.222-3.222,0,1,0,90,false,stim,false,1,615.0,2,1,1,49494,WMM2,709501,false,false,850,image-keyboard-response,12
true,6,1,1,1,true,z,false,true,0.0-2.0-0.24-0.223-3.223,0,1,0,90,false,stim,false,1,399.0,2,1,1,49494,WMM2,711405,false,false,853,image-keyboard-response,13
true,6,2,1,2,true,d,false,true,0.0-2.0-0.24-0.224-3.224,0,1,0,68,false,stim,false,0,759.0,2,0,2,49494,WMM2,713669,false,false,856,image-keyboard-response,14
true,6,1,1,1,true,z,false,true,0.0-2.0-0.25-0.225-3.225,0,1,0,90,false,stim,false,2,816.0,2,0,0,49494,WMM2,715989,false,false,859,image-keyboard-response,15
true,6,1,1,1,true,z,false,true,0.0-2.0-0.25-0.226-3.226,0,1,0,90,false,stim,false,2,485.0,2,0,0,49494,WMM2,717981,false,false,862,image-keyboard-response,16
true,6,1,1,1,true,z,false,true,0.0-2.0-0.25-0.227-3.227,0,1,0,90,false,stim,false,1,1215.9999999998836,2,1,1,49494,WMM2,720701,false,false,865,image-keyboard-response,17
true,6,2,1,2,true,d,false,true,0.0-2.0-0.25-0.228-3.228,0,1,0,68,false,stim,false,0,630.9999999998836,2,0,2,49494,WMM2,722837,false,false,868,image-keyboard-response,18
true,6,1,1,1,true,z,false,true,0.0-2.0-0.25-0.229-3.229,0,1,0,90,false,stim,false,1,663.0,2,1,1,49494,WMM2,725005,false,false,871,image-keyboard-response,19
true,6,2,1,2,true,d,false,true,0.0-2.0-0.25-0.230-3.230,0,1,0,68,false,stim,false,0,519.0,2,0,2,49494,WMM2,727029,false,false,874,image-keyboard-response,20
true,6,1,1,1,true,z,false,true,0.0-2.0-0.25-0.231-3.231,0,1,0,90,false,stim,false,1,527.0,2,1,1,49494,WMM2,729061,false,false,877,image-keyboard-response,21
true,6,2,1,2,true,d,false,true,0.0-2.0-0.25-0.232-3.232,0,1,0,68,false,stim,false,0,551.0,2,0,2,49494,WMM2,731117,false,false,880,image-keyboard-response,22
true,6,1,1,1,true,z,false,true,0.0-2.0-0.25-0.233-3.233,0,1,0,90,false,stim,false,2,703.0,2,1,0,49494,WMM2,733325,false,false,883,image-keyboard-response,23
true,6,1,1,1,true,z,false,true,0.0-2.0-0.26-0.234-3.234,0,1,0,90,false,stim,false,2,431.0,2,1,0,49494,WMM2,735261,false,false,886,image-keyboard-response,24
true,6,2,1,2,true,d,false,true,0.0-2.0-0.26-0.235-3.235,0,1,0,68,false,stim,false,0,568.0,2,0,2,49494,WMM2,737333,false,false,889,image-keyboard-response,25
true,6,2,1,2,true,d,false,true,0.0-2.0-0.26-0.236-3.236,0,1,0,68,false,stim,false,0,638.0,2,0,2,49494,WMM2,739477,false,false,892,image-keyboard-response,26
true,6,1,1,1,true,z,false,true,0.0-2.0-0.26-0.237-3.237,0,1,0,90,false,stim,false,1,951.0,2,1,1,49494,WMM2,741933,false,false,895,image-keyboard-response,27
true,6,1,1,1,true,z,false,true,0.0-2.0-0.26-0.238-3.238,0,1,0,90,false,stim,false,1,463.0,2,1,1,49494,WMM2,743901,false,false,898,image-keyboard-response,28
true,6,2,1,2,true,d,false,true,0.0-2.0-0.26-0.239-3.239,0,1,0,68,false,stim,false,0,532.9999999998836,2,0,2,49494,WMM2,745941,false,false,901,image-keyboard-response,29
true,6,1,1,1,true,z,false,false,0.0-2.0-0.26-0.240-3.240,0,1,0,90,false,stim,false,1,607.0,2,1,1,49494,WMM2,748053,false,true,904,image-keyboard-response,30
true,7,1,4,1,true,z,false,true,0.0-2.0-0.26-0.241-3.241,1,1,0,90,true,stim,false,1,543.9999999998836,2,1,0,49494,WMM2,750101,false,false,907,image-keyboard-response,1
true,7,1,4,1,true,z,false,true,0.0-2.0-0.26-0.242-3.242,1,1,0,90,false,stim,false,1,543.0,2,1,0,49494,WMM2,752149,false,false,910,image-keyboard-response,2
true,7,1,4,1,true,z,false,true,0.0-2.0-0.27-0.243-3.243,1,1,0,90,false,stim,false,1,640.0,2,1,1,49494,WMM2,754293,false,false,913,image-keyboard-response,3
true,7,1,4,1,true,z,false,true,0.0-2.0-0.27-0.244-3.244,1,1,0,90,false,stim,false,1,344.0,2,1,1,49494,WMM2,756141,false,false,916,image-keyboard-response,4
true,7,1,4,1,true,z,false,true,0.0-2.0-0.27-0.245-3.245,1,1,0,90,false,stim,false,1,567.0,2,1,0,49494,WMM2,758213,false,false,919,image-keyboard-response,5
true,7,1,4,1,true,z,false,false,0.0-2.0-0.27-0.246-3.246,1,1,0,90,false,stim,false,1,535.0,2,1,0,49494,WMM2,760253,false,true,922,image-keyboard-response,6
true,7,1,4,1,true,z,false,false,0.0-2.0-0.27-0.247-3.247,1,1,0,90,false,stim,false,1,441.0,2,1,0,49494,WMM2,762197,false,true,925,image-keyboard-response,7
true,7,2,4,2,true,d,false,true,0.0-2.0-0.27-0.248-3.248,1,1,0,68,false,stim,false,2,911.0,2,0,2,49494,WMM2,764613,false,false,928,image-keyboard-response,8
true,7,2,4,2,true,d,false,true,0.0-2.0-0.27-0.249-3.249,1,1,0,68,false,stim,false,2,431.0,2,0,2,49494,WMM2,766549,false,false,931,image-keyboard-response,9
true,7,2,4,2,true,d,false,true,0.0-2.0-0.27-0.250-3.250,1,1,0,68,false,stim,false,2,496.0,2,0,2,49494,WMM2,768549,false,false,934,image-keyboard-response,10
true,7,1,4,1,true,z,false,true,0.0-2.0-0.27-0.251-3.251,1,1,0,90,false,stim,false,1,831.0,2,1,1,49494,WMM2,770885,false,false,937,image-keyboard-response,11
true,7,1,4,1,true,z,false,false,0.0-2.0-0.28-0.252-3.252,1,1,0,90,false,stim,false,1,392.0,2,1,1,49494,WMM2,772781,false,true,940,image-keyboard-response,12
true,7,2,4,2,true,d,false,true,0.0-2.0-0.28-0.253-3.253,1,1,0,68,false,stim,false,2,1135.0,2,0,2,49494,WMM2,775421,false,false,943,image-keyboard-response,13
true,7,1,4,1,true,z,false,true,0.0-2.0-0.28-0.254-3.254,1,1,0,90,false,stim,false,1,597.9999999998836,2,1,0,49494,WMM2,777525,false,false,946,image-keyboard-response,14
true,7,1,4,1,true,z,false,false,0.0-2.0-0.28-0.255-3.255,1,1,0,90,false,stim,false,1,1735.0,2,1,1,49494,WMM2,780765,false,true,949,image-keyboard-response,15
true,7,1,4,1,true,z,false,true,0.0-2.0-0.28-0.256-3.256,1,1,0,90,false,stim,false,1,632.0,2,1,0,49494,WMM2,782901,false,false,952,image-keyboard-response,16
true,7,2,4,2,true,d,false,true,0.0-2.0-0.28-0.257-3.257,1,1,0,68,false,stim,false,2,600.0,2,0,2,49494,WMM2,785005,false,false,955,image-keyboard-response,17
true,7,2,4,2,true,d,false,true,0.0-2.0-0.28-0.258-3.258,1,1,0,68,false,stim,false,2,510.0,2,0,2,49494,WMM2,787020,false,false,958,image-keyboard-response,18
true,7,1,4,1,true,z,false,false,0.0-2.0-0.28-0.259-3.259,1,1,0,90,false,stim,false,1,592.0,2,1,0,49494,WMM2,789117,false,true,961,image-keyboard-response,19
true,7,0,4,1,false,z,true,false,0.0-2.0-0.28-0.260-3.260,1,1,0,81,false,stim,false,1,881.0,2,1,1,49494,WMM2,791501,false,false,964,image-keyboard-response,20
true,7,1,4,1,true,z,false,false,0.0-2.0-0.29-0.261-3.261,1,1,0,90,false,stim,false,1,950.0,2,1,0,49494,WMM2,793957,false,true,967,image-keyboard-response,21
true,7,2,4,2,true,d,false,true,0.0-2.0-0.29-0.262-3.262,1,1,0,68,false,stim,false,2,838.0,2,0,2,49494,WMM2,796300,false,false,970,image-keyboard-response,22
true,7,2,4,1,false,z,true,false,0.0-2.0-0.29-0.263-3.263,1,1,0,68,false,stim,false,1,909.9999999998836,2,1,1,49494,WMM2,798717,false,false,973,image-keyboard-response,23
true,7,2,4,2,true,d,false,true,0.0-2.0-0.29-0.264-3.264,1,1,0,68,false,stim,false,2,663.0,2,0,2,49494,WMM2,800885,false,false,976,image-keyboard-response,24
true,7,1,4,1,true,z,false,true,0.0-2.0-0.29-0.265-3.265,1,1,0,90,false,stim,false,1,991.0,2,1,0,49494,WMM2,803380,false,false,979,image-keyboard-response,25
true,7,2,4,2,true,d,false,false,0.0-2.0-0.29-0.266-3.266,1,1,0,68,false,stim,false,2,790.0000000001164,2,0,2,49494,WMM2,805676,false,true,982,image-keyboard-response,26
true,7,1,4,1,true,z,false,true,0.0-2.0-0.29-0.267-3.267,1,1,0,90,false,stim,false,1,631.0,2,1,0,49494,WMM2,807812,false,false,985,image-keyboard-response,27
true,7,2,4,1,false,z,true,false,0.0-2.0-0.29-0.268-3.268,1,1,0,68,false,stim,false,1,775.0,2,1,1,49494,WMM2,810092,false,false,988,image-keyboard-response,28
true,7,1,4,1,true,z,false,true,0.0-2.0-0.29-0.269-3.269,1,1,0,90,false,stim,false,1,623.0,2,1,1,49494,WMM2,812220,false,false,991,image-keyboard-response,29
true,7,1,4,1,true,z,false,true,0.0-2.0-0.30-0.270-3.270,1,1,0,90,false,stim,false,1,383.0000000001164,2,1,1,49494,WMM2,814108,false,false,994,image-keyboard-response,30
true,7,1,4,1,true,z,false,true,0.0-2.0-0.30-0.271-3.271,1,1,0,90,false,stim,false,1,565.9999999998836,2,0,0,49494,WMM2,816180,false,false,997,image-keyboard-response,31
true,7,2,4,2,true,d,false,true,0.0-2.0-0.30-0.272-3.272,1,1,0,68,false,stim,false,2,1015.0000000001164,2,0,2,49494,WMM2,818700,false,false,1000,image-keyboard-response,32
true,7,1,4,1,true,z,false,true,0.0-2.0-0.30-0.273-3.273,1,1,0,90,false,stim,false,1,548.0,2,0,0,49494,WMM2,820756,false,false,1003,image-keyboard-response,33
true,7,1,4,1,true,z,false,false,0.0-2.0-0.30-0.274-3.274,1,1,0,90,false,stim,false,1,424.0,2,1,1,49494,WMM2,822684,false,true,1006,image-keyboard-response,34
true,7,1,4,1,true,z,false,true,0.0-2.0-0.30-0.275-3.275,1,1,0,90,false,stim,false,1,1080.0,2,1,1,49494,WMM2,825268,false,false,1009,image-keyboard-response,35
true,7,2,4,2,true,d,false,true,0.0-2.0-0.30-0.276-3.276,1,1,0,68,false,stim,false,2,856.0000000001164,2,0,2,49494,WMM2,827628,false,false,1012,image-keyboard-response,36
true,7,2,4,2,true,d,false,false,0.0-2.0-0.30-0.277-3.277,1,1,0,68,false,stim,false,2,670.0,2,0,2,49494,WMM2,829804,false,true,1015,image-keyboard-response,37
true,7,1,4,1,true,z,false,false,0.0-2.0-0.30-0.278-3.278,1,1,0,90,false,stim,false,1,511.0,2,0,0,49494,WMM2,831820,false,true,1018,image-keyboard-response,38
true,7,1,4,1,true,z,false,true,0.0-2.0-0.31-0.279-3.279,1,1,0,90,false,stim,false,1,614.9999999998836,2,1,1,49494,WMM2,833940,false,false,1021,image-keyboard-response,39
true,7,2,4,2,true,d,false,true,0.0-2.0-0.31-0.280-3.280,1,1,0,68,false,stim,false,2,863.0,2,0,2,49494,WMM2,836308,false,false,1024,image-keyboard-response,40
true,8,2,1,1,false,z,false,false,0.0-2.0-0.31-0.281-3.281,0,1,0,68,true,stim,true,2,448.0,2,0,2,49494,WMM2,838260,false,false,1027,image-keyboard-response,1
true,8,1,1,2,false,d,false,true,0.0-2.0-0.31-0.282-3.282,0,1,0,90,false,stim,true,1,561.0000000001164,2,0,0,49494,WMM2,840325,false,true,1030,image-keyboard-response,2
true,8,1,1,2,false,d,false,false,0.0-2.0-0.31-0.283-3.283,0,1,0,90,false,stim,true,1,477.9999999998836,2,0,0,49494,WMM2,842308,false,false,1033,image-keyboard-response,3
true,8,2,1,1,false,z,false,false,0.0-2.0-0.31-0.284-3.284,0,1,0,68,false,stim,true,2,1000.0,2,0,2,49494,WMM2,844812,false,false,1036,image-keyboard-response,4
true,8,1,1,1,true,z,false,true,0.0-2.0-0.31-0.285-3.285,0,1,0,90,false,stim,false,1,808.0,2,1,1,49494,WMM2,847124,false,false,1039,image-keyboard-response,5
true,8,1,1,2,false,d,false,true,0.0-2.0-0.31-0.286-3.286,0,1,0,90,false,stim,true,1,655.0,2,0,0,49494,WMM2,849284,false,true,1042,image-keyboard-response,6
true,8,1,1,1,true,z,false,true,0.0-2.0-0.31-0.287-3.287,0,1,0,90,false,stim,false,1,455.0,2,1,1,49494,WMM2,851244,false,false,1045,image-keyboard-response,7
true,8,2,1,1,false,z,false,false,0.0-2.0-0.32-0.288-3.288,0,1,0,68,false,stim,true,2,847.9999999998836,2,0,2,49494,WMM2,853596,false,false,1048,image-keyboard-response,8
true,8,1,1,1,true,z,false,true,0.0-2.0-0.32-0.289-3.289,0,1,0,90,false,stim,false,1,655.0,2,1,1,49494,WMM2,855756,false,false,1051,image-keyboard-response,9
true,8,1,1,2,false,d,false,false,0.0-2.0-0.32-0.290-3.290,0,1,0,90,false,stim,true,1,463.0000000001164,2,0,0,49494,WMM2,857724,false,false,1054,image-keyboard-response,10
true,8,0,1,1,false,z,true,false,0.0-2.0-0.32-0.291-3.291,0,1,0,81,false,stim,false,2,1310.9999999998836,2,0,2,49494,WMM2,860540,false,false,1057,image-keyboard-response,11
true,8,1,1,1,true,z,false,true,0.0-2.0-0.32-0.292-3.292,0,1,0,90,false,stim,false,1,711.0,2,1,1,49494,WMM2,862756,false,false,1060,image-keyboard-response,12
true,8,1,1,1,true,z,false,true,0.0-2.0-0.32-0.293-3.293,0,1,0,90,false,stim,false,1,519.0,2,1,1,49494,WMM2,864780,false,false,1063,image-keyboard-response,13
true,8,2,1,1,false,z,false,false,0.0-2.0-0.32-0.294-3.294,0,1,0,68,false,stim,true,2,983.0,2,0,2,49494,WMM2,867268,false,false,1066,image-keyboard-response,14
true,8,1,1,2,false,d,false,false,0.0-2.0-0.32-0.295-3.295,0,1,0,90,false,stim,true,1,656.0,2,0,0,49494,WMM2,869428,false,false,1069,image-keyboard-response,15
true,8,1,1,2,false,d,false,true,0.0-2.0-0.32-0.296-3.296,0,1,0,90,false,stim,true,1,384.0,2,0,0,49494,WMM2,871316,false,true,1072,image-keyboard-response,16
true,8,1,1,2,false,d,false,false,0.0-2.0-0.33-0.297-3.297,0,1,0,90,false,stim,true,1,390.0,2,0,0,49494,WMM2,873212,false,false,1075,image-keyboard-response,17
true,8,1,1,1,true,z,false,true,0.0-2.0-0.33-0.298-3.298,0,1,0,90,false,stim,false,1,1079.0,2,1,1,49494,WMM2,875796,false,false,1078,image-keyboard-response,18
true,8,1,1,1,true,z,false,true,0.0-2.0-0.33-0.299-3.299,0,1,0,90,false,stim,false,1,352.0000000001164,2,1,1,49494,WMM2,877652,false,false,1081,image-keyboard-response,19
true,8,2,1,1,false,z,false,false,0.0-2.0-0.33-0.300-3.300,0,1,0,68,false,stim,true,2,702.9999999998836,2,0,2,49494,WMM2,879860,false,false,1084,image-keyboard-response,20
true,8,1,1,2,false,d,false,false,0.0-2.0-0.33-0.301-3.301,0,1,0,90,false,stim,true,1,590.0,2,0,0,49494,WMM2,881956,false,false,1087,image-keyboard-response,21
true,8,1,1,1,true,z,false,true,0.0-2.0-0.33-0.302-3.302,0,1,0,90,false,stim,false,2,847.0,2,0,2,49494,WMM2,884308,false,false,1090,image-keyboard-response,22
true,8,1,1,1,true,z,false,true,0.0-2.0-0.33-0.303-3.303,0,1,0,90,false,stim,false,2,463.0,2,0,2,49494,WMM2,886276,false,false,1093,image-keyboard-response,23
true,8,1,1,2,false,d,false,false,0.0-2.0-0.33-0.304-3.304,0,1,0,90,false,stim,true,1,655.0000000001164,2,0,0,49494,WMM2,888435,false,false,1096,image-keyboard-response,24
true,8,1,1,1,true,z,false,true,0.0-2.0-0.33-0.305-3.305,0,1,0,90,false,stim,false,1,575.0,2,1,1,49494,WMM2,890515,false,false,1099,image-keyboard-response,25
true,8,1,1,1,true,z,false,true,0.0-2.0-0.34-0.306-3.306,0,1,0,90,false,stim,false,1,387.0000000001164,2,1,1,49494,WMM2,892411,false,false,1102,image-keyboard-response,26
true,8,1,1,1,true,z,false,false,0.0-2.0-0.34-0.307-3.307,0,1,0,90,false,stim,false,2,367.0,2,0,2,49494,WMM2,894283,false,true,1105,image-keyboard-response,27
true,8,1,1,1,true,z,false,true,0.0-2.0-0.34-0.308-3.308,0,1,0,90,false,stim,false,2,343.0,2,0,2,49494,WMM2,896131,false,false,1108,image-keyboard-response,28
true,8,1,1,1,true,z,false,true,0.0-2.0-0.34-0.309-3.309,0,1,0,90,false,stim,false,2,421.9999999998836,2,0,2,49494,WMM2,898059,false,false,1111,image-keyboard-response,29
true,8,1,1,2,false,d,false,false,0.0-2.0-0.34-0.310-3.310,0,1,0,90,false,stim,true,1,454.0,2,0,0,49494,WMM2,900019,false,false,1114,image-keyboard-response,30
true,8,0,1,2,false,d,true,true,0.0-2.0-0.34-0.311-3.311,0,1,0,81,false,stim,false,1,456.0,2,0,0,49494,WMM2,901979,false,true,1117,image-keyboard-response,31
true,8,1,1,1,true,z,false,false,0.0-2.0-0.34-0.312-3.312,0,1,0,90,false,stim,false,1,551.9999999998836,2,1,1,49494,WMM2,904035,false,true,1120,image-keyboard-response,32
true,8,1,1,1,true,z,false,true,0.0-2.0-0.34-0.313-3.313,0,1,0,90,false,stim,false,1,368.0,2,1,1,49494,WMM2,905907,false,false,1123,image-keyboard-response,33
true,8,1,1,2,false,d,false,false,0.0-2.0-0.34-0.314-3.314,0,1,0,90,false,stim,true,1,486.0,2,0,0,49494,WMM2,907899,false,false,1126,image-keyboard-response,34
true,8,1,1,1,true,z,false,true,0.0-2.0-0.35-0.315-3.315,0,1,0,90,false,stim,false,2,711.0,2,0,2,49494,WMM2,910115,false,false,1129,image-keyboard-response,35
true,8,1,1,1,true,z,false,true,0.0-2.0-0.35-0.316-3.316,0,1,0,90,false,stim,false,1,750.0,2,1,1,49494,WMM2,912371,false,false,1132,image-keyboard-response,36
true,8,1,1,1,true,z,false,false,0.0-2.0-0.35-0.317-3.317,0,1,0,90,false,stim,false,1,397.0,2,1,1,49494,WMM2,914275,false,true,1135,image-keyboard-response,37
true,8,0,1,2,false,d,true,false,0.0-2.0-0.35-0.318-3.318,0,1,0,81,false,stim,false,1,525.9999999998836,2,0,0,49494,WMM2,916307,false,false,1138,image-keyboard-response,38
true,8,1,1,1,true,z,false,true,0.0-2.0-0.35-0.319-3.319,0,1,0,90,false,stim,false,1,783.0,2,1,1,49494,WMM2,918595,false,false,1141,image-keyboard-response,39
true,8,1,1,1,true,z,false,true,0.0-2.0-0.35-0.320-3.320,0,1,0,90,false,stim,false,2,1183.0,2,0,2,49494,WMM2,921283,false,false,1144,image-keyboard-response,40
true,8,0,1,2,false,d,true,true,0.0-2.0-0.35-0.321-3.321,0,1,0,81,false,stim,false,1,710.0,2,0,0,49494,WMM2,923499,false,true,1147,image-keyboard-response,41
true,8,0,1,2,false,d,true,false,0.0-2.0-0.35-0.322-3.322,0,1,0,81,false,stim,false,1,383.0000000001164,2,0,0,49494,WMM2,925387,false,false,1150,image-keyboard-response,42
true,8,1,1,1,true,z,false,true,0.0-2.0-0.35-0.323-3.323,0,1,0,90,false,stim,false,2,535.0,2,0,2,49494,WMM2,927427,false,false,1153,image-keyboard-response,43
true,8,0,1,2,false,d,true,false,0.0-2.0-0.36-0.324-3.324,0,1,0,81,false,stim,false,1,630.0,2,0,0,49494,WMM2,929563,false,false,1156,image-keyboard-response,44
true,8,1,1,1,true,z,false,true,0.0-2.0-0.36-0.325-3.325,0,1,0,90,false,stim,false,2,727.0,2,0,2,49494,WMM2,931795,false,false,1159,image-keyboard-response,45
true,8,1,1,1,true,z,false,true,0.0-2.0-0.36-0.326-3.326,0,1,0,90,false,stim,false,1,734.9999999998836,2,1,1,49494,WMM2,934035,false,false,1162,image-keyboard-response,46
true,8,1,1,1,true,z,false,true,0.0-2.0-0.36-0.327-3.327,0,1,0,90,false,stim,false,2,718.0,2,0,2,49494,WMM2,936259,false,false,1165,image-keyboard-response,47
true,8,1,1,1,true,z,false,false,0.0-2.0-0.36-0.328-3.328,0,1,0,90,false,stim,false,2,519.0,2,0,2,49494,WMM2,938283,false,true,1168,image-keyboard-response,48
true,8,0,1,2,false,d,true,false,0.0-2.0-0.36-0.329-3.329,0,1,0,81,false,stim,false,1,606.0,2,0,0,49494,WMM2,940395,false,false,1171,image-keyboard-response,49
true,8,1,1,1,true,z,false,true,0.0-2.0-0.36-0.330-3.330,0,1,0,90,false,stim,false,1,543.0,2,1,1,49494,WMM2,942443,false,false,1174,image-keyboard-response,50
true,8,1,1,1,true,z,false,false,0.0-2.0-0.36-0.331-3.331,0,1,0,90,false,stim,false,1,429.9999999998836,2,1,1,49494,WMM2,944379,false,true,1177,image-keyboard-response,51
true,8,1,1,2,false,d,false,false,0.0-2.0-0.36-0.332-3.332,0,1,0,90,false,stim,true,1,878.0,2,0,0,49494,WMM2,946763,false,false,1180,image-keyboard-response,52
true,8,1,1,1,true,z,false,true,0.0-2.0-0.37-0.333-3.333,0,1,0,90,false,stim,false,1,655.0,2,1,1,49494,WMM2,948923,false,false,1183,image-keyboard-response,53
true,8,1,1,1,true,z,false,true,0.0-2.0-0.37-0.334-3.334,0,1,0,90,false,stim,false,1,415.0,2,1,1,49494,WMM2,950843,false,false,1186,image-keyboard-response,54
true,8,2,1,1,false,z,false,false,0.0-2.0-0.37-0.335-3.335,0,1,0,68,false,stim,true,2,750.9999999998836,2,1,2,49494,WMM2,953099,false,false,1189,image-keyboard-response,55
true,8,1,1,1,true,z,false,true,0.0-2.0-0.37-0.336-3.336,0,1,0,90,false,stim,false,2,686.0,2,1,2,49494,WMM2,955291,false,false,1192,image-keyboard-response,56
true,8,1,1,1,true,z,false,true,0.0-2.0-0.37-0.337-3.337,0,1,0,90,false,stim,false,2,383.0,2,1,2,49494,WMM2,957179,false,false,1195,image-keyboard-response,57
true,8,2,1,2,true,d,false,true,0.0-2.0-0.37-0.338-3.338,0,1,0,68,false,stim,false,1,1039.0000000001164,2,0,0,49494,WMM2,959723,false,false,1198,image-keyboard-response,58
true,8,2,1,2,true,d,false,true,0.0-2.0-0.37-0.339-3.339,0,1,0,68,false,stim,false,1,348.0000000001164,2,0,0,49494,WMM2,961579,false,false,1201,image-keyboard-response,59
true,8,2,1,2,true,d,false,true,0.0-2.0-0.37-0.340-3.340,0,1,0,68,false,stim,false,1,390.9999999998836,2,0,0,49494,WMM2,963475,false,false,1204,image-keyboard-response,60
true,9,1,4,1,true,z,false,true,0.0-2.0-0.37-0.341-3.341,0,1,1,90,true,stim,false,1,583.0,2,1,1,49494,WMM2,965563,false,false,1207,image-keyboard-response,1
true,9,2,4,2,true,d,false,true,0.0-2.0-0.38-0.342-3.342,0,1,1,68,false,stim,false,2,575.0,2,0,0,49494,WMM2,967643,false,false,1210,image-keyboard-response,2
true,9,2,4,2,true,d,false,true,0.0-2.0-0.38-0.343-3.343,0,1,1,68,false,stim,false,2,447.0,2,0,0,49494,WMM2,969595,false,false,1213,image-keyboard-response,3
true,9,1,4,1,true,z,false,true,0.0-2.0-0.38-0.344-3.344,0,1,1,90,false,stim,false,1,638.0,2,1,1,49494,WMM2,971739,false,false,1216,image-keyboard-response,4
true,9,2,4,1,false,z,true,false,0.0-2.0-0.38-0.345-3.345,0,1,1,68,false,stim,false,1,887.0,2,1,2,49494,WMM2,974131,false,false,1219,image-keyboard-response,5
true,9,1,4,2,false,d,true,false,0.0-2.0-0.38-0.346-3.346,0,1,1,90,false,stim,false,2,703.0000000001164,2,0,0,49494,WMM2,976338,false,false,1222,image-keyboard-response,6
true,9,2,4,1,false,z,true,true,0.0-2.0-0.38-0.347-3.347,0,1,1,68,false,stim,false,1,1672.0,2,1,1,49494,WMM2,979514,false,true,1225,image-keyboard-response,7
true,9,2,4,1,false,z,true,false,0.0-2.0-0.38-0.348-3.348,0,1,1,68,false,stim,false,1,432.0,2,1,1,49494,WMM2,981451,false,false,1228,image-keyboard-response,8
true,9,1,4,1,true,z,false,true,0.0-2.0-0.38-0.349-3.349,0,1,1,90,false,stim,false,1,1327.0,2,1,2,49494,WMM2,984283,false,false,1231,image-keyboard-response,9
true,9,1,4,1,true,z,false,true,0.0-2.0-0.38-0.350-3.350,0,1,1,90,false,stim,false,1,423.0,2,1,2,49494,WMM2,986211,false,false,1234,image-keyboard-response,10
true,9,2,4,1,false,z,true,true,0.0-2.0-0.39-0.351-3.351,0,1,1,68,false,stim,false,1,735.0,2,1,1,49494,WMM2,988450,false,true,1237,image-keyboard-response,11
true,9,2,4,1,false,z,true,false,0.0-2.0-0.39-0.352-3.352,0,1,1,68,false,stim,false,1,407.0000000001164,2,1,1,49494,WMM2,990362,false,false,1240,image-keyboard-response,12
true,9,2,4,2,true,d,false,true,0.0-2.0-0.39-0.353-3.353,0,1,1,68,false,stim,false,2,1424.0,2,0,0,49494,WMM2,993290,false,false,1243,image-keyboard-response,13
true,9,2,4,2,true,d,false,true,0.0-2.0-0.39-0.354-3.354,0,1,1,68,false,stim,false,2,688.0,2,0,0,49494,WMM2,995482,false,false,1246,image-keyboard-response,14
true,9,2,4,1,false,z,true,true,0.0-2.0-0.39-0.355-3.355,0,1,1,68,false,stim,false,1,783.0,2,1,2,49494,WMM2,997770,false,true,1249,image-keyboard-response,15
true,9,2,4,1,false,z,true,false,0.0-2.0-0.39-0.356-3.356,0,1,1,68,false,stim,false,1,519.0,2,1,2,49494,WMM2,999794,false,false,1252,image-keyboard-response,16
true,9,2,4,2,true,d,false,true,0.0-2.0-0.39-0.357-3.357,0,1,1,68,false,stim,false,2,766.0,2,0,0,49494,WMM2,1002066,false,false,1255,image-keyboard-response,17
true,9,1,4,1,true,z,false,true,0.0-2.0-0.39-0.358-3.358,0,1,1,90,false,stim,false,1,880.0,2,1,1,49494,WMM2,1004450,false,false,1258,image-keyboard-response,18
true,9,2,4,1,false,z,true,false,0.0-2.0-0.39-0.359-3.359,0,1,1,68,false,stim,false,1,648.0000000001164,2,1,2,49494,WMM2,1006602,false,false,1261,image-keyboard-response,19
true,9,1,4,1,true,z,false,true,0.0-2.0-0.40-0.360-3.360,0,1,1,90,false,stim,false,1,710.0000000001164,2,1,1,49494,WMM2,1008818,false,false,1264,image-keyboard-response,20
true,9,2,4,1,false,z,true,true,0.0-2.0-0.40-0.361-3.361,0,1,1,68,false,stim,false,1,942.9999999998836,2,1,2,49494,WMM2,1011266,false,true,1267,image-keyboard-response,21
true,9,1,4,2,false,d,true,false,0.0-2.0-0.40-0.362-3.362,0,1,1,90,false,stim,false,2,1046.0000000001164,2,0,0,49494,WMM2,1013818,false,false,1270,image-keyboard-response,22
true,9,2,4,2,true,d,false,true,0.0-2.0-0.40-0.363-3.363,0,1,1,68,false,stim,false,2,910.0,2,0,0,49494,WMM2,1016234,false,false,1273,image-keyboard-response,23
true,9,2,4,1,false,z,true,false,0.0-2.0-0.40-0.364-3.364,0,1,1,68,false,stim,false,1,886.0000000001164,2,1,1,49494,WMM2,1018626,false,false,1276,image-keyboard-response,24
true,9,2,4,1,false,z,true,false,0.0-2.0-0.40-0.365-3.365,0,1,1,68,false,stim,false,1,711.0,2,1,2,49494,WMM2,1020842,false,false,1279,image-keyboard-response,25
true,9,1,4,1,true,z,false,true,0.0-2.0-0.40-0.366-3.366,0,1,1,90,false,stim,false,1,670.0,2,1,1,49494,WMM2,1023018,false,false,1282,image-keyboard-response,26
true,9,1,4,2,false,d,true,false,0.0-2.0-0.40-0.367-3.367,0,1,1,90,false,stim,false,2,606.0,2,0,0,49494,WMM2,1025130,false,false,1285,image-keyboard-response,27
true,9,1,4,1,true,z,false,true,0.0-2.0-0.40-0.368-3.368,0,1,1,90,false,stim,false,1,1087.0,2,1,2,49494,WMM2,1027722,false,false,1288,image-keyboard-response,28
true,9,1,4,1,true,z,false,true,0.0-2.0-0.41-0.369-3.369,0,1,1,90,false,stim,false,1,678.9999999997672,2,1,1,49494,WMM2,1029906,false,false,1291,image-keyboard-response,29
true,9,1,4,1,true,z,false,true,0.0-2.0-0.41-0.370-3.370,0,1,1,90,false,stim,false,1,582.0000000001164,2,1,2,49494,WMM2,1031994,false,false,1294,image-keyboard-response,30
true,9,1,4,1,true,z,false,true,0.0-2.0-0.41-0.371-3.371,0,1,1,90,false,stim,false,1,406.9999999998836,2,1,2,49494,WMM2,1033906,false,false,1297,image-keyboard-response,31
true,9,1,4,2,false,d,true,false,0.0-2.0-0.41-0.372-3.372,0,1,1,90,false,stim,false,2,662.0,2,0,0,49494,WMM2,1036074,false,false,1300,image-keyboard-response,32
true,9,1,4,1,true,z,false,true,0.0-2.0-0.41-0.373-3.373,0,1,1,90,false,stim,false,1,739.0,2,1,1,49494,WMM2,1038322,false,false,1303,image-keyboard-response,33
true,9,0,4,2,false,d,true,false,0.0-2.0-0.41-0.374-3.374,0,1,1,81,false,stim,false,2,479.0,2,0,0,49494,WMM2,1040306,false,false,1306,image-keyboard-response,34
true,9,1,4,1,true,z,false,true,0.0-2.0-0.41-0.375-3.375,0,1,1,90,false,stim,false,1,581.9999999998836,2,1,1,49494,WMM2,1042394,false,false,1309,image-keyboard-response,35
true,9,2,4,2,true,d,false,true,0.0-2.0-0.41-0.376-3.376,0,1,1,68,false,stim,false,2,445.9999999998836,2,0,0,49494,WMM2,1044346,false,false,1312,image-keyboard-response,36
true,9,1,4,1,true,z,false,true,0.0-2.0-0.41-0.377-3.377,0,1,1,90,false,stim,false,1,493.9999999998836,2,1,2,49494,WMM2,1046346,false,false,1315,image-keyboard-response,37
true,9,1,4,1,true,z,false,true,0.0-2.0-0.42-0.378-3.378,0,1,1,90,false,stim,false,1,374.0,2,1,1,49494,WMM2,1048226,false,false,1318,image-keyboard-response,38
true,9,2,4,2,true,d,false,true,0.0-2.0-0.42-0.379-3.379,0,1,1,68,false,stim,false,2,662.0,2,0,0,49494,WMM2,1050394,false,false,1321,image-keyboard-response,39
true,9,2,4,2,true,d,false,false,0.0-2.0-0.42-0.380-3.380,0,1,1,68,false,stim,false,2,534.0,2,0,0,49494,WMM2,1052434,false,true,1324,image-keyboard-response,40
true,9,2,4,2,true,d,false,true,0.0-2.0-0.42-0.381-3.381,0,1,1,68,false,stim,false,2,472.0,2,0,0,49494,WMM2,1054410,false,false,1327,image-keyboard-response,41
true,9,1,4,1,true,z,false,true,0.0-2.0-0.42-0.382-3.382,0,1,1,90,false,stim,false,1,871.0,2,0,2,49494,WMM2,1056786,false,false,1330,image-keyboard-response,42
true,9,1,4,1,true,z,false,true,0.0-2.0-0.42-0.383-3.383,0,1,1,90,false,stim,false,1,509.99999999976717,2,0,2,49494,WMM2,1058802,false,false,1333,image-keyboard-response,43
true,9,1,4,1,true,z,false,true,0.0-2.0-0.42-0.384-3.384,0,1,1,90,false,stim,false,1,695.0,2,1,1,49494,WMM2,1061002,false,false,1336,image-keyboard-response,44
true,9,1,4,1,true,z,false,true,0.0-2.0-0.42-0.385-3.385,0,1,1,90,false,stim,false,1,407.0,2,1,1,49494,WMM2,1062914,false,false,1339,image-keyboard-response,45
true,9,1,4,1,true,z,false,true,0.0-2.0-0.42-0.386-3.386,0,1,1,90,false,stim,false,1,983.0,2,0,2,49494,WMM2,1065402,false,false,1342,image-keyboard-response,46
true,9,2,4,2,true,d,false,true,0.0-2.0-0.43-0.387-3.387,0,1,1,68,false,stim,false,2,647.9999999997672,2,0,0,49494,WMM2,1067554,false,false,1345,image-keyboard-response,47
true,9,1,4,1,true,z,false,true,0.0-2.0-0.43-0.388-3.388,0,1,1,90,false,stim,false,1,542.0,2,0,2,49494,WMM2,1069601,false,false,1348,image-keyboard-response,48
true,9,1,4,1,true,z,false,false,0.0-2.0-0.43-0.389-3.389,0,1,1,90,false,stim,false,1,471.0,2,0,2,49494,WMM2,1071577,false,true,1351,image-keyboard-response,49
true,10,1,1,1,true,z,false,true,0.0-2.0-0.43-0.390-3.390,0,1,0,90,true,stim,false,1,703.0,2,1,1,49494,WMM2,1073785,false,false,1354,image-keyboard-response,1
true,10,2,1,0,false,q,false,true,0.0-2.0-0.43-0.391-3.391,0,1,0,68,false,stim,true,2,639.0,2,0,0,49494,WMM2,1075929,false,true,1357,image-keyboard-response,2
true,10,1,1,2,false,d,false,false,0.0-2.0-0.43-0.392-3.392,0,1,0,90,false,stim,true,1,512.0,2,0,2,49494,WMM2,1077946,false,false,1360,image-keyboard-response,3
true,10,2,1,0,false,q,false,false,0.0-2.0-0.43-0.393-3.393,0,1,0,68,false,stim,true,2,735.0000000002328,2,0,0,49494,WMM2,1080185,false,false,1363,image-keyboard-response,4
true,10,1,1,1,true,z,false,false,0.0-2.0-0.43-0.394-3.394,0,1,0,90,false,stim,false,1,591.0000000002328,2,1,1,49494,WMM2,1082281,false,true,1366,image-keyboard-response,5
true,10,1,1,1,true,z,false,false,0.0-2.0-0.43-0.395-3.395,0,1,0,90,false,stim,false,1,583.0,2,1,1,49494,WMM2,1084369,false,true,1369,image-keyboard-response,6
true,10,2,1,0,false,q,false,false,0.0-2.0-0.44-0.396-3.396,0,1,0,68,false,stim,true,2,687.0,2,0,0,49494,WMM2,1086561,false,false,1372,image-keyboard-response,7
true,10,0,1,2,false,d,true,true,0.0-2.0-0.44-0.397-3.397,0,1,0,81,false,stim,false,1,710.0,2,0,2,49494,WMM2,1088777,false,true,1375,image-keyboard-response,8
true,10,0,1,2,false,d,true,false,0.0-2.0-0.44-0.398-3.398,0,1,0,81,false,stim,false,1,399.0,2,0,2,49494,WMM2,1090681,false,false,1378,image-keyboard-response,9
true,10,0,1,1,false,z,true,false,0.0-2.0-0.44-0.399-3.399,0,1,0,81,false,stim,false,1,583.0,2,1,1,49494,WMM2,1092769,false,false,1381,image-keyboard-response,10
true,10,0,1,2,false,d,true,false,0.0-2.0-0.44-0.400-3.400,0,1,0,81,false,stim,false,1,776.0,2,0,2,49494,WMM2,1095049,false,false,1384,image-keyboard-response,11
true,10,2,1,1,false,z,true,true,0.0-2.0-0.44-0.401-3.401,0,1,0,68,false,stim,false,1,663.0,2,1,1,49494,WMM2,1097217,false,true,1387,image-keyboard-response,12
true,10,2,1,0,false,q,false,false,0.0-2.0-0.44-0.402-3.402,0,1,0,68,false,stim,true,2,887.0,2,0,0,49494,WMM2,1099609,false,false,1390,image-keyboard-response,13
true,10,2,1,1,false,z,true,false,0.0-2.0-0.44-0.403-3.403,0,1,0,68,false,stim,false,1,462.0,2,1,1,49494,WMM2,1101577,false,false,1393,image-keyboard-response,14
true,10,0,1,0,true,q,false,true,0.0-2.0-0.44-0.404-3.404,0,1,0,81,false,stim,false,2,1079.0,2,0,0,49494,WMM2,1104161,false,false,1396,image-keyboard-response,15
true,10,0,1,1,false,z,true,false,0.0-2.0-0.45-0.405-3.405,0,1,0,81,false,stim,false,1,1150.9999999997672,2,1,1,49494,WMM2,1106817,false,false,1399,image-keyboard-response,16
true,10,1,1,2,false,d,false,false,0.0-2.0-0.45-0.406-3.406,0,1,0,90,false,stim,true,1,1262.0,2,0,2,49494,WMM2,1109585,false,false,1402,image-keyboard-response,17
true,10,0,1,0,true,q,false,true,0.0-2.0-0.45-0.407-3.407,0,1,0,81,false,stim,false,2,735.0,2,0,0,49494,WMM2,1111825,false,false,1405,image-keyboard-response,18
true,10,0,1,0,true,q,false,true,0.0-2.0-0.45-0.408-3.408,0,1,0,81,false,stim,false,2,1119.0,2,0,0,49494,WMM2,1114449,false,false,1408,image-keyboard-response,19
true,10,2,1,2,true,d,false,true,0.0-2.0-0.45-0.409-3.409,0,1,0,68,false,stim,false,1,1150.0,2,0,2,49494,WMM2,1117105,false,false,1411,image-keyboard-response,20
true,10,0,1,0,true,q,false,true,0.0-2.0-0.45-0.410-3.410,0,1,0,81,false,stim,false,2,1230.0,2,0,0,49494,WMM2,1119841,false,false,1414,image-keyboard-response,21
true,10,2,1,2,true,d,false,true,0.0-2.0-0.45-0.411-3.411,0,1,0,68,false,stim,false,1,678.0,2,0,2,49494,WMM2,1122025,false,false,1417,image-keyboard-response,22
true,10,1,1,1,true,z,false,true,0.0-2.0-0.45-0.412-3.412,0,1,0,90,false,stim,false,1,1661.9999999997672,2,1,1,49494,WMM2,1125193,false,false,1420,image-keyboard-response,23
true,10,1,1,1,true,z,false,true,0.0-2.0-0.45-0.413-3.413,0,1,0,90,false,stim,false,1,470.0,2,1,1,49494,WMM2,1127169,false,false,1423,image-keyboard-response,24
true,10,0,1,0,true,q,false,false,0.0-2.0-0.46-0.414-3.414,0,1,0,81,false,stim,false,2,903.0,2,1,0,49494,WMM2,1129577,false,true,1426,image-keyboard-response,25
true,10,1,1,1,true,z,false,true,0.0-2.0-0.46-0.415-3.415,0,1,0,90,false,stim,false,1,807.0,2,0,1,49494,WMM2,1131889,false,false,1429,image-keyboard-response,26
true,10,1,1,1,true,z,false,true,0.0-2.0-0.46-0.416-3.416,0,1,0,90,false,stim,false,1,424.0,2,0,1,49494,WMM2,1133817,false,false,1432,image-keyboard-response,27
true,10,2,1,2,true,d,false,true,0.0-2.0-0.46-0.417-3.417,0,1,0,68,false,stim,false,1,863.0000000002328,2,1,2,49494,WMM2,1136185,false,false,1435,image-keyboard-response,28
true,10,2,1,2,true,d,false,true,0.0-2.0-0.46-0.418-3.418,0,1,0,68,false,stim,false,1,1102.0,2,1,2,49494,WMM2,1138793,false,false,1438,image-keyboard-response,29
true,10,2,1,2,true,d,false,true,0.0-2.0-0.46-0.419-3.419,0,1,0,68,false,stim,false,1,504.0,2,1,2,49494,WMM2,1140801,false,false,1441,image-keyboard-response,30
true,10,0,1,0,true,q,false,true,0.0-2.0-0.46-0.420-3.420,0,1,0,81,false,stim,false,2,911.0,2,1,0,49494,WMM2,1143217,false,false,1444,image-keyboard-response,31
true,10,1,1,1,true,z,false,false,0.0-2.0-0.46-0.421-3.421,0,1,0,90,false,stim,false,1,943.0,2,0,1,49494,WMM2,1145665,false,true,1447,image-keyboard-response,32
true,10,0,1,0,true,q,false,true,0.0-2.0-0.46-0.422-3.422,0,1,0,81,false,stim,false,2,567.0,2,1,0,49494,WMM2,1147736,false,false,1450,image-keyboard-response,33
true,10,2,1,2,true,d,false,true,0.0-2.0-0.47-0.423-3.423,0,1,0,68,false,stim,false,1,616.0,2,1,2,49494,WMM2,1149857,false,false,1453,image-keyboard-response,34
true,11,2,3,2,true,d,false,false,0.0-2.0-0.47-0.424-3.424,1,0,1,68,true,stim,false,2,494.0,2,1,2,49494,WMM2,1151857,false,true,1456,image-keyboard-response,1
true,11,0,3,0,true,q,false,false,0.0-2.0-0.47-0.425-3.425,1,0,1,81,false,stim,false,0,695.0,2,1,0,49494,WMM2,1154057,false,true,1459,image-keyboard-response,2
true,11,2,3,2,true,d,false,true,0.0-2.0-0.47-0.426-3.426,1,0,1,68,false,stim,false,2,823.0,2,1,2,49494,WMM2,1156384,false,false,1462,image-keyboard-response,3
true,11,1,3,0,false,q,false,false,0.0-2.0-0.47-0.427-3.427,1,0,1,90,false,stim,true,1,1015.0,2,0,1,49494,WMM2,1158904,false,false,1465,image-keyboard-response,4
true,11,0,3,0,true,q,false,false,0.0-2.0-0.47-0.428-3.428,1,0,1,81,false,stim,false,0,719.0,2,1,0,49494,WMM2,1161128,false,true,1468,image-keyboard-response,5
true,11,1,3,0,false,q,true,false,0.0-2.0-0.47-0.429-3.429,1,0,1,90,false,stim,false,0,918.0,2,1,0,49494,WMM2,1163552,false,false,1471,image-keyboard-response,6
true,11,2,3,0,false,q,true,false,0.0-2.0-0.47-0.430-3.430,1,0,1,68,false,stim,false,1,1151.0,2,0,1,49494,WMM2,1166209,false,false,1474,image-keyboard-response,7
true,11,2,3,0,false,q,true,false,0.0-2.0-0.47-0.431-3.431,1,0,1,68,false,stim,false,1,758.9999999997672,2,0,1,49494,WMM2,1168472,false,false,1477,image-keyboard-response,8
true,11,1,3,2,false,d,true,false,0.0-2.0-0.48-0.432-3.432,1,0,1,90,false,stim,false,2,799.0,2,1,2,49494,WMM2,1170777,false,false,1480,image-keyboard-response,9
true,11,2,3,0,false,q,true,false,0.0-2.0-0.48-0.433-3.433,1,0,1,68,false,stim,false,0,1383.0,2,1,0,49494,WMM2,1173664,false,false,1483,image-keyboard-response,10
true,11,1,3,0,false,q,true,false,0.0-2.0-0.48-0.434-3.434,1,0,1,90,false,stim,false,0,599.0,2,1,0,49494,WMM2,1175768,false,false,1486,image-keyboard-response,11
true,11,0,3,0,true,q,false,true,0.0-2.0-0.48-0.435-3.435,1,0,1,81,false,stim,false,0,641.0,2,1,0,49494,WMM2,1177912,false,false,1489,image-keyboard-response,12
true,11,1,3,0,false,q,false,false,0.0-2.0-0.48-0.436-3.436,1,0,1,90,false,stim,true,1,1495.0,2,0,1,49494,WMM2,1180912,false,false,1492,image-keyboard-response,13
true,11,2,3,2,true,d,false,true,0.0-2.0-0.48-0.437-3.437,1,0,1,68,false,stim,false,2,991.0,2,1,2,49494,WMM2,1183408,false,false,1495,image-keyboard-response,14
true,11,0,3,0,true,q,false,true,0.0-2.0-0.48-0.438-3.438,1,0,1,81,false,stim,false,1,1215.0,2,0,1,49494,WMM2,1186128,false,false,1498,image-keyboard-response,15
true,11,0,3,0,true,q,false,true,0.0-2.0-0.48-0.439-3.439,1,0,1,81,false,stim,false,1,380.0,2,0,1,49494,WMM2,1188016,false,false,1501,image-keyboard-response,16
true,11,2,3,2,true,d,false,true,0.0-2.0-0.48-0.440-3.440,1,0,1,68,false,stim,false,2,694.9999999997672,2,1,2,49494,WMM2,1190216,false,false,1504,image-keyboard-response,17
true,11,0,3,0,true,q,false,true,0.0-2.0-0.49-0.441-3.441,1,0,1,81,false,stim,false,1,519.0,2,0,1,49494,WMM2,1192240,false,false,1507,image-keyboard-response,18
true,11,0,3,0,true,q,false,true,0.0-2.0-0.49-0.442-3.442,1,0,1,81,false,stim,false,0,1088.0,2,1,0,49494,WMM2,1194832,false,false,1510,image-keyboard-response,19
true,11,0,3,0,true,q,false,true,0.0-2.0-0.49-0.443-3.443,1,0,1,81,false,stim,false,0,549.9999999997672,2,1,0,49494,WMM2,1196888,false,false,1513,image-keyboard-response,20
true,11,0,3,0,true,q,false,true,0.0-2.0-0.49-0.444-3.444,1,0,1,81,false,stim,false,0,558.0,2,1,0,49494,WMM2,1198952,false,false,1516,image-keyboard-response,21
true,11,0,3,0,true,q,false,true,0.0-2.0-0.49-0.445-3.445,1,0,1,81,false,stim,false,1,863.0,2,1,1,49494,WMM2,1201320,false,false,1519,image-keyboard-response,22
true,11,2,3,2,true,d,false,true,0.0-2.0-0.49-0.446-3.446,1,0,1,68,false,stim,false,2,831.0,2,0,2,49494,WMM2,1203656,false,false,1522,image-keyboard-response,23
true,11,2,3,2,true,d,false,true,0.0-2.0-0.49-0.447-3.447,1,0,1,68,false,stim,false,2,439.0,2,0,2,49494,WMM2,1205600,false,false,1525,image-keyboard-response,24
true,11,2,3,2,true,d,false,true,0.0-2.0-0.49-0.448-3.448,1,0,1,68,false,stim,false,2,535.0,2,0,2,49494,WMM2,1207640,false,false,1528,image-keyboard-response,25
true,11,0,3,0,true,q,false,true,0.0-2.0-0.49-0.449-3.449,1,0,1,81,false,stim,false,1,636.0,2,1,1,49494,WMM2,1209784,false,false,1531,image-keyboard-response,26
true,11,0,3,0,true,q,false,true,0.0-2.0-0.50-0.450-3.450,1,0,1,81,false,stim,false,1,335.0,2,1,1,49494,WMM2,1211624,false,false,1534,image-keyboard-response,27
true,11,0,3,0,true,q,false,true,0.0-2.0-0.50-0.451-3.451,1,0,1,81,false,stim,false,1,567.0,2,1,1,49494,WMM2,1213696,false,false,1537,image-keyboard-response,28
true,11,0,3,0,true,q,false,true,0.0-2.0-0.50-0.452-3.452,1,0,1,81,false,stim,false,1,654.0,2,1,1,49494,WMM2,1215856,false,false,1540,image-keyboard-response,29
true,11,2,3,2,true,d,false,true,0.0-2.0-0.50-0.453-3.453,1,0,1,68,false,stim,false,2,719.0,2,0,2,49494,WMM2,1218080,false,false,1543,image-keyboard-response,30
true,12,2,4,2,true,d,false,true,0.0-2.0-0.50-0.454-3.454,1,1,0,68,true,stim,false,2,423.0,2,0,2,49494,WMM2,1220008,false,false,1546,image-keyboard-response,1
true,12,0,4,0,true,q,false,true,0.0-2.0-0.50-0.455-3.455,1,1,0,81,false,stim,false,0,511.0,2,1,0,49494,WMM2,1222024,false,false,1549,image-keyboard-response,2
true,12,2,4,2,true,d,false,true,0.0-2.0-0.50-0.456-3.456,1,1,0,68,false,stim,false,2,679.0,2,0,2,49494,WMM2,1224208,false,false,1552,image-keyboard-response,3
true,12,0,4,0,true,q,false,true,0.0-2.0-0.50-0.457-3.457,1,1,0,81,false,stim,false,0,558.9999999997672,2,1,0,49494,WMM2,1226272,false,false,1555,image-keyboard-response,4
true,12,0,4,0,true,q,false,false,0.0-2.0-0.50-0.458-3.458,1,1,0,81,false,stim,false,0,535.0,2,1,0,49494,WMM2,1228312,false,true,1558,image-keyboard-response,5
true,12,0,4,0,true,q,false,true,0.0-2.0-0.51-0.459-3.459,1,1,0,81,false,stim,false,0,1526.0,2,1,1,49494,WMM2,1231344,false,false,1561,image-keyboard-response,6
true,12,0,4,0,true,q,false,true,0.0-2.0-0.51-0.460-3.460,1,1,0,81,false,stim,false,0,479.00000000023283,2,1,1,49494,WMM2,1233328,false,false,1564,image-keyboard-response,7
true,12,0,4,0,true,q,false,true,0.0-2.0-0.51-0.461-3.461,1,1,0,81,false,stim,false,0,527.0,2,1,0,49494,WMM2,1235360,false,false,1567,image-keyboard-response,8
true,12,0,4,0,true,q,false,true,0.0-2.0-0.51-0.462-3.462,1,1,0,81,false,stim,false,0,374.0,2,1,0,49494,WMM2,1237240,false,false,1570,image-keyboard-response,9
true,12,2,4,2,true,d,false,true,0.0-2.0-0.51-0.463-3.463,1,1,0,68,false,stim,false,2,551.0,2,0,2,49494,WMM2,1239296,false,false,1573,image-keyboard-response,10
true,12,2,4,2,true,d,false,true,0.0-2.0-0.51-0.464-3.464,1,1,0,68,false,stim,false,2,575.0000000002328,2,0,2,49494,WMM2,1241376,false,false,1576,image-keyboard-response,11
true,12,0,4,0,true,q,false,true,0.0-2.0-0.51-0.465-3.465,1,1,0,81,false,stim,false,0,568.0,2,1,0,49494,WMM2,1243448,false,false,1579,image-keyboard-response,12
true,12,0,4,0,true,q,false,true,0.0-2.0-0.51-0.466-3.466,1,1,0,81,false,stim,false,0,1327.0,2,1,1,49494,WMM2,1246280,false,false,1582,image-keyboard-response,13
true,12,2,4,2,true,d,false,true,0.0-2.0-0.51-0.467-3.467,1,1,0,68,false,stim,false,2,726.0,2,0,2,49494,WMM2,1248512,false,false,1585,image-keyboard-response,14
true,12,2,4,2,true,d,false,true,0.0-2.0-0.52-0.468-3.468,1,1,0,68,false,stim,false,2,447.0,2,0,2,49494,WMM2,1250463,false,false,1588,image-keyboard-response,15
true,12,2,4,2,true,d,false,true,0.0-2.0-0.52-0.469-3.469,1,1,0,68,false,stim,false,2,455.00000000023283,2,0,2,49494,WMM2,1252423,false,false,1591,image-keyboard-response,16
true,12,0,4,0,true,q,false,true,0.0-2.0-0.52-0.470-3.470,1,1,0,81,false,stim,false,0,663.0,2,1,0,49494,WMM2,1254591,false,false,1594,image-keyboard-response,17
true,12,0,4,0,true,q,false,true,0.0-2.0-0.52-0.471-3.471,1,1,0,81,false,stim,false,0,1206.0,2,1,1,49494,WMM2,1257303,false,false,1597,image-keyboard-response,18
true,12,0,4,0,true,q,false,true,0.0-2.0-0.52-0.472-3.472,1,1,0,81,false,stim,false,0,598.9999999997672,2,1,0,49494,WMM2,1259407,false,false,1600,image-keyboard-response,19
true,12,0,4,0,true,q,false,true,0.0-2.0-0.52-0.473-3.473,1,1,0,81,false,stim,false,0,657.0,2,1,1,49494,WMM2,1261575,false,false,1603,image-keyboard-response,20
true,12,0,4,0,true,q,false,true,0.0-2.0-0.52-0.474-3.474,1,1,0,81,false,stim,false,0,390.0,2,0,1,49494,WMM2,1263471,false,false,1606,image-keyboard-response,21
true,12,0,4,0,true,q,false,true,0.0-2.0-0.52-0.475-3.475,1,1,0,81,false,stim,false,0,543.0,2,1,0,49494,WMM2,1265519,false,false,1609,image-keyboard-response,22
true,12,2,4,2,true,d,false,false,0.0-2.0-0.52-0.476-3.476,1,1,0,68,false,stim,false,2,607.0,2,1,2,49494,WMM2,1267631,false,true,1612,image-keyboard-response,23
true,12,2,4,2,true,d,false,true,0.0-2.0-0.53-0.477-3.477,1,1,0,68,false,stim,false,2,511.99999999976717,2,1,2,49494,WMM2,1269647,false,false,1615,image-keyboard-response,24
true,12,0,4,0,true,q,false,true,0.0-2.0-0.53-0.478-3.478,1,1,0,81,false,stim,false,0,623.0,2,1,0,49494,WMM2,1271775,false,false,1618,image-keyboard-response,25
true,12,0,4,0,true,q,false,false,0.0-2.0-0.53-0.479-3.479,1,1,0,81,false,stim,false,0,343.0,2,1,0,49494,WMM2,1273623,false,true,1621,image-keyboard-response,26
true,12,2,4,2,true,d,false,true,0.0-2.0-0.53-0.480-3.480,1,1,0,68,false,stim,false,2,719.0,2,1,2,49494,WMM2,1275847,false,false,1624,image-keyboard-response,27
true,12,0,4,0,true,q,false,true,0.0-2.0-0.53-0.481-3.481,1,1,0,81,false,stim,false,0,559.0,2,1,0,49494,WMM2,1277911,false,false,1627,image-keyboard-response,28
true,12,0,4,0,true,q,false,true,0.0-2.0-0.53-0.482-3.482,1,1,0,81,false,stim,false,0,959.0000000002328,2,0,1,49494,WMM2,1280375,false,false,1630,image-keyboard-response,29
true,12,0,4,0,true,q,false,false,0.0-2.0-0.53-0.483-3.483,1,1,0,81,false,stim,false,0,407.0,2,0,1,49494,WMM2,1282287,false,true,1633,image-keyboard-response,30
true,13,0,3,2,false,d,false,false,0.0-2.0-0.53-0.484-3.484,1,0,1,81,true,stim,true,0,1039.0,2,0,1,49494,WMM2,1284831,false,false,1636,image-keyboard-response,1
true,13,2,3,2,true,d,false,true,0.0-2.0-0.53-0.485-3.485,1,0,1,68,false,stim,false,2,704.0000000002328,2,1,2,49494,WMM2,1287039,false,false,1639,image-keyboard-response,2
true,13,2,3,2,true,d,false,true,0.0-2.0-0.54-0.486-3.486,1,0,1,68,false,stim,false,2,416.0,2,1,2,49494,WMM2,1288959,false,false,1642,image-keyboard-response,3
true,13,0,3,0,true,q,false,true,0.0-2.0-0.54-0.487-3.487,1,0,1,81,false,stim,false,0,639.0,2,1,0,49494,WMM2,1291103,false,false,1645,image-keyboard-response,4
true,13,2,3,2,true,d,false,true,0.0-2.0-0.54-0.488-3.488,1,0,1,68,false,stim,false,2,535.0,2,1,2,49494,WMM2,1293143,false,false,1648,image-keyboard-response,5
true,13,1,3,2,false,d,true,false,0.0-2.0-0.54-0.489-3.489,1,0,1,90,false,stim,false,0,1143.0,2,0,1,49494,WMM2,1295791,false,false,1651,image-keyboard-response,6
true,13,0,3,2,false,d,false,false,0.0-2.0-0.54-0.490-3.490,1,0,1,81,false,stim,true,0,656.0,2,0,1,49494,WMM2,1297951,false,false,1654,image-keyboard-response,7
true,13,2,3,2,true,d,false,true,0.0-2.0-0.54-0.491-3.491,1,0,1,68,false,stim,false,0,487.00000000023283,2,0,1,49494,WMM2,1299943,false,false,1657,image-keyboard-response,8
true,13,2,3,2,true,d,false,true,0.0-2.0-0.54-0.492-3.492,1,0,1,68,false,stim,false,2,600.0000000002328,2,1,2,49494,WMM2,1302047,false,false,1660,image-keyboard-response,9
true,13,0,3,0,true,q,false,false,0.0-2.0-0.54-0.493-3.493,1,0,1,81,false,stim,false,0,639.0,2,1,0,49494,WMM2,1304191,false,true,1663,image-keyboard-response,10
true,13,0,3,0,true,q,false,true,0.0-2.0-0.54-0.494-3.494,1,0,1,81,false,stim,false,0,551.0,2,1,0,49494,WMM2,1306247,false,false,1666,image-keyboard-response,11
true,13,0,3,0,true,q,false,true,0.0-2.0-0.55-0.495-3.495,1,0,1,81,false,stim,false,0,430.00000000023283,2,1,0,49494,WMM2,1308183,false,false,1669,image-keyboard-response,12
true,13,2,3,2,true,d,false,true,0.0-2.0-0.55-0.496-3.496,1,0,1,68,false,stim,false,2,663.0,2,1,2,49494,WMM2,1310351,false,false,1672,image-keyboard-response,13
true,13,0,3,0,true,q,false,false,0.0-2.0-0.55-0.497-3.497,1,0,1,81,false,stim,false,0,662.9999999997672,2,1,0,49494,WMM2,1312519,false,true,1675,image-keyboard-response,14
true,13,2,3,2,true,d,false,true,0.0-2.0-0.55-0.498-3.498,1,0,1,68,false,stim,false,0,598.0,2,0,1,49494,WMM2,1314623,false,false,1678,image-keyboard-response,15
true,13,2,3,2,true,d,false,true,0.0-2.0-0.55-0.499-3.499,1,0,1,68,false,stim,false,0,422.0,2,0,1,49494,WMM2,1316551,false,false,1681,image-keyboard-response,16
true,13,0,3,0,true,q,false,true,0.0-2.0-0.55-0.500-3.500,1,0,1,81,false,stim,false,0,671.0,2,1,0,49494,WMM2,1318727,false,false,1684,image-keyboard-response,17
true,13,2,3,2,true,d,false,false,0.0-2.0-0.55-0.501-3.501,1,0,1,68,false,stim,false,2,943.0,2,1,2,49494,WMM2,1321175,false,true,1687,image-keyboard-response,18
true,13,2,3,2,true,d,false,true,0.0-2.0-0.55-0.502-3.502,1,0,1,68,false,stim,false,2,551.0000000002328,2,1,2,49494,WMM2,1323231,false,false,1690,image-keyboard-response,19
true,13,2,3,2,true,d,false,true,0.0-2.0-0.55-0.503-3.503,1,0,1,68,false,stim,false,0,503.0,2,0,1,49494,WMM2,1325239,false,false,1693,image-keyboard-response,20
true,13,2,3,2,true,d,false,true,0.0-2.0-0.56-0.504-3.504,1,0,1,68,false,stim,false,0,485.00000000023283,2,1,1,49494,WMM2,1327231,false,false,1696,image-keyboard-response,21
true,13,0,3,0,true,q,false,true,0.0-2.0-0.56-0.505-3.505,1,0,1,81,false,stim,false,0,655.0,2,1,0,49494,WMM2,1329391,false,false,1699,image-keyboard-response,22
true,13,2,3,2,true,d,false,true,0.0-2.0-0.56-0.506-3.506,1,0,1,68,false,stim,false,0,692.0,2,1,1,49494,WMM2,1331591,false,false,1702,image-keyboard-response,23
true,13,0,3,0,true,q,false,true,0.0-2.0-0.56-0.507-3.507,1,0,1,81,false,stim,false,0,526.9999999997672,2,1,0,49494,WMM2,1333623,false,false,1705,image-keyboard-response,24
true,13,2,3,2,true,d,false,true,0.0-2.0-0.56-0.508-3.508,1,0,1,68,false,stim,false,2,688.0,2,0,2,49494,WMM2,1335815,false,false,1708,image-keyboard-response,25
true,13,2,3,2,true,d,false,true,0.0-2.0-0.56-0.509-3.509,1,0,1,68,false,stim,false,0,846.0,2,1,1,49494,WMM2,1338167,false,false,1711,image-keyboard-response,26
true,13,0,3,0,true,q,false,true,0.0-2.0-0.56-0.510-3.510,1,0,1,81,false,stim,false,0,554.0,2,1,0,49494,WMM2,1340224,false,false,1714,image-keyboard-response,27
true,13,2,3,2,true,d,false,true,0.0-2.0-0.56-0.511-3.511,1,0,1,68,false,stim,false,2,710.0,2,0,2,49494,WMM2,1342438,false,false,1717,image-keyboard-response,28
true,13,2,3,2,true,d,false,false,0.0-2.0-0.56-0.512-3.512,1,0,1,68,false,stim,false,2,583.0,2,0,2,49494,WMM2,1344527,false,true,1720,image-keyboard-response,29
true,13,2,3,2,true,d,false,true,0.0-2.0-0.57-0.513-3.513,1,0,1,68,false,stim,false,2,606.0,2,0,2,49494,WMM2,1346638,false,false,1723,image-keyboard-response,30
true,14,2,0,2,true,d,false,true,0.0-2.0-0.57-0.514-3.514,1,1,0,68,true,stim,false,2,817.0,2,1,1,49494,WMM2,1354478,false,false,1732,image-keyboard-response,1
true,14,2,0,2,true,d,false,true,0.0-2.0-0.57-0.515-3.515,1,1,0,68,false,stim,false,2,391.00000000023283,2,0,2,49494,WMM2,1356374,false,false,1735,image-keyboard-response,2
true,14,2,0,2,true,d,false,true,0.0-2.0-0.57-0.516-3.516,1,1,0,68,false,stim,false,2,480.0,2,1,1,49494,WMM2,1358358,false,false,1738,image-keyboard-response,3
true,14,2,0,2,true,d,false,true,0.0-2.0-0.57-0.517-3.517,1,1,0,68,false,stim,false,2,359.0,2,1,1,49494,WMM2,1360222,false,false,1741,image-keyboard-response,4
true,14,0,0,0,true,q,false,true,0.0-2.0-0.57-0.518-3.518,1,1,0,81,false,stim,false,0,647.0000000002328,2,1,0,49494,WMM2,1362374,false,false,1744,image-keyboard-response,5
true,14,0,0,0,true,q,false,true,0.0-2.0-0.57-0.519-3.519,1,1,0,81,false,stim,false,0,488.0,2,1,0,49494,WMM2,1364366,false,false,1747,image-keyboard-response,6
true,14,0,0,0,true,q,false,false,0.0-2.0-0.57-0.520-3.520,1,1,0,81,false,stim,false,0,695.0,2,1,0,49494,WMM2,1366566,false,true,1750,image-keyboard-response,7
true,14,2,0,2,true,d,false,true,0.0-2.0-0.57-0.521-3.521,1,1,0,68,false,stim,false,2,543.0,2,0,2,49494,WMM2,1368614,false,false,1753,image-keyboard-response,8
true,14,0,0,0,true,q,false,true,0.0-2.0-0.58-0.522-3.522,1,1,0,81,false,stim,false,0,583.0,2,1,0,49494,WMM2,1370702,false,false,1756,image-keyboard-response,9
true,14,2,0,2,true,d,false,true,0.0-2.0-0.58-0.523-3.523,1,1,0,68,false,stim,false,2,614.0,2,0,2,49494,WMM2,1372822,false,false,1759,image-keyboard-response,10
true,14,2,0,2,true,d,false,false,0.0-2.0-0.58-0.524-3.524,1,1,0,68,false,stim,false,2,400.99999999976717,2,0,2,49494,WMM2,1374726,false,true,1762,image-keyboard-response,11
true,14,2,0,2,true,d,false,true,0.0-2.0-0.58-0.525-3.525,1,1,0,68,false,stim,false,2,791.9999999997672,2,1,1,49494,WMM2,1377022,false,false,1765,image-keyboard-response,12
true,14,2,0,2,true,d,false,false,0.0-2.0-0.58-0.526-3.526,1,1,0,68,false,stim,false,2,1032.0,2,0,2,49494,WMM2,1379558,false,true,1768,image-keyboard-response,13
true,14,2,0,2,true,d,false,true,0.0-2.0-0.58-0.527-3.527,1,1,0,68,false,stim,false,2,591.0,2,1,1,49494,WMM2,1381654,false,false,1771,image-keyboard-response,14
true,14,0,0,0,true,q,false,true,0.0-2.0-0.58-0.528-3.528,1,1,0,81,false,stim,false,0,935.0,2,1,0,49494,WMM2,1384094,false,false,1774,image-keyboard-response,15
true,14,2,0,2,true,d,false,true,0.0-2.0-0.58-0.529-3.529,1,1,0,68,false,stim,false,2,799.0,2,1,1,49494,WMM2,1386398,false,false,1777,image-keyboard-response,16
true,14,0,0,0,true,q,false,true,0.0-2.0-0.58-0.530-3.530,1,1,0,81,false,stim,false,0,734.9999999997672,2,1,0,49494,WMM2,1388638,false,false,1780,image-keyboard-response,17
true,14,2,0,2,true,d,false,true,0.0-2.0-0.59-0.531-3.531,1,1,0,68,false,stim,false,2,1197.9999999997672,2,1,1,49494,WMM2,1391342,false,false,1783,image-keyboard-response,18
true,14,2,0,2,true,d,false,true,0.0-2.0-0.59-0.532-3.532,1,1,0,68,false,stim,false,2,1463.0,2,0,2,49494,WMM2,1394310,false,false,1786,image-keyboard-response,19
true,14,2,0,2,true,d,false,true,0.0-2.0-0.59-0.533-3.533,1,1,0,68,false,stim,false,2,447.0,2,0,2,49494,WMM2,1396262,false,false,1789,image-keyboard-response,20
true,14,0,0,0,true,q,false,true,0.0-2.0-0.59-0.534-3.534,1,1,0,81,false,stim,false,0,589.9999999997672,2,0,0,49494,WMM2,1398358,false,false,1792,image-keyboard-response,21
true,14,2,0,2,true,d,false,true,0.0-2.0-0.59-0.535-3.535,1,1,0,68,false,stim,false,2,711.0,2,0,1,49494,WMM2,1400574,false,false,1795,image-keyboard-response,22
true,14,2,0,2,true,d,false,false,0.0-2.0-0.59-0.536-3.536,1,1,0,68,false,stim,false,2,478.0,2,0,1,49494,WMM2,1402558,false,true,1798,image-keyboard-response,23
true,14,0,0,0,true,q,false,true,0.0-2.0-0.59-0.537-3.537,1,1,0,81,false,stim,false,0,522.0,2,0,0,49494,WMM2,1404590,false,false,1801,image-keyboard-response,24
true,14,2,0,2,true,d,false,false,0.0-2.0-0.59-0.538-3.538,1,1,0,68,false,stim,false,2,904.0,2,1,2,49494,WMM2,1406998,false,true,1804,image-keyboard-response,25
true,14,0,0,0,true,q,false,true,0.0-2.0-0.59-0.539-3.539,1,1,0,81,false,stim,false,0,703.0,2,0,0,49494,WMM2,1409206,false,false,1807,image-keyboard-response,26
true,14,0,0,0,true,q,false,true,0.0-2.0-0.60-0.540-3.540,1,1,0,81,false,stim,false,0,671.0,2,0,0,49494,WMM2,1411382,false,false,1810,image-keyboard-response,27
true,14,1,0,2,false,d,true,false,0.0-2.0-0.60-0.541-3.541,1,1,0,90,false,stim,false,2,567.0,2,1,2,49494,WMM2,1413454,false,false,1813,image-keyboard-response,28
true,14,2,0,2,true,d,false,true,0.0-2.0-0.60-0.542-3.542,1,1,0,68,false,stim,false,2,814.0,2,0,1,49494,WMM2,1415774,false,false,1816,image-keyboard-response,29
true,14,0,0,2,false,d,true,false,0.0-2.0-0.60-0.543-3.543,1,1,0,81,false,stim,false,2,1103.0,2,1,2,49494,WMM2,1418382,false,false,1819,image-keyboard-response,30
true,15,0,1,1,false,z,false,false,0.0-2.0-0.60-0.544-3.544,0,0,1,81,true,stim,true,0,623.0,2,0,0,49494,WMM2,1420510,false,false,1822,image-keyboard-response,1
true,15,0,1,1,false,z,false,true,0.0-2.0-0.60-0.545-3.545,0,0,1,81,false,stim,true,0,744.0,2,0,0,49494,WMM2,1422758,false,true,1825,image-keyboard-response,2
true,15,1,1,0,false,q,true,false,0.0-2.0-0.60-0.546-3.546,0,0,1,90,false,stim,false,2,1064.0,2,0,1,49494,WMM2,1425326,false,false,1828,image-keyboard-response,3
true,15,2,1,2,true,d,false,false,0.0-2.0-0.60-0.547-3.547,0,0,1,68,false,stim,false,2,735.0,2,1,2,49494,WMM2,1427565,false,true,1831,image-keyboard-response,4
true,15,0,1,0,true,q,false,true,0.0-2.0-0.60-0.548-3.548,0,0,1,81,false,stim,false,2,936.0,2,0,1,49494,WMM2,1430005,false,false,1834,image-keyboard-response,5
true,15,0,1,1,false,z,false,false,0.0-2.0-0.61-0.549-3.549,0,0,1,81,false,stim,true,0,560.0,2,0,0,49494,WMM2,1432070,false,false,1837,image-keyboard-response,6
true,15,0,1,0,true,q,false,true,0.0-2.0-0.61-0.550-3.550,0,0,1,81,false,stim,false,2,583.0,2,0,1,49494,WMM2,1434158,false,false,1840,image-keyboard-response,7
true,15,1,1,1,true,z,false,true,0.0-2.0-0.61-0.551-3.551,0,0,1,90,false,stim,false,0,822.9999999997672,2,0,0,49494,WMM2,1436486,false,false,1843,image-keyboard-response,8
true,15,2,1,2,true,d,false,true,0.0-2.0-0.61-0.552-3.552,0,0,1,68,false,stim,false,2,1438.0,2,1,2,49494,WMM2,1439429,false,false,1846,image-keyboard-response,9
true,15,2,1,2,true,d,false,true,0.0-2.0-0.61-0.553-3.553,0,0,1,68,false,stim,false,2,391.00000000023283,2,1,2,49494,WMM2,1441325,false,false,1849,image-keyboard-response,10
true,15,0,1,0,true,q,false,false,0.0-2.0-0.61-0.554-3.554,0,0,1,81,false,stim,false,2,783.0,2,0,1,49494,WMM2,1443613,false,true,1852,image-keyboard-response,11
true,15,2,1,2,true,d,false,true,0.0-2.0-0.61-0.555-3.555,0,0,1,68,false,stim,false,2,648.0,2,1,2,49494,WMM2,1445765,false,false,1855,image-keyboard-response,12
true,15,0,1,0,true,q,false,true,0.0-2.0-0.61-0.556-3.556,0,0,1,81,false,stim,false,2,614.0,2,0,1,49494,WMM2,1447885,false,false,1858,image-keyboard-response,13
true,15,1,1,1,true,z,false,true,0.0-2.0-0.61-0.557-3.557,0,0,1,90,false,stim,false,0,1071.0,2,0,0,49494,WMM2,1450461,false,false,1861,image-keyboard-response,14
true,15,0,1,0,true,q,false,true,0.0-2.0-0.62-0.558-3.558,0,0,1,81,false,stim,false,2,486.0,2,0,1,49494,WMM2,1452453,false,false,1864,image-keyboard-response,15
true,15,1,1,1,true,z,false,true,0.0-2.0-0.62-0.559-3.559,0,0,1,90,false,stim,false,0,527.0,2,0,0,49494,WMM2,1454485,false,false,1867,image-keyboard-response,16
true,15,1,1,1,true,z,false,true,0.0-2.0-0.62-0.560-3.560,0,0,1,90,false,stim,false,0,527.0000000002328,2,0,0,49494,WMM2,1456517,false,false,1870,image-keyboard-response,17
true,15,2,1,2,true,d,false,true,0.0-2.0-0.62-0.561-3.561,0,0,1,68,false,stim,false,2,751.0,2,1,2,49494,WMM2,1458773,false,false,1873,image-keyboard-response,18
true,15,2,1,2,true,d,false,true,0.0-2.0-0.62-0.562-3.562,0,0,1,68,false,stim,false,2,455.0,2,1,2,49494,WMM2,1460733,false,false,1876,image-keyboard-response,19
true,15,1,1,0,false,q,true,false,0.0-2.0-0.62-0.563-3.563,0,0,1,90,false,stim,false,2,831.0,2,0,1,49494,WMM2,1463069,false,false,1879,image-keyboard-response,20
true,15,0,1,1,false,z,false,false,0.0-2.0-0.62-0.564-3.564,0,0,1,81,false,stim,true,0,861.0,2,0,0,49494,WMM2,1465437,false,false,1882,image-keyboard-response,21
true,15,2,1,2,true,d,false,true,0.0-2.0-0.62-0.565-3.565,0,0,1,68,false,stim,false,2,670.0,2,1,2,49494,WMM2,1467613,false,false,1885,image-keyboard-response,22
true,15,1,1,0,false,q,true,false,0.0-2.0-0.62-0.566-3.566,0,0,1,90,false,stim,false,2,503.0,2,0,1,49494,WMM2,1469621,false,false,1888,image-keyboard-response,23
true,15,2,1,2,true,d,false,true,0.0-2.0-0.63-0.567-3.567,0,0,1,68,false,stim,false,2,631.0000000002328,2,1,2,49494,WMM2,1471757,false,false,1891,image-keyboard-response,24
true,15,0,1,0,true,q,false,true,0.0-2.0-0.63-0.568-3.568,0,0,1,81,false,stim,false,2,534.0,2,0,1,49494,WMM2,1473797,false,false,1894,image-keyboard-response,25
true,15,0,1,0,true,q,false,true,0.0-2.0-0.63-0.569-3.569,0,0,1,81,false,stim,false,2,503.00000000023283,2,0,1,49494,WMM2,1475805,false,false,1897,image-keyboard-response,26
true,15,2,1,2,true,d,false,true,0.0-2.0-0.63-0.570-3.570,0,0,1,68,false,stim,false,2,693.0,2,1,2,49494,WMM2,1478005,false,false,1900,image-keyboard-response,27
true,15,1,1,1,true,z,false,true,0.0-2.0-0.63-0.571-3.571,0,0,1,90,false,stim,false,0,761.0000000002328,2,0,0,49494,WMM2,1480277,false,false,1903,image-keyboard-response,28
true,15,0,1,0,true,q,false,false,0.0-2.0-0.63-0.572-3.572,0,0,1,81,false,stim,false,2,509.0,2,0,1,49494,WMM2,1482293,false,true,1906,image-keyboard-response,29
true,15,1,1,1,true,z,false,true,0.0-2.0-0.63-0.573-3.573,0,0,1,90,false,stim,false,0,374.0,2,0,0,49494,WMM2,1484173,false,false,1909,image-keyboard-response,30
true,15,1,1,1,true,z,false,true,0.0-2.0-0.63-0.574-3.574,0,0,1,90,false,stim,false,0,367.00000000023283,2,1,0,49494,WMM2,1486045,false,false,1912,image-keyboard-response,31
true,15,2,1,2,true,d,false,true,0.0-2.0-0.63-0.575-3.575,0,0,1,68,false,stim,false,2,582.0000000002328,2,0,2,49494,WMM2,1488133,false,false,1915,image-keyboard-response,32
true,15,1,1,0,false,q,true,true,0.0-2.0-0.64-0.576-3.576,0,0,1,90,false,stim,false,2,782.0000000002328,2,1,1,49494,WMM2,1490421,false,true,1918,image-keyboard-response,33
true,15,2,1,2,true,d,false,true,0.0-2.0-0.64-0.577-3.577,0,0,1,68,false,stim,false,2,751.0,2,0,2,49494,WMM2,1492677,false,false,1921,image-keyboard-response,34
true,15,1,1,1,true,z,false,true,0.0-2.0-0.64-0.578-3.578,0,0,1,90,false,stim,false,0,543.0,2,1,0,49494,WMM2,1494725,false,false,1924,image-keyboard-response,35
true,15,1,1,1,true,z,false,true,0.0-2.0-0.64-0.579-3.579,0,0,1,90,false,stim,false,0,535.0,2,1,0,49494,WMM2,1496765,false,false,1927,image-keyboard-response,36
true,15,2,1,2,true,d,false,true,0.0-2.0-0.64-0.580-3.580,0,0,1,68,false,stim,false,2,671.0000000002328,2,0,2,49494,WMM2,1498941,false,false,1930,image-keyboard-response,37
true,15,1,1,1,true,z,false,true,0.0-2.0-0.64-0.581-3.581,0,0,1,90,false,stim,false,0,559.0,2,1,0,49494,WMM2,1501005,false,false,1933,image-keyboard-response,38
true,15,2,1,2,true,d,false,true,0.0-2.0-0.64-0.582-3.582,0,0,1,68,false,stim,false,2,718.0000000002328,2,0,2,49494,WMM2,1503229,false,false,1936,image-keyboard-response,39
true,15,1,1,0,false,q,true,false,0.0-2.0-0.64-0.583-3.583,0,0,1,90,false,stim,false,2,438.0,2,1,1,49494,WMM2,1505173,false,false,1939,image-keyboard-response,40
true,16,1,3,0,false,q,true,true,0.0-2.0-0.64-0.584-3.584,1,1,0,90,true,stim,false,0,400.0,2,1,1,49494,WMM2,1507077,false,true,1942,image-keyboard-response,1
true,16,1,3,0,false,q,true,true,0.0-2.0-0.65-0.585-3.585,1,1,0,90,false,stim,false,0,430.0,2,1,1,49494,WMM2,1509013,false,true,1945,image-keyboard-response,2
true,16,2,3,0,false,q,false,false,0.0-2.0-0.65-0.586-3.586,1,1,0,68,false,stim,true,2,471.0,2,0,2,49494,WMM2,1510989,false,false,1948,image-keyboard-response,3
true,16,1,3,0,false,q,true,true,0.0-2.0-0.65-0.587-3.587,1,1,0,90,false,stim,false,0,566.0,2,1,1,49494,WMM2,1513061,false,true,1951,image-keyboard-response,4
true,16,1,3,1,true,z,false,false,0.0-2.0-0.65-0.588-3.588,1,1,0,90,false,stim,false,1,847.9999999997672,2,1,0,49494,WMM2,1515413,false,true,1954,image-keyboard-response,5
true,16,1,3,1,true,z,false,true,0.0-2.0-0.65-0.589-3.589,1,1,0,90,false,stim,false,1,463.0,2,1,0,49494,WMM2,1517381,false,false,1957,image-keyboard-response,6
true,16,1,3,1,true,z,false,false,0.0-2.0-0.65-0.590-3.590,1,1,0,90,false,stim,false,1,463.0,2,1,0,49494,WMM2,1519349,false,true,1960,image-keyboard-response,7
true,16,2,3,0,false,q,false,true,0.0-2.0-0.65-0.591-3.591,1,1,0,68,false,stim,true,2,822.0,2,0,2,49494,WMM2,1521677,false,true,1963,image-keyboard-response,8
true,16,1,3,0,false,q,true,false,0.0-2.0-0.65-0.592-3.592,1,1,0,90,false,stim,false,0,967.0,2,1,1,49494,WMM2,1524149,false,false,1966,image-keyboard-response,9
true,16,2,3,0,false,q,false,false,0.0-2.0-0.65-0.593-3.593,1,1,0,68,false,stim,true,2,591.0,2,0,2,49494,WMM2,1526245,false,false,1969,image-keyboard-response,10
true,16,1,3,1,true,z,false,true,0.0-2.0-0.66-0.594-3.594,1,1,0,90,false,stim,false,1,934.0,2,1,0,49494,WMM2,1528684,false,false,1972,image-keyboard-response,11
true,16,1,3,0,false,q,true,true,0.0-2.0-0.66-0.595-3.595,1,1,0,90,false,stim,false,0,616.0,2,1,1,49494,WMM2,1530805,false,true,1975,image-keyboard-response,12
true,16,1,3,1,true,z,false,true,0.0-2.0-0.66-0.596-3.596,1,1,0,90,false,stim,false,1,495.0,2,1,0,49494,WMM2,1532804,false,false,1978,image-keyboard-response,13
true,16,2,3,0,false,q,false,false,0.0-2.0-0.66-0.597-3.597,1,1,0,68,false,stim,true,2,719.0,2,0,2,49494,WMM2,1535028,false,false,1981,image-keyboard-response,14
true,16,1,3,0,false,q,true,false,0.0-2.0-0.66-0.598-3.598,1,1,0,90,false,stim,false,0,631.0,2,1,1,49494,WMM2,1537164,false,false,1984,image-keyboard-response,15
true,16,2,3,0,false,q,false,false,0.0-2.0-0.66-0.599-3.599,1,1,0,68,false,stim,true,2,909.9999999997672,2,0,2,49494,WMM2,1539580,false,false,1987,image-keyboard-response,16
true,16,0,3,0,true,q,false,true,0.0-2.0-0.66-0.600-3.600,1,1,0,81,false,stim,false,0,1000.0,2,1,1,49494,WMM2,1542084,false,false,1990,image-keyboard-response,17
true,16,0,3,1,false,z,true,true,0.0-2.0-0.66-0.601-3.601,1,1,0,81,false,stim,false,1,1119.0,2,1,0,49494,WMM2,1544709,false,true,1993,image-keyboard-response,18
true,16,1,3,0,false,q,true,true,0.0-2.0-0.66-0.602-3.602,1,1,0,90,false,stim,false,2,1103.0,2,0,2,49494,WMM2,1547316,false,true,1996,image-keyboard-response,19
true,16,0,3,1,false,z,true,false,0.0-2.0-0.67-0.603-3.603,1,1,0,81,false,stim,false,1,654.0,2,1,0,49494,WMM2,1549476,false,false,1999,image-keyboard-response,20
true,16,0,3,1,false,z,true,false,0.0-2.0-0.67-0.604-3.604,1,1,0,81,false,stim,false,1,401.99999999976717,2,1,0,49494,WMM2,1551388,false,false,2002,image-keyboard-response,21
true,16,1,3,0,false,q,true,false,0.0-2.0-0.67-0.605-3.605,1,1,0,90,false,stim,false,2,623.0000000002328,2,0,2,49494,WMM2,1553516,false,false,2005,image-keyboard-response,22
true,16,1,3,0,false,q,true,false,0.0-2.0-0.67-0.606-3.606,1,1,0,90,false,stim,false,2,638.0,2,0,2,49494,WMM2,1555660,false,false,2008,image-keyboard-response,23
true,16,0,3,0,true,q,false,true,0.0-2.0-0.67-0.607-3.607,1,1,0,81,false,stim,false,0,790.0,2,1,1,49494,WMM2,1557956,false,false,2011,image-keyboard-response,24
true,16,0,3,0,true,q,false,true,0.0-2.0-0.67-0.608-3.608,1,1,0,81,false,stim,false,0,389.0,2,1,1,49494,WMM2,1559852,false,false,2014,image-keyboard-response,25
true,16,0,3,0,true,q,false,true,0.0-2.0-0.67-0.609-3.609,1,1,0,81,false,stim,false,0,398.0,2,1,1,49494,WMM2,1561756,false,false,2017,image-keyboard-response,26
true,16,2,3,0,false,q,false,false,0.0-2.0-0.67-0.610-3.610,1,1,0,68,false,stim,true,2,1694.0,2,0,2,49494,WMM2,1564956,false,false,2020,image-keyboard-response,27
true,16,2,3,1,false,z,true,false,0.0-2.0-0.67-0.611-3.611,1,1,0,68,false,stim,false,1,1486.0,2,1,0,49494,WMM2,1567948,false,false,2023,image-keyboard-response,28
true,16,0,3,1,false,z,true,false,0.0-2.0-0.68-0.612-3.612,1,1,0,81,false,stim,false,1,453.0,2,1,0,49494,WMM2,1569908,false,false,2026,image-keyboard-response,29
true,16,1,3,1,true,z,false,true,0.0-2.0-0.68-0.613-3.613,1,1,0,90,false,stim,false,1,590.0,2,1,0,49494,WMM2,1572004,false,false,2029,image-keyboard-response,30
true,16,2,3,0,false,q,false,false,0.0-2.0-0.68-0.614-3.614,1,1,0,68,false,stim,true,2,1653.0,2,0,2,49494,WMM2,1575164,false,false,2032,image-keyboard-response,31
true,16,1,3,1,true,z,false,true,0.0-2.0-0.68-0.615-3.615,1,1,0,90,false,stim,false,1,702.0,2,1,0,49494,WMM2,1577372,false,false,2035,image-keyboard-response,32
true,16,0,3,0,true,q,false,true,0.0-2.0-0.68-0.616-3.616,1,1,0,81,false,stim,false,0,918.0,2,1,1,49494,WMM2,1579796,false,false,2038,image-keyboard-response,33
true,16,0,3,0,true,q,false,true,0.0-2.0-0.68-0.617-3.617,1,1,0,81,false,stim,false,0,717.0,2,1,1,49494,WMM2,1582020,false,false,2041,image-keyboard-response,34
true,16,1,3,0,false,q,true,false,0.0-2.0-0.68-0.618-3.618,1,1,0,90,false,stim,false,2,917.9999999997672,2,0,2,49494,WMM2,1584444,false,false,2044,image-keyboard-response,35
