answered,blockNum,choice,condition,corResp,correct,correct_response,explo,fb,internal_node_id,isStable_1,isStable_2,isStable_3,key_press,newBlock,part,persev,persevResp,rt,sessNum,stableAS,stimulus,subject,task,time_elapsed,training,trap,trial_index,trial_type,trialsInBlock
true,1,0,0,2,false,d,true,false,0.0-2.0-0.0-0.0-3.0,0,0,0,81,true,stim,false,-1,947.7649999998976,1,0,1,50706,WMM1,168556,false,false,147,image-keyboard-response,1
true,1,1,0,0,false,q,true,false,0.0-2.0-0.0-0.1-3.1,0,0,0,90,false,stim,false,-1,798.215000000695,1,0,0,50706,WMM1,170861,false,false,150,image-keyboard-response,2
true,1,2,0,0,false,q,true,false,0.0-2.0-0.0-0.2-3.2,0,0,0,68,false,stim,false,-1,805.5050000002375,1,0,0,50706,WMM1,173173,false,false,153,image-keyboard-response,3
true,1,0,0,2,false,d,true,false,0.0-2.0-0.0-0.3-3.3,0,0,0,81,false,stim,false,-1,741.1750000001339,1,0,1,50706,WMM1,175420,false,false,156,image-keyboard-response,4
true,1,0,0,2,false,d,true,false,0.0-2.0-0.0-0.4-3.4,0,0,0,81,false,stim,false,-1,645.2799999997369,1,0,2,50706,WMM1,177573,false,false,159,image-keyboard-response,5
true,1,1,0,2,false,d,true,false,0.0-2.0-0.0-0.5-3.5,0,0,0,90,false,stim,false,-1,828.7499999996799,1,0,2,50706,WMM1,179914,false,false,162,image-keyboard-response,6
true,1,2,0,2,true,d,false,true,0.0-2.0-0.0-0.6-3.6,0,0,0,68,false,stim,false,-1,1596.61000000051,1,0,1,50706,WMM1,183018,false,false,165,image-keyboard-response,7
true,1,2,0,2,true,d,false,true,0.0-2.0-0.0-0.7-3.7,0,0,0,68,false,stim,false,-1,804.6249999997672,1,0,2,50706,WMM1,185330,false,false,168,image-keyboard-response,8
true,1,2,0,0,false,q,true,false,0.0-2.0-0.0-0.8-3.8,0,0,0,68,false,stim,false,-1,573.5750000003318,1,0,0,50706,WMM1,187410,false,false,171,image-keyboard-response,9
true,1,1,0,0,false,q,true,true,0.0-2.0-0.1-0.9-3.9,0,0,0,90,false,stim,false,-1,556.5999999998603,1,0,0,50706,WMM1,189474,false,true,174,image-keyboard-response,10
true,1,2,0,2,true,d,false,true,0.0-2.0-0.1-0.10-3.10,0,0,0,68,false,stim,false,-1,821.3450000002922,1,0,1,50706,WMM1,191802,false,false,177,image-keyboard-response,11
true,1,2,0,2,true,d,false,true,0.0-2.0-0.1-0.11-3.11,0,0,0,68,false,stim,false,-1,853.1599999996542,1,0,2,50706,WMM1,194161,false,false,180,image-keyboard-response,12
true,1,2,0,2,true,d,false,true,0.0-2.0-0.1-0.12-3.12,0,0,0,68,false,stim,false,-1,1107.899999999965,1,0,2,50706,WMM1,196777,false,false,183,image-keyboard-response,13
true,1,1,0,0,false,q,true,false,0.0-2.0-0.1-0.13-3.13,0,0,0,90,false,stim,false,-1,866.5350000000908,1,0,0,50706,WMM1,199153,false,false,186,image-keyboard-response,14
true,1,2,0,2,true,d,false,true,0.0-2.0-0.1-0.14-3.14,0,0,0,68,false,stim,false,-1,453.8350000002538,1,0,2,50706,WMM1,201113,false,false,189,image-keyboard-response,15
true,1,2,0,2,true,d,false,true,0.0-2.0-0.1-0.15-3.15,0,0,0,68,false,stim,false,-1,701.5050000000047,1,0,1,50706,WMM1,203321,false,false,192,image-keyboard-response,16
true,1,0,0,0,true,q,false,true,0.0-2.0-0.1-0.16-3.16,0,0,0,81,false,stim,false,-1,853.6050000002433,1,0,0,50706,WMM1,205681,false,false,195,image-keyboard-response,17
true,1,2,0,2,true,d,false,true,0.0-2.0-0.1-0.17-3.17,0,0,0,68,false,stim,false,-1,686.3050000001676,1,0,1,50706,WMM1,207874,false,false,198,image-keyboard-response,18
true,1,0,0,0,true,q,false,true,0.0-2.0-0.2-0.18-3.18,0,0,0,81,false,stim,false,-1,920.2900000000081,1,0,0,50706,WMM1,210305,false,false,201,image-keyboard-response,19
true,1,2,0,2,true,d,false,true,0.0-2.0-0.2-0.19-3.19,0,0,0,68,false,stim,false,-1,1396.1450000006007,1,0,2,50706,WMM1,213209,false,false,204,image-keyboard-response,20
true,1,2,0,2,true,d,false,true,0.0-2.0-0.2-0.20-3.20,0,0,0,68,false,stim,false,-1,1155.955000000191,1,1,1,50706,WMM1,215872,false,false,207,image-keyboard-response,21
true,1,2,0,2,true,d,false,true,0.0-2.0-0.2-0.21-3.21,0,0,0,68,false,stim,false,-1,1644.1899999999732,1,1,1,50706,WMM1,219024,false,false,210,image-keyboard-response,22
true,1,2,0,2,true,d,false,true,0.0-2.0-0.2-0.22-3.22,0,0,0,68,false,stim,false,-1,1892.345000000205,1,0,2,50706,WMM1,222424,false,false,213,image-keyboard-response,23
true,1,0,0,0,true,q,false,true,0.0-2.0-0.2-0.23-3.23,0,0,0,81,false,stim,false,-1,922.6600000001781,1,0,0,50706,WMM1,224856,false,false,216,image-keyboard-response,24
true,1,2,0,2,true,d,false,true,0.0-2.0-0.2-0.24-3.24,0,0,0,68,false,stim,false,-1,1485.2650000002468,1,1,1,50706,WMM1,227848,false,false,219,image-keyboard-response,25
true,1,2,0,2,true,d,false,true,0.0-2.0-0.2-0.25-3.25,0,0,0,68,false,stim,false,-1,1430.3300000001327,1,0,2,50706,WMM1,230785,false,false,222,image-keyboard-response,26
true,1,0,0,0,true,q,false,true,0.0-2.0-0.2-0.26-3.26,0,0,0,81,false,stim,false,-1,954.7950000005658,1,0,0,50706,WMM1,233247,false,false,225,image-keyboard-response,27
true,1,0,0,0,true,q,false,true,0.0-2.0-0.3-0.27-3.27,0,0,0,81,false,stim,false,-1,1125.049999999639,1,0,0,50706,WMM1,235879,false,false,228,image-keyboard-response,28
true,1,2,0,2,true,d,false,true,0.0-2.0-0.3-0.28-3.28,0,0,0,68,false,stim,false,-1,940.8850000000093,1,0,2,50706,WMM1,238327,false,false,231,image-keyboard-response,29
true,1,2,0,2,true,d,false,true,0.0-2.0-0.3-0.29-3.29,0,0,0,68,false,stim,false,-1,1106.9299999999057,1,1,1,50706,WMM1,240947,false,false,234,image-keyboard-response,30
true,2,2,3,2,true,d,false,true,0.0-2.0-0.3-0.30-3.30,0,1,0,68,true,stim,false,2,877.3000000001048,1,1,1,50706,WMM1,243331,false,false,237,image-keyboard-response,1
true,2,2,3,0,false,q,false,false,0.0-2.0-0.3-0.31-3.31,0,1,0,68,false,stim,true,2,965.3200000002398,1,0,2,50706,WMM1,245803,false,false,240,image-keyboard-response,2
true,2,1,3,0,false,q,true,false,0.0-2.0-0.3-0.32-3.32,0,1,0,90,false,stim,false,2,940.7849999997707,1,0,2,50706,WMM1,248251,false,false,243,image-keyboard-response,3
true,2,2,3,2,true,d,false,true,0.0-2.0-0.3-0.33-3.33,0,1,0,68,false,stim,false,2,717.0949999999721,1,1,1,50706,WMM1,250475,false,false,246,image-keyboard-response,4
true,2,0,3,1,false,z,false,false,0.0-2.0-0.3-0.34-3.34,0,1,0,81,false,stim,true,0,716.5750000003609,1,0,0,50706,WMM1,252699,false,false,249,image-keyboard-response,5
true,2,1,3,1,true,z,false,true,0.0-2.0-0.3-0.35-3.35,0,1,0,90,false,stim,false,0,1293.4950000007811,1,0,0,50706,WMM1,255498,false,false,252,image-keyboard-response,6
true,2,1,3,0,false,q,true,true,0.0-2.0-0.4-0.36-3.36,0,1,0,90,false,stim,false,2,844.559999999532,1,0,2,50706,WMM1,257850,false,true,255,image-keyboard-response,7
true,2,1,3,0,false,q,true,false,0.0-2.0-0.4-0.37-3.37,0,1,0,90,false,stim,false,2,733.7600000000966,1,0,2,50706,WMM1,260091,false,false,258,image-keyboard-response,8
true,2,2,3,2,true,d,false,true,0.0-2.0-0.4-0.38-3.38,0,1,0,68,false,stim,false,2,941.3300000005984,1,1,1,50706,WMM1,262538,false,false,261,image-keyboard-response,9
true,2,1,3,1,true,z,false,true,0.0-2.0-0.4-0.39-3.39,0,1,0,90,false,stim,false,0,570.935000000638,1,0,0,50706,WMM1,264618,false,false,264,image-keyboard-response,10
true,2,1,3,1,true,z,false,true,0.0-2.0-0.4-0.40-3.40,0,1,0,90,false,stim,false,0,756.6400000004796,1,0,0,50706,WMM1,266882,false,false,267,image-keyboard-response,11
true,2,1,3,0,false,q,true,false,0.0-2.0-0.4-0.41-3.41,0,1,0,90,false,stim,false,2,1572.6700000004494,1,0,2,50706,WMM1,269962,false,false,270,image-keyboard-response,12
true,2,1,3,1,true,z,false,true,0.0-2.0-0.4-0.42-3.42,0,1,0,90,false,stim,false,0,629.050000000454,1,0,0,50706,WMM1,272098,false,false,273,image-keyboard-response,13
true,2,2,3,2,true,d,false,true,0.0-2.0-0.4-0.43-3.43,0,1,0,68,false,stim,false,2,524.4950000005774,1,1,1,50706,WMM1,274129,false,false,276,image-keyboard-response,14
true,2,2,3,2,true,d,false,true,0.0-2.0-0.4-0.44-3.44,0,1,0,68,false,stim,false,2,989.590000000142,1,1,1,50706,WMM1,276626,false,false,279,image-keyboard-response,15
true,2,1,3,1,true,z,false,true,0.0-2.0-0.5-0.45-3.45,0,1,0,90,false,stim,false,0,963.2449999999371,1,0,0,50706,WMM1,279097,false,false,282,image-keyboard-response,16
true,2,1,3,0,false,q,true,false,0.0-2.0-0.5-0.46-3.46,0,1,0,90,false,stim,false,2,1181.9800000003306,1,0,2,50706,WMM1,281785,false,false,285,image-keyboard-response,17
true,2,0,3,0,true,q,false,false,0.0-2.0-0.5-0.47-3.47,0,1,0,81,false,stim,false,2,885.1500000000815,1,0,2,50706,WMM1,284177,false,true,288,image-keyboard-response,18
true,2,2,3,2,true,d,false,true,0.0-2.0-0.5-0.48-3.48,0,1,0,68,false,stim,false,2,483.9599999995553,1,1,1,50706,WMM1,286169,false,false,291,image-keyboard-response,19
true,2,2,3,2,true,d,false,true,0.0-2.0-0.5-0.49-3.49,0,1,0,68,false,stim,false,2,899.71499999956,1,1,1,50706,WMM1,288577,false,false,294,image-keyboard-response,20
true,2,1,3,1,true,z,false,true,0.0-2.0-0.5-0.50-3.50,0,1,0,90,false,stim,false,0,788.9400000003516,1,0,0,50706,WMM1,290874,false,false,297,image-keyboard-response,21
true,2,2,3,2,true,d,false,true,0.0-2.0-0.5-0.51-3.51,0,1,0,68,false,stim,false,2,923.5399999998044,1,1,1,50706,WMM1,293304,false,false,300,image-keyboard-response,22
true,2,1,3,1,true,z,false,true,0.0-2.0-0.5-0.52-3.52,0,1,0,90,false,stim,false,0,1655.8750000003492,1,0,0,50706,WMM1,296473,false,false,303,image-keyboard-response,23
true,2,2,3,0,false,q,false,false,0.0-2.0-0.5-0.53-3.53,0,1,0,68,false,stim,true,2,938.064999999362,1,0,2,50706,WMM1,298920,false,false,306,image-keyboard-response,24
true,2,2,3,2,true,d,false,true,0.0-2.0-0.6-0.54-3.54,0,1,0,68,false,stim,false,2,891.1650000000373,1,1,1,50706,WMM1,301320,false,false,309,image-keyboard-response,25
true,2,0,3,0,true,q,false,true,0.0-2.0-0.6-0.55-3.55,0,1,0,81,false,stim,false,2,986.9300000000512,1,0,2,50706,WMM1,303816,false,false,312,image-keyboard-response,26
true,2,1,3,1,true,z,false,true,0.0-2.0-0.6-0.56-3.56,0,1,0,90,false,stim,false,0,947.8850000005332,1,0,0,50706,WMM1,306273,false,false,315,image-keyboard-response,27
true,2,1,3,1,true,z,false,true,0.0-2.0-0.6-0.57-3.57,0,1,0,90,false,stim,false,0,1058.5199999996112,1,0,0,50706,WMM1,308840,false,false,318,image-keyboard-response,28
true,2,2,3,2,true,d,false,true,0.0-2.0-0.6-0.58-3.58,0,1,0,68,false,stim,false,2,730.7399999999325,1,1,1,50706,WMM1,311080,false,false,321,image-keyboard-response,29
true,2,2,3,2,true,d,false,true,0.0-2.0-0.6-0.59-3.59,0,1,0,68,false,stim,false,2,1010.4250000003958,1,1,1,50706,WMM1,313600,false,false,324,image-keyboard-response,30
true,2,0,3,0,true,q,false,true,0.0-2.0-0.6-0.60-3.60,0,1,0,81,false,stim,false,2,754.8850000003004,1,0,2,50706,WMM1,315864,false,false,327,image-keyboard-response,31
true,2,1,3,1,true,z,false,true,0.0-2.0-0.6-0.61-3.61,0,1,0,90,false,stim,false,0,828.28000000061,1,0,0,50706,WMM1,318199,false,false,330,image-keyboard-response,32
true,2,2,3,0,false,q,false,true,0.0-2.0-0.6-0.62-3.62,0,1,0,68,false,stim,true,2,956.3250000000698,1,0,2,50706,WMM1,320664,false,true,333,image-keyboard-response,33
true,2,2,3,0,false,q,false,false,0.0-2.0-0.7-0.63-3.63,0,1,0,68,false,stim,true,2,739.9250000007451,1,0,2,50706,WMM1,322911,false,false,336,image-keyboard-response,34
true,2,1,3,1,true,z,false,false,0.0-2.0-0.7-0.64-3.64,0,1,0,90,false,stim,false,0,682.7050000001909,1,0,0,50706,WMM1,325103,false,true,339,image-keyboard-response,35
true,2,0,3,2,false,d,true,false,0.0-2.0-0.7-0.65-3.65,0,1,0,81,false,stim,false,2,781.5700000000652,1,0,1,50706,WMM1,327391,false,false,342,image-keyboard-response,36
true,2,1,3,2,false,d,true,false,0.0-2.0-0.7-0.66-3.66,0,1,0,90,false,stim,false,2,933.2150000000256,1,0,1,50706,WMM1,329831,false,false,345,image-keyboard-response,37
true,2,0,3,1,false,z,false,false,0.0-2.0-0.7-0.67-3.67,0,1,0,81,false,stim,true,0,956.7400000005146,1,0,0,50706,WMM1,332295,false,false,348,image-keyboard-response,38
true,2,2,3,2,true,d,false,true,0.0-2.0-0.7-0.68-3.68,0,1,0,68,false,stim,false,2,1298.0750000005937,1,0,1,50706,WMM1,335102,false,false,351,image-keyboard-response,39
true,2,0,3,0,true,q,false,true,0.0-2.0-0.7-0.69-3.69,0,1,0,81,false,stim,false,2,1467.9750000005006,1,0,2,50706,WMM1,338078,false,false,354,image-keyboard-response,40
true,2,1,3,1,true,z,false,true,0.0-2.0-0.7-0.70-3.70,0,1,0,90,false,stim,false,0,1004.8899999992573,1,0,0,50706,WMM1,340590,false,false,357,image-keyboard-response,41
true,3,0,1,2,false,d,false,true,0.0-2.0-0.7-0.71-3.71,0,0,0,81,true,stim,true,0,746.8699999999371,1,0,2,50706,WMM1,342848,false,true,360,image-keyboard-response,1
true,3,2,1,1,false,z,false,false,0.0-2.0-0.8-0.72-3.72,0,0,0,68,false,stim,true,2,826.6350000003586,1,0,1,50706,WMM1,345182,false,false,363,image-keyboard-response,2
true,3,1,1,0,false,q,false,false,0.0-2.0-0.8-0.73-3.73,0,0,0,90,false,stim,true,1,925.5249999996158,1,0,0,50706,WMM1,347614,false,false,366,image-keyboard-response,3
true,3,2,1,2,true,d,false,true,0.0-2.0-0.8-0.74-3.74,0,0,0,68,false,stim,false,0,1994.2750000000233,1,0,2,50706,WMM1,351118,false,false,369,image-keyboard-response,4
true,3,1,1,0,false,q,false,false,0.0-2.0-0.8-0.75-3.75,0,0,0,90,false,stim,true,1,1004.1799999998766,1,0,0,50706,WMM1,353630,false,false,372,image-keyboard-response,5
true,3,1,1,1,true,z,false,false,0.0-2.0-0.8-0.76-3.76,0,0,0,90,false,stim,false,2,844.019999999553,1,0,1,50706,WMM1,355981,false,true,375,image-keyboard-response,6
true,3,2,1,1,false,z,false,false,0.0-2.0-0.8-0.77-3.77,0,0,0,68,false,stim,true,2,915.850000000326,1,0,1,50706,WMM1,358405,false,false,378,image-keyboard-response,7
true,3,0,1,2,false,d,false,false,0.0-2.0-0.8-0.78-3.78,0,0,0,81,false,stim,true,0,1099.1549999998533,1,0,2,50706,WMM1,361013,false,false,381,image-keyboard-response,8
true,3,1,1,2,false,d,true,false,0.0-2.0-0.8-0.79-3.79,0,0,0,90,false,stim,false,0,571.4049999996787,1,0,2,50706,WMM1,363093,false,false,384,image-keyboard-response,9
true,3,0,1,0,true,q,false,true,0.0-2.0-0.8-0.80-3.80,0,0,0,81,false,stim,false,1,747.5999999996857,1,0,0,50706,WMM1,365349,false,false,387,image-keyboard-response,10
true,3,2,1,2,true,d,false,true,0.0-2.0-0.9-0.81-3.81,0,0,0,68,false,stim,false,0,1195.0450000003912,1,0,2,50706,WMM1,368052,false,false,390,image-keyboard-response,11
true,3,2,1,2,true,d,false,true,0.0-2.0-0.9-0.82-3.82,0,0,0,68,false,stim,false,0,644.9100000000326,1,0,2,50706,WMM1,370204,false,false,393,image-keyboard-response,12
true,3,1,1,1,true,z,false,true,0.0-2.0-0.9-0.83-3.83,0,0,0,90,false,stim,false,2,835.9000000000815,1,0,1,50706,WMM1,372548,false,false,396,image-keyboard-response,13
true,3,0,1,0,true,q,false,false,0.0-2.0-0.9-0.84-3.84,0,0,0,81,false,stim,false,1,1660.190000000468,1,0,0,50706,WMM1,375716,false,true,399,image-keyboard-response,14
true,3,1,1,0,false,q,false,false,0.0-2.0-0.9-0.85-3.85,0,0,0,90,false,stim,true,1,670.5449999999837,1,0,0,50706,WMM1,377900,false,false,402,image-keyboard-response,15
true,3,2,1,0,false,q,true,false,0.0-2.0-0.9-0.86-3.86,0,0,0,68,false,stim,false,1,636.5500000002212,1,0,0,50706,WMM1,380044,false,false,405,image-keyboard-response,16
true,3,2,1,2,true,d,false,true,0.0-2.0-0.9-0.87-3.87,0,0,0,68,false,stim,false,0,1298.75999999966,1,0,2,50706,WMM1,382851,false,false,408,image-keyboard-response,17
true,3,1,1,1,true,z,false,true,0.0-2.0-0.9-0.88-3.88,0,0,0,90,false,stim,false,2,808.085000000603,1,0,1,50706,WMM1,385165,false,false,411,image-keyboard-response,18
true,3,1,1,1,true,z,false,true,0.0-2.0-0.9-0.89-3.89,0,0,0,90,false,stim,false,2,1393.5999999994528,1,0,1,50706,WMM1,388068,false,false,414,image-keyboard-response,19
true,3,2,1,2,true,d,false,false,0.0-2.0-0.10-0.90-3.90,0,0,0,68,false,stim,false,0,676.0300000005518,1,0,2,50706,WMM1,390251,false,true,417,image-keyboard-response,20
true,3,2,1,2,true,d,false,true,0.0-2.0-0.10-0.91-3.91,0,0,0,68,false,stim,false,0,586.2600000000093,1,0,2,50706,WMM1,392348,false,false,420,image-keyboard-response,21
true,3,2,1,2,true,d,false,false,0.0-2.0-0.10-0.92-3.92,0,0,0,68,false,stim,false,0,780.3349999994389,1,0,2,50706,WMM1,394637,false,true,423,image-keyboard-response,22
true,3,0,1,0,true,q,false,true,0.0-2.0-0.10-0.93-3.93,0,0,0,81,false,stim,false,1,944.7000000000698,1,0,0,50706,WMM1,397091,false,false,426,image-keyboard-response,23
true,3,0,1,0,true,q,false,true,0.0-2.0-0.10-0.94-3.94,0,0,0,81,false,stim,false,1,955.8749999996508,1,0,0,50706,WMM1,399555,false,false,429,image-keyboard-response,24
true,3,1,1,1,true,z,false,true,0.0-2.0-0.10-0.95-3.95,0,0,0,90,false,stim,false,2,1306.3950000005425,1,0,1,50706,WMM1,402371,false,false,432,image-keyboard-response,25
true,3,1,1,1,true,z,false,true,0.0-2.0-0.10-0.96-3.96,0,0,0,90,false,stim,false,2,979.78000000061,1,0,1,50706,WMM1,404858,false,false,435,image-keyboard-response,26
true,3,0,1,0,true,q,false,true,0.0-2.0-0.10-0.97-3.97,0,0,0,81,false,stim,false,1,1221.1099999994622,1,0,0,50706,WMM1,407586,false,false,438,image-keyboard-response,27
true,3,1,1,1,true,z,false,true,0.0-2.0-0.10-0.98-3.98,0,0,0,90,false,stim,false,2,883.75,1,0,1,50706,WMM1,409978,false,false,441,image-keyboard-response,28
true,3,0,1,0,true,q,false,true,0.0-2.0-0.11-0.99-3.99,0,0,0,81,false,stim,false,1,1022.2050000001909,1,0,0,50706,WMM1,412514,false,false,444,image-keyboard-response,29
true,3,2,1,2,true,d,false,true,0.0-2.0-0.11-0.100-3.100,0,0,0,68,false,stim,false,0,820.2200000005541,1,0,2,50706,WMM1,414842,false,false,447,image-keyboard-response,30
true,3,0,1,0,true,q,false,true,0.0-2.0-0.11-0.101-3.101,0,0,0,81,false,stim,false,1,925.3500000003842,1,0,0,50706,WMM1,417274,false,false,450,image-keyboard-response,31
true,3,1,1,1,true,z,false,true,0.0-2.0-0.11-0.102-3.102,0,0,0,90,false,stim,false,2,900.0550000000512,1,0,1,50706,WMM1,419682,false,false,453,image-keyboard-response,32
true,3,1,1,1,true,z,false,true,0.0-2.0-0.11-0.103-3.103,0,0,0,90,false,stim,false,2,1252.550000000163,1,0,1,50706,WMM1,422441,false,false,456,image-keyboard-response,33
true,3,0,1,0,true,q,false,true,0.0-2.0-0.11-0.104-3.104,0,0,0,81,false,stim,false,1,896.8049999994109,1,0,0,50706,WMM1,424849,false,false,459,image-keyboard-response,34
true,4,2,2,0,false,q,false,true,0.0-2.0-0.11-0.105-3.105,0,0,0,68,true,stim,true,2,1027.6700000003912,1,0,2,50706,WMM1,427385,false,true,462,image-keyboard-response,1
true,4,1,2,2,false,d,false,false,0.0-2.0-0.11-0.106-3.106,0,0,0,90,false,stim,true,1,981.890000000014,1,0,1,50706,WMM1,429874,false,false,465,image-keyboard-response,2
true,4,2,2,0,false,q,false,false,0.0-2.0-0.11-0.107-3.107,0,0,0,68,false,stim,true,2,785.8049999995274,1,0,2,50706,WMM1,432168,false,false,468,image-keyboard-response,3
true,4,2,2,0,false,q,false,false,0.0-2.0-0.12-0.108-3.108,0,0,0,68,false,stim,true,2,676.8950000004843,1,0,2,50706,WMM1,434353,false,false,471,image-keyboard-response,4
true,4,1,2,0,false,q,true,true,0.0-2.0-0.12-0.109-3.109,0,0,0,90,false,stim,false,2,1186.2900000005611,1,0,2,50706,WMM1,437048,false,true,474,image-keyboard-response,5
true,4,0,2,1,false,z,false,false,0.0-2.0-0.12-0.110-3.110,0,0,0,81,false,stim,true,0,764.7699999997858,1,0,0,50706,WMM1,439321,false,false,477,image-keyboard-response,6
true,4,2,2,1,false,z,true,false,0.0-2.0-0.12-0.111-3.111,0,0,0,68,false,stim,false,0,923.3150000000023,1,0,0,50706,WMM1,441752,false,false,480,image-keyboard-response,7
true,4,1,2,1,true,z,false,true,0.0-2.0-0.12-0.112-3.112,0,0,0,90,false,stim,false,0,436.0999999999185,1,0,0,50706,WMM1,443696,false,false,483,image-keyboard-response,8
true,4,0,2,2,false,d,true,false,0.0-2.0-0.12-0.113-3.113,0,0,0,81,false,stim,false,1,931.2049999998999,1,0,1,50706,WMM1,446136,false,false,486,image-keyboard-response,9
true,4,1,2,0,false,q,true,false,0.0-2.0-0.12-0.114-3.114,0,0,0,90,false,stim,false,2,900.2249999993946,1,0,2,50706,WMM1,448544,false,false,489,image-keyboard-response,10
true,4,1,2,2,false,d,false,false,0.0-2.0-0.12-0.115-3.115,0,0,0,90,false,stim,true,1,1010.1549999999115,1,0,1,50706,WMM1,451063,false,false,492,image-keyboard-response,11
true,4,2,2,2,true,d,false,true,0.0-2.0-0.12-0.116-3.116,0,0,0,68,false,stim,false,1,500.4399999997695,1,0,1,50706,WMM1,453071,false,false,495,image-keyboard-response,12
true,4,1,2,0,false,q,true,false,0.0-2.0-0.13-0.117-3.117,0,0,0,90,false,stim,false,2,452.12499999976717,1,0,2,50706,WMM1,455031,false,false,498,image-keyboard-response,13
true,4,1,2,1,true,z,false,true,0.0-2.0-0.13-0.118-3.118,0,0,0,90,false,stim,false,0,1884.2200000008452,1,0,0,50706,WMM1,458431,false,false,501,image-keyboard-response,14
true,4,2,2,2,true,d,false,true,0.0-2.0-0.13-0.119-3.119,0,0,0,68,false,stim,false,1,632.5450000003912,1,0,1,50706,WMM1,460575,false,false,504,image-keyboard-response,15
true,4,0,2,0,true,q,false,true,0.0-2.0-0.13-0.120-3.120,0,0,0,81,false,stim,false,2,435.6200000002282,1,0,2,50706,WMM1,462519,false,false,507,image-keyboard-response,16
true,4,1,2,1,true,z,false,true,0.0-2.0-0.13-0.121-3.121,0,0,0,90,false,stim,false,0,571.9550000003655,1,0,0,50706,WMM1,464599,false,false,510,image-keyboard-response,17
true,4,1,2,1,true,z,false,false,0.0-2.0-0.13-0.122-3.122,0,0,0,90,false,stim,false,0,939.4000000001979,1,0,0,50706,WMM1,467046,false,true,513,image-keyboard-response,18
true,4,0,2,0,true,q,false,true,0.0-2.0-0.13-0.123-3.123,0,0,0,81,false,stim,false,2,812.8400000004913,1,0,2,50706,WMM1,469367,false,false,516,image-keyboard-response,19
true,4,2,2,2,true,d,false,true,0.0-2.0-0.13-0.124-3.124,0,0,0,68,false,stim,false,1,810.8949999996112,1,0,1,50706,WMM1,471686,false,false,519,image-keyboard-response,20
true,4,2,2,2,true,d,false,true,0.0-2.0-0.13-0.125-3.125,0,0,0,68,false,stim,false,1,801.9250000006286,1,0,1,50706,WMM1,473998,false,false,522,image-keyboard-response,21
true,4,0,2,0,true,q,false,true,0.0-2.0-0.14-0.126-3.126,0,0,0,81,false,stim,false,2,1130.1999999996042,1,0,2,50706,WMM1,476638,false,false,525,image-keyboard-response,22
true,4,1,2,1,true,z,false,true,0.0-2.0-0.14-0.127-3.127,0,0,0,90,false,stim,false,0,1258.6099999998696,1,0,0,50706,WMM1,479405,false,false,528,image-keyboard-response,23
true,4,1,2,1,true,z,false,false,0.0-2.0-0.14-0.128-3.128,0,0,0,90,false,stim,false,0,1078.8300000004238,1,0,0,50706,WMM1,481991,false,true,531,image-keyboard-response,24
true,4,2,2,2,true,d,false,true,0.0-2.0-0.14-0.129-3.129,0,0,0,68,false,stim,false,1,1162.7550000002957,1,0,1,50706,WMM1,484662,false,false,534,image-keyboard-response,25
true,4,1,2,1,true,z,false,true,0.0-2.0-0.14-0.130-3.130,0,0,0,90,false,stim,false,0,890.7950000002747,1,0,0,50706,WMM1,487062,false,false,537,image-keyboard-response,26
true,4,2,2,2,true,d,false,true,0.0-2.0-0.14-0.131-3.131,0,0,0,68,false,stim,false,1,1123.8800000000629,1,0,1,50706,WMM1,489694,false,false,540,image-keyboard-response,27
true,4,2,2,2,true,d,false,true,0.0-2.0-0.14-0.132-3.132,0,0,0,68,false,stim,false,1,1130.5899999997928,1,0,1,50706,WMM1,492333,false,false,543,image-keyboard-response,28
true,4,0,2,0,true,q,false,true,0.0-2.0-0.14-0.133-3.133,0,0,0,81,false,stim,false,2,1138.8449999994482,1,0,2,50706,WMM1,494981,false,false,546,image-keyboard-response,29
true,4,2,2,0,false,q,false,false,0.0-2.0-0.14-0.134-3.134,0,0,0,68,false,stim,true,2,979.7900000003283,1,0,2,50706,WMM1,497469,false,false,549,image-keyboard-response,30
true,5,1,4,2,false,d,false,false,0.0-2.0-0.15-0.135-3.135,0,0,0,90,true,stim,true,1,1452.1700000004494,1,0,0,50706,WMM1,500429,false,false,552,image-keyboard-response,1
true,5,0,4,1,false,z,false,false,0.0-2.0-0.15-0.136-3.136,0,0,0,81,false,stim,true,0,1018.3649999998743,1,0,2,50706,WMM1,502957,false,false,555,image-keyboard-response,2
true,5,1,4,1,true,z,false,false,0.0-2.0-0.15-0.137-3.137,0,0,0,90,false,stim,false,0,684.2750000005472,1,0,2,50706,WMM1,505149,false,true,558,image-keyboard-response,3
true,5,2,4,1,false,z,true,false,0.0-2.0-0.15-0.138-3.138,0,0,0,68,false,stim,false,0,420.12500000052387,1,0,2,50706,WMM1,507077,false,false,561,image-keyboard-response,4
true,5,1,4,2,false,d,false,false,0.0-2.0-0.15-0.139-3.139,0,0,0,90,false,stim,true,1,972.2400000000489,1,0,0,50706,WMM1,509557,false,false,564,image-keyboard-response,5
true,5,0,4,0,true,q,false,false,0.0-2.0-0.15-0.140-3.140,0,0,0,81,false,stim,false,2,940.5399999995716,1,0,1,50706,WMM1,512005,false,true,567,image-keyboard-response,6
true,5,1,4,0,false,q,true,false,0.0-2.0-0.15-0.141-3.141,0,0,0,90,false,stim,false,2,628.0099999994272,1,0,1,50706,WMM1,514140,false,false,570,image-keyboard-response,7
true,5,2,4,2,true,d,false,true,0.0-2.0-0.15-0.142-3.142,0,0,0,68,false,stim,false,1,1722.5950000001467,1,0,0,50706,WMM1,517372,false,false,573,image-keyboard-response,8
true,5,2,4,0,false,q,false,false,0.0-2.0-0.15-0.143-3.143,0,0,0,68,false,stim,true,2,1098.6800000001094,1,0,1,50706,WMM1,519980,false,false,576,image-keyboard-response,9
true,5,2,4,2,true,d,false,true,0.0-2.0-0.16-0.144-3.144,0,0,0,68,false,stim,false,1,483.34999999951106,1,0,0,50706,WMM1,521972,false,false,579,image-keyboard-response,10
true,5,0,4,0,true,q,false,false,0.0-2.0-0.16-0.145-3.145,0,0,0,81,false,stim,false,2,996.395000000135,1,0,1,50706,WMM1,524476,false,true,582,image-keyboard-response,11
true,5,1,4,2,false,d,false,false,0.0-2.0-0.16-0.146-3.146,0,0,0,90,false,stim,true,1,784.0399999995716,1,0,0,50706,WMM1,526772,false,false,585,image-keyboard-response,12
true,5,0,4,1,false,z,false,false,0.0-2.0-0.16-0.147-3.147,0,0,0,81,false,stim,true,0,899.6550000002608,1,0,2,50706,WMM1,529179,false,false,588,image-keyboard-response,13
true,5,2,4,2,true,d,false,true,0.0-2.0-0.16-0.148-3.148,0,0,0,68,false,stim,false,1,427.824999999837,1,0,0,50706,WMM1,531115,false,false,591,image-keyboard-response,14
true,5,1,4,1,true,z,false,true,0.0-2.0-0.16-0.149-3.149,0,0,0,90,false,stim,false,0,891.6900000002934,1,0,2,50706,WMM1,533515,false,false,594,image-keyboard-response,15
true,5,0,4,0,true,q,false,false,0.0-2.0-0.16-0.150-3.150,0,0,0,81,false,stim,false,2,754.9100000006147,1,0,1,50706,WMM1,535779,false,true,597,image-keyboard-response,16
true,5,2,4,0,false,q,false,false,0.0-2.0-0.16-0.151-3.151,0,0,0,68,false,stim,true,2,940.1149999994086,1,0,1,50706,WMM1,538228,false,false,600,image-keyboard-response,17
true,5,2,4,1,false,z,true,false,0.0-2.0-0.16-0.152-3.152,0,0,0,68,false,stim,false,0,939.449999999837,1,0,2,50706,WMM1,540683,false,false,603,image-keyboard-response,18
true,5,1,4,0,false,q,true,false,0.0-2.0-0.17-0.153-3.153,0,0,0,90,false,stim,false,2,1235.260000000475,1,0,1,50706,WMM1,543426,false,false,606,image-keyboard-response,19
true,5,2,4,2,true,d,false,true,0.0-2.0-0.17-0.154-3.154,0,0,0,68,false,stim,false,1,579.2250000004424,1,0,0,50706,WMM1,545514,false,false,609,image-keyboard-response,20
true,5,1,4,1,true,z,false,true,0.0-2.0-0.17-0.155-3.155,0,0,0,90,false,stim,false,0,705.295000000624,1,0,2,50706,WMM1,547730,false,false,612,image-keyboard-response,21
true,5,1,4,1,true,z,false,true,0.0-2.0-0.17-0.156-3.156,0,0,0,90,false,stim,false,0,858.4400000008754,1,0,2,50706,WMM1,550098,false,false,615,image-keyboard-response,22
true,5,2,4,0,false,q,false,false,0.0-2.0-0.17-0.157-3.157,0,0,0,68,false,stim,true,2,858.0799999999581,1,0,1,50706,WMM1,552466,false,false,618,image-keyboard-response,23
true,5,1,4,0,false,q,true,false,0.0-2.0-0.17-0.158-3.158,0,0,0,90,false,stim,false,2,752.6250000001164,1,0,1,50706,WMM1,554730,false,false,621,image-keyboard-response,24
true,5,2,4,2,true,d,false,true,0.0-2.0-0.17-0.159-3.159,0,0,0,68,false,stim,false,1,696.4300000000512,1,0,0,50706,WMM1,556937,false,false,624,image-keyboard-response,25
true,5,1,4,1,true,z,false,true,0.0-2.0-0.17-0.160-3.160,0,0,0,90,false,stim,false,0,713.9850000003353,1,0,2,50706,WMM1,559162,false,false,627,image-keyboard-response,26
true,5,2,4,2,true,d,false,true,0.0-2.0-0.17-0.161-3.161,0,0,0,68,false,stim,false,1,697.4350000000559,1,0,0,50706,WMM1,561369,false,false,630,image-keyboard-response,27
true,5,2,4,2,true,d,false,true,0.0-2.0-0.18-0.162-3.162,0,0,0,68,false,stim,false,1,930.1949999999488,1,0,0,50706,WMM1,563809,false,false,633,image-keyboard-response,28
true,5,0,4,0,true,q,false,false,0.0-2.0-0.18-0.163-3.163,0,0,0,81,false,stim,false,2,832.7799999996787,1,0,1,50706,WMM1,566153,false,true,636,image-keyboard-response,29
true,5,2,4,2,true,d,false,true,0.0-2.0-0.18-0.164-3.164,0,0,0,68,false,stim,false,1,682.6449999999022,1,0,0,50706,WMM1,568345,false,false,639,image-keyboard-response,30
true,5,1,4,1,true,z,false,true,0.0-2.0-0.18-0.165-3.165,0,0,0,90,false,stim,false,0,817.4399999997113,1,0,2,50706,WMM1,570674,false,false,642,image-keyboard-response,31
true,5,1,4,1,true,z,false,true,0.0-2.0-0.18-0.166-3.166,0,0,0,90,false,stim,false,0,768.6349999994272,1,0,2,50706,WMM1,572953,false,false,645,image-keyboard-response,32
true,5,1,4,0,false,q,true,true,0.0-2.0-0.18-0.167-3.167,0,0,0,90,false,stim,false,2,1217.6750000008615,1,0,1,50706,WMM1,575681,false,true,648,image-keyboard-response,33
true,5,1,4,1,true,z,false,true,0.0-2.0-0.18-0.168-3.168,0,0,0,90,false,stim,false,0,489.33000000030734,1,0,2,50706,WMM1,577680,false,false,651,image-keyboard-response,34
true,5,2,4,2,true,d,false,true,0.0-2.0-0.18-0.169-3.169,0,0,0,68,false,stim,false,1,697.2599999998929,1,0,0,50706,WMM1,579888,false,false,654,image-keyboard-response,35
true,5,1,4,0,false,q,true,false,0.0-2.0-0.18-0.170-3.170,0,0,0,90,false,stim,false,2,784.4850000001024,1,0,1,50706,WMM1,582184,false,false,657,image-keyboard-response,36
true,5,1,4,0,false,q,true,false,0.0-2.0-0.19-0.171-3.171,0,0,0,90,false,stim,false,2,552.9599999999627,1,0,1,50706,WMM1,584248,false,false,660,image-keyboard-response,37
true,5,2,4,2,true,d,false,true,0.0-2.0-0.19-0.172-3.172,0,0,0,68,false,stim,false,1,585.9049999999115,1,0,0,50706,WMM1,586344,false,false,663,image-keyboard-response,38
true,5,1,4,1,true,z,false,true,0.0-2.0-0.19-0.173-3.173,0,0,0,90,false,stim,false,0,784.7399999991758,1,0,2,50706,WMM1,588640,false,false,666,image-keyboard-response,39
true,5,2,4,1,false,z,true,false,0.0-2.0-0.19-0.174-3.174,0,0,0,68,false,stim,false,0,736.7050000001909,1,0,2,50706,WMM1,590888,false,false,669,image-keyboard-response,40
true,5,1,4,1,true,z,false,true,0.0-2.0-0.19-0.175-3.175,0,0,0,90,false,stim,false,0,465.95499999972526,1,0,2,50706,WMM1,592864,false,false,672,image-keyboard-response,41
true,5,2,4,2,true,d,false,true,0.0-2.0-0.19-0.176-3.176,0,0,0,68,false,stim,false,1,1009.3999999999069,1,0,0,50706,WMM1,595383,false,false,675,image-keyboard-response,42
true,5,1,4,0,false,q,true,false,0.0-2.0-0.19-0.177-3.177,0,0,0,90,false,stim,false,2,842.6450000007171,1,0,1,50706,WMM1,597737,false,false,678,image-keyboard-response,43
true,5,2,4,2,true,d,false,true,0.0-2.0-0.19-0.178-3.178,0,0,0,68,false,stim,false,1,935.3449999998556,1,0,0,50706,WMM1,600183,false,false,681,image-keyboard-response,44
true,5,0,4,0,true,q,false,true,0.0-2.0-0.19-0.179-3.179,0,0,0,81,false,stim,false,2,873.0050000003539,1,0,1,50706,WMM1,602567,false,false,684,image-keyboard-response,45
true,5,0,4,0,true,q,false,false,0.0-2.0-0.20-0.180-3.180,0,0,0,81,false,stim,false,2,712.8950000006007,1,0,1,50706,WMM1,604791,false,true,687,image-keyboard-response,46
true,5,0,4,0,true,q,false,true,0.0-2.0-0.20-0.181-3.181,0,0,0,81,false,stim,false,2,681.5599999999395,1,0,1,50706,WMM1,606983,false,false,690,image-keyboard-response,47
true,5,1,4,1,true,z,false,true,0.0-2.0-0.20-0.182-3.182,0,0,0,90,false,stim,false,0,967.2300000002142,1,0,2,50706,WMM1,609463,false,false,693,image-keyboard-response,48
true,5,2,4,2,true,d,false,true,0.0-2.0-0.20-0.183-3.183,0,0,0,68,false,stim,false,1,425.5199999997858,1,0,0,50706,WMM1,611399,false,false,696,image-keyboard-response,49
true,5,2,4,2,true,d,false,false,0.0-2.0-0.20-0.184-3.184,0,0,0,68,false,stim,false,1,755.9099999997998,1,0,0,50706,WMM1,613663,false,true,699,image-keyboard-response,50
true,5,1,4,1,true,z,false,true,0.0-2.0-0.20-0.185-3.185,0,0,0,90,false,stim,false,0,1241.2800000001444,1,0,2,50706,WMM1,616423,false,false,702,image-keyboard-response,51
true,5,1,4,1,true,z,false,false,0.0-2.0-0.20-0.186-3.186,0,0,0,90,false,stim,false,0,594.6750000002794,1,0,2,50706,WMM1,618526,false,true,705,image-keyboard-response,52
true,5,0,4,0,true,q,false,true,0.0-2.0-0.20-0.187-3.187,0,0,0,81,false,stim,false,2,875.4300000000512,1,0,1,50706,WMM1,620910,false,false,708,image-keyboard-response,53
true,5,1,4,2,false,d,false,false,0.0-2.0-0.20-0.188-3.188,0,0,0,90,false,stim,true,1,1163.4700000004377,1,0,0,50706,WMM1,623582,false,false,711,image-keyboard-response,54
true,5,2,4,2,true,d,false,true,0.0-2.0-0.21-0.189-3.189,0,0,0,68,false,stim,false,1,835.3750000005821,1,0,0,50706,WMM1,625926,false,false,714,image-keyboard-response,55
true,5,1,4,1,true,z,false,true,0.0-2.0-0.21-0.190-3.190,0,0,0,90,false,stim,false,0,1163.1950000000652,1,0,2,50706,WMM1,628598,false,false,717,image-keyboard-response,56
true,5,2,4,2,true,d,false,true,0.0-2.0-0.21-0.191-3.191,0,0,0,68,false,stim,false,1,858.0149999997811,1,0,0,50706,WMM1,630966,false,false,720,image-keyboard-response,57
true,5,1,4,1,true,z,false,true,0.0-2.0-0.21-0.192-3.192,0,0,0,90,false,stim,false,0,1212.0000000004657,1,0,2,50706,WMM1,633685,false,false,723,image-keyboard-response,58
true,6,0,2,2,false,d,false,false,0.0-2.0-0.21-0.193-3.193,0,0,0,81,true,stim,true,0,988.0799999992596,1,0,1,50706,WMM1,636181,false,false,726,image-keyboard-response,1
true,6,0,2,2,false,d,false,false,0.0-2.0-0.21-0.194-3.194,0,0,0,81,false,stim,true,0,739.1500000002561,1,0,1,50706,WMM1,638429,false,false,729,image-keyboard-response,2
true,6,2,2,1,false,z,false,false,0.0-2.0-0.21-0.195-3.195,0,0,0,68,false,stim,true,2,1490.1449999996694,1,0,0,50706,WMM1,641430,false,false,732,image-keyboard-response,3
true,6,0,2,2,false,d,false,false,0.0-2.0-0.21-0.196-3.196,0,0,0,81,false,stim,true,0,803.7599999997765,1,0,1,50706,WMM1,643741,false,false,735,image-keyboard-response,4
true,6,2,2,0,false,q,true,false,0.0-2.0-0.21-0.197-3.197,0,0,0,68,false,stim,false,1,1307.6750000000466,1,0,2,50706,WMM1,646557,false,false,738,image-keyboard-response,5
true,6,2,2,1,false,z,false,true,0.0-2.0-0.22-0.198-3.198,0,0,0,68,false,stim,true,2,594.6000000004424,1,0,0,50706,WMM1,648661,false,true,741,image-keyboard-response,6
true,6,1,2,0,false,q,false,false,0.0-2.0-0.22-0.199-3.199,0,0,0,90,false,stim,true,1,707.1550000001444,1,0,2,50706,WMM1,650877,false,false,744,image-keyboard-response,7
true,6,0,2,2,false,d,false,false,0.0-2.0-0.22-0.200-3.200,0,0,0,81,false,stim,true,0,915.9650000002002,1,0,1,50706,WMM1,653301,false,false,747,image-keyboard-response,8
true,6,2,2,1,false,z,false,false,0.0-2.0-0.22-0.201-3.201,0,0,0,68,false,stim,true,2,851.8000000003958,1,0,0,50706,WMM1,655660,false,false,750,image-keyboard-response,9
true,6,1,2,2,false,d,true,false,0.0-2.0-0.22-0.202-3.202,0,0,0,90,false,stim,false,0,1115.7750000002561,1,0,1,50706,WMM1,658284,false,false,753,image-keyboard-response,10
true,6,2,2,1,false,z,false,false,0.0-2.0-0.22-0.203-3.203,0,0,0,68,false,stim,true,2,827.6150000001071,1,0,0,50706,WMM1,660620,false,false,756,image-keyboard-response,11
true,6,2,2,0,false,q,true,false,0.0-2.0-0.22-0.204-3.204,0,0,0,68,false,stim,false,1,986.1449999999022,1,0,2,50706,WMM1,663116,false,false,759,image-keyboard-response,12
true,6,2,2,2,true,d,false,true,0.0-2.0-0.22-0.205-3.205,0,0,0,68,false,stim,false,0,804.6899999999441,1,0,1,50706,WMM1,665428,false,false,762,image-keyboard-response,13
true,6,1,2,0,false,q,false,false,0.0-2.0-0.22-0.206-3.206,0,0,0,90,false,stim,true,1,779.2700000000186,1,0,2,50706,WMM1,667716,false,false,765,image-keyboard-response,14
true,6,1,2,1,true,z,false,true,0.0-2.0-0.23-0.207-3.207,0,0,0,90,false,stim,false,2,770.1000000006752,1,0,0,50706,WMM1,669996,false,false,768,image-keyboard-response,15
true,6,2,2,2,true,d,false,true,0.0-2.0-0.23-0.208-3.208,0,0,0,68,false,stim,false,0,541.7149999993853,1,0,1,50706,WMM1,672045,false,false,771,image-keyboard-response,16
true,6,2,2,2,true,d,false,true,0.0-2.0-0.23-0.209-3.209,0,0,0,68,false,stim,false,0,825.7649999995483,1,0,1,50706,WMM1,674379,false,false,774,image-keyboard-response,17
true,6,2,2,2,true,d,false,true,0.0-2.0-0.23-0.210-3.210,0,0,0,68,false,stim,false,0,906.8349999998463,1,0,1,50706,WMM1,676795,false,false,777,image-keyboard-response,18
true,6,0,2,0,true,q,false,true,0.0-2.0-0.23-0.211-3.211,0,0,0,81,false,stim,false,1,1700.2200000006706,1,0,2,50706,WMM1,680004,false,false,780,image-keyboard-response,19
true,6,0,2,0,true,q,false,true,0.0-2.0-0.23-0.212-3.212,0,0,0,81,false,stim,false,1,754.2999999995809,1,0,2,50706,WMM1,682267,false,false,783,image-keyboard-response,20
true,6,0,2,0,true,q,false,true,0.0-2.0-0.23-0.213-3.213,0,0,0,81,false,stim,false,1,1072.2150000002002,1,0,2,50706,WMM1,684851,false,false,786,image-keyboard-response,21
true,6,2,2,1,false,z,false,false,0.0-2.0-0.23-0.214-3.214,0,0,0,68,false,stim,true,2,1016.2700000000186,1,0,0,50706,WMM1,687379,false,false,789,image-keyboard-response,22
true,6,1,2,1,true,z,false,true,0.0-2.0-0.23-0.215-3.215,0,0,0,90,false,stim,false,2,753.4449999993667,1,0,0,50706,WMM1,689643,false,false,792,image-keyboard-response,23
true,6,1,2,1,true,z,false,true,0.0-2.0-0.24-0.216-3.216,0,0,0,90,false,stim,false,2,983.8099999997066,1,0,0,50706,WMM1,692138,false,false,795,image-keyboard-response,24
true,6,2,2,2,true,d,false,true,0.0-2.0-0.24-0.217-3.217,0,0,0,68,false,stim,false,0,712.1800000005169,1,0,1,50706,WMM1,694362,false,false,798,image-keyboard-response,25
true,6,2,2,2,true,d,false,true,0.0-2.0-0.24-0.218-3.218,0,0,0,68,false,stim,false,0,735.0100000003586,1,0,1,50706,WMM1,696618,false,false,801,image-keyboard-response,26
true,6,0,2,0,true,q,false,true,0.0-2.0-0.24-0.219-3.219,0,0,0,81,false,stim,false,1,1076.944999999716,1,0,2,50706,WMM1,699202,false,false,804,image-keyboard-response,27
true,6,0,2,0,true,q,false,true,0.0-2.0-0.24-0.220-3.220,0,0,0,81,false,stim,false,1,779.3549999996321,1,0,2,50706,WMM1,701490,false,false,807,image-keyboard-response,28
true,6,2,2,2,true,d,false,false,0.0-2.0-0.24-0.221-3.221,0,0,0,68,false,stim,false,0,1090.0550000006333,1,0,1,50706,WMM1,704090,false,true,810,image-keyboard-response,29
true,6,0,2,0,true,q,false,true,0.0-2.0-0.24-0.222-3.222,0,0,0,81,false,stim,false,1,932.0950000000885,1,0,2,50706,WMM1,706530,false,false,813,image-keyboard-response,30
true,6,1,2,1,true,z,false,true,0.0-2.0-0.24-0.223-3.223,0,0,0,90,false,stim,false,2,649.1900000000605,1,1,0,50706,WMM1,708689,false,false,816,image-keyboard-response,31
true,6,1,2,1,true,z,false,true,0.0-2.0-0.24-0.224-3.224,0,0,0,90,false,stim,false,2,582.0199999999022,1,1,0,50706,WMM1,710778,false,false,819,image-keyboard-response,32
true,6,2,2,2,true,d,false,true,0.0-2.0-0.25-0.225-3.225,0,0,0,68,false,stim,false,0,875.1149999998743,1,0,1,50706,WMM1,713161,false,false,822,image-keyboard-response,33
true,6,1,2,1,true,z,false,true,0.0-2.0-0.25-0.226-3.226,0,0,0,90,false,stim,false,2,1234.1350000005914,1,1,0,50706,WMM1,715905,false,false,825,image-keyboard-response,34
true,7,0,3,1,false,z,false,false,0.0-2.0-0.25-0.227-3.227,1,0,0,81,true,stim,true,0,980.3749999991851,1,0,2,50706,WMM1,718393,false,false,828,image-keyboard-response,1
true,7,1,3,1,true,z,false,false,0.0-2.0-0.25-0.228-3.228,1,0,0,90,false,stim,false,1,857.9950000003446,1,1,0,50706,WMM1,720761,false,true,831,image-keyboard-response,2
true,7,2,3,0,false,q,false,false,0.0-2.0-0.25-0.229-3.229,1,0,0,68,false,stim,true,2,812.0799999997253,1,0,1,50706,WMM1,723081,false,false,834,image-keyboard-response,3
true,7,2,3,0,false,q,false,false,0.0-2.0-0.25-0.230-3.230,1,0,0,68,false,stim,true,2,1187.944999999716,1,0,1,50706,WMM1,725776,false,false,837,image-keyboard-response,4
true,7,2,3,1,false,z,true,false,0.0-2.0-0.25-0.231-3.231,1,0,0,68,false,stim,false,0,731.6449999997858,1,0,2,50706,WMM1,728016,false,false,840,image-keyboard-response,5
true,7,1,3,1,true,z,false,true,0.0-2.0-0.25-0.232-3.232,1,0,0,90,false,stim,false,0,1330.6050000000978,1,0,2,50706,WMM1,730856,false,false,843,image-keyboard-response,6
true,7,2,3,1,false,z,true,false,0.0-2.0-0.25-0.233-3.233,1,0,0,68,false,stim,false,1,857.4600000001956,1,1,0,50706,WMM1,733224,false,false,846,image-keyboard-response,7
true,7,1,3,0,false,q,true,false,0.0-2.0-0.26-0.234-3.234,1,0,0,90,false,stim,false,2,1947.4300000001676,1,0,1,50706,WMM1,736680,false,false,849,image-keyboard-response,8
true,7,1,3,1,true,z,false,true,0.0-2.0-0.26-0.235-3.235,1,0,0,90,false,stim,false,0,729.9350000002887,1,0,2,50706,WMM1,738920,false,false,852,image-keyboard-response,9
true,7,0,3,0,true,q,false,true,0.0-2.0-0.26-0.236-3.236,1,0,0,81,false,stim,false,2,475.76000000024214,1,0,1,50706,WMM1,740904,false,false,855,image-keyboard-response,10
true,7,0,3,0,true,q,false,true,0.0-2.0-0.26-0.237-3.237,1,0,0,81,false,stim,false,2,820.2000000000698,1,0,1,50706,WMM1,743232,false,false,858,image-keyboard-response,11
true,7,2,3,1,false,z,true,true,0.0-2.0-0.26-0.238-3.238,1,0,0,68,false,stim,false,0,1097.764999999432,1,0,2,50706,WMM1,745839,false,true,861,image-keyboard-response,12
true,7,0,3,1,false,z,false,false,0.0-2.0-0.26-0.239-3.239,1,0,0,81,false,stim,true,0,1202.5050000002375,1,0,2,50706,WMM1,748551,false,false,864,image-keyboard-response,13
true,7,1,3,1,true,z,false,true,0.0-2.0-0.26-0.240-3.240,1,0,0,90,false,stim,false,1,1354.0899999997346,1,1,0,50706,WMM1,751415,false,false,867,image-keyboard-response,14
true,7,1,3,1,true,z,false,true,0.0-2.0-0.26-0.241-3.241,1,0,0,90,false,stim,false,1,556.3249999994878,1,1,0,50706,WMM1,753479,false,false,870,image-keyboard-response,15
true,7,1,3,1,true,z,false,true,0.0-2.0-0.26-0.242-3.242,1,0,0,90,false,stim,false,1,1018.9049999999115,1,1,0,50706,WMM1,756007,false,false,873,image-keyboard-response,16
true,7,0,3,0,true,q,false,true,0.0-2.0-0.27-0.243-3.243,1,0,0,81,false,stim,false,2,1609.9350000004051,1,0,1,50706,WMM1,759127,false,false,876,image-keyboard-response,17
true,7,0,3,0,true,q,false,true,0.0-2.0-0.27-0.244-3.244,1,0,0,81,false,stim,false,2,866.3399999996182,1,0,1,50706,WMM1,761503,false,false,879,image-keyboard-response,18
true,7,1,3,1,true,z,false,true,0.0-2.0-0.27-0.245-3.245,1,0,0,90,false,stim,false,1,996.0000000001164,1,1,0,50706,WMM1,764007,false,false,882,image-keyboard-response,19
true,7,2,3,1,false,z,true,false,0.0-2.0-0.27-0.246-3.246,1,0,0,68,false,stim,false,0,787.4099999997998,1,0,2,50706,WMM1,766302,false,false,885,image-keyboard-response,20
true,7,0,3,0,true,q,false,true,0.0-2.0-0.27-0.247-3.247,1,0,0,81,false,stim,false,2,975.9199999999255,1,0,1,50706,WMM1,768790,false,false,888,image-keyboard-response,21
true,7,1,3,1,true,z,false,true,0.0-2.0-0.27-0.248-3.248,1,0,0,90,false,stim,false,0,469.24000000045635,1,0,2,50706,WMM1,770774,false,false,891,image-keyboard-response,22
true,7,1,3,1,true,z,false,true,0.0-2.0-0.27-0.249-3.249,1,0,0,90,false,stim,false,1,504.18500000075437,1,1,0,50706,WMM1,772790,false,false,894,image-keyboard-response,23
true,7,1,3,1,true,z,false,true,0.0-2.0-0.27-0.250-3.250,1,0,0,90,false,stim,false,0,1329.9699999998556,1,0,2,50706,WMM1,775630,false,false,897,image-keyboard-response,24
true,7,1,3,1,true,z,false,true,0.0-2.0-0.27-0.251-3.251,1,0,0,90,false,stim,false,1,1558.7800000003772,1,0,0,50706,WMM1,778701,false,false,900,image-keyboard-response,25
true,7,1,3,1,true,z,false,true,0.0-2.0-0.28-0.252-3.252,1,0,0,90,false,stim,false,0,1012.5350000007311,1,0,2,50706,WMM1,781237,false,false,903,image-keyboard-response,26
true,7,0,3,0,true,q,false,true,0.0-2.0-0.28-0.253-3.253,1,0,0,81,false,stim,false,2,1067.2950000007404,1,0,1,50706,WMM1,783813,false,false,906,image-keyboard-response,27
true,7,1,3,1,true,z,false,true,0.0-2.0-0.28-0.254-3.254,1,0,0,90,false,stim,false,1,1755.7649999998976,1,0,0,50706,WMM1,787077,false,false,909,image-keyboard-response,28
true,7,0,3,0,true,q,false,true,0.0-2.0-0.28-0.255-3.255,1,0,0,81,false,stim,false,2,1161.6249999996508,1,0,1,50706,WMM1,789749,false,false,912,image-keyboard-response,29
true,7,1,3,1,true,z,false,true,0.0-2.0-0.28-0.256-3.256,1,0,0,90,false,stim,false,1,1185.0650000006426,1,0,0,50706,WMM1,792445,false,false,915,image-keyboard-response,30
true,7,1,3,1,true,z,false,true,0.0-2.0-0.28-0.257-3.257,1,0,0,90,false,stim,false,0,1896.7050000000745,1,0,2,50706,WMM1,795852,false,false,918,image-keyboard-response,31
true,7,1,3,1,true,z,false,true,0.0-2.0-0.28-0.258-3.258,1,0,0,90,false,stim,false,1,1683.9399999999441,1,0,0,50706,WMM1,799045,false,false,921,image-keyboard-response,32
true,7,1,3,1,true,z,false,true,0.0-2.0-0.28-0.259-3.259,1,0,0,90,false,stim,false,0,1169.4250000000466,1,0,2,50706,WMM1,801724,false,false,924,image-keyboard-response,33
true,7,0,3,0,true,q,false,true,0.0-2.0-0.28-0.260-3.260,1,0,0,81,false,stim,false,2,1011.1200000001118,1,0,1,50706,WMM1,804244,false,false,927,image-keyboard-response,34
true,8,1,1,2,false,d,false,false,0.0-2.0-0.29-0.261-3.261,0,0,0,90,true,stim,true,1,1154.0249999999069,1,0,0,50706,WMM1,806908,false,false,930,image-keyboard-response,1
true,8,1,1,2,false,d,false,true,0.0-2.0-0.29-0.262-3.262,0,0,0,90,false,stim,true,1,929.4799999997485,1,0,0,50706,WMM1,809348,false,true,933,image-keyboard-response,2
true,8,1,1,2,false,d,false,false,0.0-2.0-0.29-0.263-3.263,0,0,0,90,false,stim,true,1,762.9900000001071,1,0,2,50706,WMM1,811620,false,false,936,image-keyboard-response,3
true,8,1,1,2,false,d,false,false,0.0-2.0-0.29-0.264-3.264,0,0,0,90,false,stim,true,1,531.580000000773,1,0,2,50706,WMM1,813659,false,false,939,image-keyboard-response,4
true,8,2,1,2,true,d,false,true,0.0-2.0-0.29-0.265-3.265,0,0,0,68,false,stim,false,1,1435.575000000419,1,0,0,50706,WMM1,816603,false,false,942,image-keyboard-response,5
true,8,2,1,2,true,d,false,true,0.0-2.0-0.29-0.266-3.266,0,0,0,68,false,stim,false,1,1082.3049999999348,1,0,2,50706,WMM1,819195,false,false,945,image-keyboard-response,6
true,8,1,1,1,true,z,false,true,0.0-2.0-0.29-0.267-3.267,0,0,0,90,false,stim,false,0,1052.204999999958,1,0,1,50706,WMM1,821756,false,false,948,image-keyboard-response,7
true,8,1,1,1,true,z,false,true,0.0-2.0-0.29-0.268-3.268,0,0,0,90,false,stim,false,0,856.2399999999907,1,0,1,50706,WMM1,824123,false,false,951,image-keyboard-response,8
true,8,1,1,1,true,z,false,true,0.0-2.0-0.29-0.269-3.269,0,0,0,90,false,stim,false,0,779.125,1,0,1,50706,WMM1,826411,false,false,954,image-keyboard-response,9
true,8,2,1,2,true,d,false,true,0.0-2.0-0.30-0.270-3.270,0,0,0,68,false,stim,false,1,834.4099999994505,1,0,0,50706,WMM1,828755,false,false,957,image-keyboard-response,10
true,8,2,1,2,true,d,false,true,0.0-2.0-0.30-0.271-3.271,0,0,0,68,false,stim,false,1,849.8199999994831,1,0,0,50706,WMM1,831114,false,false,960,image-keyboard-response,11
true,8,2,1,2,true,d,false,true,0.0-2.0-0.30-0.272-3.272,0,0,0,68,false,stim,false,1,1306.8000000002794,1,0,2,50706,WMM1,833931,false,false,963,image-keyboard-response,12
true,8,1,1,1,true,z,false,false,0.0-2.0-0.30-0.273-3.273,0,0,0,90,false,stim,false,0,1081.545000000042,1,0,1,50706,WMM1,836522,false,true,966,image-keyboard-response,13
true,8,2,1,2,true,d,false,true,0.0-2.0-0.30-0.274-3.274,0,0,0,68,false,stim,false,1,713.2350000002189,1,0,2,50706,WMM1,838746,false,false,969,image-keyboard-response,14
true,8,1,1,1,true,z,false,true,0.0-2.0-0.30-0.275-3.275,0,0,0,90,false,stim,false,0,810.2399999998743,1,0,1,50706,WMM1,841066,false,false,972,image-keyboard-response,15
true,8,1,1,1,true,z,false,true,0.0-2.0-0.30-0.276-3.276,0,0,0,90,false,stim,false,0,755.0799999999581,1,0,1,50706,WMM1,843330,false,false,975,image-keyboard-response,16
true,8,2,1,2,true,d,false,true,0.0-2.0-0.30-0.277-3.277,0,0,0,68,false,stim,false,1,1650.6250000002328,1,0,2,50706,WMM1,846490,false,false,978,image-keyboard-response,17
true,8,2,1,2,true,d,false,true,0.0-2.0-0.30-0.278-3.278,0,0,0,68,false,stim,false,1,1088.9900000002235,1,0,0,50706,WMM1,849090,false,false,981,image-keyboard-response,18
true,8,1,1,1,true,z,false,true,0.0-2.0-0.31-0.279-3.279,0,0,0,90,false,stim,false,0,910.0150000003632,1,0,1,50706,WMM1,851505,false,false,984,image-keyboard-response,19
true,8,2,1,2,true,d,false,true,0.0-2.0-0.31-0.280-3.280,0,0,0,68,false,stim,false,1,771.604999999865,1,0,2,50706,WMM1,853785,false,false,987,image-keyboard-response,20
true,8,2,1,2,true,d,false,true,0.0-2.0-0.31-0.281-3.281,0,0,0,68,false,stim,false,1,1367.5049999991897,1,0,0,50706,WMM1,856665,false,false,990,image-keyboard-response,21
true,8,2,1,1,false,z,true,false,0.0-2.0-0.31-0.282-3.282,0,0,0,68,false,stim,false,0,1071.8200000000652,1,0,1,50706,WMM1,859249,false,false,993,image-keyboard-response,22
true,8,2,1,2,true,d,false,false,0.0-2.0-0.31-0.283-3.283,0,0,0,68,false,stim,false,1,684.239999999525,1,0,0,50706,WMM1,861441,false,true,996,image-keyboard-response,23
true,8,2,1,2,true,d,false,true,0.0-2.0-0.31-0.284-3.284,0,0,0,68,false,stim,false,1,411.13500000024214,1,0,2,50706,WMM1,863360,false,false,999,image-keyboard-response,24
true,8,1,1,1,true,z,false,false,0.0-2.0-0.31-0.285-3.285,0,0,0,90,false,stim,false,0,718.7850000000326,1,0,1,50706,WMM1,865600,false,true,1002,image-keyboard-response,25
true,8,0,1,2,false,d,true,false,0.0-2.0-0.31-0.286-3.286,0,0,0,81,false,stim,false,1,1315.860000000568,1,0,2,50706,WMM1,868425,false,false,1005,image-keyboard-response,26
true,8,0,1,2,false,d,true,false,0.0-2.0-0.31-0.287-3.287,0,0,0,81,false,stim,false,1,523.6700000005076,1,0,0,50706,WMM1,870456,false,false,1008,image-keyboard-response,27
true,8,1,1,1,true,z,false,false,0.0-2.0-0.32-0.288-3.288,0,0,0,90,false,stim,false,0,769.2699999997858,1,0,1,50706,WMM1,872736,false,true,1011,image-keyboard-response,28
true,8,2,1,1,false,z,true,false,0.0-2.0-0.32-0.289-3.289,0,0,0,68,false,stim,false,0,1002.1850000002887,1,0,1,50706,WMM1,875248,false,false,1014,image-keyboard-response,29
true,8,1,1,2,false,d,false,false,0.0-2.0-0.32-0.290-3.290,0,0,0,90,false,stim,true,1,636.1600000000326,1,0,0,50706,WMM1,877392,false,false,1017,image-keyboard-response,30
true,9,0,2,1,false,z,true,false,0.0-2.0-0.32-0.291-3.291,0,0,0,81,true,stim,false,2,572.2200000000885,1,0,0,50706,WMM1,879472,false,false,1020,image-keyboard-response,1
true,9,0,2,2,false,d,true,false,0.0-2.0-0.32-0.292-3.292,0,0,0,81,false,stim,false,1,1099.1650000006193,1,0,1,50706,WMM1,882079,false,false,1023,image-keyboard-response,2
true,9,1,2,0,false,q,true,false,0.0-2.0-0.32-0.293-3.293,0,0,0,90,false,stim,false,2,571.7150000000838,1,0,2,50706,WMM1,884159,false,false,1026,image-keyboard-response,3
true,9,2,2,1,false,z,false,false,0.0-2.0-0.32-0.294-3.294,0,0,0,68,false,stim,true,2,754.779999999213,1,0,0,50706,WMM1,886423,false,false,1029,image-keyboard-response,4
true,9,0,2,0,true,q,false,true,0.0-2.0-0.32-0.295-3.295,0,0,0,81,false,stim,false,2,490.49499999999534,1,0,2,50706,WMM1,888423,false,false,1032,image-keyboard-response,5
true,9,0,2,0,true,q,false,true,0.0-2.0-0.32-0.296-3.296,0,0,0,81,false,stim,false,2,586.5750000001863,1,0,2,50706,WMM1,890519,false,false,1035,image-keyboard-response,6
true,9,1,2,2,false,d,false,false,0.0-2.0-0.33-0.297-3.297,0,0,0,90,false,stim,true,1,665.2850000000326,1,0,1,50706,WMM1,892695,false,false,1038,image-keyboard-response,7
true,9,2,2,2,true,d,false,true,0.0-2.0-0.33-0.298-3.298,0,0,0,68,false,stim,false,1,530.1250000002328,1,0,1,50706,WMM1,894735,false,false,1041,image-keyboard-response,8
true,9,1,2,1,true,z,false,true,0.0-2.0-0.33-0.299-3.299,0,0,0,90,false,stim,false,2,537.9800000000978,1,0,0,50706,WMM1,896783,false,false,1044,image-keyboard-response,9
true,9,2,2,2,true,d,false,true,0.0-2.0-0.33-0.300-3.300,0,0,0,68,false,stim,false,1,1354.8250000003027,1,0,1,50706,WMM1,899646,false,false,1047,image-keyboard-response,10
true,9,0,2,0,true,q,false,true,0.0-2.0-0.33-0.301-3.301,0,0,0,81,false,stim,false,2,738.9800000000978,1,0,2,50706,WMM1,901895,false,false,1050,image-keyboard-response,11
true,9,1,2,1,true,z,false,true,0.0-2.0-0.33-0.302-3.302,0,0,0,90,false,stim,false,2,794.5849999996135,1,0,0,50706,WMM1,904198,false,false,1053,image-keyboard-response,12
true,9,1,2,1,true,z,false,true,0.0-2.0-0.33-0.303-3.303,0,0,0,90,false,stim,false,2,843.4850000003353,1,0,0,50706,WMM1,906550,false,false,1056,image-keyboard-response,13
true,9,0,2,0,true,q,false,true,0.0-2.0-0.33-0.304-3.304,0,0,0,81,false,stim,false,2,1160.4400000006426,1,0,2,50706,WMM1,909222,false,false,1059,image-keyboard-response,14
true,9,0,2,0,true,q,false,true,0.0-2.0-0.33-0.305-3.305,0,0,0,81,false,stim,false,2,1419.6800000008661,1,0,2,50706,WMM1,912150,false,false,1062,image-keyboard-response,15
true,9,1,2,1,true,z,false,true,0.0-2.0-0.34-0.306-3.306,0,0,0,90,false,stim,false,2,858.2800000003772,1,0,0,50706,WMM1,914518,false,false,1065,image-keyboard-response,16
true,9,0,2,0,true,q,false,true,0.0-2.0-0.34-0.307-3.307,0,0,0,81,false,stim,false,2,1355.0749999994878,1,0,2,50706,WMM1,917382,false,false,1068,image-keyboard-response,17
true,9,1,2,1,true,z,false,true,0.0-2.0-0.34-0.308-3.308,0,0,0,90,false,stim,false,2,898.7249999990454,1,0,0,50706,WMM1,919789,false,false,1071,image-keyboard-response,18
true,9,1,2,1,true,z,false,true,0.0-2.0-0.34-0.309-3.309,0,0,0,90,false,stim,false,2,889.715000001248,1,0,0,50706,WMM1,922190,false,false,1074,image-keyboard-response,19
true,9,2,2,2,true,d,false,true,0.0-2.0-0.34-0.310-3.310,0,0,0,68,false,stim,false,1,794.6800000008661,1,0,1,50706,WMM1,924493,false,false,1077,image-keyboard-response,20
true,9,0,2,2,false,d,true,false,0.0-2.0-0.34-0.311-3.311,0,0,0,81,false,stim,false,1,1149.1750000003958,1,0,1,50706,WMM1,927157,false,false,1080,image-keyboard-response,21
true,9,0,2,0,true,q,false,true,0.0-2.0-0.34-0.312-3.312,0,0,0,81,false,stim,false,2,410.1750000008615,1,1,2,50706,WMM1,929077,false,false,1083,image-keyboard-response,22
true,9,0,2,0,true,q,false,true,0.0-2.0-0.34-0.313-3.313,0,0,0,81,false,stim,false,2,1051.2899999994552,1,1,2,50706,WMM1,931637,false,false,1086,image-keyboard-response,23
true,9,2,2,2,true,d,false,false,0.0-2.0-0.34-0.314-3.314,0,0,0,68,false,stim,false,1,1074.1500000003725,1,0,1,50706,WMM1,934221,false,true,1089,image-keyboard-response,24
true,9,1,2,1,true,z,false,false,0.0-2.0-0.35-0.315-3.315,0,0,0,90,false,stim,false,2,505.90999999979977,1,0,0,50706,WMM1,936236,false,true,1092,image-keyboard-response,25
true,9,0,2,0,true,q,false,true,0.0-2.0-0.35-0.316-3.316,0,0,0,81,false,stim,false,2,786.7249999999767,1,1,2,50706,WMM1,938532,false,false,1095,image-keyboard-response,26
true,9,0,2,0,true,q,false,true,0.0-2.0-0.35-0.317-3.317,0,0,0,81,false,stim,false,2,536.4300000000512,1,1,2,50706,WMM1,940580,false,false,1098,image-keyboard-response,27
true,9,0,2,2,false,d,true,false,0.0-2.0-0.35-0.318-3.318,0,0,0,81,false,stim,false,1,771.4400000005262,1,0,1,50706,WMM1,942876,false,false,1101,image-keyboard-response,28
true,9,0,2,1,false,z,true,false,0.0-2.0-0.35-0.319-3.319,0,0,0,81,false,stim,false,2,434.97500000020955,1,0,0,50706,WMM1,944822,false,false,1104,image-keyboard-response,29
true,9,1,2,1,true,z,false,true,0.0-2.0-0.35-0.320-3.320,0,0,0,90,false,stim,false,2,689.3200000013458,1,0,0,50706,WMM1,947020,false,false,1107,image-keyboard-response,30
true,10,2,3,1,false,z,false,false,0.0-2.0-0.35-0.321-3.321,0,0,1,68,true,stim,true,2,883.2700000002515,1,0,1,50706,WMM1,949412,false,false,1110,image-keyboard-response,1
true,10,0,3,0,true,q,false,true,0.0-2.0-0.35-0.322-3.322,0,0,1,81,false,stim,false,0,1050.7199999992736,1,1,2,50706,WMM1,951973,false,false,1113,image-keyboard-response,2
true,10,2,3,1,false,z,false,false,0.0-2.0-0.35-0.323-3.323,0,0,1,68,false,stim,true,2,682.0050000004703,1,0,1,50706,WMM1,954163,false,false,1116,image-keyboard-response,3
true,10,1,3,1,true,z,false,true,0.0-2.0-0.36-0.324-3.324,0,0,1,90,false,stim,false,2,690.2200000004377,1,0,1,50706,WMM1,956364,false,false,1119,image-keyboard-response,4
true,10,0,3,0,true,q,false,true,0.0-2.0-0.36-0.325-3.325,0,0,1,81,false,stim,false,0,578.2550000003539,1,1,2,50706,WMM1,958451,false,false,1122,image-keyboard-response,5
true,10,1,3,2,false,d,false,true,0.0-2.0-0.36-0.326-3.326,0,0,1,90,false,stim,true,1,1762.3600000006845,1,0,0,50706,WMM1,961723,false,true,1125,image-keyboard-response,6
true,10,0,3,0,true,q,false,true,0.0-2.0-0.36-0.327-3.327,0,0,1,81,false,stim,false,0,864.4150000000373,1,1,2,50706,WMM1,964098,false,false,1128,image-keyboard-response,7
true,10,1,3,1,true,z,false,true,0.0-2.0-0.36-0.328-3.328,0,0,1,90,false,stim,false,2,1069.540000000503,1,0,1,50706,WMM1,966678,false,false,1131,image-keyboard-response,8
true,10,1,3,1,true,z,false,true,0.0-2.0-0.36-0.329-3.329,0,0,1,90,false,stim,false,2,730.6700000008568,1,0,1,50706,WMM1,968917,false,false,1134,image-keyboard-response,9
true,10,0,3,0,true,q,false,true,0.0-2.0-0.36-0.330-3.330,0,0,1,81,false,stim,false,0,706.0849999997299,1,1,2,50706,WMM1,971133,false,false,1137,image-keyboard-response,10
true,10,1,3,2,false,d,false,false,0.0-2.0-0.36-0.331-3.331,0,0,1,90,false,stim,true,1,1242.9949999987148,1,0,0,50706,WMM1,973885,false,false,1140,image-keyboard-response,11
true,10,1,3,2,false,d,false,false,0.0-2.0-0.36-0.332-3.332,0,0,1,90,false,stim,true,1,817.6950000014622,1,0,0,50706,WMM1,976213,false,false,1143,image-keyboard-response,12
true,10,1,3,1,true,z,false,true,0.0-2.0-0.37-0.333-3.333,0,0,1,90,false,stim,false,2,1378.5800000005402,1,0,1,50706,WMM1,979101,false,false,1146,image-keyboard-response,13
true,10,0,3,0,true,q,false,true,0.0-2.0-0.37-0.334-3.334,0,0,1,81,false,stim,false,0,417.2300000009127,1,1,2,50706,WMM1,981028,false,false,1149,image-keyboard-response,14
true,10,2,3,2,true,d,false,true,0.0-2.0-0.37-0.335-3.335,0,0,1,68,false,stim,false,1,619.2850000007311,1,0,0,50706,WMM1,983156,false,false,1152,image-keyboard-response,15
true,10,2,3,2,true,d,false,true,0.0-2.0-0.37-0.336-3.336,0,0,1,68,false,stim,false,1,842.1149999994086,1,0,0,50706,WMM1,985508,false,false,1155,image-keyboard-response,16
true,10,1,3,1,true,z,false,true,0.0-2.0-0.37-0.337-3.337,0,0,1,90,false,stim,false,2,627.06499999878,1,0,1,50706,WMM1,987644,false,false,1158,image-keyboard-response,17
true,10,0,3,0,true,q,false,true,0.0-2.0-0.37-0.338-3.338,0,0,1,81,false,stim,false,0,402.3400000005495,1,1,2,50706,WMM1,989557,false,false,1161,image-keyboard-response,18
true,10,0,3,0,true,q,false,true,0.0-2.0-0.37-0.339-3.339,0,0,1,81,false,stim,false,0,882.2849999996834,1,1,2,50706,WMM1,991948,false,false,1164,image-keyboard-response,19
true,10,2,3,2,true,d,false,true,0.0-2.0-0.37-0.340-3.340,0,0,1,68,false,stim,false,1,1064.8400000008987,1,0,0,50706,WMM1,994524,false,false,1167,image-keyboard-response,20
true,10,1,3,1,true,z,false,true,0.0-2.0-0.37-0.341-3.341,0,0,1,90,false,stim,false,2,1694.0049999993062,1,0,1,50706,WMM1,997732,false,false,1170,image-keyboard-response,21
true,10,2,3,2,true,d,false,true,0.0-2.0-0.38-0.342-3.342,0,0,1,68,false,stim,false,1,1583.2749999989755,1,0,0,50706,WMM1,1000828,false,false,1173,image-keyboard-response,22
true,10,2,3,2,true,d,false,true,0.0-2.0-0.38-0.343-3.343,0,0,1,68,false,stim,false,1,816.9049999996787,1,0,0,50706,WMM1,1003155,false,false,1176,image-keyboard-response,23
true,10,1,3,1,true,z,false,true,0.0-2.0-0.38-0.344-3.344,0,0,1,90,false,stim,false,2,1681.909999999334,1,0,1,50706,WMM1,1006347,false,false,1179,image-keyboard-response,24
true,10,0,3,0,true,q,false,true,0.0-2.0-0.38-0.345-3.345,0,0,1,81,false,stim,false,0,1273.9599999986822,1,0,2,50706,WMM1,1009131,false,false,1182,image-keyboard-response,25
true,10,1,3,1,true,z,false,true,0.0-2.0-0.38-0.346-3.346,0,0,1,90,false,stim,false,2,1201.8899999985006,1,0,1,50706,WMM1,1011843,false,false,1185,image-keyboard-response,26
true,10,0,3,0,true,q,false,true,0.0-2.0-0.38-0.347-3.347,0,0,1,81,false,stim,false,0,1322.579999999958,1,0,2,50706,WMM1,1014675,false,false,1188,image-keyboard-response,27
true,10,0,3,0,true,q,false,false,0.0-2.0-0.38-0.348-3.348,0,0,1,81,false,stim,false,0,1280.4100000011967,1,0,2,50706,WMM1,1017467,false,true,1191,image-keyboard-response,28
true,10,1,3,2,false,d,false,false,0.0-2.0-0.38-0.349-3.349,0,0,1,90,false,stim,true,1,1506.209999999497,1,0,0,50706,WMM1,1020482,false,false,1194,image-keyboard-response,29
true,10,2,3,1,false,z,false,true,0.0-2.0-0.38-0.350-3.350,0,0,1,68,false,stim,true,2,890.1949999999488,1,0,1,50706,WMM1,1022883,false,true,1197,image-keyboard-response,30
true,11,1,1,1,true,z,false,true,0.0-2.0-0.39-0.351-3.351,0,0,0,90,true,stim,false,0,943.650000001071,1,0,2,50706,WMM1,1025338,false,false,1200,image-keyboard-response,1
true,11,1,1,0,false,q,true,false,0.0-2.0-0.39-0.352-3.352,0,0,0,90,false,stim,false,2,875.4349999999395,1,0,0,50706,WMM1,1027743,false,false,1203,image-keyboard-response,2
true,11,2,1,0,false,q,false,false,0.0-2.0-0.39-0.353-3.353,0,0,0,68,false,stim,true,2,426.61500000033993,1,0,0,50706,WMM1,1029679,false,false,1206,image-keyboard-response,3
true,11,2,1,0,false,q,true,false,0.0-2.0-0.39-0.354-3.354,0,0,0,68,false,stim,false,1,913.9999999988358,1,0,1,50706,WMM1,1032103,false,false,1209,image-keyboard-response,4
true,11,1,1,0,false,q,false,false,0.0-2.0-0.39-0.355-3.355,0,0,0,90,false,stim,true,1,658.3750000009313,1,0,1,50706,WMM1,1034271,false,false,1212,image-keyboard-response,5
true,11,1,1,0,false,q,true,false,0.0-2.0-0.39-0.356-3.356,0,0,0,90,false,stim,false,2,753.1349999989616,1,0,0,50706,WMM1,1036535,false,false,1215,image-keyboard-response,6
true,11,0,1,1,false,z,false,false,0.0-2.0-0.39-0.357-3.357,0,0,0,81,false,stim,true,0,761.819999999716,1,0,2,50706,WMM1,1038807,false,false,1218,image-keyboard-response,7
true,11,2,1,0,false,q,true,false,0.0-2.0-0.39-0.358-3.358,0,0,0,68,false,stim,false,1,777.660000001546,1,0,1,50706,WMM1,1041095,false,false,1221,image-keyboard-response,8
true,11,0,1,1,false,z,false,false,0.0-2.0-0.39-0.359-3.359,0,0,0,81,false,stim,true,0,1058.5250000003725,1,0,2,50706,WMM1,1043662,false,false,1224,image-keyboard-response,9
true,11,1,1,0,false,q,false,false,0.0-2.0-0.40-0.360-3.360,0,0,0,90,false,stim,true,1,601.1049999997485,1,0,1,50706,WMM1,1045775,false,false,1227,image-keyboard-response,10
true,11,2,1,0,false,q,true,true,0.0-2.0-0.40-0.361-3.361,0,0,0,68,false,stim,false,1,609.5550000008661,1,0,1,50706,WMM1,1047894,false,true,1230,image-keyboard-response,11
true,11,1,1,1,true,z,false,true,0.0-2.0-0.40-0.362-3.362,0,0,0,90,false,stim,false,0,1386.2099999987986,1,0,2,50706,WMM1,1050790,false,false,1233,image-keyboard-response,12
true,11,0,1,0,true,q,false,true,0.0-2.0-0.40-0.363-3.363,0,0,0,81,false,stim,false,2,649.1450000011828,1,0,0,50706,WMM1,1052950,false,false,1236,image-keyboard-response,13
true,11,1,1,0,false,q,false,false,0.0-2.0-0.40-0.364-3.364,0,0,0,90,false,stim,true,1,1225.2800000004936,1,0,1,50706,WMM1,1055686,false,false,1239,image-keyboard-response,14
true,11,1,1,1,true,z,false,true,0.0-2.0-0.40-0.365-3.365,0,0,0,90,false,stim,false,0,1914.2949999987613,1,0,2,50706,WMM1,1059110,false,false,1242,image-keyboard-response,15
true,11,0,1,0,true,q,false,true,0.0-2.0-0.40-0.366-3.366,0,0,0,81,false,stim,false,2,840.7650000008289,1,0,0,50706,WMM1,1061462,false,false,1245,image-keyboard-response,16
true,11,0,1,0,true,q,false,true,0.0-2.0-0.40-0.367-3.367,0,0,0,81,false,stim,false,2,1026.480000000447,1,0,0,50706,WMM1,1063997,false,false,1248,image-keyboard-response,17
true,11,1,1,1,true,z,false,true,0.0-2.0-0.40-0.368-3.368,0,0,0,90,false,stim,false,0,1121.6949999998324,1,0,2,50706,WMM1,1066629,false,false,1251,image-keyboard-response,18
true,11,0,1,0,true,q,false,true,0.0-2.0-0.41-0.369-3.369,0,0,0,81,false,stim,false,2,1185.7400000006892,1,0,0,50706,WMM1,1069326,false,false,1254,image-keyboard-response,19
true,11,2,1,0,false,q,true,false,0.0-2.0-0.41-0.370-3.370,0,0,0,68,false,stim,false,1,1306.394999999553,1,0,1,50706,WMM1,1072141,false,false,1257,image-keyboard-response,20
true,11,1,1,1,true,z,false,true,0.0-2.0-0.41-0.371-3.371,0,0,0,90,false,stim,false,0,1333.995000001043,1,0,2,50706,WMM1,1074989,false,false,1260,image-keyboard-response,21
true,11,2,1,0,false,q,true,false,0.0-2.0-0.41-0.372-3.372,0,0,0,68,false,stim,false,1,1652.739999999525,1,0,1,50706,WMM1,1078157,false,false,1263,image-keyboard-response,22
true,11,2,1,0,false,q,true,false,0.0-2.0-0.41-0.373-3.373,0,0,0,68,false,stim,false,1,1916.6899999999441,1,0,1,50706,WMM1,1081589,false,false,1266,image-keyboard-response,23
true,11,1,1,1,true,z,false,true,0.0-2.0-0.41-0.374-3.374,0,0,0,90,false,stim,false,0,1436.8900000008289,1,0,2,50706,WMM1,1084540,false,false,1269,image-keyboard-response,24
true,11,0,1,0,true,q,false,true,0.0-2.0-0.41-0.375-3.375,0,0,0,81,false,stim,false,2,796.2150000003166,1,0,0,50706,WMM1,1086859,false,false,1272,image-keyboard-response,25
true,11,1,1,1,true,z,false,false,0.0-2.0-0.41-0.376-3.376,0,0,0,90,false,stim,false,0,699.8550000009127,1,0,2,50706,WMM1,1089074,false,true,1275,image-keyboard-response,26
true,11,0,1,0,true,q,false,true,0.0-2.0-0.41-0.377-3.377,0,0,0,81,false,stim,false,2,805.9499999999534,1,0,0,50706,WMM1,1091394,false,false,1278,image-keyboard-response,27
true,11,2,1,0,false,q,true,false,0.0-2.0-0.42-0.378-3.378,0,0,0,68,false,stim,false,1,947.9699999992736,1,0,1,50706,WMM1,1093859,false,false,1281,image-keyboard-response,28
true,11,1,1,1,true,z,false,true,0.0-2.0-0.42-0.379-3.379,0,0,0,90,false,stim,false,0,903.0299999995623,1,0,2,50706,WMM1,1096275,false,false,1284,image-keyboard-response,29
true,11,1,1,1,true,z,false,true,0.0-2.0-0.42-0.380-3.380,0,0,0,90,false,stim,false,0,1251.5499999988824,1,0,2,50706,WMM1,1099042,false,false,1287,image-keyboard-response,30
true,11,0,1,0,true,q,false,true,0.0-2.0-0.42-0.381-3.381,0,0,0,81,false,stim,false,2,964.4449999995995,1,0,0,50706,WMM1,1101522,false,false,1290,image-keyboard-response,31
true,11,1,1,1,true,z,false,true,0.0-2.0-0.42-0.382-3.382,0,0,0,90,false,stim,false,0,1150.1699999989942,1,0,2,50706,WMM1,1104186,false,false,1293,image-keyboard-response,32
true,11,2,1,0,false,q,true,false,0.0-2.0-0.42-0.383-3.383,0,0,0,68,false,stim,false,1,966.1599999999162,1,0,1,50706,WMM1,1106665,false,false,1296,image-keyboard-response,33
true,11,0,1,0,true,q,false,true,0.0-2.0-0.42-0.384-3.384,0,0,0,81,false,stim,false,2,1130.7799999993294,1,0,0,50706,WMM1,1109313,false,false,1299,image-keyboard-response,34
true,11,0,1,0,true,q,false,true,0.0-2.0-0.42-0.385-3.385,0,0,0,81,false,stim,false,2,739.8200000005309,1,0,0,50706,WMM1,1111585,false,false,1302,image-keyboard-response,35
true,11,2,1,0,false,q,true,false,0.0-2.0-0.42-0.386-3.386,0,0,0,68,false,stim,false,1,1069.8400000000838,1,0,1,50706,WMM1,1114169,false,false,1305,image-keyboard-response,36
true,11,1,1,1,true,z,false,true,0.0-2.0-0.43-0.387-3.387,0,0,0,90,false,stim,false,0,956.8600000003353,1,0,2,50706,WMM1,1116641,false,false,1308,image-keyboard-response,37
true,11,1,1,1,true,z,false,true,0.0-2.0-0.43-0.388-3.388,0,0,0,90,false,stim,false,0,843.2599999995437,1,0,2,50706,WMM1,1119001,false,false,1311,image-keyboard-response,38
true,11,0,1,0,true,q,false,true,0.0-2.0-0.43-0.389-3.389,0,0,0,81,false,stim,false,1,709.4149999993388,1,0,1,50706,WMM1,1121225,false,false,1314,image-keyboard-response,39
true,11,0,1,0,true,q,false,true,0.0-2.0-0.43-0.390-3.390,0,0,0,81,false,stim,false,1,1124.1450000016484,1,0,1,50706,WMM1,1123865,false,false,1317,image-keyboard-response,40
true,11,1,1,0,false,q,true,false,0.0-2.0-0.43-0.391-3.391,0,0,0,90,false,stim,false,2,847.1099999987055,1,0,0,50706,WMM1,1126224,false,false,1320,image-keyboard-response,41
true,11,2,1,0,false,q,false,false,0.0-2.0-0.43-0.392-3.392,0,0,0,68,false,stim,true,2,633.2750000001397,1,0,0,50706,WMM1,1128369,false,false,1323,image-keyboard-response,42
true,11,1,1,1,true,z,false,true,0.0-2.0-0.43-0.393-3.393,0,0,0,90,false,stim,false,0,641.8449999999721,1,0,2,50706,WMM1,1130520,false,false,1326,image-keyboard-response,43
true,11,0,1,0,true,q,false,true,0.0-2.0-0.43-0.394-3.394,0,0,0,81,false,stim,false,2,986.5449999996927,1,0,0,50706,WMM1,1133016,false,false,1329,image-keyboard-response,44
true,11,0,1,0,true,q,false,false,0.0-2.0-0.43-0.395-3.395,0,0,0,81,false,stim,false,1,433.5449999999255,1,0,1,50706,WMM1,1134960,false,true,1332,image-keyboard-response,45
true,11,0,1,0,true,q,false,true,0.0-2.0-0.44-0.396-3.396,0,0,0,81,false,stim,false,2,657.4099999996834,1,0,0,50706,WMM1,1137128,false,false,1335,image-keyboard-response,46
true,11,0,1,0,true,q,false,true,0.0-2.0-0.44-0.397-3.397,0,0,0,81,false,stim,false,2,562.8249999990221,1,0,0,50706,WMM1,1139200,false,false,1338,image-keyboard-response,47
true,11,0,1,0,true,q,false,false,0.0-2.0-0.44-0.398-3.398,0,0,0,81,false,stim,false,1,642.4400000013411,1,0,1,50706,WMM1,1141352,false,true,1341,image-keyboard-response,48
true,11,1,1,1,true,z,false,true,0.0-2.0-0.44-0.399-3.399,0,0,0,90,false,stim,false,0,1042.150000001071,1,0,2,50706,WMM1,1143903,false,false,1344,image-keyboard-response,49
true,11,1,1,1,true,z,false,true,0.0-2.0-0.44-0.400-3.400,0,0,0,90,false,stim,false,0,626.0849999999627,1,0,2,50706,WMM1,1146039,false,false,1347,image-keyboard-response,50
true,12,0,2,2,false,d,false,false,0.0-2.0-0.44-0.401-3.401,0,0,0,81,true,stim,true,0,1140.5249999989755,1,0,1,50706,WMM1,1148695,false,false,1350,image-keyboard-response,1
true,12,0,2,1,false,z,false,true,0.0-2.0-0.44-0.402-3.402,0,0,0,81,false,stim,true,0,815.0999999998603,1,0,0,50706,WMM1,1151021,false,true,1353,image-keyboard-response,2
true,12,1,2,2,false,d,true,false,0.0-2.0-0.44-0.403-3.403,0,0,0,90,false,stim,false,0,419.6200000005774,1,0,1,50706,WMM1,1152949,false,false,1356,image-keyboard-response,3
true,12,1,2,0,false,q,false,false,0.0-2.0-0.44-0.404-3.404,0,0,0,90,false,stim,true,1,906.5300000000279,1,0,2,50706,WMM1,1155365,false,false,1359,image-keyboard-response,4
true,12,0,2,2,false,d,false,false,0.0-2.0-0.45-0.405-3.405,0,0,0,81,false,stim,true,0,858.2199999999721,1,0,1,50706,WMM1,1157733,false,false,1362,image-keyboard-response,5
true,12,2,2,0,false,q,true,false,0.0-2.0-0.45-0.406-3.406,0,0,0,68,false,stim,false,1,538.445000000298,1,0,2,50706,WMM1,1159781,false,false,1365,image-keyboard-response,6
true,12,0,2,1,false,z,false,false,0.0-2.0-0.45-0.407-3.407,0,0,0,81,false,stim,true,0,409.32499999855645,1,0,0,50706,WMM1,1161701,false,false,1368,image-keyboard-response,7
true,12,1,2,0,false,q,false,false,0.0-2.0-0.45-0.408-3.408,0,0,0,90,false,stim,true,1,554.0599999986589,1,0,2,50706,WMM1,1163765,false,false,1371,image-keyboard-response,8
true,12,1,2,0,false,q,false,false,0.0-2.0-0.45-0.409-3.409,0,0,0,90,false,stim,true,1,425.8750000009313,1,0,2,50706,WMM1,1165700,false,false,1374,image-keyboard-response,9
true,12,1,2,2,false,d,true,false,0.0-2.0-0.45-0.410-3.410,0,0,0,90,false,stim,false,0,818.1299999996554,1,0,1,50706,WMM1,1168028,false,false,1377,image-keyboard-response,10
true,12,2,2,2,true,d,false,true,0.0-2.0-0.45-0.411-3.411,0,0,0,68,false,stim,false,0,747.6399999996647,1,0,1,50706,WMM1,1170284,false,false,1380,image-keyboard-response,11
true,12,0,2,1,false,z,false,false,0.0-2.0-0.45-0.412-3.412,0,0,0,81,false,stim,true,0,658.6000000005588,1,0,0,50706,WMM1,1172452,false,false,1383,image-keyboard-response,12
true,12,1,2,1,true,z,false,true,0.0-2.0-0.45-0.413-3.413,0,0,0,90,false,stim,false,0,586.4849999996368,1,0,0,50706,WMM1,1174548,false,false,1386,image-keyboard-response,13
true,12,0,2,0,true,q,false,false,0.0-2.0-0.46-0.414-3.414,0,0,0,81,false,stim,false,1,593.0449999996927,1,0,2,50706,WMM1,1176652,false,true,1389,image-keyboard-response,14
true,12,2,2,2,true,d,false,true,0.0-2.0-0.46-0.415-3.415,0,0,0,68,false,stim,false,0,823.8799999998882,1,0,1,50706,WMM1,1178987,false,false,1392,image-keyboard-response,15
true,12,1,2,1,true,z,false,false,0.0-2.0-0.46-0.416-3.416,0,0,0,90,false,stim,false,0,457.71000000066124,1,0,0,50706,WMM1,1180955,false,true,1395,image-keyboard-response,16
true,12,2,2,2,true,d,false,true,0.0-2.0-0.46-0.417-3.417,0,0,0,68,false,stim,false,0,707.1250000009313,1,0,1,50706,WMM1,1183172,false,false,1398,image-keyboard-response,17
true,12,1,2,1,true,z,false,true,0.0-2.0-0.46-0.418-3.418,0,0,0,90,false,stim,false,0,626.5199999997858,1,0,0,50706,WMM1,1185331,false,false,1401,image-keyboard-response,18
true,12,2,2,2,true,d,false,true,0.0-2.0-0.46-0.419-3.419,0,0,0,68,false,stim,false,0,546.6700000015553,1,0,1,50706,WMM1,1187387,false,false,1404,image-keyboard-response,19
true,12,1,2,1,true,z,false,true,0.0-2.0-0.46-0.420-3.420,0,0,0,90,false,stim,false,0,618.2200000002049,1,0,0,50706,WMM1,1189515,false,false,1407,image-keyboard-response,20
true,12,0,2,0,true,q,false,true,0.0-2.0-0.46-0.421-3.421,0,0,0,81,false,stim,false,1,1306.9199999989942,1,0,2,50706,WMM1,1192339,false,false,1410,image-keyboard-response,21
true,12,0,2,0,true,q,false,true,0.0-2.0-0.46-0.422-3.422,0,0,0,81,false,stim,false,1,1149.565000001574,1,0,2,50706,WMM1,1195003,false,false,1413,image-keyboard-response,22
true,12,2,2,2,true,d,false,true,0.0-2.0-0.47-0.423-3.423,0,0,0,68,false,stim,false,0,986.1399999989662,1,0,1,50706,WMM1,1197500,false,false,1416,image-keyboard-response,23
true,12,2,2,2,true,d,false,true,0.0-2.0-0.47-0.424-3.424,0,0,0,68,false,stim,false,0,583.7800000007264,1,0,1,50706,WMM1,1199594,false,false,1419,image-keyboard-response,24
true,12,2,2,2,true,d,false,true,0.0-2.0-0.47-0.425-3.425,0,0,0,68,false,stim,false,0,649.6299999998882,1,0,1,50706,WMM1,1201754,false,false,1422,image-keyboard-response,25
true,12,1,2,1,true,z,false,true,0.0-2.0-0.47-0.426-3.426,0,0,0,90,false,stim,false,0,1074.6749999998137,1,0,0,50706,WMM1,1204338,false,false,1425,image-keyboard-response,26
true,12,1,2,1,true,z,false,true,0.0-2.0-0.47-0.427-3.427,0,0,0,90,false,stim,false,0,730.1150000002235,1,0,0,50706,WMM1,1206578,false,false,1428,image-keyboard-response,27
true,12,0,2,0,true,q,false,true,0.0-2.0-0.47-0.428-3.428,0,0,0,81,false,stim,false,1,1289.9749999998603,1,0,2,50706,WMM1,1209384,false,false,1431,image-keyboard-response,28
true,12,1,2,1,true,z,false,false,0.0-2.0-0.47-0.429-3.429,0,0,0,90,false,stim,false,0,441.205000000773,1,0,0,50706,WMM1,1211336,false,true,1434,image-keyboard-response,29
true,12,2,2,0,false,q,true,false,0.0-2.0-0.47-0.430-3.430,0,0,0,68,false,stim,false,1,650.4800000002142,1,0,2,50706,WMM1,1213496,false,false,1437,image-keyboard-response,30
true,12,0,2,0,true,q,false,true,0.0-2.0-0.47-0.431-3.431,0,0,0,81,false,stim,false,1,785.1150000006892,1,0,2,50706,WMM1,1215791,false,false,1440,image-keyboard-response,31
true,13,0,1,1,false,z,false,false,0.0-2.0-0.48-0.432-3.432,0,0,0,81,true,stim,true,0,625.994999998482,1,0,2,50706,WMM1,1217928,false,false,1443,image-keyboard-response,1
true,13,1,1,0,false,q,false,false,0.0-2.0-0.48-0.433-3.433,0,0,0,90,false,stim,true,1,922.0100000002421,1,0,0,50706,WMM1,1220359,false,false,1446,image-keyboard-response,2
true,13,2,1,0,false,q,true,false,0.0-2.0-0.48-0.434-3.434,0,0,0,68,false,stim,false,1,554.739999999525,1,0,0,50706,WMM1,1222423,false,false,1449,image-keyboard-response,3
true,13,2,1,1,false,z,false,true,0.0-2.0-0.48-0.435-3.435,0,0,0,68,false,stim,true,2,1322.2500000011642,1,0,1,50706,WMM1,1225255,false,true,1452,image-keyboard-response,4
true,13,1,1,0,false,q,false,false,0.0-2.0-0.48-0.436-3.436,0,0,0,90,false,stim,true,1,1056.7350000001024,1,0,0,50706,WMM1,1227823,false,false,1455,image-keyboard-response,5
true,13,2,1,1,false,z,false,false,0.0-2.0-0.48-0.437-3.437,0,0,0,68,false,stim,true,2,1258.299999999581,1,0,1,50706,WMM1,1230591,false,false,1458,image-keyboard-response,6
true,13,2,1,1,false,z,false,false,0.0-2.0-0.48-0.438-3.438,0,0,0,68,false,stim,true,2,1305.0149999998976,1,0,1,50706,WMM1,1233406,false,false,1461,image-keyboard-response,7
true,13,0,1,1,false,z,false,false,0.0-2.0-0.48-0.439-3.439,0,0,0,81,false,stim,true,0,888.8900000001304,1,0,2,50706,WMM1,1235806,false,false,1464,image-keyboard-response,8
true,13,2,1,1,false,z,true,false,0.0-2.0-0.48-0.440-3.440,0,0,0,68,false,stim,false,0,1249.8150000011083,1,0,2,50706,WMM1,1238566,false,false,1467,image-keyboard-response,9
true,13,1,1,0,false,q,false,false,0.0-2.0-0.49-0.441-3.441,0,0,0,90,false,stim,true,1,937.954999999376,1,0,0,50706,WMM1,1241014,false,false,1470,image-keyboard-response,10
true,13,2,1,1,false,z,false,false,0.0-2.0-0.49-0.442-3.442,0,0,0,68,false,stim,true,2,544.3200000007637,1,0,1,50706,WMM1,1243070,false,false,1473,image-keyboard-response,11
true,13,0,1,1,false,z,false,false,0.0-2.0-0.49-0.443-3.443,0,0,0,81,false,stim,true,0,537.9300000004005,1,0,2,50706,WMM1,1245118,false,false,1476,image-keyboard-response,12
true,13,0,1,1,false,z,true,false,0.0-2.0-0.49-0.444-3.444,0,0,0,81,false,stim,false,2,641.5800000012387,1,0,1,50706,WMM1,1247269,false,false,1479,image-keyboard-response,13
true,13,1,1,0,false,q,false,false,0.0-2.0-0.49-0.445-3.445,0,0,0,90,false,stim,true,1,585.0300000002608,1,0,0,50706,WMM1,1249365,false,false,1482,image-keyboard-response,14
true,13,2,1,0,false,q,true,false,0.0-2.0-0.49-0.446-3.446,0,0,0,68,false,stim,false,1,576.1649999984074,1,0,0,50706,WMM1,1251454,false,false,1485,image-keyboard-response,15
true,13,0,1,1,false,z,false,false,0.0-2.0-0.49-0.447-3.447,0,0,0,81,false,stim,true,0,577.774999999674,1,0,2,50706,WMM1,1253541,false,false,1488,image-keyboard-response,16
true,13,1,1,1,true,z,false,true,0.0-2.0-0.49-0.448-3.448,0,0,0,90,false,stim,false,2,506.4700000002049,1,0,1,50706,WMM1,1255557,false,false,1491,image-keyboard-response,17
true,13,2,1,1,false,z,true,false,0.0-2.0-0.49-0.449-3.449,0,0,0,68,false,stim,false,0,762.6700000001583,1,0,2,50706,WMM1,1257829,false,false,1494,image-keyboard-response,18
true,13,1,1,1,true,z,false,true,0.0-2.0-0.50-0.450-3.450,0,0,0,90,false,stim,false,2,545.1650000014342,1,0,1,50706,WMM1,1259885,false,false,1497,image-keyboard-response,19
true,13,1,1,1,true,z,false,true,0.0-2.0-0.50-0.451-3.451,0,0,0,90,false,stim,false,2,330.4899999983609,1,0,1,50706,WMM1,1261725,false,false,1500,image-keyboard-response,20
true,13,1,1,0,false,q,false,false,0.0-2.0-0.50-0.452-3.452,0,0,0,90,false,stim,true,1,558.8299999998417,1,0,0,50706,WMM1,1263821,false,false,1503,image-keyboard-response,21
true,13,0,1,1,false,z,false,false,0.0-2.0-0.50-0.453-3.453,0,0,0,81,false,stim,true,0,546.9649999996182,1,0,2,50706,WMM1,1265884,false,false,1506,image-keyboard-response,22
true,13,1,1,1,true,z,false,true,0.0-2.0-0.50-0.454-3.454,0,0,0,90,false,stim,false,0,566.0400000016671,1,0,2,50706,WMM1,1267969,false,false,1509,image-keyboard-response,23
true,13,1,1,1,true,z,false,true,0.0-2.0-0.50-0.455-3.455,0,0,0,90,false,stim,false,0,427.78000000002794,1,0,2,50706,WMM1,1269913,false,false,1512,image-keyboard-response,24
true,13,2,1,0,false,q,true,false,0.0-2.0-0.50-0.456-3.456,0,0,0,68,false,stim,false,1,574.6499999987427,1,0,0,50706,WMM1,1272002,false,false,1515,image-keyboard-response,25
true,13,1,1,1,true,z,false,true,0.0-2.0-0.50-0.457-3.457,0,0,0,90,false,stim,false,2,571.6100000008009,1,0,1,50706,WMM1,1274089,false,false,1518,image-keyboard-response,26
true,13,0,1,0,true,q,false,true,0.0-2.0-0.50-0.458-3.458,0,0,0,81,false,stim,false,1,878.010000000475,1,0,0,50706,WMM1,1276481,false,false,1521,image-keyboard-response,27
true,13,0,1,0,true,q,false,true,0.0-2.0-0.51-0.459-3.459,0,0,0,81,false,stim,false,1,842.5750000006519,1,0,0,50706,WMM1,1278840,false,false,1524,image-keyboard-response,28
true,13,0,1,0,true,q,false,true,0.0-2.0-0.51-0.460-3.460,0,0,0,81,false,stim,false,1,715.0349999992177,1,1,0,50706,WMM1,1281072,false,false,1527,image-keyboard-response,29
true,13,0,1,0,true,q,false,true,0.0-2.0-0.51-0.461-3.461,0,0,0,81,false,stim,false,1,945.6250000002328,1,1,0,50706,WMM1,1283529,false,false,1530,image-keyboard-response,30
true,13,1,1,1,true,z,false,false,0.0-2.0-0.51-0.462-3.462,0,0,0,90,false,stim,false,0,729.9699999985751,1,1,2,50706,WMM1,1285768,false,true,1533,image-keyboard-response,31
true,13,1,1,1,true,z,false,true,0.0-2.0-0.51-0.463-3.463,0,0,0,90,false,stim,false,0,529.5700000007637,1,1,2,50706,WMM1,1287808,false,false,1536,image-keyboard-response,32
true,13,1,1,1,true,z,false,true,0.0-2.0-0.51-0.464-3.464,0,0,0,90,false,stim,false,2,930.8799999998882,1,1,1,50706,WMM1,1290248,false,false,1539,image-keyboard-response,33
true,13,1,1,1,true,z,false,true,0.0-2.0-0.51-0.465-3.465,0,0,0,90,false,stim,false,2,768.7750000003725,1,1,1,50706,WMM1,1292528,false,false,1542,image-keyboard-response,34
true,13,1,1,1,true,z,false,true,0.0-2.0-0.51-0.466-3.466,0,0,0,90,false,stim,false,0,1546.699999999022,1,1,2,50706,WMM1,1295584,false,false,1545,image-keyboard-response,35
true,13,1,1,1,true,z,false,true,0.0-2.0-0.51-0.467-3.467,0,0,0,90,false,stim,false,2,1369.179999999702,1,1,1,50706,WMM1,1298463,false,false,1548,image-keyboard-response,36
true,13,1,1,1,true,z,false,true,0.0-2.0-0.52-0.468-3.468,0,0,0,90,false,stim,false,0,1720.9600000006612,1,1,2,50706,WMM1,1301695,false,false,1551,image-keyboard-response,37
true,13,1,1,1,true,z,false,true,0.0-2.0-0.52-0.469-3.469,0,0,0,90,false,stim,false,2,1432.595000000205,1,1,1,50706,WMM1,1304639,false,false,1554,image-keyboard-response,38
true,14,1,0,1,true,z,false,true,0.0-2.0-0.52-0.470-3.470,1,1,1,90,true,stim,false,1,824.3599999987055,1,1,2,50706,WMM1,1427353,false,false,1677,image-keyboard-response,1
true,14,1,0,0,false,q,true,false,0.0-2.0-0.52-0.471-3.471,1,1,1,90,false,stim,false,0,857.850000000326,1,1,0,50706,WMM1,1429720,false,false,1680,image-keyboard-response,2
true,14,0,0,1,false,z,true,false,0.0-2.0-0.52-0.472-3.472,1,1,1,81,false,stim,false,1,713.5450000003912,1,1,1,50706,WMM1,1431944,false,false,1683,image-keyboard-response,3
true,14,2,0,0,false,q,true,false,0.0-2.0-0.52-0.473-3.473,1,1,1,68,false,stim,false,0,865.3649999997579,1,1,0,50706,WMM1,1434320,false,false,1686,image-keyboard-response,4
true,14,1,0,1,true,z,false,true,0.0-2.0-0.52-0.474-3.474,1,1,1,90,false,stim,false,1,1225.2349999998696,1,1,1,50706,WMM1,1437056,false,false,1689,image-keyboard-response,5
true,14,1,0,0,false,q,true,true,0.0-2.0-0.52-0.475-3.475,1,1,1,90,false,stim,false,0,608.2999999998137,1,1,0,50706,WMM1,1439176,false,true,1692,image-keyboard-response,6
true,14,1,0,1,true,z,false,true,0.0-2.0-0.52-0.476-3.476,1,1,1,90,false,stim,false,1,775.7099999999627,1,1,2,50706,WMM1,1441463,false,false,1695,image-keyboard-response,7
true,14,1,0,1,true,z,false,true,0.0-2.0-0.53-0.477-3.477,1,1,1,90,false,stim,false,1,736.4599999999627,1,1,1,50706,WMM1,1443712,false,false,1698,image-keyboard-response,8
true,14,1,0,0,false,q,true,false,0.0-2.0-0.53-0.478-3.478,1,1,1,90,false,stim,false,0,415.84499999973923,1,1,0,50706,WMM1,1445663,false,false,1701,image-keyboard-response,9
true,14,1,0,1,true,z,false,true,0.0-2.0-0.53-0.479-3.479,1,1,1,90,false,stim,false,1,536.474999998929,1,1,2,50706,WMM1,1447711,false,false,1704,image-keyboard-response,10
true,14,1,0,0,false,q,true,false,0.0-2.0-0.53-0.480-3.480,1,1,1,90,false,stim,false,0,624.0949999992736,1,1,0,50706,WMM1,1449847,false,false,1707,image-keyboard-response,11
true,14,1,0,1,true,z,false,true,0.0-2.0-0.53-0.481-3.481,1,1,1,90,false,stim,false,1,591.829999999376,1,1,2,50706,WMM1,1451951,false,false,1710,image-keyboard-response,12
true,14,1,0,1,true,z,false,true,0.0-2.0-0.53-0.482-3.482,1,1,1,90,false,stim,false,1,716.1999999987893,1,1,1,50706,WMM1,1454175,false,false,1713,image-keyboard-response,13
true,14,1,0,1,true,z,false,true,0.0-2.0-0.53-0.483-3.483,1,1,1,90,false,stim,false,1,673.179999999702,1,1,2,50706,WMM1,1456359,false,false,1716,image-keyboard-response,14
true,14,0,0,0,true,q,false,true,0.0-2.0-0.53-0.484-3.484,1,1,1,81,false,stim,false,0,737.1700000003912,1,1,0,50706,WMM1,1458607,false,false,1719,image-keyboard-response,15
true,14,1,0,1,true,z,false,true,0.0-2.0-0.53-0.485-3.485,1,1,1,90,false,stim,false,1,920.9549999996088,1,1,1,50706,WMM1,1461039,false,false,1722,image-keyboard-response,16
true,14,0,0,0,true,q,false,true,0.0-2.0-0.54-0.486-3.486,1,1,1,81,false,stim,false,0,1447.544999999227,1,1,0,50706,WMM1,1463998,false,false,1725,image-keyboard-response,17
true,14,1,0,1,true,z,false,true,0.0-2.0-0.54-0.487-3.487,1,1,1,90,false,stim,false,1,1791.6999999999534,1,1,1,50706,WMM1,1467302,false,false,1728,image-keyboard-response,18
true,14,0,0,0,true,q,false,true,0.0-2.0-0.54-0.488-3.488,1,1,1,81,false,stim,false,0,1490.8900000008289,1,1,0,50706,WMM1,1470303,false,false,1731,image-keyboard-response,19
true,14,0,0,0,true,q,false,true,0.0-2.0-0.54-0.489-3.489,1,1,1,81,false,stim,false,0,1655.4800000013784,1,1,0,50706,WMM1,1473470,false,false,1734,image-keyboard-response,20
true,14,1,0,1,true,z,false,false,0.0-2.0-0.54-0.490-3.490,1,1,1,90,false,stim,false,1,1120.789999999106,1,0,2,50706,WMM1,1476110,false,true,1737,image-keyboard-response,21
true,14,1,0,1,true,z,false,true,0.0-2.0-0.54-0.491-3.491,1,1,1,90,false,stim,false,1,1440.6849999995902,1,0,2,50706,WMM1,1479061,false,false,1740,image-keyboard-response,22
true,14,1,0,1,true,z,false,false,0.0-2.0-0.54-0.492-3.492,1,1,1,90,false,stim,false,1,1743.075000000419,1,0,1,50706,WMM1,1482318,false,true,1743,image-keyboard-response,23
true,14,1,0,1,true,z,false,true,0.0-2.0-0.54-0.493-3.493,1,1,1,90,false,stim,false,1,1384.6199999989476,1,0,2,50706,WMM1,1485213,false,false,1746,image-keyboard-response,24
true,14,1,0,1,true,z,false,false,0.0-2.0-0.54-0.494-3.494,1,1,1,90,false,stim,false,1,847.260000000475,1,0,1,50706,WMM1,1487573,false,true,1749,image-keyboard-response,25
true,14,1,0,1,true,z,false,true,0.0-2.0-0.55-0.495-3.495,1,1,1,90,false,stim,false,1,1223.045000000624,1,0,1,50706,WMM1,1490309,false,false,1752,image-keyboard-response,26
true,14,1,0,1,true,z,false,true,0.0-2.0-0.55-0.496-3.496,1,1,1,90,false,stim,false,1,1186.6850000005215,1,0,2,50706,WMM1,1493005,false,false,1755,image-keyboard-response,27
true,14,1,0,1,true,z,false,true,0.0-2.0-0.55-0.497-3.497,1,1,1,90,false,stim,false,1,1728.0700000009965,1,0,1,50706,WMM1,1496245,false,false,1758,image-keyboard-response,28
true,14,1,0,1,true,z,false,true,0.0-2.0-0.55-0.498-3.498,1,1,1,90,false,stim,false,1,1168.8549999999814,1,0,2,50706,WMM1,1498924,false,false,1761,image-keyboard-response,29
true,14,0,0,0,true,q,false,true,0.0-2.0-0.55-0.499-3.499,1,1,1,81,false,stim,false,0,1287.6750000014435,1,0,0,50706,WMM1,1501724,false,false,1764,image-keyboard-response,30
true,15,1,2,2,false,d,false,false,0.0-2.0-0.55-0.500-3.500,0,0,0,90,true,stim,true,1,1384.6400000001304,1,0,1,50706,WMM1,1504620,false,false,1767,image-keyboard-response,1
true,15,1,2,1,true,z,false,true,0.0-2.0-0.55-0.501-3.501,0,0,0,90,false,stim,false,0,1975.6049999995157,1,0,0,50706,WMM1,1508108,false,false,1770,image-keyboard-response,2
true,15,1,2,0,false,q,false,false,0.0-2.0-0.55-0.502-3.502,0,0,0,90,false,stim,true,1,1008.234999999404,1,0,2,50706,WMM1,1510629,false,false,1773,image-keyboard-response,3
true,15,0,2,1,false,z,false,false,0.0-2.0-0.55-0.503-3.503,0,0,0,81,false,stim,true,0,734.9749999993946,1,0,0,50706,WMM1,1512876,false,false,1776,image-keyboard-response,4
true,15,1,2,0,false,q,false,false,0.0-2.0-0.56-0.504-3.504,0,0,0,90,false,stim,true,1,717.6750000000466,1,0,2,50706,WMM1,1515107,false,false,1779,image-keyboard-response,5
true,15,1,2,2,false,d,false,false,0.0-2.0-0.56-0.505-3.505,0,0,0,90,false,stim,true,1,1344.6850000000559,1,0,1,50706,WMM1,1517963,false,false,1782,image-keyboard-response,6
true,15,0,2,1,false,z,false,false,0.0-2.0-0.56-0.506-3.506,0,0,0,81,false,stim,true,0,1049.035000000149,1,0,0,50706,WMM1,1520525,false,false,1785,image-keyboard-response,7
true,15,2,2,0,false,q,true,true,0.0-2.0-0.56-0.507-3.507,0,0,0,68,false,stim,false,1,734.2349999998696,1,0,2,50706,WMM1,1522771,false,true,1788,image-keyboard-response,8
true,15,2,2,0,false,q,true,false,0.0-2.0-0.56-0.508-3.508,0,0,0,68,false,stim,false,1,623.2449999989476,1,0,2,50706,WMM1,1524907,false,false,1791,image-keyboard-response,9
true,15,2,2,1,false,z,true,false,0.0-2.0-0.56-0.509-3.509,0,0,0,68,false,stim,false,0,1313.1099999991711,1,0,0,50706,WMM1,1527731,false,false,1794,image-keyboard-response,10
true,15,2,2,1,false,z,true,false,0.0-2.0-0.56-0.510-3.510,0,0,0,68,false,stim,false,0,664.069999998901,1,0,0,50706,WMM1,1529907,false,false,1797,image-keyboard-response,11
true,15,2,2,2,true,d,false,false,0.0-2.0-0.56-0.511-3.511,0,0,0,68,false,stim,false,1,929.2700000004843,1,0,1,50706,WMM1,1532347,false,true,1800,image-keyboard-response,12
true,15,2,2,2,true,d,false,true,0.0-2.0-0.56-0.512-3.512,0,0,0,68,false,stim,false,1,1177.7849999996834,1,0,1,50706,WMM1,1535066,false,false,1803,image-keyboard-response,13
true,15,0,2,1,false,z,false,false,0.0-2.0-0.57-0.513-3.513,0,0,0,81,false,stim,true,0,686.2899999995716,1,0,0,50706,WMM1,1537266,false,false,1806,image-keyboard-response,14
true,15,2,2,2,true,d,false,true,0.0-2.0-0.57-0.514-3.514,0,0,0,68,false,stim,false,1,576.4999999990687,1,0,1,50706,WMM1,1539354,false,false,1809,image-keyboard-response,15
true,15,2,2,2,true,d,false,true,0.0-2.0-0.57-0.515-3.515,0,0,0,68,false,stim,false,1,704.4449999993667,1,0,1,50706,WMM1,1541570,false,false,1812,image-keyboard-response,16
true,15,1,2,0,false,q,false,false,0.0-2.0-0.57-0.516-3.516,0,0,0,90,false,stim,true,1,608.1899999990128,1,0,2,50706,WMM1,1543690,false,false,1815,image-keyboard-response,17
true,15,2,2,2,true,d,false,true,0.0-2.0-0.57-0.517-3.517,0,0,0,68,false,stim,false,1,553.1700000010896,1,0,1,50706,WMM1,1545754,false,false,1818,image-keyboard-response,18
true,15,2,2,0,false,q,true,false,0.0-2.0-0.57-0.518-3.518,0,0,0,68,false,stim,false,1,1760.180000001099,1,0,2,50706,WMM1,1549026,false,false,1821,image-keyboard-response,19
true,15,2,2,1,false,z,true,false,0.0-2.0-0.57-0.519-3.519,0,0,0,68,false,stim,false,0,806.7049999989104,1,0,0,50706,WMM1,1551346,false,false,1824,image-keyboard-response,20
true,15,2,2,0,false,q,true,true,0.0-2.0-0.57-0.520-3.520,0,0,0,68,false,stim,false,1,674.774999999674,1,0,2,50706,WMM1,1553537,false,true,1827,image-keyboard-response,21
true,15,0,2,1,false,z,false,false,0.0-2.0-0.57-0.521-3.521,0,0,0,81,false,stim,true,0,689.725000000326,1,0,0,50706,WMM1,1555746,false,false,1830,image-keyboard-response,22
true,15,2,2,0,false,q,true,false,0.0-2.0-0.58-0.522-3.522,0,0,0,68,false,stim,false,1,840.1899999990128,1,0,2,50706,WMM1,1558105,false,false,1833,image-keyboard-response,23
true,15,1,2,1,true,z,false,true,0.0-2.0-0.58-0.523-3.523,0,0,0,90,false,stim,false,0,722.1350000000093,1,0,0,50706,WMM1,1560345,false,false,1836,image-keyboard-response,24
true,15,1,2,1,true,z,false,true,0.0-2.0-0.58-0.524-3.524,0,0,0,90,false,stim,false,0,497.8150000006426,1,0,0,50706,WMM1,1562361,false,false,1839,image-keyboard-response,25
true,15,2,2,2,true,d,false,true,0.0-2.0-0.58-0.525-3.525,0,0,0,68,false,stim,false,1,771.0200000000186,1,0,1,50706,WMM1,1564649,false,false,1842,image-keyboard-response,26
true,15,0,2,0,true,q,false,true,0.0-2.0-0.58-0.526-3.526,0,0,0,81,false,stim,false,1,475.10999999940395,1,0,2,50706,WMM1,1566641,false,false,1845,image-keyboard-response,27
true,15,1,2,1,true,z,false,true,0.0-2.0-0.58-0.527-3.527,0,0,0,90,false,stim,false,0,642.2700000002515,1,0,0,50706,WMM1,1568801,false,false,1848,image-keyboard-response,28
true,15,2,2,2,true,d,false,true,0.0-2.0-0.58-0.528-3.528,0,0,0,68,false,stim,false,1,769.5949999999721,1,0,1,50706,WMM1,1571088,false,false,1851,image-keyboard-response,29
true,15,2,2,2,true,d,false,true,0.0-2.0-0.58-0.529-3.529,0,0,0,68,false,stim,false,1,889.489999999525,1,0,1,50706,WMM1,1573496,false,false,1854,image-keyboard-response,30
true,15,0,2,0,true,q,false,true,0.0-2.0-0.58-0.530-3.530,0,0,0,81,false,stim,false,1,1425.139999999432,1,0,2,50706,WMM1,1576440,false,false,1857,image-keyboard-response,31
true,15,2,2,2,true,d,false,true,0.0-2.0-0.59-0.531-3.531,0,0,0,68,false,stim,false,1,1721.5249999989755,1,1,1,50706,WMM1,1579680,false,false,1860,image-keyboard-response,32
true,15,1,2,1,true,z,false,true,0.0-2.0-0.59-0.532-3.532,0,0,0,90,false,stim,false,0,1397.3999999999069,1,0,0,50706,WMM1,1582591,false,false,1863,image-keyboard-response,33
true,15,2,2,2,true,d,false,true,0.0-2.0-0.59-0.533-3.533,0,0,0,68,false,stim,false,1,1713.460000000894,1,1,1,50706,WMM1,1585815,false,false,1866,image-keyboard-response,34
true,15,2,2,2,true,d,false,true,0.0-2.0-0.59-0.534-3.534,0,0,0,68,false,stim,false,1,1375.5550000004005,1,1,1,50706,WMM1,1588703,false,false,1869,image-keyboard-response,35
true,15,0,2,0,true,q,false,true,0.0-2.0-0.59-0.535-3.535,0,0,0,81,false,stim,false,1,1264.7149999993853,1,0,2,50706,WMM1,1591479,false,false,1872,image-keyboard-response,36
true,15,1,2,1,true,z,false,true,0.0-2.0-0.59-0.536-3.536,0,0,0,90,false,stim,false,0,1614.9899999999907,1,0,0,50706,WMM1,1594607,false,false,1875,image-keyboard-response,37
true,15,0,2,0,true,q,false,true,0.0-2.0-0.59-0.537-3.537,0,0,0,81,false,stim,false,1,1614.6799999987707,1,0,2,50706,WMM1,1597734,false,false,1878,image-keyboard-response,38
true,15,0,2,0,true,q,false,true,0.0-2.0-0.59-0.538-3.538,0,0,0,81,false,stim,false,1,1231.7650000003632,1,0,2,50706,WMM1,1600478,false,false,1881,image-keyboard-response,39
true,15,1,2,1,true,z,false,true,0.0-2.0-0.59-0.539-3.539,0,0,0,90,false,stim,false,0,1224.889999999432,1,0,0,50706,WMM1,1603214,false,false,1884,image-keyboard-response,40
true,15,2,2,2,true,d,false,true,0.0-2.0-0.60-0.540-3.540,0,0,0,68,false,stim,false,1,1348.8649999999907,1,1,1,50706,WMM1,1606078,false,false,1887,image-keyboard-response,41
true,16,0,3,1,false,z,false,true,0.0-2.0-0.60-0.541-3.541,0,1,0,81,true,stim,true,0,1224.389999999432,1,0,2,50706,WMM1,1608814,false,true,1890,image-keyboard-response,1
true,16,2,3,2,true,d,false,true,0.0-2.0-0.60-0.542-3.542,0,1,0,68,false,stim,false,2,1703.2049999998417,1,1,1,50706,WMM1,1612030,false,false,1893,image-keyboard-response,2
true,16,0,3,1,false,z,false,true,0.0-2.0-0.60-0.543-3.543,0,1,0,81,false,stim,true,0,1598.3649999997579,1,0,2,50706,WMM1,1615142,false,true,1896,image-keyboard-response,3
true,16,1,3,0,false,q,false,false,0.0-2.0-0.60-0.544-3.544,0,1,0,90,false,stim,true,1,1134.8350000006612,1,0,0,50706,WMM1,1617789,false,false,1899,image-keyboard-response,4
true,16,2,3,2,true,d,false,true,0.0-2.0-0.60-0.545-3.545,0,1,0,68,false,stim,false,2,986.8850000002421,1,1,1,50706,WMM1,1620309,false,false,1902,image-keyboard-response,5
true,16,1,3,0,false,q,false,false,0.0-2.0-0.60-0.546-3.546,0,1,0,90,false,stim,true,1,1806.7549999996554,1,0,0,50706,WMM1,1623629,false,false,1905,image-keyboard-response,6
true,16,0,3,0,true,q,false,true,0.0-2.0-0.60-0.547-3.547,0,1,0,81,false,stim,false,1,735.9749999996275,1,0,0,50706,WMM1,1625877,false,false,1908,image-keyboard-response,7
true,16,0,3,1,false,z,false,false,0.0-2.0-0.60-0.548-3.548,0,1,0,81,false,stim,true,0,384.1799999990035,1,0,2,50706,WMM1,1627773,false,false,1911,image-keyboard-response,8
true,16,2,3,2,true,d,false,true,0.0-2.0-0.61-0.549-3.549,0,1,0,68,false,stim,false,2,822.1599999996834,1,1,1,50706,WMM1,1630109,false,false,1914,image-keyboard-response,9
true,16,2,3,2,true,d,false,true,0.0-2.0-0.61-0.550-3.550,0,1,0,68,false,stim,false,2,1529.0200000000186,1,1,1,50706,WMM1,1633149,false,false,1917,image-keyboard-response,10
true,16,0,3,1,false,z,false,false,0.0-2.0-0.61-0.551-3.551,0,1,0,81,false,stim,true,0,415.4250000009779,1,0,2,50706,WMM1,1635077,false,false,1920,image-keyboard-response,11
true,16,0,3,0,true,q,false,true,0.0-2.0-0.61-0.552-3.552,0,1,0,81,false,stim,false,1,432.29499999876134,1,0,0,50706,WMM1,1637021,false,false,1923,image-keyboard-response,12
true,16,0,3,0,true,q,false,true,0.0-2.0-0.61-0.553-3.553,0,1,0,81,false,stim,false,1,968.5450000015553,1,0,0,50706,WMM1,1639500,false,false,1926,image-keyboard-response,13
true,16,0,3,0,true,q,false,true,0.0-2.0-0.61-0.554-3.554,0,1,0,81,false,stim,false,1,784.4700000004377,1,0,0,50706,WMM1,1641796,false,false,1929,image-keyboard-response,14
true,16,2,3,2,true,d,false,true,0.0-2.0-0.61-0.555-3.555,0,1,0,68,false,stim,false,2,687.214999999851,1,1,1,50706,WMM1,1643996,false,false,1932,image-keyboard-response,15
true,16,1,3,1,true,z,false,true,0.0-2.0-0.61-0.556-3.556,0,1,0,90,false,stim,false,0,1062.2650000003632,1,0,2,50706,WMM1,1646572,false,false,1935,image-keyboard-response,16
true,16,1,3,1,true,z,false,true,0.0-2.0-0.61-0.557-3.557,0,1,0,90,false,stim,false,0,839.9149999986403,1,0,2,50706,WMM1,1648924,false,false,1938,image-keyboard-response,17
true,16,2,3,2,true,d,false,true,0.0-2.0-0.62-0.558-3.558,0,1,0,68,false,stim,false,2,1061.7550000005867,1,1,1,50706,WMM1,1651500,false,false,1941,image-keyboard-response,18
true,16,2,3,2,true,d,false,true,0.0-2.0-0.62-0.559-3.559,0,1,0,68,false,stim,false,2,1088.6900000004098,1,1,1,50706,WMM1,1654100,false,false,1944,image-keyboard-response,19
true,16,1,3,1,true,z,false,true,0.0-2.0-0.62-0.560-3.560,0,1,0,90,false,stim,false,0,1303.7600000007078,1,0,2,50706,WMM1,1656916,false,false,1947,image-keyboard-response,20
true,16,0,3,0,true,q,false,true,0.0-2.0-0.62-0.561-3.561,0,1,0,81,false,stim,false,1,1001.0100000000093,1,0,0,50706,WMM1,1659436,false,false,1950,image-keyboard-response,21
true,16,1,3,1,true,z,false,true,0.0-2.0-0.62-0.562-3.562,0,1,0,90,false,stim,false,0,1295.7449999994133,1,0,2,50706,WMM1,1662243,false,false,1953,image-keyboard-response,22
true,16,0,3,0,true,q,false,true,0.0-2.0-0.62-0.563-3.563,0,1,0,81,false,stim,false,1,1360.6400000008289,1,0,0,50706,WMM1,1665115,false,false,1956,image-keyboard-response,23
true,16,0,3,0,true,q,false,true,0.0-2.0-0.62-0.564-3.564,0,1,0,81,false,stim,false,1,1071.0349999989849,1,0,0,50706,WMM1,1667699,false,false,1959,image-keyboard-response,24
true,16,2,3,2,true,d,false,false,0.0-2.0-0.62-0.565-3.565,0,1,0,68,false,stim,false,2,1008.2249999996275,1,0,1,50706,WMM1,1670219,false,true,1962,image-keyboard-response,25
true,16,1,3,1,true,z,false,true,0.0-2.0-0.62-0.566-3.566,0,1,0,90,false,stim,false,0,1168.7750000001397,1,0,2,50706,WMM1,1672899,false,false,1965,image-keyboard-response,26
true,16,1,3,1,true,z,false,false,0.0-2.0-0.63-0.567-3.567,0,1,0,90,false,stim,false,0,956.4849999987055,1,0,2,50706,WMM1,1675370,false,true,1968,image-keyboard-response,27
true,16,0,3,0,true,q,false,true,0.0-2.0-0.63-0.568-3.568,0,1,0,81,false,stim,false,1,1096.6900000004098,1,0,0,50706,WMM1,1677978,false,false,1971,image-keyboard-response,28
true,16,1,3,1,true,z,false,true,0.0-2.0-0.63-0.569-3.569,0,1,0,90,false,stim,false,0,1304.8700000001118,1,0,2,50706,WMM1,1680794,false,false,1974,image-keyboard-response,29
true,16,0,3,0,true,q,false,true,0.0-2.0-0.63-0.570-3.570,0,1,0,81,false,stim,false,1,734.1750000014435,1,0,0,50706,WMM1,1683042,false,false,1977,image-keyboard-response,30
true,17,2,4,0,false,q,false,false,0.0-2.0-0.63-0.571-3.571,0,0,0,68,true,stim,true,2,904.1599999999162,1,0,1,50706,WMM1,1685458,false,false,1980,image-keyboard-response,1
true,17,1,4,2,false,d,false,false,0.0-2.0-0.63-0.572-3.572,0,0,0,90,false,stim,true,1,912.024999999674,1,0,2,50706,WMM1,1687882,false,false,1983,image-keyboard-response,2
true,17,2,4,0,false,q,false,false,0.0-2.0-0.63-0.573-3.573,0,0,0,68,false,stim,true,2,1568.7850000013132,1,0,1,50706,WMM1,1690962,false,false,1986,image-keyboard-response,3
true,17,1,4,2,false,d,true,true,0.0-2.0-0.63-0.574-3.574,0,0,0,90,false,stim,false,0,1031.0749999987893,1,0,0,50706,WMM1,1693505,false,true,1989,image-keyboard-response,4
true,17,0,4,0,true,q,false,true,0.0-2.0-0.63-0.575-3.575,0,0,0,81,false,stim,false,2,959.6700000003912,1,0,1,50706,WMM1,1695977,false,false,1992,image-keyboard-response,5
true,17,2,4,2,true,d,false,true,0.0-2.0-0.64-0.576-3.576,0,0,0,68,false,stim,false,1,783.1550000009593,1,0,2,50706,WMM1,1698273,false,false,1995,image-keyboard-response,6
true,17,2,4,2,true,d,false,true,0.0-2.0-0.64-0.577-3.577,0,0,0,68,false,stim,false,1,1304.7549999991897,1,0,2,50706,WMM1,1701090,false,false,1998,image-keyboard-response,7
true,17,1,4,2,false,d,true,false,0.0-2.0-0.64-0.578-3.578,0,0,0,90,false,stim,false,0,792.1649999988731,1,0,0,50706,WMM1,1703425,false,false,2001,image-keyboard-response,8
true,17,0,4,0,true,q,false,true,0.0-2.0-0.64-0.579-3.579,0,0,0,81,false,stim,false,2,695.904999998631,1,0,1,50706,WMM1,1705633,false,false,2004,image-keyboard-response,9
true,17,1,4,2,false,d,true,false,0.0-2.0-0.64-0.580-3.580,0,0,0,90,false,stim,false,0,680.8100000016857,1,0,0,50706,WMM1,1707825,false,false,2007,image-keyboard-response,10
true,17,0,4,0,true,q,false,true,0.0-2.0-0.64-0.581-3.581,0,0,0,81,false,stim,false,2,774.72999999905,1,0,1,50706,WMM1,1710112,false,false,2010,image-keyboard-response,11
true,17,0,4,0,true,q,false,true,0.0-2.0-0.64-0.582-3.582,0,0,0,81,false,stim,false,2,840.9499999999534,1,0,1,50706,WMM1,1712465,false,false,2013,image-keyboard-response,12
true,17,1,4,2,false,d,true,false,0.0-2.0-0.64-0.583-3.583,0,0,0,90,false,stim,false,0,520.3600000005681,1,0,0,50706,WMM1,1714496,false,false,2016,image-keyboard-response,13
true,17,2,4,2,true,d,false,false,0.0-2.0-0.64-0.584-3.584,0,0,0,68,false,stim,false,1,415.2749999992084,1,0,2,50706,WMM1,1716424,false,true,2019,image-keyboard-response,14
true,17,1,4,2,false,d,false,false,0.0-2.0-0.65-0.585-3.585,0,0,0,90,false,stim,true,1,1408.170000000624,1,0,2,50706,WMM1,1719344,false,false,2022,image-keyboard-response,15
