answered,blockNum,choice,condition,corResp,correct,correct_response,explo,fb,internal_node_id,isStable_1,isStable_2,isStable_3,key_press,newBlock,part,persev,persevResp,rt,sessNum,stableAS,stimulus,subject,task,time_elapsed,training,trap,trial_index,trial_type,trialsInBlock
true,1,0,0,0,true,q,false,true,0.0-2.0-0.0-0.0-3.0,0,0,0,81,true,stim,false,-1,877.339999999851,0,0,0,50706,WMM1,8561281,false,false,104,image-keyboard-response,1
true,1,0,0,0,true,q,false,true,0.0-2.0-0.0-0.1-3.1,0,0,0,81,false,stim,false,-1,1196.6300000008196,0,0,0,50706,WMM1,8563985,false,false,107,image-keyboard-response,2
true,1,1,0,2,false,d,true,false,0.0-2.0-0.0-0.2-3.2,0,0,0,90,false,stim,false,-1,805.640000000596,0,0,1,50706,WMM1,8566297,false,false,110,image-keyboard-response,3
true,1,2,0,2,true,d,false,true,0.0-2.0-0.0-0.3-3.3,0,0,0,68,false,stim,false,-1,933.2400000002235,0,0,2,50706,WMM1,8568736,false,false,113,image-keyboard-response,4
true,1,2,0,2,true,d,false,true,0.0-2.0-0.0-0.4-3.4,0,0,0,68,false,stim,false,-1,832.6500000003725,0,0,2,50706,WMM1,8571076,false,false,116,image-keyboard-response,5
true,1,0,0,2,false,d,true,false,0.0-2.0-0.0-0.5-3.5,0,0,0,81,false,stim,false,-1,873.1100000012666,0,0,1,50706,WMM1,8573456,false,false,119,image-keyboard-response,6
true,1,1,0,0,false,q,true,false,0.0-2.0-0.0-0.6-3.6,0,0,0,90,false,stim,false,-1,1134.1199999991804,0,0,0,50706,WMM1,8576096,false,false,122,image-keyboard-response,7
true,1,2,0,2,true,d,false,true,0.0-2.0-0.0-0.7-3.7,0,0,0,68,false,stim,false,-1,1620.8899999987334,0,0,1,50706,WMM1,8579224,false,false,125,image-keyboard-response,8
true,1,0,0,2,false,d,true,false,0.0-2.0-0.0-0.8-3.8,0,0,0,81,false,stim,false,-1,2047.2599999997765,0,0,2,50706,WMM1,8582779,false,false,128,image-keyboard-response,9
true,1,2,0,2,true,d,false,true,0.0-2.0-0.1-0.9-3.9,0,0,0,68,false,stim,false,-1,2353.269999999553,0,0,2,50706,WMM1,8586639,false,false,131,image-keyboard-response,10
true,1,0,0,2,false,d,true,false,0.0-2.0-0.1-0.10-3.10,0,0,0,81,false,stim,false,-1,1964.0649999994785,0,0,1,50706,WMM1,8590111,false,false,134,image-keyboard-response,11
true,1,0,0,0,true,q,false,true,0.0-2.0-0.1-0.11-3.11,0,0,0,81,false,stim,false,-1,2063.4049999993294,0,0,0,50706,WMM1,8593683,false,false,137,image-keyboard-response,12
true,1,0,0,0,true,q,false,true,0.0-2.0-0.1-0.12-3.12,0,0,0,81,false,stim,false,-1,856.75,0,0,0,50706,WMM1,8596047,false,false,140,image-keyboard-response,13
true,1,2,0,2,true,d,false,true,0.0-2.0-0.1-0.13-3.13,0,0,0,68,false,stim,false,-1,1164.8200000021607,0,0,2,50706,WMM1,8598767,false,false,143,image-keyboard-response,14
true,1,1,0,2,false,d,true,false,0.0-2.0-0.1-0.14-3.14,0,0,0,90,false,stim,false,-1,2092.4700000006706,0,0,1,50706,WMM1,8602366,false,false,146,image-keyboard-response,15
true,1,0,0,2,false,d,true,false,0.0-2.0-0.1-0.15-3.15,0,0,0,81,false,stim,false,-1,839.1900000013411,0,0,1,50706,WMM1,8604714,false,false,149,image-keyboard-response,16
true,1,2,0,2,true,d,false,true,0.0-2.0-0.1-0.16-3.16,0,0,0,68,false,stim,false,-1,786.3599999975413,0,0,2,50706,WMM1,8607006,false,false,152,image-keyboard-response,17
true,1,1,0,0,false,q,true,false,0.0-2.0-0.1-0.17-3.17,0,0,0,90,false,stim,false,-1,596.0899999979883,0,0,0,50706,WMM1,8609110,false,false,155,image-keyboard-response,18
true,1,2,0,2,true,d,false,true,0.0-2.0-0.2-0.18-3.18,0,0,0,68,false,stim,false,-1,1915.9000000003725,0,0,1,50706,WMM1,8612534,false,false,158,image-keyboard-response,19
true,1,2,0,2,true,d,false,true,0.0-2.0-0.2-0.19-3.19,0,0,0,68,false,stim,false,-1,638.605000000447,0,0,1,50706,WMM1,8614680,false,false,161,image-keyboard-response,20
true,1,2,0,2,true,d,false,true,0.0-2.0-0.2-0.20-3.20,0,0,0,68,false,stim,false,-1,1037.960000000894,0,0,2,50706,WMM1,8617225,false,false,164,image-keyboard-response,21
true,1,2,0,2,true,d,false,true,0.0-2.0-0.2-0.21-3.21,0,0,0,68,false,stim,false,-1,776.320000000298,0,0,2,50706,WMM1,8619510,false,false,167,image-keyboard-response,22
true,1,0,0,0,true,q,false,true,0.0-2.0-0.2-0.22-3.22,0,0,0,81,false,stim,false,-1,675.3549999985844,0,0,0,50706,WMM1,8621693,false,false,170,image-keyboard-response,23
true,1,2,0,2,true,d,false,true,0.0-2.0-0.2-0.23-3.23,0,0,0,68,false,stim,false,-1,564.0349999982864,0,0,2,50706,WMM1,8623765,false,false,173,image-keyboard-response,24
true,1,0,0,0,true,q,false,true,0.0-2.0-0.2-0.24-3.24,0,0,0,81,false,stim,false,-1,773.8550000023097,0,0,0,50706,WMM1,8626047,false,false,176,image-keyboard-response,25
true,1,2,0,2,true,d,false,true,0.0-2.0-0.2-0.25-3.25,0,0,0,68,false,stim,false,-1,541.3350000008941,0,1,1,50706,WMM1,8628096,false,false,179,image-keyboard-response,26
true,1,0,0,0,true,q,false,true,0.0-2.0-0.2-0.26-3.26,0,0,0,81,false,stim,false,-1,1458.004999998957,0,0,0,50706,WMM1,8631061,false,false,182,image-keyboard-response,27
true,1,2,0,2,true,d,false,true,0.0-2.0-0.3-0.27-3.27,0,0,0,68,false,stim,false,-1,631.7899999991059,0,0,2,50706,WMM1,8633301,false,false,185,image-keyboard-response,28
true,1,0,0,0,true,q,false,true,0.0-2.0-0.3-0.28-3.28,0,0,0,81,false,stim,false,-1,981.7499999981374,0,0,0,50706,WMM1,8635788,false,false,188,image-keyboard-response,29
true,1,2,0,2,true,d,false,true,0.0-2.0-0.3-0.29-3.29,0,0,0,68,false,stim,false,-1,733.5749999992549,0,0,2,50706,WMM1,8638028,false,false,191,image-keyboard-response,30
true,1,2,0,2,true,d,false,true,0.0-2.0-0.3-0.30-3.30,0,0,0,68,false,stim,false,-1,1480.9900000002235,0,1,1,50706,WMM1,8641016,false,false,194,image-keyboard-response,31
true,1,2,0,2,true,d,false,true,0.0-2.0-0.3-0.31-3.31,0,0,0,68,false,stim,false,-1,512.3000000007451,0,0,2,50706,WMM1,8643036,false,false,197,image-keyboard-response,32
true,1,2,0,2,true,d,false,true,0.0-2.0-0.3-0.32-3.32,0,0,0,68,false,stim,false,-1,661.269999999553,0,1,1,50706,WMM1,8645204,false,false,200,image-keyboard-response,33
true,1,0,0,0,true,q,false,true,0.0-2.0-0.3-0.33-3.33,0,0,0,81,false,stim,false,-1,659.1200000010431,0,0,0,50706,WMM1,8647372,false,false,203,image-keyboard-response,34
true,1,0,0,0,true,q,false,true,0.0-2.0-0.3-0.34-3.34,0,0,0,81,false,stim,false,-1,485.01999999955297,0,0,0,50706,WMM1,8649364,false,false,206,image-keyboard-response,35
true,2,2,3,2,true,d,false,true,0.0-2.0-0.3-0.35-3.35,0,1,0,68,true,stim,false,2,689.0250000003725,0,1,1,50706,WMM1,8651559,false,false,209,image-keyboard-response,1
true,2,2,3,0,false,q,false,false,0.0-2.0-0.4-0.36-3.36,0,1,0,68,false,stim,true,2,1033.690000001341,0,0,2,50706,WMM1,8654100,false,false,212,image-keyboard-response,2
true,2,2,3,1,false,z,true,false,0.0-2.0-0.4-0.37-3.37,0,1,0,68,false,stim,false,0,1365.3349999990314,0,0,0,50706,WMM1,8656971,false,false,215,image-keyboard-response,3
true,2,2,3,0,false,q,false,false,0.0-2.0-0.4-0.38-3.38,0,1,0,68,false,stim,true,2,1156.1899999994785,0,0,2,50706,WMM1,8659635,false,false,218,image-keyboard-response,4
true,2,0,3,1,false,z,false,false,0.0-2.0-0.4-0.39-3.39,0,1,0,81,false,stim,true,0,1208.440000001341,0,0,0,50706,WMM1,8662350,false,false,221,image-keyboard-response,5
true,2,0,3,2,false,d,true,false,0.0-2.0-0.4-0.40-3.40,0,1,0,81,false,stim,false,2,1172.9200000017881,0,1,1,50706,WMM1,8665139,false,false,224,image-keyboard-response,6
true,2,2,3,1,false,z,true,false,0.0-2.0-0.4-0.41-3.41,0,1,0,68,false,stim,false,0,1723.3250000011176,0,0,0,50706,WMM1,8668371,false,false,227,image-keyboard-response,7
true,2,2,3,2,true,d,false,true,0.0-2.0-0.4-0.42-3.42,0,1,0,68,false,stim,false,2,1540.684999998659,0,1,1,50706,WMM1,8671419,false,false,230,image-keyboard-response,8
true,2,2,3,2,true,d,false,true,0.0-2.0-0.4-0.43-3.43,0,1,0,68,false,stim,false,2,723.1649999991059,0,1,1,50706,WMM1,8673652,false,false,233,image-keyboard-response,9
true,2,2,3,0,false,q,false,true,0.0-2.0-0.4-0.44-3.44,0,1,0,68,false,stim,true,2,1060.2749999985099,0,0,2,50706,WMM1,8676218,false,true,236,image-keyboard-response,10
true,2,2,3,0,false,q,false,false,0.0-2.0-0.5-0.45-3.45,0,1,0,68,false,stim,true,2,437.85500000044703,0,0,2,50706,WMM1,8678164,false,false,239,image-keyboard-response,11
true,2,0,3,1,false,z,false,false,0.0-2.0-0.5-0.46-3.46,0,1,0,81,false,stim,true,0,684.4250000007451,0,0,0,50706,WMM1,8680356,false,false,242,image-keyboard-response,12
true,2,2,3,2,true,d,false,false,0.0-2.0-0.5-0.47-3.47,0,1,0,68,false,stim,false,2,756.0000000018626,0,1,1,50706,WMM1,8682618,false,true,245,image-keyboard-response,13
true,2,0,3,1,false,z,false,false,0.0-2.0-0.5-0.48-3.48,0,1,0,81,false,stim,true,0,709.2899999991059,0,0,0,50706,WMM1,8684834,false,false,248,image-keyboard-response,14
true,2,2,3,0,false,q,false,false,0.0-2.0-0.5-0.49-3.49,0,1,0,68,false,stim,true,2,886.9349999986589,0,0,2,50706,WMM1,8687225,false,false,251,image-keyboard-response,15
true,2,2,3,2,true,d,false,true,0.0-2.0-0.5-0.50-3.50,0,1,0,68,false,stim,false,2,956.1299999989569,0,1,1,50706,WMM1,8689689,false,false,254,image-keyboard-response,16
true,2,2,3,2,true,d,false,true,0.0-2.0-0.5-0.51-3.51,0,1,0,68,false,stim,false,2,1012.8499999996275,0,1,1,50706,WMM1,8692208,false,false,257,image-keyboard-response,17
true,2,2,3,0,false,q,false,false,0.0-2.0-0.5-0.52-3.52,0,1,0,68,false,stim,true,2,1056.265000000596,0,0,2,50706,WMM1,8694769,false,false,260,image-keyboard-response,18
true,2,0,3,1,false,z,false,false,0.0-2.0-0.5-0.53-3.53,0,1,0,81,false,stim,true,0,768.265000000596,0,0,0,50706,WMM1,8697044,false,false,263,image-keyboard-response,19
true,2,2,3,0,false,q,false,false,0.0-2.0-0.6-0.54-3.54,0,1,0,68,false,stim,true,2,990.1299999970943,0,0,2,50706,WMM1,8699544,false,false,266,image-keyboard-response,20
true,2,2,3,2,true,d,false,false,0.0-2.0-0.6-0.55-3.55,0,1,0,68,false,stim,false,2,535.1599999982864,0,1,1,50706,WMM1,8701585,false,true,269,image-keyboard-response,21
true,2,1,3,2,false,d,true,false,0.0-2.0-0.6-0.56-3.56,0,1,0,90,false,stim,false,2,981.660000000149,0,1,1,50706,WMM1,8704072,false,false,272,image-keyboard-response,22
true,2,2,3,0,false,q,false,false,0.0-2.0-0.6-0.57-3.57,0,1,0,68,false,stim,true,2,1023.464999999851,0,0,2,50706,WMM1,8706601,false,false,275,image-keyboard-response,23
true,2,0,3,1,false,z,false,false,0.0-2.0-0.6-0.58-3.58,0,1,0,81,false,stim,true,0,821.1900000013411,0,0,0,50706,WMM1,8708929,false,false,278,image-keyboard-response,24
true,2,2,3,2,true,d,false,false,0.0-2.0-0.6-0.59-3.59,0,1,0,68,false,stim,false,2,1117.440000001341,0,1,1,50706,WMM1,8711552,false,true,281,image-keyboard-response,25
true,2,0,3,1,false,z,false,false,0.0-2.0-0.6-0.60-3.60,0,1,0,81,false,stim,true,0,355.0300000011921,0,0,0,50706,WMM1,8713416,false,false,284,image-keyboard-response,26
true,2,0,3,1,false,z,false,false,0.0-2.0-0.6-0.61-3.61,0,1,0,81,false,stim,true,0,340.285000000149,0,0,0,50706,WMM1,8715264,false,false,287,image-keyboard-response,27
true,2,0,3,0,true,q,false,true,0.0-2.0-0.6-0.62-3.62,0,1,0,81,false,stim,false,2,507.67500000074506,0,0,2,50706,WMM1,8717281,false,false,290,image-keyboard-response,28
true,2,2,3,1,false,z,true,false,0.0-2.0-0.7-0.63-3.63,0,1,0,68,false,stim,false,0,1861.2449999991804,0,0,0,50706,WMM1,8720651,false,false,293,image-keyboard-response,29
true,2,1,3,2,false,d,true,false,0.0-2.0-0.7-0.64-3.64,0,1,0,90,false,stim,false,2,1024.445000000298,0,1,1,50706,WMM1,8723184,false,false,296,image-keyboard-response,30
true,2,2,3,0,false,q,false,false,0.0-2.0-0.7-0.65-3.65,0,1,0,68,false,stim,true,2,1435.2950000017881,0,0,2,50706,WMM1,8726127,false,false,299,image-keyboard-response,31
true,2,1,3,2,false,d,true,false,0.0-2.0-0.7-0.66-3.66,0,1,0,90,false,stim,false,2,900.7550000008196,0,1,1,50706,WMM1,8728543,false,false,302,image-keyboard-response,32
true,2,0,3,2,false,d,true,false,0.0-2.0-0.7-0.67-3.67,0,1,0,81,false,stim,false,2,526.4600000008941,0,1,1,50706,WMM1,8730576,false,false,305,image-keyboard-response,33
true,2,1,3,1,true,z,false,true,0.0-2.0-0.7-0.68-3.68,0,1,0,90,false,stim,false,0,1472.5499999970198,0,0,0,50706,WMM1,8733556,false,false,308,image-keyboard-response,34
true,2,0,3,0,true,q,false,true,0.0-2.0-0.7-0.69-3.69,0,1,0,81,false,stim,false,2,2285.949999999255,0,0,2,50706,WMM1,8737351,false,false,311,image-keyboard-response,35
true,2,1,3,1,true,z,false,true,0.0-2.0-0.7-0.70-3.70,0,1,0,90,false,stim,false,0,660.4750000014901,0,0,0,50706,WMM1,8739519,false,false,314,image-keyboard-response,36
true,2,0,3,0,true,q,false,false,0.0-2.0-0.7-0.71-3.71,0,1,0,81,false,stim,false,2,683.4999999981374,0,0,2,50706,WMM1,8741710,false,true,317,image-keyboard-response,37
true,2,0,3,1,false,z,false,false,0.0-2.0-0.8-0.72-3.72,0,1,0,81,false,stim,true,0,877.605000000447,0,0,0,50706,WMM1,8744097,false,false,320,image-keyboard-response,38
true,2,1,3,1,true,z,false,true,0.0-2.0-0.8-0.73-3.73,0,1,0,90,false,stim,false,0,1160.7599999997765,0,0,0,50706,WMM1,8746766,false,false,323,image-keyboard-response,39
true,2,2,3,0,false,q,false,false,0.0-2.0-0.8-0.74-3.74,0,1,0,68,false,stim,true,2,889.2799999993294,0,0,2,50706,WMM1,8749166,false,false,326,image-keyboard-response,40
true,2,0,3,2,false,d,true,false,0.0-2.0-0.8-0.75-3.75,0,1,0,81,false,stim,false,2,841.6849999986589,0,1,1,50706,WMM1,8751517,false,false,329,image-keyboard-response,41
true,2,2,3,0,false,q,false,false,0.0-2.0-0.8-0.76-3.76,0,1,0,68,false,stim,true,2,828.019999999553,0,0,2,50706,WMM1,8753853,false,false,332,image-keyboard-response,42
true,2,1,3,1,true,z,false,true,0.0-2.0-0.8-0.77-3.77,0,1,0,90,false,stim,false,0,2053.785000000149,0,0,0,50706,WMM1,8757416,false,false,335,image-keyboard-response,43
true,2,0,3,2,false,d,true,true,0.0-2.0-0.8-0.78-3.78,0,1,0,81,false,stim,false,2,2133.094999998808,0,1,1,50706,WMM1,8761061,false,true,338,image-keyboard-response,44
true,2,0,3,2,false,d,true,false,0.0-2.0-0.8-0.79-3.79,0,1,0,81,false,stim,false,2,737.2000000011176,0,1,1,50706,WMM1,8763309,false,false,341,image-keyboard-response,45
true,2,1,3,0,false,q,true,false,0.0-2.0-0.8-0.80-3.80,0,1,0,90,false,stim,false,2,1276.129999998957,0,0,2,50706,WMM1,8766093,false,false,344,image-keyboard-response,46
true,2,0,3,1,false,z,false,false,0.0-2.0-0.9-0.81-3.81,0,1,0,81,false,stim,true,0,2086.355000000447,0,0,0,50706,WMM1,8769688,false,false,347,image-keyboard-response,47
true,2,0,3,0,true,q,false,true,0.0-2.0-0.9-0.82-3.82,0,1,0,81,false,stim,false,2,2143.4850000012666,0,0,2,50706,WMM1,8773340,false,false,350,image-keyboard-response,48
true,2,0,3,0,true,q,false,true,0.0-2.0-0.9-0.83-3.83,0,1,0,81,false,stim,false,2,536.4500000011176,0,0,2,50706,WMM1,8775388,false,false,353,image-keyboard-response,49
true,2,0,3,0,true,q,false,true,0.0-2.0-0.9-0.84-3.84,0,1,0,81,false,stim,false,2,1220.429999999702,0,0,2,50706,WMM1,8778116,false,false,356,image-keyboard-response,50
true,2,1,3,2,false,d,true,false,0.0-2.0-0.9-0.85-3.85,0,1,0,90,false,stim,false,2,965.7600000016391,0,0,1,50706,WMM1,8780591,false,false,359,image-keyboard-response,51
true,2,2,3,2,true,d,false,true,0.0-2.0-0.9-0.86-3.86,0,1,0,68,false,stim,false,2,651.4699999988079,0,0,1,50706,WMM1,8782748,false,false,362,image-keyboard-response,52
true,2,2,3,2,true,d,false,true,0.0-2.0-0.9-0.87-3.87,0,1,0,68,false,stim,false,2,677.265000000596,0,0,1,50706,WMM1,8784932,false,false,365,image-keyboard-response,53
true,2,1,3,1,true,z,false,true,0.0-2.0-0.9-0.88-3.88,0,1,0,90,false,stim,false,0,1845.054999999702,0,0,0,50706,WMM1,8788283,false,false,368,image-keyboard-response,54
true,2,1,3,1,true,z,false,true,0.0-2.0-0.9-0.89-3.89,0,1,0,90,false,stim,false,0,547.730000000447,0,0,0,50706,WMM1,8790339,false,false,371,image-keyboard-response,55
true,2,0,3,2,false,d,true,false,0.0-2.0-0.10-0.90-3.90,0,1,0,81,false,stim,false,2,2014.824999999255,0,0,1,50706,WMM1,8793862,false,false,374,image-keyboard-response,56
true,2,0,3,0,true,q,false,true,0.0-2.0-0.10-0.91-3.91,0,1,0,81,false,stim,false,2,2340.614999998361,0,0,2,50706,WMM1,8797715,false,false,377,image-keyboard-response,57
true,2,1,3,1,true,z,false,true,0.0-2.0-0.10-0.92-3.92,0,1,0,90,false,stim,false,0,1513.8849999997765,0,0,0,50706,WMM1,8800739,false,false,380,image-keyboard-response,58
true,2,1,3,1,true,z,false,true,0.0-2.0-0.10-0.93-3.93,0,1,0,90,false,stim,false,0,476.05000000074506,0,0,0,50706,WMM1,8802723,false,false,383,image-keyboard-response,59
true,2,0,3,0,true,q,false,true,0.0-2.0-0.10-0.94-3.94,0,1,0,81,false,stim,false,2,1599.1699999999255,0,0,2,50706,WMM1,8805830,false,false,386,image-keyboard-response,60
true,3,1,1,1,true,z,false,true,0.0-2.0-0.10-0.95-3.95,0,0,0,90,true,stim,false,2,1759.7050000000745,0,0,1,50706,WMM1,8809100,false,false,389,image-keyboard-response,1
true,3,1,1,1,true,z,false,true,0.0-2.0-0.10-0.96-3.96,0,0,0,90,false,stim,false,2,929.1749999988824,0,0,1,50706,WMM1,8811539,false,false,392,image-keyboard-response,2
true,3,1,1,0,false,q,false,false,0.0-2.0-0.10-0.97-3.97,0,0,0,90,false,stim,true,1,428.33500000089407,0,0,0,50706,WMM1,8813474,false,false,395,image-keyboard-response,3
true,3,0,1,2,false,d,false,false,0.0-2.0-0.10-0.98-3.98,0,0,0,81,false,stim,true,0,1840.7900000009686,0,0,2,50706,WMM1,8816822,false,false,398,image-keyboard-response,4
true,3,1,1,0,false,q,false,false,0.0-2.0-0.11-0.99-3.99,0,0,0,90,false,stim,true,1,1749.394999999553,0,0,0,50706,WMM1,8820098,false,false,401,image-keyboard-response,5
true,3,1,1,1,true,z,false,true,0.0-2.0-0.11-0.100-3.100,0,0,0,90,false,stim,false,2,2706.8849999997765,0,0,1,50706,WMM1,8824314,false,false,404,image-keyboard-response,6
true,3,0,1,2,false,d,false,false,0.0-2.0-0.11-0.101-3.101,0,0,0,81,false,stim,true,0,2015.0150000024587,0,0,2,50706,WMM1,8827837,false,false,407,image-keyboard-response,7
true,3,1,1,1,true,z,false,true,0.0-2.0-0.11-0.102-3.102,0,0,0,90,false,stim,false,2,1263.4900000002235,0,0,1,50706,WMM1,8830610,false,false,410,image-keyboard-response,8
true,3,1,1,1,true,z,false,true,0.0-2.0-0.11-0.103-3.103,0,0,0,90,false,stim,false,2,762.5999999996275,0,0,1,50706,WMM1,8832881,false,false,413,image-keyboard-response,9
true,3,1,1,0,false,q,false,false,0.0-2.0-0.11-0.104-3.104,0,0,0,90,false,stim,true,1,1950.8300000000745,0,0,0,50706,WMM1,8836337,false,false,416,image-keyboard-response,10
true,3,1,1,2,false,d,true,false,0.0-2.0-0.11-0.105-3.105,0,0,0,90,false,stim,false,0,2376.3800000008196,0,0,2,50706,WMM1,8840220,false,false,419,image-keyboard-response,11
true,3,2,1,0,false,q,true,false,0.0-2.0-0.11-0.106-3.106,0,0,0,68,false,stim,false,1,1671.679999999702,0,0,0,50706,WMM1,8843401,false,false,422,image-keyboard-response,12
true,3,1,1,2,false,d,true,false,0.0-2.0-0.11-0.107-3.107,0,0,0,90,false,stim,false,0,994.679999999702,0,0,2,50706,WMM1,8845905,false,false,425,image-keyboard-response,13
true,3,0,1,0,true,q,false,false,0.0-2.0-0.12-0.108-3.108,0,0,0,81,false,stim,false,1,972.2649999987334,0,0,0,50706,WMM1,8848385,false,true,428,image-keyboard-response,14
true,3,0,1,2,false,d,false,false,0.0-2.0-0.12-0.109-3.109,0,0,0,81,false,stim,true,0,1047.6199999991804,0,0,2,50706,WMM1,8850940,false,false,431,image-keyboard-response,15
true,3,1,1,1,true,z,false,true,0.0-2.0-0.12-0.110-3.110,0,0,0,90,false,stim,false,2,2960.1049999985844,0,0,1,50706,WMM1,8855408,false,false,434,image-keyboard-response,16
true,3,1,1,1,true,z,false,false,0.0-2.0-0.12-0.111-3.111,0,0,0,90,false,stim,false,2,594.4749999996275,0,0,1,50706,WMM1,8857512,false,true,437,image-keyboard-response,17
true,3,2,1,2,true,d,false,true,0.0-2.0-0.12-0.112-3.112,0,0,0,68,false,stim,false,0,1185.094999998808,0,0,2,50706,WMM1,8860208,false,false,440,image-keyboard-response,18
true,3,2,1,2,true,d,false,true,0.0-2.0-0.12-0.113-3.113,0,0,0,68,false,stim,false,0,2230.7499999981374,0,0,2,50706,WMM1,8863947,false,false,443,image-keyboard-response,19
true,3,0,1,0,true,q,false,true,0.0-2.0-0.12-0.114-3.114,0,0,0,81,false,stim,false,1,1831.140000000596,0,0,0,50706,WMM1,8867287,false,false,446,image-keyboard-response,20
true,3,2,1,1,false,z,false,false,0.0-2.0-0.12-0.115-3.115,0,0,0,68,false,stim,true,2,1721.1749999988824,0,0,1,50706,WMM1,8870519,false,false,449,image-keyboard-response,21
true,3,1,1,0,false,q,false,false,0.0-2.0-0.12-0.116-3.116,0,0,0,90,false,stim,true,1,2191.210000000894,0,0,0,50706,WMM1,8874218,false,false,452,image-keyboard-response,22
true,3,2,1,1,false,z,false,false,0.0-2.0-0.13-0.117-3.117,0,0,0,68,false,stim,true,2,2366.7649999987334,0,0,1,50706,WMM1,8878095,false,false,455,image-keyboard-response,23
true,3,0,1,0,true,q,false,true,0.0-2.0-0.13-0.118-3.118,0,0,0,81,false,stim,false,1,2041.5000000018626,0,0,0,50706,WMM1,8881647,false,false,458,image-keyboard-response,24
true,3,0,1,0,true,q,false,false,0.0-2.0-0.13-0.119-3.119,0,0,0,81,false,stim,false,1,1501.2050000000745,0,0,0,50706,WMM1,8884658,false,true,461,image-keyboard-response,25
true,3,1,1,0,false,q,false,false,0.0-2.0-0.13-0.120-3.120,0,0,0,90,false,stim,true,1,1040.3799999970943,0,0,0,50706,WMM1,8887206,false,false,464,image-keyboard-response,26
true,3,2,1,1,false,z,false,true,0.0-2.0-0.13-0.121-3.121,0,0,0,68,false,stim,true,2,651.089999999851,0,0,1,50706,WMM1,8889366,false,true,467,image-keyboard-response,27
true,3,2,1,1,false,z,false,false,0.0-2.0-0.13-0.122-3.122,0,0,0,68,false,stim,true,2,1660.25,0,0,1,50706,WMM1,8892534,false,false,470,image-keyboard-response,28
true,3,2,1,2,true,d,false,true,0.0-2.0-0.13-0.123-3.123,0,0,0,68,false,stim,false,0,404.09999999962747,0,0,2,50706,WMM1,8894446,false,false,473,image-keyboard-response,29
true,3,2,1,2,true,d,false,false,0.0-2.0-0.13-0.124-3.124,0,0,0,68,false,stim,false,0,1359.0299999993294,0,0,2,50706,WMM1,8897313,false,true,476,image-keyboard-response,30
true,4,2,2,0,false,q,false,true,0.0-2.0-0.13-0.125-3.125,0,0,0,68,true,stim,true,2,1295.5950000006706,0,0,2,50706,WMM1,8900118,false,true,479,image-keyboard-response,1
true,4,1,2,1,true,z,false,true,0.0-2.0-0.14-0.126-3.126,0,0,0,90,false,stim,false,0,1147.6599999982864,0,0,0,50706,WMM1,8902773,false,false,482,image-keyboard-response,2
true,4,0,2,2,false,d,true,false,0.0-2.0-0.14-0.127-3.127,0,0,0,81,false,stim,false,1,932.4550000000745,0,0,1,50706,WMM1,8905213,false,false,485,image-keyboard-response,3
true,4,1,2,2,false,d,false,false,0.0-2.0-0.14-0.128-3.128,0,0,0,90,false,stim,true,1,686.0999999996275,0,0,1,50706,WMM1,8907408,false,false,488,image-keyboard-response,4
true,4,2,2,2,true,d,false,true,0.0-2.0-0.14-0.129-3.129,0,0,0,68,false,stim,false,1,809.1150000002235,0,0,1,50706,WMM1,8909725,false,false,491,image-keyboard-response,5
true,4,2,2,0,false,q,false,false,0.0-2.0-0.14-0.130-3.130,0,0,0,68,false,stim,true,2,1100.085000000894,0,0,2,50706,WMM1,8912333,false,false,494,image-keyboard-response,6
true,4,1,2,1,true,z,false,true,0.0-2.0-0.14-0.131-3.131,0,0,0,90,false,stim,false,0,411.91499999910593,0,0,0,50706,WMM1,8914253,false,false,497,image-keyboard-response,7
true,4,2,2,0,false,q,false,false,0.0-2.0-0.14-0.132-3.132,0,0,0,68,false,stim,true,2,827.5849999990314,0,0,2,50706,WMM1,8916589,false,false,500,image-keyboard-response,8
true,4,0,2,1,false,z,false,false,0.0-2.0-0.14-0.133-3.133,0,0,0,81,false,stim,true,0,600.8149999994785,0,0,0,50706,WMM1,8918704,false,false,503,image-keyboard-response,9
true,4,1,2,0,false,q,true,false,0.0-2.0-0.14-0.134-3.134,0,0,0,90,false,stim,false,2,1136.4100000020117,0,0,2,50706,WMM1,8921348,false,false,506,image-keyboard-response,10
true,4,2,2,2,true,d,false,false,0.0-2.0-0.15-0.135-3.135,0,0,0,68,false,stim,false,1,739.3349999990314,0,0,1,50706,WMM1,8923597,false,true,509,image-keyboard-response,11
true,4,0,2,0,true,q,false,true,0.0-2.0-0.15-0.136-3.136,0,0,0,81,false,stim,false,2,1140.390000000596,0,0,2,50706,WMM1,8926244,false,false,512,image-keyboard-response,12
true,4,0,2,0,true,q,false,true,0.0-2.0-0.15-0.137-3.137,0,0,0,81,false,stim,false,2,394.82499999925494,0,0,2,50706,WMM1,8928148,false,false,515,image-keyboard-response,13
true,4,0,2,0,true,q,false,true,0.0-2.0-0.15-0.138-3.138,0,0,0,81,false,stim,false,2,495.6650000009686,0,0,2,50706,WMM1,8930152,false,false,518,image-keyboard-response,14
true,4,1,2,1,true,z,false,false,0.0-2.0-0.15-0.139-3.139,0,0,0,90,false,stim,false,0,1075.6699999999255,0,0,0,50706,WMM1,8932748,false,true,521,image-keyboard-response,15
true,4,0,2,1,false,z,false,false,0.0-2.0-0.15-0.140-3.140,0,0,0,81,false,stim,true,0,659.7350000012666,0,0,0,50706,WMM1,8934916,false,false,524,image-keyboard-response,16
true,4,2,2,1,false,z,true,false,0.0-2.0-0.15-0.141-3.141,0,0,0,68,false,stim,false,0,564.3100000005215,0,0,0,50706,WMM1,8936987,false,false,527,image-keyboard-response,17
true,4,1,2,2,false,d,false,false,0.0-2.0-0.15-0.142-3.142,0,0,0,90,false,stim,true,1,844.4550000000745,0,0,1,50706,WMM1,8939339,false,false,530,image-keyboard-response,18
true,4,0,2,2,false,d,true,false,0.0-2.0-0.15-0.143-3.143,0,0,0,81,false,stim,false,1,534.4499999992549,0,0,1,50706,WMM1,8941383,false,false,533,image-keyboard-response,19
true,4,2,2,1,false,z,true,false,0.0-2.0-0.16-0.144-3.144,0,0,0,68,false,stim,false,0,537.2250000014901,0,0,0,50706,WMM1,8943427,false,false,536,image-keyboard-response,20
true,4,0,2,0,true,q,false,true,0.0-2.0-0.16-0.145-3.145,0,0,0,81,false,stim,false,2,346.320000000298,0,0,2,50706,WMM1,8945283,false,false,539,image-keyboard-response,21
true,4,0,2,2,false,d,true,false,0.0-2.0-0.16-0.146-3.146,0,0,0,81,false,stim,false,1,938.054999999702,0,0,1,50706,WMM1,8947731,false,false,542,image-keyboard-response,22
true,4,2,2,0,false,q,false,false,0.0-2.0-0.16-0.147-3.147,0,0,0,68,false,stim,true,2,745.8449999988079,0,0,2,50706,WMM1,8949987,false,false,545,image-keyboard-response,23
true,4,1,2,2,false,d,false,false,0.0-2.0-0.16-0.148-3.148,0,0,0,90,false,stim,true,1,541.8850000016391,0,0,1,50706,WMM1,8952038,false,false,548,image-keyboard-response,24
true,4,0,2,1,false,z,false,false,0.0-2.0-0.16-0.149-3.149,0,0,0,81,false,stim,true,0,476.84000000171363,0,0,0,50706,WMM1,8954026,false,false,551,image-keyboard-response,25
true,4,1,2,1,true,z,false,true,0.0-2.0-0.16-0.150-3.150,0,0,0,90,false,stim,false,0,554.2049999982119,0,0,0,50706,WMM1,8956090,false,false,554,image-keyboard-response,26
true,4,1,2,0,false,q,true,false,0.0-2.0-0.16-0.151-3.151,0,0,0,90,false,stim,false,2,570.2350000012666,0,0,2,50706,WMM1,8958170,false,false,557,image-keyboard-response,27
true,4,2,2,2,true,d,false,true,0.0-2.0-0.16-0.152-3.152,0,0,0,68,false,stim,false,1,463.8799999989569,0,0,1,50706,WMM1,8960154,false,false,560,image-keyboard-response,28
true,4,0,2,1,false,z,false,false,0.0-2.0-0.17-0.153-3.153,0,0,0,81,false,stim,true,0,500.45499999821186,0,0,0,50706,WMM1,8962166,false,false,563,image-keyboard-response,29
true,4,2,2,0,false,q,false,false,0.0-2.0-0.17-0.154-3.154,0,0,0,68,false,stim,true,2,428.929999999702,0,0,2,50706,WMM1,8964106,false,false,566,image-keyboard-response,30
true,4,1,2,0,false,q,true,false,0.0-2.0-0.17-0.155-3.155,0,0,0,90,false,stim,false,2,257.945000000298,0,0,2,50706,WMM1,8965874,false,false,569,image-keyboard-response,31
true,4,1,2,2,false,d,false,false,0.0-2.0-0.17-0.156-3.156,0,0,0,90,false,stim,true,1,570.4549999982119,0,0,1,50706,WMM1,8967955,false,false,572,image-keyboard-response,32
true,4,2,2,2,true,d,false,false,0.0-2.0-0.17-0.157-3.157,0,0,0,68,false,stim,false,1,856.3349999990314,0,0,1,50706,WMM1,8970322,false,true,575,image-keyboard-response,33
true,4,0,2,1,false,z,false,false,0.0-2.0-0.17-0.158-3.158,0,0,0,81,false,stim,true,0,541.714999999851,0,0,0,50706,WMM1,8972374,false,false,578,image-keyboard-response,34
true,4,2,2,2,true,d,false,true,0.0-2.0-0.17-0.159-3.159,0,0,0,68,false,stim,false,1,693.0449999999255,0,0,1,50706,WMM1,8974577,false,false,581,image-keyboard-response,35
true,4,2,2,0,false,q,false,false,0.0-2.0-0.17-0.160-3.160,0,0,0,68,false,stim,true,2,858.0449999999255,0,0,2,50706,WMM1,8976945,false,false,584,image-keyboard-response,36
true,4,0,2,1,false,z,false,false,0.0-2.0-0.17-0.161-3.161,0,0,0,81,false,stim,true,0,1041.164999999106,0,0,0,50706,WMM1,8979497,false,false,587,image-keyboard-response,37
true,4,1,2,1,true,z,false,true,0.0-2.0-0.18-0.162-3.162,0,0,0,90,false,stim,false,0,295.9599999990314,0,0,0,50706,WMM1,8981305,false,false,590,image-keyboard-response,38
true,4,1,2,0,false,q,true,false,0.0-2.0-0.18-0.163-3.163,0,0,0,90,false,stim,false,2,628.0100000016391,0,0,2,50706,WMM1,8983444,false,false,593,image-keyboard-response,39
true,4,2,2,2,true,d,false,true,0.0-2.0-0.18-0.164-3.164,0,0,0,68,false,stim,false,1,318.60500000044703,0,0,1,50706,WMM1,8985273,false,false,596,image-keyboard-response,40
true,4,2,2,1,false,z,true,false,0.0-2.0-0.18-0.165-3.165,0,0,0,68,false,stim,false,0,681.410000000149,0,0,0,50706,WMM1,8987465,false,false,599,image-keyboard-response,41
true,4,0,2,0,true,q,false,true,0.0-2.0-0.18-0.166-3.166,0,0,0,81,false,stim,false,2,945.6699999999255,0,0,2,50706,WMM1,8989928,false,false,602,image-keyboard-response,42
true,4,2,2,2,true,d,false,true,0.0-2.0-0.18-0.167-3.167,0,0,0,68,false,stim,false,1,962.2049999982119,0,0,1,50706,WMM1,8992400,false,false,605,image-keyboard-response,43
true,4,0,2,0,true,q,false,true,0.0-2.0-0.18-0.168-3.168,0,0,0,81,false,stim,false,2,631.7400000002235,0,0,2,50706,WMM1,8994542,false,false,608,image-keyboard-response,44
true,4,2,2,1,false,z,true,true,0.0-2.0-0.18-0.169-3.169,0,0,0,68,false,stim,false,0,363.26999999955297,0,0,0,50706,WMM1,8996416,false,true,611,image-keyboard-response,45
true,4,1,2,2,false,d,false,false,0.0-2.0-0.18-0.170-3.170,0,0,0,90,false,stim,true,1,810.1800000015646,0,0,1,50706,WMM1,8998736,false,false,614,image-keyboard-response,46
true,4,0,2,0,true,q,false,true,0.0-2.0-0.19-0.171-3.171,0,0,0,81,false,stim,false,2,609.820000000298,0,0,2,50706,WMM1,9000856,false,false,617,image-keyboard-response,47
true,4,0,2,0,true,q,false,true,0.0-2.0-0.19-0.172-3.172,0,0,0,81,false,stim,false,2,481.8549999985844,0,0,2,50706,WMM1,9002848,false,false,620,image-keyboard-response,48
true,4,2,2,2,true,d,false,true,0.0-2.0-0.19-0.173-3.173,0,0,0,68,false,stim,false,1,396.97499999962747,0,0,1,50706,WMM1,9004755,false,false,623,image-keyboard-response,49
true,4,0,2,0,true,q,false,true,0.0-2.0-0.19-0.174-3.174,0,0,0,81,false,stim,false,2,478.41999999806285,0,0,2,50706,WMM1,9006743,false,false,626,image-keyboard-response,50
true,4,2,2,2,true,d,false,true,0.0-2.0-0.19-0.175-3.175,0,0,0,68,false,stim,false,1,610.3149999994785,0,0,1,50706,WMM1,9008863,false,false,629,image-keyboard-response,51
true,4,0,2,1,false,z,false,false,0.0-2.0-0.19-0.176-3.176,0,0,0,81,false,stim,true,0,805.3849999997765,0,0,0,50706,WMM1,9011175,false,false,632,image-keyboard-response,52
true,4,2,2,2,true,d,false,true,0.0-2.0-0.19-0.177-3.177,0,0,0,68,false,stim,false,1,738.765000000596,0,0,1,50706,WMM1,9013423,false,false,635,image-keyboard-response,53
true,4,2,2,1,false,z,true,false,0.0-2.0-0.19-0.178-3.178,0,0,0,68,false,stim,false,0,423.320000000298,0,0,0,50706,WMM1,9015354,false,false,638,image-keyboard-response,54
true,4,1,2,1,true,z,false,true,0.0-2.0-0.19-0.179-3.179,0,0,0,90,false,stim,false,0,712.769999999553,0,0,0,50706,WMM1,9017575,false,false,641,image-keyboard-response,55
true,4,2,2,2,true,d,false,true,0.0-2.0-0.20-0.180-3.180,0,0,0,68,false,stim,false,1,739.8450000006706,0,0,1,50706,WMM1,9019823,false,false,644,image-keyboard-response,56
true,4,0,2,0,true,q,false,true,0.0-2.0-0.20-0.181-3.181,0,0,0,81,false,stim,false,2,387.7649999987334,0,0,2,50706,WMM1,9021719,false,false,647,image-keyboard-response,57
true,4,1,2,1,true,z,false,true,0.0-2.0-0.20-0.182-3.182,0,0,0,90,false,stim,false,0,475.51999999955297,0,0,0,50706,WMM1,9023702,false,false,650,image-keyboard-response,58
true,4,1,2,1,true,z,false,true,0.0-2.0-0.20-0.183-3.183,0,0,0,90,false,stim,false,0,591.6549999993294,0,0,0,50706,WMM1,9025802,false,false,653,image-keyboard-response,59
true,4,2,2,0,false,q,false,false,0.0-2.0-0.20-0.184-3.184,0,0,0,68,false,stim,true,2,560.4249999988824,0,0,2,50706,WMM1,9027870,false,false,656,image-keyboard-response,60
true,5,0,4,1,false,z,false,false,0.0-2.0-0.20-0.185-3.185,0,0,0,81,true,stim,true,0,636.2750000003725,0,0,2,50706,WMM1,9030014,false,false,659,image-keyboard-response,1
true,5,2,4,2,true,d,false,true,0.0-2.0-0.20-0.186-3.186,0,0,0,68,false,stim,false,1,492.2250000014901,0,0,0,50706,WMM1,9032014,false,false,662,image-keyboard-response,2
true,5,0,4,0,true,q,false,true,0.0-2.0-0.20-0.187-3.187,0,0,0,81,false,stim,false,2,740.1150000020862,0,0,1,50706,WMM1,9034262,false,false,665,image-keyboard-response,3
true,5,0,4,0,true,q,false,true,0.0-2.0-0.20-0.188-3.188,0,0,0,81,false,stim,false,2,598.7899999991059,0,0,1,50706,WMM1,9036369,false,false,668,image-keyboard-response,4
true,5,2,4,2,true,d,false,true,0.0-2.0-0.21-0.189-3.189,0,0,0,68,false,stim,false,1,687.769999999553,0,0,0,50706,WMM1,9038566,false,false,671,image-keyboard-response,5
true,5,0,4,0,true,q,false,true,0.0-2.0-0.21-0.190-3.190,0,0,0,81,false,stim,false,2,1147.7350000012666,0,0,1,50706,WMM1,9041222,false,false,674,image-keyboard-response,6
true,5,1,4,2,false,d,false,false,0.0-2.0-0.21-0.191-3.191,0,0,0,90,false,stim,true,1,1202.574999999255,0,0,0,50706,WMM1,9043933,false,false,677,image-keyboard-response,7
true,5,2,4,1,false,z,true,false,0.0-2.0-0.21-0.192-3.192,0,0,0,68,false,stim,false,0,860.4149999991059,0,0,2,50706,WMM1,9046302,false,false,680,image-keyboard-response,8
true,5,0,4,1,false,z,false,false,0.0-2.0-0.21-0.193-3.193,0,0,0,81,false,stim,true,0,615.4500000011176,0,0,2,50706,WMM1,9048425,false,false,683,image-keyboard-response,9
true,5,1,4,1,true,z,false,true,0.0-2.0-0.21-0.194-3.194,0,0,0,90,false,stim,false,0,455.64000000059605,0,0,2,50706,WMM1,9050389,false,false,686,image-keyboard-response,10
true,5,0,4,0,true,q,false,true,0.0-2.0-0.21-0.195-3.195,0,0,0,81,false,stim,false,2,1123.5400000009686,0,0,1,50706,WMM1,9053021,false,false,689,image-keyboard-response,11
true,5,1,4,2,false,d,false,false,0.0-2.0-0.21-0.196-3.196,0,0,0,90,false,stim,true,1,618.4799999985844,0,0,0,50706,WMM1,9055149,false,false,692,image-keyboard-response,12
true,5,0,4,0,true,q,false,true,0.0-2.0-0.21-0.197-3.197,0,0,0,81,false,stim,false,2,1154.379999998957,0,0,1,50706,WMM1,9057813,false,false,695,image-keyboard-response,13
true,5,0,4,2,false,d,true,false,0.0-2.0-0.22-0.198-3.198,0,0,0,81,false,stim,false,1,645.6850000023842,0,0,0,50706,WMM1,9059968,false,false,698,image-keyboard-response,14
true,5,2,4,2,true,d,false,false,0.0-2.0-0.22-0.199-3.199,0,0,0,68,false,stim,false,1,620.0600000005215,0,0,0,50706,WMM1,9062109,false,true,701,image-keyboard-response,15
true,5,1,4,1,true,z,false,true,0.0-2.0-0.22-0.200-3.200,0,0,0,90,false,stim,false,0,835.1150000020862,0,0,2,50706,WMM1,9064452,false,false,704,image-keyboard-response,16
true,5,0,4,0,true,q,false,true,0.0-2.0-0.22-0.201-3.201,0,0,0,81,false,stim,false,2,940.0850000008941,0,0,1,50706,WMM1,9066900,false,false,707,image-keyboard-response,17
true,5,1,4,1,true,z,false,false,0.0-2.0-0.22-0.202-3.202,0,0,0,90,false,stim,false,0,755.640000000596,0,0,2,50706,WMM1,9069164,false,true,710,image-keyboard-response,18
true,5,2,4,0,false,q,false,true,0.0-2.0-0.22-0.203-3.203,0,0,0,68,false,stim,true,2,733.839999999851,0,0,1,50706,WMM1,9071407,false,true,713,image-keyboard-response,19
true,5,2,4,0,false,q,false,false,0.0-2.0-0.22-0.204-3.204,0,0,0,68,false,stim,true,2,664.929999999702,0,0,1,50706,WMM1,9073580,false,false,716,image-keyboard-response,20
true,5,2,4,1,false,z,true,false,0.0-2.0-0.22-0.205-3.205,0,0,0,68,false,stim,false,0,673.5849999990314,0,0,2,50706,WMM1,9075764,false,false,719,image-keyboard-response,21
true,5,0,4,2,false,d,true,true,0.0-2.0-0.22-0.206-3.206,0,0,0,81,false,stim,false,1,1011.6649999991059,0,0,0,50706,WMM1,9078284,false,true,722,image-keyboard-response,22
true,5,0,4,2,false,d,true,false,0.0-2.0-0.23-0.207-3.207,0,0,0,81,false,stim,false,1,528.2550000008196,0,0,0,50706,WMM1,9080323,false,false,725,image-keyboard-response,23
true,5,2,4,1,false,z,true,false,0.0-2.0-0.23-0.208-3.208,0,0,0,68,false,stim,false,0,404.5800000000745,0,0,2,50706,WMM1,9082239,false,false,728,image-keyboard-response,24
true,5,1,4,1,true,z,false,true,0.0-2.0-0.23-0.209-3.209,0,0,0,90,false,stim,false,0,438.01999999955297,0,0,2,50706,WMM1,9084187,false,false,731,image-keyboard-response,25
true,5,0,4,2,false,d,true,false,0.0-2.0-0.23-0.210-3.210,0,0,0,81,false,stim,false,1,552.8849999997765,0,0,0,50706,WMM1,9086251,false,false,734,image-keyboard-response,26
true,5,2,4,1,false,z,true,false,0.0-2.0-0.23-0.211-3.211,0,0,0,68,false,stim,false,0,498.0199999976903,0,0,2,50706,WMM1,9088259,false,false,737,image-keyboard-response,27
true,5,1,4,2,false,d,false,false,0.0-2.0-0.23-0.212-3.212,0,0,0,90,false,stim,true,1,329.8700000010431,0,0,0,50706,WMM1,9090099,false,false,740,image-keyboard-response,28
true,5,0,4,0,true,q,false,true,0.0-2.0-0.23-0.213-3.213,0,0,0,81,false,stim,false,2,466.01999999955297,0,0,1,50706,WMM1,9092075,false,false,743,image-keyboard-response,29
true,5,0,4,0,true,q,false,true,0.0-2.0-0.23-0.214-3.214,0,0,0,81,false,stim,false,2,650.9149999991059,0,0,1,50706,WMM1,9094238,false,false,746,image-keyboard-response,30
true,5,0,4,0,true,q,false,true,0.0-2.0-0.23-0.215-3.215,0,0,0,81,false,stim,false,2,389.1699999999255,0,0,1,50706,WMM1,9096139,false,false,749,image-keyboard-response,31
true,5,0,4,0,true,q,false,true,0.0-2.0-0.24-0.216-3.216,0,0,0,81,false,stim,false,2,384.27500000037253,0,0,1,50706,WMM1,9098034,false,false,752,image-keyboard-response,32
true,5,2,4,1,false,z,true,false,0.0-2.0-0.24-0.217-3.217,0,0,0,68,false,stim,false,0,608.0649999994785,0,0,2,50706,WMM1,9100154,false,false,755,image-keyboard-response,33
true,5,0,4,0,true,q,false,true,0.0-2.0-0.24-0.218-3.218,0,0,0,81,false,stim,false,2,376.90499999932945,0,0,1,50706,WMM1,9102042,false,false,758,image-keyboard-response,34
true,5,1,4,2,false,d,false,false,0.0-2.0-0.24-0.219-3.219,0,0,0,90,false,stim,true,1,513.214999999851,0,0,0,50706,WMM1,9104066,false,false,761,image-keyboard-response,35
true,5,0,4,1,false,z,false,false,0.0-2.0-0.24-0.220-3.220,0,0,0,81,false,stim,true,0,540.0449999999255,0,0,2,50706,WMM1,9106117,false,false,764,image-keyboard-response,36
true,5,2,4,1,false,z,true,false,0.0-2.0-0.24-0.221-3.221,0,0,0,68,false,stim,false,0,556.8449999988079,0,0,2,50706,WMM1,9108186,false,false,767,image-keyboard-response,37
true,5,0,4,2,false,d,true,true,0.0-2.0-0.24-0.222-3.222,0,0,0,81,false,stim,false,1,793.8149999994785,0,0,0,50706,WMM1,9110490,false,true,770,image-keyboard-response,38
true,5,0,4,0,true,q,false,true,0.0-2.0-0.24-0.223-3.223,0,0,0,81,false,stim,false,2,705.625,0,0,1,50706,WMM1,9112706,false,false,773,image-keyboard-response,39
true,5,0,4,2,false,d,true,false,0.0-2.0-0.24-0.224-3.224,0,0,0,81,false,stim,false,1,521.125,0,0,0,50706,WMM1,9114738,false,false,776,image-keyboard-response,40
true,5,0,4,1,false,z,false,false,0.0-2.0-0.25-0.225-3.225,0,0,0,81,false,stim,true,0,880.140000000596,0,0,2,50706,WMM1,9117130,false,false,779,image-keyboard-response,41
true,5,1,4,1,true,z,false,true,0.0-2.0-0.25-0.226-3.226,0,0,0,90,false,stim,false,0,835.3150000013411,0,0,2,50706,WMM1,9119473,false,false,782,image-keyboard-response,42
true,5,1,4,0,false,q,true,false,0.0-2.0-0.25-0.227-3.227,0,0,0,90,false,stim,false,2,695.9700000006706,0,0,1,50706,WMM1,9121681,false,false,785,image-keyboard-response,43
true,5,2,4,2,true,d,false,false,0.0-2.0-0.25-0.228-3.228,0,0,0,68,false,stim,false,1,833.1150000002235,0,0,0,50706,WMM1,9124025,false,true,788,image-keyboard-response,44
true,5,0,4,0,true,q,false,false,0.0-2.0-0.25-0.229-3.229,0,0,0,81,false,stim,false,2,896.7900000009686,0,0,1,50706,WMM1,9126433,false,true,791,image-keyboard-response,45
true,5,1,4,0,false,q,true,false,0.0-2.0-0.25-0.230-3.230,0,0,0,90,false,stim,false,2,565.339999999851,0,0,1,50706,WMM1,9128508,false,false,794,image-keyboard-response,46
true,5,2,4,2,true,d,false,true,0.0-2.0-0.25-0.231-3.231,0,0,0,68,false,stim,false,1,300.0449999999255,0,0,0,50706,WMM1,9130321,false,false,797,image-keyboard-response,47
true,5,2,4,2,true,d,false,true,0.0-2.0-0.25-0.232-3.232,0,0,0,68,false,stim,false,1,505.2349999975413,0,0,0,50706,WMM1,9132337,false,false,800,image-keyboard-response,48
true,5,2,4,1,false,z,true,true,0.0-2.0-0.25-0.233-3.233,0,0,0,68,false,stim,false,0,751.445000000298,0,0,2,50706,WMM1,9134609,false,true,803,image-keyboard-response,49
true,5,0,4,1,false,z,false,false,0.0-2.0-0.26-0.234-3.234,0,0,0,81,false,stim,true,0,908.1450000014156,0,0,2,50706,WMM1,9137032,false,false,806,image-keyboard-response,50
true,5,1,4,0,false,q,true,false,0.0-2.0-0.26-0.235-3.235,0,0,0,90,false,stim,false,2,660.2050000000745,0,0,1,50706,WMM1,9139203,false,false,809,image-keyboard-response,51
true,5,2,4,0,false,q,false,false,0.0-2.0-0.26-0.236-3.236,0,0,0,68,false,stim,true,2,399.8850000016391,0,0,1,50706,WMM1,9141112,false,false,812,image-keyboard-response,52
true,5,2,4,2,true,d,false,true,0.0-2.0-0.26-0.237-3.237,0,0,0,68,false,stim,false,1,411.8799999989569,0,0,0,50706,WMM1,9143032,false,false,815,image-keyboard-response,53
true,5,0,4,1,false,z,false,false,0.0-2.0-0.26-0.238-3.238,0,0,0,81,false,stim,true,0,643.7700000014156,0,0,2,50706,WMM1,9145184,false,false,818,image-keyboard-response,54
true,5,2,4,1,false,z,true,false,0.0-2.0-0.26-0.239-3.239,0,0,0,68,false,stim,false,0,305.0049999989569,0,0,2,50706,WMM1,9146999,false,false,821,image-keyboard-response,55
true,5,1,4,2,false,d,false,false,0.0-2.0-0.26-0.240-3.240,0,0,0,90,false,stim,true,1,396.22499999962747,0,0,0,50706,WMM1,9148904,false,false,824,image-keyboard-response,56
true,5,0,4,2,false,d,true,false,0.0-2.0-0.26-0.241-3.241,0,0,0,81,false,stim,false,1,895.5550000015646,0,0,0,50706,WMM1,9151307,false,false,827,image-keyboard-response,57
true,5,0,4,0,true,q,false,true,0.0-2.0-0.26-0.242-3.242,0,0,0,81,false,stim,false,2,405.91000000201166,0,0,1,50706,WMM1,9153223,false,false,830,image-keyboard-response,58
true,5,2,4,2,true,d,false,true,0.0-2.0-0.27-0.243-3.243,0,0,0,68,false,stim,false,1,492.02500000037253,0,0,0,50706,WMM1,9155223,false,false,833,image-keyboard-response,59
true,5,0,4,0,true,q,false,true,0.0-2.0-0.27-0.244-3.244,0,0,0,81,false,stim,false,2,700.1800000015646,0,0,1,50706,WMM1,9157431,false,false,836,image-keyboard-response,60
true,6,2,2,0,false,q,true,false,0.0-2.0-0.27-0.245-3.245,0,0,0,68,true,stim,false,1,409.6450000014156,0,0,2,50706,WMM1,9159351,false,false,839,image-keyboard-response,1
true,6,2,2,1,false,z,false,false,0.0-2.0-0.27-0.246-3.246,0,0,0,68,false,stim,true,2,953.2799999993294,0,0,0,50706,WMM1,9161813,false,false,842,image-keyboard-response,2
true,6,0,2,0,true,q,false,false,0.0-2.0-0.27-0.247-3.247,0,0,0,81,false,stim,false,1,653.0999999996275,0,0,2,50706,WMM1,9163974,false,true,845,image-keyboard-response,3
true,6,1,2,2,false,d,true,false,0.0-2.0-0.27-0.248-3.248,0,0,0,90,false,stim,false,0,653.2799999974668,0,0,1,50706,WMM1,9166134,false,false,848,image-keyboard-response,4
true,6,2,2,2,true,d,false,true,0.0-2.0-0.27-0.249-3.249,0,0,0,68,false,stim,false,0,476.09999999962747,0,0,1,50706,WMM1,9168118,false,false,851,image-keyboard-response,5
true,6,0,2,1,false,z,true,false,0.0-2.0-0.27-0.250-3.250,0,0,0,81,false,stim,false,2,860.0849999990314,0,0,0,50706,WMM1,9170486,false,false,854,image-keyboard-response,6
true,6,1,2,0,false,q,false,false,0.0-2.0-0.27-0.251-3.251,0,0,0,90,false,stim,true,1,726.2799999993294,0,0,2,50706,WMM1,9172721,false,false,857,image-keyboard-response,7
true,6,0,2,1,false,z,true,false,0.0-2.0-0.28-0.252-3.252,0,0,0,81,false,stim,false,2,486.5800000000745,0,0,0,50706,WMM1,9174717,false,false,860,image-keyboard-response,8
true,6,2,2,0,false,q,true,false,0.0-2.0-0.28-0.253-3.253,0,0,0,68,false,stim,false,1,683.785000000149,0,0,2,50706,WMM1,9176909,false,false,863,image-keyboard-response,9
true,6,1,2,0,false,q,false,false,0.0-2.0-0.28-0.254-3.254,0,0,0,90,false,stim,true,1,715.6350000016391,0,0,2,50706,WMM1,9179133,false,false,866,image-keyboard-response,10
true,6,0,2,2,false,d,false,false,0.0-2.0-0.28-0.255-3.255,0,0,0,81,false,stim,true,0,395.75,0,0,1,50706,WMM1,9181037,false,false,869,image-keyboard-response,11
true,6,2,2,2,true,d,false,true,0.0-2.0-0.28-0.256-3.256,0,0,0,68,false,stim,false,0,287.0449999999255,0,0,1,50706,WMM1,9182833,false,false,872,image-keyboard-response,12
true,6,2,2,2,true,d,false,true,0.0-2.0-0.28-0.257-3.257,0,0,0,68,false,stim,false,0,457.2450000010431,0,0,1,50706,WMM1,9184798,false,false,875,image-keyboard-response,13
true,6,0,2,1,false,z,true,false,0.0-2.0-0.28-0.258-3.258,0,0,0,81,false,stim,false,2,466.31000000052154,0,0,0,50706,WMM1,9186773,false,false,878,image-keyboard-response,14
true,6,2,2,0,false,q,true,false,0.0-2.0-0.28-0.259-3.259,0,0,0,68,false,stim,false,1,434.964999999851,0,0,2,50706,WMM1,9188717,false,false,881,image-keyboard-response,15
true,6,1,2,1,true,z,false,true,0.0-2.0-0.28-0.260-3.260,0,0,0,90,false,stim,false,2,331.84500000067055,0,0,0,50706,WMM1,9190557,false,false,884,image-keyboard-response,16
true,6,1,2,1,true,z,false,true,0.0-2.0-0.29-0.261-3.261,0,0,0,90,false,stim,false,2,483.6299999970943,0,0,0,50706,WMM1,9192549,false,false,887,image-keyboard-response,17
true,6,0,2,2,false,d,false,false,0.0-2.0-0.29-0.262-3.262,0,0,0,81,false,stim,true,0,510.33500000089407,0,0,1,50706,WMM1,9194568,false,false,890,image-keyboard-response,18
true,6,2,2,0,false,q,true,false,0.0-2.0-0.29-0.263-3.263,0,0,0,68,false,stim,false,1,440.4750000014901,0,0,2,50706,WMM1,9196516,false,false,893,image-keyboard-response,19
true,6,1,2,1,true,z,false,true,0.0-2.0-0.29-0.264-3.264,0,0,0,90,false,stim,false,2,291.76500000059605,0,0,0,50706,WMM1,9198317,false,false,896,image-keyboard-response,20
true,6,0,2,2,false,d,false,false,0.0-2.0-0.29-0.265-3.265,0,0,0,81,false,stim,true,0,768.589999999851,0,0,1,50706,WMM1,9200596,false,false,899,image-keyboard-response,21
true,6,1,2,0,false,q,false,true,0.0-2.0-0.29-0.266-3.266,0,0,0,90,false,stim,true,1,629.3849999997765,0,0,2,50706,WMM1,9202748,false,true,902,image-keyboard-response,22
true,6,1,2,0,false,q,false,false,0.0-2.0-0.29-0.267-3.267,0,0,0,90,false,stim,true,1,362.21000000089407,0,0,2,50706,WMM1,9204623,false,false,905,image-keyboard-response,23
true,6,2,2,1,false,z,false,true,0.0-2.0-0.29-0.268-3.268,0,0,0,68,false,stim,true,2,318.52999999932945,0,0,0,50706,WMM1,9206452,false,true,908,image-keyboard-response,24
true,6,0,2,2,false,d,false,false,0.0-2.0-0.29-0.269-3.269,0,0,0,81,false,stim,true,0,638.0849999990314,0,0,1,50706,WMM1,9208604,false,false,911,image-keyboard-response,25
true,6,2,2,1,false,z,false,false,0.0-2.0-0.30-0.270-3.270,0,0,0,68,false,stim,true,2,253.9249999988824,0,0,0,50706,WMM1,9210372,false,false,914,image-keyboard-response,26
true,6,1,2,0,false,q,false,false,0.0-2.0-0.30-0.271-3.271,0,0,0,90,false,stim,true,1,280.7599999997765,0,0,2,50706,WMM1,9212164,false,false,917,image-keyboard-response,27
true,6,0,2,0,true,q,false,true,0.0-2.0-0.30-0.272-3.272,0,0,0,81,false,stim,false,1,266.0599999986589,0,0,2,50706,WMM1,9213941,false,false,920,image-keyboard-response,28
true,6,2,2,1,false,z,false,false,0.0-2.0-0.30-0.273-3.273,0,0,0,68,false,stim,true,2,618.0999999996275,0,0,0,50706,WMM1,9216071,false,false,923,image-keyboard-response,29
true,6,1,2,2,false,d,true,false,0.0-2.0-0.30-0.274-3.274,0,0,0,90,false,stim,false,0,604.2750000003725,0,0,1,50706,WMM1,9218187,false,false,926,image-keyboard-response,30
true,6,0,2,1,false,z,true,false,0.0-2.0-0.30-0.275-3.275,0,0,0,81,false,stim,false,2,303.5,0,0,0,50706,WMM1,9220003,false,false,929,image-keyboard-response,31
true,6,0,2,2,false,d,false,false,0.0-2.0-0.30-0.276-3.276,0,0,0,81,false,stim,true,0,631.7900000009686,0,0,1,50706,WMM1,9222147,false,false,932,image-keyboard-response,32
true,6,2,2,2,true,d,false,true,0.0-2.0-0.30-0.277-3.277,0,0,0,68,false,stim,false,0,592.089999999851,0,0,1,50706,WMM1,9224251,false,false,935,image-keyboard-response,33
true,6,0,2,0,true,q,false,true,0.0-2.0-0.30-0.278-3.278,0,0,0,81,false,stim,false,1,729.4149999991059,0,0,2,50706,WMM1,9226494,false,false,938,image-keyboard-response,34
true,6,0,2,0,true,q,false,true,0.0-2.0-0.31-0.279-3.279,0,0,0,81,false,stim,false,1,683.945000000298,0,0,2,50706,WMM1,9228691,false,false,941,image-keyboard-response,35
true,6,1,2,1,true,z,false,true,0.0-2.0-0.31-0.280-3.280,0,0,0,90,false,stim,false,2,479.84500000067055,0,0,0,50706,WMM1,9230682,false,false,944,image-keyboard-response,36
true,6,2,2,2,true,d,false,true,0.0-2.0-0.31-0.281-3.281,0,0,0,68,false,stim,false,0,494.7050000000745,0,0,1,50706,WMM1,9232690,false,false,947,image-keyboard-response,37
true,6,0,2,0,true,q,false,false,0.0-2.0-0.31-0.282-3.282,0,0,0,81,false,stim,false,1,392.554999999702,0,0,2,50706,WMM1,9234594,false,true,950,image-keyboard-response,38
true,6,1,2,1,true,z,false,true,0.0-2.0-0.31-0.283-3.283,0,0,0,90,false,stim,false,2,573.625,0,0,0,50706,WMM1,9236679,false,false,953,image-keyboard-response,39
true,6,2,2,0,false,q,true,false,0.0-2.0-0.31-0.284-3.284,0,0,0,68,false,stim,false,1,529.9300000015646,0,0,2,50706,WMM1,9238722,false,false,956,image-keyboard-response,40
true,6,1,2,1,true,z,false,true,0.0-2.0-0.31-0.285-3.285,0,0,0,90,false,stim,false,2,731.3149999994785,0,1,0,50706,WMM1,9240962,false,false,959,image-keyboard-response,41
true,6,2,2,2,true,d,false,true,0.0-2.0-0.31-0.286-3.286,0,0,0,68,false,stim,false,0,690.2200000006706,0,0,1,50706,WMM1,9243162,false,false,962,image-keyboard-response,42
true,6,2,2,2,true,d,false,true,0.0-2.0-0.31-0.287-3.287,0,0,0,68,false,stim,false,0,634.6500000003725,0,0,1,50706,WMM1,9245306,false,false,965,image-keyboard-response,43
true,6,2,2,2,true,d,false,true,0.0-2.0-0.32-0.288-3.288,0,0,0,68,false,stim,false,0,476.714999999851,0,0,1,50706,WMM1,9247293,false,false,968,image-keyboard-response,44
true,6,0,2,0,true,q,false,true,0.0-2.0-0.32-0.289-3.289,0,0,0,81,false,stim,false,1,679.6899999994785,0,0,2,50706,WMM1,9249482,false,false,971,image-keyboard-response,45
true,6,0,2,0,true,q,false,true,0.0-2.0-0.32-0.290-3.290,0,0,0,81,false,stim,false,1,971.390000000596,0,0,2,50706,WMM1,9251961,false,false,974,image-keyboard-response,46
true,6,2,2,1,false,z,false,false,0.0-2.0-0.32-0.291-3.291,0,0,0,68,false,stim,true,2,411.22000000067055,0,1,0,50706,WMM1,9253881,false,false,977,image-keyboard-response,47
true,6,1,2,2,false,d,true,false,0.0-2.0-0.32-0.292-3.292,0,0,0,90,false,stim,false,0,811.9900000002235,0,0,1,50706,WMM1,9256201,false,false,980,image-keyboard-response,48
true,6,0,2,0,true,q,false,true,0.0-2.0-0.32-0.293-3.293,0,0,0,81,false,stim,false,1,799.1450000014156,0,0,2,50706,WMM1,9258508,false,false,983,image-keyboard-response,49
true,7,2,3,1,false,z,true,false,0.0-2.0-0.32-0.294-3.294,1,0,0,68,true,stim,false,1,911.1500000003725,0,1,0,50706,WMM1,9260929,false,false,986,image-keyboard-response,1
true,7,0,3,0,true,q,false,true,0.0-2.0-0.32-0.295-3.295,1,0,0,81,false,stim,false,2,953.9399999994785,0,0,1,50706,WMM1,9263393,false,false,989,image-keyboard-response,2
true,7,0,3,1,false,z,true,true,0.0-2.0-0.32-0.296-3.296,1,0,0,81,false,stim,false,1,1186.5849999990314,0,1,0,50706,WMM1,9266088,false,true,992,image-keyboard-response,3
true,7,0,3,1,false,z,true,false,0.0-2.0-0.33-0.297-3.297,1,0,0,81,false,stim,false,1,1030.015000000596,0,1,0,50706,WMM1,9268628,false,false,995,image-keyboard-response,4
true,7,0,3,0,true,q,false,false,0.0-2.0-0.33-0.298-3.298,1,0,0,81,false,stim,false,2,1080.664999999106,0,0,1,50706,WMM1,9271216,false,true,998,image-keyboard-response,5
true,7,0,3,1,false,z,true,false,0.0-2.0-0.33-0.299-3.299,1,0,0,81,false,stim,false,1,652.9350000005215,0,1,0,50706,WMM1,9273392,false,false,1001,image-keyboard-response,6
true,7,2,3,0,false,q,false,false,0.0-2.0-0.33-0.300-3.300,1,0,0,68,false,stim,true,2,593.8800000008196,0,0,1,50706,WMM1,9275496,false,false,1004,image-keyboard-response,7
true,7,1,3,1,true,z,false,true,0.0-2.0-0.33-0.301-3.301,1,0,0,90,false,stim,false,0,714.2100000008941,0,0,2,50706,WMM1,9277720,false,false,1007,image-keyboard-response,8
true,7,0,3,1,false,z,true,false,0.0-2.0-0.33-0.302-3.302,1,0,0,81,false,stim,false,1,695.3499999996275,0,1,0,50706,WMM1,9279923,false,false,1010,image-keyboard-response,9
true,7,2,3,0,false,q,false,false,0.0-2.0-0.33-0.303-3.303,1,0,0,68,false,stim,true,2,632.0999999996275,0,0,1,50706,WMM1,9282064,false,false,1013,image-keyboard-response,10
true,7,1,3,1,true,z,false,true,0.0-2.0-0.33-0.304-3.304,1,0,0,90,false,stim,false,0,627.5850000008941,0,0,2,50706,WMM1,9284199,false,false,1016,image-keyboard-response,11
true,7,1,3,1,true,z,false,true,0.0-2.0-0.33-0.305-3.305,1,0,0,90,false,stim,false,0,484.125,0,0,2,50706,WMM1,9286192,false,false,1019,image-keyboard-response,12
true,7,1,3,1,true,z,false,true,0.0-2.0-0.34-0.306-3.306,1,0,0,90,false,stim,false,0,416.6200000010431,0,0,2,50706,WMM1,9288120,false,false,1022,image-keyboard-response,13
true,7,0,3,1,false,z,true,false,0.0-2.0-0.34-0.307-3.307,1,0,0,81,false,stim,false,1,670.644999999553,0,1,0,50706,WMM1,9290299,false,false,1025,image-keyboard-response,14
true,7,2,3,0,false,q,false,false,0.0-2.0-0.34-0.308-3.308,1,0,0,68,false,stim,true,2,928.269999999553,0,0,1,50706,WMM1,9292735,false,false,1028,image-keyboard-response,15
true,7,0,3,0,true,q,false,true,0.0-2.0-0.34-0.309-3.309,1,0,0,81,false,stim,false,2,827.0999999996275,0,0,1,50706,WMM1,9295071,false,false,1031,image-keyboard-response,16
true,7,1,3,1,true,z,false,true,0.0-2.0-0.34-0.310-3.310,1,0,0,90,false,stim,false,0,554.2200000006706,0,0,2,50706,WMM1,9297135,false,false,1034,image-keyboard-response,17
true,7,2,3,1,false,z,true,true,0.0-2.0-0.34-0.311-3.311,1,0,0,68,false,stim,false,1,699.0599999986589,0,1,0,50706,WMM1,9299343,false,true,1037,image-keyboard-response,18
true,7,0,3,0,true,q,false,true,0.0-2.0-0.34-0.312-3.312,1,0,0,81,false,stim,false,2,862.019999999553,0,0,1,50706,WMM1,9301714,false,false,1040,image-keyboard-response,19
true,7,2,3,1,false,z,true,false,0.0-2.0-0.34-0.313-3.313,1,0,0,68,false,stim,false,0,983.3600000012666,0,0,2,50706,WMM1,9304207,false,false,1043,image-keyboard-response,20
true,7,2,3,1,false,z,true,false,0.0-2.0-0.34-0.314-3.314,1,0,0,68,false,stim,false,1,1103.625,0,1,0,50706,WMM1,9306823,false,false,1046,image-keyboard-response,21
true,7,1,3,1,true,z,false,true,0.0-2.0-0.35-0.315-3.315,1,0,0,90,false,stim,false,0,655.2200000006706,0,0,2,50706,WMM1,9308991,false,false,1049,image-keyboard-response,22
true,7,1,3,1,true,z,false,true,0.0-2.0-0.35-0.316-3.316,1,0,0,90,false,stim,false,0,454.804999999702,0,0,2,50706,WMM1,9310958,false,false,1052,image-keyboard-response,23
true,7,0,3,1,false,z,true,false,0.0-2.0-0.35-0.317-3.317,1,0,0,81,false,stim,false,1,665.4049999993294,0,1,0,50706,WMM1,9313138,false,false,1055,image-keyboard-response,24
true,7,2,3,0,false,q,false,false,0.0-2.0-0.35-0.318-3.318,1,0,0,68,false,stim,true,2,317.0699999984354,0,0,1,50706,WMM1,9314966,false,false,1058,image-keyboard-response,25
true,7,1,3,1,true,z,false,true,0.0-2.0-0.35-0.319-3.319,1,0,0,90,false,stim,false,1,784.6000000014901,0,1,0,50706,WMM1,9317264,false,false,1061,image-keyboard-response,26
true,7,0,3,0,true,q,false,true,0.0-2.0-0.35-0.320-3.320,1,0,0,81,false,stim,false,2,755.589999999851,0,0,1,50706,WMM1,9319534,false,false,1064,image-keyboard-response,27
true,7,2,3,0,false,q,false,false,0.0-2.0-0.35-0.321-3.321,1,0,0,68,false,stim,true,2,583.644999999553,0,0,1,50706,WMM1,9321630,false,false,1067,image-keyboard-response,28
true,7,1,3,1,true,z,false,true,0.0-2.0-0.35-0.322-3.322,1,0,0,90,false,stim,false,0,497.34500000067055,0,0,2,50706,WMM1,9323641,false,false,1070,image-keyboard-response,29
true,7,0,3,1,false,z,true,false,0.0-2.0-0.35-0.323-3.323,1,0,0,81,false,stim,false,1,962.3699999991804,0,1,0,50706,WMM1,9326118,false,false,1073,image-keyboard-response,30
true,7,2,3,1,false,z,true,true,0.0-2.0-0.36-0.324-3.324,1,0,0,68,false,stim,false,1,550.8850000016391,0,1,0,50706,WMM1,9328181,false,true,1076,image-keyboard-response,31
true,7,0,3,0,true,q,false,true,0.0-2.0-0.36-0.325-3.325,1,0,0,81,false,stim,false,2,1040.219999998808,0,0,1,50706,WMM1,9330733,false,false,1079,image-keyboard-response,32
true,7,2,3,1,false,z,true,false,0.0-2.0-0.36-0.326-3.326,1,0,0,68,false,stim,false,1,1055.5549999978393,0,1,0,50706,WMM1,9333302,false,false,1082,image-keyboard-response,33
true,7,1,3,0,false,q,true,false,0.0-2.0-0.36-0.327-3.327,1,0,0,90,false,stim,false,2,393.09999999962747,0,0,1,50706,WMM1,9335209,false,false,1085,image-keyboard-response,34
true,7,0,3,1,false,z,false,false,0.0-2.0-0.36-0.328-3.328,1,0,0,81,false,stim,true,0,914.484999999404,0,0,2,50706,WMM1,9337637,false,false,1088,image-keyboard-response,35
true,7,2,3,1,false,z,true,false,0.0-2.0-0.36-0.329-3.329,1,0,0,68,false,stim,false,0,1989.125,0,0,2,50706,WMM1,9341141,false,false,1091,image-keyboard-response,36
true,7,1,3,0,false,q,true,false,0.0-2.0-0.36-0.330-3.330,1,0,0,90,false,stim,false,2,311.64000000059605,0,0,1,50706,WMM1,9342966,false,false,1094,image-keyboard-response,37
true,7,0,3,1,false,z,false,false,0.0-2.0-0.36-0.331-3.331,1,0,0,81,false,stim,true,0,572.3299999982119,0,0,2,50706,WMM1,9345053,false,false,1097,image-keyboard-response,38
true,7,1,3,1,true,z,false,true,0.0-2.0-0.36-0.332-3.332,1,0,0,90,false,stim,false,1,817.3099999986589,0,1,0,50706,WMM1,9347384,false,false,1100,image-keyboard-response,39
true,7,1,3,1,true,z,false,true,0.0-2.0-0.37-0.333-3.333,1,0,0,90,false,stim,false,1,658.890000000596,0,1,0,50706,WMM1,9349573,false,false,1103,image-keyboard-response,40
true,7,2,3,0,false,q,false,false,0.0-2.0-0.37-0.334-3.334,1,0,0,68,false,stim,true,2,838.6849999986589,0,0,1,50706,WMM1,9351924,false,false,1106,image-keyboard-response,41
true,7,0,3,0,true,q,false,false,0.0-2.0-0.37-0.335-3.335,1,0,0,81,false,stim,false,2,422.76999999955297,0,0,1,50706,WMM1,9353860,false,true,1109,image-keyboard-response,42
true,7,1,3,1,true,z,false,true,0.0-2.0-0.37-0.336-3.336,1,0,0,90,false,stim,false,0,590.679999999702,0,0,2,50706,WMM1,9355964,false,false,1112,image-keyboard-response,43
true,7,2,3,1,false,z,true,false,0.0-2.0-0.37-0.337-3.337,1,0,0,68,false,stim,false,1,554.320000000298,0,1,0,50706,WMM1,9358031,false,false,1115,image-keyboard-response,44
true,7,0,3,0,true,q,false,true,0.0-2.0-0.37-0.338-3.338,1,0,0,81,false,stim,false,2,746.4749999996275,0,0,1,50706,WMM1,9360292,false,false,1118,image-keyboard-response,45
true,7,2,3,1,false,z,true,false,0.0-2.0-0.37-0.339-3.339,1,0,0,68,false,stim,false,0,574.9699999988079,0,0,2,50706,WMM1,9362380,false,false,1121,image-keyboard-response,46
true,7,0,3,1,false,z,true,false,0.0-2.0-0.37-0.340-3.340,1,0,0,81,false,stim,false,1,605.9749999996275,0,1,0,50706,WMM1,9364500,false,false,1124,image-keyboard-response,47
true,7,2,3,1,false,z,true,false,0.0-2.0-0.37-0.341-3.341,1,0,0,68,false,stim,false,0,604.7399999983609,0,0,2,50706,WMM1,9366620,false,false,1127,image-keyboard-response,48
true,7,1,3,0,false,q,true,false,0.0-2.0-0.38-0.342-3.342,1,0,0,90,false,stim,false,2,513.9550000000745,0,0,1,50706,WMM1,9368647,false,false,1130,image-keyboard-response,49
true,7,0,3,0,true,q,false,true,0.0-2.0-0.38-0.343-3.343,1,0,0,81,false,stim,false,2,772.125,0,0,1,50706,WMM1,9370933,false,false,1133,image-keyboard-response,50
true,7,2,3,1,false,z,true,false,0.0-2.0-0.38-0.344-3.344,1,0,0,68,false,stim,false,0,844.4399999994785,0,0,2,50706,WMM1,9373292,false,false,1136,image-keyboard-response,51
true,7,2,3,1,false,z,true,false,0.0-2.0-0.38-0.345-3.345,1,0,0,68,false,stim,false,1,769.5050000008196,0,0,0,50706,WMM1,9375572,false,false,1139,image-keyboard-response,52
true,7,1,3,1,true,z,false,false,0.0-2.0-0.38-0.346-3.346,1,0,0,90,false,stim,false,0,602.5900000017136,0,0,2,50706,WMM1,9377683,false,true,1142,image-keyboard-response,53
true,7,0,3,1,false,z,false,false,0.0-2.0-0.38-0.347-3.347,1,0,0,81,false,stim,true,0,606.5599999967963,0,0,2,50706,WMM1,9379798,false,false,1145,image-keyboard-response,54
true,7,1,3,0,false,q,true,false,0.0-2.0-0.38-0.348-3.348,1,0,0,90,false,stim,false,2,1063.190000001341,0,0,1,50706,WMM1,9382371,false,false,1148,image-keyboard-response,55
true,7,1,3,1,true,z,false,true,0.0-2.0-0.38-0.349-3.349,1,0,0,90,false,stim,false,1,1005.5300000011921,0,0,0,50706,WMM1,9384883,false,false,1151,image-keyboard-response,56
true,7,1,3,1,true,z,false,true,0.0-2.0-0.38-0.350-3.350,1,0,0,90,false,stim,false,1,393.41000000201166,0,0,0,50706,WMM1,9386786,false,false,1154,image-keyboard-response,57
true,7,1,3,1,true,z,false,true,0.0-2.0-0.39-0.351-3.351,1,0,0,90,false,stim,false,1,418.68500000052154,0,0,0,50706,WMM1,9388714,false,false,1157,image-keyboard-response,58
true,7,0,3,0,true,q,false,true,0.0-2.0-0.39-0.352-3.352,1,0,0,81,false,stim,false,2,606.0949999988079,0,0,1,50706,WMM1,9390830,false,false,1160,image-keyboard-response,59
true,7,2,3,1,false,z,true,false,0.0-2.0-0.39-0.353-3.353,1,0,0,68,false,stim,false,0,614.4500000011176,0,0,2,50706,WMM1,9392954,false,false,1163,image-keyboard-response,60
true,8,0,1,2,false,d,true,false,0.0-2.0-0.39-0.354-3.354,0,0,0,81,true,stim,false,1,682.3050000015646,0,0,2,50706,WMM1,9395146,false,false,1166,image-keyboard-response,1
true,8,0,1,1,false,z,false,false,0.0-2.0-0.39-0.355-3.355,0,0,0,81,false,stim,true,0,761.179999999702,0,0,1,50706,WMM1,9397418,false,false,1169,image-keyboard-response,2
true,8,1,1,1,true,z,false,false,0.0-2.0-0.39-0.356-3.356,0,0,0,90,false,stim,false,0,545.2599999997765,0,0,1,50706,WMM1,9399474,false,true,1172,image-keyboard-response,3
true,8,1,1,2,false,d,false,false,0.0-2.0-0.39-0.357-3.357,0,0,0,90,false,stim,true,1,693.160000000149,0,0,2,50706,WMM1,9401677,false,false,1175,image-keyboard-response,4
true,8,2,1,2,true,d,false,true,0.0-2.0-0.39-0.358-3.358,0,0,0,68,false,stim,false,1,606.6500000003725,0,0,0,50706,WMM1,9403794,false,false,1178,image-keyboard-response,5
true,8,2,1,2,true,d,false,true,0.0-2.0-0.39-0.359-3.359,0,0,0,68,false,stim,false,1,353.76999999955297,0,0,0,50706,WMM1,9405657,false,false,1181,image-keyboard-response,6
true,8,2,1,2,true,d,false,false,0.0-2.0-0.40-0.360-3.360,0,0,0,68,false,stim,false,1,442.6000000014901,0,0,0,50706,WMM1,9407609,false,true,1184,image-keyboard-response,7
true,8,1,1,2,false,d,false,false,0.0-2.0-0.40-0.361-3.361,0,0,0,90,false,stim,true,1,562.1600000020117,0,0,2,50706,WMM1,9409681,false,false,1187,image-keyboard-response,8
true,8,2,1,2,true,d,false,true,0.0-2.0-0.40-0.362-3.362,0,0,0,68,false,stim,false,1,693.8699999991804,0,0,0,50706,WMM1,9411884,false,false,1190,image-keyboard-response,9
true,8,0,1,1,false,z,false,false,0.0-2.0-0.40-0.363-3.363,0,0,0,81,false,stim,true,0,518.144999999553,0,0,1,50706,WMM1,9413913,false,false,1193,image-keyboard-response,10
true,8,1,1,1,true,z,false,true,0.0-2.0-0.40-0.364-3.364,0,0,0,90,false,stim,false,0,570.2899999991059,0,0,1,50706,WMM1,9415993,false,false,1196,image-keyboard-response,11
true,8,1,1,1,true,z,false,true,0.0-2.0-0.40-0.365-3.365,0,0,0,90,false,stim,false,0,593.9749999996275,0,0,1,50706,WMM1,9418096,false,false,1199,image-keyboard-response,12
true,8,2,1,2,true,d,false,true,0.0-2.0-0.40-0.366-3.366,0,0,0,68,false,stim,false,1,732.9149999991059,0,0,2,50706,WMM1,9420352,false,false,1202,image-keyboard-response,13
true,8,1,1,2,false,d,false,false,0.0-2.0-0.40-0.367-3.367,0,0,0,90,false,stim,true,1,598.3699999991804,0,0,0,50706,WMM1,9422572,false,false,1205,image-keyboard-response,14
true,8,2,1,2,true,d,false,true,0.0-2.0-0.40-0.368-3.368,0,0,0,68,false,stim,false,1,456.2400000002235,0,0,2,50706,WMM1,9424538,false,false,1208,image-keyboard-response,15
true,8,2,1,2,true,d,false,true,0.0-2.0-0.41-0.369-3.369,0,0,0,68,false,stim,false,1,488.53999999910593,0,0,2,50706,WMM1,9426536,false,false,1211,image-keyboard-response,16
true,8,1,1,2,false,d,false,true,0.0-2.0-0.41-0.370-3.370,0,0,0,90,false,stim,true,1,346.410000000149,0,0,0,50706,WMM1,9428392,false,true,1214,image-keyboard-response,17
true,8,0,1,1,false,z,false,true,0.0-2.0-0.41-0.371-3.371,0,0,0,81,false,stim,true,0,401.25500000081956,0,0,1,50706,WMM1,9430304,false,true,1217,image-keyboard-response,18
true,8,2,1,2,true,d,false,true,0.0-2.0-0.41-0.372-3.372,0,0,0,68,false,stim,false,1,402.5650000013411,0,0,0,50706,WMM1,9432216,false,false,1220,image-keyboard-response,19
true,8,0,1,1,false,z,false,false,0.0-2.0-0.41-0.373-3.373,0,0,0,81,false,stim,true,0,693.4000000003725,0,0,1,50706,WMM1,9434419,false,false,1223,image-keyboard-response,20
true,8,0,1,2,false,d,true,false,0.0-2.0-0.41-0.374-3.374,0,0,0,81,false,stim,false,1,1108.2949999999255,0,0,2,50706,WMM1,9437039,false,false,1226,image-keyboard-response,21
true,8,2,1,1,false,z,true,false,0.0-2.0-0.41-0.375-3.375,0,0,0,68,false,stim,false,0,854.0149999987334,0,0,1,50706,WMM1,9439407,false,false,1229,image-keyboard-response,22
true,8,2,1,2,true,d,false,true,0.0-2.0-0.41-0.376-3.376,0,0,0,68,false,stim,false,1,1052.219999998808,0,0,0,50706,WMM1,9441975,false,false,1232,image-keyboard-response,23
true,8,0,1,2,false,d,true,true,0.0-2.0-0.41-0.377-3.377,0,0,0,81,false,stim,false,1,622.8099999986589,0,0,2,50706,WMM1,9444111,false,true,1235,image-keyboard-response,24
true,8,0,1,2,false,d,true,false,0.0-2.0-0.42-0.378-3.378,0,0,0,81,false,stim,false,1,642.105000000447,0,0,2,50706,WMM1,9446266,false,false,1238,image-keyboard-response,25
true,8,1,1,1,true,z,false,false,0.0-2.0-0.42-0.379-3.379,0,0,0,90,false,stim,false,0,609.804999999702,0,0,1,50706,WMM1,9448391,false,true,1241,image-keyboard-response,26
true,8,0,1,1,false,z,false,false,0.0-2.0-0.42-0.380-3.380,0,0,0,81,false,stim,true,0,790.3650000002235,0,0,1,50706,WMM1,9450695,false,false,1244,image-keyboard-response,27
true,8,2,1,2,true,d,false,true,0.0-2.0-0.42-0.381-3.381,0,0,0,68,false,stim,false,1,669.7450000010431,0,0,0,50706,WMM1,9452878,false,false,1247,image-keyboard-response,28
true,8,2,1,2,true,d,false,true,0.0-2.0-0.42-0.382-3.382,0,0,0,68,false,stim,false,1,701.8449999988079,0,0,0,50706,WMM1,9455094,false,false,1250,image-keyboard-response,29
true,8,1,1,1,true,z,false,true,0.0-2.0-0.42-0.383-3.383,0,0,0,90,false,stim,false,0,960.1350000016391,0,0,1,50706,WMM1,9457570,false,false,1253,image-keyboard-response,30
true,8,0,1,2,false,d,true,false,0.0-2.0-0.42-0.384-3.384,0,0,0,81,false,stim,false,1,913.2799999993294,0,0,2,50706,WMM1,9459998,false,false,1256,image-keyboard-response,31
true,8,2,1,2,true,d,false,true,0.0-2.0-0.42-0.385-3.385,0,0,0,68,false,stim,false,1,533.320000000298,0,0,2,50706,WMM1,9462046,false,false,1259,image-keyboard-response,32
true,8,1,1,2,false,d,false,false,0.0-2.0-0.42-0.386-3.386,0,0,0,90,false,stim,true,1,750.2050000000745,0,0,0,50706,WMM1,9464310,false,false,1262,image-keyboard-response,33
true,8,2,1,2,true,d,false,true,0.0-2.0-0.43-0.387-3.387,0,0,0,68,false,stim,false,1,661.5800000000745,0,0,2,50706,WMM1,9466485,false,false,1265,image-keyboard-response,34
true,8,2,1,2,true,d,false,true,0.0-2.0-0.43-0.388-3.388,0,0,0,68,false,stim,false,1,621.6500000022352,0,0,0,50706,WMM1,9468617,false,false,1268,image-keyboard-response,35
true,8,2,1,2,true,d,false,true,0.0-2.0-0.43-0.389-3.389,0,0,0,68,false,stim,false,1,443.875,0,0,0,50706,WMM1,9470573,false,false,1271,image-keyboard-response,36
true,8,2,1,2,true,d,false,false,0.0-2.0-0.43-0.390-3.390,0,0,0,68,false,stim,false,1,484.785000000149,0,0,2,50706,WMM1,9472573,false,true,1274,image-keyboard-response,37
true,8,2,1,2,true,d,false,true,0.0-2.0-0.43-0.391-3.391,0,0,0,68,false,stim,false,1,382.9900000002235,0,0,2,50706,WMM1,9474469,false,false,1277,image-keyboard-response,38
true,8,2,1,1,false,z,true,false,0.0-2.0-0.43-0.392-3.392,0,0,0,68,false,stim,false,0,518.1699999999255,0,0,1,50706,WMM1,9476503,false,false,1280,image-keyboard-response,39
true,8,2,1,2,true,d,false,true,0.0-2.0-0.43-0.393-3.393,0,0,0,68,false,stim,false,1,1007.429999999702,0,0,0,50706,WMM1,9479025,false,false,1283,image-keyboard-response,40
true,8,2,1,1,false,z,true,false,0.0-2.0-0.43-0.394-3.394,0,0,0,68,false,stim,false,0,633.3399999979883,0,0,1,50706,WMM1,9481173,false,false,1286,image-keyboard-response,41
true,8,2,1,1,false,z,true,false,0.0-2.0-0.43-0.395-3.395,0,0,0,68,false,stim,false,0,622.179999999702,0,0,1,50706,WMM1,9483309,false,false,1289,image-keyboard-response,42
true,8,2,1,1,false,z,true,false,0.0-2.0-0.44-0.396-3.396,0,0,0,68,false,stim,false,0,285.14000000059605,0,0,1,50706,WMM1,9485109,false,false,1292,image-keyboard-response,43
true,8,1,1,2,false,d,false,false,0.0-2.0-0.44-0.397-3.397,0,0,0,90,false,stim,true,1,677.9199999999255,0,0,2,50706,WMM1,9487300,false,false,1295,image-keyboard-response,44
true,8,0,1,2,false,d,true,true,0.0-2.0-0.44-0.398-3.398,0,0,0,81,false,stim,false,1,393.1450000014156,0,0,0,50706,WMM1,9489208,false,true,1298,image-keyboard-response,45
true,8,0,1,1,false,z,false,false,0.0-2.0-0.44-0.399-3.399,0,0,0,81,false,stim,true,0,561.6100000012666,0,0,1,50706,WMM1,9491300,false,false,1301,image-keyboard-response,46
true,8,2,1,1,false,z,true,false,0.0-2.0-0.44-0.400-3.400,0,0,0,68,false,stim,false,0,630.8699999991804,0,0,1,50706,WMM1,9493444,false,false,1304,image-keyboard-response,47
true,8,1,1,2,false,d,false,false,0.0-2.0-0.44-0.401-3.401,0,0,0,90,false,stim,true,1,275.6349999997765,0,0,2,50706,WMM1,9495236,false,false,1307,image-keyboard-response,48
true,8,2,1,2,true,d,false,true,0.0-2.0-0.44-0.402-3.402,0,0,0,68,false,stim,false,1,462.5449999999255,0,0,2,50706,WMM1,9497212,false,false,1310,image-keyboard-response,49
true,8,2,1,2,true,d,false,true,0.0-2.0-0.44-0.403-3.403,0,0,0,68,false,stim,false,1,623.7050000000745,0,0,0,50706,WMM1,9499351,false,false,1313,image-keyboard-response,50
true,8,2,1,2,true,d,false,true,0.0-2.0-0.44-0.404-3.404,0,0,0,68,false,stim,false,1,602.1500000003725,0,0,0,50706,WMM1,9501468,false,false,1316,image-keyboard-response,51
true,8,0,1,1,false,z,false,false,0.0-2.0-0.45-0.405-3.405,0,0,0,81,false,stim,true,0,513.0749999992549,0,0,1,50706,WMM1,9503492,false,false,1319,image-keyboard-response,52
true,8,1,1,2,false,d,false,false,0.0-2.0-0.45-0.406-3.406,0,0,0,90,false,stim,true,1,298.1349999997765,0,0,0,50706,WMM1,9505299,false,false,1322,image-keyboard-response,53
true,8,2,1,2,true,d,false,true,0.0-2.0-0.45-0.407-3.407,0,0,0,68,false,stim,false,1,386.0800000000745,0,0,2,50706,WMM1,9507195,false,false,1325,image-keyboard-response,54
true,8,2,1,2,true,d,false,true,0.0-2.0-0.45-0.408-3.408,0,0,0,68,false,stim,false,1,425.8650000002235,0,0,0,50706,WMM1,9509131,false,false,1328,image-keyboard-response,55
true,8,2,1,2,true,d,false,true,0.0-2.0-0.45-0.409-3.409,0,0,0,68,false,stim,false,1,413.03999999910593,0,0,0,50706,WMM1,9511055,false,false,1331,image-keyboard-response,56
true,8,0,1,2,false,d,true,true,0.0-2.0-0.45-0.410-3.410,0,0,0,81,false,stim,false,1,726.4550000000745,0,0,2,50706,WMM1,9513291,false,true,1334,image-keyboard-response,57
true,8,0,1,1,false,z,false,false,0.0-2.0-0.45-0.411-3.411,0,0,0,81,false,stim,true,0,506.5149999987334,0,0,1,50706,WMM1,9515307,false,false,1337,image-keyboard-response,58
true,8,2,1,2,true,d,false,false,0.0-2.0-0.45-0.412-3.412,0,0,0,68,false,stim,false,1,1042.410000000149,0,0,2,50706,WMM1,9517859,false,true,1340,image-keyboard-response,59
true,8,1,1,1,true,z,false,true,0.0-2.0-0.45-0.413-3.413,0,0,0,90,false,stim,false,0,615.8650000002235,0,0,1,50706,WMM1,9519987,false,false,1343,image-keyboard-response,60
true,9,2,2,1,false,z,false,false,0.0-2.0-0.46-0.414-3.414,0,0,0,68,true,stim,true,2,588.140000000596,0,0,0,50706,WMM1,9522086,false,false,1346,image-keyboard-response,1
true,9,0,2,2,false,d,true,false,0.0-2.0-0.46-0.415-3.415,0,0,0,81,false,stim,false,1,310.9850000012666,0,0,1,50706,WMM1,9523906,false,false,1349,image-keyboard-response,2
true,9,2,2,2,true,d,false,false,0.0-2.0-0.46-0.416-3.416,0,0,0,68,false,stim,false,1,393.8549999985844,0,0,1,50706,WMM1,9525810,false,true,1352,image-keyboard-response,3
true,9,1,2,0,false,q,true,false,0.0-2.0-0.46-0.417-3.417,0,0,0,90,false,stim,false,2,433.9499999973923,0,0,2,50706,WMM1,9527754,false,false,1355,image-keyboard-response,4
true,9,0,2,2,false,d,true,false,0.0-2.0-0.46-0.418-3.418,0,0,0,81,false,stim,false,1,258.8500000014901,0,0,1,50706,WMM1,9529522,false,false,1358,image-keyboard-response,5
true,9,2,2,1,false,z,false,false,0.0-2.0-0.46-0.419-3.419,0,0,0,68,false,stim,true,2,291.2400000002235,0,0,0,50706,WMM1,9531324,false,false,1361,image-keyboard-response,6
true,9,1,2,1,true,z,false,true,0.0-2.0-0.46-0.420-3.420,0,0,0,90,false,stim,false,2,395.6049999985844,0,0,0,50706,WMM1,9533229,false,false,1364,image-keyboard-response,7
true,9,2,2,0,false,q,false,false,0.0-2.0-0.46-0.421-3.421,0,0,0,68,false,stim,true,2,342.53999999910593,0,0,2,50706,WMM1,9535082,false,false,1367,image-keyboard-response,8
false,9,-1,2,0,false,q,true,false,0.0-2.0-0.46-0.422-3.422,0,0,0,,false,stim,false,2,,0,0,2,50706,WMM1,9539592,false,false,1370,image-keyboard-response,9
true,9,0,2,1,false,z,true,false,0.0-2.0-0.47-0.423-3.423,0,0,0,81,false,stim,false,2,1897.9749999996275,0,0,0,50706,WMM1,9543001,false,false,1373,image-keyboard-response,10
true,9,2,2,2,true,d,false,false,0.0-2.0-0.47-0.424-3.424,0,0,0,68,false,stim,false,1,661.105000000447,0,0,1,50706,WMM1,9545172,false,true,1376,image-keyboard-response,11
true,9,1,2,2,false,d,false,false,0.0-2.0-0.47-0.425-3.425,0,0,0,90,false,stim,true,1,1542.769999999553,0,0,1,50706,WMM1,9548225,false,false,1379,image-keyboard-response,12
true,9,2,2,1,false,z,false,true,0.0-2.0-0.47-0.426-3.426,0,0,0,68,false,stim,true,2,1401.4550000000745,0,0,0,50706,WMM1,9551137,false,true,1382,image-keyboard-response,13
true,9,2,2,0,false,q,false,true,0.0-2.0-0.47-0.427-3.427,0,0,0,68,false,stim,true,2,1785.9650000017136,0,0,2,50706,WMM1,9554433,false,true,1385,image-keyboard-response,14
true,9,0,2,0,true,q,false,true,0.0-2.0-0.47-0.428-3.428,0,0,0,81,false,stim,false,2,1251.0050000008196,0,0,2,50706,WMM1,9557196,false,false,1388,image-keyboard-response,15
true,9,2,2,1,false,z,false,false,0.0-2.0-0.47-0.429-3.429,0,0,0,68,false,stim,true,2,1358.809999998659,0,0,0,50706,WMM1,9560064,false,false,1391,image-keyboard-response,16
true,9,2,2,0,false,q,false,false,0.0-2.0-0.47-0.430-3.430,0,0,0,68,false,stim,true,2,528.4949999973178,0,0,2,50706,WMM1,9562104,false,false,1394,image-keyboard-response,17
true,9,0,2,2,false,d,true,false,0.0-2.0-0.47-0.431-3.431,0,0,0,81,false,stim,false,1,673.7249999996275,0,0,1,50706,WMM1,9564288,false,false,1397,image-keyboard-response,18
true,9,1,2,0,false,q,true,false,0.0-2.0-0.48-0.432-3.432,0,0,0,90,false,stim,false,2,1167.4499999973923,0,0,2,50706,WMM1,9566968,false,false,1400,image-keyboard-response,19
false,9,-1,2,2,false,d,true,false,0.0-2.0-0.48-0.433-3.433,0,0,0,,false,stim,false,1,,0,0,1,50706,WMM1,9571499,false,false,1403,image-keyboard-response,20
true,9,0,2,0,true,q,false,true,0.0-2.0-0.48-0.434-3.434,0,0,0,81,false,stim,false,2,832.0250000003725,0,0,2,50706,WMM1,9573848,false,false,1406,image-keyboard-response,21
true,9,2,2,2,true,d,false,true,0.0-2.0-0.48-0.435-3.435,0,0,0,68,false,stim,false,1,829.890000000596,0,0,1,50706,WMM1,9576191,false,false,1409,image-keyboard-response,22
true,9,2,2,2,true,d,false,true,0.0-2.0-0.48-0.436-3.436,0,0,0,68,false,stim,false,1,526.4149999991059,0,0,1,50706,WMM1,9578233,false,false,1412,image-keyboard-response,23
true,9,2,2,1,false,z,false,false,0.0-2.0-0.48-0.437-3.437,0,0,0,68,false,stim,true,2,547.6649999991059,0,0,0,50706,WMM1,9580295,false,false,1415,image-keyboard-response,24
true,9,1,2,1,true,z,false,false,0.0-2.0-0.48-0.438-3.438,0,0,0,90,false,stim,false,2,397.82999999821186,0,0,0,50706,WMM1,9582211,false,true,1418,image-keyboard-response,25
true,9,0,2,1,false,z,true,false,0.0-2.0-0.48-0.439-3.439,0,0,0,81,false,stim,false,2,320.660000000149,0,0,0,50706,WMM1,9584047,false,false,1421,image-keyboard-response,26
true,9,2,2,0,false,q,false,false,0.0-2.0-0.48-0.440-3.440,0,0,0,68,false,stim,true,2,388.6399999987334,0,0,2,50706,WMM1,9585951,false,false,1424,image-keyboard-response,27
true,9,1,2,2,false,d,false,false,0.0-2.0-0.49-0.441-3.441,0,0,0,90,false,stim,true,1,317.4199999999255,0,0,1,50706,WMM1,9587783,false,false,1427,image-keyboard-response,28
true,9,0,2,0,true,q,false,true,0.0-2.0-0.49-0.442-3.442,0,0,0,81,false,stim,false,2,852.304999999702,0,0,2,50706,WMM1,9590151,false,false,1430,image-keyboard-response,29
true,9,2,2,1,false,z,false,false,0.0-2.0-0.49-0.443-3.443,0,0,0,68,false,stim,true,2,1408.2649999987334,0,0,0,50706,WMM1,9593074,false,false,1433,image-keyboard-response,30
true,9,0,2,1,false,z,true,false,0.0-2.0-0.49-0.444-3.444,0,0,0,81,false,stim,false,2,625.2800000011921,0,0,0,50706,WMM1,9595214,false,false,1436,image-keyboard-response,31
true,9,2,2,2,true,d,false,true,0.0-2.0-0.49-0.445-3.445,0,0,0,68,false,stim,false,1,1069.8450000006706,0,0,1,50706,WMM1,9597798,false,false,1439,image-keyboard-response,32
true,9,2,2,1,false,z,false,true,0.0-2.0-0.49-0.446-3.446,0,0,0,68,false,stim,true,2,436.60500000044703,0,0,0,50706,WMM1,9599750,false,true,1442,image-keyboard-response,33
true,9,2,2,2,true,d,false,true,0.0-2.0-0.49-0.447-3.447,0,0,0,68,false,stim,false,1,365.7600000016391,0,0,1,50706,WMM1,9601630,false,false,1445,image-keyboard-response,34
true,9,2,2,0,false,q,false,false,0.0-2.0-0.49-0.448-3.448,0,0,0,68,false,stim,true,2,375.6550000011921,0,0,2,50706,WMM1,9603521,false,false,1448,image-keyboard-response,35
true,9,1,2,0,false,q,true,true,0.0-2.0-0.49-0.449-3.449,0,0,0,90,false,stim,false,2,474.31499999947846,0,0,2,50706,WMM1,9605510,false,true,1451,image-keyboard-response,36
true,9,1,2,0,false,q,true,false,0.0-2.0-0.50-0.450-3.450,0,0,0,90,false,stim,false,2,483.3899999987334,0,0,2,50706,WMM1,9607510,false,false,1454,image-keyboard-response,37
true,9,2,2,2,true,d,false,true,0.0-2.0-0.50-0.451-3.451,0,0,0,68,false,stim,false,1,356.8799999989569,0,0,1,50706,WMM1,9609382,false,false,1457,image-keyboard-response,38
true,9,2,2,0,false,q,false,false,0.0-2.0-0.50-0.452-3.452,0,0,0,68,false,stim,true,2,491.72499999962747,0,0,2,50706,WMM1,9611389,false,false,1460,image-keyboard-response,39
true,9,0,2,0,true,q,false,true,0.0-2.0-0.50-0.453-3.453,0,0,0,81,false,stim,false,2,509.785000000149,0,0,2,50706,WMM1,9613413,false,false,1463,image-keyboard-response,40
true,9,2,2,1,false,z,false,true,0.0-2.0-0.50-0.454-3.454,0,0,0,68,false,stim,true,2,263.3700000010431,0,0,0,50706,WMM1,9615193,false,true,1466,image-keyboard-response,41
true,9,2,2,1,false,z,false,false,0.0-2.0-0.50-0.455-3.455,0,0,0,68,false,stim,true,2,483.35999999940395,0,0,0,50706,WMM1,9617191,false,false,1469,image-keyboard-response,42
true,9,1,2,2,false,d,false,true,0.0-2.0-0.50-0.456-3.456,0,0,0,90,false,stim,true,1,284.35500000044703,0,0,1,50706,WMM1,9618989,false,true,1472,image-keyboard-response,43
true,9,0,2,2,false,d,true,false,0.0-2.0-0.50-0.457-3.457,0,0,0,81,false,stim,false,1,429.3850000016391,0,0,1,50706,WMM1,9620933,false,false,1475,image-keyboard-response,44
true,9,1,2,1,true,z,false,true,0.0-2.0-0.50-0.458-3.458,0,0,0,90,false,stim,false,2,300.16499999910593,0,0,0,50706,WMM1,9622749,false,false,1478,image-keyboard-response,45
true,9,1,2,2,false,d,false,false,0.0-2.0-0.51-0.459-3.459,0,0,0,90,false,stim,true,1,324.1450000014156,0,0,1,50706,WMM1,9624589,false,false,1481,image-keyboard-response,46
true,9,2,2,0,false,q,false,true,0.0-2.0-0.51-0.460-3.460,0,0,0,68,false,stim,true,2,842.3250000029802,0,0,2,50706,WMM1,9626947,false,true,1484,image-keyboard-response,47
true,9,2,2,2,true,d,false,true,0.0-2.0-0.51-0.461-3.461,0,0,0,68,false,stim,false,1,422.7250000014901,0,0,1,50706,WMM1,9628886,false,false,1487,image-keyboard-response,48
true,9,2,2,1,false,z,false,false,0.0-2.0-0.51-0.462-3.462,0,0,0,68,false,stim,true,2,537.6650000009686,0,0,0,50706,WMM1,9630940,false,false,1490,image-keyboard-response,49
true,9,1,2,0,false,q,true,false,0.0-2.0-0.51-0.463-3.463,0,0,0,90,false,stim,false,2,312.68500000052154,0,0,2,50706,WMM1,9632764,false,false,1493,image-keyboard-response,50
true,9,0,2,0,true,q,false,true,0.0-2.0-0.51-0.464-3.464,0,0,0,81,false,stim,false,2,397.22499999962747,0,1,2,50706,WMM1,9634677,false,false,1496,image-keyboard-response,51
true,9,2,2,1,false,z,false,false,0.0-2.0-0.51-0.465-3.465,0,0,0,68,false,stim,true,2,869.0050000008196,0,0,0,50706,WMM1,9637055,false,false,1499,image-keyboard-response,52
true,9,0,2,2,false,d,true,false,0.0-2.0-0.51-0.466-3.466,0,0,0,81,false,stim,false,1,381.26999999955297,0,0,1,50706,WMM1,9638964,false,false,1502,image-keyboard-response,53
true,9,1,2,1,true,z,false,true,0.0-2.0-0.51-0.467-3.467,0,0,0,90,false,stim,false,2,569.3800000008196,0,0,0,50706,WMM1,9641044,false,false,1505,image-keyboard-response,54
true,9,1,2,2,false,d,false,false,0.0-2.0-0.52-0.468-3.468,0,0,0,90,false,stim,true,1,1193.410000000149,0,0,1,50706,WMM1,9643748,false,false,1508,image-keyboard-response,55
true,9,2,2,0,false,q,false,false,0.0-2.0-0.52-0.469-3.469,0,0,0,68,false,stim,true,2,778.0850000008941,0,1,2,50706,WMM1,9646037,false,false,1511,image-keyboard-response,56
true,9,0,2,0,true,q,false,true,0.0-2.0-0.52-0.470-3.470,0,0,0,81,false,stim,false,2,387.9850000012666,0,1,2,50706,WMM1,9647935,false,false,1514,image-keyboard-response,57
true,9,2,2,2,true,d,false,true,0.0-2.0-0.52-0.471-3.471,0,0,0,68,false,stim,false,1,374.83999999798834,0,0,1,50706,WMM1,9649819,false,false,1517,image-keyboard-response,58
true,9,0,2,1,false,z,true,false,0.0-2.0-0.52-0.472-3.472,0,0,0,81,false,stim,false,2,608.7350000012666,0,0,0,50706,WMM1,9651939,false,false,1520,image-keyboard-response,59
true,9,2,2,1,false,z,false,false,0.0-2.0-0.52-0.473-3.473,0,0,0,68,false,stim,true,2,434.4550000000745,0,0,0,50706,WMM1,9653883,false,false,1523,image-keyboard-response,60
true,10,1,3,1,true,z,false,true,0.0-2.0-0.52-0.474-3.474,0,0,1,90,true,stim,false,2,659.570000000298,0,0,1,50706,WMM1,9656051,false,false,1526,image-keyboard-response,1
true,10,2,3,2,true,d,false,true,0.0-2.0-0.52-0.475-3.475,0,0,1,68,false,stim,false,1,524.6599999982864,0,0,0,50706,WMM1,9658086,false,false,1529,image-keyboard-response,2
true,10,2,3,0,false,q,true,false,0.0-2.0-0.52-0.476-3.476,0,0,1,68,false,stim,false,0,407.43999999947846,0,1,2,50706,WMM1,9660003,false,false,1532,image-keyboard-response,3
true,10,1,3,2,false,d,false,false,0.0-2.0-0.53-0.477-3.477,0,0,1,90,false,stim,true,1,537.0750000011176,0,0,0,50706,WMM1,9662051,false,false,1535,image-keyboard-response,4
true,10,0,3,1,false,z,true,false,0.0-2.0-0.53-0.478-3.478,0,0,1,81,false,stim,false,2,330.0100000016391,0,0,1,50706,WMM1,9663891,false,false,1538,image-keyboard-response,5
true,10,2,3,0,false,q,true,false,0.0-2.0-0.53-0.479-3.479,0,0,1,68,false,stim,false,0,176.80000000074506,0,1,2,50706,WMM1,9665578,false,false,1541,image-keyboard-response,6
true,10,1,3,1,true,z,false,true,0.0-2.0-0.53-0.480-3.480,0,0,1,90,false,stim,false,2,281.7350000012666,0,0,1,50706,WMM1,9667370,false,false,1544,image-keyboard-response,7
true,10,1,3,0,false,q,true,false,0.0-2.0-0.53-0.481-3.481,0,0,1,90,false,stim,false,0,430.304999999702,0,1,2,50706,WMM1,9669310,false,false,1547,image-keyboard-response,8
true,10,2,3,1,false,z,false,false,0.0-2.0-0.53-0.482-3.482,0,0,1,68,false,stim,true,2,277.5849999990314,0,0,1,50706,WMM1,9671098,false,false,1550,image-keyboard-response,9
true,10,0,3,2,false,d,true,false,0.0-2.0-0.53-0.483-3.483,0,0,1,81,false,stim,false,1,458.73499999940395,0,0,0,50706,WMM1,9673066,false,false,1553,image-keyboard-response,10
true,10,2,3,0,false,q,true,false,0.0-2.0-0.53-0.484-3.484,0,0,1,68,false,stim,false,0,266.2350000012666,0,1,2,50706,WMM1,9674842,false,false,1556,image-keyboard-response,11
true,10,2,3,2,true,d,false,true,0.0-2.0-0.53-0.485-3.485,0,0,1,68,false,stim,false,1,609.394999999553,0,0,0,50706,WMM1,9676962,false,false,1559,image-keyboard-response,12
true,10,2,3,2,true,d,false,true,0.0-2.0-0.54-0.486-3.486,0,0,1,68,false,stim,false,1,227.20999999903142,0,0,0,50706,WMM1,9678698,false,false,1562,image-keyboard-response,13
true,10,2,3,1,false,z,false,false,0.0-2.0-0.54-0.487-3.487,0,0,1,68,false,stim,true,2,527.109999999404,0,0,1,50706,WMM1,9680733,false,false,1565,image-keyboard-response,14
true,10,0,3,1,false,z,true,false,0.0-2.0-0.54-0.488-3.488,0,0,1,81,false,stim,false,2,326.99499999918044,0,0,1,50706,WMM1,9682570,false,false,1568,image-keyboard-response,15
true,10,2,3,0,false,q,true,false,0.0-2.0-0.54-0.489-3.489,0,0,1,68,false,stim,false,0,601.8299999982119,0,1,2,50706,WMM1,9684681,false,false,1571,image-keyboard-response,16
true,10,1,3,1,true,z,false,true,0.0-2.0-0.54-0.490-3.490,0,0,1,90,false,stim,false,2,329.679999999702,0,0,1,50706,WMM1,9686521,false,false,1574,image-keyboard-response,17
true,10,1,3,0,false,q,true,false,0.0-2.0-0.54-0.491-3.491,0,0,1,90,false,stim,false,0,407.61999999918044,0,1,2,50706,WMM1,9688441,false,false,1577,image-keyboard-response,18
true,10,2,3,2,true,d,false,true,0.0-2.0-0.54-0.492-3.492,0,0,1,68,false,stim,false,1,289.35500000044703,0,0,0,50706,WMM1,9690241,false,false,1580,image-keyboard-response,19
true,10,0,3,0,true,q,false,true,0.0-2.0-0.54-0.493-3.493,0,0,1,81,false,stim,false,0,501.98499999940395,0,1,2,50706,WMM1,9692253,false,false,1583,image-keyboard-response,20
true,10,2,3,2,true,d,false,true,0.0-2.0-0.54-0.494-3.494,0,0,1,68,false,stim,false,1,433.2249999977648,0,0,0,50706,WMM1,9694201,false,false,1586,image-keyboard-response,21
true,10,2,3,2,true,d,false,true,0.0-2.0-0.55-0.495-3.495,0,0,1,68,false,stim,false,1,387.2400000002235,0,0,0,50706,WMM1,9696105,false,false,1589,image-keyboard-response,22
true,10,2,3,2,true,d,false,true,0.0-2.0-0.55-0.496-3.496,0,0,1,68,false,stim,false,1,412.33500000089407,0,0,0,50706,WMM1,9698033,false,false,1592,image-keyboard-response,23
true,10,0,3,0,true,q,false,true,0.0-2.0-0.55-0.497-3.497,0,0,1,81,false,stim,false,0,380.9300000015646,0,1,2,50706,WMM1,9699929,false,false,1595,image-keyboard-response,24
true,10,2,3,2,true,d,false,false,0.0-2.0-0.55-0.498-3.498,0,0,1,68,false,stim,false,1,414.40499999932945,0,0,0,50706,WMM1,9701857,false,true,1598,image-keyboard-response,25
true,10,1,3,1,true,z,false,true,0.0-2.0-0.55-0.499-3.499,0,0,1,90,false,stim,false,2,667.0400000009686,0,0,1,50706,WMM1,9704060,false,false,1601,image-keyboard-response,26
true,10,1,3,1,true,z,false,true,0.0-2.0-0.55-0.500-3.500,0,0,1,90,false,stim,false,2,536.7999999988824,0,0,1,50706,WMM1,9706112,false,false,1604,image-keyboard-response,27
true,10,2,3,0,false,q,true,false,0.0-2.0-0.55-0.501-3.501,0,0,1,68,false,stim,false,0,689.3400000017136,0,0,2,50706,WMM1,9708312,false,false,1607,image-keyboard-response,28
true,10,1,3,1,true,z,false,true,0.0-2.0-0.55-0.502-3.502,0,0,1,90,false,stim,false,2,625.3899999987334,0,0,1,50706,WMM1,9710448,false,false,1610,image-keyboard-response,29
true,10,0,3,0,true,q,false,true,0.0-2.0-0.55-0.503-3.503,0,0,1,81,false,stim,false,0,530.0800000000745,0,0,2,50706,WMM1,9712488,false,false,1613,image-keyboard-response,30
true,10,1,3,1,true,z,false,true,0.0-2.0-0.56-0.504-3.504,0,0,1,90,false,stim,false,2,635.3700000010431,0,0,1,50706,WMM1,9714635,false,false,1616,image-keyboard-response,31
true,10,2,3,2,true,d,false,true,0.0-2.0-0.56-0.505-3.505,0,0,1,68,false,stim,false,1,373.89499999955297,0,0,0,50706,WMM1,9716520,false,false,1619,image-keyboard-response,32
true,10,1,3,1,true,z,false,true,0.0-2.0-0.56-0.506-3.506,0,0,1,90,false,stim,false,2,408.8500000014901,0,0,1,50706,WMM1,9718439,false,false,1622,image-keyboard-response,33
true,10,0,3,0,true,q,false,true,0.0-2.0-0.56-0.507-3.507,0,0,1,81,false,stim,false,0,616.894999999553,0,0,2,50706,WMM1,9720568,false,false,1625,image-keyboard-response,34
true,10,2,3,2,true,d,false,true,0.0-2.0-0.56-0.508-3.508,0,0,1,68,false,stim,false,1,392.77500000037253,0,0,0,50706,WMM1,9722471,false,false,1628,image-keyboard-response,35
true,10,2,3,2,true,d,false,true,0.0-2.0-0.56-0.509-3.509,0,0,1,68,false,stim,false,1,559.4200000017881,0,0,0,50706,WMM1,9724543,false,false,1631,image-keyboard-response,36
true,11,0,1,1,false,z,false,false,0.0-2.0-0.56-0.510-3.510,0,0,0,81,true,stim,true,0,596.6599999982864,0,0,2,50706,WMM1,9726650,false,false,1634,image-keyboard-response,1
true,11,1,1,1,true,z,false,true,0.0-2.0-0.56-0.511-3.511,0,0,0,90,false,stim,false,0,777.3350000008941,0,0,2,50706,WMM1,9728943,false,false,1637,image-keyboard-response,2
true,11,1,1,0,false,q,false,false,0.0-2.0-0.56-0.512-3.512,0,0,0,90,false,stim,true,1,817.1749999988824,0,0,1,50706,WMM1,9731271,false,false,1640,image-keyboard-response,3
true,11,2,1,0,false,q,true,false,0.0-2.0-0.57-0.513-3.513,0,0,0,68,false,stim,false,1,616.160000000149,0,0,1,50706,WMM1,9733399,false,false,1643,image-keyboard-response,4
true,11,0,1,0,true,q,false,false,0.0-2.0-0.57-0.514-3.514,0,0,0,81,false,stim,false,2,688.9300000015646,0,0,0,50706,WMM1,9735599,false,true,1646,image-keyboard-response,5
true,11,1,1,1,true,z,false,true,0.0-2.0-0.57-0.515-3.515,0,0,0,90,false,stim,false,0,363.80000000074506,0,0,2,50706,WMM1,9737474,false,false,1649,image-keyboard-response,6
true,11,1,1,0,false,q,true,false,0.0-2.0-0.57-0.516-3.516,0,0,0,90,false,stim,false,2,302.84999999962747,0,0,0,50706,WMM1,9739286,false,false,1652,image-keyboard-response,7
true,11,2,1,0,false,q,false,false,0.0-2.0-0.57-0.517-3.517,0,0,0,68,false,stim,true,2,272.57499999925494,0,0,0,50706,WMM1,9741070,false,false,1655,image-keyboard-response,8
true,11,0,1,1,false,z,false,false,0.0-2.0-0.57-0.518-3.518,0,0,0,81,false,stim,true,0,369.3500000014901,0,0,2,50706,WMM1,9742950,false,false,1658,image-keyboard-response,9
true,11,2,1,1,false,z,true,false,0.0-2.0-0.57-0.519-3.519,0,0,0,68,false,stim,false,0,393.4900000002235,0,0,2,50706,WMM1,9744854,false,false,1661,image-keyboard-response,10
true,11,2,1,0,false,q,true,false,0.0-2.0-0.57-0.520-3.520,0,0,0,68,false,stim,false,1,1204.3899999987334,0,0,1,50706,WMM1,9747569,false,false,1664,image-keyboard-response,11
true,11,1,1,0,false,q,false,false,0.0-2.0-0.57-0.521-3.521,0,0,0,90,false,stim,true,1,637.2150000017136,0,0,1,50706,WMM1,9749718,false,false,1667,image-keyboard-response,12
true,11,0,1,0,true,q,false,true,0.0-2.0-0.58-0.522-3.522,0,0,0,81,false,stim,false,1,568.890000000596,0,0,1,50706,WMM1,9751798,false,false,1670,image-keyboard-response,13
true,11,2,1,0,false,q,false,false,0.0-2.0-0.58-0.523-3.523,0,0,0,68,false,stim,true,2,415.9150000009686,0,0,0,50706,WMM1,9753726,false,false,1673,image-keyboard-response,14
true,11,0,1,1,false,z,false,false,0.0-2.0-0.58-0.524-3.524,0,0,0,81,false,stim,true,0,305.69999999925494,0,0,2,50706,WMM1,9755541,false,false,1676,image-keyboard-response,15
true,11,1,1,0,false,q,true,false,0.0-2.0-0.58-0.525-3.525,0,0,0,90,false,stim,false,2,677.304999999702,0,0,0,50706,WMM1,9757729,false,false,1679,image-keyboard-response,16
true,11,2,1,1,false,z,true,false,0.0-2.0-0.58-0.526-3.526,0,0,0,68,false,stim,false,0,365.6000000014901,0,0,2,50706,WMM1,9759605,false,false,1682,image-keyboard-response,17
true,11,0,1,1,false,z,false,false,0.0-2.0-0.58-0.527-3.527,0,0,0,81,false,stim,true,0,274.5149999987334,0,0,2,50706,WMM1,9761389,false,false,1685,image-keyboard-response,18
true,11,1,1,0,false,q,false,false,0.0-2.0-0.58-0.528-3.528,0,0,0,90,false,stim,true,1,410.36999999918044,0,0,1,50706,WMM1,9763309,false,false,1688,image-keyboard-response,19
true,11,2,1,0,false,q,false,false,0.0-2.0-0.58-0.529-3.529,0,0,0,68,false,stim,true,2,319.9799999985844,0,0,0,50706,WMM1,9765141,false,false,1691,image-keyboard-response,20
true,11,1,1,0,false,q,false,false,0.0-2.0-0.58-0.530-3.530,0,0,0,90,false,stim,true,1,588.0099999997765,0,0,1,50706,WMM1,9767245,false,false,1694,image-keyboard-response,21
true,11,0,1,0,true,q,false,true,0.0-2.0-0.59-0.531-3.531,0,0,0,81,false,stim,false,1,332.445000000298,0,0,1,50706,WMM1,9769096,false,false,1697,image-keyboard-response,22
true,11,2,1,1,false,z,true,false,0.0-2.0-0.59-0.532-3.532,0,0,0,68,false,stim,false,0,527.929999999702,0,0,2,50706,WMM1,9771141,false,false,1700,image-keyboard-response,23
true,11,1,1,0,false,q,true,false,0.0-2.0-0.59-0.533-3.533,0,0,0,90,false,stim,false,2,333.7800000011921,0,0,0,50706,WMM1,9773012,false,false,1703,image-keyboard-response,24
true,11,0,1,0,true,q,false,true,0.0-2.0-0.59-0.534-3.534,0,0,0,81,false,stim,false,2,842.6350000016391,0,0,0,50706,WMM1,9775372,false,false,1706,image-keyboard-response,25
true,11,2,1,0,false,q,true,true,0.0-2.0-0.59-0.535-3.535,0,0,0,68,false,stim,false,1,666.7550000008196,0,0,1,50706,WMM1,9777557,false,true,1709,image-keyboard-response,26
true,11,2,1,1,false,z,true,false,0.0-2.0-0.59-0.536-3.536,0,0,0,68,false,stim,false,0,493.7800000011921,0,0,2,50706,WMM1,9779568,false,false,1712,image-keyboard-response,27
true,11,2,1,0,false,q,true,false,0.0-2.0-0.59-0.537-3.537,0,0,0,68,false,stim,false,1,423.8449999988079,0,0,1,50706,WMM1,9781508,false,false,1715,image-keyboard-response,28
true,11,0,1,0,true,q,false,true,0.0-2.0-0.59-0.538-3.538,0,0,0,81,false,stim,false,2,131.95499999821186,0,0,0,50706,WMM1,9783156,false,false,1718,image-keyboard-response,29
true,11,2,1,1,false,z,true,false,0.0-2.0-0.59-0.539-3.539,0,0,0,68,false,stim,false,0,636.0000000018626,0,0,2,50706,WMM1,9785308,false,false,1721,image-keyboard-response,30
true,11,0,1,0,true,q,false,true,0.0-2.0-0.60-0.540-3.540,0,0,0,81,false,stim,false,1,538.0250000003725,0,0,1,50706,WMM1,9787364,false,false,1724,image-keyboard-response,31
true,11,1,1,1,true,z,false,false,0.0-2.0-0.60-0.541-3.541,0,0,0,90,false,stim,false,0,482.86999999918044,0,0,2,50706,WMM1,9789363,false,true,1727,image-keyboard-response,32
true,11,2,1,0,false,q,true,false,0.0-2.0-0.60-0.542-3.542,0,0,0,68,false,stim,false,1,517.6949999984354,0,0,1,50706,WMM1,9791399,false,false,1730,image-keyboard-response,33
true,11,0,1,0,true,q,false,true,0.0-2.0-0.60-0.543-3.543,0,0,0,81,false,stim,false,1,1144.754999998957,0,0,1,50706,WMM1,9794059,false,false,1733,image-keyboard-response,34
true,11,2,1,1,false,z,true,false,0.0-2.0-0.60-0.544-3.544,0,0,0,68,false,stim,false,0,513.9500000011176,0,0,2,50706,WMM1,9796091,false,false,1736,image-keyboard-response,35
true,11,0,1,0,true,q,false,true,0.0-2.0-0.60-0.545-3.545,0,0,0,81,false,stim,false,2,322.48000000044703,0,0,0,50706,WMM1,9797931,false,false,1739,image-keyboard-response,36
true,11,0,1,0,true,q,false,true,0.0-2.0-0.60-0.546-3.546,0,0,0,81,false,stim,false,2,363.41499999910593,0,0,0,50706,WMM1,9799811,false,false,1742,image-keyboard-response,37
true,11,2,1,1,false,z,true,false,0.0-2.0-0.60-0.547-3.547,0,0,0,68,false,stim,false,0,877.3699999991804,0,0,2,50706,WMM1,9802206,false,false,1745,image-keyboard-response,38
true,11,0,1,0,true,q,false,true,0.0-2.0-0.60-0.548-3.548,0,0,0,81,false,stim,false,2,343.92999999783933,0,0,0,50706,WMM1,9804067,false,false,1748,image-keyboard-response,39
true,11,2,1,1,false,z,true,false,0.0-2.0-0.61-0.549-3.549,0,0,0,68,false,stim,false,0,474.2600000016391,0,0,2,50706,WMM1,9806059,false,false,1751,image-keyboard-response,40
true,11,1,1,1,true,z,false,false,0.0-2.0-0.61-0.550-3.550,0,0,0,90,false,stim,false,0,361.6550000011921,0,0,2,50706,WMM1,9807938,false,true,1754,image-keyboard-response,41
true,11,1,1,0,false,q,false,false,0.0-2.0-0.61-0.551-3.551,0,0,0,90,false,stim,true,1,491.785000000149,0,0,1,50706,WMM1,9809946,false,false,1757,image-keyboard-response,42
true,11,2,1,1,false,z,true,false,0.0-2.0-0.61-0.552-3.552,0,0,0,68,false,stim,false,0,458.6399999987334,0,0,2,50706,WMM1,9811922,false,false,1760,image-keyboard-response,43
true,11,0,1,0,true,q,false,true,0.0-2.0-0.61-0.553-3.553,0,0,0,81,false,stim,false,2,661.429999999702,0,0,0,50706,WMM1,9814102,false,false,1763,image-keyboard-response,44
true,11,0,1,0,true,q,false,true,0.0-2.0-0.61-0.554-3.554,0,0,0,81,false,stim,false,1,622.4400000013411,0,0,1,50706,WMM1,9816242,false,false,1766,image-keyboard-response,45
true,11,0,1,0,true,q,false,true,0.0-2.0-0.61-0.555-3.555,0,0,0,81,false,stim,false,1,459.31499999947846,0,0,1,50706,WMM1,9818218,false,false,1769,image-keyboard-response,46
true,11,2,1,0,false,q,false,true,0.0-2.0-0.61-0.556-3.556,0,0,0,68,false,stim,true,2,595.230000000447,0,0,0,50706,WMM1,9820330,false,true,1772,image-keyboard-response,47
true,11,2,1,0,false,q,false,false,0.0-2.0-0.61-0.557-3.557,0,0,0,68,false,stim,true,2,618.0999999996275,0,0,0,50706,WMM1,9822466,false,false,1775,image-keyboard-response,48
true,11,0,1,1,false,z,false,false,0.0-2.0-0.62-0.558-3.558,0,0,0,81,false,stim,true,0,333.1900000013411,0,0,2,50706,WMM1,9824317,false,false,1778,image-keyboard-response,49
true,11,1,1,0,false,q,true,false,0.0-2.0-0.62-0.559-3.559,0,0,0,90,false,stim,false,2,431.8849999997765,0,0,0,50706,WMM1,9826265,false,false,1781,image-keyboard-response,50
true,11,2,1,0,false,q,true,false,0.0-2.0-0.62-0.560-3.560,0,0,0,68,false,stim,false,1,386.77999999932945,0,0,1,50706,WMM1,9828169,false,false,1784,image-keyboard-response,51
true,11,0,1,1,false,z,false,false,0.0-2.0-0.62-0.561-3.561,0,0,0,81,false,stim,true,0,336.3650000002235,0,0,2,50706,WMM1,9830017,false,false,1787,image-keyboard-response,52
true,11,1,1,1,true,z,false,true,0.0-2.0-0.62-0.562-3.562,0,0,0,90,false,stim,false,0,241.43999999947846,0,0,2,50706,WMM1,9831769,false,false,1790,image-keyboard-response,53
true,11,1,1,0,false,q,true,false,0.0-2.0-0.62-0.563-3.563,0,0,0,90,false,stim,false,2,688.0999999996275,0,0,0,50706,WMM1,9833969,false,false,1793,image-keyboard-response,54
true,11,2,1,0,false,q,true,false,0.0-2.0-0.62-0.564-3.564,0,0,0,68,false,stim,false,1,396.77500000037253,0,0,1,50706,WMM1,9835876,false,false,1796,image-keyboard-response,55
true,11,0,1,0,true,q,false,true,0.0-2.0-0.62-0.565-3.565,0,0,0,81,false,stim,false,1,284.71000000089407,0,0,1,50706,WMM1,9837672,false,false,1799,image-keyboard-response,56
true,11,2,1,0,false,q,false,false,0.0-2.0-0.62-0.566-3.566,0,0,0,68,false,stim,true,2,386.92000000178814,0,0,0,50706,WMM1,9839593,false,false,1802,image-keyboard-response,57
true,11,1,1,0,false,q,false,false,0.0-2.0-0.63-0.567-3.567,0,0,0,90,false,stim,true,1,596.5749999992549,0,0,1,50706,WMM1,9841712,false,false,1805,image-keyboard-response,58
true,11,0,1,0,true,q,false,true,0.0-2.0-0.63-0.568-3.568,0,0,0,81,false,stim,false,2,448.589999999851,0,0,0,50706,WMM1,9843672,false,false,1808,image-keyboard-response,59
true,11,2,1,0,false,q,false,false,0.0-2.0-0.63-0.569-3.569,0,0,0,68,false,stim,true,2,608.5249999985099,0,0,0,50706,WMM1,9845792,false,false,1811,image-keyboard-response,60
true,12,1,2,2,false,d,true,false,0.0-2.0-0.63-0.570-3.570,0,0,0,90,true,stim,false,0,604.3549999985844,0,0,1,50706,WMM1,9847908,false,false,1814,image-keyboard-response,1
true,12,0,2,0,true,q,false,false,0.0-2.0-0.63-0.571-3.571,0,0,0,81,false,stim,false,1,301.39499999955297,0,0,2,50706,WMM1,9849720,false,true,1817,image-keyboard-response,2
true,12,2,2,0,false,q,true,false,0.0-2.0-0.63-0.572-3.572,0,0,0,68,false,stim,false,1,617.3000000007451,0,0,2,50706,WMM1,9851848,false,false,1820,image-keyboard-response,3
true,12,1,2,0,false,q,false,false,0.0-2.0-0.63-0.573-3.573,0,0,0,90,false,stim,true,1,562.4049999993294,0,0,2,50706,WMM1,9853920,false,false,1823,image-keyboard-response,4
true,12,2,2,2,true,d,false,true,0.0-2.0-0.63-0.574-3.574,0,0,0,68,false,stim,false,0,474.49499999918044,0,0,1,50706,WMM1,9855905,false,false,1826,image-keyboard-response,5
true,12,0,2,1,false,z,false,false,0.0-2.0-0.63-0.575-3.575,0,0,0,81,false,stim,true,0,594.445000000298,0,0,0,50706,WMM1,9858011,false,false,1829,image-keyboard-response,6
true,12,2,2,2,true,d,false,true,0.0-2.0-0.64-0.576-3.576,0,0,0,68,false,stim,false,0,474.41000000201166,0,0,1,50706,WMM1,9859999,false,false,1832,image-keyboard-response,7
true,12,0,2,0,true,q,false,true,0.0-2.0-0.64-0.577-3.577,0,0,0,81,false,stim,false,1,721.7549999989569,0,0,2,50706,WMM1,9862231,false,false,1835,image-keyboard-response,8
true,12,2,2,2,true,d,false,true,0.0-2.0-0.64-0.578-3.578,0,0,0,68,false,stim,false,0,625.8649999983609,0,0,1,50706,WMM1,9864367,false,false,1838,image-keyboard-response,9
true,12,1,2,1,true,z,false,true,0.0-2.0-0.64-0.579-3.579,0,0,0,90,false,stim,false,0,629.5250000003725,0,0,0,50706,WMM1,9866511,false,false,1841,image-keyboard-response,10
true,12,0,2,0,true,q,false,true,0.0-2.0-0.64-0.580-3.580,0,0,0,81,false,stim,false,1,659.6800000015646,0,0,2,50706,WMM1,9868682,false,false,1844,image-keyboard-response,11
true,12,0,2,0,true,q,false,true,0.0-2.0-0.64-0.581-3.581,0,0,0,81,false,stim,false,1,1117.359999999404,0,0,2,50706,WMM1,9871311,false,false,1847,image-keyboard-response,12
true,12,1,2,1,true,z,false,true,0.0-2.0-0.64-0.582-3.582,0,0,0,90,false,stim,false,0,566.9350000005215,0,0,0,50706,WMM1,9873391,false,false,1850,image-keyboard-response,13
true,12,2,2,2,true,d,false,true,0.0-2.0-0.64-0.583-3.583,0,0,0,68,false,stim,false,0,576.6500000003725,0,0,1,50706,WMM1,9875479,false,false,1853,image-keyboard-response,14
true,12,1,2,1,true,z,false,true,0.0-2.0-0.64-0.584-3.584,0,0,0,90,false,stim,false,0,720.7949999999255,0,0,0,50706,WMM1,9877711,false,false,1856,image-keyboard-response,15
