answered,blockNum,choice,condition,corResp,correct,correct_response,explo,fb,internal_node_id,isStable_1,isStable_2,isStable_3,key_press,newBlock,part,persev,persevResp,rt,sessNum,stableAS,stimulus,subject,task,time_elapsed,training,trap,trial_index,trial_type,trialsInBlock
true,1,0,0,2,false,d,true,true,0.0-2.0-0.0-0.0-3.0,0,0,0,81,true,stim,false,-1,695,2,0,1,54514,WMM2,127167,false,true,103,image-keyboard-response,1
true,1,0,0,2,false,d,true,false,0.0-2.0-0.0-0.1-3.1,0,0,0,81,false,stim,false,-1,449,2,0,1,54514,WMM2,129131,false,false,106,image-keyboard-response,2
true,1,1,0,1,true,z,false,true,0.0-2.0-0.0-0.2-3.2,0,0,0,90,false,stim,false,-1,580,2,0,0,54514,WMM2,131230,false,false,109,image-keyboard-response,3
true,1,1,0,2,false,d,true,false,0.0-2.0-0.0-0.3-3.3,0,0,0,90,false,stim,false,-1,602,2,0,2,54514,WMM2,133354,false,false,112,image-keyboard-response,4
true,1,1,0,1,true,z,false,true,0.0-2.0-0.0-0.4-3.4,0,0,0,90,false,stim,false,-1,596,2,0,0,54514,WMM2,135485,false,false,115,image-keyboard-response,5
true,1,1,0,1,true,z,false,false,0.0-2.0-0.0-0.5-3.5,0,0,0,90,false,stim,false,-1,419,2,0,0,54514,WMM2,137426,false,true,118,image-keyboard-response,6
true,1,0,0,2,false,d,true,false,0.0-2.0-0.0-0.6-3.6,0,0,0,81,false,stim,false,-1,746,2,0,1,54514,WMM2,139689,false,false,121,image-keyboard-response,7
true,1,1,0,2,false,d,true,false,0.0-2.0-0.0-0.7-3.7,0,0,0,90,false,stim,false,-1,785,2,0,2,54514,WMM2,141994,false,false,124,image-keyboard-response,8
true,1,2,0,2,true,d,false,true,0.0-2.0-0.0-0.8-3.8,0,0,0,68,false,stim,false,-1,572,2,0,2,54514,WMM2,144094,false,false,127,image-keyboard-response,9
true,1,1,0,1,true,z,false,true,0.0-2.0-0.1-0.9-3.9,0,0,0,90,false,stim,false,-1,769,2,0,0,54514,WMM2,146391,false,false,130,image-keyboard-response,10
true,1,2,0,2,true,d,false,true,0.0-2.0-0.1-0.10-3.10,0,0,0,68,false,stim,false,-1,758,2,0,2,54514,WMM2,148670,false,false,133,image-keyboard-response,11
true,1,0,0,2,false,d,true,false,0.0-2.0-0.1-0.11-3.11,0,0,0,81,false,stim,false,-1,633,2,0,1,54514,WMM2,150822,false,false,136,image-keyboard-response,12
true,1,1,0,2,false,d,true,true,0.0-2.0-0.1-0.12-3.12,0,0,0,90,false,stim,false,-1,558,2,0,1,54514,WMM2,152911,false,true,139,image-keyboard-response,13
true,1,2,0,2,true,d,false,true,0.0-2.0-0.1-0.13-3.13,0,0,0,68,false,stim,false,-1,610,2,0,2,54514,WMM2,155043,false,false,142,image-keyboard-response,14
true,1,1,0,2,false,d,true,false,0.0-2.0-0.1-0.14-3.14,0,0,0,90,false,stim,false,-1,743,2,0,1,54514,WMM2,157323,false,false,145,image-keyboard-response,15
true,1,1,0,1,true,z,false,true,0.0-2.0-0.1-0.15-3.15,0,0,0,90,false,stim,false,-1,453,2,0,0,54514,WMM2,159306,false,false,148,image-keyboard-response,16
true,1,1,0,1,true,z,false,true,0.0-2.0-0.1-0.16-3.16,0,0,0,90,false,stim,false,-1,496,2,0,0,54514,WMM2,161341,false,false,151,image-keyboard-response,17
true,1,2,0,2,true,d,false,true,0.0-2.0-0.1-0.17-3.17,0,0,0,68,false,stim,false,-1,662,2,0,2,54514,WMM2,163535,false,false,154,image-keyboard-response,18
true,1,2,0,2,true,d,false,true,0.0-2.0-0.2-0.18-3.18,0,0,0,68,false,stim,false,-1,401,2,0,2,54514,WMM2,165466,false,false,157,image-keyboard-response,19
true,1,1,0,1,true,z,false,true,0.0-2.0-0.2-0.19-3.19,0,0,0,90,false,stim,false,-1,533,2,0,0,54514,WMM2,167517,false,false,160,image-keyboard-response,20
true,1,2,0,2,true,d,false,true,0.0-2.0-0.2-0.20-3.20,0,0,0,68,false,stim,false,-1,539,2,0,2,54514,WMM2,169592,false,false,163,image-keyboard-response,21
true,1,1,0,2,false,d,true,false,0.0-2.0-0.2-0.21-3.21,0,0,0,90,false,stim,false,-1,466,2,0,1,54514,WMM2,171596,false,false,166,image-keyboard-response,22
true,1,2,0,2,true,d,false,true,0.0-2.0-0.2-0.22-3.22,0,0,0,68,false,stim,false,-1,662,2,0,1,54514,WMM2,173784,false,false,169,image-keyboard-response,23
true,1,2,0,2,true,d,false,false,0.0-2.0-0.2-0.23-3.23,0,0,0,68,false,stim,false,-1,482,2,0,1,54514,WMM2,175797,false,true,172,image-keyboard-response,24
true,1,1,0,1,true,z,false,false,0.0-2.0-0.2-0.24-3.24,0,0,0,90,false,stim,false,-1,631,2,0,0,54514,WMM2,177956,false,true,175,image-keyboard-response,25
true,1,1,0,1,true,z,false,true,0.0-2.0-0.2-0.25-3.25,0,0,0,90,false,stim,false,-1,972,2,0,0,54514,WMM2,180448,false,false,178,image-keyboard-response,26
true,1,2,0,2,true,d,false,true,0.0-2.0-0.2-0.26-3.26,0,0,0,68,false,stim,false,-1,709,2,0,2,54514,WMM2,182684,false,false,181,image-keyboard-response,27
true,1,2,0,2,true,d,false,true,0.0-2.0-0.3-0.27-3.27,0,0,0,68,false,stim,false,-1,437,2,1,1,54514,WMM2,184661,false,false,184,image-keyboard-response,28
true,1,1,0,1,true,z,false,false,0.0-2.0-0.3-0.28-3.28,0,0,0,90,false,stim,false,-1,670,2,0,0,54514,WMM2,186865,false,true,187,image-keyboard-response,29
true,1,2,0,2,true,d,false,false,0.0-2.0-0.3-0.29-3.29,0,0,0,68,false,stim,false,-1,497,2,0,2,54514,WMM2,188890,false,true,190,image-keyboard-response,30
true,1,2,0,2,true,d,false,true,0.0-2.0-0.3-0.30-3.30,0,0,0,68,false,stim,false,-1,461,2,0,2,54514,WMM2,190885,false,false,193,image-keyboard-response,31
true,1,2,0,2,true,d,false,true,0.0-2.0-0.3-0.31-3.31,0,0,0,68,false,stim,false,-1,465,2,0,2,54514,WMM2,192880,false,false,196,image-keyboard-response,32
true,1,1,0,2,false,d,true,false,0.0-2.0-0.3-0.32-3.32,0,0,0,90,false,stim,false,-1,608,2,1,1,54514,WMM2,195002,false,false,199,image-keyboard-response,33
true,1,2,0,2,true,d,false,true,0.0-2.0-0.3-0.33-3.33,0,0,0,68,false,stim,false,-1,418,2,1,1,54514,WMM2,196951,false,false,202,image-keyboard-response,34
true,2,1,1,2,false,d,false,false,0.0-2.0-0.3-0.34-3.34,0,1,0,90,true,stim,true,1,958,2,0,0,54514,WMM2,199441,false,false,205,image-keyboard-response,1
true,2,0,1,2,false,d,true,false,0.0-2.0-0.3-0.35-3.35,0,1,0,81,false,stim,false,1,538,2,0,0,54514,WMM2,201504,false,false,208,image-keyboard-response,2
true,2,2,1,1,false,z,false,false,0.0-2.0-0.4-0.36-3.36,0,1,0,68,false,stim,true,2,719,2,0,2,54514,WMM2,203754,false,false,211,image-keyboard-response,3
true,2,2,1,2,true,d,false,true,0.0-2.0-0.4-0.37-3.37,0,1,0,68,false,stim,false,2,618,2,1,1,54514,WMM2,205902,false,false,214,image-keyboard-response,4
true,2,1,1,2,false,d,false,false,0.0-2.0-0.4-0.38-3.38,0,1,0,90,false,stim,true,1,864,2,0,0,54514,WMM2,208308,false,false,217,image-keyboard-response,5
true,2,2,1,2,true,d,false,true,0.0-2.0-0.4-0.39-3.39,0,1,0,68,false,stim,false,2,861,2,1,1,54514,WMM2,210706,false,false,220,image-keyboard-response,6
true,2,2,1,1,false,z,false,true,0.0-2.0-0.4-0.40-3.40,0,1,0,68,false,stim,true,2,471,2,0,2,54514,WMM2,212695,false,true,223,image-keyboard-response,7
true,2,2,1,2,true,d,false,true,0.0-2.0-0.4-0.41-3.41,0,1,0,68,false,stim,false,1,460,2,0,0,54514,WMM2,214685,false,false,226,image-keyboard-response,8
true,2,2,1,2,true,d,false,false,0.0-2.0-0.4-0.42-3.42,0,1,0,68,false,stim,false,1,395,2,0,0,54514,WMM2,216619,false,true,229,image-keyboard-response,9
true,2,2,1,1,false,z,false,false,0.0-2.0-0.4-0.43-3.43,0,1,0,68,false,stim,true,2,400,2,0,2,54514,WMM2,218545,false,false,232,image-keyboard-response,10
true,2,2,1,2,true,d,false,true,0.0-2.0-0.4-0.44-3.44,0,1,0,68,false,stim,false,2,397,2,1,1,54514,WMM2,220460,false,false,235,image-keyboard-response,11
true,2,2,1,1,false,z,false,true,0.0-2.0-0.5-0.45-3.45,0,1,0,68,false,stim,true,2,684,2,0,2,54514,WMM2,222659,false,true,238,image-keyboard-response,12
true,2,2,1,2,true,d,false,true,0.0-2.0-0.5-0.46-3.46,0,1,0,68,false,stim,false,2,506,2,1,1,54514,WMM2,224691,false,false,241,image-keyboard-response,13
true,2,2,1,2,true,d,false,false,0.0-2.0-0.5-0.47-3.47,0,1,0,68,false,stim,false,2,410,2,1,1,54514,WMM2,226635,false,true,244,image-keyboard-response,14
true,2,2,1,1,false,z,false,false,0.0-2.0-0.5-0.48-3.48,0,1,0,68,false,stim,true,2,419,2,0,2,54514,WMM2,228573,false,false,247,image-keyboard-response,15
true,2,2,1,2,true,d,false,true,0.0-2.0-0.5-0.49-3.49,0,1,0,68,false,stim,false,1,467,2,0,0,54514,WMM2,230581,false,false,250,image-keyboard-response,16
true,2,2,1,2,true,d,false,true,0.0-2.0-0.5-0.50-3.50,0,1,0,68,false,stim,false,1,570,2,0,0,54514,WMM2,232685,false,false,253,image-keyboard-response,17
true,2,2,1,2,true,d,false,true,0.0-2.0-0.5-0.51-3.51,0,1,0,68,false,stim,false,2,583,2,1,1,54514,WMM2,234806,false,false,256,image-keyboard-response,18
true,2,2,1,1,false,z,false,false,0.0-2.0-0.5-0.52-3.52,0,1,0,68,false,stim,true,2,511,2,0,2,54514,WMM2,236836,false,false,259,image-keyboard-response,19
true,2,2,1,2,true,d,false,true,0.0-2.0-0.5-0.53-3.53,0,1,0,68,false,stim,false,1,804,2,0,0,54514,WMM2,239158,false,false,262,image-keyboard-response,20
true,2,2,1,2,true,d,false,true,0.0-2.0-0.6-0.54-3.54,0,1,0,68,false,stim,false,1,398,2,0,0,54514,WMM2,241073,false,false,265,image-keyboard-response,21
true,2,2,1,2,true,d,false,true,0.0-2.0-0.6-0.55-3.55,0,1,0,68,false,stim,false,2,518,2,1,1,54514,WMM2,243131,false,false,268,image-keyboard-response,22
true,2,2,1,2,true,d,false,true,0.0-2.0-0.6-0.56-3.56,0,1,0,68,false,stim,false,2,382,2,1,1,54514,WMM2,245045,false,false,271,image-keyboard-response,23
true,2,0,1,1,false,z,true,false,0.0-2.0-0.6-0.57-3.57,0,1,0,81,false,stim,false,2,695,2,0,2,54514,WMM2,247259,false,false,274,image-keyboard-response,24
true,2,2,1,2,true,d,false,true,0.0-2.0-0.6-0.58-3.58,0,1,0,68,false,stim,false,1,501,2,0,0,54514,WMM2,249296,false,false,277,image-keyboard-response,25
true,2,2,1,2,true,d,false,true,0.0-2.0-0.6-0.59-3.59,0,1,0,68,false,stim,false,1,636,2,0,0,54514,WMM2,251471,false,false,280,image-keyboard-response,26
true,2,1,1,1,true,z,false,true,0.0-2.0-0.6-0.60-3.60,0,1,0,90,false,stim,false,2,781,2,0,2,54514,WMM2,253770,false,false,283,image-keyboard-response,27
true,2,1,1,1,true,z,false,true,0.0-2.0-0.6-0.61-3.61,0,1,0,90,false,stim,false,2,520,2,0,2,54514,WMM2,255826,false,false,286,image-keyboard-response,28
true,2,2,1,2,true,d,false,true,0.0-2.0-0.6-0.62-3.62,0,1,0,68,false,stim,false,2,541,2,1,1,54514,WMM2,257896,false,false,289,image-keyboard-response,29
true,2,2,1,2,true,d,false,true,0.0-2.0-0.7-0.63-3.63,0,1,0,68,false,stim,false,2,398,2,1,1,54514,WMM2,259821,false,false,292,image-keyboard-response,30
true,2,2,1,2,true,d,false,true,0.0-2.0-0.7-0.64-3.64,0,1,0,68,false,stim,false,2,466,2,1,1,54514,WMM2,261808,false,false,295,image-keyboard-response,31
true,2,1,1,1,true,z,false,true,0.0-2.0-0.7-0.65-3.65,0,1,0,90,false,stim,false,2,873,2,1,2,54514,WMM2,264206,false,false,298,image-keyboard-response,32
true,2,2,1,2,true,d,false,true,0.0-2.0-0.7-0.66-3.66,0,1,0,68,false,stim,false,1,437,2,0,0,54514,WMM2,266179,false,false,301,image-keyboard-response,33
true,2,2,1,2,true,d,false,true,0.0-2.0-0.7-0.67-3.67,0,1,0,68,false,stim,false,1,407,2,0,0,54514,WMM2,268122,false,false,304,image-keyboard-response,34
true,2,2,1,2,true,d,false,true,0.0-2.0-0.7-0.68-3.68,0,1,0,68,false,stim,false,1,546,2,0,0,54514,WMM2,270200,false,false,307,image-keyboard-response,35
true,2,2,1,2,true,d,false,false,0.0-2.0-0.7-0.69-3.69,0,1,0,68,false,stim,false,2,615,2,1,1,54514,WMM2,272330,false,true,310,image-keyboard-response,36
true,2,1,1,1,true,z,false,true,0.0-2.0-0.7-0.70-3.70,0,1,0,90,false,stim,false,2,654,2,1,2,54514,WMM2,274506,false,false,313,image-keyboard-response,37
true,2,2,1,1,false,z,false,false,0.0-2.0-0.7-0.71-3.71,0,1,0,68,false,stim,true,2,446,2,1,2,54514,WMM2,276470,false,false,316,image-keyboard-response,38
true,3,1,2,1,true,z,false,true,0.0-2.0-0.8-0.72-3.72,0,1,1,90,true,stim,false,1,408,2,1,2,54514,WMM2,278404,false,false,319,image-keyboard-response,1
true,3,2,2,2,true,d,false,false,0.0-2.0-0.8-0.73-3.73,0,1,1,68,false,stim,false,2,579,2,1,1,54514,WMM2,280513,false,true,322,image-keyboard-response,2
true,3,0,2,2,false,d,true,false,0.0-2.0-0.8-0.74-3.74,0,1,1,81,false,stim,false,2,659,2,1,1,54514,WMM2,282703,false,false,325,image-keyboard-response,3
true,3,1,2,1,true,z,false,true,0.0-2.0-0.8-0.75-3.75,0,1,1,90,false,stim,false,1,672,2,1,2,54514,WMM2,284904,false,false,328,image-keyboard-response,4
true,3,2,2,0,false,q,false,false,0.0-2.0-0.8-0.76-3.76,0,1,1,68,false,stim,true,2,514,2,0,0,54514,WMM2,286948,false,false,331,image-keyboard-response,5
true,3,1,2,1,true,z,false,true,0.0-2.0-0.8-0.77-3.77,0,1,1,90,false,stim,false,1,605,2,1,2,54514,WMM2,289079,false,false,334,image-keyboard-response,6
true,3,1,2,0,false,q,true,false,0.0-2.0-0.8-0.78-3.78,0,1,1,90,false,stim,false,2,873,2,0,0,54514,WMM2,291468,false,false,337,image-keyboard-response,7
true,3,1,2,2,false,d,true,false,0.0-2.0-0.8-0.79-3.79,0,1,1,90,false,stim,false,2,643,2,1,1,54514,WMM2,293637,false,false,340,image-keyboard-response,8
true,3,2,2,0,false,q,false,false,0.0-2.0-0.8-0.80-3.80,0,1,1,68,false,stim,true,2,915,2,0,0,54514,WMM2,296079,false,false,343,image-keyboard-response,9
true,3,1,2,1,true,z,false,true,0.0-2.0-0.9-0.81-3.81,0,1,1,90,false,stim,false,1,745,2,1,2,54514,WMM2,298340,false,false,346,image-keyboard-response,10
true,3,0,2,2,false,d,true,true,0.0-2.0-0.9-0.82-3.82,0,1,1,81,false,stim,false,2,828,2,1,1,54514,WMM2,300694,false,true,349,image-keyboard-response,11
true,3,0,2,2,false,d,true,false,0.0-2.0-0.9-0.83-3.83,0,1,1,81,false,stim,false,2,747,2,1,1,54514,WMM2,302982,false,false,352,image-keyboard-response,12
true,3,1,2,1,true,z,false,true,0.0-2.0-0.9-0.84-3.84,0,1,1,90,false,stim,false,1,749,2,1,2,54514,WMM2,305263,false,false,355,image-keyboard-response,13
true,3,0,2,0,true,q,false,true,0.0-2.0-0.9-0.85-3.85,0,1,1,81,false,stim,false,2,601,2,0,0,54514,WMM2,307395,false,false,358,image-keyboard-response,14
true,3,0,2,0,true,q,false,true,0.0-2.0-0.9-0.86-3.86,0,1,1,81,false,stim,false,2,541,2,0,0,54514,WMM2,309455,false,false,361,image-keyboard-response,15
true,3,1,2,1,true,z,false,true,0.0-2.0-0.9-0.87-3.87,0,1,1,90,false,stim,false,1,516,2,1,2,54514,WMM2,311491,false,false,364,image-keyboard-response,16
true,3,0,2,2,false,d,true,false,0.0-2.0-0.9-0.88-3.88,0,1,1,81,false,stim,false,2,737,2,1,1,54514,WMM2,313762,false,false,367,image-keyboard-response,17
true,3,0,2,0,true,q,false,false,0.0-2.0-0.9-0.89-3.89,0,1,1,81,false,stim,false,2,691,2,0,0,54514,WMM2,315966,false,true,370,image-keyboard-response,18
true,3,0,2,0,true,q,false,true,0.0-2.0-0.10-0.90-3.90,0,1,1,81,false,stim,false,2,530,2,0,0,54514,WMM2,318025,false,false,373,image-keyboard-response,19
true,3,0,2,2,false,d,true,false,0.0-2.0-0.10-0.91-3.91,0,1,1,81,false,stim,false,2,423,2,1,1,54514,WMM2,319967,false,false,376,image-keyboard-response,20
true,3,1,2,1,true,z,false,true,0.0-2.0-0.10-0.92-3.92,0,1,1,90,false,stim,false,1,885,2,1,2,54514,WMM2,322390,false,false,379,image-keyboard-response,21
true,3,0,2,0,true,q,false,true,0.0-2.0-0.10-0.93-3.93,0,1,1,81,false,stim,false,2,688,2,0,0,54514,WMM2,324617,false,false,382,image-keyboard-response,22
true,3,1,2,2,false,d,true,false,0.0-2.0-0.10-0.94-3.94,0,1,1,90,false,stim,false,2,700,2,1,1,54514,WMM2,326854,false,false,385,image-keyboard-response,23
true,3,1,2,1,true,z,false,false,0.0-2.0-0.10-0.95-3.95,0,1,1,90,false,stim,false,1,841,2,1,2,54514,WMM2,329225,false,true,388,image-keyboard-response,24
true,3,1,2,1,true,z,false,true,0.0-2.0-0.10-0.96-3.96,0,1,1,90,false,stim,false,1,513,2,1,2,54514,WMM2,331268,false,false,391,image-keyboard-response,25
true,3,2,2,2,true,d,false,true,0.0-2.0-0.10-0.97-3.97,0,1,1,68,false,stim,false,2,620,2,1,1,54514,WMM2,333415,false,false,394,image-keyboard-response,26
true,3,0,2,0,true,q,false,true,0.0-2.0-0.10-0.98-3.98,0,1,1,81,false,stim,false,2,632,2,0,0,54514,WMM2,335577,false,false,397,image-keyboard-response,27
true,3,2,2,2,true,d,false,true,0.0-2.0-0.11-0.99-3.99,0,1,1,68,false,stim,false,2,687,2,1,1,54514,WMM2,337782,false,false,400,image-keyboard-response,28
true,3,1,2,1,true,z,false,true,0.0-2.0-0.11-0.100-3.100,0,1,1,90,false,stim,false,1,457,2,1,2,54514,WMM2,339781,false,false,403,image-keyboard-response,29
true,3,2,2,1,false,z,true,false,0.0-2.0-0.11-0.101-3.101,0,1,1,68,false,stim,false,1,433,2,1,2,54514,WMM2,341737,false,false,406,image-keyboard-response,30
true,3,0,2,0,true,q,false,true,0.0-2.0-0.11-0.102-3.102,0,1,1,81,false,stim,false,2,658,2,1,0,54514,WMM2,343931,false,false,409,image-keyboard-response,31
true,3,0,2,0,true,q,false,true,0.0-2.0-0.11-0.103-3.103,0,1,1,81,false,stim,false,2,554,2,1,0,54514,WMM2,346019,false,false,412,image-keyboard-response,32
true,3,1,2,1,true,z,false,true,0.0-2.0-0.11-0.104-3.104,0,1,1,90,false,stim,false,1,529,2,1,2,54514,WMM2,348075,false,false,415,image-keyboard-response,33
true,3,0,2,0,true,q,false,true,0.0-2.0-0.11-0.105-3.105,0,1,1,81,false,stim,false,2,682,2,1,0,54514,WMM2,350286,false,false,418,image-keyboard-response,34
true,3,2,2,2,true,d,false,true,0.0-2.0-0.11-0.106-3.106,0,1,1,68,false,stim,false,2,655,2,0,1,54514,WMM2,352479,false,false,421,image-keyboard-response,35
true,3,2,2,2,true,d,false,true,0.0-2.0-0.11-0.107-3.107,0,1,1,68,false,stim,false,2,517,2,0,1,54514,WMM2,354512,false,false,424,image-keyboard-response,36
true,3,2,2,2,true,d,false,true,0.0-2.0-0.12-0.108-3.108,0,1,1,68,false,stim,false,2,507,2,0,1,54514,WMM2,356540,false,false,427,image-keyboard-response,37
true,3,1,2,1,true,z,false,true,0.0-2.0-0.12-0.109-3.109,0,1,1,90,false,stim,false,1,629,2,1,2,54514,WMM2,358683,false,false,430,image-keyboard-response,38
true,4,2,4,2,true,d,false,true,0.0-2.0-0.12-0.110-3.110,1,0,1,68,true,stim,false,2,598,2,0,1,54514,WMM2,360796,false,false,433,image-keyboard-response,1
true,4,0,4,0,true,q,false,true,0.0-2.0-0.12-0.111-3.111,1,0,1,81,false,stim,false,0,512,2,1,0,54514,WMM2,362842,false,false,436,image-keyboard-response,2
true,4,2,4,1,false,z,true,false,0.0-2.0-0.12-0.112-3.112,1,0,1,68,false,stim,false,1,541,2,1,2,54514,WMM2,364926,false,false,439,image-keyboard-response,3
true,4,2,4,2,true,d,false,true,0.0-2.0-0.12-0.113-3.113,1,0,1,68,false,stim,false,2,475,2,0,1,54514,WMM2,366939,false,false,442,image-keyboard-response,4
true,4,1,4,1,true,z,false,true,0.0-2.0-0.12-0.114-3.114,1,0,1,90,false,stim,false,1,497,2,1,2,54514,WMM2,368972,false,false,445,image-keyboard-response,5
true,4,0,4,0,true,q,false,true,0.0-2.0-0.12-0.115-3.115,1,0,1,81,false,stim,false,0,517,2,1,0,54514,WMM2,371001,false,false,448,image-keyboard-response,6
true,4,0,4,0,true,q,false,true,0.0-2.0-0.12-0.116-3.116,1,0,1,81,false,stim,false,0,655,2,1,0,54514,WMM2,373190,false,false,451,image-keyboard-response,7
true,4,2,4,2,true,d,false,false,0.0-2.0-0.13-0.117-3.117,1,0,1,68,false,stim,false,2,678,2,0,1,54514,WMM2,375392,false,true,454,image-keyboard-response,8
true,4,1,4,1,true,z,false,true,0.0-2.0-0.13-0.118-3.118,1,0,1,90,false,stim,false,1,459,2,1,2,54514,WMM2,377383,false,false,457,image-keyboard-response,9
true,4,0,4,0,true,q,false,true,0.0-2.0-0.13-0.119-3.119,1,0,1,81,false,stim,false,0,558,2,1,0,54514,WMM2,379463,false,false,460,image-keyboard-response,10
true,4,0,4,0,true,q,false,false,0.0-2.0-0.13-0.120-3.120,1,0,1,81,false,stim,false,0,518,2,1,0,54514,WMM2,381513,false,true,463,image-keyboard-response,11
true,4,1,4,1,true,z,false,false,0.0-2.0-0.13-0.121-3.121,1,0,1,90,false,stim,false,1,518,2,1,2,54514,WMM2,383563,false,true,466,image-keyboard-response,12
true,4,2,4,2,true,d,false,true,0.0-2.0-0.13-0.122-3.122,1,0,1,68,false,stim,false,2,478,2,0,1,54514,WMM2,385571,false,false,469,image-keyboard-response,13
true,4,0,4,0,true,q,false,true,0.0-2.0-0.13-0.123-3.123,1,0,1,81,false,stim,false,0,615,2,1,0,54514,WMM2,387721,false,false,472,image-keyboard-response,14
true,4,1,4,1,true,z,false,true,0.0-2.0-0.13-0.124-3.124,1,0,1,90,false,stim,false,1,479,2,1,2,54514,WMM2,389724,false,false,475,image-keyboard-response,15
true,4,2,4,2,true,d,false,true,0.0-2.0-0.13-0.125-3.125,1,0,1,68,false,stim,false,2,441,2,0,1,54514,WMM2,391705,false,false,478,image-keyboard-response,16
true,4,1,4,1,true,z,false,false,0.0-2.0-0.14-0.126-3.126,1,0,1,90,false,stim,false,1,447,2,1,2,54514,WMM2,393681,false,true,481,image-keyboard-response,17
true,4,2,4,2,true,d,false,true,0.0-2.0-0.14-0.127-3.127,1,0,1,68,false,stim,false,2,776,2,0,1,54514,WMM2,395981,false,false,484,image-keyboard-response,18
true,4,2,4,2,true,d,false,true,0.0-2.0-0.14-0.128-3.128,1,0,1,68,false,stim,false,2,668,2,0,1,54514,WMM2,398172,false,false,487,image-keyboard-response,19
true,4,1,4,1,true,z,false,false,0.0-2.0-0.14-0.129-3.129,1,0,1,90,false,stim,false,1,606,2,1,2,54514,WMM2,400311,false,true,490,image-keyboard-response,20
true,4,2,4,2,true,d,false,true,0.0-2.0-0.14-0.130-3.130,1,0,1,68,false,stim,false,2,596,2,1,1,54514,WMM2,402432,false,false,493,image-keyboard-response,21
true,4,0,4,0,true,q,false,true,0.0-2.0-0.14-0.131-3.131,1,0,1,81,false,stim,false,0,639,2,0,0,54514,WMM2,404594,false,false,496,image-keyboard-response,22
true,4,0,4,0,true,q,false,true,0.0-2.0-0.14-0.132-3.132,1,0,1,81,false,stim,false,0,507,2,0,0,54514,WMM2,406634,false,false,499,image-keyboard-response,23
true,4,0,4,0,true,q,false,true,0.0-2.0-0.14-0.133-3.133,1,0,1,81,false,stim,false,0,516,2,0,0,54514,WMM2,408681,false,false,502,image-keyboard-response,24
true,4,1,4,1,true,z,false,true,0.0-2.0-0.14-0.134-3.134,1,0,1,90,false,stim,false,1,663,2,1,2,54514,WMM2,410867,false,false,505,image-keyboard-response,25
true,4,1,4,1,true,z,false,true,0.0-2.0-0.15-0.135-3.135,1,0,1,90,false,stim,false,1,525,2,1,2,54514,WMM2,412910,false,false,508,image-keyboard-response,26
true,4,1,4,1,true,z,false,false,0.0-2.0-0.15-0.136-3.136,1,0,1,90,false,stim,false,1,717,2,1,2,54514,WMM2,415162,false,true,511,image-keyboard-response,27
true,4,2,4,2,true,d,false,true,0.0-2.0-0.15-0.137-3.137,1,0,1,68,false,stim,false,2,706,2,1,1,54514,WMM2,417401,false,false,514,image-keyboard-response,28
true,4,0,4,0,true,q,false,true,0.0-2.0-0.15-0.138-3.138,1,0,1,81,false,stim,false,0,705,2,0,0,54514,WMM2,419629,false,false,517,image-keyboard-response,29
true,4,0,4,0,true,q,false,true,0.0-2.0-0.15-0.139-3.139,1,0,1,81,false,stim,false,0,511,2,0,0,54514,WMM2,421666,false,false,520,image-keyboard-response,30
true,5,2,2,2,true,d,false,true,0.0-2.0-0.15-0.140-3.140,0,1,1,68,true,stim,false,2,673,2,1,1,54514,WMM2,423868,false,false,523,image-keyboard-response,1
true,5,0,2,1,false,z,false,false,0.0-2.0-0.15-0.141-3.141,0,1,1,81,false,stim,true,0,575,2,0,0,54514,WMM2,425980,false,false,526,image-keyboard-response,2
true,5,2,2,2,true,d,false,false,0.0-2.0-0.15-0.142-3.142,0,1,1,68,false,stim,false,2,1127,2,1,1,54514,WMM2,428633,false,true,529,image-keyboard-response,3
true,5,1,2,1,true,z,false,true,0.0-2.0-0.15-0.143-3.143,0,1,1,90,false,stim,false,1,584,2,1,2,54514,WMM2,430759,false,false,532,image-keyboard-response,4
true,5,0,2,1,false,z,false,false,0.0-2.0-0.16-0.144-3.144,0,1,1,81,false,stim,true,0,533,2,0,0,54514,WMM2,432808,false,false,535,image-keyboard-response,5
true,5,1,2,1,true,z,false,true,0.0-2.0-0.16-0.145-3.145,0,1,1,90,false,stim,false,1,552,2,1,2,54514,WMM2,434886,false,false,538,image-keyboard-response,6
true,5,1,2,1,true,z,false,true,0.0-2.0-0.16-0.146-3.146,0,1,1,90,false,stim,false,1,499,2,1,2,54514,WMM2,436914,false,false,541,image-keyboard-response,7
true,5,2,2,2,true,d,false,true,0.0-2.0-0.16-0.147-3.147,0,1,1,68,false,stim,false,2,621,2,1,1,54514,WMM2,439077,false,false,544,image-keyboard-response,8
true,5,0,2,1,false,z,false,false,0.0-2.0-0.16-0.148-3.148,0,1,1,81,false,stim,true,0,689,2,0,0,54514,WMM2,441295,false,false,547,image-keyboard-response,9
true,5,2,2,2,true,d,false,true,0.0-2.0-0.16-0.149-3.149,0,1,1,68,false,stim,false,2,990,2,1,1,54514,WMM2,443815,false,false,550,image-keyboard-response,10
true,5,1,2,1,true,z,false,true,0.0-2.0-0.16-0.150-3.150,0,1,1,90,false,stim,false,0,791,2,0,0,54514,WMM2,446136,false,false,553,image-keyboard-response,11
true,5,2,2,2,true,d,false,true,0.0-2.0-0.16-0.151-3.151,0,1,1,68,false,stim,false,2,730,2,1,1,54514,WMM2,448403,false,false,556,image-keyboard-response,12
true,5,1,2,1,true,z,false,true,0.0-2.0-0.16-0.152-3.152,0,1,1,90,false,stim,false,1,476,2,1,2,54514,WMM2,450420,false,false,559,image-keyboard-response,13
true,5,1,2,1,true,z,false,true,0.0-2.0-0.17-0.153-3.153,0,1,1,90,false,stim,false,1,546,2,1,2,54514,WMM2,452492,false,false,562,image-keyboard-response,14
true,5,2,2,2,true,d,false,true,0.0-2.0-0.17-0.154-3.154,0,1,1,68,false,stim,false,2,576,2,1,1,54514,WMM2,454610,false,false,565,image-keyboard-response,15
true,5,1,2,1,true,z,false,true,0.0-2.0-0.17-0.155-3.155,0,1,1,90,false,stim,false,1,693,2,1,2,54514,WMM2,456838,false,false,568,image-keyboard-response,16
true,5,1,2,1,true,z,false,true,0.0-2.0-0.17-0.156-3.156,0,1,1,90,false,stim,false,1,390,2,1,2,54514,WMM2,458755,false,false,571,image-keyboard-response,17
true,5,2,2,2,true,d,false,true,0.0-2.0-0.17-0.157-3.157,0,1,1,68,false,stim,false,2,677,2,1,1,54514,WMM2,460951,false,false,574,image-keyboard-response,18
true,5,1,2,1,true,z,false,true,0.0-2.0-0.17-0.158-3.158,0,1,1,90,false,stim,false,0,352,2,0,0,54514,WMM2,462847,false,false,577,image-keyboard-response,19
true,5,2,2,2,true,d,false,true,0.0-2.0-0.17-0.159-3.159,0,1,1,68,false,stim,false,2,570,2,1,1,54514,WMM2,464944,false,false,580,image-keyboard-response,20
true,5,1,2,1,true,z,false,true,0.0-2.0-0.17-0.160-3.160,0,1,1,90,false,stim,false,0,707,2,1,0,54514,WMM2,467182,false,false,583,image-keyboard-response,21
true,5,1,2,1,true,z,false,true,0.0-2.0-0.17-0.161-3.161,0,1,1,90,false,stim,false,0,458,2,1,0,54514,WMM2,469172,false,false,586,image-keyboard-response,22
true,5,2,2,2,true,d,false,true,0.0-2.0-0.18-0.162-3.162,0,1,1,68,false,stim,false,2,585,2,0,1,54514,WMM2,471300,false,false,589,image-keyboard-response,23
true,5,1,2,1,true,z,false,true,0.0-2.0-0.18-0.163-3.163,0,1,1,90,false,stim,false,0,621,2,1,0,54514,WMM2,473446,false,false,592,image-keyboard-response,24
true,5,2,2,2,true,d,false,true,0.0-2.0-0.18-0.164-3.164,0,1,1,68,false,stim,false,2,692,2,0,1,54514,WMM2,475656,false,false,595,image-keyboard-response,25
true,5,1,2,1,true,z,false,true,0.0-2.0-0.18-0.165-3.165,0,1,1,90,false,stim,false,1,592,2,0,2,54514,WMM2,477786,false,false,598,image-keyboard-response,26
true,5,1,2,1,true,z,false,true,0.0-2.0-0.18-0.166-3.166,0,1,1,90,false,stim,false,1,498,2,0,2,54514,WMM2,479813,false,false,601,image-keyboard-response,27
true,5,1,2,1,true,z,false,true,0.0-2.0-0.18-0.167-3.167,0,1,1,90,false,stim,false,0,642,2,1,0,54514,WMM2,481987,false,false,604,image-keyboard-response,28
true,5,2,2,2,true,d,false,true,0.0-2.0-0.18-0.168-3.168,0,1,1,68,false,stim,false,2,581,2,0,1,54514,WMM2,484105,false,false,607,image-keyboard-response,29
true,5,1,2,1,true,z,false,true,0.0-2.0-0.18-0.169-3.169,0,1,1,90,false,stim,false,1,821,2,0,2,54514,WMM2,486456,false,false,610,image-keyboard-response,30
true,6,1,1,1,true,z,false,true,0.0-2.0-0.18-0.170-3.170,1,0,0,90,true,stim,false,1,818,2,1,0,54514,WMM2,488792,false,false,613,image-keyboard-response,1
true,6,2,1,1,false,z,false,false,0.0-2.0-0.19-0.171-3.171,1,0,0,68,false,stim,true,2,490,2,0,1,54514,WMM2,490805,false,false,616,image-keyboard-response,2
true,6,1,1,0,false,q,false,false,0.0-2.0-0.19-0.172-3.172,1,0,0,90,false,stim,true,1,418,2,0,2,54514,WMM2,492743,false,false,619,image-keyboard-response,3
true,6,1,1,0,false,q,false,false,0.0-2.0-0.19-0.173-3.173,1,0,0,90,false,stim,true,1,695,2,0,2,54514,WMM2,494970,false,false,622,image-keyboard-response,4
true,6,1,1,1,true,z,false,true,0.0-2.0-0.19-0.174-3.174,1,0,0,90,false,stim,false,1,711,2,1,0,54514,WMM2,497205,false,false,625,image-keyboard-response,5
true,6,0,1,1,false,z,true,false,0.0-2.0-0.19-0.175-3.175,1,0,0,81,false,stim,false,2,1004,2,0,1,54514,WMM2,499749,false,false,628,image-keyboard-response,6
true,6,1,1,1,true,z,false,true,0.0-2.0-0.19-0.176-3.176,1,0,0,90,false,stim,false,2,549,2,0,1,54514,WMM2,501820,false,false,631,image-keyboard-response,7
true,6,1,1,1,true,z,false,false,0.0-2.0-0.19-0.177-3.177,1,0,0,90,false,stim,false,1,517,2,1,0,54514,WMM2,503874,false,true,634,image-keyboard-response,8
true,6,0,1,0,true,q,false,true,0.0-2.0-0.19-0.178-3.178,1,0,0,81,false,stim,false,1,875,2,0,2,54514,WMM2,506279,false,false,637,image-keyboard-response,9
true,6,1,1,1,true,z,false,true,0.0-2.0-0.19-0.179-3.179,1,0,0,90,false,stim,false,1,626,2,1,0,54514,WMM2,508421,false,false,640,image-keyboard-response,10
true,6,1,1,1,true,z,false,false,0.0-2.0-0.20-0.180-3.180,1,0,0,90,false,stim,false,1,472,2,1,0,54514,WMM2,510417,false,true,643,image-keyboard-response,11
true,6,1,1,1,true,z,false,true,0.0-2.0-0.20-0.181-3.181,1,0,0,90,false,stim,false,2,401,2,0,1,54514,WMM2,512346,false,false,646,image-keyboard-response,12
true,6,1,1,1,true,z,false,true,0.0-2.0-0.20-0.182-3.182,1,0,0,90,false,stim,false,1,435,2,1,0,54514,WMM2,514319,false,false,649,image-keyboard-response,13
true,6,0,1,0,true,q,false,true,0.0-2.0-0.20-0.183-3.183,1,0,0,81,false,stim,false,1,463,2,0,2,54514,WMM2,516309,false,false,652,image-keyboard-response,14
true,6,1,1,1,true,z,false,true,0.0-2.0-0.20-0.184-3.184,1,0,0,90,false,stim,false,2,594,2,0,1,54514,WMM2,518429,false,false,655,image-keyboard-response,15
true,6,1,1,0,false,q,false,false,0.0-2.0-0.20-0.185-3.185,1,0,0,90,false,stim,true,1,473,2,0,2,54514,WMM2,520418,false,false,658,image-keyboard-response,16
true,6,1,1,1,true,z,false,true,0.0-2.0-0.20-0.186-3.186,1,0,0,90,false,stim,false,2,615,2,0,1,54514,WMM2,522555,false,false,661,image-keyboard-response,17
true,6,1,1,1,true,z,false,true,0.0-2.0-0.20-0.187-3.187,1,0,0,90,false,stim,false,1,897,2,1,0,54514,WMM2,524991,false,false,664,image-keyboard-response,18
true,6,0,1,0,true,q,false,true,0.0-2.0-0.20-0.188-3.188,1,0,0,81,false,stim,false,1,561,2,0,2,54514,WMM2,527096,false,false,667,image-keyboard-response,19
true,6,0,1,0,true,q,false,true,0.0-2.0-0.21-0.189-3.189,1,0,0,81,false,stim,false,1,530,2,0,2,54514,WMM2,529156,false,false,670,image-keyboard-response,20
true,6,0,1,0,true,q,false,true,0.0-2.0-0.21-0.190-3.190,1,0,0,81,false,stim,false,1,512,2,1,2,54514,WMM2,531197,false,false,673,image-keyboard-response,21
true,6,0,1,0,true,q,false,true,0.0-2.0-0.21-0.191-3.191,1,0,0,81,false,stim,false,1,449,2,1,2,54514,WMM2,533175,false,false,676,image-keyboard-response,22
true,6,1,1,1,true,z,false,true,0.0-2.0-0.21-0.192-3.192,1,0,0,90,false,stim,false,1,766,2,0,0,54514,WMM2,535462,false,false,679,image-keyboard-response,23
true,6,1,1,1,true,z,false,true,0.0-2.0-0.21-0.193-3.193,1,0,0,90,false,stim,false,1,455,2,0,0,54514,WMM2,537449,false,false,682,image-keyboard-response,24
true,6,1,1,1,true,z,false,false,0.0-2.0-0.21-0.194-3.194,1,0,0,90,false,stim,false,2,575,2,1,1,54514,WMM2,539540,false,true,685,image-keyboard-response,25
true,6,1,1,1,true,z,false,false,0.0-2.0-0.21-0.195-3.195,1,0,0,90,false,stim,false,2,381,2,1,1,54514,WMM2,541446,false,true,688,image-keyboard-response,26
true,6,2,1,1,false,z,false,false,0.0-2.0-0.21-0.196-3.196,1,0,0,68,false,stim,true,2,590,2,1,1,54514,WMM2,543574,false,false,691,image-keyboard-response,27
true,6,1,1,1,true,z,false,true,0.0-2.0-0.21-0.197-3.197,1,0,0,90,false,stim,false,1,767,2,0,0,54514,WMM2,545882,false,false,694,image-keyboard-response,28
true,6,0,1,1,false,z,true,false,0.0-2.0-0.22-0.198-3.198,1,0,0,81,false,stim,false,2,826,2,1,1,54514,WMM2,548240,false,false,697,image-keyboard-response,29
true,6,1,1,1,true,z,false,true,0.0-2.0-0.22-0.199-3.199,1,0,0,90,false,stim,false,1,1258,2,0,0,54514,WMM2,551013,false,false,700,image-keyboard-response,30
true,7,0,2,0,true,q,false,true,0.0-2.0-0.22-0.200-3.200,0,1,1,81,true,stim,false,0,561,2,1,2,54514,WMM2,553106,false,false,703,image-keyboard-response,1
true,7,1,2,1,true,z,false,true,0.0-2.0-0.22-0.201-3.201,0,1,1,90,false,stim,false,1,418,2,1,1,54514,WMM2,555042,false,false,706,image-keyboard-response,2
true,7,0,2,0,true,q,false,true,0.0-2.0-0.22-0.202-3.202,0,1,1,81,false,stim,false,0,752,2,1,2,54514,WMM2,557336,false,false,709,image-keyboard-response,3
true,7,1,2,1,true,z,false,true,0.0-2.0-0.22-0.203-3.203,0,1,1,90,false,stim,false,1,606,2,1,1,54514,WMM2,559460,false,false,712,image-keyboard-response,4
true,7,1,2,2,false,d,false,false,0.0-2.0-0.22-0.204-3.204,0,1,1,90,false,stim,true,1,520,2,0,0,54514,WMM2,561516,false,false,715,image-keyboard-response,5
true,7,0,2,0,true,q,false,true,0.0-2.0-0.22-0.205-3.205,0,1,1,81,false,stim,false,0,854,2,1,2,54514,WMM2,563898,false,false,718,image-keyboard-response,6
true,7,1,2,2,false,d,false,false,0.0-2.0-0.22-0.206-3.206,0,1,1,90,false,stim,true,1,431,2,0,0,54514,WMM2,565856,false,false,721,image-keyboard-response,7
true,7,1,2,1,true,z,false,true,0.0-2.0-0.23-0.207-3.207,0,1,1,90,false,stim,false,1,614,2,1,1,54514,WMM2,567988,false,false,724,image-keyboard-response,8
true,7,0,2,0,true,q,false,true,0.0-2.0-0.23-0.208-3.208,0,1,1,81,false,stim,false,0,854,2,1,2,54514,WMM2,570369,false,false,727,image-keyboard-response,9
true,7,0,2,0,true,q,false,true,0.0-2.0-0.23-0.209-3.209,0,1,1,81,false,stim,false,0,456,2,1,2,54514,WMM2,572341,false,false,730,image-keyboard-response,10
true,7,1,2,1,true,z,false,true,0.0-2.0-0.23-0.210-3.210,0,1,1,90,false,stim,false,1,556,2,1,1,54514,WMM2,574431,false,false,733,image-keyboard-response,11
true,7,1,2,1,true,z,false,true,0.0-2.0-0.23-0.211-3.211,0,1,1,90,false,stim,false,1,420,2,1,1,54514,WMM2,576385,false,false,736,image-keyboard-response,12
true,7,2,2,2,true,d,false,true,0.0-2.0-0.23-0.212-3.212,0,1,1,68,false,stim,false,1,757,2,0,0,54514,WMM2,578662,false,false,739,image-keyboard-response,13
true,7,2,2,2,true,d,false,true,0.0-2.0-0.23-0.213-3.213,0,1,1,68,false,stim,false,1,564,2,0,0,54514,WMM2,580738,false,false,742,image-keyboard-response,14
true,7,0,2,0,true,q,false,true,0.0-2.0-0.23-0.214-3.214,0,1,1,81,false,stim,false,0,678,2,1,2,54514,WMM2,582932,false,false,745,image-keyboard-response,15
true,7,2,2,2,true,d,false,true,0.0-2.0-0.23-0.215-3.215,0,1,1,68,false,stim,false,1,715,2,0,0,54514,WMM2,585164,false,false,748,image-keyboard-response,16
true,7,2,2,2,true,d,false,true,0.0-2.0-0.24-0.216-3.216,0,1,1,68,false,stim,false,1,511,2,0,0,54514,WMM2,587204,false,false,751,image-keyboard-response,17
true,7,2,2,2,true,d,false,true,0.0-2.0-0.24-0.217-3.217,0,1,1,68,false,stim,false,1,413,2,0,0,54514,WMM2,589146,false,false,754,image-keyboard-response,18
true,7,1,2,1,true,z,false,true,0.0-2.0-0.24-0.218-3.218,0,1,1,90,false,stim,false,1,651,2,1,1,54514,WMM2,591311,false,false,757,image-keyboard-response,19
true,7,2,2,0,false,q,true,true,0.0-2.0-0.24-0.219-3.219,0,1,1,68,false,stim,false,0,565,2,1,2,54514,WMM2,593393,false,true,760,image-keyboard-response,20
true,7,2,2,2,true,d,false,true,0.0-2.0-0.24-0.220-3.220,0,1,1,68,false,stim,false,1,823,2,0,0,54514,WMM2,595737,false,false,763,image-keyboard-response,21
true,7,1,2,1,true,z,false,true,0.0-2.0-0.24-0.221-3.221,0,1,1,90,false,stim,false,1,605,2,1,1,54514,WMM2,597871,false,false,766,image-keyboard-response,22
true,7,2,2,0,false,q,true,true,0.0-2.0-0.24-0.222-3.222,0,1,1,68,false,stim,false,0,647,2,1,2,54514,WMM2,600061,false,true,769,image-keyboard-response,23
true,7,2,2,0,false,q,true,false,0.0-2.0-0.24-0.223-3.223,0,1,1,68,false,stim,false,0,556,2,1,2,54514,WMM2,602151,false,false,772,image-keyboard-response,24
true,7,1,2,1,true,z,false,true,0.0-2.0-0.24-0.224-3.224,0,1,1,90,false,stim,false,1,799,2,1,1,54514,WMM2,604485,false,false,775,image-keyboard-response,25
true,7,2,2,0,false,q,true,false,0.0-2.0-0.25-0.225-3.225,0,1,1,68,false,stim,false,0,503,2,1,2,54514,WMM2,606528,false,false,778,image-keyboard-response,26
true,7,1,2,1,true,z,false,false,0.0-2.0-0.25-0.226-3.226,0,1,1,90,false,stim,false,1,711,2,1,1,54514,WMM2,608776,false,true,781,image-keyboard-response,27
true,7,1,2,1,true,z,false,true,0.0-2.0-0.25-0.227-3.227,0,1,1,90,false,stim,false,1,561,2,1,1,54514,WMM2,610866,false,false,784,image-keyboard-response,28
true,7,2,2,2,true,d,false,true,0.0-2.0-0.25-0.228-3.228,0,1,1,68,false,stim,false,1,421,2,0,0,54514,WMM2,612806,false,false,787,image-keyboard-response,29
true,7,1,2,1,true,z,false,true,0.0-2.0-0.25-0.229-3.229,0,1,1,90,false,stim,false,1,726,2,1,1,54514,WMM2,615071,false,false,790,image-keyboard-response,30
true,7,2,2,0,false,q,true,false,0.0-2.0-0.25-0.230-3.230,0,1,1,68,false,stim,false,0,460,2,1,2,54514,WMM2,617056,false,false,793,image-keyboard-response,31
true,7,2,2,2,true,d,false,false,0.0-2.0-0.25-0.231-3.231,0,1,1,68,false,stim,false,1,374,2,0,0,54514,WMM2,618958,false,true,796,image-keyboard-response,32
true,7,0,2,0,true,q,false,true,0.0-2.0-0.25-0.232-3.232,0,1,1,81,false,stim,false,0,892,2,1,2,54514,WMM2,621388,false,false,799,image-keyboard-response,33
true,7,2,2,2,true,d,false,true,0.0-2.0-0.25-0.233-3.233,0,1,1,68,false,stim,false,1,732,2,0,0,54514,WMM2,623668,false,false,802,image-keyboard-response,34
true,7,0,2,0,true,q,false,true,0.0-2.0-0.26-0.234-3.234,0,1,1,81,false,stim,false,0,704,2,1,2,54514,WMM2,625918,false,false,805,image-keyboard-response,35
true,7,1,2,1,true,z,false,true,0.0-2.0-0.26-0.235-3.235,0,1,1,90,false,stim,false,1,905,2,1,1,54514,WMM2,628370,false,false,808,image-keyboard-response,36
true,7,2,2,2,true,d,false,true,0.0-2.0-0.26-0.236-3.236,0,1,1,68,false,stim,false,1,588,2,1,0,54514,WMM2,630485,false,false,811,image-keyboard-response,37
true,7,1,2,1,true,z,false,true,0.0-2.0-0.26-0.237-3.237,0,1,1,90,false,stim,false,1,990,2,1,1,54514,WMM2,633006,false,false,814,image-keyboard-response,38
true,7,1,2,1,true,z,false,false,0.0-2.0-0.26-0.238-3.238,0,1,1,90,false,stim,false,1,449,2,1,1,54514,WMM2,634984,false,true,817,image-keyboard-response,39
true,7,0,2,0,true,q,false,true,0.0-2.0-0.26-0.239-3.239,0,1,1,81,false,stim,false,0,460,2,0,2,54514,WMM2,636984,false,false,820,image-keyboard-response,40
true,7,2,2,2,true,d,false,true,0.0-2.0-0.26-0.240-3.240,0,1,1,68,false,stim,false,1,749,2,1,0,54514,WMM2,639264,false,false,823,image-keyboard-response,41
true,7,2,2,2,true,d,false,true,0.0-2.0-0.26-0.241-3.241,0,1,1,68,false,stim,false,1,529,2,1,0,54514,WMM2,641324,false,false,826,image-keyboard-response,42
true,7,0,2,0,true,q,false,true,0.0-2.0-0.26-0.242-3.242,0,1,1,81,false,stim,false,0,927,2,0,2,54514,WMM2,643783,false,false,829,image-keyboard-response,43
true,7,1,2,1,true,z,false,true,0.0-2.0-0.27-0.243-3.243,0,1,1,90,false,stim,false,1,670,2,1,1,54514,WMM2,645984,false,false,832,image-keyboard-response,44
true,7,1,2,1,true,z,false,true,0.0-2.0-0.27-0.244-3.244,0,1,1,90,false,stim,false,1,447,2,1,1,54514,WMM2,647962,false,false,835,image-keyboard-response,45
true,8,1,4,1,true,z,false,true,0.0-2.0-0.27-0.245-3.245,1,1,0,90,true,stim,false,1,552,2,1,1,54514,WMM2,650046,false,false,838,image-keyboard-response,1
true,8,0,4,0,true,q,false,true,0.0-2.0-0.27-0.246-3.246,1,1,0,81,false,stim,false,0,1059,2,0,2,54514,WMM2,652645,false,false,841,image-keyboard-response,2
true,8,2,4,2,true,d,false,false,0.0-2.0-0.27-0.247-3.247,1,1,0,68,false,stim,false,2,537,2,1,0,54514,WMM2,654721,false,true,844,image-keyboard-response,3
true,8,0,4,0,true,q,false,true,0.0-2.0-0.27-0.248-3.248,1,1,0,81,false,stim,false,0,520,2,0,2,54514,WMM2,656785,false,false,847,image-keyboard-response,4
true,8,0,4,0,true,q,false,true,0.0-2.0-0.27-0.249-3.249,1,1,0,81,false,stim,false,0,514,2,0,2,54514,WMM2,658818,false,false,850,image-keyboard-response,5
true,8,2,4,2,true,d,false,true,0.0-2.0-0.27-0.250-3.250,1,1,0,68,false,stim,false,2,673,2,1,0,54514,WMM2,661019,false,false,853,image-keyboard-response,6
true,8,2,4,2,true,d,false,false,0.0-2.0-0.27-0.251-3.251,1,1,0,68,false,stim,false,2,457,2,1,0,54514,WMM2,662992,false,true,856,image-keyboard-response,7
true,8,1,4,1,true,z,false,false,0.0-2.0-0.28-0.252-3.252,1,1,0,90,false,stim,false,1,738,2,1,1,54514,WMM2,665273,false,true,859,image-keyboard-response,8
true,8,0,4,0,true,q,false,true,0.0-2.0-0.28-0.253-3.253,1,1,0,81,false,stim,false,0,587,2,0,2,54514,WMM2,667393,false,false,862,image-keyboard-response,9
true,8,2,4,2,true,d,false,true,0.0-2.0-0.28-0.254-3.254,1,1,0,68,false,stim,false,2,743,2,1,0,54514,WMM2,669668,false,false,865,image-keyboard-response,10
true,8,2,4,2,true,d,false,false,0.0-2.0-0.28-0.255-3.255,1,1,0,68,false,stim,false,2,532,2,1,0,54514,WMM2,671733,false,true,868,image-keyboard-response,11
true,8,1,4,1,true,z,false,true,0.0-2.0-0.28-0.256-3.256,1,1,0,90,false,stim,false,1,719,2,1,1,54514,WMM2,673984,false,false,871,image-keyboard-response,12
true,8,2,4,2,true,d,false,false,0.0-2.0-0.28-0.257-3.257,1,1,0,68,false,stim,false,2,863,2,1,0,54514,WMM2,676366,false,true,874,image-keyboard-response,13
true,8,0,4,0,true,q,false,false,0.0-2.0-0.28-0.258-3.258,1,1,0,81,false,stim,false,0,801,2,0,2,54514,WMM2,678697,false,true,877,image-keyboard-response,14
true,8,1,4,1,true,z,false,true,0.0-2.0-0.28-0.259-3.259,1,1,0,90,false,stim,false,1,641,2,1,1,54514,WMM2,680865,false,false,880,image-keyboard-response,15
true,8,1,4,0,false,q,true,false,0.0-2.0-0.28-0.260-3.260,1,1,0,90,false,stim,false,0,849,2,0,2,54514,WMM2,683244,false,false,883,image-keyboard-response,16
true,8,1,4,1,true,z,false,true,0.0-2.0-0.29-0.261-3.261,1,1,0,90,false,stim,false,1,1033,2,1,1,54514,WMM2,685808,false,false,886,image-keyboard-response,17
true,8,2,4,0,false,q,true,false,0.0-2.0-0.29-0.262-3.262,1,1,0,68,false,stim,false,0,665,2,0,2,54514,WMM2,687990,false,false,889,image-keyboard-response,18
true,8,1,4,1,true,z,false,true,0.0-2.0-0.29-0.263-3.263,1,1,0,90,false,stim,false,1,812,2,1,1,54514,WMM2,690318,false,false,892,image-keyboard-response,19
true,8,0,4,2,false,d,true,true,0.0-2.0-0.29-0.264-3.264,1,1,0,81,false,stim,false,2,875,2,1,0,54514,WMM2,692721,false,true,895,image-keyboard-response,20
true,8,0,4,2,false,d,true,false,0.0-2.0-0.29-0.265-3.265,1,1,0,81,false,stim,false,2,565,2,1,0,54514,WMM2,694809,false,false,898,image-keyboard-response,21
true,8,1,4,1,true,z,false,true,0.0-2.0-0.29-0.266-3.266,1,1,0,90,false,stim,false,1,753,2,1,1,54514,WMM2,697116,false,false,901,image-keyboard-response,22
true,8,0,4,0,true,q,false,true,0.0-2.0-0.29-0.267-3.267,1,1,0,81,false,stim,false,0,851,2,0,2,54514,WMM2,699506,false,false,904,image-keyboard-response,23
true,8,0,4,0,true,q,false,true,0.0-2.0-0.29-0.268-3.268,1,1,0,81,false,stim,false,0,516,2,0,2,54514,WMM2,701552,false,false,907,image-keyboard-response,24
true,8,0,4,2,false,d,true,false,0.0-2.0-0.29-0.269-3.269,1,1,0,81,false,stim,false,2,630,2,1,0,54514,WMM2,703724,false,false,910,image-keyboard-response,25
true,8,1,4,2,false,d,true,false,0.0-2.0-0.30-0.270-3.270,1,1,0,90,false,stim,false,2,609,2,1,0,54514,WMM2,705864,false,false,913,image-keyboard-response,26
true,8,0,4,0,true,q,false,false,0.0-2.0-0.30-0.271-3.271,1,1,0,81,false,stim,false,0,543,2,0,2,54514,WMM2,707937,false,true,916,image-keyboard-response,27
true,8,0,4,0,true,q,false,true,0.0-2.0-0.30-0.272-3.272,1,1,0,81,false,stim,false,0,509,2,0,2,54514,WMM2,709981,false,false,919,image-keyboard-response,28
true,8,1,4,1,true,z,false,true,0.0-2.0-0.30-0.273-3.273,1,1,0,90,false,stim,false,1,703,2,1,1,54514,WMM2,712221,false,false,922,image-keyboard-response,29
true,8,1,4,1,true,z,false,true,0.0-2.0-0.30-0.274-3.274,1,1,0,90,false,stim,false,1,499,2,1,1,54514,WMM2,714262,false,false,925,image-keyboard-response,30
true,8,2,4,2,true,d,false,true,0.0-2.0-0.30-0.275-3.275,1,1,0,68,false,stim,false,2,1155,2,1,0,54514,WMM2,716950,false,false,928,image-keyboard-response,31
true,8,2,4,2,true,d,false,true,0.0-2.0-0.30-0.276-3.276,1,1,0,68,false,stim,false,2,438,2,1,0,54514,WMM2,718915,false,false,931,image-keyboard-response,32
true,8,0,4,0,true,q,false,true,0.0-2.0-0.30-0.277-3.277,1,1,0,81,false,stim,false,0,624,2,1,2,54514,WMM2,721069,false,false,934,image-keyboard-response,33
true,8,1,4,1,true,z,false,true,0.0-2.0-0.30-0.278-3.278,1,1,0,90,false,stim,false,1,567,2,1,1,54514,WMM2,723173,false,false,937,image-keyboard-response,34
true,8,0,4,0,true,q,false,true,0.0-2.0-0.31-0.279-3.279,1,1,0,81,false,stim,false,0,689,2,1,2,54514,WMM2,725405,false,false,940,image-keyboard-response,35
true,8,0,4,0,true,q,false,true,0.0-2.0-0.31-0.280-3.280,1,1,0,81,false,stim,false,0,515,2,1,2,54514,WMM2,727461,false,false,943,image-keyboard-response,36
true,8,2,4,2,true,d,false,true,0.0-2.0-0.31-0.281-3.281,1,1,0,68,false,stim,false,2,729,2,0,0,54514,WMM2,729715,false,false,946,image-keyboard-response,37
true,8,1,4,1,true,z,false,true,0.0-2.0-0.31-0.282-3.282,1,1,0,90,false,stim,false,1,539,2,1,1,54514,WMM2,731785,false,false,949,image-keyboard-response,38
true,8,2,4,2,true,d,false,true,0.0-2.0-0.31-0.283-3.283,1,1,0,68,false,stim,false,2,618,2,0,0,54514,WMM2,733923,false,false,952,image-keyboard-response,39
true,8,1,4,1,true,z,false,true,0.0-2.0-0.31-0.284-3.284,1,1,0,90,false,stim,false,1,753,2,1,1,54514,WMM2,736218,false,false,955,image-keyboard-response,40
true,8,1,4,1,true,z,false,true,0.0-2.0-0.31-0.285-3.285,1,1,0,90,false,stim,false,1,550,2,1,1,54514,WMM2,738305,false,false,958,image-keyboard-response,41
true,8,2,4,2,true,d,false,true,0.0-2.0-0.31-0.286-3.286,1,1,0,68,false,stim,false,2,799,2,0,0,54514,WMM2,740625,false,false,961,image-keyboard-response,42
true,9,0,3,0,true,q,false,true,0.0-2.0-0.31-0.287-3.287,0,1,1,81,true,stim,false,0,588,2,1,2,54514,WMM2,742746,false,false,964,image-keyboard-response,1
true,9,1,3,1,true,z,false,true,0.0-2.0-0.32-0.288-3.288,0,1,1,90,false,stim,false,1,721,2,1,1,54514,WMM2,744996,false,false,967,image-keyboard-response,2
true,9,1,3,1,true,z,false,true,0.0-2.0-0.32-0.289-3.289,0,1,1,90,false,stim,false,1,463,2,1,1,54514,WMM2,746987,false,false,970,image-keyboard-response,3
true,9,2,3,0,false,q,true,true,0.0-2.0-0.32-0.290-3.290,0,1,1,68,false,stim,false,0,635,2,1,2,54514,WMM2,749140,false,true,973,image-keyboard-response,4
true,9,2,3,0,false,q,true,false,0.0-2.0-0.32-0.291-3.291,0,1,1,68,false,stim,false,0,466,2,1,2,54514,WMM2,751133,false,false,976,image-keyboard-response,5
true,9,0,3,0,true,q,false,false,0.0-2.0-0.32-0.292-3.292,0,1,1,81,false,stim,false,2,722,2,0,0,54514,WMM2,753387,false,true,979,image-keyboard-response,6
true,9,2,3,0,false,q,false,false,0.0-2.0-0.32-0.293-3.293,0,1,1,68,false,stim,true,2,1453,2,0,0,54514,WMM2,756367,false,false,982,image-keyboard-response,7
true,9,1,3,0,false,q,true,false,0.0-2.0-0.32-0.294-3.294,0,1,1,90,false,stim,false,2,645,2,0,0,54514,WMM2,758550,false,false,985,image-keyboard-response,8
true,9,1,3,1,true,z,false,true,0.0-2.0-0.32-0.295-3.295,0,1,1,90,false,stim,false,1,1196,2,1,1,54514,WMM2,761271,false,false,988,image-keyboard-response,9
true,9,2,3,0,false,q,true,true,0.0-2.0-0.32-0.296-3.296,0,1,1,68,false,stim,false,0,401,2,1,2,54514,WMM2,763187,false,true,991,image-keyboard-response,10
true,9,2,3,0,false,q,true,false,0.0-2.0-0.33-0.297-3.297,0,1,1,68,false,stim,false,0,578,2,1,2,54514,WMM2,765304,false,false,994,image-keyboard-response,11
true,9,2,3,0,false,q,true,false,0.0-2.0-0.33-0.298-3.298,0,1,1,68,false,stim,false,0,440,2,1,2,54514,WMM2,767276,false,false,997,image-keyboard-response,12
true,9,0,3,0,true,q,false,true,0.0-2.0-0.33-0.299-3.299,0,1,1,81,false,stim,false,2,592,2,0,0,54514,WMM2,769407,false,false,1000,image-keyboard-response,13
true,9,1,3,1,true,z,false,false,0.0-2.0-0.33-0.300-3.300,0,1,1,90,false,stim,false,1,678,2,1,1,54514,WMM2,771634,false,true,1003,image-keyboard-response,14
true,9,0,3,0,true,q,false,true,0.0-2.0-0.33-0.301-3.301,0,1,1,81,false,stim,false,2,500,2,0,0,54514,WMM2,773665,false,false,1006,image-keyboard-response,15
true,9,1,3,1,true,z,false,true,0.0-2.0-0.33-0.302-3.302,0,1,1,90,false,stim,false,1,420,2,1,1,54514,WMM2,775626,false,false,1009,image-keyboard-response,16
true,9,2,3,0,false,q,true,true,0.0-2.0-0.33-0.303-3.303,0,1,1,68,false,stim,false,0,602,2,1,2,54514,WMM2,777757,false,true,1012,image-keyboard-response,17
true,9,1,3,1,true,z,false,true,0.0-2.0-0.33-0.304-3.304,0,1,1,90,false,stim,false,1,757,2,1,1,54514,WMM2,780042,false,false,1015,image-keyboard-response,18
true,9,0,3,0,true,q,false,true,0.0-2.0-0.33-0.305-3.305,0,1,1,81,false,stim,false,2,664,2,0,0,54514,WMM2,782248,false,false,1018,image-keyboard-response,19
true,9,1,3,1,true,z,false,true,0.0-2.0-0.34-0.306-3.306,0,1,1,90,false,stim,false,1,446,2,1,1,54514,WMM2,784220,false,false,1021,image-keyboard-response,20
true,9,0,3,0,true,q,false,false,0.0-2.0-0.34-0.307-3.307,0,1,1,81,false,stim,false,2,672,2,0,0,54514,WMM2,786418,false,true,1024,image-keyboard-response,21
true,9,2,3,0,false,q,true,false,0.0-2.0-0.34-0.308-3.308,0,1,1,68,false,stim,false,0,584,2,1,2,54514,WMM2,788529,false,false,1027,image-keyboard-response,22
true,9,1,3,1,true,z,false,true,0.0-2.0-0.34-0.309-3.309,0,1,1,90,false,stim,false,1,527,2,1,1,54514,WMM2,790592,false,false,1030,image-keyboard-response,23
true,9,0,3,0,true,q,false,true,0.0-2.0-0.34-0.310-3.310,0,1,1,81,false,stim,false,2,656,2,0,0,54514,WMM2,792792,false,false,1033,image-keyboard-response,24
true,9,1,3,1,true,z,false,true,0.0-2.0-0.34-0.311-3.311,0,1,1,90,false,stim,false,1,490,2,1,1,54514,WMM2,794816,false,false,1036,image-keyboard-response,25
true,9,2,3,0,false,q,true,true,0.0-2.0-0.34-0.312-3.312,0,1,1,68,false,stim,false,0,511,2,1,2,54514,WMM2,796861,false,true,1039,image-keyboard-response,26
true,9,0,3,0,true,q,false,true,0.0-2.0-0.34-0.313-3.313,0,1,1,81,false,stim,false,2,685,2,0,0,54514,WMM2,799091,false,false,1042,image-keyboard-response,27
true,9,1,3,0,false,q,true,false,0.0-2.0-0.34-0.314-3.314,0,1,1,90,false,stim,false,0,491,2,1,2,54514,WMM2,801128,false,false,1045,image-keyboard-response,28
true,9,1,3,1,true,z,false,true,0.0-2.0-0.35-0.315-3.315,0,1,1,90,false,stim,false,1,482,2,1,1,54514,WMM2,803157,false,false,1048,image-keyboard-response,29
true,9,2,3,0,false,q,true,false,0.0-2.0-0.35-0.316-3.316,0,1,1,68,false,stim,false,0,429,2,1,2,54514,WMM2,805134,false,false,1051,image-keyboard-response,30
true,9,0,3,0,true,q,false,false,0.0-2.0-0.35-0.317-3.317,0,1,1,81,false,stim,false,2,666,2,0,0,54514,WMM2,807321,false,true,1054,image-keyboard-response,31
true,9,1,3,1,true,z,false,true,0.0-2.0-0.35-0.318-3.318,0,1,1,90,false,stim,false,1,549,2,1,1,54514,WMM2,809416,false,false,1057,image-keyboard-response,32
true,9,0,3,0,true,q,false,true,0.0-2.0-0.35-0.319-3.319,0,1,1,81,false,stim,false,2,682,2,0,0,54514,WMM2,811637,false,false,1060,image-keyboard-response,33
true,9,2,3,0,false,q,true,false,0.0-2.0-0.35-0.320-3.320,0,1,1,68,false,stim,false,0,621,2,1,2,54514,WMM2,813797,false,false,1063,image-keyboard-response,34
true,9,1,3,1,true,z,false,true,0.0-2.0-0.35-0.321-3.321,0,1,1,90,false,stim,false,1,696,2,1,1,54514,WMM2,816041,false,false,1066,image-keyboard-response,35
true,9,0,3,0,true,q,false,true,0.0-2.0-0.35-0.322-3.322,0,1,1,81,false,stim,false,2,600,2,0,0,54514,WMM2,818176,false,false,1069,image-keyboard-response,36
true,9,2,3,0,false,q,true,false,0.0-2.0-0.35-0.323-3.323,0,1,1,68,false,stim,false,0,769,2,1,2,54514,WMM2,820495,false,false,1072,image-keyboard-response,37
true,9,1,3,1,true,z,false,true,0.0-2.0-0.36-0.324-3.324,0,1,1,90,false,stim,false,1,585,2,1,1,54514,WMM2,822609,false,false,1075,image-keyboard-response,38
true,9,0,3,0,true,q,false,true,0.0-2.0-0.36-0.325-3.325,0,1,1,81,false,stim,false,2,513,2,0,0,54514,WMM2,824659,false,false,1078,image-keyboard-response,39
true,9,0,3,0,true,q,false,true,0.0-2.0-0.36-0.326-3.326,0,1,1,81,false,stim,false,2,640,2,0,0,54514,WMM2,826845,false,false,1081,image-keyboard-response,40
true,9,1,3,0,false,q,true,false,0.0-2.0-0.36-0.327-3.327,0,1,1,90,false,stim,false,0,631,2,1,2,54514,WMM2,828997,false,false,1084,image-keyboard-response,41
true,9,0,3,0,true,q,false,true,0.0-2.0-0.36-0.328-3.328,0,1,1,81,false,stim,false,2,632,2,0,0,54514,WMM2,831176,false,false,1087,image-keyboard-response,42
true,9,1,3,1,true,z,false,true,0.0-2.0-0.36-0.329-3.329,0,1,1,90,false,stim,false,1,806,2,1,1,54514,WMM2,833521,false,false,1090,image-keyboard-response,43
true,9,1,3,1,true,z,false,true,0.0-2.0-0.36-0.330-3.330,0,1,1,90,false,stim,false,1,570,2,1,1,54514,WMM2,835627,false,false,1093,image-keyboard-response,44
true,9,0,3,0,true,q,false,true,0.0-2.0-0.36-0.331-3.331,0,1,1,81,false,stim,false,0,654,2,1,2,54514,WMM2,837808,false,false,1096,image-keyboard-response,45
true,9,0,3,0,true,q,false,true,0.0-2.0-0.36-0.332-3.332,0,1,1,81,false,stim,false,0,527,2,1,2,54514,WMM2,839862,false,false,1099,image-keyboard-response,46
true,9,0,3,0,true,q,false,true,0.0-2.0-0.37-0.333-3.333,0,1,1,81,false,stim,false,2,409,2,1,0,54514,WMM2,841821,false,false,1102,image-keyboard-response,47
true,9,0,3,0,true,q,false,false,0.0-2.0-0.37-0.334-3.334,0,1,1,81,false,stim,false,0,538,2,1,2,54514,WMM2,843893,false,true,1105,image-keyboard-response,48
true,9,0,3,0,true,q,false,true,0.0-2.0-0.37-0.335-3.335,0,1,1,81,false,stim,false,0,423,2,1,2,54514,WMM2,845859,false,false,1108,image-keyboard-response,49
true,9,1,3,1,true,z,false,true,0.0-2.0-0.37-0.336-3.336,0,1,1,90,false,stim,false,1,705,2,0,1,54514,WMM2,848090,false,false,1111,image-keyboard-response,50
true,9,0,3,0,true,q,false,true,0.0-2.0-0.37-0.337-3.337,0,1,1,81,false,stim,false,2,753,2,1,0,54514,WMM2,850368,false,false,1114,image-keyboard-response,51
true,9,1,3,1,true,z,false,true,0.0-2.0-0.37-0.338-3.338,0,1,1,90,false,stim,false,1,1297,2,0,1,54514,WMM2,853192,false,false,1117,image-keyboard-response,52
true,9,0,3,0,true,q,false,true,0.0-2.0-0.37-0.339-3.339,0,1,1,81,false,stim,false,2,609,2,1,0,54514,WMM2,855325,false,false,1120,image-keyboard-response,53
true,9,1,3,0,false,q,true,false,0.0-2.0-0.37-0.340-3.340,0,1,1,90,false,stim,false,0,1370,2,1,2,54514,WMM2,858235,false,false,1123,image-keyboard-response,54
true,9,1,3,1,true,z,false,true,0.0-2.0-0.37-0.341-3.341,0,1,1,90,false,stim,false,1,833,2,0,1,54514,WMM2,860608,false,false,1126,image-keyboard-response,55
true,9,1,3,1,true,z,false,true,0.0-2.0-0.38-0.342-3.342,0,1,1,90,false,stim,false,1,705,2,0,1,54514,WMM2,862835,false,false,1129,image-keyboard-response,56
true,10,0,4,0,true,q,false,true,0.0-2.0-0.38-0.343-3.343,1,0,1,81,true,stim,false,0,608,2,1,2,54514,WMM2,864974,false,false,1132,image-keyboard-response,1
true,10,0,4,0,true,q,false,true,0.0-2.0-0.38-0.344-3.344,1,0,1,81,false,stim,false,0,670,2,1,2,54514,WMM2,867166,false,false,1135,image-keyboard-response,2
true,10,1,4,1,true,z,false,true,0.0-2.0-0.38-0.345-3.345,1,0,1,90,false,stim,false,1,814,2,0,1,54514,WMM2,869509,false,false,1138,image-keyboard-response,3
true,10,0,4,0,true,q,false,false,0.0-2.0-0.38-0.346-3.346,1,0,1,81,false,stim,false,0,582,2,1,0,54514,WMM2,871626,false,true,1141,image-keyboard-response,4
true,10,1,4,1,true,z,false,true,0.0-2.0-0.38-0.347-3.347,1,0,1,90,false,stim,false,1,550,2,0,1,54514,WMM2,873715,false,false,1144,image-keyboard-response,5
true,10,0,4,0,true,q,false,false,0.0-2.0-0.38-0.348-3.348,1,0,1,81,false,stim,false,0,577,2,1,0,54514,WMM2,875812,false,true,1147,image-keyboard-response,6
true,10,0,4,0,true,q,false,true,0.0-2.0-0.38-0.349-3.349,1,0,1,81,false,stim,false,0,747,2,1,2,54514,WMM2,878102,false,false,1150,image-keyboard-response,7
true,10,0,4,0,true,q,false,true,0.0-2.0-0.38-0.350-3.350,1,0,1,81,false,stim,false,0,759,2,1,0,54514,WMM2,880405,false,false,1153,image-keyboard-response,8
true,10,1,4,1,true,z,false,true,0.0-2.0-0.39-0.351-3.351,1,0,1,90,false,stim,false,1,624,2,0,1,54514,WMM2,882558,false,false,1156,image-keyboard-response,9
true,10,0,4,0,true,q,false,true,0.0-2.0-0.39-0.352-3.352,1,0,1,81,false,stim,false,0,524,2,1,2,54514,WMM2,884619,false,false,1159,image-keyboard-response,10
true,10,0,4,0,true,q,false,true,0.0-2.0-0.39-0.353-3.353,1,0,1,81,false,stim,false,0,564,2,1,2,54514,WMM2,886700,false,false,1162,image-keyboard-response,11
true,10,0,4,0,true,q,false,false,0.0-2.0-0.39-0.354-3.354,1,0,1,81,false,stim,false,0,863,2,1,0,54514,WMM2,889089,false,true,1165,image-keyboard-response,12
true,10,0,4,0,true,q,false,true,0.0-2.0-0.39-0.355-3.355,1,0,1,81,false,stim,false,0,442,2,1,0,54514,WMM2,891068,false,false,1168,image-keyboard-response,13
true,10,1,4,1,true,z,false,true,0.0-2.0-0.39-0.356-3.356,1,0,1,90,false,stim,false,1,815,2,0,1,54514,WMM2,893401,false,false,1171,image-keyboard-response,14
true,10,1,4,1,true,z,false,true,0.0-2.0-0.39-0.357-3.357,1,0,1,90,false,stim,false,1,468,2,0,1,54514,WMM2,895393,false,false,1174,image-keyboard-response,15
true,10,0,4,0,true,q,false,false,0.0-2.0-0.39-0.358-3.358,1,0,1,81,false,stim,false,0,526,2,1,2,54514,WMM2,897442,false,true,1177,image-keyboard-response,16
true,10,0,4,0,true,q,false,true,0.0-2.0-0.39-0.359-3.359,1,0,1,81,false,stim,false,0,471,2,1,0,54514,WMM2,899445,false,false,1180,image-keyboard-response,17
true,10,1,4,1,true,z,false,true,0.0-2.0-0.40-0.360-3.360,1,0,1,90,false,stim,false,1,689,2,0,1,54514,WMM2,901675,false,false,1183,image-keyboard-response,18
true,10,0,4,0,true,q,false,true,0.0-2.0-0.40-0.361-3.361,1,0,1,81,false,stim,false,0,589,2,1,0,54514,WMM2,903795,false,false,1186,image-keyboard-response,19
true,10,0,4,0,true,q,false,true,0.0-2.0-0.40-0.362-3.362,1,0,1,81,false,stim,false,0,453,2,1,2,54514,WMM2,905769,false,false,1189,image-keyboard-response,20
true,10,0,4,0,true,q,false,true,0.0-2.0-0.40-0.363-3.363,1,0,1,81,false,stim,false,0,580,2,0,2,54514,WMM2,907895,false,false,1192,image-keyboard-response,21
true,10,1,4,1,true,z,false,true,0.0-2.0-0.40-0.364-3.364,1,0,1,90,false,stim,false,1,628,2,1,1,54514,WMM2,910052,false,false,1195,image-keyboard-response,22
true,10,0,4,0,true,q,false,true,0.0-2.0-0.40-0.365-3.365,1,0,1,81,false,stim,false,0,545,2,0,0,54514,WMM2,912121,false,false,1198,image-keyboard-response,23
true,10,0,4,0,true,q,false,true,0.0-2.0-0.40-0.366-3.366,1,0,1,81,false,stim,false,0,697,2,0,2,54514,WMM2,914363,false,false,1201,image-keyboard-response,24
true,10,0,4,0,true,q,false,false,0.0-2.0-0.40-0.367-3.367,1,0,1,81,false,stim,false,0,562,2,0,0,54514,WMM2,916448,false,true,1204,image-keyboard-response,25
true,10,1,4,1,true,z,false,true,0.0-2.0-0.40-0.368-3.368,1,0,1,90,false,stim,false,1,900,2,1,1,54514,WMM2,918886,false,false,1207,image-keyboard-response,26
true,10,0,4,0,true,q,false,true,0.0-2.0-0.41-0.369-3.369,1,0,1,81,false,stim,false,0,560,2,0,2,54514,WMM2,920976,false,false,1210,image-keyboard-response,27
true,10,1,4,1,true,z,false,true,0.0-2.0-0.41-0.370-3.370,1,0,1,90,false,stim,false,1,742,2,1,1,54514,WMM2,923258,false,false,1213,image-keyboard-response,28
true,10,1,4,1,true,z,false,true,0.0-2.0-0.41-0.371-3.371,1,0,1,90,false,stim,false,1,479,2,1,1,54514,WMM2,925253,false,false,1216,image-keyboard-response,29
true,10,0,4,0,true,q,false,true,0.0-2.0-0.41-0.372-3.372,1,0,1,81,false,stim,false,0,537,2,0,0,54514,WMM2,927308,false,false,1219,image-keyboard-response,30
true,11,0,1,1,false,z,false,false,0.0-2.0-0.41-0.373-3.373,0,1,0,81,true,stim,true,0,644,2,0,2,54514,WMM2,929479,false,false,1222,image-keyboard-response,1
true,11,0,1,1,false,z,false,false,0.0-2.0-0.41-0.374-3.374,0,1,0,81,false,stim,true,0,599,2,0,2,54514,WMM2,931615,false,false,1225,image-keyboard-response,2
true,11,1,1,1,true,z,false,true,0.0-2.0-0.41-0.375-3.375,0,1,0,90,false,stim,false,1,675,2,1,1,54514,WMM2,933811,false,false,1228,image-keyboard-response,3
true,11,0,1,2,false,d,false,false,0.0-2.0-0.41-0.376-3.376,0,1,0,81,false,stim,true,0,575,2,0,0,54514,WMM2,935920,false,false,1231,image-keyboard-response,4
true,11,0,1,2,false,d,false,false,0.0-2.0-0.41-0.377-3.377,0,1,0,81,false,stim,true,0,590,2,0,0,54514,WMM2,938026,false,false,1234,image-keyboard-response,5
true,11,1,1,1,true,z,false,true,0.0-2.0-0.42-0.378-3.378,0,1,0,90,false,stim,false,1,595,2,1,1,54514,WMM2,940141,false,false,1237,image-keyboard-response,6
true,11,1,1,1,true,z,false,true,0.0-2.0-0.42-0.379-3.379,0,1,0,90,false,stim,false,1,676,2,1,1,54514,WMM2,942342,false,false,1240,image-keyboard-response,7
true,11,0,1,2,false,d,false,false,0.0-2.0-0.42-0.380-3.380,0,1,0,81,false,stim,true,0,588,2,0,0,54514,WMM2,944453,false,false,1243,image-keyboard-response,8
true,11,0,1,1,false,z,false,false,0.0-2.0-0.42-0.381-3.381,0,1,0,81,false,stim,true,0,619,2,0,2,54514,WMM2,946615,false,false,1246,image-keyboard-response,9
true,11,1,1,1,true,z,false,true,0.0-2.0-0.42-0.382-3.382,0,1,0,90,false,stim,false,0,900,2,0,2,54514,WMM2,949055,false,false,1249,image-keyboard-response,10
true,11,1,1,2,false,d,true,false,0.0-2.0-0.42-0.383-3.383,0,1,0,90,false,stim,false,0,748,2,0,0,54514,WMM2,951335,false,false,1252,image-keyboard-response,11
true,11,1,1,1,true,z,false,true,0.0-2.0-0.42-0.384-3.384,0,1,0,90,false,stim,false,1,596,2,1,1,54514,WMM2,953473,false,false,1255,image-keyboard-response,12
true,11,2,1,2,true,d,false,true,0.0-2.0-0.42-0.385-3.385,0,1,0,68,false,stim,false,0,767,2,0,0,54514,WMM2,955773,false,false,1258,image-keyboard-response,13
true,11,1,1,1,true,z,false,false,0.0-2.0-0.42-0.386-3.386,0,1,0,90,false,stim,false,0,542,2,0,2,54514,WMM2,957846,false,true,1261,image-keyboard-response,14
true,11,2,1,2,true,d,false,true,0.0-2.0-0.43-0.387-3.387,0,1,0,68,false,stim,false,0,655,2,0,0,54514,WMM2,960031,false,false,1264,image-keyboard-response,15
true,11,2,1,2,true,d,false,true,0.0-2.0-0.43-0.388-3.388,0,1,0,68,false,stim,false,0,502,2,0,0,54514,WMM2,962069,false,false,1267,image-keyboard-response,16
true,11,1,1,1,true,z,false,true,0.0-2.0-0.43-0.389-3.389,0,1,0,90,false,stim,false,1,566,2,1,1,54514,WMM2,964171,false,false,1270,image-keyboard-response,17
true,11,1,1,1,true,z,false,true,0.0-2.0-0.43-0.390-3.390,0,1,0,90,false,stim,false,1,649,2,1,1,54514,WMM2,966355,false,false,1273,image-keyboard-response,18
true,11,1,1,1,true,z,false,true,0.0-2.0-0.43-0.391-3.391,0,1,0,90,false,stim,false,0,466,2,0,2,54514,WMM2,968352,false,false,1276,image-keyboard-response,19
true,11,2,1,2,true,d,false,true,0.0-2.0-0.43-0.392-3.392,0,1,0,68,false,stim,false,0,496,2,0,0,54514,WMM2,970391,false,false,1279,image-keyboard-response,20
true,11,2,1,1,false,z,true,false,0.0-2.0-0.43-0.393-3.393,0,1,0,68,false,stim,false,0,1299,2,1,2,54514,WMM2,973235,false,false,1282,image-keyboard-response,21
true,11,1,1,1,true,z,false,true,0.0-2.0-0.43-0.394-3.394,0,1,0,90,false,stim,false,1,933,2,1,1,54514,WMM2,975689,false,false,1285,image-keyboard-response,22
true,11,1,1,1,true,z,false,true,0.0-2.0-0.43-0.395-3.395,0,1,0,90,false,stim,false,0,422,2,1,2,54514,WMM2,977638,false,false,1288,image-keyboard-response,23
true,11,1,1,1,true,z,false,true,0.0-2.0-0.44-0.396-3.396,0,1,0,90,false,stim,false,1,731,2,1,1,54514,WMM2,979886,false,false,1291,image-keyboard-response,24
true,11,1,1,1,true,z,false,true,0.0-2.0-0.44-0.397-3.397,0,1,0,90,false,stim,false,0,585,2,1,2,54514,WMM2,982002,false,false,1294,image-keyboard-response,25
true,11,1,1,1,true,z,false,false,0.0-2.0-0.44-0.398-3.398,0,1,0,90,false,stim,false,1,516,2,1,1,54514,WMM2,984052,false,true,1297,image-keyboard-response,26
true,11,1,1,1,true,z,false,false,0.0-2.0-0.44-0.399-3.399,0,1,0,90,false,stim,false,1,374,2,1,1,54514,WMM2,985969,false,true,1300,image-keyboard-response,27
true,11,2,1,2,true,d,false,true,0.0-2.0-0.44-0.400-3.400,0,1,0,68,false,stim,false,0,796,2,0,0,54514,WMM2,988302,false,false,1303,image-keyboard-response,28
true,11,1,1,1,true,z,false,true,0.0-2.0-0.44-0.401-3.401,0,1,0,90,false,stim,false,0,562,2,1,2,54514,WMM2,990398,false,false,1306,image-keyboard-response,29
true,11,2,1,2,true,d,false,true,0.0-2.0-0.44-0.402-3.402,0,1,0,68,false,stim,false,0,643,2,0,0,54514,WMM2,992569,false,false,1309,image-keyboard-response,30
true,12,2,3,0,false,q,false,false,0.0-2.0-0.44-0.403-3.403,0,1,1,68,true,stim,true,2,519,2,0,0,54514,WMM2,994604,false,false,1312,image-keyboard-response,1
true,12,1,3,1,true,z,false,true,0.0-2.0-0.44-0.404-3.404,0,1,1,90,false,stim,false,1,585,2,1,2,54514,WMM2,996731,false,false,1315,image-keyboard-response,2
true,12,1,3,1,true,z,false,true,0.0-2.0-0.45-0.405-3.405,0,1,1,90,false,stim,false,1,729,2,1,1,54514,WMM2,998995,false,false,1318,image-keyboard-response,3
true,12,2,3,0,false,q,false,false,0.0-2.0-0.45-0.406-3.406,0,1,1,68,false,stim,true,2,575,2,0,0,54514,WMM2,1001111,false,false,1321,image-keyboard-response,4
true,12,2,3,0,false,q,false,false,0.0-2.0-0.45-0.407-3.407,0,1,1,68,false,stim,true,2,546,2,0,0,54514,WMM2,1003202,false,false,1324,image-keyboard-response,5
true,12,2,3,0,false,q,false,false,0.0-2.0-0.45-0.408-3.408,0,1,1,68,false,stim,true,2,625,2,0,0,54514,WMM2,1005360,false,false,1327,image-keyboard-response,6
true,12,1,3,1,true,z,false,true,0.0-2.0-0.45-0.409-3.409,0,1,1,90,false,stim,false,1,600,2,1,2,54514,WMM2,1007476,false,false,1330,image-keyboard-response,7
true,12,1,3,1,true,z,false,false,0.0-2.0-0.45-0.410-3.410,0,1,1,90,false,stim,false,1,595,2,1,2,54514,WMM2,1009610,false,true,1333,image-keyboard-response,8
true,12,1,3,1,true,z,false,true,0.0-2.0-0.45-0.411-3.411,0,1,1,90,false,stim,false,1,553,2,1,2,54514,WMM2,1011698,false,false,1336,image-keyboard-response,9
true,12,1,3,1,true,z,false,true,0.0-2.0-0.45-0.412-3.412,0,1,1,90,false,stim,false,1,654,2,1,1,54514,WMM2,1013881,false,false,1339,image-keyboard-response,10
true,12,1,3,1,true,z,false,true,0.0-2.0-0.45-0.413-3.413,0,1,1,90,false,stim,false,1,480,2,1,1,54514,WMM2,1015896,false,false,1342,image-keyboard-response,11
true,12,1,3,0,false,q,true,false,0.0-2.0-0.46-0.414-3.414,0,1,1,90,false,stim,false,2,536,2,0,0,54514,WMM2,1017971,false,false,1345,image-keyboard-response,12
true,12,1,3,1,true,z,false,true,0.0-2.0-0.46-0.415-3.415,0,1,1,90,false,stim,false,1,619,2,1,1,54514,WMM2,1020126,false,false,1348,image-keyboard-response,13
true,12,0,3,0,true,q,false,true,0.0-2.0-0.46-0.416-3.416,0,1,1,81,false,stim,false,2,766,2,0,0,54514,WMM2,1022421,false,false,1351,image-keyboard-response,14
true,12,0,3,0,true,q,false,true,0.0-2.0-0.46-0.417-3.417,0,1,1,81,false,stim,false,2,436,2,0,0,54514,WMM2,1024391,false,false,1354,image-keyboard-response,15
true,12,1,3,1,true,z,false,false,0.0-2.0-0.46-0.418-3.418,0,1,1,90,false,stim,false,1,569,2,1,1,54514,WMM2,1026495,false,true,1357,image-keyboard-response,16
true,12,1,3,1,true,z,false,true,0.0-2.0-0.46-0.419-3.419,0,1,1,90,false,stim,false,1,804,2,1,2,54514,WMM2,1028829,false,false,1360,image-keyboard-response,17
true,12,1,3,1,true,z,false,true,0.0-2.0-0.46-0.420-3.420,0,1,1,90,false,stim,false,1,523,2,1,1,54514,WMM2,1030889,false,false,1363,image-keyboard-response,18
true,12,0,3,1,false,z,true,false,0.0-2.0-0.46-0.421-3.421,0,1,1,81,false,stim,false,1,663,2,1,2,54514,WMM2,1033080,false,false,1366,image-keyboard-response,19
true,12,1,3,1,true,z,false,true,0.0-2.0-0.46-0.422-3.422,0,1,1,90,false,stim,false,1,429,2,1,2,54514,WMM2,1035035,false,false,1369,image-keyboard-response,20
true,12,1,3,1,true,z,false,true,0.0-2.0-0.47-0.423-3.423,0,1,1,90,false,stim,false,1,472,2,1,2,54514,WMM2,1037056,false,false,1372,image-keyboard-response,21
true,12,1,3,1,true,z,false,false,0.0-2.0-0.47-0.424-3.424,0,1,1,90,false,stim,false,1,628,2,0,1,54514,WMM2,1039225,false,true,1375,image-keyboard-response,22
true,12,1,3,1,true,z,false,true,0.0-2.0-0.47-0.425-3.425,0,1,1,90,false,stim,false,1,501,2,0,1,54514,WMM2,1041246,false,false,1378,image-keyboard-response,23
true,12,1,3,1,true,z,false,false,0.0-2.0-0.47-0.426-3.426,0,1,1,90,false,stim,false,1,520,2,1,2,54514,WMM2,1043295,false,true,1381,image-keyboard-response,24
true,12,0,3,0,true,q,false,true,0.0-2.0-0.47-0.427-3.427,0,1,1,81,false,stim,false,2,843,2,1,0,54514,WMM2,1045668,false,false,1384,image-keyboard-response,25
true,12,1,3,1,true,z,false,true,0.0-2.0-0.47-0.428-3.428,0,1,1,90,false,stim,false,1,695,2,1,2,54514,WMM2,1047890,false,false,1387,image-keyboard-response,26
true,12,0,3,0,true,q,false,true,0.0-2.0-0.47-0.429-3.429,0,1,1,81,false,stim,false,2,840,2,1,0,54514,WMM2,1050256,false,false,1390,image-keyboard-response,27
true,12,1,3,1,true,z,false,true,0.0-2.0-0.47-0.430-3.430,0,1,1,90,false,stim,false,1,507,2,0,1,54514,WMM2,1052303,false,false,1393,image-keyboard-response,28
true,12,0,3,0,true,q,false,false,0.0-2.0-0.47-0.431-3.431,0,1,1,81,false,stim,false,2,624,2,1,0,54514,WMM2,1054470,false,true,1396,image-keyboard-response,29
true,12,1,3,1,true,z,false,false,0.0-2.0-0.48-0.432-3.432,0,1,1,90,false,stim,false,1,469,2,0,1,54514,WMM2,1056475,false,true,1399,image-keyboard-response,30
true,12,1,3,1,true,z,false,true,0.0-2.0-0.48-0.433-3.433,0,1,1,90,false,stim,false,1,454,2,0,1,54514,WMM2,1058489,false,false,1402,image-keyboard-response,31
true,13,1,3,1,true,z,false,true,0.0-2.0-0.48-0.434-3.434,1,0,1,90,true,stim,false,1,744,2,1,2,54514,WMM2,1060760,false,false,1405,image-keyboard-response,1
true,13,1,3,1,true,z,false,true,0.0-2.0-0.48-0.435-3.435,1,0,1,90,false,stim,false,1,526,2,1,2,54514,WMM2,1062812,false,false,1408,image-keyboard-response,2
true,13,0,3,0,true,q,false,false,0.0-2.0-0.48-0.436-3.436,1,0,1,81,false,stim,false,0,641,2,1,0,54514,WMM2,1064996,false,true,1411,image-keyboard-response,3
true,13,1,3,0,false,q,false,false,0.0-2.0-0.48-0.437-3.437,1,0,1,90,false,stim,true,1,552,2,0,1,54514,WMM2,1067079,false,false,1414,image-keyboard-response,4
true,13,0,3,0,true,q,false,true,0.0-2.0-0.48-0.438-3.438,1,0,1,81,false,stim,false,0,614,2,1,0,54514,WMM2,1069209,false,false,1417,image-keyboard-response,5
true,13,1,3,1,true,z,false,true,0.0-2.0-0.48-0.439-3.439,1,0,1,90,false,stim,false,1,550,2,1,2,54514,WMM2,1071296,false,false,1420,image-keyboard-response,6
true,13,0,3,0,true,q,false,true,0.0-2.0-0.48-0.440-3.440,1,0,1,81,false,stim,false,0,588,2,1,0,54514,WMM2,1073414,false,false,1423,image-keyboard-response,7
true,13,0,3,0,true,q,false,false,0.0-2.0-0.49-0.441-3.441,1,0,1,81,false,stim,false,0,451,2,1,0,54514,WMM2,1075395,false,true,1426,image-keyboard-response,8
true,13,1,3,1,true,z,false,true,0.0-2.0-0.49-0.442-3.442,1,0,1,90,false,stim,false,1,615,2,1,2,54514,WMM2,1077531,false,false,1429,image-keyboard-response,9
true,13,1,3,0,false,q,false,false,0.0-2.0-0.49-0.443-3.443,1,0,1,90,false,stim,true,1,575,2,0,1,54514,WMM2,1079641,false,false,1432,image-keyboard-response,10
true,13,0,3,0,true,q,false,true,0.0-2.0-0.49-0.444-3.444,1,0,1,81,false,stim,false,0,522,2,1,0,54514,WMM2,1081698,false,false,1435,image-keyboard-response,11
true,13,0,3,0,true,q,false,true,0.0-2.0-0.49-0.445-3.445,1,0,1,81,false,stim,false,0,502,2,1,0,54514,WMM2,1083718,false,false,1438,image-keyboard-response,12
true,13,1,3,1,true,z,false,true,0.0-2.0-0.49-0.446-3.446,1,0,1,90,false,stim,false,1,644,2,1,2,54514,WMM2,1085890,false,false,1441,image-keyboard-response,13
true,13,1,3,0,false,q,false,false,0.0-2.0-0.49-0.447-3.447,1,0,1,90,false,stim,true,1,602,2,0,1,54514,WMM2,1088017,false,false,1444,image-keyboard-response,14
true,13,1,3,1,true,z,false,false,0.0-2.0-0.49-0.448-3.448,1,0,1,90,false,stim,false,1,568,2,1,2,54514,WMM2,1090114,false,true,1447,image-keyboard-response,15
true,13,2,3,0,false,q,true,false,0.0-2.0-0.49-0.449-3.449,1,0,1,68,false,stim,false,1,473,2,0,1,54514,WMM2,1092118,false,false,1450,image-keyboard-response,16
true,13,0,3,0,true,q,false,true,0.0-2.0-0.50-0.450-3.450,1,0,1,81,false,stim,false,1,511,2,0,1,54514,WMM2,1094156,false,false,1453,image-keyboard-response,17
true,13,0,3,0,true,q,false,true,0.0-2.0-0.50-0.451-3.451,1,0,1,81,false,stim,false,1,520,2,0,1,54514,WMM2,1096215,false,false,1456,image-keyboard-response,18
true,13,0,3,0,true,q,false,false,0.0-2.0-0.50-0.452-3.452,1,0,1,81,false,stim,false,0,718,2,1,0,54514,WMM2,1098474,false,true,1459,image-keyboard-response,19
true,13,1,3,1,true,z,false,true,0.0-2.0-0.50-0.453-3.453,1,0,1,90,false,stim,false,1,631,2,1,2,54514,WMM2,1100636,false,false,1462,image-keyboard-response,20
true,13,1,3,1,true,z,false,true,0.0-2.0-0.50-0.454-3.454,1,0,1,90,false,stim,false,1,597,2,1,2,54514,WMM2,1102763,false,false,1465,image-keyboard-response,21
true,13,1,3,1,true,z,false,true,0.0-2.0-0.50-0.455-3.455,1,0,1,90,false,stim,false,1,390,2,1,2,54514,WMM2,1104688,false,false,1468,image-keyboard-response,22
true,13,0,3,0,true,q,false,true,0.0-2.0-0.50-0.456-3.456,1,0,1,81,false,stim,false,0,542,2,0,0,54514,WMM2,1106757,false,false,1471,image-keyboard-response,23
true,13,0,3,0,true,q,false,true,0.0-2.0-0.50-0.457-3.457,1,0,1,81,false,stim,false,0,554,2,0,0,54514,WMM2,1108841,false,false,1474,image-keyboard-response,24
true,13,0,3,0,true,q,false,true,0.0-2.0-0.50-0.458-3.458,1,0,1,81,false,stim,false,1,926,2,1,1,54514,WMM2,1111311,false,false,1477,image-keyboard-response,25
true,13,1,3,1,true,z,false,false,0.0-2.0-0.51-0.459-3.459,1,0,1,90,false,stim,false,1,545,2,1,2,54514,WMM2,1113391,false,true,1480,image-keyboard-response,26
true,13,0,3,0,true,q,false,true,0.0-2.0-0.51-0.460-3.460,1,0,1,81,false,stim,false,0,621,2,0,0,54514,WMM2,1115546,false,false,1483,image-keyboard-response,27
true,13,0,3,0,true,q,false,true,0.0-2.0-0.51-0.461-3.461,1,0,1,81,false,stim,false,1,888,2,1,1,54514,WMM2,1117975,false,false,1486,image-keyboard-response,28
true,13,1,3,1,true,z,false,true,0.0-2.0-0.51-0.462-3.462,1,0,1,90,false,stim,false,1,676,2,1,2,54514,WMM2,1120192,false,false,1489,image-keyboard-response,29
true,13,0,3,0,true,q,false,true,0.0-2.0-0.51-0.463-3.463,1,0,1,81,false,stim,false,1,518,2,1,1,54514,WMM2,1122245,false,false,1492,image-keyboard-response,30
true,14,0,0,0,true,q,false,true,0.0-2.0-0.51-0.464-3.464,0,1,1,81,true,stim,false,0,788,2,1,1,54514,WMM2,1143174,false,false,1514,image-keyboard-response,1
true,14,0,0,0,true,q,false,true,0.0-2.0-0.51-0.465-3.465,0,1,1,81,false,stim,false,0,435,2,0,0,54514,WMM2,1145150,false,false,1517,image-keyboard-response,2
true,14,0,0,1,false,z,true,false,0.0-2.0-0.51-0.466-3.466,0,1,1,81,false,stim,false,1,424,2,1,2,54514,WMM2,1147110,false,false,1520,image-keyboard-response,3
true,14,0,0,0,true,q,false,true,0.0-2.0-0.51-0.467-3.467,0,1,1,81,false,stim,false,0,379,2,0,0,54514,WMM2,1149016,false,false,1523,image-keyboard-response,4
true,14,0,0,0,true,q,false,true,0.0-2.0-0.52-0.468-3.468,0,1,1,81,false,stim,false,0,415,2,0,0,54514,WMM2,1150970,false,false,1526,image-keyboard-response,5
true,14,0,0,0,true,q,false,true,0.0-2.0-0.52-0.469-3.469,0,1,1,81,false,stim,false,0,412,2,0,0,54514,WMM2,1152907,false,false,1529,image-keyboard-response,6
true,14,0,0,0,true,q,false,true,0.0-2.0-0.52-0.470-3.470,0,1,1,81,false,stim,false,0,409,2,0,0,54514,WMM2,1154855,false,false,1532,image-keyboard-response,7
true,14,0,0,1,false,z,true,false,0.0-2.0-0.52-0.471-3.471,0,1,1,81,false,stim,false,1,436,2,1,2,54514,WMM2,1156822,false,false,1535,image-keyboard-response,8
true,14,1,0,1,true,z,false,true,0.0-2.0-0.52-0.472-3.472,0,1,1,90,false,stim,false,1,619,2,1,2,54514,WMM2,1158975,false,false,1538,image-keyboard-response,9
true,14,0,0,0,true,q,false,true,0.0-2.0-0.52-0.473-3.473,0,1,1,81,false,stim,false,0,538,2,1,1,54514,WMM2,1161043,false,false,1541,image-keyboard-response,10
true,14,0,0,0,true,q,false,true,0.0-2.0-0.52-0.474-3.474,0,1,1,81,false,stim,false,0,549,2,1,1,54514,WMM2,1163134,false,false,1544,image-keyboard-response,11
true,14,0,0,0,true,q,false,true,0.0-2.0-0.52-0.475-3.475,0,1,1,81,false,stim,false,0,486,2,1,1,54514,WMM2,1165142,false,false,1547,image-keyboard-response,12
true,14,0,0,1,false,z,true,false,0.0-2.0-0.52-0.476-3.476,0,1,1,81,false,stim,false,1,785,2,1,2,54514,WMM2,1167461,false,false,1550,image-keyboard-response,13
true,14,0,0,0,true,q,false,true,0.0-2.0-0.53-0.477-3.477,0,1,1,81,false,stim,false,0,534,2,0,0,54514,WMM2,1169530,false,false,1553,image-keyboard-response,14
true,14,0,0,0,true,q,false,true,0.0-2.0-0.53-0.478-3.478,0,1,1,81,false,stim,false,0,660,2,1,1,54514,WMM2,1171726,false,false,1556,image-keyboard-response,15
true,14,0,0,0,true,q,false,true,0.0-2.0-0.53-0.479-3.479,0,1,1,81,false,stim,false,0,551,2,0,0,54514,WMM2,1173795,false,false,1559,image-keyboard-response,16
true,14,1,0,1,true,z,false,true,0.0-2.0-0.53-0.480-3.480,0,1,1,90,false,stim,false,1,561,2,1,2,54514,WMM2,1175897,false,false,1562,image-keyboard-response,17
true,14,1,0,1,true,z,false,true,0.0-2.0-0.53-0.481-3.481,0,1,1,90,false,stim,false,1,390,2,1,2,54514,WMM2,1177826,false,false,1565,image-keyboard-response,18
true,14,1,0,1,true,z,false,true,0.0-2.0-0.53-0.482-3.482,0,1,1,90,false,stim,false,1,398,2,1,2,54514,WMM2,1179764,false,false,1568,image-keyboard-response,19
true,14,0,0,0,true,q,false,true,0.0-2.0-0.53-0.483-3.483,0,1,1,81,false,stim,false,0,480,2,0,0,54514,WMM2,1181777,false,false,1571,image-keyboard-response,20
true,14,0,0,0,true,q,false,false,0.0-2.0-0.53-0.484-3.484,0,1,1,81,false,stim,false,0,576,2,1,1,54514,WMM2,1183891,false,true,1574,image-keyboard-response,21
true,14,0,0,0,true,q,false,true,0.0-2.0-0.53-0.485-3.485,0,1,1,81,false,stim,false,0,372,2,1,1,54514,WMM2,1185788,false,false,1577,image-keyboard-response,22
true,14,1,0,1,true,z,false,true,0.0-2.0-0.54-0.486-3.486,0,1,1,90,false,stim,false,1,685,2,0,2,54514,WMM2,1188000,false,false,1580,image-keyboard-response,23
true,14,0,0,0,true,q,false,false,0.0-2.0-0.54-0.487-3.487,0,1,1,81,false,stim,false,0,627,2,1,1,54514,WMM2,1190157,false,true,1583,image-keyboard-response,24
true,14,1,0,1,true,z,false,true,0.0-2.0-0.54-0.488-3.488,0,1,1,90,false,stim,false,1,579,2,0,2,54514,WMM2,1192266,false,false,1586,image-keyboard-response,25
true,14,0,0,0,true,q,false,true,0.0-2.0-0.54-0.489-3.489,0,1,1,81,false,stim,false,0,599,2,1,1,54514,WMM2,1194407,false,false,1589,image-keyboard-response,26
true,14,0,0,0,true,q,false,true,0.0-2.0-0.54-0.490-3.490,0,1,1,81,false,stim,false,0,526,2,1,1,54514,WMM2,1196457,false,false,1592,image-keyboard-response,27
true,14,0,0,0,true,q,false,true,0.0-2.0-0.54-0.491-3.491,0,1,1,81,false,stim,false,0,374,2,1,0,54514,WMM2,1198362,false,false,1595,image-keyboard-response,28
true,14,0,0,0,true,q,false,false,0.0-2.0-0.54-0.492-3.492,0,1,1,81,false,stim,false,0,375,2,1,0,54514,WMM2,1200260,false,true,1598,image-keyboard-response,29
true,14,0,0,0,true,q,false,false,0.0-2.0-0.54-0.493-3.493,0,1,1,81,false,stim,false,0,392,2,1,0,54514,WMM2,1202215,false,true,1601,image-keyboard-response,30
true,15,1,4,1,true,z,false,true,0.0-2.0-0.54-0.494-3.494,1,1,0,90,true,stim,false,1,606,2,0,2,54514,WMM2,1204358,false,false,1604,image-keyboard-response,1
true,15,0,4,0,true,q,false,true,0.0-2.0-0.55-0.495-3.495,1,1,0,81,false,stim,false,0,881,2,1,0,54514,WMM2,1206777,false,false,1607,image-keyboard-response,2
true,15,0,4,0,true,q,false,true,0.0-2.0-0.55-0.496-3.496,1,1,0,81,false,stim,false,0,594,2,1,1,54514,WMM2,1208891,false,false,1610,image-keyboard-response,3
true,15,0,4,0,true,q,false,true,0.0-2.0-0.55-0.497-3.497,1,1,0,81,false,stim,false,0,548,2,1,1,54514,WMM2,1210964,false,false,1613,image-keyboard-response,4
true,15,1,4,1,true,z,false,true,0.0-2.0-0.55-0.498-3.498,1,1,0,90,false,stim,false,1,489,2,0,2,54514,WMM2,1212995,false,false,1616,image-keyboard-response,5
true,15,1,4,1,true,z,false,true,0.0-2.0-0.55-0.499-3.499,1,1,0,90,false,stim,false,1,484,2,0,2,54514,WMM2,1215019,false,false,1619,image-keyboard-response,6
true,15,0,4,0,true,q,false,true,0.0-2.0-0.55-0.500-3.500,1,1,0,81,false,stim,false,0,499,2,1,0,54514,WMM2,1217056,false,false,1622,image-keyboard-response,7
true,15,1,4,1,true,z,false,false,0.0-2.0-0.55-0.501-3.501,1,1,0,90,false,stim,false,1,640,2,0,2,54514,WMM2,1219226,false,true,1625,image-keyboard-response,8
true,15,0,4,0,true,q,false,true,0.0-2.0-0.55-0.502-3.502,1,1,0,81,false,stim,false,0,467,2,1,0,54514,WMM2,1221232,false,false,1628,image-keyboard-response,9
true,15,0,4,0,true,q,false,false,0.0-2.0-0.55-0.503-3.503,1,1,0,81,false,stim,false,0,569,2,1,1,54514,WMM2,1223335,false,true,1631,image-keyboard-response,10
true,15,1,4,1,true,z,false,false,0.0-2.0-0.56-0.504-3.504,1,1,0,90,false,stim,false,1,567,2,0,2,54514,WMM2,1225444,false,true,1634,image-keyboard-response,11
true,15,0,4,0,true,q,false,true,0.0-2.0-0.56-0.505-3.505,1,1,0,81,false,stim,false,0,731,2,1,1,54514,WMM2,1227707,false,false,1637,image-keyboard-response,12
true,15,1,4,1,true,z,false,true,0.0-2.0-0.56-0.506-3.506,1,1,0,90,false,stim,false,1,576,2,0,2,54514,WMM2,1229803,false,false,1640,image-keyboard-response,13
true,15,0,4,0,true,q,false,true,0.0-2.0-0.56-0.507-3.507,1,1,0,81,false,stim,false,0,716,2,1,1,54514,WMM2,1232053,false,false,1643,image-keyboard-response,14
true,15,0,4,0,true,q,false,true,0.0-2.0-0.56-0.508-3.508,1,1,0,81,false,stim,false,0,541,2,1,0,54514,WMM2,1234127,false,false,1646,image-keyboard-response,15
true,15,1,4,1,true,z,false,true,0.0-2.0-0.56-0.509-3.509,1,1,0,90,false,stim,false,1,466,2,0,2,54514,WMM2,1236123,false,false,1649,image-keyboard-response,16
true,15,0,4,0,true,q,false,false,0.0-2.0-0.56-0.510-3.510,1,1,0,81,false,stim,false,0,424,2,1,0,54514,WMM2,1238090,false,true,1652,image-keyboard-response,17
true,15,0,4,0,true,q,false,true,0.0-2.0-0.56-0.511-3.511,1,1,0,81,false,stim,false,0,1030,2,1,1,54514,WMM2,1240656,false,false,1655,image-keyboard-response,18
true,15,0,4,0,true,q,false,false,0.0-2.0-0.56-0.512-3.512,1,1,0,81,false,stim,false,0,612,2,1,0,54514,WMM2,1242797,false,true,1658,image-keyboard-response,19
true,15,1,4,1,true,z,false,false,0.0-2.0-0.57-0.513-3.513,1,1,0,90,false,stim,false,1,451,2,0,2,54514,WMM2,1244776,false,true,1661,image-keyboard-response,20
true,15,0,4,0,true,q,false,true,0.0-2.0-0.57-0.514-3.514,1,1,0,81,false,stim,false,0,666,2,0,0,54514,WMM2,1246981,false,false,1664,image-keyboard-response,21
true,15,0,4,0,true,q,false,true,0.0-2.0-0.57-0.515-3.515,1,1,0,81,false,stim,false,0,431,2,0,0,54514,WMM2,1248946,false,false,1667,image-keyboard-response,22
true,15,1,4,1,true,z,false,true,0.0-2.0-0.57-0.516-3.516,1,1,0,90,false,stim,false,1,577,2,1,2,54514,WMM2,1251064,false,false,1670,image-keyboard-response,23
true,15,0,4,0,true,q,false,true,0.0-2.0-0.57-0.517-3.517,1,1,0,81,false,stim,false,0,1012,2,1,1,54514,WMM2,1253607,false,false,1673,image-keyboard-response,24
true,15,0,4,0,true,q,false,true,0.0-2.0-0.57-0.518-3.518,1,1,0,81,false,stim,false,0,441,2,1,1,54514,WMM2,1255587,false,false,1676,image-keyboard-response,25
true,15,1,4,1,true,z,false,true,0.0-2.0-0.57-0.519-3.519,1,1,0,90,false,stim,false,1,646,2,1,2,54514,WMM2,1257762,false,false,1679,image-keyboard-response,26
true,15,0,4,0,true,q,false,false,0.0-2.0-0.57-0.520-3.520,1,1,0,81,false,stim,false,0,474,2,1,1,54514,WMM2,1259772,false,true,1682,image-keyboard-response,27
true,15,0,4,0,true,q,false,true,0.0-2.0-0.57-0.521-3.521,1,1,0,81,false,stim,false,0,649,2,0,0,54514,WMM2,1261946,false,false,1685,image-keyboard-response,28
true,15,0,4,0,true,q,false,true,0.0-2.0-0.58-0.522-3.522,1,1,0,81,false,stim,false,0,597,2,1,1,54514,WMM2,1264073,false,false,1688,image-keyboard-response,29
true,15,0,4,0,true,q,false,true,0.0-2.0-0.58-0.523-3.523,1,1,0,81,false,stim,false,0,505,2,0,0,54514,WMM2,1266121,false,false,1691,image-keyboard-response,30
true,16,1,2,1,true,z,false,true,0.0-2.0-0.58-0.524-3.524,0,1,1,90,true,stim,false,1,475,2,1,2,54514,WMM2,1268131,false,false,1694,image-keyboard-response,1
true,16,1,2,1,true,z,false,true,0.0-2.0-0.58-0.525-3.525,0,1,1,90,false,stim,false,1,399,2,1,2,54514,WMM2,1270046,false,false,1697,image-keyboard-response,2
true,16,0,2,1,false,z,false,false,0.0-2.0-0.58-0.526-3.526,0,1,1,81,false,stim,true,0,522,2,0,0,54514,WMM2,1272096,false,false,1700,image-keyboard-response,3
true,16,0,2,0,true,q,false,true,0.0-2.0-0.58-0.527-3.527,0,1,1,81,false,stim,false,0,589,2,1,1,54514,WMM2,1274235,false,false,1703,image-keyboard-response,4
true,16,0,2,1,false,z,false,false,0.0-2.0-0.58-0.528-3.528,0,1,1,81,false,stim,true,0,442,2,0,0,54514,WMM2,1276218,false,false,1706,image-keyboard-response,5
true,16,1,2,1,true,z,false,true,0.0-2.0-0.58-0.529-3.529,0,1,1,90,false,stim,false,1,519,2,1,2,54514,WMM2,1278266,false,false,1709,image-keyboard-response,6
true,16,0,2,0,true,q,false,true,0.0-2.0-0.58-0.530-3.530,0,1,1,81,false,stim,false,0,650,2,1,1,54514,WMM2,1280437,false,false,1712,image-keyboard-response,7
true,16,0,2,1,false,z,false,false,0.0-2.0-0.59-0.531-3.531,0,1,1,81,false,stim,true,0,381,2,0,0,54514,WMM2,1282357,false,false,1715,image-keyboard-response,8
true,16,1,2,0,false,q,true,true,0.0-2.0-0.59-0.532-3.532,0,1,1,90,false,stim,false,0,423,2,1,1,54514,WMM2,1284310,false,true,1718,image-keyboard-response,9
true,16,1,2,1,true,z,false,true,0.0-2.0-0.59-0.533-3.533,0,1,1,90,false,stim,false,1,602,2,1,2,54514,WMM2,1286440,false,false,1721,image-keyboard-response,10
true,16,0,2,0,true,q,false,true,0.0-2.0-0.59-0.534-3.534,0,1,1,81,false,stim,false,0,455,2,1,1,54514,WMM2,1288429,false,false,1724,image-keyboard-response,11
true,16,0,2,0,true,q,false,true,0.0-2.0-0.59-0.535-3.535,0,1,1,81,false,stim,false,0,481,2,1,1,54514,WMM2,1290474,false,false,1727,image-keyboard-response,12
true,16,1,2,1,true,z,false,true,0.0-2.0-0.59-0.536-3.536,0,1,1,90,false,stim,false,0,871,2,0,0,54514,WMM2,1292888,false,false,1730,image-keyboard-response,13
true,16,1,2,1,true,z,false,true,0.0-2.0-0.59-0.537-3.537,0,1,1,90,false,stim,false,0,478,2,0,0,54514,WMM2,1294895,false,false,1733,image-keyboard-response,14
true,16,1,2,1,true,z,false,true,0.0-2.0-0.59-0.538-3.538,0,1,1,90,false,stim,false,1,549,2,1,2,54514,WMM2,1296975,false,false,1736,image-keyboard-response,15
true,16,1,2,1,true,z,false,true,0.0-2.0-0.59-0.539-3.539,0,1,1,90,false,stim,false,1,439,2,1,2,54514,WMM2,1298951,false,false,1739,image-keyboard-response,16
true,16,1,2,1,true,z,false,false,0.0-2.0-0.60-0.540-3.540,0,1,1,90,false,stim,false,1,467,2,1,2,54514,WMM2,1300955,false,true,1742,image-keyboard-response,17
true,16,0,2,0,true,q,false,true,0.0-2.0-0.60-0.541-3.541,0,1,1,81,false,stim,false,0,704,2,1,1,54514,WMM2,1303191,false,false,1745,image-keyboard-response,18
true,16,1,2,1,true,z,false,true,0.0-2.0-0.60-0.542-3.542,0,1,1,90,false,stim,false,0,517,2,0,0,54514,WMM2,1305254,false,false,1748,image-keyboard-response,19
true,16,1,2,1,true,z,false,true,0.0-2.0-0.60-0.543-3.543,0,1,1,90,false,stim,false,1,450,2,1,2,54514,WMM2,1307238,false,false,1751,image-keyboard-response,20
true,16,1,2,1,true,z,false,false,0.0-2.0-0.60-0.544-3.544,0,1,1,90,false,stim,false,1,469,2,0,2,54514,WMM2,1309265,false,true,1754,image-keyboard-response,21
true,16,1,2,1,true,z,false,true,0.0-2.0-0.60-0.545-3.545,0,1,1,90,false,stim,false,0,452,2,1,0,54514,WMM2,1311243,false,false,1757,image-keyboard-response,22
true,16,0,2,0,true,q,false,false,0.0-2.0-0.60-0.546-3.546,0,1,1,81,false,stim,false,0,623,2,1,1,54514,WMM2,1313400,false,true,1760,image-keyboard-response,23
true,16,0,2,0,true,q,false,true,0.0-2.0-0.60-0.547-3.547,0,1,1,81,false,stim,false,0,410,2,1,1,54514,WMM2,1315341,false,false,1763,image-keyboard-response,24
true,16,1,2,1,true,z,false,true,0.0-2.0-0.60-0.548-3.548,0,1,1,90,false,stim,false,0,521,2,1,0,54514,WMM2,1317408,false,false,1766,image-keyboard-response,25
true,16,0,2,0,true,q,false,true,0.0-2.0-0.61-0.549-3.549,0,1,1,81,false,stim,false,0,624,2,1,1,54514,WMM2,1319560,false,false,1769,image-keyboard-response,26
true,16,1,2,1,true,z,false,false,0.0-2.0-0.61-0.550-3.550,0,1,1,90,false,stim,false,0,1056,2,1,0,54514,WMM2,1322143,false,true,1772,image-keyboard-response,27
true,16,1,2,1,true,z,false,true,0.0-2.0-0.61-0.551-3.551,0,1,1,90,false,stim,false,1,432,2,0,2,54514,WMM2,1324110,false,false,1775,image-keyboard-response,28
true,16,1,2,1,true,z,false,true,0.0-2.0-0.61-0.552-3.552,0,1,1,90,false,stim,false,0,548,2,1,0,54514,WMM2,1326183,false,false,1778,image-keyboard-response,29
true,16,1,2,1,true,z,false,false,0.0-2.0-0.61-0.553-3.553,0,1,1,90,false,stim,false,1,570,2,0,2,54514,WMM2,1328287,false,true,1781,image-keyboard-response,30
true,17,1,2,0,false,q,false,true,0.0-2.0-0.61-0.554-3.554,1,1,0,90,true,stim,true,1,536,2,0,2,54514,WMM2,1330363,false,true,1784,image-keyboard-response,1
true,17,0,2,0,true,q,false,true,0.0-2.0-0.61-0.555-3.555,1,1,0,81,false,stim,false,0,711,2,1,1,54514,WMM2,1332609,false,false,1787,image-keyboard-response,2
true,17,0,2,0,true,q,false,true,0.0-2.0-0.61-0.556-3.556,1,1,0,81,false,stim,false,0,485,2,1,1,54514,WMM2,1334622,false,false,1790,image-keyboard-response,3
true,17,1,2,1,true,z,false,true,0.0-2.0-0.61-0.557-3.557,1,1,0,90,false,stim,false,1,583,2,1,0,54514,WMM2,1336728,false,false,1793,image-keyboard-response,4
true,17,0,2,0,true,q,false,true,0.0-2.0-0.62-0.558-3.558,1,1,0,81,false,stim,false,0,1040,2,1,1,54514,WMM2,1339286,false,false,1796,image-keyboard-response,5
true,17,1,2,0,false,q,false,false,0.0-2.0-0.62-0.559-3.559,1,1,0,90,false,stim,true,1,643,2,0,2,54514,WMM2,1341465,false,false,1799,image-keyboard-response,6
true,17,0,2,0,true,q,false,true,0.0-2.0-0.62-0.560-3.560,1,1,0,81,false,stim,false,0,961,2,1,1,54514,WMM2,1343988,false,false,1802,image-keyboard-response,7
true,17,1,2,1,true,z,false,true,0.0-2.0-0.62-0.561-3.561,1,1,0,90,false,stim,false,1,698,2,1,0,54514,WMM2,1346210,false,false,1805,image-keyboard-response,8
true,17,1,2,0,false,q,false,false,0.0-2.0-0.62-0.562-3.562,1,1,0,90,false,stim,true,1,1110,2,0,2,54514,WMM2,1348845,false,false,1808,image-keyboard-response,9
true,17,0,2,0,true,q,false,true,0.0-2.0-0.62-0.563-3.563,1,1,0,81,false,stim,false,0,598,2,1,1,54514,WMM2,1350973,false,false,1811,image-keyboard-response,10
true,17,1,2,1,true,z,false,true,0.0-2.0-0.62-0.564-3.564,1,1,0,90,false,stim,false,1,583,2,1,0,54514,WMM2,1353088,false,false,1814,image-keyboard-response,11
true,17,1,2,0,false,q,false,false,0.0-2.0-0.62-0.565-3.565,1,1,0,90,false,stim,true,1,615,2,0,2,54514,WMM2,1355231,false,false,1817,image-keyboard-response,12
true,17,1,2,1,true,z,false,true,0.0-2.0-0.62-0.566-3.566,1,1,0,90,false,stim,false,1,1513,2,1,0,54514,WMM2,1358290,false,false,1820,image-keyboard-response,13
true,17,1,2,0,false,q,false,false,0.0-2.0-0.63-0.567-3.567,1,1,0,90,false,stim,true,1,560,2,0,2,54514,WMM2,1360377,false,false,1823,image-keyboard-response,14
true,17,1,2,1,true,z,false,true,0.0-2.0-0.63-0.568-3.568,1,1,0,90,false,stim,false,1,594,2,1,0,54514,WMM2,1362500,false,false,1826,image-keyboard-response,15
true,17,0,2,0,true,q,false,true,0.0-2.0-0.63-0.569-3.569,1,1,0,81,false,stim,false,0,617,2,1,1,54514,WMM2,1364652,false,false,1829,image-keyboard-response,16
true,17,2,2,0,false,q,true,false,0.0-2.0-0.63-0.570-3.570,1,1,0,68,false,stim,false,1,490,2,0,2,54514,WMM2,1366676,false,false,1832,image-keyboard-response,17
true,17,0,2,0,true,q,false,true,0.0-2.0-0.63-0.571-3.571,1,1,0,81,false,stim,false,1,683,2,0,2,54514,WMM2,1368890,false,false,1835,image-keyboard-response,18
true,17,0,2,0,true,q,false,true,0.0-2.0-0.63-0.572-3.572,1,1,0,81,false,stim,false,0,574,2,1,1,54514,WMM2,1370981,false,false,1838,image-keyboard-response,19
true,17,1,2,1,true,z,false,true,0.0-2.0-0.63-0.573-3.573,1,1,0,90,false,stim,false,1,530,2,1,0,54514,WMM2,1373036,false,false,1841,image-keyboard-response,20
true,17,0,2,0,true,q,false,true,0.0-2.0-0.63-0.574-3.574,1,1,0,81,false,stim,false,0,550,2,1,1,54514,WMM2,1375126,false,false,1844,image-keyboard-response,21
true,17,1,2,1,true,z,false,true,0.0-2.0-0.63-0.575-3.575,1,1,0,90,false,stim,false,1,643,2,1,0,54514,WMM2,1377320,false,false,1847,image-keyboard-response,22
true,17,0,2,0,true,q,false,true,0.0-2.0-0.64-0.576-3.576,1,1,0,81,false,stim,false,0,634,2,1,1,54514,WMM2,1379480,false,false,1850,image-keyboard-response,23
true,17,0,2,0,true,q,false,true,0.0-2.0-0.64-0.577-3.577,1,1,0,81,false,stim,false,1,430,2,0,2,54514,WMM2,1381455,false,false,1853,image-keyboard-response,24
true,17,0,2,0,true,q,false,false,0.0-2.0-0.64-0.578-3.578,1,1,0,81,false,stim,false,1,561,2,0,2,54514,WMM2,1383557,false,true,1856,image-keyboard-response,25
true,17,1,2,1,true,z,false,false,0.0-2.0-0.64-0.579-3.579,1,1,0,90,false,stim,false,1,580,2,0,0,54514,WMM2,1385677,false,true,1859,image-keyboard-response,26
true,17,1,2,1,true,z,false,true,0.0-2.0-0.64-0.580-3.580,1,1,0,90,false,stim,false,1,505,2,0,0,54514,WMM2,1387721,false,false,1862,image-keyboard-response,27
true,17,0,2,0,true,q,false,true,0.0-2.0-0.64-0.581-3.581,1,1,0,81,false,stim,false,1,693,2,0,2,54514,WMM2,1389961,false,false,1865,image-keyboard-response,28
true,17,1,2,1,true,z,false,true,0.0-2.0-0.64-0.582-3.582,1,1,0,90,false,stim,false,1,569,2,0,0,54514,WMM2,1392055,false,false,1868,image-keyboard-response,29
true,17,0,2,0,true,q,false,true,0.0-2.0-0.64-0.583-3.583,1,1,0,81,false,stim,false,0,770,2,1,1,54514,WMM2,1394367,false,false,1871,image-keyboard-response,30
true,17,0,2,0,true,q,false,true,0.0-2.0-0.64-0.584-3.584,1,1,0,81,false,stim,false,0,488,2,1,1,54514,WMM2,1396375,false,false,1874,image-keyboard-response,31
true,17,0,2,0,true,q,false,true,0.0-2.0-0.65-0.585-3.585,1,1,0,81,false,stim,false,1,670,2,0,2,54514,WMM2,1398587,false,false,1877,image-keyboard-response,32
true,17,1,2,1,true,z,false,true,0.0-2.0-0.65-0.586-3.586,1,1,0,90,false,stim,false,1,837,2,0,0,54514,WMM2,1400964,false,false,1880,image-keyboard-response,33
true,17,0,2,0,true,q,false,true,0.0-2.0-0.65-0.587-3.587,1,1,0,81,false,stim,false,0,824,2,1,1,54514,WMM2,1403310,false,false,1883,image-keyboard-response,34
true,18,0,1,0,true,q,false,true,0.0-2.0-0.65-0.588-3.588,0,1,0,81,true,stim,false,0,518,2,1,1,54514,WMM2,1405356,false,false,1886,image-keyboard-response,1
true,18,0,1,2,false,d,false,false,0.0-2.0-0.65-0.589-3.589,0,1,0,81,false,stim,true,0,619,2,0,2,54514,WMM2,1407516,false,false,1889,image-keyboard-response,2
true,18,1,1,0,false,q,false,false,0.0-2.0-0.65-0.590-3.590,0,1,0,90,false,stim,true,1,543,2,0,0,54514,WMM2,1409580,false,false,1892,image-keyboard-response,3
true,18,0,1,0,true,q,false,true,0.0-2.0-0.65-0.591-3.591,0,1,0,81,false,stim,false,0,612,2,1,1,54514,WMM2,1411709,false,false,1895,image-keyboard-response,4
true,18,1,1,0,false,q,false,false,0.0-2.0-0.65-0.592-3.592,0,1,0,90,false,stim,true,1,543,2,0,0,54514,WMM2,1413780,false,false,1898,image-keyboard-response,5
true,18,0,1,2,false,d,false,false,0.0-2.0-0.65-0.593-3.593,0,1,0,81,false,stim,true,0,725,2,0,2,54514,WMM2,1416052,false,false,1901,image-keyboard-response,6
true,18,1,1,0,false,q,false,false,0.0-2.0-0.66-0.594-3.594,0,1,0,90,false,stim,true,1,550,2,0,0,54514,WMM2,1418127,false,false,1904,image-keyboard-response,7
true,18,1,1,2,false,d,true,false,0.0-2.0-0.66-0.595-3.595,0,1,0,90,false,stim,false,0,400,2,0,2,54514,WMM2,1420046,false,false,1907,image-keyboard-response,8
true,18,0,1,0,true,q,false,true,0.0-2.0-0.66-0.596-3.596,0,1,0,81,false,stim,false,0,710,2,1,1,54514,WMM2,1422286,false,false,1910,image-keyboard-response,9
true,18,0,1,0,true,q,false,true,0.0-2.0-0.66-0.597-3.597,0,1,0,81,false,stim,false,0,570,2,1,1,54514,WMM2,1424387,false,false,1913,image-keyboard-response,10
true,18,0,1,2,false,d,false,false,0.0-2.0-0.66-0.598-3.598,0,1,0,81,false,stim,true,0,608,2,0,2,54514,WMM2,1426525,false,false,1916,image-keyboard-response,11
true,18,2,1,0,false,q,true,false,0.0-2.0-0.66-0.599-3.599,0,1,0,68,false,stim,false,1,1226,2,0,0,54514,WMM2,1429272,false,false,1919,image-keyboard-response,12
true,18,0,1,0,true,q,false,true,0.0-2.0-0.66-0.600-3.600,0,1,0,81,false,stim,false,0,705,2,1,1,54514,WMM2,1431513,false,false,1922,image-keyboard-response,13
true,18,2,1,2,true,d,false,true,0.0-2.0-0.66-0.601-3.601,0,1,0,68,false,stim,false,0,777,2,0,2,54514,WMM2,1433833,false,false,1925,image-keyboard-response,14
true,18,0,1,0,true,q,false,true,0.0-2.0-0.66-0.602-3.602,0,1,0,81,false,stim,false,1,734,2,0,0,54514,WMM2,1436111,false,false,1928,image-keyboard-response,15
true,18,0,1,0,true,q,false,true,0.0-2.0-0.67-0.603-3.603,0,1,0,81,false,stim,false,1,575,2,0,0,54514,WMM2,1438213,false,false,1931,image-keyboard-response,16
true,18,0,1,0,true,q,false,true,0.0-2.0-0.67-0.604-3.604,0,1,0,81,false,stim,false,1,541,2,0,0,54514,WMM2,1440297,false,false,1934,image-keyboard-response,17
true,18,2,1,2,true,d,false,true,0.0-2.0-0.67-0.605-3.605,0,1,0,68,false,stim,false,0,750,2,0,2,54514,WMM2,1442578,false,false,1937,image-keyboard-response,18
true,18,2,1,2,true,d,false,true,0.0-2.0-0.67-0.606-3.606,0,1,0,68,false,stim,false,0,566,2,0,2,54514,WMM2,1444682,false,false,1940,image-keyboard-response,19
true,18,2,1,2,true,d,false,false,0.0-2.0-0.67-0.607-3.607,0,1,0,68,false,stim,false,0,408,2,0,2,54514,WMM2,1446634,false,true,1943,image-keyboard-response,20
true,18,0,1,0,true,q,false,true,0.0-2.0-0.67-0.608-3.608,0,1,0,81,false,stim,false,1,583,2,0,0,54514,WMM2,1448770,false,false,1946,image-keyboard-response,21
true,18,0,1,0,true,q,false,true,0.0-2.0-0.67-0.609-3.609,0,1,0,81,false,stim,false,0,733,2,0,1,54514,WMM2,1451040,false,false,1949,image-keyboard-response,22
true,18,0,1,0,true,q,false,true,0.0-2.0-0.67-0.610-3.610,0,1,0,81,false,stim,false,0,465,2,0,1,54514,WMM2,1453041,false,false,1952,image-keyboard-response,23
true,18,0,1,0,true,q,false,true,0.0-2.0-0.67-0.611-3.611,0,1,0,81,false,stim,false,0,404,2,0,1,54514,WMM2,1454980,false,false,1955,image-keyboard-response,24
true,18,0,1,0,true,q,false,false,0.0-2.0-0.68-0.612-3.612,0,1,0,81,false,stim,false,0,526,2,0,1,54514,WMM2,1457031,false,true,1958,image-keyboard-response,25
true,18,0,1,0,true,q,false,false,0.0-2.0-0.68-0.613-3.613,0,1,0,81,false,stim,false,1,650,2,0,0,54514,WMM2,1459217,false,true,1961,image-keyboard-response,26
true,18,0,1,0,true,q,false,true,0.0-2.0-0.68-0.614-3.614,0,1,0,81,false,stim,false,1,528,2,0,0,54514,WMM2,1461285,false,false,1964,image-keyboard-response,27
true,18,0,1,0,true,q,false,true,0.0-2.0-0.68-0.615-3.615,0,1,0,81,false,stim,false,0,580,2,0,1,54514,WMM2,1463396,false,false,1967,image-keyboard-response,28
true,18,2,1,2,true,d,false,true,0.0-2.0-0.68-0.616-3.616,0,1,0,68,false,stim,false,0,564,2,1,2,54514,WMM2,1465491,false,false,1970,image-keyboard-response,29
true,18,0,1,0,true,q,false,true,0.0-2.0-0.68-0.617-3.617,0,1,0,81,false,stim,false,0,752,2,0,1,54514,WMM2,1467769,false,false,1973,image-keyboard-response,30
true,19,2,1,2,true,d,false,false,0.0-2.0-0.68-0.618-3.618,0,0,1,68,true,stim,false,2,842,2,1,2,54514,WMM2,1470140,false,true,1976,image-keyboard-response,1
true,19,0,1,2,false,d,false,false,0.0-2.0-0.68-0.619-3.619,0,0,1,81,false,stim,true,0,618,2,0,0,54514,WMM2,1472285,false,false,1979,image-keyboard-response,2
true,19,2,1,2,true,d,false,true,0.0-2.0-0.68-0.620-3.620,0,0,1,68,false,stim,false,2,621,2,1,2,54514,WMM2,1474446,false,false,1982,image-keyboard-response,3
true,19,0,1,1,false,z,false,false,0.0-2.0-0.69-0.621-3.621,0,0,1,81,false,stim,true,0,589,2,0,1,54514,WMM2,1476565,false,false,1985,image-keyboard-response,4
true,19,2,1,2,true,d,false,true,0.0-2.0-0.69-0.622-3.622,0,0,1,68,false,stim,false,2,751,2,1,2,54514,WMM2,1478848,false,false,1988,image-keyboard-response,5
true,19,0,1,2,false,d,false,false,0.0-2.0-0.69-0.623-3.623,0,0,1,81,false,stim,true,0,498,2,0,0,54514,WMM2,1480885,false,false,1991,image-keyboard-response,6
true,19,1,1,2,false,d,true,true,0.0-2.0-0.69-0.624-3.624,0,0,1,90,false,stim,false,0,691,2,0,0,54514,WMM2,1483109,false,true,1994,image-keyboard-response,7
true,19,2,1,2,true,d,false,false,0.0-2.0-0.69-0.625-3.625,0,0,1,68,false,stim,false,2,729,2,1,2,54514,WMM2,1485367,false,true,1997,image-keyboard-response,8
true,19,0,1,1,false,z,false,false,0.0-2.0-0.69-0.626-3.626,0,0,1,81,false,stim,true,0,671,2,0,1,54514,WMM2,1487578,false,false,2000,image-keyboard-response,9
true,19,2,1,2,true,d,false,true,0.0-2.0-0.69-0.627-3.627,0,0,1,68,false,stim,false,2,580,2,1,2,54514,WMM2,1489715,false,false,2003,image-keyboard-response,10
true,19,1,1,2,false,d,true,false,0.0-2.0-0.69-0.628-3.628,0,0,1,90,false,stim,false,0,601,2,0,0,54514,WMM2,1491859,false,false,2006,image-keyboard-response,11
true,19,1,1,1,true,z,false,true,0.0-2.0-0.69-0.629-3.629,0,0,1,90,false,stim,false,0,849,2,0,1,54514,WMM2,1494235,false,false,2009,image-keyboard-response,12
true,19,2,1,2,true,d,false,true,0.0-2.0-0.70-0.630-3.630,0,0,1,68,false,stim,false,2,644,2,1,2,54514,WMM2,1496421,false,false,2012,image-keyboard-response,13
true,19,2,1,2,true,d,false,true,0.0-2.0-0.70-0.631-3.631,0,0,1,68,false,stim,false,2,499,2,1,2,54514,WMM2,1498455,false,false,2015,image-keyboard-response,14
true,19,1,1,1,true,z,false,false,0.0-2.0-0.70-0.632-3.632,0,0,1,90,false,stim,false,0,465,2,0,1,54514,WMM2,1500461,false,true,2018,image-keyboard-response,15
true,19,1,1,2,false,d,true,true,0.0-2.0-0.70-0.633-3.633,0,0,1,90,false,stim,false,0,460,2,0,0,54514,WMM2,1502466,false,true,2021,image-keyboard-response,16
true,19,1,1,1,true,z,false,true,0.0-2.0-0.70-0.634-3.634,0,0,1,90,false,stim,false,0,407,2,0,1,54514,WMM2,1504405,false,false,2024,image-keyboard-response,17
true,19,1,1,1,true,z,false,true,0.0-2.0-0.70-0.635-3.635,0,0,1,90,false,stim,false,0,415,2,0,1,54514,WMM2,1506351,false,false,2027,image-keyboard-response,18
true,19,2,1,2,true,d,false,false,0.0-2.0-0.70-0.636-3.636,0,0,1,68,false,stim,false,2,596,2,1,2,54514,WMM2,1508483,false,true,2030,image-keyboard-response,19
true,19,1,1,2,false,d,true,false,0.0-2.0-0.70-0.637-3.637,0,0,1,90,false,stim,false,0,863,2,0,0,54514,WMM2,1510890,false,false,2033,image-keyboard-response,20
true,19,1,1,2,false,d,true,false,0.0-2.0-0.70-0.638-3.638,0,0,1,90,false,stim,false,0,826,2,0,0,54514,WMM2,1513261,false,false,2036,image-keyboard-response,21
true,19,1,1,2,false,d,true,false,0.0-2.0-0.71-0.639-3.639,0,0,1,90,false,stim,false,0,483,2,0,0,54514,WMM2,1515299,false,false,2039,image-keyboard-response,22
