answered,blockNum,choice,condition,corResp,correct,correct_response,explo,fb,internal_node_id,isStable_1,isStable_2,isStable_3,key_press,newBlock,part,persev,persevResp,rt,sessNum,stableAS,stimulus,subject,task,time_elapsed,training,trap,trial_index,trial_type,trialsInBlock
true,1,0,0,1,false,z,true,false,0.0-2.0-0.0-0.0-3.0,0,0,0,81,true,stim,false,-1,804,3,0,0,54514,WMM2,268188,false,false,118,image-keyboard-response,1
true,1,0,0,2,false,d,true,false,0.0-2.0-0.0-0.1-3.1,0,0,0,81,false,stim,false,-1,368,3,0,2,54514,WMM2,270079,false,false,121,image-keyboard-response,2
true,1,0,0,2,false,d,true,true,0.0-2.0-0.0-0.2-3.2,0,0,0,81,false,stim,false,-1,333,3,0,1,54514,WMM2,271939,false,true,124,image-keyboard-response,3
true,1,0,0,2,false,d,true,true,0.0-2.0-0.0-0.3-3.3,0,0,0,81,false,stim,false,-1,650,3,0,1,54514,WMM2,274102,false,true,127,image-keyboard-response,4
true,1,0,0,2,false,d,true,false,0.0-2.0-0.0-0.4-3.4,0,0,0,81,false,stim,false,-1,354,3,0,1,54514,WMM2,275979,false,false,130,image-keyboard-response,5
true,1,1,0,2,false,d,true,false,0.0-2.0-0.0-0.5-3.5,0,0,0,90,false,stim,false,-1,588,3,0,2,54514,WMM2,278098,false,false,133,image-keyboard-response,6
true,1,1,0,1,true,z,false,true,0.0-2.0-0.0-0.6-3.6,0,0,0,90,false,stim,false,-1,488,3,0,0,54514,WMM2,280104,false,false,136,image-keyboard-response,7
true,1,2,0,2,true,d,false,true,0.0-2.0-0.0-0.7-3.7,0,0,0,68,false,stim,false,-1,945,3,0,2,54514,WMM2,282569,false,false,139,image-keyboard-response,8
true,1,1,0,1,true,z,false,true,0.0-2.0-0.0-0.8-3.8,0,0,0,90,false,stim,false,-1,540,3,0,0,54514,WMM2,284627,false,false,142,image-keyboard-response,9
true,1,1,0,1,true,z,false,true,0.0-2.0-0.1-0.9-3.9,0,0,0,90,false,stim,false,-1,513,3,0,0,54514,WMM2,286668,false,false,145,image-keyboard-response,10
true,1,0,0,2,false,d,true,false,0.0-2.0-0.1-0.10-3.10,0,0,0,81,false,stim,false,-1,562,3,0,1,54514,WMM2,288748,false,false,148,image-keyboard-response,11
true,1,2,0,2,true,d,false,true,0.0-2.0-0.1-0.11-3.11,0,0,0,68,false,stim,false,-1,957,3,0,2,54514,WMM2,291219,false,false,151,image-keyboard-response,12
true,1,1,0,1,true,z,false,true,0.0-2.0-0.1-0.12-3.12,0,0,0,90,false,stim,false,-1,468,3,0,0,54514,WMM2,293214,false,false,154,image-keyboard-response,13
true,1,2,0,2,true,d,false,true,0.0-2.0-0.1-0.13-3.13,0,0,0,68,false,stim,false,-1,810,3,0,2,54514,WMM2,295538,false,false,157,image-keyboard-response,14
true,1,1,0,1,true,z,false,true,0.0-2.0-0.1-0.14-3.14,0,0,0,90,false,stim,false,-1,608,3,0,0,54514,WMM2,297669,false,false,160,image-keyboard-response,15
true,1,2,0,2,true,d,false,true,0.0-2.0-0.1-0.15-3.15,0,0,0,68,false,stim,false,-1,661,3,0,2,54514,WMM2,299849,false,false,163,image-keyboard-response,16
true,1,0,0,2,false,d,true,false,0.0-2.0-0.1-0.16-3.16,0,0,0,81,false,stim,false,-1,590,3,0,1,54514,WMM2,301954,false,false,166,image-keyboard-response,17
true,1,0,0,2,false,d,true,false,0.0-2.0-0.1-0.17-3.17,0,0,0,81,false,stim,false,-1,483,3,0,1,54514,WMM2,303958,false,false,169,image-keyboard-response,18
true,1,1,0,1,true,z,false,true,0.0-2.0-0.2-0.18-3.18,0,0,0,90,false,stim,false,-1,736,3,0,0,54514,WMM2,306211,false,false,172,image-keyboard-response,19
true,1,0,0,2,false,d,true,false,0.0-2.0-0.2-0.19-3.19,0,0,0,81,false,stim,false,-1,868,3,0,1,54514,WMM2,308585,false,false,175,image-keyboard-response,20
true,1,2,0,2,true,d,false,true,0.0-2.0-0.2-0.20-3.20,0,0,0,68,false,stim,false,-1,725,3,0,2,54514,WMM2,310833,false,false,178,image-keyboard-response,21
true,1,1,0,2,false,d,true,true,0.0-2.0-0.2-0.21-3.21,0,0,0,90,false,stim,false,-1,501,3,0,1,54514,WMM2,312848,false,true,181,image-keyboard-response,22
true,1,2,0,2,true,d,false,false,0.0-2.0-0.2-0.22-3.22,0,0,0,68,false,stim,false,-1,668,3,0,2,54514,WMM2,315042,false,true,184,image-keyboard-response,23
true,1,2,0,2,true,d,false,true,0.0-2.0-0.2-0.23-3.23,0,0,0,68,false,stim,false,-1,586,3,0,2,54514,WMM2,317143,false,false,187,image-keyboard-response,24
true,1,1,0,1,true,z,false,true,0.0-2.0-0.2-0.24-3.24,0,0,0,90,false,stim,false,-1,424,3,0,0,54514,WMM2,319090,false,false,190,image-keyboard-response,25
true,1,1,0,1,true,z,false,true,0.0-2.0-0.2-0.25-3.25,0,0,0,90,false,stim,false,-1,523,3,0,0,54514,WMM2,321139,false,false,193,image-keyboard-response,26
true,1,1,0,2,false,d,true,false,0.0-2.0-0.2-0.26-3.26,0,0,0,90,false,stim,false,-1,883,3,0,1,54514,WMM2,323538,false,false,196,image-keyboard-response,27
true,1,1,0,2,false,d,true,false,0.0-2.0-0.3-0.27-3.27,0,0,0,90,false,stim,false,-1,441,3,0,1,54514,WMM2,325507,false,false,199,image-keyboard-response,28
true,1,2,0,2,true,d,false,true,0.0-2.0-0.3-0.28-3.28,0,0,0,68,false,stim,false,-1,737,3,0,2,54514,WMM2,327766,false,false,202,image-keyboard-response,29
true,1,1,0,1,true,z,false,true,0.0-2.0-0.3-0.29-3.29,0,0,0,90,false,stim,false,-1,706,3,0,0,54514,WMM2,330003,false,false,205,image-keyboard-response,30
true,1,1,0,2,false,d,true,false,0.0-2.0-0.3-0.30-3.30,0,0,0,90,false,stim,false,-1,514,3,0,1,54514,WMM2,332034,false,false,208,image-keyboard-response,31
true,1,2,0,2,true,d,false,true,0.0-2.0-0.3-0.31-3.31,0,0,0,68,false,stim,false,-1,580,3,0,1,54514,WMM2,334125,false,false,211,image-keyboard-response,32
true,1,2,0,2,true,d,false,true,0.0-2.0-0.3-0.32-3.32,0,0,0,68,false,stim,false,-1,669,3,0,2,54514,WMM2,336314,false,false,214,image-keyboard-response,33
true,1,1,0,1,true,z,false,true,0.0-2.0-0.3-0.33-3.33,0,0,0,90,false,stim,false,-1,474,3,0,0,54514,WMM2,338324,false,false,217,image-keyboard-response,34
true,1,2,0,2,true,d,false,true,0.0-2.0-0.3-0.34-3.34,0,0,0,68,false,stim,false,-1,581,3,0,2,54514,WMM2,340415,false,false,220,image-keyboard-response,35
true,1,1,0,1,true,z,false,true,0.0-2.0-0.3-0.35-3.35,0,0,0,90,false,stim,false,-1,1450,3,0,0,54514,WMM2,343396,false,false,223,image-keyboard-response,36
true,1,2,0,2,true,d,false,true,0.0-2.0-0.4-0.36-3.36,0,0,0,68,false,stim,false,-1,572,3,0,1,54514,WMM2,345490,false,false,226,image-keyboard-response,37
true,1,1,0,1,true,z,false,true,0.0-2.0-0.4-0.37-3.37,0,0,0,90,false,stim,false,-1,636,3,0,0,54514,WMM2,347645,false,false,229,image-keyboard-response,38
true,1,2,0,2,true,d,false,true,0.0-2.0-0.4-0.38-3.38,0,0,0,68,false,stim,false,-1,620,3,0,2,54514,WMM2,349785,false,false,232,image-keyboard-response,39
true,1,1,0,1,true,z,false,true,0.0-2.0-0.4-0.39-3.39,0,0,0,90,false,stim,false,-1,669,3,0,0,54514,WMM2,351980,false,false,235,image-keyboard-response,40
true,1,2,0,2,true,d,false,true,0.0-2.0-0.4-0.40-3.40,0,0,0,68,false,stim,false,-1,539,3,1,1,54514,WMM2,354054,false,false,238,image-keyboard-response,41
true,1,1,0,1,true,z,false,true,0.0-2.0-0.4-0.41-3.41,0,0,0,90,false,stim,false,-1,654,3,0,0,54514,WMM2,356238,false,false,241,image-keyboard-response,42
true,1,2,0,2,true,d,false,false,0.0-2.0-0.4-0.42-3.42,0,0,0,68,false,stim,false,-1,588,3,0,2,54514,WMM2,358345,false,true,244,image-keyboard-response,43
true,1,2,0,2,true,d,false,true,0.0-2.0-0.4-0.43-3.43,0,0,0,68,false,stim,false,-1,746,3,0,2,54514,WMM2,360612,false,false,247,image-keyboard-response,44
true,1,2,0,2,true,d,false,true,0.0-2.0-0.4-0.44-3.44,0,0,0,68,false,stim,false,-1,472,3,1,1,54514,WMM2,362603,false,false,250,image-keyboard-response,45
true,1,2,0,2,true,d,false,true,0.0-2.0-0.5-0.45-3.45,0,0,0,68,false,stim,false,-1,801,3,0,2,54514,WMM2,364926,false,false,253,image-keyboard-response,46
true,1,2,0,2,true,d,false,true,0.0-2.0-0.5-0.46-3.46,0,0,0,68,false,stim,false,-1,443,3,0,2,54514,WMM2,366892,false,false,256,image-keyboard-response,47
true,2,1,1,2,false,d,false,false,0.0-2.0-0.5-0.47-3.47,0,1,0,90,true,stim,true,1,478,3,0,0,54514,WMM2,368890,false,false,259,image-keyboard-response,1
true,2,2,1,2,true,d,false,true,0.0-2.0-0.5-0.48-3.48,0,1,0,68,false,stim,false,2,517,3,1,1,54514,WMM2,370924,false,false,262,image-keyboard-response,2
true,2,2,1,2,true,d,false,true,0.0-2.0-0.5-0.49-3.49,0,1,0,68,false,stim,false,2,467,3,1,1,54514,WMM2,372913,false,false,265,image-keyboard-response,3
true,2,1,1,2,false,d,false,true,0.0-2.0-0.5-0.50-3.50,0,1,0,90,false,stim,true,1,571,3,0,0,54514,WMM2,375010,false,true,268,image-keyboard-response,4
true,2,1,1,2,false,d,false,false,0.0-2.0-0.5-0.51-3.51,0,1,0,90,false,stim,true,1,577,3,0,0,54514,WMM2,377112,false,false,271,image-keyboard-response,5
true,2,2,1,1,false,z,false,false,0.0-2.0-0.5-0.52-3.52,0,1,0,68,false,stim,true,2,535,3,0,2,54514,WMM2,379160,false,false,274,image-keyboard-response,6
true,2,2,1,2,true,d,false,true,0.0-2.0-0.5-0.53-3.53,0,1,0,68,false,stim,false,2,572,3,1,1,54514,WMM2,381263,false,false,277,image-keyboard-response,7
true,2,2,1,1,false,z,false,false,0.0-2.0-0.6-0.54-3.54,0,1,0,68,false,stim,true,2,472,3,0,2,54514,WMM2,383248,false,false,280,image-keyboard-response,8
true,2,2,1,2,true,d,false,true,0.0-2.0-0.6-0.55-3.55,0,1,0,68,false,stim,false,2,517,3,1,1,54514,WMM2,385285,false,false,283,image-keyboard-response,9
true,2,2,1,2,true,d,false,true,0.0-2.0-0.6-0.56-3.56,0,1,0,68,false,stim,false,2,492,3,1,1,54514,WMM2,387308,false,false,286,image-keyboard-response,10
true,2,2,1,2,true,d,false,true,0.0-2.0-0.6-0.57-3.57,0,1,0,68,false,stim,false,2,514,3,1,1,54514,WMM2,389351,false,false,289,image-keyboard-response,11
true,2,2,1,1,false,z,false,false,0.0-2.0-0.6-0.58-3.58,0,1,0,68,false,stim,true,2,639,3,0,2,54514,WMM2,391517,false,false,292,image-keyboard-response,12
true,2,1,1,1,true,z,false,true,0.0-2.0-0.6-0.59-3.59,0,1,0,90,false,stim,false,2,629,3,0,2,54514,WMM2,393668,false,false,295,image-keyboard-response,13
true,2,1,1,2,false,d,false,false,0.0-2.0-0.6-0.60-3.60,0,1,0,90,false,stim,true,1,582,3,0,0,54514,WMM2,395771,false,false,298,image-keyboard-response,14
true,2,1,1,2,false,d,false,false,0.0-2.0-0.6-0.61-3.61,0,1,0,90,false,stim,true,1,654,3,0,0,54514,WMM2,397948,false,false,301,image-keyboard-response,15
true,2,0,1,2,false,d,true,false,0.0-2.0-0.6-0.62-3.62,0,1,0,81,false,stim,false,1,796,3,0,0,54514,WMM2,400273,false,false,304,image-keyboard-response,16
true,2,2,1,2,true,d,false,true,0.0-2.0-0.7-0.63-3.63,0,1,0,68,false,stim,false,1,568,3,0,0,54514,WMM2,402373,false,false,307,image-keyboard-response,17
true,2,1,1,1,true,z,false,true,0.0-2.0-0.7-0.64-3.64,0,1,0,90,false,stim,false,2,661,3,0,2,54514,WMM2,404543,false,false,310,image-keyboard-response,18
true,2,2,1,2,true,d,false,true,0.0-2.0-0.7-0.65-3.65,0,1,0,68,false,stim,false,2,657,3,1,1,54514,WMM2,406715,false,false,313,image-keyboard-response,19
true,2,2,1,2,true,d,false,true,0.0-2.0-0.7-0.66-3.66,0,1,0,68,false,stim,false,1,540,3,0,0,54514,WMM2,408768,false,false,316,image-keyboard-response,20
true,2,2,1,2,true,d,false,true,0.0-2.0-0.7-0.67-3.67,0,1,0,68,false,stim,false,2,707,3,1,1,54514,WMM2,411005,false,false,319,image-keyboard-response,21
true,2,2,1,2,true,d,false,true,0.0-2.0-0.7-0.68-3.68,0,1,0,68,false,stim,false,1,996,3,0,0,54514,WMM2,413531,false,false,322,image-keyboard-response,22
true,2,1,1,1,true,z,false,true,0.0-2.0-0.7-0.69-3.69,0,1,0,90,false,stim,false,2,937,3,1,2,54514,WMM2,415984,false,false,325,image-keyboard-response,23
true,2,2,1,2,true,d,false,true,0.0-2.0-0.7-0.70-3.70,0,1,0,68,false,stim,false,2,575,3,1,1,54514,WMM2,418089,false,false,328,image-keyboard-response,24
true,2,1,1,1,true,z,false,true,0.0-2.0-0.7-0.71-3.71,0,1,0,90,false,stim,false,2,759,3,1,2,54514,WMM2,420370,false,false,331,image-keyboard-response,25
true,2,1,1,1,true,z,false,true,0.0-2.0-0.8-0.72-3.72,0,1,0,90,false,stim,false,2,491,3,1,2,54514,WMM2,422388,false,false,334,image-keyboard-response,26
true,2,2,1,2,true,d,false,true,0.0-2.0-0.8-0.73-3.73,0,1,0,68,false,stim,false,2,512,3,1,1,54514,WMM2,424423,false,false,337,image-keyboard-response,27
true,2,2,1,2,true,d,false,true,0.0-2.0-0.8-0.74-3.74,0,1,0,68,false,stim,false,1,698,3,0,0,54514,WMM2,426633,false,false,340,image-keyboard-response,28
true,2,2,1,2,true,d,false,true,0.0-2.0-0.8-0.75-3.75,0,1,0,68,false,stim,false,1,572,3,0,0,54514,WMM2,428728,false,false,343,image-keyboard-response,29
true,2,1,1,1,true,z,false,true,0.0-2.0-0.8-0.76-3.76,0,1,0,90,false,stim,false,2,580,3,1,2,54514,WMM2,430815,false,false,346,image-keyboard-response,30
true,3,2,2,2,true,d,false,true,0.0-2.0-0.8-0.77-3.77,0,1,1,68,true,stim,false,2,751,3,1,1,54514,WMM2,433085,false,false,349,image-keyboard-response,1
true,3,2,2,2,true,d,false,true,0.0-2.0-0.8-0.78-3.78,0,1,1,68,false,stim,false,2,412,3,1,1,54514,WMM2,435027,false,false,352,image-keyboard-response,2
true,3,2,2,0,false,q,false,false,0.0-2.0-0.8-0.79-3.79,0,1,1,68,false,stim,true,2,1061,3,0,0,54514,WMM2,437610,false,false,355,image-keyboard-response,3
true,3,2,2,1,false,z,true,false,0.0-2.0-0.8-0.80-3.80,0,1,1,68,false,stim,false,1,847,3,1,2,54514,WMM2,439971,false,false,358,image-keyboard-response,4
true,3,1,2,0,false,q,true,false,0.0-2.0-0.9-0.81-3.81,0,1,1,90,false,stim,false,2,588,3,0,0,54514,WMM2,442079,false,false,361,image-keyboard-response,5
true,3,1,2,0,false,q,true,false,0.0-2.0-0.9-0.82-3.82,0,1,1,90,false,stim,false,2,435,3,0,0,54514,WMM2,444030,false,false,364,image-keyboard-response,6
true,3,2,2,2,true,d,false,true,0.0-2.0-0.9-0.83-3.83,0,1,1,68,false,stim,false,2,1554,3,1,1,54514,WMM2,447097,false,false,367,image-keyboard-response,7
true,3,2,2,2,true,d,false,true,0.0-2.0-0.9-0.84-3.84,0,1,1,68,false,stim,false,2,1007,3,1,1,54514,WMM2,449623,false,false,370,image-keyboard-response,8
true,3,2,2,2,true,d,false,true,0.0-2.0-0.9-0.85-3.85,0,1,1,68,false,stim,false,2,814,3,1,1,54514,WMM2,451953,false,false,373,image-keyboard-response,9
true,3,2,2,0,false,q,false,false,0.0-2.0-0.9-0.86-3.86,0,1,1,68,false,stim,true,2,485,3,0,0,54514,WMM2,453954,false,false,376,image-keyboard-response,10
true,3,2,2,1,false,z,true,true,0.0-2.0-0.9-0.87-3.87,0,1,1,68,false,stim,false,1,943,3,1,2,54514,WMM2,456411,false,true,379,image-keyboard-response,11
true,3,2,2,1,false,z,true,false,0.0-2.0-0.9-0.88-3.88,0,1,1,68,false,stim,false,1,635,3,1,2,54514,WMM2,458580,false,false,382,image-keyboard-response,12
true,3,2,2,1,false,z,true,false,0.0-2.0-0.9-0.89-3.89,0,1,1,68,false,stim,false,1,537,3,1,2,54514,WMM2,460642,false,false,385,image-keyboard-response,13
true,3,2,2,1,false,z,true,false,0.0-2.0-0.10-0.90-3.90,0,1,1,68,false,stim,false,1,538,3,1,2,54514,WMM2,462704,false,false,388,image-keyboard-response,14
true,3,2,2,2,true,d,false,true,0.0-2.0-0.10-0.91-3.91,0,1,1,68,false,stim,false,2,1550,3,1,1,54514,WMM2,465766,false,false,391,image-keyboard-response,15
true,3,2,2,2,true,d,false,true,0.0-2.0-0.10-0.92-3.92,0,1,1,68,false,stim,false,2,814,3,1,1,54514,WMM2,468095,false,false,394,image-keyboard-response,16
true,3,2,2,2,true,d,false,true,0.0-2.0-0.10-0.93-3.93,0,1,1,68,false,stim,false,2,491,3,1,1,54514,WMM2,470103,false,false,397,image-keyboard-response,17
true,3,0,2,0,true,q,false,true,0.0-2.0-0.10-0.94-3.94,0,1,1,81,false,stim,false,2,1241,3,0,0,54514,WMM2,472866,false,false,400,image-keyboard-response,18
true,3,0,2,1,false,z,true,false,0.0-2.0-0.10-0.95-3.95,0,1,1,81,false,stim,false,1,693,3,1,2,54514,WMM2,475087,false,false,403,image-keyboard-response,19
true,3,0,2,0,true,q,false,true,0.0-2.0-0.10-0.96-3.96,0,1,1,81,false,stim,false,2,766,3,0,0,54514,WMM2,477369,false,false,406,image-keyboard-response,20
true,3,0,2,0,true,q,false,true,0.0-2.0-0.10-0.97-3.97,0,1,1,81,false,stim,false,2,505,3,0,0,54514,WMM2,479401,false,false,409,image-keyboard-response,21
true,3,1,2,1,true,z,false,false,0.0-2.0-0.10-0.98-3.98,0,1,1,90,false,stim,false,1,914,3,1,2,54514,WMM2,481844,false,true,412,image-keyboard-response,22
true,3,0,2,0,true,q,false,true,0.0-2.0-0.11-0.99-3.99,0,1,1,81,false,stim,false,2,696,3,0,0,54514,WMM2,484068,false,false,415,image-keyboard-response,23
true,3,2,2,1,false,z,true,true,0.0-2.0-0.11-0.100-3.100,0,1,1,68,false,stim,false,1,774,3,1,2,54514,WMM2,486369,false,true,418,image-keyboard-response,24
true,3,0,2,0,true,q,false,true,0.0-2.0-0.11-0.101-3.101,0,1,1,81,false,stim,false,2,749,3,0,0,54514,WMM2,488655,false,false,421,image-keyboard-response,25
true,3,2,2,1,false,z,true,false,0.0-2.0-0.11-0.102-3.102,0,1,1,68,false,stim,false,1,525,3,1,2,54514,WMM2,490711,false,false,424,image-keyboard-response,26
true,3,2,2,2,true,d,false,false,0.0-2.0-0.11-0.103-3.103,0,1,1,68,false,stim,false,2,527,3,1,1,54514,WMM2,492756,false,true,427,image-keyboard-response,27
true,3,2,2,2,true,d,false,true,0.0-2.0-0.11-0.104-3.104,0,1,1,68,false,stim,false,2,453,3,1,1,54514,WMM2,494728,false,false,430,image-keyboard-response,28
true,3,2,2,1,false,z,true,false,0.0-2.0-0.11-0.105-3.105,0,1,1,68,false,stim,false,1,568,3,1,2,54514,WMM2,496826,false,false,433,image-keyboard-response,29
true,3,0,2,0,true,q,false,true,0.0-2.0-0.11-0.106-3.106,0,1,1,81,false,stim,false,2,694,3,0,0,54514,WMM2,499044,false,false,436,image-keyboard-response,30
true,3,2,2,2,true,d,false,true,0.0-2.0-0.11-0.107-3.107,0,1,1,68,false,stim,false,2,593,3,1,1,54514,WMM2,501158,false,false,439,image-keyboard-response,31
true,3,0,2,0,true,q,false,true,0.0-2.0-0.12-0.108-3.108,0,1,1,81,false,stim,false,2,745,3,0,0,54514,WMM2,503430,false,false,442,image-keyboard-response,32
true,3,2,2,1,false,z,true,false,0.0-2.0-0.12-0.109-3.109,0,1,1,68,false,stim,false,1,566,3,1,2,54514,WMM2,505528,false,false,445,image-keyboard-response,33
true,3,2,2,2,true,d,false,true,0.0-2.0-0.12-0.110-3.110,0,1,1,68,false,stim,false,2,616,3,1,1,54514,WMM2,507673,false,false,448,image-keyboard-response,34
true,3,1,2,1,true,z,false,true,0.0-2.0-0.12-0.111-3.111,0,1,1,90,false,stim,false,1,479,3,1,2,54514,WMM2,509678,false,false,451,image-keyboard-response,35
true,3,0,2,0,true,q,false,false,0.0-2.0-0.12-0.112-3.112,0,1,1,81,false,stim,false,2,558,3,0,0,54514,WMM2,511749,false,true,454,image-keyboard-response,36
true,3,0,2,0,true,q,false,true,0.0-2.0-0.12-0.113-3.113,0,1,1,81,false,stim,false,2,574,3,0,0,54514,WMM2,513850,false,false,457,image-keyboard-response,37
true,3,2,2,2,true,d,false,true,0.0-2.0-0.12-0.114-3.114,0,1,1,68,false,stim,false,2,767,3,1,1,54514,WMM2,516128,false,false,460,image-keyboard-response,38
true,3,1,2,1,true,z,false,true,0.0-2.0-0.12-0.115-3.115,0,1,1,90,false,stim,false,1,421,3,1,2,54514,WMM2,518077,false,false,463,image-keyboard-response,39
true,3,2,2,2,true,d,false,true,0.0-2.0-0.12-0.116-3.116,0,1,1,68,false,stim,false,2,530,3,0,1,54514,WMM2,520126,false,false,466,image-keyboard-response,40
true,3,2,2,2,true,d,false,true,0.0-2.0-0.13-0.117-3.117,0,1,1,68,false,stim,false,2,694,3,0,1,54514,WMM2,522351,false,false,469,image-keyboard-response,41
true,3,0,2,0,true,q,false,true,0.0-2.0-0.13-0.118-3.118,0,1,1,81,false,stim,false,2,528,3,1,0,54514,WMM2,524394,false,false,472,image-keyboard-response,42
true,3,2,2,2,true,d,false,false,0.0-2.0-0.13-0.119-3.119,0,1,1,68,false,stim,false,2,766,3,0,1,54514,WMM2,526684,false,true,475,image-keyboard-response,43
true,3,1,2,1,true,z,false,true,0.0-2.0-0.13-0.120-3.120,0,1,1,90,false,stim,false,1,734,3,1,2,54514,WMM2,528931,false,false,478,image-keyboard-response,44
true,3,0,2,0,true,q,false,true,0.0-2.0-0.13-0.121-3.121,0,1,1,81,false,stim,false,2,689,3,1,0,54514,WMM2,531140,false,false,481,image-keyboard-response,45
true,3,2,2,1,false,z,true,false,0.0-2.0-0.13-0.122-3.122,0,1,1,68,false,stim,false,1,1097,3,1,2,54514,WMM2,533764,false,false,484,image-keyboard-response,46
true,3,1,2,2,false,d,true,false,0.0-2.0-0.13-0.123-3.123,0,1,1,90,false,stim,false,2,1582,3,0,1,54514,WMM2,536858,false,false,487,image-keyboard-response,47
true,3,0,2,0,true,q,false,true,0.0-2.0-0.13-0.124-3.124,0,1,1,81,false,stim,false,2,696,3,1,0,54514,WMM2,539082,false,false,490,image-keyboard-response,48
true,3,1,2,1,true,z,false,true,0.0-2.0-0.13-0.125-3.125,0,1,1,90,false,stim,false,1,1066,3,1,2,54514,WMM2,541658,false,false,493,image-keyboard-response,49
true,4,1,4,1,true,z,false,false,0.0-2.0-0.14-0.126-3.126,1,0,1,90,true,stim,false,1,678,3,1,2,54514,WMM2,543865,false,true,496,image-keyboard-response,1
true,4,2,4,2,true,d,false,true,0.0-2.0-0.14-0.127-3.127,1,0,1,68,false,stim,false,2,613,3,0,1,54514,WMM2,545994,false,false,499,image-keyboard-response,2
true,4,0,4,0,true,q,false,false,0.0-2.0-0.14-0.128-3.128,1,0,1,81,false,stim,false,0,599,3,1,0,54514,WMM2,548130,false,true,502,image-keyboard-response,3
true,4,1,4,1,true,z,false,true,0.0-2.0-0.14-0.129-3.129,1,0,1,90,false,stim,false,1,802,3,1,2,54514,WMM2,550468,false,false,505,image-keyboard-response,4
true,4,2,4,2,true,d,false,true,0.0-2.0-0.14-0.130-3.130,1,0,1,68,false,stim,false,2,792,3,0,1,54514,WMM2,552788,false,false,508,image-keyboard-response,5
true,4,0,4,0,true,q,false,true,0.0-2.0-0.14-0.131-3.131,1,0,1,81,false,stim,false,0,763,3,1,0,54514,WMM2,555074,false,false,511,image-keyboard-response,6
true,4,0,4,0,true,q,false,true,0.0-2.0-0.14-0.132-3.132,1,0,1,81,false,stim,false,0,770,3,1,0,54514,WMM2,557365,false,false,514,image-keyboard-response,7
true,4,1,4,1,true,z,false,true,0.0-2.0-0.14-0.133-3.133,1,0,1,90,false,stim,false,1,984,3,1,2,54514,WMM2,559859,false,false,517,image-keyboard-response,8
true,4,2,4,2,true,d,false,true,0.0-2.0-0.14-0.134-3.134,1,0,1,68,false,stim,false,2,498,3,0,1,54514,WMM2,561880,false,false,520,image-keyboard-response,9
true,4,1,4,1,true,z,false,false,0.0-2.0-0.15-0.135-3.135,1,0,1,90,false,stim,false,1,568,3,1,2,54514,WMM2,563969,false,true,523,image-keyboard-response,10
true,4,2,4,2,true,d,false,true,0.0-2.0-0.15-0.136-3.136,1,0,1,68,false,stim,false,2,530,3,0,1,54514,WMM2,566020,false,false,526,image-keyboard-response,11
true,4,2,4,2,true,d,false,true,0.0-2.0-0.15-0.137-3.137,1,0,1,68,false,stim,false,2,518,3,0,1,54514,WMM2,568055,false,false,529,image-keyboard-response,12
true,4,2,4,2,true,d,false,true,0.0-2.0-0.15-0.138-3.138,1,0,1,68,false,stim,false,2,440,3,0,1,54514,WMM2,570025,false,false,532,image-keyboard-response,13
true,4,0,4,0,true,q,false,true,0.0-2.0-0.15-0.139-3.139,1,0,1,81,false,stim,false,0,638,3,1,0,54514,WMM2,572193,false,false,535,image-keyboard-response,14
true,4,0,4,0,true,q,false,true,0.0-2.0-0.15-0.140-3.140,1,0,1,81,false,stim,false,0,458,3,1,0,54514,WMM2,574184,false,false,538,image-keyboard-response,15
true,4,1,4,1,true,z,false,true,0.0-2.0-0.15-0.141-3.141,1,0,1,90,false,stim,false,1,689,3,1,2,54514,WMM2,576399,false,false,541,image-keyboard-response,16
true,4,1,4,1,true,z,false,true,0.0-2.0-0.15-0.142-3.142,1,0,1,90,false,stim,false,1,531,3,1,2,54514,WMM2,578446,false,false,544,image-keyboard-response,17
true,4,0,4,0,true,q,false,false,0.0-2.0-0.15-0.143-3.143,1,0,1,81,false,stim,false,0,722,3,1,0,54514,WMM2,580698,false,true,547,image-keyboard-response,18
true,4,2,4,2,true,d,false,true,0.0-2.0-0.16-0.144-3.144,1,0,1,68,false,stim,false,2,721,3,0,1,54514,WMM2,582948,false,false,550,image-keyboard-response,19
true,4,1,4,1,true,z,false,false,0.0-2.0-0.16-0.145-3.145,1,0,1,90,false,stim,false,1,978,3,1,2,54514,WMM2,585454,false,true,553,image-keyboard-response,20
true,4,2,4,2,true,d,false,true,0.0-2.0-0.16-0.146-3.146,1,0,1,68,false,stim,false,2,592,3,1,1,54514,WMM2,587587,false,false,556,image-keyboard-response,21
true,4,0,4,0,true,q,false,true,0.0-2.0-0.16-0.147-3.147,1,0,1,81,false,stim,false,0,532,3,0,0,54514,WMM2,589652,false,false,559,image-keyboard-response,22
true,4,0,4,0,true,q,false,true,0.0-2.0-0.16-0.148-3.148,1,0,1,81,false,stim,false,0,780,3,0,0,54514,WMM2,591959,false,false,562,image-keyboard-response,23
true,4,1,4,1,true,z,false,true,0.0-2.0-0.16-0.149-3.149,1,0,1,90,false,stim,false,1,1279,3,1,2,54514,WMM2,594771,false,false,565,image-keyboard-response,24
true,4,0,4,0,true,q,false,true,0.0-2.0-0.16-0.150-3.150,1,0,1,81,false,stim,false,0,674,3,0,0,54514,WMM2,596966,false,false,568,image-keyboard-response,25
true,4,2,4,2,true,d,false,true,0.0-2.0-0.16-0.151-3.151,1,0,1,68,false,stim,false,2,519,3,1,1,54514,WMM2,599000,false,false,571,image-keyboard-response,26
true,4,1,4,1,true,z,false,true,0.0-2.0-0.16-0.152-3.152,1,0,1,90,false,stim,false,1,574,3,1,2,54514,WMM2,601103,false,false,574,image-keyboard-response,27
true,4,0,4,0,true,q,false,true,0.0-2.0-0.17-0.153-3.153,1,0,1,81,false,stim,false,0,543,3,0,0,54514,WMM2,603154,false,false,577,image-keyboard-response,28
true,4,2,4,2,true,d,false,true,0.0-2.0-0.17-0.154-3.154,1,0,1,68,false,stim,false,2,1149,3,1,1,54514,WMM2,605832,false,false,580,image-keyboard-response,29
true,4,1,4,1,true,z,false,true,0.0-2.0-0.17-0.155-3.155,1,0,1,90,false,stim,false,1,398,3,1,2,54514,WMM2,607760,false,false,583,image-keyboard-response,30
true,5,0,2,1,false,z,false,false,0.0-2.0-0.17-0.156-3.156,0,1,1,81,true,stim,true,0,537,3,0,0,54514,WMM2,609823,false,false,586,image-keyboard-response,1
true,5,2,2,2,true,d,false,false,0.0-2.0-0.17-0.157-3.157,0,1,1,68,false,stim,false,2,876,3,1,1,54514,WMM2,612215,false,true,589,image-keyboard-response,2
true,5,2,2,2,true,d,false,true,0.0-2.0-0.17-0.158-3.158,0,1,1,68,false,stim,false,2,878,3,1,1,54514,WMM2,614627,false,false,592,image-keyboard-response,3
true,5,1,2,1,true,z,false,true,0.0-2.0-0.17-0.159-3.159,0,1,1,90,false,stim,false,1,404,3,1,2,54514,WMM2,616559,false,false,595,image-keyboard-response,4
true,5,0,2,1,false,z,false,false,0.0-2.0-0.17-0.160-3.160,0,1,1,81,false,stim,true,0,506,3,0,0,54514,WMM2,618582,false,false,598,image-keyboard-response,5
true,5,1,2,1,true,z,false,true,0.0-2.0-0.17-0.161-3.161,0,1,1,90,false,stim,false,1,1174,3,1,2,54514,WMM2,621290,false,false,601,image-keyboard-response,6
true,5,0,2,1,false,z,false,false,0.0-2.0-0.18-0.162-3.162,0,1,1,81,false,stim,true,0,657,3,0,0,54514,WMM2,623468,false,false,604,image-keyboard-response,7
true,5,2,2,2,true,d,false,true,0.0-2.0-0.18-0.163-3.163,0,1,1,68,false,stim,false,2,778,3,1,1,54514,WMM2,625759,false,false,607,image-keyboard-response,8
true,5,2,2,2,true,d,false,true,0.0-2.0-0.18-0.164-3.164,0,1,1,68,false,stim,false,2,566,3,1,1,54514,WMM2,627848,false,false,610,image-keyboard-response,9
true,5,2,2,2,true,d,false,true,0.0-2.0-0.18-0.165-3.165,0,1,1,68,false,stim,false,2,537,3,1,1,54514,WMM2,629918,false,false,613,image-keyboard-response,10
true,5,1,2,1,true,z,false,true,0.0-2.0-0.18-0.166-3.166,0,1,1,90,false,stim,false,1,747,3,1,2,54514,WMM2,632193,false,false,616,image-keyboard-response,11
true,5,1,2,1,true,z,false,true,0.0-2.0-0.18-0.167-3.167,0,1,1,90,false,stim,false,1,494,3,1,2,54514,WMM2,634211,false,false,619,image-keyboard-response,12
true,5,0,2,1,false,z,false,true,0.0-2.0-0.18-0.168-3.168,0,1,1,81,false,stim,true,0,1243,3,0,0,54514,WMM2,636968,false,true,622,image-keyboard-response,13
true,5,0,2,1,false,z,false,false,0.0-2.0-0.18-0.169-3.169,0,1,1,81,false,stim,true,0,523,3,0,0,54514,WMM2,639016,false,false,625,image-keyboard-response,14
true,5,1,2,1,true,z,false,true,0.0-2.0-0.18-0.170-3.170,0,1,1,90,false,stim,false,1,1146,3,1,2,54514,WMM2,641682,false,false,628,image-keyboard-response,15
true,5,1,2,1,true,z,false,true,0.0-2.0-0.19-0.171-3.171,0,1,1,90,false,stim,false,1,483,3,1,2,54514,WMM2,643681,false,false,631,image-keyboard-response,16
true,5,0,2,1,false,z,false,false,0.0-2.0-0.19-0.172-3.172,0,1,1,81,false,stim,true,0,695,3,0,0,54514,WMM2,645897,false,false,634,image-keyboard-response,17
true,5,1,2,1,true,z,false,true,0.0-2.0-0.19-0.173-3.173,0,1,1,90,false,stim,false,1,501,3,1,2,54514,WMM2,647923,false,false,637,image-keyboard-response,18
true,5,1,2,1,true,z,false,true,0.0-2.0-0.19-0.174-3.174,0,1,1,90,false,stim,false,1,452,3,1,2,54514,WMM2,649887,false,false,640,image-keyboard-response,19
true,5,2,2,2,true,d,false,true,0.0-2.0-0.19-0.175-3.175,0,1,1,68,false,stim,false,2,509,3,1,1,54514,WMM2,651925,false,false,643,image-keyboard-response,20
true,5,0,2,1,false,z,false,true,0.0-2.0-0.19-0.176-3.176,0,1,1,81,false,stim,true,0,729,3,0,0,54514,WMM2,654188,false,true,646,image-keyboard-response,21
true,5,0,2,1,false,z,false,true,0.0-2.0-0.19-0.177-3.177,0,1,1,81,false,stim,true,0,586,3,0,0,54514,WMM2,656290,false,true,649,image-keyboard-response,22
true,5,2,2,2,true,d,false,true,0.0-2.0-0.19-0.178-3.178,0,1,1,68,false,stim,false,2,678,3,1,1,54514,WMM2,658486,false,false,652,image-keyboard-response,23
true,5,2,2,2,true,d,false,true,0.0-2.0-0.19-0.179-3.179,0,1,1,68,false,stim,false,2,656,3,1,1,54514,WMM2,660664,false,false,655,image-keyboard-response,24
true,5,0,2,1,false,z,false,false,0.0-2.0-0.20-0.180-3.180,0,1,1,81,false,stim,true,0,647,3,0,0,54514,WMM2,662849,false,false,658,image-keyboard-response,25
true,5,1,2,1,true,z,false,true,0.0-2.0-0.20-0.181-3.181,0,1,1,90,false,stim,false,1,678,3,1,2,54514,WMM2,665050,false,false,661,image-keyboard-response,26
true,5,2,2,2,true,d,false,true,0.0-2.0-0.20-0.182-3.182,0,1,1,68,false,stim,false,2,761,3,1,1,54514,WMM2,667339,false,false,664,image-keyboard-response,27
true,5,0,2,1,false,z,false,false,0.0-2.0-0.20-0.183-3.183,0,1,1,81,false,stim,true,0,623,3,0,0,54514,WMM2,669493,false,false,667,image-keyboard-response,28
true,5,1,2,1,true,z,false,true,0.0-2.0-0.20-0.184-3.184,0,1,1,90,false,stim,false,1,1078,3,1,2,54514,WMM2,672093,false,false,670,image-keyboard-response,29
true,5,2,2,2,true,d,false,true,0.0-2.0-0.20-0.185-3.185,0,1,1,68,false,stim,false,2,558,3,1,1,54514,WMM2,674174,false,false,673,image-keyboard-response,30
true,5,2,2,2,true,d,false,true,0.0-2.0-0.20-0.186-3.186,0,1,1,68,false,stim,false,2,473,3,1,1,54514,WMM2,676179,false,false,676,image-keyboard-response,31
true,5,1,2,1,true,z,false,true,0.0-2.0-0.20-0.187-3.187,0,1,1,90,false,stim,false,1,688,3,1,2,54514,WMM2,678388,false,false,679,image-keyboard-response,32
true,5,0,2,1,false,z,false,false,0.0-2.0-0.20-0.188-3.188,0,1,1,81,false,stim,true,0,566,3,0,0,54514,WMM2,680478,false,false,682,image-keyboard-response,33
true,5,2,2,2,true,d,false,true,0.0-2.0-0.21-0.189-3.189,0,1,1,68,false,stim,false,2,944,3,1,1,54514,WMM2,682935,false,false,685,image-keyboard-response,34
true,5,2,2,2,true,d,false,true,0.0-2.0-0.21-0.190-3.190,0,1,1,68,false,stim,false,2,608,3,1,1,54514,WMM2,685071,false,false,688,image-keyboard-response,35
true,5,1,2,1,true,z,false,true,0.0-2.0-0.21-0.191-3.191,0,1,1,90,false,stim,false,1,876,3,1,2,54514,WMM2,687477,false,false,691,image-keyboard-response,36
true,5,0,2,1,false,z,false,false,0.0-2.0-0.21-0.192-3.192,0,1,1,81,false,stim,true,0,519,3,0,0,54514,WMM2,689518,false,false,694,image-keyboard-response,37
true,5,0,2,1,false,z,false,false,0.0-2.0-0.21-0.193-3.193,0,1,1,81,false,stim,true,0,707,3,0,0,54514,WMM2,691754,false,false,697,image-keyboard-response,38
true,5,1,2,1,true,z,false,true,0.0-2.0-0.21-0.194-3.194,0,1,1,90,false,stim,false,1,1228,3,1,2,54514,WMM2,694510,false,false,700,image-keyboard-response,39
true,5,1,2,1,true,z,false,true,0.0-2.0-0.21-0.195-3.195,0,1,1,90,false,stim,false,0,989,3,0,0,54514,WMM2,697039,false,false,703,image-keyboard-response,40
true,5,2,2,2,true,d,false,true,0.0-2.0-0.21-0.196-3.196,0,1,1,68,false,stim,false,2,549,3,1,1,54514,WMM2,699119,false,false,706,image-keyboard-response,41
true,5,1,2,1,true,z,false,true,0.0-2.0-0.21-0.197-3.197,0,1,1,90,false,stim,false,1,622,3,1,2,54514,WMM2,701279,false,false,709,image-keyboard-response,42
true,5,1,2,1,true,z,false,true,0.0-2.0-0.22-0.198-3.198,0,1,1,90,false,stim,false,0,383,3,0,0,54514,WMM2,703190,false,false,712,image-keyboard-response,43
true,5,1,2,1,true,z,false,true,0.0-2.0-0.22-0.199-3.199,0,1,1,90,false,stim,false,1,441,3,0,2,54514,WMM2,705153,false,false,715,image-keyboard-response,44
true,5,1,2,1,true,z,false,true,0.0-2.0-0.22-0.200-3.200,0,1,1,90,false,stim,false,0,421,3,1,0,54514,WMM2,707094,false,false,718,image-keyboard-response,45
true,5,2,2,2,true,d,false,false,0.0-2.0-0.22-0.201-3.201,0,1,1,68,false,stim,false,2,436,3,0,1,54514,WMM2,709057,false,true,721,image-keyboard-response,46
true,5,2,2,2,true,d,false,true,0.0-2.0-0.22-0.202-3.202,0,1,1,68,false,stim,false,2,550,3,0,1,54514,WMM2,711126,false,false,724,image-keyboard-response,47
true,5,1,2,1,true,z,false,true,0.0-2.0-0.22-0.203-3.203,0,1,1,90,false,stim,false,1,435,3,0,2,54514,WMM2,713089,false,false,727,image-keyboard-response,48
true,5,1,2,1,true,z,false,true,0.0-2.0-0.22-0.204-3.204,0,1,1,90,false,stim,false,0,446,3,1,0,54514,WMM2,715067,false,false,730,image-keyboard-response,49
true,5,1,2,2,false,d,true,true,0.0-2.0-0.22-0.205-3.205,0,1,1,90,false,stim,false,2,531,3,0,1,54514,WMM2,717132,false,true,733,image-keyboard-response,50
true,5,1,2,1,true,z,false,true,0.0-2.0-0.22-0.206-3.206,0,1,1,90,false,stim,false,1,481,3,0,2,54514,WMM2,719129,false,false,736,image-keyboard-response,51
true,5,2,2,2,true,d,false,true,0.0-2.0-0.23-0.207-3.207,0,1,1,68,false,stim,false,2,603,3,0,1,54514,WMM2,721254,false,false,739,image-keyboard-response,52
true,5,1,2,1,true,z,false,true,0.0-2.0-0.23-0.208-3.208,0,1,1,90,false,stim,false,0,450,3,1,0,54514,WMM2,723232,false,false,742,image-keyboard-response,53
true,6,1,1,0,false,q,false,false,0.0-2.0-0.23-0.209-3.209,1,0,0,90,true,stim,true,1,967,3,0,2,54514,WMM2,725714,false,false,745,image-keyboard-response,1
true,6,1,1,1,true,z,false,true,0.0-2.0-0.23-0.210-3.210,1,0,0,90,false,stim,false,1,604,3,1,0,54514,WMM2,727855,false,false,748,image-keyboard-response,2
true,6,1,1,0,false,q,false,false,0.0-2.0-0.23-0.211-3.211,1,0,0,90,false,stim,true,1,542,3,0,2,54514,WMM2,729920,false,false,751,image-keyboard-response,3
true,6,2,1,1,false,z,false,false,0.0-2.0-0.23-0.212-3.212,1,0,0,68,false,stim,true,2,598,3,0,1,54514,WMM2,732038,false,false,754,image-keyboard-response,4
true,6,2,1,1,false,z,false,true,0.0-2.0-0.23-0.213-3.213,1,0,0,68,false,stim,true,2,467,3,0,1,54514,WMM2,734029,false,true,757,image-keyboard-response,5
true,6,1,1,1,true,z,false,true,0.0-2.0-0.23-0.214-3.214,1,0,0,90,false,stim,false,1,626,3,1,0,54514,WMM2,736178,false,false,760,image-keyboard-response,6
true,6,1,1,0,false,q,false,false,0.0-2.0-0.23-0.215-3.215,1,0,0,90,false,stim,true,1,940,3,0,2,54514,WMM2,738625,false,false,763,image-keyboard-response,7
true,6,1,1,1,true,z,false,true,0.0-2.0-0.24-0.216-3.216,1,0,0,90,false,stim,false,1,844,3,1,0,54514,WMM2,740996,false,false,766,image-keyboard-response,8
true,6,2,1,1,false,z,false,false,0.0-2.0-0.24-0.217-3.217,1,0,0,68,false,stim,true,2,1034,3,0,1,54514,WMM2,743560,false,false,769,image-keyboard-response,9
true,6,1,1,1,true,z,false,false,0.0-2.0-0.24-0.218-3.218,1,0,0,90,false,stim,false,1,990,3,1,0,54514,WMM2,746080,false,true,772,image-keyboard-response,10
true,6,1,1,0,false,q,false,false,0.0-2.0-0.24-0.219-3.219,1,0,0,90,false,stim,true,1,1705,3,0,2,54514,WMM2,749312,false,false,775,image-keyboard-response,11
true,6,1,1,0,false,q,false,false,0.0-2.0-0.24-0.220-3.220,1,0,0,90,false,stim,true,1,1421,3,0,2,54514,WMM2,752263,false,false,778,image-keyboard-response,12
true,6,2,1,1,false,z,false,false,0.0-2.0-0.24-0.221-3.221,1,0,0,68,false,stim,true,2,1008,3,0,1,54514,WMM2,754793,false,false,781,image-keyboard-response,13
true,6,0,1,1,false,z,true,true,0.0-2.0-0.24-0.222-3.222,1,0,0,81,false,stim,false,2,646,3,0,1,54514,WMM2,756967,false,true,784,image-keyboard-response,14
true,6,0,1,0,true,q,false,false,0.0-2.0-0.24-0.223-3.223,1,0,0,81,false,stim,false,1,1288,3,0,2,54514,WMM2,759774,false,true,787,image-keyboard-response,15
true,6,0,1,1,false,z,true,false,0.0-2.0-0.24-0.224-3.224,1,0,0,81,false,stim,false,1,699,3,1,0,54514,WMM2,761997,false,false,790,image-keyboard-response,16
true,6,1,1,1,true,z,false,true,0.0-2.0-0.25-0.225-3.225,1,0,0,90,false,stim,false,1,738,3,1,0,54514,WMM2,764263,false,false,793,image-keyboard-response,17
true,6,0,1,0,true,q,false,false,0.0-2.0-0.25-0.226-3.226,1,0,0,81,false,stim,false,1,548,3,0,2,54514,WMM2,766330,false,true,796,image-keyboard-response,18
true,6,1,1,1,true,z,false,true,0.0-2.0-0.25-0.227-3.227,1,0,0,90,false,stim,false,1,830,3,1,0,54514,WMM2,768675,false,false,799,image-keyboard-response,19
true,6,1,1,1,true,z,false,true,0.0-2.0-0.25-0.228-3.228,1,0,0,90,false,stim,false,1,696,3,1,0,54514,WMM2,770902,false,false,802,image-keyboard-response,20
true,6,0,1,0,true,q,false,true,0.0-2.0-0.25-0.229-3.229,1,0,0,81,false,stim,false,1,1173,3,0,2,54514,WMM2,773609,false,false,805,image-keyboard-response,21
true,6,2,1,1,false,z,false,false,0.0-2.0-0.25-0.230-3.230,1,0,0,68,false,stim,true,2,673,3,0,1,54514,WMM2,775809,false,false,808,image-keyboard-response,22
true,6,1,1,1,true,z,false,true,0.0-2.0-0.25-0.231-3.231,1,0,0,90,false,stim,false,2,589,3,0,1,54514,WMM2,777927,false,false,811,image-keyboard-response,23
true,6,0,1,0,true,q,false,false,0.0-2.0-0.25-0.232-3.232,1,0,0,81,false,stim,false,1,611,3,0,2,54514,WMM2,780058,false,true,814,image-keyboard-response,24
true,6,1,1,1,true,z,false,true,0.0-2.0-0.25-0.233-3.233,1,0,0,90,false,stim,false,2,892,3,0,1,54514,WMM2,782479,false,false,817,image-keyboard-response,25
true,6,1,1,1,true,z,false,true,0.0-2.0-0.26-0.234-3.234,1,0,0,90,false,stim,false,1,782,3,0,0,54514,WMM2,784795,false,false,820,image-keyboard-response,26
true,6,1,1,1,true,z,false,true,0.0-2.0-0.26-0.235-3.235,1,0,0,90,false,stim,false,2,904,3,1,1,54514,WMM2,787214,false,false,823,image-keyboard-response,27
true,6,1,1,1,true,z,false,true,0.0-2.0-0.26-0.236-3.236,1,0,0,90,false,stim,false,2,478,3,1,1,54514,WMM2,789210,false,false,826,image-keyboard-response,28
true,6,1,1,1,true,z,false,true,0.0-2.0-0.26-0.237-3.237,1,0,0,90,false,stim,false,1,901,3,0,0,54514,WMM2,791628,false,false,829,image-keyboard-response,29
true,6,0,1,0,true,q,false,false,0.0-2.0-0.26-0.238-3.238,1,0,0,81,false,stim,false,1,730,3,1,2,54514,WMM2,793886,false,true,832,image-keyboard-response,30
true,6,1,1,1,true,z,false,true,0.0-2.0-0.26-0.239-3.239,1,0,0,90,false,stim,false,2,424,3,1,1,54514,WMM2,795820,false,false,835,image-keyboard-response,31
true,6,0,1,0,true,q,false,true,0.0-2.0-0.26-0.240-3.240,1,0,0,81,false,stim,false,1,732,3,1,2,54514,WMM2,798067,false,false,838,image-keyboard-response,32
true,6,1,1,1,true,z,false,true,0.0-2.0-0.26-0.241-3.241,1,0,0,90,false,stim,false,1,607,3,0,0,54514,WMM2,800193,false,false,841,image-keyboard-response,33
true,6,0,1,0,true,q,false,true,0.0-2.0-0.26-0.242-3.242,1,0,0,81,false,stim,false,1,882,3,1,2,54514,WMM2,802592,false,false,844,image-keyboard-response,34
true,6,1,1,1,true,z,false,true,0.0-2.0-0.27-0.243-3.243,1,0,0,90,false,stim,false,1,957,3,0,0,54514,WMM2,805074,false,false,847,image-keyboard-response,35
true,7,0,2,0,true,q,false,true,0.0-2.0-0.27-0.244-3.244,0,1,1,81,true,stim,false,0,528,3,1,2,54514,WMM2,807135,false,false,850,image-keyboard-response,1
true,7,1,2,2,false,d,false,false,0.0-2.0-0.27-0.245-3.245,0,1,1,90,false,stim,true,1,493,3,0,0,54514,WMM2,809159,false,false,853,image-keyboard-response,2
true,7,0,2,0,true,q,false,true,0.0-2.0-0.27-0.246-3.246,0,1,1,81,false,stim,false,0,919,3,1,2,54514,WMM2,811605,false,false,856,image-keyboard-response,3
true,7,1,2,0,false,q,true,true,0.0-2.0-0.27-0.247-3.247,0,1,1,90,false,stim,false,0,431,3,1,2,54514,WMM2,813562,false,true,859,image-keyboard-response,4
true,7,1,2,1,true,z,false,true,0.0-2.0-0.27-0.248-3.248,0,1,1,90,false,stim,false,1,552,3,1,1,54514,WMM2,815630,false,false,862,image-keyboard-response,5
true,7,1,2,2,false,d,false,true,0.0-2.0-0.27-0.249-3.249,0,1,1,90,false,stim,true,1,632,3,0,0,54514,WMM2,817788,false,true,865,image-keyboard-response,6
true,7,1,2,1,true,z,false,true,0.0-2.0-0.27-0.250-3.250,0,1,1,90,false,stim,false,1,648,3,1,1,54514,WMM2,819968,false,false,868,image-keyboard-response,7
true,7,1,2,1,true,z,false,true,0.0-2.0-0.27-0.251-3.251,0,1,1,90,false,stim,false,1,491,3,1,1,54514,WMM2,821979,false,false,871,image-keyboard-response,8
true,7,1,2,1,true,z,false,true,0.0-2.0-0.28-0.252-3.252,0,1,1,90,false,stim,false,1,400,3,1,1,54514,WMM2,823907,false,false,874,image-keyboard-response,9
true,7,1,2,1,true,z,false,true,0.0-2.0-0.28-0.253-3.253,0,1,1,90,false,stim,false,1,375,3,1,1,54514,WMM2,825815,false,false,877,image-keyboard-response,10
true,7,1,2,1,true,z,false,true,0.0-2.0-0.28-0.254-3.254,0,1,1,90,false,stim,false,1,502,3,1,1,54514,WMM2,827848,false,false,880,image-keyboard-response,11
true,7,0,2,0,true,q,false,true,0.0-2.0-0.28-0.255-3.255,0,1,1,81,false,stim,false,0,720,3,1,2,54514,WMM2,830077,false,false,883,image-keyboard-response,12
true,7,1,2,2,false,d,false,false,0.0-2.0-0.28-0.256-3.256,0,1,1,90,false,stim,true,1,594,3,0,0,54514,WMM2,832190,false,false,886,image-keyboard-response,13
true,7,0,2,0,true,q,false,false,0.0-2.0-0.28-0.257-3.257,0,1,1,81,false,stim,false,0,852,3,1,2,54514,WMM2,834569,false,true,889,image-keyboard-response,14
true,7,1,2,2,false,d,false,false,0.0-2.0-0.28-0.258-3.258,0,1,1,90,false,stim,true,1,400,3,0,0,54514,WMM2,836486,false,false,892,image-keyboard-response,15
true,7,1,2,2,false,d,false,true,0.0-2.0-0.28-0.259-3.259,0,1,1,90,false,stim,true,1,531,3,0,0,54514,WMM2,838542,false,true,895,image-keyboard-response,16
true,7,0,2,0,true,q,false,true,0.0-2.0-0.28-0.260-3.260,0,1,1,81,false,stim,false,0,680,3,1,2,54514,WMM2,840745,false,false,898,image-keyboard-response,17
true,7,1,2,1,true,z,false,true,0.0-2.0-0.29-0.261-3.261,0,1,1,90,false,stim,false,1,429,3,1,1,54514,WMM2,842709,false,false,901,image-keyboard-response,18
true,7,0,2,0,true,q,false,true,0.0-2.0-0.29-0.262-3.262,0,1,1,81,false,stim,false,0,797,3,1,2,54514,WMM2,845040,false,false,904,image-keyboard-response,19
true,7,0,2,0,true,q,false,true,0.0-2.0-0.29-0.263-3.263,0,1,1,81,false,stim,false,0,868,3,1,2,54514,WMM2,847440,false,false,907,image-keyboard-response,20
true,7,1,2,2,false,d,false,false,0.0-2.0-0.29-0.264-3.264,0,1,1,90,false,stim,true,1,608,3,0,0,54514,WMM2,849594,false,false,910,image-keyboard-response,21
true,7,1,2,2,false,d,false,true,0.0-2.0-0.29-0.265-3.265,0,1,1,90,false,stim,true,1,515,3,0,0,54514,WMM2,851643,false,true,913,image-keyboard-response,22
true,7,1,2,1,true,z,false,true,0.0-2.0-0.29-0.266-3.266,0,1,1,90,false,stim,false,1,574,3,1,1,54514,WMM2,853750,false,false,916,image-keyboard-response,23
true,7,1,2,1,true,z,false,true,0.0-2.0-0.29-0.267-3.267,0,1,1,90,false,stim,false,1,452,3,1,1,54514,WMM2,855729,false,false,919,image-keyboard-response,24
true,7,0,2,0,true,q,false,true,0.0-2.0-0.29-0.268-3.268,0,1,1,81,false,stim,false,0,615,3,1,2,54514,WMM2,857884,false,false,922,image-keyboard-response,25
true,7,1,2,2,false,d,false,false,0.0-2.0-0.29-0.269-3.269,0,1,1,90,false,stim,true,1,615,3,0,0,54514,WMM2,860042,false,false,925,image-keyboard-response,26
true,7,1,2,1,true,z,false,true,0.0-2.0-0.30-0.270-3.270,0,1,1,90,false,stim,false,1,518,3,1,1,54514,WMM2,862084,false,false,928,image-keyboard-response,27
true,7,0,2,0,true,q,false,false,0.0-2.0-0.30-0.271-3.271,0,1,1,81,false,stim,false,0,762,3,1,2,54514,WMM2,864380,false,true,931,image-keyboard-response,28
true,7,0,2,0,true,q,false,true,0.0-2.0-0.30-0.272-3.272,0,1,1,81,false,stim,false,0,464,3,1,2,54514,WMM2,866372,false,false,934,image-keyboard-response,29
true,7,1,2,2,false,d,false,false,0.0-2.0-0.30-0.273-3.273,0,1,1,90,false,stim,true,1,526,3,0,0,54514,WMM2,868422,false,false,937,image-keyboard-response,30
true,7,1,2,1,true,z,false,true,0.0-2.0-0.30-0.274-3.274,0,1,1,90,false,stim,false,1,572,3,1,1,54514,WMM2,870521,false,false,940,image-keyboard-response,31
true,7,1,2,2,false,d,false,true,0.0-2.0-0.30-0.275-3.275,0,1,1,90,false,stim,true,1,515,3,0,0,54514,WMM2,872571,false,true,943,image-keyboard-response,32
true,7,0,2,0,true,q,false,false,0.0-2.0-0.30-0.276-3.276,0,1,1,81,false,stim,false,0,416,3,1,2,54514,WMM2,874516,false,true,946,image-keyboard-response,33
true,7,1,2,1,true,z,false,true,0.0-2.0-0.30-0.277-3.277,0,1,1,90,false,stim,false,1,695,3,1,1,54514,WMM2,876737,false,false,949,image-keyboard-response,34
true,7,1,2,2,false,d,false,false,0.0-2.0-0.30-0.278-3.278,0,1,1,90,false,stim,true,1,564,3,0,0,54514,WMM2,878825,false,false,952,image-keyboard-response,35
true,7,0,2,0,true,q,false,false,0.0-2.0-0.31-0.279-3.279,0,1,1,81,false,stim,false,0,664,3,1,2,54514,WMM2,881019,false,true,955,image-keyboard-response,36
true,7,0,2,0,true,q,false,true,0.0-2.0-0.31-0.280-3.280,0,1,1,81,false,stim,false,0,615,3,1,2,54514,WMM2,883162,false,false,958,image-keyboard-response,37
true,7,1,2,2,false,d,false,false,0.0-2.0-0.31-0.281-3.281,0,1,1,90,false,stim,true,1,495,3,0,0,54514,WMM2,885176,false,false,961,image-keyboard-response,38
true,7,1,2,2,false,d,false,false,0.0-2.0-0.31-0.282-3.282,0,1,1,90,false,stim,true,1,533,3,0,0,54514,WMM2,887239,false,false,964,image-keyboard-response,39
true,7,2,2,2,true,d,false,true,0.0-2.0-0.31-0.283-3.283,0,1,1,68,false,stim,false,1,556,3,0,0,54514,WMM2,889326,false,false,967,image-keyboard-response,40
true,7,0,2,0,true,q,false,true,0.0-2.0-0.31-0.284-3.284,0,1,1,81,false,stim,false,0,650,3,1,2,54514,WMM2,891502,false,false,970,image-keyboard-response,41
true,7,1,2,1,true,z,false,true,0.0-2.0-0.31-0.285-3.285,0,1,1,90,false,stim,false,1,404,3,1,1,54514,WMM2,893440,false,false,973,image-keyboard-response,42
true,7,1,2,1,true,z,false,true,0.0-2.0-0.31-0.286-3.286,0,1,1,90,false,stim,false,1,516,3,1,1,54514,WMM2,895485,false,false,976,image-keyboard-response,43
true,7,1,2,1,true,z,false,true,0.0-2.0-0.31-0.287-3.287,0,1,1,90,false,stim,false,1,456,3,1,1,54514,WMM2,897478,false,false,979,image-keyboard-response,44
true,7,1,2,1,true,z,false,true,0.0-2.0-0.32-0.288-3.288,0,1,1,90,false,stim,false,1,370,3,1,1,54514,WMM2,899380,false,false,982,image-keyboard-response,45
true,7,2,2,2,true,d,false,true,0.0-2.0-0.32-0.289-3.289,0,1,1,68,false,stim,false,1,473,3,0,0,54514,WMM2,901380,false,false,985,image-keyboard-response,46
true,7,1,2,1,true,z,false,true,0.0-2.0-0.32-0.290-3.290,0,1,1,90,false,stim,false,1,613,3,1,1,54514,WMM2,903521,false,false,988,image-keyboard-response,47
true,7,1,2,1,true,z,false,true,0.0-2.0-0.32-0.291-3.291,0,1,1,90,false,stim,false,1,490,3,1,1,54514,WMM2,905533,false,false,991,image-keyboard-response,48
true,7,0,2,0,true,q,false,true,0.0-2.0-0.32-0.292-3.292,0,1,1,81,false,stim,false,0,520,3,0,2,54514,WMM2,907581,false,false,994,image-keyboard-response,49
true,7,0,2,0,true,q,false,true,0.0-2.0-0.32-0.293-3.293,0,1,1,81,false,stim,false,0,475,3,0,2,54514,WMM2,909584,false,false,997,image-keyboard-response,50
true,7,2,2,2,true,d,false,true,0.0-2.0-0.32-0.294-3.294,0,1,1,68,false,stim,false,1,553,3,1,0,54514,WMM2,911661,false,false,1000,image-keyboard-response,51
true,7,2,2,2,true,d,false,true,0.0-2.0-0.32-0.295-3.295,0,1,1,68,false,stim,false,1,454,3,1,0,54514,WMM2,913664,false,false,1003,image-keyboard-response,52
true,7,0,2,0,true,q,false,true,0.0-2.0-0.32-0.296-3.296,0,1,1,81,false,stim,false,0,790,3,0,2,54514,WMM2,915966,false,false,1006,image-keyboard-response,53
true,7,1,2,1,true,z,false,false,0.0-2.0-0.33-0.297-3.297,0,1,1,90,false,stim,false,1,530,3,1,1,54514,WMM2,918026,false,true,1009,image-keyboard-response,54
true,7,0,2,0,true,q,false,true,0.0-2.0-0.33-0.298-3.298,0,1,1,81,false,stim,false,0,559,3,0,2,54514,WMM2,920100,false,false,1012,image-keyboard-response,55
true,7,2,2,2,true,d,false,true,0.0-2.0-0.33-0.299-3.299,0,1,1,68,false,stim,false,1,797,3,1,0,54514,WMM2,922413,false,false,1015,image-keyboard-response,56
true,8,2,4,2,true,d,false,false,0.0-2.0-0.33-0.300-3.300,1,1,0,68,true,stim,false,2,473,3,1,0,54514,WMM2,924409,false,true,1018,image-keyboard-response,1
true,8,2,4,2,true,d,false,true,0.0-2.0-0.33-0.301-3.301,1,1,0,68,false,stim,false,2,638,3,1,0,54514,WMM2,926577,false,false,1021,image-keyboard-response,2
true,8,0,4,0,true,q,false,true,0.0-2.0-0.33-0.302-3.302,1,1,0,81,false,stim,false,0,1044,3,0,2,54514,WMM2,929152,false,false,1024,image-keyboard-response,3
true,8,0,4,0,true,q,false,true,0.0-2.0-0.33-0.303-3.303,1,1,0,81,false,stim,false,0,567,3,0,2,54514,WMM2,931248,false,false,1027,image-keyboard-response,4
true,8,1,4,1,true,z,false,true,0.0-2.0-0.33-0.304-3.304,1,1,0,90,false,stim,false,1,442,3,1,1,54514,WMM2,933216,false,false,1030,image-keyboard-response,5
true,8,1,4,1,true,z,false,true,0.0-2.0-0.33-0.305-3.305,1,1,0,90,false,stim,false,1,655,3,1,1,54514,WMM2,935387,false,false,1033,image-keyboard-response,6
true,8,2,4,2,true,d,false,true,0.0-2.0-0.34-0.306-3.306,1,1,0,68,false,stim,false,2,613,3,1,0,54514,WMM2,937529,false,false,1036,image-keyboard-response,7
true,8,1,4,1,true,z,false,false,0.0-2.0-0.34-0.307-3.307,1,1,0,90,false,stim,false,1,483,3,1,1,54514,WMM2,939535,false,true,1039,image-keyboard-response,8
true,8,1,4,1,true,z,false,true,0.0-2.0-0.34-0.308-3.308,1,1,0,90,false,stim,false,1,498,3,1,1,54514,WMM2,941554,false,false,1042,image-keyboard-response,9
true,8,0,4,0,true,q,false,true,0.0-2.0-0.34-0.309-3.309,1,1,0,81,false,stim,false,0,515,3,0,2,54514,WMM2,943591,false,false,1045,image-keyboard-response,10
true,8,0,4,0,true,q,false,true,0.0-2.0-0.34-0.310-3.310,1,1,0,81,false,stim,false,0,611,3,0,2,54514,WMM2,945730,false,false,1048,image-keyboard-response,11
true,8,1,4,1,true,z,false,true,0.0-2.0-0.34-0.311-3.311,1,1,0,90,false,stim,false,1,495,3,1,1,54514,WMM2,947737,false,false,1051,image-keyboard-response,12
true,8,2,4,2,true,d,false,true,0.0-2.0-0.34-0.312-3.312,1,1,0,68,false,stim,false,2,618,3,1,0,54514,WMM2,949872,false,false,1054,image-keyboard-response,13
true,8,0,4,0,true,q,false,true,0.0-2.0-0.34-0.313-3.313,1,1,0,81,false,stim,false,0,937,3,0,2,54514,WMM2,952346,false,false,1057,image-keyboard-response,14
true,8,2,4,2,true,d,false,true,0.0-2.0-0.34-0.314-3.314,1,1,0,68,false,stim,false,2,713,3,1,0,54514,WMM2,954573,false,false,1060,image-keyboard-response,15
true,8,1,4,1,true,z,false,false,0.0-2.0-0.35-0.315-3.315,1,1,0,90,false,stim,false,1,730,3,1,1,54514,WMM2,956837,false,true,1063,image-keyboard-response,16
true,8,2,4,2,true,d,false,true,0.0-2.0-0.35-0.316-3.316,1,1,0,68,false,stim,false,2,740,3,1,0,54514,WMM2,959109,false,false,1066,image-keyboard-response,17
true,8,0,4,0,true,q,false,true,0.0-2.0-0.35-0.317-3.317,1,1,0,81,false,stim,false,0,525,3,0,2,54514,WMM2,961158,false,false,1069,image-keyboard-response,18
true,8,1,4,1,true,z,false,true,0.0-2.0-0.35-0.318-3.318,1,1,0,90,false,stim,false,1,649,3,1,1,54514,WMM2,963322,false,false,1072,image-keyboard-response,19
true,8,1,4,1,true,z,false,true,0.0-2.0-0.35-0.319-3.319,1,1,0,90,false,stim,false,1,537,3,1,1,54514,WMM2,965383,false,false,1075,image-keyboard-response,20
true,8,0,4,0,true,q,false,false,0.0-2.0-0.35-0.320-3.320,1,1,0,81,false,stim,false,0,620,3,1,2,54514,WMM2,967536,false,true,1078,image-keyboard-response,21
true,8,0,4,0,true,q,false,false,0.0-2.0-0.35-0.321-3.321,1,1,0,81,false,stim,false,0,453,3,1,2,54514,WMM2,969520,false,true,1081,image-keyboard-response,22
true,8,2,4,2,true,d,false,false,0.0-2.0-0.35-0.322-3.322,1,1,0,68,false,stim,false,2,488,3,0,0,54514,WMM2,971531,false,true,1084,image-keyboard-response,23
true,8,2,4,2,true,d,false,true,0.0-2.0-0.35-0.323-3.323,1,1,0,68,false,stim,false,2,440,3,0,0,54514,WMM2,973489,false,false,1087,image-keyboard-response,24
true,8,1,4,1,true,z,false,true,0.0-2.0-0.36-0.324-3.324,1,1,0,90,false,stim,false,1,521,3,1,1,54514,WMM2,975537,false,false,1090,image-keyboard-response,25
true,8,2,4,2,true,d,false,true,0.0-2.0-0.36-0.325-3.325,1,1,0,68,false,stim,false,2,943,3,0,0,54514,WMM2,978019,false,false,1093,image-keyboard-response,26
true,8,0,4,0,true,q,false,true,0.0-2.0-0.36-0.326-3.326,1,1,0,81,false,stim,false,0,612,3,1,2,54514,WMM2,980158,false,false,1096,image-keyboard-response,27
true,8,1,4,1,true,z,false,true,0.0-2.0-0.36-0.327-3.327,1,1,0,90,false,stim,false,1,650,3,1,1,54514,WMM2,982327,false,false,1099,image-keyboard-response,28
true,8,1,4,1,true,z,false,true,0.0-2.0-0.36-0.328-3.328,1,1,0,90,false,stim,false,1,503,3,1,1,54514,WMM2,984375,false,false,1102,image-keyboard-response,29
true,8,0,4,0,true,q,false,true,0.0-2.0-0.36-0.329-3.329,1,1,0,81,false,stim,false,0,764,3,1,2,54514,WMM2,986663,false,false,1105,image-keyboard-response,30
true,9,2,3,0,false,q,false,true,0.0-2.0-0.36-0.330-3.330,0,1,1,68,true,stim,true,2,599,3,0,0,54514,WMM2,988784,false,true,1108,image-keyboard-response,1
true,9,2,3,0,false,q,false,false,0.0-2.0-0.36-0.331-3.331,0,1,1,68,false,stim,true,2,490,3,0,0,54514,WMM2,990807,false,false,1111,image-keyboard-response,2
true,9,0,3,0,true,q,false,true,0.0-2.0-0.36-0.332-3.332,0,1,1,81,false,stim,false,0,644,3,1,2,54514,WMM2,992976,false,false,1114,image-keyboard-response,3
true,9,0,3,0,true,q,false,true,0.0-2.0-0.37-0.333-3.333,0,1,1,81,false,stim,false,0,518,3,1,2,54514,WMM2,995009,false,false,1117,image-keyboard-response,4
true,9,0,3,0,true,q,false,true,0.0-2.0-0.37-0.334-3.334,0,1,1,81,false,stim,false,0,507,3,1,2,54514,WMM2,997043,false,false,1120,image-keyboard-response,5
true,9,2,3,0,false,q,false,false,0.0-2.0-0.37-0.335-3.335,0,1,1,68,false,stim,true,2,608,3,0,0,54514,WMM2,999186,false,false,1123,image-keyboard-response,6
true,9,0,3,0,true,q,false,true,0.0-2.0-0.37-0.336-3.336,0,1,1,81,false,stim,false,0,766,3,1,2,54514,WMM2,1001476,false,false,1126,image-keyboard-response,7
true,9,1,3,1,true,z,false,true,0.0-2.0-0.37-0.337-3.337,0,1,1,90,false,stim,false,1,561,3,1,1,54514,WMM2,1003553,false,false,1129,image-keyboard-response,8
true,9,1,3,1,true,z,false,true,0.0-2.0-0.37-0.338-3.338,0,1,1,90,false,stim,false,1,521,3,1,1,54514,WMM2,1005613,false,false,1132,image-keyboard-response,9
true,9,2,3,0,false,q,false,false,0.0-2.0-0.37-0.339-3.339,0,1,1,68,false,stim,true,2,508,3,0,0,54514,WMM2,1007644,false,false,1135,image-keyboard-response,10
true,9,1,3,0,false,q,true,false,0.0-2.0-0.37-0.340-3.340,0,1,1,90,false,stim,false,2,610,3,0,0,54514,WMM2,1009781,false,false,1138,image-keyboard-response,11
true,9,1,3,1,true,z,false,true,0.0-2.0-0.37-0.341-3.341,0,1,1,90,false,stim,false,1,833,3,1,1,54514,WMM2,1012141,false,false,1141,image-keyboard-response,12
true,9,1,3,1,true,z,false,true,0.0-2.0-0.38-0.342-3.342,0,1,1,90,false,stim,false,1,447,3,1,1,54514,WMM2,1014116,false,false,1144,image-keyboard-response,13
true,9,0,3,0,true,q,false,false,0.0-2.0-0.38-0.343-3.343,0,1,1,81,false,stim,false,0,485,3,1,2,54514,WMM2,1016124,false,true,1147,image-keyboard-response,14
true,9,0,3,0,true,q,false,false,0.0-2.0-0.38-0.344-3.344,0,1,1,81,false,stim,false,0,559,3,1,2,54514,WMM2,1018205,false,true,1150,image-keyboard-response,15
true,9,1,3,1,true,z,false,false,0.0-2.0-0.38-0.345-3.345,0,1,1,90,false,stim,false,1,596,3,1,1,54514,WMM2,1020328,false,true,1153,image-keyboard-response,16
true,9,0,3,0,true,q,false,true,0.0-2.0-0.38-0.346-3.346,0,1,1,81,false,stim,false,2,1057,3,0,0,54514,WMM2,1022903,false,false,1156,image-keyboard-response,17
true,9,0,3,0,true,q,false,true,0.0-2.0-0.38-0.347-3.347,0,1,1,81,false,stim,false,2,593,3,0,0,54514,WMM2,1025029,false,false,1159,image-keyboard-response,18
true,9,0,3,0,true,q,false,false,0.0-2.0-0.38-0.348-3.348,0,1,1,81,false,stim,false,0,882,3,1,2,54514,WMM2,1027441,false,true,1162,image-keyboard-response,19
true,9,0,3,0,true,q,false,true,0.0-2.0-0.38-0.349-3.349,0,1,1,81,false,stim,false,2,664,3,0,0,54514,WMM2,1029626,false,false,1165,image-keyboard-response,20
true,9,1,3,1,true,z,false,true,0.0-2.0-0.38-0.350-3.350,0,1,1,90,false,stim,false,1,737,3,0,1,54514,WMM2,1031894,false,false,1168,image-keyboard-response,21
true,9,1,3,1,true,z,false,true,0.0-2.0-0.39-0.351-3.351,0,1,1,90,false,stim,false,1,532,3,0,1,54514,WMM2,1033954,false,false,1171,image-keyboard-response,22
true,9,0,3,0,true,q,false,true,0.0-2.0-0.39-0.352-3.352,0,1,1,81,false,stim,false,0,492,3,1,2,54514,WMM2,1035969,false,false,1174,image-keyboard-response,23
true,9,0,3,0,true,q,false,true,0.0-2.0-0.39-0.353-3.353,0,1,1,81,false,stim,false,2,412,3,1,0,54514,WMM2,1037912,false,false,1177,image-keyboard-response,24
true,9,0,3,0,true,q,false,true,0.0-2.0-0.39-0.354-3.354,0,1,1,81,false,stim,false,2,460,3,1,0,54514,WMM2,1039906,false,false,1180,image-keyboard-response,25
true,9,0,3,0,true,q,false,true,0.0-2.0-0.39-0.355-3.355,0,1,1,81,false,stim,false,0,642,3,1,2,54514,WMM2,1042069,false,false,1183,image-keyboard-response,26
true,9,0,3,0,true,q,false,false,0.0-2.0-0.39-0.356-3.356,0,1,1,81,false,stim,false,2,738,3,1,0,54514,WMM2,1044340,false,true,1186,image-keyboard-response,27
true,9,1,3,1,true,z,false,true,0.0-2.0-0.39-0.357-3.357,0,1,1,90,false,stim,false,1,420,3,0,1,54514,WMM2,1046280,false,false,1189,image-keyboard-response,28
true,9,1,3,1,true,z,false,true,0.0-2.0-0.39-0.358-3.358,0,1,1,90,false,stim,false,1,515,3,0,1,54514,WMM2,1048318,false,false,1192,image-keyboard-response,29
true,9,0,3,0,true,q,false,false,0.0-2.0-0.39-0.359-3.359,0,1,1,81,false,stim,false,0,633,3,1,2,54514,WMM2,1050480,false,true,1195,image-keyboard-response,30
true,10,0,4,0,true,q,false,true,0.0-2.0-0.40-0.360-3.360,1,0,1,81,true,stim,false,0,452,3,1,0,54514,WMM2,1052461,false,false,1198,image-keyboard-response,1
true,10,1,4,1,true,z,false,true,0.0-2.0-0.40-0.361-3.361,1,0,1,90,false,stim,false,1,1083,3,0,1,54514,WMM2,1055089,false,false,1201,image-keyboard-response,2
true,10,0,4,0,true,q,false,false,0.0-2.0-0.40-0.362-3.362,1,0,1,81,false,stim,false,0,495,3,1,2,54514,WMM2,1057101,false,true,1204,image-keyboard-response,3
true,10,0,4,0,true,q,false,true,0.0-2.0-0.40-0.363-3.363,1,0,1,81,false,stim,false,0,492,3,1,2,54514,WMM2,1059111,false,false,1207,image-keyboard-response,4
true,10,1,4,1,true,z,false,true,0.0-2.0-0.40-0.364-3.364,1,0,1,90,false,stim,false,1,574,3,0,1,54514,WMM2,1061205,false,false,1210,image-keyboard-response,5
true,10,0,4,0,true,q,false,true,0.0-2.0-0.40-0.365-3.365,1,0,1,81,false,stim,false,0,612,3,1,0,54514,WMM2,1063348,false,false,1213,image-keyboard-response,6
true,10,0,4,0,true,q,false,true,0.0-2.0-0.40-0.366-3.366,1,0,1,81,false,stim,false,0,425,3,1,0,54514,WMM2,1065294,false,false,1216,image-keyboard-response,7
true,10,0,4,0,true,q,false,true,0.0-2.0-0.40-0.367-3.367,1,0,1,81,false,stim,false,0,985,3,1,2,54514,WMM2,1067804,false,false,1219,image-keyboard-response,8
true,10,1,4,1,true,z,false,true,0.0-2.0-0.40-0.368-3.368,1,0,1,90,false,stim,false,1,609,3,0,1,54514,WMM2,1069945,false,false,1222,image-keyboard-response,9
true,10,1,4,1,true,z,false,false,0.0-2.0-0.41-0.369-3.369,1,0,1,90,false,stim,false,1,888,3,0,1,54514,WMM2,1072354,false,true,1225,image-keyboard-response,10
true,10,1,4,1,true,z,false,true,0.0-2.0-0.41-0.370-3.370,1,0,1,90,false,stim,false,1,455,3,0,1,54514,WMM2,1074332,false,false,1228,image-keyboard-response,11
true,10,0,4,0,true,q,false,true,0.0-2.0-0.41-0.371-3.371,1,0,1,81,false,stim,false,0,822,3,1,0,54514,WMM2,1076678,false,false,1231,image-keyboard-response,12
true,10,0,4,0,true,q,false,true,0.0-2.0-0.41-0.372-3.372,1,0,1,81,false,stim,false,0,525,3,1,2,54514,WMM2,1078732,false,false,1234,image-keyboard-response,13
true,10,0,4,0,true,q,false,false,0.0-2.0-0.41-0.373-3.373,1,0,1,81,false,stim,false,0,524,3,1,2,54514,WMM2,1080778,false,true,1237,image-keyboard-response,14
true,10,0,4,0,true,q,false,true,0.0-2.0-0.41-0.374-3.374,1,0,1,81,false,stim,false,0,463,3,1,2,54514,WMM2,1082780,false,false,1240,image-keyboard-response,15
true,10,1,4,1,true,z,false,true,0.0-2.0-0.41-0.375-3.375,1,0,1,90,false,stim,false,1,698,3,0,1,54514,WMM2,1085011,false,false,1243,image-keyboard-response,16
true,10,0,4,0,true,q,false,true,0.0-2.0-0.41-0.376-3.376,1,0,1,81,false,stim,false,0,844,3,1,0,54514,WMM2,1087383,false,false,1246,image-keyboard-response,17
true,10,0,4,0,true,q,false,true,0.0-2.0-0.41-0.377-3.377,1,0,1,81,false,stim,false,0,562,3,1,0,54514,WMM2,1089460,false,false,1249,image-keyboard-response,18
true,10,1,4,1,true,z,false,true,0.0-2.0-0.42-0.378-3.378,1,0,1,90,false,stim,false,1,795,3,0,1,54514,WMM2,1091782,false,false,1252,image-keyboard-response,19
true,10,0,4,0,true,q,false,false,0.0-2.0-0.42-0.379-3.379,1,0,1,81,false,stim,false,0,800,3,1,0,54514,WMM2,1094098,false,true,1255,image-keyboard-response,20
true,10,0,4,0,true,q,false,true,0.0-2.0-0.42-0.380-3.380,1,0,1,81,false,stim,false,0,560,3,0,2,54514,WMM2,1096189,false,false,1258,image-keyboard-response,21
true,10,0,4,0,true,q,false,true,0.0-2.0-0.42-0.381-3.381,1,0,1,81,false,stim,false,0,609,3,0,2,54514,WMM2,1098321,false,false,1261,image-keyboard-response,22
true,10,1,4,1,true,z,false,true,0.0-2.0-0.42-0.382-3.382,1,0,1,90,false,stim,false,1,660,3,1,1,54514,WMM2,1100507,false,false,1264,image-keyboard-response,23
true,10,0,4,0,true,q,false,true,0.0-2.0-0.42-0.383-3.383,1,0,1,81,false,stim,false,0,591,3,0,2,54514,WMM2,1102628,false,false,1267,image-keyboard-response,24
true,10,0,4,0,true,q,false,true,0.0-2.0-0.42-0.384-3.384,1,0,1,81,false,stim,false,0,684,3,0,0,54514,WMM2,1104831,false,false,1270,image-keyboard-response,25
true,10,0,4,0,true,q,false,true,0.0-2.0-0.42-0.385-3.385,1,0,1,81,false,stim,false,0,598,3,0,0,54514,WMM2,1106961,false,false,1273,image-keyboard-response,26
true,10,1,4,1,true,z,false,true,0.0-2.0-0.42-0.386-3.386,1,0,1,90,false,stim,false,1,580,3,1,1,54514,WMM2,1109060,false,false,1276,image-keyboard-response,27
true,10,1,4,1,true,z,false,true,0.0-2.0-0.43-0.387-3.387,1,0,1,90,false,stim,false,1,491,3,1,1,54514,WMM2,1111090,false,false,1279,image-keyboard-response,28
true,10,1,4,1,true,z,false,true,0.0-2.0-0.43-0.388-3.388,1,0,1,90,false,stim,false,1,436,3,1,1,54514,WMM2,1113049,false,false,1282,image-keyboard-response,29
true,10,0,4,0,true,q,false,true,0.0-2.0-0.43-0.389-3.389,1,0,1,81,false,stim,false,0,618,3,0,2,54514,WMM2,1115194,false,false,1285,image-keyboard-response,30
true,11,1,1,1,true,z,false,true,0.0-2.0-0.43-0.390-3.390,0,1,0,90,true,stim,false,1,568,3,1,1,54514,WMM2,1117299,false,false,1288,image-keyboard-response,1
true,11,0,1,2,false,d,false,false,0.0-2.0-0.43-0.391-3.391,0,1,0,81,false,stim,true,0,710,3,0,0,54514,WMM2,1119539,false,false,1291,image-keyboard-response,2
true,11,0,1,2,false,d,false,false,0.0-2.0-0.43-0.392-3.392,0,1,0,81,false,stim,true,0,458,3,0,0,54514,WMM2,1121530,false,false,1294,image-keyboard-response,3
true,11,1,1,1,true,z,false,true,0.0-2.0-0.43-0.393-3.393,0,1,0,90,false,stim,false,0,565,3,0,2,54514,WMM2,1123622,false,false,1297,image-keyboard-response,4
true,11,0,1,1,false,z,false,true,0.0-2.0-0.43-0.394-3.394,0,1,0,81,false,stim,true,0,458,3,0,2,54514,WMM2,1125593,false,true,1300,image-keyboard-response,5
true,11,0,1,2,false,d,false,false,0.0-2.0-0.43-0.395-3.395,0,1,0,81,false,stim,true,0,598,3,0,0,54514,WMM2,1127734,false,false,1303,image-keyboard-response,6
true,11,1,1,2,false,d,true,false,0.0-2.0-0.44-0.396-3.396,0,1,0,90,false,stim,false,0,624,3,0,0,54514,WMM2,1129894,false,false,1306,image-keyboard-response,7
true,11,0,1,1,false,z,false,false,0.0-2.0-0.44-0.397-3.397,0,1,0,81,false,stim,true,0,698,3,0,2,54514,WMM2,1132114,false,false,1309,image-keyboard-response,8
true,11,2,1,2,true,d,false,true,0.0-2.0-0.44-0.398-3.398,0,1,0,68,false,stim,false,0,679,3,0,0,54514,WMM2,1134318,false,false,1312,image-keyboard-response,9
true,11,0,1,1,false,z,false,false,0.0-2.0-0.44-0.399-3.399,0,1,0,81,false,stim,true,0,658,3,0,2,54514,WMM2,1136510,false,false,1315,image-keyboard-response,10
true,11,1,1,1,true,z,false,true,0.0-2.0-0.44-0.400-3.400,0,1,0,90,false,stim,false,1,506,3,1,1,54514,WMM2,1138537,false,false,1318,image-keyboard-response,11
true,11,2,1,2,true,d,false,true,0.0-2.0-0.44-0.401-3.401,0,1,0,68,false,stim,false,0,788,3,0,0,54514,WMM2,1140852,false,false,1321,image-keyboard-response,12
true,11,0,1,1,false,z,false,false,0.0-2.0-0.44-0.402-3.402,0,1,0,81,false,stim,true,0,771,3,0,2,54514,WMM2,1143150,false,false,1324,image-keyboard-response,13
true,11,1,1,1,true,z,false,true,0.0-2.0-0.44-0.403-3.403,0,1,0,90,false,stim,false,1,448,3,1,1,54514,WMM2,1145130,false,false,1327,image-keyboard-response,14
true,11,1,1,1,true,z,false,true,0.0-2.0-0.44-0.404-3.404,0,1,0,90,false,stim,false,1,618,3,1,1,54514,WMM2,1147265,false,false,1330,image-keyboard-response,15
true,11,2,1,1,false,z,true,false,0.0-2.0-0.45-0.405-3.405,0,1,0,68,false,stim,false,0,633,3,0,2,54514,WMM2,1149430,false,false,1333,image-keyboard-response,16
true,11,1,1,1,true,z,false,true,0.0-2.0-0.45-0.406-3.406,0,1,0,90,false,stim,false,1,848,3,1,1,54514,WMM2,1151805,false,false,1336,image-keyboard-response,17
true,11,1,1,1,true,z,false,false,0.0-2.0-0.45-0.407-3.407,0,1,0,90,false,stim,false,0,721,3,0,2,54514,WMM2,1154053,false,true,1339,image-keyboard-response,18
true,11,1,1,1,true,z,false,true,0.0-2.0-0.45-0.408-3.408,0,1,0,90,false,stim,false,0,593,3,0,2,54514,WMM2,1156179,false,false,1342,image-keyboard-response,19
true,11,2,1,2,true,d,false,false,0.0-2.0-0.45-0.409-3.409,0,1,0,68,false,stim,false,0,762,3,0,0,54514,WMM2,1158462,false,true,1345,image-keyboard-response,20
true,11,1,1,1,true,z,false,true,0.0-2.0-0.45-0.410-3.410,0,1,0,90,false,stim,false,1,705,3,1,1,54514,WMM2,1160691,false,false,1348,image-keyboard-response,21
true,11,2,1,2,true,d,false,true,0.0-2.0-0.45-0.411-3.411,0,1,0,68,false,stim,false,0,520,3,0,0,54514,WMM2,1162736,false,false,1351,image-keyboard-response,22
true,11,1,1,1,true,z,false,true,0.0-2.0-0.45-0.412-3.412,0,1,0,90,false,stim,false,1,614,3,1,1,54514,WMM2,1164891,false,false,1354,image-keyboard-response,23
true,11,2,1,2,true,d,false,true,0.0-2.0-0.45-0.413-3.413,0,1,0,68,false,stim,false,0,450,3,0,0,54514,WMM2,1166876,false,false,1357,image-keyboard-response,24
true,11,2,1,2,true,d,false,false,0.0-2.0-0.46-0.414-3.414,0,1,0,68,false,stim,false,0,702,3,0,0,54514,WMM2,1169110,false,true,1360,image-keyboard-response,25
true,11,1,1,1,true,z,false,true,0.0-2.0-0.46-0.415-3.415,0,1,0,90,false,stim,false,0,478,3,1,2,54514,WMM2,1171124,false,false,1363,image-keyboard-response,26
true,11,1,1,1,true,z,false,false,0.0-2.0-0.46-0.416-3.416,0,1,0,90,false,stim,false,1,440,3,1,1,54514,WMM2,1173099,false,true,1366,image-keyboard-response,27
true,11,2,1,2,true,d,false,true,0.0-2.0-0.46-0.417-3.417,0,1,0,68,false,stim,false,0,629,3,0,0,54514,WMM2,1175248,false,false,1369,image-keyboard-response,28
true,11,1,1,1,true,z,false,true,0.0-2.0-0.46-0.418-3.418,0,1,0,90,false,stim,false,1,526,3,1,1,54514,WMM2,1177312,false,false,1372,image-keyboard-response,29
true,11,2,1,2,true,d,false,true,0.0-2.0-0.46-0.419-3.419,0,1,0,68,false,stim,false,0,531,3,0,0,54514,WMM2,1179370,false,false,1375,image-keyboard-response,30
true,12,1,3,1,true,z,false,true,0.0-2.0-0.46-0.420-3.420,0,1,1,90,true,stim,false,1,535,3,1,2,54514,WMM2,1181425,false,false,1378,image-keyboard-response,1
true,12,1,3,1,true,z,false,true,0.0-2.0-0.46-0.421-3.421,0,1,1,90,false,stim,false,1,794,3,1,2,54514,WMM2,1183746,false,false,1381,image-keyboard-response,2
true,12,1,3,1,true,z,false,true,0.0-2.0-0.46-0.422-3.422,0,1,1,90,false,stim,false,1,751,3,1,1,54514,WMM2,1186029,false,false,1384,image-keyboard-response,3
true,12,1,3,1,true,z,false,true,0.0-2.0-0.47-0.423-3.423,0,1,1,90,false,stim,false,1,471,3,1,1,54514,WMM2,1188027,false,false,1387,image-keyboard-response,4
true,12,1,3,1,true,z,false,false,0.0-2.0-0.47-0.424-3.424,0,1,1,90,false,stim,false,1,564,3,1,2,54514,WMM2,1190120,false,true,1390,image-keyboard-response,5
true,12,1,3,1,true,z,false,true,0.0-2.0-0.47-0.425-3.425,0,1,1,90,false,stim,false,1,480,3,1,1,54514,WMM2,1192131,false,false,1393,image-keyboard-response,6
true,12,1,3,1,true,z,false,false,0.0-2.0-0.47-0.426-3.426,0,1,1,90,false,stim,false,1,454,3,1,2,54514,WMM2,1194106,false,true,1396,image-keyboard-response,7
true,12,2,3,0,false,q,false,false,0.0-2.0-0.47-0.427-3.427,0,1,1,68,false,stim,true,2,647,3,0,0,54514,WMM2,1196284,false,false,1399,image-keyboard-response,8
true,12,1,3,1,true,z,false,false,0.0-2.0-0.47-0.428-3.428,0,1,1,90,false,stim,false,1,483,3,1,2,54514,WMM2,1198319,false,true,1402,image-keyboard-response,9
true,12,2,3,0,false,q,false,false,0.0-2.0-0.47-0.429-3.429,0,1,1,68,false,stim,true,2,547,3,0,0,54514,WMM2,1200389,false,false,1405,image-keyboard-response,10
true,12,2,3,0,false,q,false,false,0.0-2.0-0.47-0.430-3.430,0,1,1,68,false,stim,true,2,452,3,0,0,54514,WMM2,1202364,false,false,1408,image-keyboard-response,11
true,12,1,3,1,true,z,false,false,0.0-2.0-0.47-0.431-3.431,0,1,1,90,false,stim,false,1,399,3,1,1,54514,WMM2,1204286,false,true,1411,image-keyboard-response,12
true,12,1,3,1,true,z,false,true,0.0-2.0-0.48-0.432-3.432,0,1,1,90,false,stim,false,1,426,3,1,1,54514,WMM2,1206234,false,false,1414,image-keyboard-response,13
true,12,1,3,0,false,q,true,false,0.0-2.0-0.48-0.433-3.433,0,1,1,90,false,stim,false,2,1030,3,0,0,54514,WMM2,1208797,false,false,1417,image-keyboard-response,14
true,12,0,3,0,true,q,false,true,0.0-2.0-0.48-0.434-3.434,0,1,1,81,false,stim,false,2,1173,3,0,0,54514,WMM2,1211496,false,false,1420,image-keyboard-response,15
true,12,0,3,1,false,z,true,false,0.0-2.0-0.48-0.435-3.435,0,1,1,81,false,stim,false,1,793,3,1,2,54514,WMM2,1213829,false,false,1423,image-keyboard-response,16
true,12,2,3,1,false,z,true,true,0.0-2.0-0.48-0.436-3.436,0,1,1,68,false,stim,false,1,588,3,1,2,54514,WMM2,1215945,false,true,1426,image-keyboard-response,17
true,12,1,3,1,true,z,false,false,0.0-2.0-0.48-0.437-3.437,0,1,1,90,false,stim,false,1,638,3,1,1,54514,WMM2,1218107,false,true,1429,image-keyboard-response,18
true,12,0,3,0,true,q,false,true,0.0-2.0-0.48-0.438-3.438,0,1,1,81,false,stim,false,2,654,3,0,0,54514,WMM2,1220285,false,false,1432,image-keyboard-response,19
true,12,2,3,1,false,z,true,false,0.0-2.0-0.48-0.439-3.439,0,1,1,68,false,stim,false,1,772,3,1,2,54514,WMM2,1222578,false,false,1435,image-keyboard-response,20
true,12,1,3,1,true,z,false,true,0.0-2.0-0.48-0.440-3.440,0,1,1,90,false,stim,false,1,621,3,1,1,54514,WMM2,1224728,false,false,1438,image-keyboard-response,21
true,12,0,3,0,true,q,false,true,0.0-2.0-0.49-0.441-3.441,0,1,1,81,false,stim,false,2,598,3,0,0,54514,WMM2,1226859,false,false,1441,image-keyboard-response,22
true,12,1,3,1,true,z,false,true,0.0-2.0-0.49-0.442-3.442,0,1,1,90,false,stim,false,1,691,3,1,1,54514,WMM2,1229081,false,false,1444,image-keyboard-response,23
true,12,1,3,1,true,z,false,true,0.0-2.0-0.49-0.443-3.443,0,1,1,90,false,stim,false,1,499,3,1,1,54514,WMM2,1231119,false,false,1447,image-keyboard-response,24
true,12,2,3,1,false,z,true,false,0.0-2.0-0.49-0.444-3.444,0,1,1,68,false,stim,false,1,592,3,1,2,54514,WMM2,1233241,false,false,1450,image-keyboard-response,25
true,12,0,3,0,true,q,false,true,0.0-2.0-0.49-0.445-3.445,0,1,1,81,false,stim,false,2,794,3,0,0,54514,WMM2,1235563,false,false,1453,image-keyboard-response,26
true,12,0,3,0,true,q,false,true,0.0-2.0-0.49-0.446-3.446,0,1,1,81,false,stim,false,2,554,3,0,0,54514,WMM2,1237651,false,false,1456,image-keyboard-response,27
true,12,2,3,1,false,z,true,false,0.0-2.0-0.49-0.447-3.447,0,1,1,68,false,stim,false,1,840,3,1,2,54514,WMM2,1240030,false,false,1459,image-keyboard-response,28
true,12,1,3,1,true,z,false,true,0.0-2.0-0.49-0.448-3.448,0,1,1,90,false,stim,false,1,507,3,1,1,54514,WMM2,1242073,false,false,1462,image-keyboard-response,29
true,12,2,3,1,false,z,true,true,0.0-2.0-0.49-0.449-3.449,0,1,1,68,false,stim,false,1,560,3,1,2,54514,WMM2,1244167,false,true,1465,image-keyboard-response,30
true,12,1,3,1,true,z,false,true,0.0-2.0-0.50-0.450-3.450,0,1,1,90,false,stim,false,1,479,3,1,1,54514,WMM2,1246177,false,false,1468,image-keyboard-response,31
true,12,0,3,0,true,q,false,true,0.0-2.0-0.50-0.451-3.451,0,1,1,81,false,stim,false,2,458,3,0,0,54514,WMM2,1248165,false,false,1471,image-keyboard-response,32
true,12,2,3,1,false,z,true,false,0.0-2.0-0.50-0.452-3.452,0,1,1,68,false,stim,false,1,837,3,1,2,54514,WMM2,1250529,false,false,1474,image-keyboard-response,33
true,12,1,3,1,true,z,false,true,0.0-2.0-0.50-0.453-3.453,0,1,1,90,false,stim,false,1,905,3,1,1,54514,WMM2,1252961,false,false,1477,image-keyboard-response,34
true,12,2,3,1,false,z,true,false,0.0-2.0-0.50-0.454-3.454,0,1,1,68,false,stim,false,1,687,3,1,2,54514,WMM2,1255190,false,false,1480,image-keyboard-response,35
true,12,0,3,0,true,q,false,true,0.0-2.0-0.50-0.455-3.455,0,1,1,81,false,stim,false,2,612,3,0,0,54514,WMM2,1257344,false,false,1483,image-keyboard-response,36
true,12,1,3,1,true,z,false,true,0.0-2.0-0.50-0.456-3.456,0,1,1,90,false,stim,false,1,793,3,1,1,54514,WMM2,1259661,false,false,1486,image-keyboard-response,37
true,12,2,3,1,false,z,true,false,0.0-2.0-0.50-0.457-3.457,0,1,1,68,false,stim,false,1,758,3,1,2,54514,WMM2,1261956,false,false,1489,image-keyboard-response,38
true,12,0,3,0,true,q,false,true,0.0-2.0-0.50-0.458-3.458,0,1,1,81,false,stim,false,2,644,3,0,0,54514,WMM2,1264135,false,false,1492,image-keyboard-response,39
true,12,2,3,1,false,z,true,false,0.0-2.0-0.51-0.459-3.459,0,1,1,68,false,stim,false,1,791,3,1,2,54514,WMM2,1266467,false,false,1495,image-keyboard-response,40
true,12,1,3,1,true,z,false,true,0.0-2.0-0.51-0.460-3.460,0,1,1,90,false,stim,false,1,436,3,1,1,54514,WMM2,1268439,false,false,1498,image-keyboard-response,41
true,12,0,3,0,true,q,false,false,0.0-2.0-0.51-0.461-3.461,0,1,1,81,false,stim,false,2,527,3,0,0,54514,WMM2,1270531,false,true,1501,image-keyboard-response,42
true,12,2,3,1,false,z,true,false,0.0-2.0-0.51-0.462-3.462,0,1,1,68,false,stim,false,1,784,3,1,2,54514,WMM2,1272844,false,false,1504,image-keyboard-response,43
true,12,1,3,1,true,z,false,true,0.0-2.0-0.51-0.463-3.463,0,1,1,90,false,stim,false,1,410,3,1,1,54514,WMM2,1274781,false,false,1507,image-keyboard-response,44
true,12,1,3,1,true,z,false,true,0.0-2.0-0.51-0.464-3.464,0,1,1,90,false,stim,false,1,480,3,1,1,54514,WMM2,1276797,false,false,1510,image-keyboard-response,45
true,12,0,3,0,true,q,false,true,0.0-2.0-0.51-0.465-3.465,0,1,1,81,false,stim,false,2,689,3,0,0,54514,WMM2,1279022,false,false,1513,image-keyboard-response,46
true,12,0,3,0,true,q,false,true,0.0-2.0-0.51-0.466-3.466,0,1,1,81,false,stim,false,2,477,3,0,0,54514,WMM2,1281028,false,false,1516,image-keyboard-response,47
true,12,2,3,1,false,z,true,false,0.0-2.0-0.51-0.467-3.467,0,1,1,68,false,stim,false,1,699,3,1,2,54514,WMM2,1283258,false,false,1519,image-keyboard-response,48
true,12,0,3,0,true,q,false,true,0.0-2.0-0.52-0.468-3.468,0,1,1,81,false,stim,false,2,683,3,0,0,54514,WMM2,1285484,false,false,1522,image-keyboard-response,49
true,12,0,3,0,true,q,false,true,0.0-2.0-0.52-0.469-3.469,0,1,1,81,false,stim,false,2,594,3,0,0,54514,WMM2,1287611,false,false,1525,image-keyboard-response,50
true,12,1,3,1,true,z,false,true,0.0-2.0-0.52-0.470-3.470,0,1,1,90,false,stim,false,1,524,3,0,1,54514,WMM2,1289667,false,false,1528,image-keyboard-response,51
true,12,1,3,1,true,z,false,true,0.0-2.0-0.52-0.471-3.471,0,1,1,90,false,stim,false,1,411,3,0,1,54514,WMM2,1291618,false,false,1531,image-keyboard-response,52
true,12,0,3,0,true,q,false,true,0.0-2.0-0.52-0.472-3.472,0,1,1,81,false,stim,false,2,654,3,1,0,54514,WMM2,1293804,false,false,1534,image-keyboard-response,53
true,12,1,3,1,true,z,false,true,0.0-2.0-0.52-0.473-3.473,0,1,1,90,false,stim,false,1,737,3,1,2,54514,WMM2,1296053,false,false,1537,image-keyboard-response,54
true,12,1,3,1,true,z,false,true,0.0-2.0-0.52-0.474-3.474,0,1,1,90,false,stim,false,1,489,3,1,2,54514,WMM2,1298060,false,false,1540,image-keyboard-response,55
true,12,1,3,1,true,z,false,false,0.0-2.0-0.52-0.475-3.475,0,1,1,90,false,stim,false,1,415,3,1,2,54514,WMM2,1299994,false,true,1543,image-keyboard-response,56
true,12,1,3,1,true,z,false,true,0.0-2.0-0.52-0.476-3.476,0,1,1,90,false,stim,false,1,518,3,0,1,54514,WMM2,1302041,false,false,1546,image-keyboard-response,57
true,12,1,3,1,true,z,false,false,0.0-2.0-0.53-0.477-3.477,0,1,1,90,false,stim,false,1,423,3,1,2,54514,WMM2,1303985,false,true,1549,image-keyboard-response,58
true,12,1,3,1,true,z,false,true,0.0-2.0-0.53-0.478-3.478,0,1,1,90,false,stim,false,1,394,3,0,1,54514,WMM2,1305901,false,false,1552,image-keyboard-response,59
true,12,1,3,1,true,z,false,true,0.0-2.0-0.53-0.479-3.479,0,1,1,90,false,stim,false,1,550,3,0,1,54514,WMM2,1307968,false,false,1555,image-keyboard-response,60
true,13,0,3,0,true,q,false,true,0.0-2.0-0.53-0.480-3.480,1,0,1,81,true,stim,false,0,588,3,1,0,54514,WMM2,1310079,false,false,1558,image-keyboard-response,1
true,13,0,3,0,true,q,false,true,0.0-2.0-0.53-0.481-3.481,1,0,1,81,false,stim,false,0,443,3,1,0,54514,WMM2,1312060,false,false,1561,image-keyboard-response,2
true,13,1,3,0,false,q,false,false,0.0-2.0-0.53-0.482-3.482,1,0,1,90,false,stim,true,1,498,3,0,1,54514,WMM2,1314084,false,false,1564,image-keyboard-response,3
true,13,1,3,1,true,z,false,true,0.0-2.0-0.53-0.483-3.483,1,0,1,90,false,stim,false,1,423,3,1,2,54514,WMM2,1316043,false,false,1567,image-keyboard-response,4
true,13,0,3,0,true,q,false,true,0.0-2.0-0.53-0.484-3.484,1,0,1,81,false,stim,false,0,594,3,1,0,54514,WMM2,1318169,false,false,1570,image-keyboard-response,5
true,13,1,3,1,true,z,false,true,0.0-2.0-0.53-0.485-3.485,1,0,1,90,false,stim,false,1,544,3,1,2,54514,WMM2,1320248,false,false,1573,image-keyboard-response,6
true,13,0,3,0,true,q,false,true,0.0-2.0-0.54-0.486-3.486,1,0,1,81,false,stim,false,0,627,3,1,0,54514,WMM2,1322399,false,false,1576,image-keyboard-response,7
true,13,1,3,1,true,z,false,true,0.0-2.0-0.54-0.487-3.487,1,0,1,90,false,stim,false,1,508,3,1,2,54514,WMM2,1324436,false,false,1579,image-keyboard-response,8
true,13,1,3,1,true,z,false,true,0.0-2.0-0.54-0.488-3.488,1,0,1,90,false,stim,false,1,437,3,1,2,54514,WMM2,1326398,false,false,1582,image-keyboard-response,9
true,13,0,3,0,true,q,false,true,0.0-2.0-0.54-0.489-3.489,1,0,1,81,false,stim,false,0,618,3,1,0,54514,WMM2,1328545,false,false,1585,image-keyboard-response,10
true,13,1,3,0,false,q,false,false,0.0-2.0-0.54-0.490-3.490,1,0,1,90,false,stim,true,1,570,3,0,1,54514,WMM2,1330639,false,false,1588,image-keyboard-response,11
true,13,1,3,1,true,z,false,true,0.0-2.0-0.54-0.491-3.491,1,0,1,90,false,stim,false,1,559,3,1,2,54514,WMM2,1332729,false,false,1591,image-keyboard-response,12
true,13,1,3,0,false,q,false,false,0.0-2.0-0.54-0.492-3.492,1,0,1,90,false,stim,true,1,559,3,0,1,54514,WMM2,1334829,false,false,1594,image-keyboard-response,13
true,13,2,3,0,false,q,true,false,0.0-2.0-0.54-0.493-3.493,1,0,1,68,false,stim,false,1,571,3,0,1,54514,WMM2,1336931,false,false,1597,image-keyboard-response,14
true,13,0,3,0,true,q,false,true,0.0-2.0-0.54-0.494-3.494,1,0,1,81,false,stim,false,0,675,3,1,0,54514,WMM2,1339135,false,false,1600,image-keyboard-response,15
true,13,1,3,1,true,z,false,true,0.0-2.0-0.55-0.495-3.495,1,0,1,90,false,stim,false,1,441,3,1,2,54514,WMM2,1341141,false,false,1603,image-keyboard-response,16
true,13,0,3,0,true,q,false,true,0.0-2.0-0.55-0.496-3.496,1,0,1,81,false,stim,false,1,473,3,0,1,54514,WMM2,1343143,false,false,1606,image-keyboard-response,17
true,13,0,3,0,true,q,false,false,0.0-2.0-0.55-0.497-3.497,1,0,1,81,false,stim,false,1,711,3,0,1,54514,WMM2,1345370,false,true,1609,image-keyboard-response,18
true,13,0,3,0,true,q,false,true,0.0-2.0-0.55-0.498-3.498,1,0,1,81,false,stim,false,0,779,3,1,0,54514,WMM2,1347679,false,false,1612,image-keyboard-response,19
true,13,0,3,0,true,q,false,true,0.0-2.0-0.55-0.499-3.499,1,0,1,81,false,stim,false,1,540,3,0,1,54514,WMM2,1349749,false,false,1615,image-keyboard-response,20
true,13,1,3,1,true,z,false,true,0.0-2.0-0.55-0.500-3.500,1,0,1,90,false,stim,false,1,560,3,1,2,54514,WMM2,1351832,false,false,1618,image-keyboard-response,21
true,13,0,3,0,true,q,false,true,0.0-2.0-0.55-0.501-3.501,1,0,1,81,false,stim,false,0,569,3,0,0,54514,WMM2,1353918,false,false,1621,image-keyboard-response,22
true,13,0,3,0,true,q,false,true,0.0-2.0-0.55-0.502-3.502,1,0,1,81,false,stim,false,0,543,3,0,0,54514,WMM2,1356000,false,false,1624,image-keyboard-response,23
true,13,1,3,1,true,z,false,true,0.0-2.0-0.55-0.503-3.503,1,0,1,90,false,stim,false,1,978,3,1,2,54514,WMM2,1358509,false,false,1627,image-keyboard-response,24
true,13,1,3,1,true,z,false,false,0.0-2.0-0.56-0.504-3.504,1,0,1,90,false,stim,false,1,442,3,1,2,54514,WMM2,1360475,false,true,1630,image-keyboard-response,25
true,13,0,3,0,true,q,false,true,0.0-2.0-0.56-0.505-3.505,1,0,1,81,false,stim,false,0,505,3,0,0,54514,WMM2,1362502,false,false,1633,image-keyboard-response,26
true,13,0,3,0,true,q,false,true,0.0-2.0-0.56-0.506-3.506,1,0,1,81,false,stim,false,1,667,3,1,1,54514,WMM2,1364686,false,false,1636,image-keyboard-response,27
true,13,0,3,0,true,q,false,true,0.0-2.0-0.56-0.507-3.507,1,0,1,81,false,stim,false,0,742,3,0,0,54514,WMM2,1366958,false,false,1639,image-keyboard-response,28
true,13,0,3,0,true,q,false,true,0.0-2.0-0.56-0.508-3.508,1,0,1,81,false,stim,false,1,557,3,1,1,54514,WMM2,1369050,false,false,1642,image-keyboard-response,29
true,13,0,3,0,true,q,false,true,0.0-2.0-0.56-0.509-3.509,1,0,1,81,false,stim,false,0,463,3,0,0,54514,WMM2,1371046,false,false,1645,image-keyboard-response,30
true,14,0,0,1,false,z,true,false,0.0-2.0-0.56-0.510-3.510,0,1,1,81,true,stim,false,1,419,3,1,2,54514,WMM2,1408140,false,false,1683,image-keyboard-response,1
true,14,0,0,0,true,q,false,true,0.0-2.0-0.56-0.511-3.511,0,1,1,81,false,stim,false,0,379,3,1,1,54514,WMM2,1410055,false,false,1686,image-keyboard-response,2
true,14,1,0,1,true,z,false,true,0.0-2.0-0.56-0.512-3.512,0,1,1,90,false,stim,false,1,796,3,1,2,54514,WMM2,1412366,false,false,1689,image-keyboard-response,3
true,14,1,0,1,true,z,false,true,0.0-2.0-0.57-0.513-3.513,0,1,1,90,false,stim,false,1,766,3,1,2,54514,WMM2,1414664,false,false,1692,image-keyboard-response,4
true,14,2,0,0,false,q,true,false,0.0-2.0-0.57-0.514-3.514,0,1,1,68,false,stim,false,0,663,3,0,0,54514,WMM2,1416843,false,false,1695,image-keyboard-response,5
true,14,0,0,0,true,q,false,true,0.0-2.0-0.57-0.515-3.515,0,1,1,81,false,stim,false,0,1521,3,1,1,54514,WMM2,1419880,false,false,1698,image-keyboard-response,6
true,14,0,0,0,true,q,false,true,0.0-2.0-0.57-0.516-3.516,0,1,1,81,false,stim,false,0,871,3,0,0,54514,WMM2,1422306,false,false,1701,image-keyboard-response,7
true,14,1,0,1,true,z,false,true,0.0-2.0-0.57-0.517-3.517,0,1,1,90,false,stim,false,1,666,3,1,2,54514,WMM2,1424499,false,false,1704,image-keyboard-response,8
true,14,0,0,0,true,q,false,true,0.0-2.0-0.57-0.518-3.518,0,1,1,81,false,stim,false,0,485,3,1,1,54514,WMM2,1426517,false,false,1707,image-keyboard-response,9
true,14,0,0,0,true,q,false,true,0.0-2.0-0.57-0.519-3.519,0,1,1,81,false,stim,false,0,407,3,0,0,54514,WMM2,1428464,false,false,1710,image-keyboard-response,10
true,14,1,0,1,true,z,false,false,0.0-2.0-0.57-0.520-3.520,0,1,1,90,false,stim,false,1,557,3,1,2,54514,WMM2,1430560,false,true,1713,image-keyboard-response,11
true,14,0,0,0,true,q,false,true,0.0-2.0-0.57-0.521-3.521,0,1,1,81,false,stim,false,0,456,3,1,1,54514,WMM2,1432543,false,false,1716,image-keyboard-response,12
true,14,0,0,0,true,q,false,true,0.0-2.0-0.58-0.522-3.522,0,1,1,81,false,stim,false,0,440,3,1,1,54514,WMM2,1434511,false,false,1719,image-keyboard-response,13
true,14,1,0,1,true,z,false,true,0.0-2.0-0.58-0.523-3.523,0,1,1,90,false,stim,false,1,572,3,1,2,54514,WMM2,1436611,false,false,1722,image-keyboard-response,14
true,14,0,0,0,true,q,false,true,0.0-2.0-0.58-0.524-3.524,0,1,1,81,false,stim,false,0,297,3,0,0,54514,WMM2,1438439,false,false,1725,image-keyboard-response,15
true,14,1,0,1,true,z,false,false,0.0-2.0-0.58-0.525-3.525,0,1,1,90,false,stim,false,1,893,3,1,2,54514,WMM2,1440870,false,true,1728,image-keyboard-response,16
true,14,0,0,0,true,q,false,true,0.0-2.0-0.58-0.526-3.526,0,1,1,81,false,stim,false,0,539,3,1,1,54514,WMM2,1442931,false,false,1731,image-keyboard-response,17
true,14,0,0,0,true,q,false,false,0.0-2.0-0.58-0.527-3.527,0,1,1,81,false,stim,false,0,512,3,0,0,54514,WMM2,1444969,false,true,1734,image-keyboard-response,18
true,14,1,0,1,true,z,false,true,0.0-2.0-0.58-0.528-3.528,0,1,1,90,false,stim,false,1,542,3,1,2,54514,WMM2,1447040,false,false,1737,image-keyboard-response,19
true,14,0,0,0,true,q,false,true,0.0-2.0-0.58-0.529-3.529,0,1,1,81,false,stim,false,0,602,3,0,0,54514,WMM2,1449176,false,false,1740,image-keyboard-response,20
true,14,0,0,0,true,q,false,true,0.0-2.0-0.58-0.530-3.530,0,1,1,81,false,stim,false,0,657,3,1,1,54514,WMM2,1451378,false,false,1743,image-keyboard-response,21
true,14,0,0,0,true,q,false,true,0.0-2.0-0.59-0.531-3.531,0,1,1,81,false,stim,false,0,476,3,1,0,54514,WMM2,1453393,false,false,1746,image-keyboard-response,22
true,14,0,0,0,true,q,false,true,0.0-2.0-0.59-0.532-3.532,0,1,1,81,false,stim,false,0,596,3,1,1,54514,WMM2,1455531,false,false,1749,image-keyboard-response,23
true,14,1,0,1,true,z,false,true,0.0-2.0-0.59-0.533-3.533,0,1,1,90,false,stim,false,1,605,3,0,2,54514,WMM2,1457656,false,false,1752,image-keyboard-response,24
true,14,0,0,0,true,q,false,true,0.0-2.0-0.59-0.534-3.534,0,1,1,81,false,stim,false,0,492,3,1,1,54514,WMM2,1459681,false,false,1755,image-keyboard-response,25
true,14,1,0,1,true,z,false,true,0.0-2.0-0.59-0.535-3.535,0,1,1,90,false,stim,false,1,601,3,0,2,54514,WMM2,1461813,false,false,1758,image-keyboard-response,26
true,14,1,0,1,true,z,false,false,0.0-2.0-0.59-0.536-3.536,0,1,1,90,false,stim,false,1,414,3,0,2,54514,WMM2,1463750,false,true,1761,image-keyboard-response,27
true,14,0,0,0,true,q,false,true,0.0-2.0-0.59-0.537-3.537,0,1,1,81,false,stim,false,0,491,3,1,0,54514,WMM2,1465769,false,false,1764,image-keyboard-response,28
true,14,0,0,0,true,q,false,true,0.0-2.0-0.59-0.538-3.538,0,1,1,81,false,stim,false,0,749,3,1,1,54514,WMM2,1468041,false,false,1767,image-keyboard-response,29
true,14,0,0,0,true,q,false,true,0.0-2.0-0.59-0.539-3.539,0,1,1,81,false,stim,false,0,482,3,1,0,54514,WMM2,1470059,false,false,1770,image-keyboard-response,30
true,15,1,4,1,true,z,false,true,0.0-2.0-0.60-0.540-3.540,1,1,0,90,true,stim,false,1,518,3,0,2,54514,WMM2,1472106,false,false,1773,image-keyboard-response,1
true,15,0,4,0,true,q,false,true,0.0-2.0-0.60-0.541-3.541,1,1,0,81,false,stim,false,0,457,3,1,0,54514,WMM2,1474079,false,false,1776,image-keyboard-response,2
true,15,1,4,1,true,z,false,true,0.0-2.0-0.60-0.542-3.542,1,1,0,90,false,stim,false,1,508,3,0,2,54514,WMM2,1476126,false,false,1779,image-keyboard-response,3
true,15,0,4,0,true,q,false,true,0.0-2.0-0.60-0.543-3.543,1,1,0,81,false,stim,false,0,800,3,1,1,54514,WMM2,1478468,false,false,1782,image-keyboard-response,4
true,15,0,4,0,true,q,false,true,0.0-2.0-0.60-0.544-3.544,1,1,0,81,false,stim,false,0,1156,3,1,0,54514,WMM2,1481147,false,false,1785,image-keyboard-response,5
true,15,1,4,1,true,z,false,true,0.0-2.0-0.60-0.545-3.545,1,1,0,90,false,stim,false,1,510,3,0,2,54514,WMM2,1483189,false,false,1788,image-keyboard-response,6
true,15,0,4,0,true,q,false,false,0.0-2.0-0.60-0.546-3.546,1,1,0,81,false,stim,false,0,885,3,1,1,54514,WMM2,1485603,false,true,1791,image-keyboard-response,7
true,15,0,4,0,true,q,false,true,0.0-2.0-0.60-0.547-3.547,1,1,0,81,false,stim,false,0,453,3,1,0,54514,WMM2,1487596,false,false,1794,image-keyboard-response,8
true,15,0,4,0,true,q,false,true,0.0-2.0-0.60-0.548-3.548,1,1,0,81,false,stim,false,0,474,3,1,1,54514,WMM2,1489594,false,false,1797,image-keyboard-response,9
true,15,0,4,0,true,q,false,true,0.0-2.0-0.61-0.549-3.549,1,1,0,81,false,stim,false,0,693,3,1,0,54514,WMM2,1491830,false,false,1800,image-keyboard-response,10
true,15,1,4,1,true,z,false,true,0.0-2.0-0.61-0.550-3.550,1,1,0,90,false,stim,false,1,891,3,0,2,54514,WMM2,1494281,false,false,1803,image-keyboard-response,11
true,15,0,4,0,true,q,false,true,0.0-2.0-0.61-0.551-3.551,1,1,0,81,false,stim,false,0,539,3,1,1,54514,WMM2,1496339,false,false,1806,image-keyboard-response,12
true,15,1,4,1,true,z,false,true,0.0-2.0-0.61-0.552-3.552,1,1,0,90,false,stim,false,1,664,3,0,2,54514,WMM2,1498540,false,false,1809,image-keyboard-response,13
true,15,1,4,1,true,z,false,true,0.0-2.0-0.61-0.553-3.553,1,1,0,90,false,stim,false,1,442,3,0,2,54514,WMM2,1500514,false,false,1812,image-keyboard-response,14
true,15,0,4,0,true,q,false,true,0.0-2.0-0.61-0.554-3.554,1,1,0,81,false,stim,false,0,543,3,1,0,54514,WMM2,1502583,false,false,1815,image-keyboard-response,15
true,15,0,4,0,true,q,false,false,0.0-2.0-0.61-0.555-3.555,1,1,0,81,false,stim,false,0,1707,3,1,1,54514,WMM2,1505834,false,true,1818,image-keyboard-response,16
true,15,0,4,0,true,q,false,true,0.0-2.0-0.61-0.556-3.556,1,1,0,81,false,stim,false,0,685,3,1,0,54514,WMM2,1508048,false,false,1821,image-keyboard-response,17
true,15,0,4,0,true,q,false,true,0.0-2.0-0.61-0.557-3.557,1,1,0,81,false,stim,false,0,476,3,1,1,54514,WMM2,1510053,false,false,1824,image-keyboard-response,18
true,15,0,4,0,true,q,false,true,0.0-2.0-0.62-0.558-3.558,1,1,0,81,false,stim,false,0,406,3,1,1,54514,WMM2,1511993,false,false,1827,image-keyboard-response,19
true,15,0,4,0,true,q,false,true,0.0-2.0-0.62-0.559-3.559,1,1,0,81,false,stim,false,0,380,3,1,1,54514,WMM2,1513902,false,false,1830,image-keyboard-response,20
true,15,0,4,0,true,q,false,false,0.0-2.0-0.62-0.560-3.560,1,1,0,81,false,stim,false,0,609,3,0,0,54514,WMM2,1516046,false,true,1833,image-keyboard-response,21
true,15,1,4,1,true,z,false,true,0.0-2.0-0.62-0.561-3.561,1,1,0,90,false,stim,false,1,692,3,1,2,54514,WMM2,1518269,false,false,1836,image-keyboard-response,22
true,15,0,4,0,true,q,false,true,0.0-2.0-0.62-0.562-3.562,1,1,0,81,false,stim,false,0,579,3,0,0,54514,WMM2,1520369,false,false,1839,image-keyboard-response,23
true,15,0,4,0,true,q,false,true,0.0-2.0-0.62-0.563-3.563,1,1,0,81,false,stim,false,0,528,3,1,1,54514,WMM2,1522416,false,false,1842,image-keyboard-response,24
true,15,0,4,0,true,q,false,true,0.0-2.0-0.62-0.564-3.564,1,1,0,81,false,stim,false,0,472,3,0,0,54514,WMM2,1524419,false,false,1845,image-keyboard-response,25
true,15,1,4,1,true,z,false,true,0.0-2.0-0.62-0.565-3.565,1,1,0,90,false,stim,false,1,613,3,1,2,54514,WMM2,1526561,false,false,1848,image-keyboard-response,26
true,15,1,4,1,true,z,false,true,0.0-2.0-0.62-0.566-3.566,1,1,0,90,false,stim,false,1,429,3,1,2,54514,WMM2,1528510,false,false,1851,image-keyboard-response,27
true,15,0,4,0,true,q,false,true,0.0-2.0-0.63-0.567-3.567,1,1,0,81,false,stim,false,0,572,3,1,1,54514,WMM2,1530609,false,false,1854,image-keyboard-response,28
true,15,0,4,0,true,q,false,true,0.0-2.0-0.63-0.568-3.568,1,1,0,81,false,stim,false,0,370,3,1,1,54514,WMM2,1532510,false,false,1857,image-keyboard-response,29
true,15,1,4,1,true,z,false,true,0.0-2.0-0.63-0.569-3.569,1,1,0,90,false,stim,false,1,601,3,1,2,54514,WMM2,1534638,false,false,1860,image-keyboard-response,30
true,16,0,2,0,true,q,false,true,0.0-2.0-0.63-0.570-3.570,0,1,1,81,true,stim,false,0,543,3,1,1,54514,WMM2,1536721,false,false,1863,image-keyboard-response,1
true,16,0,2,1,false,z,false,false,0.0-2.0-0.63-0.571-3.571,0,1,1,81,false,stim,true,0,714,3,0,0,54514,WMM2,1538971,false,false,1866,image-keyboard-response,2
true,16,0,2,1,false,z,false,true,0.0-2.0-0.63-0.572-3.572,0,1,1,81,false,stim,true,0,440,3,0,0,54514,WMM2,1540948,false,true,1869,image-keyboard-response,3
true,16,1,2,1,true,z,false,true,0.0-2.0-0.63-0.573-3.573,0,1,1,90,false,stim,false,1,663,3,1,2,54514,WMM2,1543147,false,false,1872,image-keyboard-response,4
true,16,0,2,1,false,z,false,false,0.0-2.0-0.63-0.574-3.574,0,1,1,81,false,stim,true,0,503,3,0,0,54514,WMM2,1545176,false,false,1875,image-keyboard-response,5
true,16,0,2,1,false,z,true,false,0.0-2.0-0.63-0.575-3.575,0,1,1,81,false,stim,false,1,465,3,1,2,54514,WMM2,1547169,false,false,1878,image-keyboard-response,6
true,16,1,2,1,true,z,false,true,0.0-2.0-0.64-0.576-3.576,0,1,1,90,false,stim,false,1,429,3,1,2,54514,WMM2,1549127,false,false,1881,image-keyboard-response,7
true,16,1,2,1,true,z,false,true,0.0-2.0-0.64-0.577-3.577,0,1,1,90,false,stim,false,1,397,3,1,2,54514,WMM2,1551059,false,false,1884,image-keyboard-response,8
true,16,0,2,0,true,q,false,true,0.0-2.0-0.64-0.578-3.578,0,1,1,81,false,stim,false,0,447,3,1,1,54514,WMM2,1553033,false,false,1887,image-keyboard-response,9
true,16,0,2,1,false,z,false,false,0.0-2.0-0.64-0.579-3.579,0,1,1,81,false,stim,true,0,642,3,0,0,54514,WMM2,1555211,false,false,1890,image-keyboard-response,10
true,16,0,2,0,true,q,false,true,0.0-2.0-0.64-0.580-3.580,0,1,1,81,false,stim,false,0,525,3,1,1,54514,WMM2,1557262,false,false,1893,image-keyboard-response,11
true,16,1,2,1,true,z,false,true,0.0-2.0-0.64-0.581-3.581,0,1,1,90,false,stim,false,1,673,3,1,2,54514,WMM2,1559461,false,false,1896,image-keyboard-response,12
true,16,0,2,1,false,z,false,false,0.0-2.0-0.64-0.582-3.582,0,1,1,81,false,stim,true,0,486,3,0,0,54514,WMM2,1561476,false,false,1899,image-keyboard-response,13
true,16,0,2,0,true,q,false,false,0.0-2.0-0.64-0.583-3.583,0,1,1,81,false,stim,false,0,781,3,1,1,54514,WMM2,1563815,false,true,1902,image-keyboard-response,14
true,16,1,2,1,true,z,false,false,0.0-2.0-0.64-0.584-3.584,0,1,1,90,false,stim,false,0,640,3,0,0,54514,WMM2,1565982,false,true,1905,image-keyboard-response,15
true,16,2,2,1,false,z,true,false,0.0-2.0-0.65-0.585-3.585,0,1,1,68,false,stim,false,0,528,3,0,0,54514,WMM2,1568037,false,false,1908,image-keyboard-response,16
true,16,0,2,0,true,q,false,true,0.0-2.0-0.65-0.586-3.586,0,1,1,81,false,stim,false,0,737,3,1,1,54514,WMM2,1570300,false,false,1911,image-keyboard-response,17
true,16,1,2,1,true,z,false,true,0.0-2.0-0.65-0.587-3.587,0,1,1,90,false,stim,false,1,669,3,1,2,54514,WMM2,1572485,false,false,1914,image-keyboard-response,18
true,16,0,2,0,true,q,false,true,0.0-2.0-0.65-0.588-3.588,0,1,1,81,false,stim,false,0,563,3,1,1,54514,WMM2,1574576,false,false,1917,image-keyboard-response,19
true,16,1,2,1,true,z,false,true,0.0-2.0-0.65-0.589-3.589,0,1,1,90,false,stim,false,1,538,3,1,2,54514,WMM2,1576645,false,false,1920,image-keyboard-response,20
true,16,1,2,1,true,z,false,true,0.0-2.0-0.65-0.590-3.590,0,1,1,90,false,stim,false,1,588,3,1,2,54514,WMM2,1578782,false,false,1923,image-keyboard-response,21
true,16,0,2,1,false,z,false,false,0.0-2.0-0.65-0.591-3.591,0,1,1,81,false,stim,true,0,586,3,0,0,54514,WMM2,1580897,false,false,1926,image-keyboard-response,22
true,16,1,2,1,true,z,false,true,0.0-2.0-0.65-0.592-3.592,0,1,1,90,false,stim,false,0,635,3,0,0,54514,WMM2,1583072,false,false,1929,image-keyboard-response,23
true,16,0,2,0,true,q,false,false,0.0-2.0-0.65-0.593-3.593,0,1,1,81,false,stim,false,0,560,3,1,1,54514,WMM2,1585170,false,true,1932,image-keyboard-response,24
true,16,1,2,1,true,z,false,true,0.0-2.0-0.66-0.594-3.594,0,1,1,90,false,stim,false,0,637,3,0,0,54514,WMM2,1587355,false,false,1935,image-keyboard-response,25
true,16,1,2,1,true,z,false,true,0.0-2.0-0.66-0.595-3.595,0,1,1,90,false,stim,false,1,642,3,0,2,54514,WMM2,1589533,false,false,1938,image-keyboard-response,26
true,16,1,2,1,true,z,false,true,0.0-2.0-0.66-0.596-3.596,0,1,1,90,false,stim,false,0,406,3,1,0,54514,WMM2,1591469,false,false,1941,image-keyboard-response,27
true,16,1,2,1,true,z,false,true,0.0-2.0-0.66-0.597-3.597,0,1,1,90,false,stim,false,0,531,3,1,0,54514,WMM2,1593515,false,false,1944,image-keyboard-response,28
true,16,0,2,0,true,q,false,false,0.0-2.0-0.66-0.598-3.598,0,1,1,81,false,stim,false,0,678,3,1,1,54514,WMM2,1595720,false,true,1947,image-keyboard-response,29
true,16,0,2,0,true,q,false,true,0.0-2.0-0.66-0.599-3.599,0,1,1,81,false,stim,false,0,415,3,1,1,54514,WMM2,1597664,false,false,1950,image-keyboard-response,30
true,16,0,2,0,true,q,false,true,0.0-2.0-0.66-0.600-3.600,0,1,1,81,false,stim,false,0,356,3,1,1,54514,WMM2,1599556,false,false,1953,image-keyboard-response,31
true,16,1,2,1,true,z,false,true,0.0-2.0-0.66-0.601-3.601,0,1,1,90,false,stim,false,1,640,3,0,2,54514,WMM2,1601723,false,false,1956,image-keyboard-response,32
true,16,1,2,1,true,z,false,true,0.0-2.0-0.66-0.602-3.602,0,1,1,90,false,stim,false,1,436,3,0,2,54514,WMM2,1603678,false,false,1959,image-keyboard-response,33
true,16,0,2,0,true,q,false,true,0.0-2.0-0.67-0.603-3.603,0,1,1,81,false,stim,false,0,443,3,1,1,54514,WMM2,1605652,false,false,1962,image-keyboard-response,34
true,16,1,2,1,true,z,false,true,0.0-2.0-0.67-0.604-3.604,0,1,1,90,false,stim,false,1,563,3,0,2,54514,WMM2,1607740,false,false,1965,image-keyboard-response,35
true,17,0,2,0,true,q,false,true,0.0-2.0-0.67-0.605-3.605,1,1,0,81,true,stim,false,0,483,3,1,1,54514,WMM2,1609760,false,false,1968,image-keyboard-response,1
true,17,1,2,1,true,z,false,true,0.0-2.0-0.67-0.606-3.606,1,1,0,90,false,stim,false,1,482,3,1,0,54514,WMM2,1611779,false,false,1971,image-keyboard-response,2
true,17,0,2,0,true,q,false,true,0.0-2.0-0.67-0.607-3.607,1,1,0,81,false,stim,false,0,624,3,1,1,54514,WMM2,1613931,false,false,1974,image-keyboard-response,3
true,17,1,2,1,true,z,false,true,0.0-2.0-0.67-0.608-3.608,1,1,0,90,false,stim,false,1,465,3,1,0,54514,WMM2,1615933,false,false,1977,image-keyboard-response,4
true,17,1,2,0,false,q,false,false,0.0-2.0-0.67-0.609-3.609,1,1,0,90,false,stim,true,1,719,3,0,2,54514,WMM2,1618178,false,false,1980,image-keyboard-response,5
true,17,1,2,0,false,q,false,false,0.0-2.0-0.67-0.610-3.610,1,1,0,90,false,stim,true,1,402,3,0,2,54514,WMM2,1620109,false,false,1983,image-keyboard-response,6
true,17,1,2,1,true,z,false,true,0.0-2.0-0.67-0.611-3.611,1,1,0,90,false,stim,false,1,511,3,1,0,54514,WMM2,1622148,false,false,1986,image-keyboard-response,7
true,17,1,2,1,true,z,false,true,0.0-2.0-0.68-0.612-3.612,1,1,0,90,false,stim,false,1,484,3,1,0,54514,WMM2,1624164,false,false,1989,image-keyboard-response,8
true,17,1,2,0,false,q,false,false,0.0-2.0-0.68-0.613-3.613,1,1,0,90,false,stim,true,1,472,3,0,2,54514,WMM2,1626155,false,false,1992,image-keyboard-response,9
true,17,0,2,0,true,q,false,true,0.0-2.0-0.68-0.614-3.614,1,1,0,81,false,stim,false,0,532,3,1,1,54514,WMM2,1628214,false,false,1995,image-keyboard-response,10
true,17,1,2,1,true,z,false,true,0.0-2.0-0.68-0.615-3.615,1,1,0,90,false,stim,false,1,818,3,1,0,54514,WMM2,1630570,false,false,1998,image-keyboard-response,11
true,17,0,2,0,true,q,false,true,0.0-2.0-0.68-0.616-3.616,1,1,0,81,false,stim,false,0,623,3,1,1,54514,WMM2,1632754,false,false,2001,image-keyboard-response,12
true,17,1,2,1,true,z,false,true,0.0-2.0-0.68-0.617-3.617,1,1,0,90,false,stim,false,1,549,3,1,0,54514,WMM2,1634836,false,false,2004,image-keyboard-response,13
true,17,1,2,0,false,q,true,false,0.0-2.0-0.68-0.618-3.618,1,1,0,90,false,stim,false,0,1468,3,1,1,54514,WMM2,1637831,false,false,2007,image-keyboard-response,14
true,17,1,2,0,false,q,false,false,0.0-2.0-0.68-0.619-3.619,1,1,0,90,false,stim,true,1,396,3,0,2,54514,WMM2,1639753,false,false,2010,image-keyboard-response,15
true,17,1,2,0,false,q,false,false,0.0-2.0-0.68-0.620-3.620,1,1,0,90,false,stim,true,1,604,3,0,2,54514,WMM2,1641881,false,false,2013,image-keyboard-response,16
true,17,1,2,1,true,z,false,true,0.0-2.0-0.69-0.621-3.621,1,1,0,90,false,stim,false,1,854,3,1,0,54514,WMM2,1644273,false,false,2016,image-keyboard-response,17
true,17,0,2,0,true,q,false,true,0.0-2.0-0.69-0.622-3.622,1,1,0,81,false,stim,false,0,525,3,1,1,54514,WMM2,1646328,false,false,2019,image-keyboard-response,18
true,17,0,2,0,true,q,false,true,0.0-2.0-0.69-0.623-3.623,1,1,0,81,false,stim,false,0,478,3,1,1,54514,WMM2,1648326,false,false,2022,image-keyboard-response,19
true,17,1,2,0,false,q,false,false,0.0-2.0-0.69-0.624-3.624,1,1,0,90,false,stim,true,1,588,3,0,2,54514,WMM2,1650435,false,false,2025,image-keyboard-response,20
true,17,1,2,0,false,q,false,false,0.0-2.0-0.69-0.625-3.625,1,1,0,90,false,stim,true,1,501,3,0,2,54514,WMM2,1652470,false,false,2028,image-keyboard-response,21
true,17,0,2,0,true,q,false,true,0.0-2.0-0.69-0.626-3.626,1,1,0,81,false,stim,false,1,507,3,0,2,54514,WMM2,1654519,false,false,2031,image-keyboard-response,22
true,17,0,2,0,true,q,false,true,0.0-2.0-0.69-0.627-3.627,1,1,0,81,false,stim,false,0,555,3,1,1,54514,WMM2,1656604,false,false,2034,image-keyboard-response,23
true,17,1,2,1,true,z,false,true,0.0-2.0-0.69-0.628-3.628,1,1,0,90,false,stim,false,1,419,3,1,0,54514,WMM2,1658556,false,false,2037,image-keyboard-response,24
true,17,1,2,1,true,z,false,false,0.0-2.0-0.69-0.629-3.629,1,1,0,90,false,stim,false,1,617,3,1,0,54514,WMM2,1660715,false,true,2040,image-keyboard-response,25
true,17,0,2,0,true,q,false,true,0.0-2.0-0.70-0.630-3.630,1,1,0,81,false,stim,false,0,657,3,1,1,54514,WMM2,1662903,false,false,2043,image-keyboard-response,26
true,17,0,2,0,true,q,false,true,0.0-2.0-0.70-0.631-3.631,1,1,0,81,false,stim,false,0,465,3,1,1,54514,WMM2,1664903,false,false,2046,image-keyboard-response,27
true,17,1,2,0,false,q,false,false,0.0-2.0-0.70-0.632-3.632,1,1,0,90,false,stim,true,1,588,3,0,2,54514,WMM2,1667039,false,false,2049,image-keyboard-response,28
true,17,0,2,0,true,q,false,false,0.0-2.0-0.70-0.633-3.633,1,1,0,81,false,stim,false,0,613,3,1,1,54514,WMM2,1669191,false,true,2052,image-keyboard-response,29
true,17,0,2,0,true,q,false,true,0.0-2.0-0.70-0.634-3.634,1,1,0,81,false,stim,false,1,451,3,0,2,54514,WMM2,1671179,false,false,2055,image-keyboard-response,30
true,17,1,2,1,true,z,false,true,0.0-2.0-0.70-0.635-3.635,1,1,0,90,false,stim,false,1,670,3,1,0,54514,WMM2,1673388,false,false,2058,image-keyboard-response,31
true,17,1,2,1,true,z,false,false,0.0-2.0-0.70-0.636-3.636,1,1,0,90,false,stim,false,1,424,3,1,0,54514,WMM2,1675361,false,true,2061,image-keyboard-response,32
true,17,0,2,0,true,q,false,true,0.0-2.0-0.70-0.637-3.637,1,1,0,81,false,stim,false,1,536,3,0,2,54514,WMM2,1677435,false,false,2064,image-keyboard-response,33
true,17,1,2,1,true,z,false,true,0.0-2.0-0.70-0.638-3.638,1,1,0,90,false,stim,false,1,741,3,0,0,54514,WMM2,1679711,false,false,2067,image-keyboard-response,34
