answered,blockNum,choice,condition,corResp,correct,correct_response,explo,fb,internal_node_id,isStable_1,isStable_2,isStable_3,key_press,newBlock,part,persev,persevResp,rt,sessNum,stableAS,stimulus,subject,task,time_elapsed,training,trap,trial_index,trial_type,trialsInBlock
true,1,1,0,1,true,z,false,true,0.0-2.0-0.0-0.0-3.0,0,0,0,90,true,stim,false,-1,727.600000333041,0,0,1,55005,WMM2,132874,false,false,184,image-keyboard-response,1
true,1,1,0,0,false,q,true,false,0.0-2.0-0.0-0.1-3.1,0,0,0,90,false,stim,false,-1,239.08500000834465,0,0,0,55005,WMM2,134634,false,false,187,image-keyboard-response,2
true,1,0,0,1,false,z,true,false,0.0-2.0-0.0-0.2-3.2,0,0,0,81,false,stim,false,-1,305.2349998615682,0,0,1,55005,WMM2,136465,false,false,190,image-keyboard-response,3
true,1,1,0,0,false,q,true,false,0.0-2.0-0.0-0.3-3.3,0,0,0,90,false,stim,false,-1,32.65500022098422,0,0,0,55005,WMM2,138026,false,false,193,image-keyboard-response,4
true,1,1,0,0,false,q,true,true,0.0-2.0-0.0-0.4-3.4,0,0,0,90,false,stim,false,-1,613.5749998502433,0,0,0,55005,WMM2,140145,false,true,196,image-keyboard-response,5
true,1,1,0,1,true,z,false,true,0.0-2.0-0.0-0.5-3.5,0,0,0,90,false,stim,false,-1,641.8550000526011,0,0,1,55005,WMM2,142306,false,false,199,image-keyboard-response,6
true,1,1,0,2,false,d,true,false,0.0-2.0-0.0-0.6-3.6,0,0,0,90,false,stim,false,-1,636.3550000824034,0,0,2,55005,WMM2,144465,false,false,202,image-keyboard-response,7
true,1,0,0,2,false,d,true,false,0.0-2.0-0.0-0.7-3.7,0,0,0,81,false,stim,false,-1,491.9250002130866,0,0,2,55005,WMM2,146473,false,false,205,image-keyboard-response,8
true,1,1,0,2,false,d,true,false,0.0-2.0-0.0-0.8-3.8,0,0,0,90,false,stim,false,-1,515.4949999414384,0,0,2,55005,WMM2,148497,false,false,208,image-keyboard-response,9
true,1,2,0,0,false,q,true,false,0.0-2.0-0.1-0.9-3.9,0,0,0,68,false,stim,false,-1,385.29499992728233,0,0,0,55005,WMM2,150401,false,false,211,image-keyboard-response,10
true,1,1,0,2,false,d,true,false,0.0-2.0-0.1-0.10-3.10,0,0,0,90,false,stim,false,-1,409.9699999205768,0,0,2,55005,WMM2,152338,false,false,214,image-keyboard-response,11
true,1,1,0,0,false,q,true,false,0.0-2.0-0.1-0.11-3.11,0,0,0,90,false,stim,false,-1,498.9700000733137,0,0,0,55005,WMM2,154361,false,false,217,image-keyboard-response,12
true,1,0,0,1,false,z,true,false,0.0-2.0-0.1-0.12-3.12,0,0,0,81,false,stim,false,-1,416.9650003314018,0,0,1,55005,WMM2,156297,false,false,220,image-keyboard-response,13
true,1,1,0,2,false,d,true,false,0.0-2.0-0.1-0.13-3.13,0,0,0,90,false,stim,false,-1,267.5499999895692,0,0,2,55005,WMM2,158081,false,false,223,image-keyboard-response,14
true,1,2,0,1,false,z,true,false,0.0-2.0-0.1-0.14-3.14,0,0,0,68,false,stim,false,-1,131.38499995693564,0,0,1,55005,WMM2,159729,false,false,226,image-keyboard-response,15
true,1,2,0,0,false,q,true,false,0.0-2.0-0.1-0.15-3.15,0,0,0,68,false,stim,false,-1,642.3599999397993,0,0,0,55005,WMM2,161889,false,false,229,image-keyboard-response,16
true,1,1,0,2,false,d,true,false,0.0-2.0-0.1-0.16-3.16,0,0,0,90,false,stim,false,-1,314.89500030875206,0,0,2,55005,WMM2,163713,false,false,232,image-keyboard-response,17
true,1,0,0,1,false,z,true,false,0.0-2.0-0.1-0.17-3.17,0,0,0,81,false,stim,false,-1,339.34500021860003,0,0,1,55005,WMM2,165569,false,false,235,image-keyboard-response,18
true,1,1,0,1,true,z,false,true,0.0-2.0-0.2-0.18-3.18,0,0,0,90,false,stim,false,-1,482.2849999181926,0,0,1,55005,WMM2,167577,false,false,238,image-keyboard-response,19
true,1,1,0,1,true,z,false,false,0.0-2.0-0.2-0.19-3.19,0,0,0,90,false,stim,false,-1,553.5750002600253,0,0,1,55005,WMM2,169649,false,true,241,image-keyboard-response,20
true,1,0,0,0,true,q,false,true,0.0-2.0-0.2-0.20-3.20,0,0,0,81,false,stim,false,-1,237.47000005096197,0,0,0,55005,WMM2,171401,false,false,244,image-keyboard-response,21
true,1,0,0,1,false,z,true,false,0.0-2.0-0.2-0.21-3.21,0,0,0,81,false,stim,false,-1,304.96999993920326,0,0,1,55005,WMM2,173233,false,false,247,image-keyboard-response,22
true,1,2,0,2,true,d,false,true,0.0-2.0-0.2-0.22-3.22,0,0,0,68,false,stim,false,-1,399.2849998176098,0,0,2,55005,WMM2,175145,false,false,250,image-keyboard-response,23
true,1,2,0,0,false,q,true,true,0.0-2.0-0.2-0.23-3.23,0,0,0,68,false,stim,false,-1,428.2199996523559,0,0,0,55005,WMM2,177105,false,true,253,image-keyboard-response,24
true,1,2,0,2,true,d,false,true,0.0-2.0-0.2-0.24-3.24,0,0,0,68,false,stim,false,-1,409.2749999836087,0,0,2,55005,WMM2,179024,false,false,256,image-keyboard-response,25
true,1,2,0,2,true,d,false,true,0.0-2.0-0.2-0.25-3.25,0,0,0,68,false,stim,false,-1,392.3349999822676,0,0,2,55005,WMM2,180936,false,false,259,image-keyboard-response,26
true,1,2,0,0,false,q,true,false,0.0-2.0-0.2-0.26-3.26,0,0,0,68,false,stim,false,-1,450.225000269711,0,0,0,55005,WMM2,182904,false,false,262,image-keyboard-response,27
true,1,0,0,0,true,q,false,true,0.0-2.0-0.3-0.27-3.27,0,0,0,81,false,stim,false,-1,1046.689999755472,0,0,0,55005,WMM2,185464,false,false,265,image-keyboard-response,28
true,1,1,0,0,false,q,true,false,0.0-2.0-0.3-0.28-3.28,0,0,0,90,false,stim,false,-1,1149.0950002335012,0,0,0,55005,WMM2,188120,false,false,268,image-keyboard-response,29
true,1,1,0,1,true,z,false,true,0.0-2.0-0.3-0.29-3.29,0,0,0,90,false,stim,false,-1,174.0299998782575,0,0,1,55005,WMM2,189808,false,false,271,image-keyboard-response,30
true,1,1,0,2,false,d,true,false,0.0-2.0-0.3-0.30-3.30,0,0,0,90,false,stim,false,-1,1005.9299999848008,0,0,2,55005,WMM2,192320,false,false,274,image-keyboard-response,31
true,1,0,0,1,false,z,true,false,0.0-2.0-0.3-0.31-3.31,0,0,0,81,false,stim,false,-1,499.98499965295196,0,0,1,55005,WMM2,194336,false,false,277,image-keyboard-response,32
true,1,2,0,0,false,q,true,true,0.0-2.0-0.3-0.32-3.32,0,0,0,68,false,stim,false,-1,700.3649999387562,0,0,0,55005,WMM2,196544,false,true,280,image-keyboard-response,33
true,1,2,0,2,true,d,false,true,0.0-2.0-0.3-0.33-3.33,0,0,0,68,false,stim,false,-1,475.83999997004867,0,0,2,55005,WMM2,198535,false,false,283,image-keyboard-response,34
true,1,2,0,2,true,d,false,true,0.0-2.0-0.3-0.34-3.34,0,0,0,68,false,stim,false,-1,1402.96999970451,0,0,2,55005,WMM2,201448,false,false,286,image-keyboard-response,35
true,1,1,0,1,true,z,false,true,0.0-2.0-0.3-0.35-3.35,0,0,0,90,false,stim,false,-1,510.68999990820885,0,0,1,55005,WMM2,203471,false,false,289,image-keyboard-response,36
true,1,0,0,1,false,z,true,false,0.0-2.0-0.4-0.36-3.36,0,0,0,81,false,stim,false,-1,683.0950002186,0,0,1,55005,WMM2,205679,false,false,292,image-keyboard-response,37
true,1,1,0,0,false,q,true,false,0.0-2.0-0.4-0.37-3.37,0,0,0,90,false,stim,false,-1,1588.115000165999,0,0,0,55005,WMM2,208783,false,false,295,image-keyboard-response,38
true,1,2,0,2,true,d,false,true,0.0-2.0-0.4-0.38-3.38,0,0,0,68,false,stim,false,-1,603.5250001586974,0,0,2,55005,WMM2,210911,false,false,298,image-keyboard-response,39
true,1,2,0,0,false,q,true,false,0.0-2.0-0.4-0.39-3.39,0,0,0,68,false,stim,false,-1,401.19999973103404,0,0,0,55005,WMM2,212847,false,false,301,image-keyboard-response,40
true,1,0,0,1,false,z,true,false,0.0-2.0-0.4-0.40-3.40,0,0,0,81,false,stim,false,-1,262.17000000178814,0,0,1,55005,WMM2,214639,false,false,304,image-keyboard-response,41
true,1,1,0,2,false,d,true,false,0.0-2.0-0.4-0.41-3.41,0,0,0,90,false,stim,false,-1,359.4300001859665,0,0,2,55005,WMM2,216519,false,false,307,image-keyboard-response,42
true,1,2,0,2,true,d,false,true,0.0-2.0-0.4-0.42-3.42,0,0,0,68,false,stim,false,-1,405.79000022262335,0,0,2,55005,WMM2,218447,false,false,310,image-keyboard-response,43
true,1,1,0,1,true,z,false,true,0.0-2.0-0.4-0.43-3.43,0,0,0,90,false,stim,false,-1,699.1200000047684,0,0,1,55005,WMM2,220663,false,false,313,image-keyboard-response,44
true,1,2,0,0,false,q,true,false,0.0-2.0-0.4-0.44-3.44,0,0,0,68,false,stim,false,-1,490.6049999408424,0,0,0,55005,WMM2,222671,false,false,316,image-keyboard-response,45
true,1,1,0,2,false,d,true,false,0.0-2.0-0.5-0.45-3.45,0,0,0,90,false,stim,false,-1,524.1299998015165,0,0,2,55005,WMM2,224703,false,false,319,image-keyboard-response,46
true,1,2,0,0,false,q,true,false,0.0-2.0-0.5-0.46-3.46,0,0,0,68,false,stim,false,-1,364.0450001694262,0,0,0,55005,WMM2,226591,false,false,322,image-keyboard-response,47
true,1,0,0,1,false,z,true,false,0.0-2.0-0.5-0.47-3.47,0,0,0,81,false,stim,false,-1,320.36999985575676,0,0,1,55005,WMM2,228431,false,false,325,image-keyboard-response,48
true,1,1,0,2,false,d,true,false,0.0-2.0-0.5-0.48-3.48,0,0,0,90,false,stim,false,-1,374.84499998390675,0,0,2,55005,WMM2,230319,false,false,328,image-keyboard-response,49
true,1,1,0,0,false,q,true,false,0.0-2.0-0.5-0.49-3.49,0,0,0,90,false,stim,false,-1,941.9550001621246,0,0,0,55005,WMM2,232783,false,false,331,image-keyboard-response,50
true,1,0,0,0,true,q,false,false,0.0-2.0-0.5-0.50-3.50,0,0,0,81,false,stim,false,-1,362.2849998064339,0,1,0,55005,WMM2,234671,false,true,334,image-keyboard-response,51
true,1,2,0,1,false,z,true,false,0.0-2.0-0.5-0.51-3.51,0,0,0,68,false,stim,false,-1,380.71499997749925,0,0,1,55005,WMM2,236559,false,false,337,image-keyboard-response,52
true,1,0,0,1,false,z,true,false,0.0-2.0-0.5-0.52-3.52,0,0,0,81,false,stim,false,-1,535.3600000962615,0,0,1,55005,WMM2,238606,false,false,340,image-keyboard-response,53
true,1,1,0,2,false,d,true,true,0.0-2.0-0.5-0.53-3.53,0,0,0,90,false,stim,false,-1,160.1950000040233,0,1,2,55005,WMM2,240294,false,true,343,image-keyboard-response,54
true,1,1,0,1,true,z,false,true,0.0-2.0-0.6-0.54-3.54,0,0,0,90,false,stim,false,-1,212.61500008404255,0,0,1,55005,WMM2,242030,false,false,346,image-keyboard-response,55
true,1,1,0,1,true,z,false,true,0.0-2.0-0.6-0.55-3.55,0,0,0,90,false,stim,false,-1,335.88499994948506,0,0,1,55005,WMM2,243886,false,false,349,image-keyboard-response,56
true,1,1,0,2,false,d,true,false,0.0-2.0-0.6-0.56-3.56,0,0,0,90,false,stim,false,-1,517.1499997377396,0,1,2,55005,WMM2,245934,false,false,352,image-keyboard-response,57
true,1,0,0,0,true,q,false,true,0.0-2.0-0.6-0.57-3.57,0,0,0,81,false,stim,false,-1,473.3100002631545,0,1,0,55005,WMM2,247933,false,false,355,image-keyboard-response,58
true,1,0,0,2,false,d,true,false,0.0-2.0-0.6-0.58-3.58,0,0,0,81,false,stim,false,-1,322.1199996769428,0,1,2,55005,WMM2,249774,false,false,358,image-keyboard-response,59
true,1,2,0,2,true,d,false,true,0.0-2.0-0.6-0.59-3.59,0,0,0,68,false,stim,false,-1,216.03500004857779,0,1,2,55005,WMM2,251501,false,false,361,image-keyboard-response,60
true,2,2,4,0,false,q,true,false,0.0-2.0-0.6-0.60-3.60,1,0,1,68,true,stim,false,0,555.9050003066659,0,1,0,55005,WMM2,253576,false,false,364,image-keyboard-response,1
true,2,1,4,0,false,q,true,false,0.0-2.0-0.6-0.61-3.61,1,0,1,90,false,stim,false,0,192.779999691993,0,1,0,55005,WMM2,255294,false,false,367,image-keyboard-response,2
true,2,0,4,1,false,z,true,false,0.0-2.0-0.6-0.62-3.62,1,0,1,81,false,stim,false,1,260.9049999155104,0,0,1,55005,WMM2,257077,false,false,370,image-keyboard-response,3
true,2,1,4,0,false,q,true,true,0.0-2.0-0.7-0.63-3.63,1,0,1,90,false,stim,false,0,332.10500003769994,0,1,0,55005,WMM2,258933,false,true,373,image-keyboard-response,4
true,2,1,4,1,true,z,false,false,0.0-2.0-0.7-0.64-3.64,1,0,1,90,false,stim,false,1,648.215000052005,0,0,1,55005,WMM2,261101,false,true,376,image-keyboard-response,5
true,2,1,4,1,true,z,false,true,0.0-2.0-0.7-0.65-3.65,1,0,1,90,false,stim,false,1,373.24999971315265,0,0,1,55005,WMM2,263005,false,false,379,image-keyboard-response,6
true,2,1,4,2,false,d,true,false,0.0-2.0-0.7-0.66-3.66,1,0,1,90,false,stim,false,2,601.9599996507168,0,1,2,55005,WMM2,265133,false,false,382,image-keyboard-response,7
true,2,1,4,2,false,d,true,false,0.0-2.0-0.7-0.67-3.67,1,0,1,90,false,stim,false,2,343.6049995943904,0,1,2,55005,WMM2,266998,false,false,385,image-keyboard-response,8
true,2,0,4,0,true,q,false,false,0.0-2.0-0.7-0.68-3.68,1,0,1,81,false,stim,false,0,1022.9899999685585,0,1,0,55005,WMM2,269533,false,true,388,image-keyboard-response,9
true,2,2,4,1,false,z,true,false,0.0-2.0-0.7-0.69-3.69,1,0,1,68,false,stim,false,1,307.305000256747,0,0,1,55005,WMM2,271373,false,false,391,image-keyboard-response,10
true,2,1,4,2,false,d,true,true,0.0-2.0-0.7-0.70-3.70,1,0,1,90,false,stim,false,2,304.6949999406934,0,1,2,55005,WMM2,273205,false,true,394,image-keyboard-response,11
true,2,1,4,0,false,q,true,false,0.0-2.0-0.7-0.71-3.71,1,0,1,90,false,stim,false,0,287.0149998925626,0,1,0,55005,WMM2,275021,false,false,397,image-keyboard-response,12
true,2,0,4,0,true,q,false,true,0.0-2.0-0.8-0.72-3.72,1,0,1,81,false,stim,false,0,383.475000038743,0,1,0,55005,WMM2,276933,false,false,400,image-keyboard-response,13
true,2,0,4,1,false,z,true,true,0.0-2.0-0.8-0.73-3.73,1,0,1,81,false,stim,false,1,337.72499999031425,0,0,1,55005,WMM2,278789,false,true,403,image-keyboard-response,14
true,2,1,4,2,false,d,true,false,0.0-2.0-0.8-0.74-3.74,1,0,1,90,false,stim,false,2,763.8050001114607,0,1,2,55005,WMM2,281069,false,false,406,image-keyboard-response,15
true,2,0,4,2,false,d,true,false,0.0-2.0-0.8-0.75-3.75,1,0,1,81,false,stim,false,2,350.49999970942736,0,1,2,55005,WMM2,282949,false,false,409,image-keyboard-response,16
true,2,1,4,0,false,q,true,false,0.0-2.0-0.8-0.76-3.76,1,0,1,90,false,stim,false,0,117.22500016912818,0,1,0,55005,WMM2,284589,false,false,412,image-keyboard-response,17
true,2,0,4,2,false,d,true,false,0.0-2.0-0.8-0.77-3.77,1,0,1,81,false,stim,false,2,232.30999987572432,0,1,2,55005,WMM2,286349,false,false,415,image-keyboard-response,18
true,2,1,4,1,true,z,false,false,0.0-2.0-0.8-0.78-3.78,1,0,1,90,false,stim,false,1,515.0399999693036,0,0,1,55005,WMM2,288397,false,true,418,image-keyboard-response,19
true,2,2,4,1,false,z,true,false,0.0-2.0-0.8-0.79-3.79,1,0,1,68,false,stim,false,1,113.78500005230308,0,0,1,55005,WMM2,290029,false,false,421,image-keyboard-response,20
true,2,1,4,0,false,q,true,false,0.0-2.0-0.8-0.80-3.80,1,0,1,90,false,stim,false,0,173.76499995589256,0,1,0,55005,WMM2,291725,false,false,424,image-keyboard-response,21
true,2,0,4,0,true,q,false,true,0.0-2.0-0.9-0.81-3.81,1,0,1,81,false,stim,false,0,105.39499996230006,0,1,0,55005,WMM2,293341,false,false,427,image-keyboard-response,22
true,2,0,4,2,false,d,true,false,0.0-2.0-0.9-0.82-3.82,1,0,1,81,false,stim,false,2,241.05000030249357,0,1,2,55005,WMM2,295093,false,false,430,image-keyboard-response,23
true,2,1,4,1,true,z,false,true,0.0-2.0-0.9-0.83-3.83,1,0,1,90,false,stim,false,1,226.1850000359118,0,0,1,55005,WMM2,296837,false,false,433,image-keyboard-response,24
true,2,1,4,2,false,d,true,false,0.0-2.0-0.9-0.84-3.84,1,0,1,90,false,stim,false,2,334.4100001268089,0,1,2,55005,WMM2,298686,false,false,436,image-keyboard-response,25
true,2,0,4,1,false,z,true,false,0.0-2.0-0.9-0.85-3.85,1,0,1,81,false,stim,false,1,327.139999717474,0,0,1,55005,WMM2,300542,false,false,439,image-keyboard-response,26
true,2,2,4,2,true,d,false,true,0.0-2.0-0.9-0.86-3.86,1,0,1,68,false,stim,false,2,392.3349999822676,0,1,2,55005,WMM2,302445,false,false,442,image-keyboard-response,27
true,2,1,4,0,false,q,true,true,0.0-2.0-0.9-0.87-3.87,1,0,1,90,false,stim,false,0,444.989999756217,0,1,0,55005,WMM2,304397,false,true,445,image-keyboard-response,28
true,2,0,4,0,true,q,false,true,0.0-2.0-0.9-0.88-3.88,1,0,1,81,false,stim,false,0,767.2500000335276,0,1,0,55005,WMM2,306685,false,false,448,image-keyboard-response,29
true,2,0,4,1,false,z,true,true,0.0-2.0-0.9-0.89-3.89,1,0,1,81,false,stim,false,1,509.4850002788007,0,0,1,55005,WMM2,308725,false,true,451,image-keyboard-response,30
true,2,0,4,0,true,q,false,true,0.0-2.0-0.10-0.90-3.90,1,0,1,81,false,stim,false,0,570.1049999333918,0,1,0,55005,WMM2,310806,false,false,454,image-keyboard-response,31
true,2,1,4,0,false,q,true,false,0.0-2.0-0.10-0.91-3.91,1,0,1,90,false,stim,false,0,624.6750000864267,0,1,0,55005,WMM2,312957,false,false,457,image-keyboard-response,32
true,2,0,4,1,false,z,true,true,0.0-2.0-0.10-0.92-3.92,1,0,1,81,false,stim,false,1,192.74999992921948,0,0,1,55005,WMM2,314661,false,true,460,image-keyboard-response,33
true,2,0,4,2,false,d,true,false,0.0-2.0-0.10-0.93-3.93,1,0,1,81,false,stim,false,2,546.8450002372265,0,1,2,55005,WMM2,316717,false,false,463,image-keyboard-response,34
true,2,1,4,1,true,z,false,false,0.0-2.0-0.10-0.94-3.94,1,0,1,90,false,stim,false,1,315.33500039950013,0,0,1,55005,WMM2,318565,false,true,466,image-keyboard-response,35
true,2,0,4,0,true,q,false,true,0.0-2.0-0.10-0.95-3.95,1,0,1,81,false,stim,false,0,280.79500002786517,0,1,0,55005,WMM2,320365,false,false,469,image-keyboard-response,36
true,2,0,4,2,false,d,true,false,0.0-2.0-0.10-0.96-3.96,1,0,1,81,false,stim,false,2,329.87500028684735,0,1,2,55005,WMM2,322230,false,false,472,image-keyboard-response,37
true,2,0,4,1,false,z,true,false,0.0-2.0-0.10-0.97-3.97,1,0,1,81,false,stim,false,1,629.9749999307096,0,0,1,55005,WMM2,324365,false,false,475,image-keyboard-response,38
true,2,0,4,2,false,d,true,false,0.0-2.0-0.10-0.98-3.98,1,0,1,81,false,stim,false,2,615.5050001107156,0,1,2,55005,WMM2,326501,false,false,478,image-keyboard-response,39
true,2,1,4,1,true,z,false,true,0.0-2.0-0.11-0.99-3.99,1,0,1,90,false,stim,false,1,244.46999980136752,0,0,1,55005,WMM2,328277,false,false,481,image-keyboard-response,40
true,2,0,4,0,true,q,false,true,0.0-2.0-0.11-0.100-3.100,1,0,1,81,false,stim,false,0,647.5550001487136,0,1,0,55005,WMM2,330437,false,false,484,image-keyboard-response,41
true,2,1,4,2,false,d,true,false,0.0-2.0-0.11-0.101-3.101,1,0,1,90,false,stim,false,2,726.3650000095367,0,1,2,55005,WMM2,332693,false,false,487,image-keyboard-response,42
true,2,0,4,0,true,q,false,true,0.0-2.0-0.11-0.102-3.102,1,0,1,81,false,stim,false,0,401.28999995067716,0,1,0,55005,WMM2,334605,false,false,490,image-keyboard-response,43
true,2,2,4,1,false,z,true,false,0.0-2.0-0.11-0.103-3.103,1,0,1,68,false,stim,false,1,813.7350003235042,0,0,1,55005,WMM2,336933,false,false,493,image-keyboard-response,44
true,2,1,4,0,false,q,true,false,0.0-2.0-0.11-0.104-3.104,1,0,1,90,false,stim,false,0,392.3950004391372,0,1,0,55005,WMM2,338845,false,false,496,image-keyboard-response,45
true,2,2,4,2,true,d,false,true,0.0-2.0-0.11-0.105-3.105,1,0,1,68,false,stim,false,2,918.3700000867248,0,1,2,55005,WMM2,341285,false,false,499,image-keyboard-response,46
true,2,2,4,1,false,z,true,false,0.0-2.0-0.11-0.106-3.106,1,0,1,68,false,stim,false,1,1044.3699997849762,0,0,1,55005,WMM2,343861,false,false,502,image-keyboard-response,47
true,2,1,4,2,false,d,true,false,0.0-2.0-0.11-0.107-3.107,1,0,1,90,false,stim,false,2,746.3150001130998,0,1,2,55005,WMM2,346117,false,false,505,image-keyboard-response,48
true,2,2,4,1,false,z,true,false,0.0-2.0-0.12-0.108-3.108,1,0,1,68,false,stim,false,1,898.4150001779199,0,0,1,55005,WMM2,348533,false,false,508,image-keyboard-response,49
true,2,0,4,0,true,q,false,true,0.0-2.0-0.12-0.109-3.109,1,0,1,81,false,stim,false,0,647.7399999275804,0,1,0,55005,WMM2,350700,false,false,511,image-keyboard-response,50
true,2,1,4,2,false,d,true,false,0.0-2.0-0.12-0.110-3.110,1,0,1,90,false,stim,false,2,893.6950000934303,0,1,2,55005,WMM2,353124,false,false,514,image-keyboard-response,51
true,2,2,4,1,false,z,true,false,0.0-2.0-0.12-0.111-3.111,1,0,1,68,false,stim,false,1,602.7250001206994,0,1,1,55005,WMM2,355253,false,false,517,image-keyboard-response,52
true,2,2,4,2,true,d,false,true,0.0-2.0-0.12-0.112-3.112,1,0,1,68,false,stim,false,2,1117.7449999377131,0,1,2,55005,WMM2,357900,false,false,520,image-keyboard-response,53
true,2,1,4,1,true,z,false,true,0.0-2.0-0.12-0.113-3.113,1,0,1,90,false,stim,false,1,816.835000179708,0,1,1,55005,WMM2,360242,false,false,523,image-keyboard-response,54
true,2,1,4,2,false,d,true,false,0.0-2.0-0.12-0.114-3.114,1,0,1,90,false,stim,false,2,759.6950000151992,0,1,2,55005,WMM2,362530,false,false,526,image-keyboard-response,55
true,2,1,4,0,false,q,true,false,0.0-2.0-0.12-0.115-3.115,1,0,1,90,false,stim,false,0,383.4950001910329,0,0,0,55005,WMM2,364438,false,false,529,image-keyboard-response,56
true,2,0,4,0,true,q,false,true,0.0-2.0-0.12-0.116-3.116,1,0,1,81,false,stim,false,0,541.4450000971556,0,0,0,55005,WMM2,366499,false,false,532,image-keyboard-response,57
true,2,1,4,1,true,z,false,false,0.0-2.0-0.13-0.117-3.117,1,0,1,90,false,stim,false,1,1139.8100000806153,0,1,1,55005,WMM2,369146,false,true,535,image-keyboard-response,58
true,2,1,4,2,false,d,true,false,0.0-2.0-0.13-0.118-3.118,1,0,1,90,false,stim,false,2,385.94500022009015,0,1,2,55005,WMM2,371058,false,false,538,image-keyboard-response,59
true,2,1,4,1,true,z,false,true,0.0-2.0-0.13-0.119-3.119,1,0,1,90,false,stim,false,1,431.3699998892844,0,1,1,55005,WMM2,373018,false,false,541,image-keyboard-response,60
true,3,1,3,1,true,z,false,true,0.0-2.0-0.13-0.120-3.120,0,1,1,90,true,stim,false,1,729.2299997061491,0,1,1,55005,WMM2,375266,false,false,544,image-keyboard-response,1
true,3,0,3,1,false,z,false,false,0.0-2.0-0.13-0.121-3.121,0,1,1,81,false,stim,true,0,731.4699999988079,0,0,0,55005,WMM2,377506,false,false,547,image-keyboard-response,2
true,3,0,3,1,false,z,false,false,0.0-2.0-0.13-0.122-3.122,0,1,1,81,false,stim,true,0,369.8499999009073,0,0,0,55005,WMM2,379394,false,false,550,image-keyboard-response,3
true,3,2,3,2,true,d,false,true,0.0-2.0-0.13-0.123-3.123,0,1,1,68,false,stim,false,2,869.3900001235306,0,1,2,55005,WMM2,381778,false,false,553,image-keyboard-response,4
true,3,0,3,1,false,z,false,false,0.0-2.0-0.13-0.124-3.124,0,1,1,81,false,stim,true,0,713.2500000298023,0,0,0,55005,WMM2,384018,false,false,556,image-keyboard-response,5
true,3,1,3,2,false,d,true,false,0.0-2.0-0.13-0.125-3.125,0,1,1,90,false,stim,false,2,975.9700000286102,0,1,2,55005,WMM2,386514,false,false,559,image-keyboard-response,6
true,3,2,3,2,true,d,false,true,0.0-2.0-0.14-0.126-3.126,0,1,1,68,false,stim,false,2,491.77000019699335,0,1,2,55005,WMM2,388530,false,false,562,image-keyboard-response,7
true,3,2,3,2,true,d,false,true,0.0-2.0-0.14-0.127-3.127,0,1,1,68,false,stim,false,2,681.3650000840425,0,1,2,55005,WMM2,390738,false,false,565,image-keyboard-response,8
true,3,2,3,1,false,z,true,false,0.0-2.0-0.14-0.128-3.128,0,1,1,68,false,stim,false,1,761.1000002361834,0,1,1,55005,WMM2,393018,false,false,568,image-keyboard-response,9
true,3,1,3,2,false,d,true,false,0.0-2.0-0.14-0.129-3.129,0,1,1,90,false,stim,false,2,799.9649997800589,0,1,2,55005,WMM2,395338,false,false,571,image-keyboard-response,10
true,3,0,3,1,false,z,false,false,0.0-2.0-0.14-0.130-3.130,0,1,1,81,false,stim,true,0,649.0949997678399,0,0,0,55005,WMM2,397505,false,false,574,image-keyboard-response,11
true,3,2,3,1,false,z,true,true,0.0-2.0-0.14-0.131-3.131,0,1,1,68,false,stim,false,1,804.4949998147786,0,1,1,55005,WMM2,399842,false,true,577,image-keyboard-response,12
true,3,2,3,1,false,z,true,true,0.0-2.0-0.14-0.132-3.132,0,1,1,68,false,stim,false,1,792.0650001615286,0,1,1,55005,WMM2,402161,false,true,580,image-keyboard-response,13
true,3,1,3,1,true,z,false,true,0.0-2.0-0.14-0.133-3.133,0,1,1,90,false,stim,false,0,775.7700001820922,0,0,0,55005,WMM2,404449,false,false,583,image-keyboard-response,14
true,3,0,3,1,false,z,false,false,0.0-2.0-0.14-0.134-3.134,0,1,1,81,false,stim,true,0,698.2249999418855,0,0,0,55005,WMM2,406657,false,false,586,image-keyboard-response,15
true,3,2,3,2,true,d,false,false,0.0-2.0-0.15-0.135-3.135,0,1,1,68,false,stim,false,2,773.7400000914931,0,1,2,55005,WMM2,408961,false,true,589,image-keyboard-response,16
true,3,1,3,2,false,d,true,false,0.0-2.0-0.15-0.136-3.136,0,1,1,90,false,stim,false,2,343.6950002796948,0,1,2,55005,WMM2,410817,false,false,592,image-keyboard-response,17
true,3,0,3,1,false,z,false,false,0.0-2.0-0.15-0.137-3.137,0,1,1,81,false,stim,true,0,912.5650003552437,0,0,0,55005,WMM2,413249,false,false,595,image-keyboard-response,18
true,3,1,3,1,true,z,false,true,0.0-2.0-0.15-0.138-3.138,0,1,1,90,false,stim,false,1,389.8750003427267,0,1,1,55005,WMM2,415145,false,false,598,image-keyboard-response,19
true,3,1,3,2,false,d,true,false,0.0-2.0-0.15-0.139-3.139,0,1,1,90,false,stim,false,2,408.6549999192357,0,1,2,55005,WMM2,417081,false,false,601,image-keyboard-response,20
true,3,2,3,1,false,z,true,false,0.0-2.0-0.15-0.140-3.140,0,1,1,68,false,stim,false,1,285.49000015482306,0,1,1,55005,WMM2,418889,false,false,604,image-keyboard-response,21
true,3,0,3,1,false,z,false,false,0.0-2.0-0.15-0.141-3.141,0,1,1,81,false,stim,true,0,562.3449999839067,0,0,0,55005,WMM2,420969,false,false,607,image-keyboard-response,22
true,3,1,3,1,true,z,false,true,0.0-2.0-0.15-0.142-3.142,0,1,1,90,false,stim,false,0,394.80499969795346,0,0,0,55005,WMM2,422897,false,false,610,image-keyboard-response,23
true,3,1,3,1,true,z,false,true,0.0-2.0-0.15-0.143-3.143,0,1,1,90,false,stim,false,1,419.4800001569092,0,1,1,55005,WMM2,424825,false,false,613,image-keyboard-response,24
true,3,1,3,1,true,z,false,true,0.0-2.0-0.16-0.144-3.144,0,1,1,90,false,stim,false,1,447.43499998003244,0,1,1,55005,WMM2,426801,false,false,616,image-keyboard-response,25
true,3,1,3,1,true,z,false,true,0.0-2.0-0.16-0.145-3.145,0,1,1,90,false,stim,false,1,543.6399998143315,0,1,1,55005,WMM2,428865,false,false,619,image-keyboard-response,26
true,3,1,3,2,false,d,true,false,0.0-2.0-0.16-0.146-3.146,0,1,1,90,false,stim,false,2,575.284999795258,0,1,2,55005,WMM2,430961,false,false,622,image-keyboard-response,27
true,3,2,3,2,true,d,false,true,0.0-2.0-0.16-0.147-3.147,0,1,1,68,false,stim,false,2,367.40999994799495,0,1,2,55005,WMM2,432841,false,false,625,image-keyboard-response,28
true,3,0,3,1,false,z,false,false,0.0-2.0-0.16-0.148-3.148,0,1,1,81,false,stim,true,0,828.3199998550117,0,0,0,55005,WMM2,435184,false,false,628,image-keyboard-response,29
true,3,1,3,1,true,z,false,true,0.0-2.0-0.16-0.149-3.149,0,1,1,90,false,stim,false,0,495.03999995067716,0,0,0,55005,WMM2,437200,false,false,631,image-keyboard-response,30
true,3,1,3,1,true,z,false,true,0.0-2.0-0.16-0.150-3.150,0,1,1,90,false,stim,false,1,388.1350001320243,0,1,1,55005,WMM2,439112,false,false,634,image-keyboard-response,31
true,3,1,3,2,false,d,true,false,0.0-2.0-0.16-0.151-3.151,0,1,1,90,false,stim,false,2,451.35000022128224,0,1,2,55005,WMM2,441072,false,false,637,image-keyboard-response,32
true,3,2,3,1,false,z,true,false,0.0-2.0-0.16-0.152-3.152,0,1,1,68,false,stim,false,0,559.1649999842048,0,0,0,55005,WMM2,443161,false,false,640,image-keyboard-response,33
true,3,0,3,1,false,z,false,false,0.0-2.0-0.17-0.153-3.153,0,1,1,81,false,stim,true,0,295.2549997717142,0,0,0,55005,WMM2,444968,false,false,643,image-keyboard-response,34
true,3,1,3,1,true,z,false,true,0.0-2.0-0.17-0.154-3.154,0,1,1,90,false,stim,false,1,257.60999973863363,0,1,1,55005,WMM2,446744,false,false,646,image-keyboard-response,35
true,3,1,3,1,true,z,false,true,0.0-2.0-0.17-0.155-3.155,0,1,1,90,false,stim,false,0,271.1100000888109,0,0,0,55005,WMM2,448528,false,false,649,image-keyboard-response,36
true,3,2,3,1,false,z,true,false,0.0-2.0-0.17-0.156-3.156,0,1,1,68,false,stim,false,1,656.795000191778,0,1,1,55005,WMM2,450696,false,false,652,image-keyboard-response,37
true,3,0,3,2,false,d,true,false,0.0-2.0-0.17-0.157-3.157,0,1,1,81,false,stim,false,2,514.5400003530085,0,1,2,55005,WMM2,452720,false,false,655,image-keyboard-response,38
true,3,1,3,2,false,d,true,false,0.0-2.0-0.17-0.158-3.158,0,1,1,90,false,stim,false,2,283.53000013157725,0,1,2,55005,WMM2,454537,false,false,658,image-keyboard-response,39
true,3,2,3,2,true,d,false,true,0.0-2.0-0.17-0.159-3.159,0,1,1,68,false,stim,false,2,320.3199999406934,0,1,2,55005,WMM2,456376,false,false,661,image-keyboard-response,40
true,3,1,3,1,true,z,false,true,0.0-2.0-0.17-0.160-3.160,0,1,1,90,false,stim,false,0,590.6050000339746,0,0,0,55005,WMM2,458480,false,false,664,image-keyboard-response,41
true,3,0,3,1,false,z,true,false,0.0-2.0-0.17-0.161-3.161,0,1,1,81,false,stim,false,1,437.3349999077618,0,1,1,55005,WMM2,460440,false,false,667,image-keyboard-response,42
true,3,2,3,1,false,z,true,false,0.0-2.0-0.18-0.162-3.162,0,1,1,68,false,stim,false,0,294.4149998947978,0,0,0,55005,WMM2,462264,false,false,670,image-keyboard-response,43
true,3,1,3,1,true,z,false,true,0.0-2.0-0.18-0.163-3.163,0,1,1,90,false,stim,false,0,331.8049996159971,0,0,0,55005,WMM2,464104,false,false,673,image-keyboard-response,44
true,3,1,3,2,false,d,true,false,0.0-2.0-0.18-0.164-3.164,0,1,1,90,false,stim,false,2,484.19500002637506,0,1,2,55005,WMM2,466120,false,false,676,image-keyboard-response,45
true,3,0,3,1,false,z,false,false,0.0-2.0-0.18-0.165-3.165,0,1,1,81,false,stim,true,0,356.69999988749623,0,0,0,55005,WMM2,468008,false,false,679,image-keyboard-response,46
true,3,2,3,2,true,d,false,true,0.0-2.0-0.18-0.166-3.166,0,1,1,68,false,stim,false,2,456.42999978736043,0,1,2,55005,WMM2,469992,false,false,682,image-keyboard-response,47
true,3,2,3,1,false,z,true,false,0.0-2.0-0.18-0.167-3.167,0,1,1,68,false,stim,false,1,407.5350002385676,0,1,1,55005,WMM2,471927,false,false,685,image-keyboard-response,48
true,3,1,3,2,false,d,true,false,0.0-2.0-0.18-0.168-3.168,0,1,1,90,false,stim,false,2,361.20499996468425,0,1,2,55005,WMM2,473816,false,false,688,image-keyboard-response,49
true,3,0,3,1,false,z,true,false,0.0-2.0-0.18-0.169-3.169,0,1,1,81,false,stim,false,1,301.9300000742078,0,1,1,55005,WMM2,475640,false,false,691,image-keyboard-response,50
true,3,2,3,1,false,z,true,false,0.0-2.0-0.18-0.170-3.170,0,1,1,68,false,stim,false,1,379.81999991461635,0,0,1,55005,WMM2,477536,false,false,694,image-keyboard-response,51
true,3,1,3,2,false,d,true,false,0.0-2.0-0.19-0.171-3.171,0,1,1,90,false,stim,false,2,160.94999993219972,0,1,2,55005,WMM2,479216,false,false,697,image-keyboard-response,52
true,3,0,3,1,false,z,true,false,0.0-2.0-0.19-0.172-3.172,0,1,1,81,false,stim,false,1,567.5949999131262,0,0,1,55005,WMM2,481303,false,false,700,image-keyboard-response,53
true,3,1,3,1,true,z,false,false,0.0-2.0-0.19-0.173-3.173,0,1,1,90,false,stim,false,0,349.49500020593405,0,1,0,55005,WMM2,483183,false,true,703,image-keyboard-response,54
true,3,2,3,2,true,d,false,false,0.0-2.0-0.19-0.174-3.174,0,1,1,68,false,stim,false,2,448.53000016883016,0,1,2,55005,WMM2,485151,false,true,706,image-keyboard-response,55
true,3,0,3,2,false,d,true,false,0.0-2.0-0.19-0.175-3.175,0,1,1,81,false,stim,false,2,216.27000020816922,0,1,2,55005,WMM2,486887,false,false,709,image-keyboard-response,56
true,3,1,3,1,true,z,false,true,0.0-2.0-0.19-0.176-3.176,0,1,1,90,false,stim,false,1,267.39999977871776,0,0,1,55005,WMM2,488671,false,false,712,image-keyboard-response,57
true,3,1,3,1,true,z,false,false,0.0-2.0-0.19-0.177-3.177,0,1,1,90,false,stim,false,1,389.29500011727214,0,0,1,55005,WMM2,490591,false,true,715,image-keyboard-response,58
true,3,0,3,1,false,z,false,false,0.0-2.0-0.19-0.178-3.178,0,1,1,81,false,stim,true,0,256.0900002717972,0,1,0,55005,WMM2,492359,false,false,718,image-keyboard-response,59
true,3,2,3,1,false,z,true,false,0.0-2.0-0.19-0.179-3.179,0,1,1,68,false,stim,false,0,370.06500037387013,0,1,0,55005,WMM2,494255,false,false,721,image-keyboard-response,60
true,4,0,2,0,true,q,false,true,0.0-2.0-0.20-0.180-3.180,1,0,1,81,true,stim,false,1,651.4599998481572,0,0,1,55005,WMM2,496423,false,false,724,image-keyboard-response,1
true,4,0,2,1,false,z,true,false,0.0-2.0-0.20-0.181-3.181,1,0,1,81,false,stim,false,1,436.6049999371171,0,1,0,55005,WMM2,498375,false,false,727,image-keyboard-response,2
true,4,1,2,2,false,d,true,false,0.0-2.0-0.20-0.182-3.182,1,0,1,90,false,stim,false,2,450.5850002169609,0,1,2,55005,WMM2,500351,false,false,730,image-keyboard-response,3
true,4,1,2,2,false,d,true,false,0.0-2.0-0.20-0.183-3.183,1,0,1,90,false,stim,false,2,257.080000359565,0,1,2,55005,WMM2,502143,false,false,733,image-keyboard-response,4
true,4,2,2,1,false,z,true,false,0.0-2.0-0.20-0.184-3.184,1,0,1,68,false,stim,false,1,192.15500028803945,0,1,0,55005,WMM2,503863,false,false,736,image-keyboard-response,5
true,4,0,2,0,true,q,false,true,0.0-2.0-0.20-0.185-3.185,1,0,1,81,false,stim,false,1,253.11500020325184,0,0,1,55005,WMM2,505622,false,false,739,image-keyboard-response,6
true,4,0,2,1,false,z,true,false,0.0-2.0-0.20-0.186-3.186,1,0,1,81,false,stim,false,1,471.22499998658895,0,1,0,55005,WMM2,507623,false,false,742,image-keyboard-response,7
true,4,1,2,2,false,d,true,false,0.0-2.0-0.20-0.187-3.187,1,0,1,90,false,stim,false,2,208.69500003755093,0,1,2,55005,WMM2,509358,false,false,745,image-keyboard-response,8
true,4,2,2,0,false,q,true,false,0.0-2.0-0.20-0.188-3.188,1,0,1,68,false,stim,false,1,323.3799999579787,0,0,1,55005,WMM2,511207,false,false,748,image-keyboard-response,9
true,4,1,2,0,false,q,false,false,0.0-2.0-0.21-0.189-3.189,1,0,1,90,false,stim,true,1,472.4599998444319,0,0,1,55005,WMM2,513206,false,false,751,image-keyboard-response,10
true,4,0,2,2,false,d,true,false,0.0-2.0-0.21-0.190-3.190,1,0,1,81,false,stim,false,2,400.9699998423457,0,1,2,55005,WMM2,515134,false,false,754,image-keyboard-response,11
true,4,0,2,0,true,q,false,true,0.0-2.0-0.21-0.191-3.191,1,0,1,81,false,stim,false,1,493.1549998000264,0,0,1,55005,WMM2,517150,false,false,757,image-keyboard-response,12
true,4,0,2,0,true,q,false,true,0.0-2.0-0.21-0.192-3.192,1,0,1,81,false,stim,false,1,505.02000004053116,0,0,1,55005,WMM2,519174,false,false,760,image-keyboard-response,13
true,4,0,2,1,false,z,true,false,0.0-2.0-0.21-0.193-3.193,1,0,1,81,false,stim,false,1,409.53500010073185,0,1,0,55005,WMM2,521110,false,false,763,image-keyboard-response,14
true,4,0,2,2,false,d,true,false,0.0-2.0-0.21-0.194-3.194,1,0,1,81,false,stim,false,2,470.059999730438,0,1,2,55005,WMM2,523103,false,false,766,image-keyboard-response,15
true,4,1,2,2,false,d,true,false,0.0-2.0-0.21-0.195-3.195,1,0,1,90,false,stim,false,2,1284.2999999411404,0,1,2,55005,WMM2,525902,false,false,769,image-keyboard-response,16
true,4,1,2,1,true,z,false,true,0.0-2.0-0.21-0.196-3.196,1,0,1,90,false,stim,false,1,946.520000230521,0,1,0,55005,WMM2,528366,false,false,772,image-keyboard-response,17
true,4,1,2,1,true,z,false,true,0.0-2.0-0.21-0.197-3.197,1,0,1,90,false,stim,false,1,2796.8999999575317,0,1,0,55005,WMM2,532686,false,false,775,image-keyboard-response,18
true,4,2,2,2,true,d,false,true,0.0-2.0-0.22-0.198-3.198,1,0,1,68,false,stim,false,2,467.6299998536706,0,1,2,55005,WMM2,534686,false,false,778,image-keyboard-response,19
true,4,0,2,0,true,q,false,true,0.0-2.0-0.22-0.199-3.199,1,0,1,81,false,stim,false,1,642.2899998724461,0,0,1,55005,WMM2,536862,false,false,781,image-keyboard-response,20
true,4,1,2,0,false,q,false,true,0.0-2.0-0.22-0.200-3.200,1,0,1,90,false,stim,true,1,349.225000012666,0,0,1,55005,WMM2,538734,false,true,784,image-keyboard-response,21
true,4,2,2,0,false,q,true,false,0.0-2.0-0.22-0.201-3.201,1,0,1,68,false,stim,false,1,361.7300000041723,0,0,1,55005,WMM2,540629,false,false,787,image-keyboard-response,22
true,4,1,2,1,true,z,false,true,0.0-2.0-0.22-0.202-3.202,1,0,1,90,false,stim,false,1,597.5299999117851,0,1,0,55005,WMM2,542749,false,false,790,image-keyboard-response,23
true,4,0,2,2,false,d,true,false,0.0-2.0-0.22-0.203-3.203,1,0,1,81,false,stim,false,2,379.31500002741814,0,1,2,55005,WMM2,544661,false,false,793,image-keyboard-response,24
true,4,2,2,1,false,z,true,false,0.0-2.0-0.22-0.204-3.204,1,0,1,68,false,stim,false,1,341.9299996457994,0,1,0,55005,WMM2,546510,false,false,796,image-keyboard-response,25
true,4,1,2,1,true,z,false,true,0.0-2.0-0.22-0.205-3.205,1,0,1,90,false,stim,false,1,313.4749997407198,0,1,0,55005,WMM2,548349,false,false,799,image-keyboard-response,26
true,4,0,2,2,false,d,true,false,0.0-2.0-0.22-0.206-3.206,1,0,1,81,false,stim,false,2,458.84499978274107,0,1,2,55005,WMM2,550341,false,false,802,image-keyboard-response,27
true,4,2,2,1,false,z,true,false,0.0-2.0-0.23-0.207-3.207,1,0,1,68,false,stim,false,1,349.029999691993,0,1,0,55005,WMM2,552213,false,false,805,image-keyboard-response,28
true,4,1,2,1,true,z,false,true,0.0-2.0-0.23-0.208-3.208,1,0,1,90,false,stim,false,1,272.37999998033047,0,1,0,55005,WMM2,554021,false,false,808,image-keyboard-response,29
true,4,1,2,0,false,q,false,false,0.0-2.0-0.23-0.209-3.209,1,0,1,90,false,stim,true,1,352.0450000651181,0,0,1,55005,WMM2,555901,false,false,811,image-keyboard-response,30
true,4,0,2,0,true,q,false,true,0.0-2.0-0.23-0.210-3.210,1,0,1,81,false,stim,false,1,268.3950001373887,0,0,1,55005,WMM2,557701,false,false,814,image-keyboard-response,31
true,4,1,2,1,true,z,false,true,0.0-2.0-0.23-0.211-3.211,1,0,1,90,false,stim,false,1,572.8649999946356,0,1,0,55005,WMM2,559805,false,false,817,image-keyboard-response,32
true,4,0,2,2,false,d,true,false,0.0-2.0-0.23-0.212-3.212,1,0,1,81,false,stim,false,2,327.1150002256036,0,1,2,55005,WMM2,561661,false,false,820,image-keyboard-response,33
true,4,2,2,0,false,q,true,false,0.0-2.0-0.23-0.213-3.213,1,0,1,68,false,stim,false,1,331.35499991476536,0,0,1,55005,WMM2,563501,false,false,823,image-keyboard-response,34
true,4,1,2,2,false,d,true,true,0.0-2.0-0.23-0.214-3.214,1,0,1,90,false,stim,false,2,251.14999990910292,0,1,2,55005,WMM2,565269,false,true,826,image-keyboard-response,35
true,4,0,2,2,false,d,true,false,0.0-2.0-0.23-0.215-3.215,1,0,1,81,false,stim,false,2,635.1800002157688,0,1,2,55005,WMM2,567437,false,false,829,image-keyboard-response,36
true,4,2,2,0,false,q,true,false,0.0-2.0-0.24-0.216-3.216,1,0,1,68,false,stim,false,1,374.1649999283254,0,0,1,55005,WMM2,569341,false,false,832,image-keyboard-response,37
true,4,0,2,0,true,q,false,true,0.0-2.0-0.24-0.217-3.217,1,0,1,81,false,stim,false,1,457.88999972864985,0,0,1,55005,WMM2,571325,false,false,835,image-keyboard-response,38
true,4,1,2,2,false,d,true,false,0.0-2.0-0.24-0.218-3.218,1,0,1,90,false,stim,false,2,359.63999992236495,0,1,2,55005,WMM2,573197,false,false,838,image-keyboard-response,39
true,4,2,2,0,false,q,true,false,0.0-2.0-0.24-0.219-3.219,1,0,1,68,false,stim,false,1,613.4000001475215,0,0,1,55005,WMM2,575333,false,false,841,image-keyboard-response,40
true,4,1,2,2,false,d,true,false,0.0-2.0-0.24-0.220-3.220,1,0,1,90,false,stim,false,2,540.610000025481,0,1,2,55005,WMM2,577404,false,false,844,image-keyboard-response,41
true,4,0,2,2,false,d,true,true,0.0-2.0-0.24-0.221-3.221,1,0,1,81,false,stim,false,2,151.67999966070056,0,1,2,55005,WMM2,579084,false,true,847,image-keyboard-response,42
true,4,0,2,1,false,z,true,false,0.0-2.0-0.24-0.222-3.222,1,0,1,81,false,stim,false,1,342.42499992251396,0,1,0,55005,WMM2,580957,false,false,850,image-keyboard-response,43
true,4,2,2,1,false,z,true,false,0.0-2.0-0.24-0.223-3.223,1,0,1,68,false,stim,false,1,337.6850001513958,0,1,0,55005,WMM2,582820,false,false,853,image-keyboard-response,44
true,4,1,2,1,true,z,false,true,0.0-2.0-0.24-0.224-3.224,1,0,1,90,false,stim,false,1,343.6900000087917,0,1,0,55005,WMM2,584692,false,false,856,image-keyboard-response,45
true,4,1,2,1,true,z,false,true,0.0-2.0-0.25-0.225-3.225,1,0,1,90,false,stim,false,1,355.6050001643598,0,1,0,55005,WMM2,586572,false,false,859,image-keyboard-response,46
true,4,1,2,2,false,d,true,false,0.0-2.0-0.25-0.226-3.226,1,0,1,90,false,stim,false,2,367.61000007390976,0,1,2,55005,WMM2,588452,false,false,862,image-keyboard-response,47
true,4,0,2,0,true,q,false,true,0.0-2.0-0.25-0.227-3.227,1,0,1,81,false,stim,false,1,533.4399999119341,0,0,1,55005,WMM2,590516,false,false,865,image-keyboard-response,48
true,4,0,2,2,false,d,true,false,0.0-2.0-0.25-0.228-3.228,1,0,1,81,false,stim,false,2,380.76999969780445,0,1,2,55005,WMM2,592429,false,false,868,image-keyboard-response,49
true,4,2,2,1,false,z,true,false,0.0-2.0-0.25-0.229-3.229,1,0,1,68,false,stim,false,1,269.72500002011657,0,1,0,55005,WMM2,594220,false,false,871,image-keyboard-response,50
true,4,1,2,0,false,q,false,false,0.0-2.0-0.25-0.230-3.230,1,0,1,90,false,stim,true,1,181.770000141114,0,1,1,55005,WMM2,595916,false,false,874,image-keyboard-response,51
true,4,0,2,1,false,z,true,false,0.0-2.0-0.25-0.231-3.231,1,0,1,81,false,stim,false,1,268.6450001783669,0,0,0,55005,WMM2,597716,false,false,877,image-keyboard-response,52
true,4,1,2,2,false,d,true,true,0.0-2.0-0.25-0.232-3.232,1,0,1,90,false,stim,false,2,325.49000019207597,0,1,2,55005,WMM2,599572,false,true,880,image-keyboard-response,53
true,4,1,2,0,false,q,false,false,0.0-2.0-0.25-0.233-3.233,1,0,1,90,false,stim,true,1,377.4250000715256,0,1,1,55005,WMM2,601475,false,false,883,image-keyboard-response,54
true,4,2,2,1,false,z,true,false,0.0-2.0-0.26-0.234-3.234,1,0,1,68,false,stim,false,1,629.1300002485514,0,0,0,55005,WMM2,603628,false,false,886,image-keyboard-response,55
true,4,0,2,2,false,d,true,true,0.0-2.0-0.26-0.235-3.235,1,0,1,81,false,stim,false,2,244.4349997676909,0,1,2,55005,WMM2,605395,false,true,889,image-keyboard-response,56
true,4,0,2,2,false,d,true,false,0.0-2.0-0.26-0.236-3.236,1,0,1,81,false,stim,false,2,568.8450001180172,0,1,2,55005,WMM2,607499,false,false,892,image-keyboard-response,57
true,4,1,2,0,false,q,false,false,0.0-2.0-0.26-0.237-3.237,1,0,1,90,false,stim,true,1,280.5499997921288,0,1,1,55005,WMM2,609299,false,false,895,image-keyboard-response,58
true,4,1,2,1,true,z,false,true,0.0-2.0-0.26-0.238-3.238,1,0,1,90,false,stim,false,1,590.9799998626113,0,0,0,55005,WMM2,611419,false,false,898,image-keyboard-response,59
true,4,1,2,0,false,q,false,false,0.0-2.0-0.26-0.239-3.239,1,0,1,90,false,stim,true,1,658.1350001506507,0,1,1,55005,WMM2,613611,false,false,901,image-keyboard-response,60
true,5,2,2,0,false,q,true,false,0.0-2.0-0.26-0.240-3.240,0,1,1,68,true,stim,false,1,232.0850002579391,0,0,0,55005,WMM2,615364,false,false,904,image-keyboard-response,1
true,5,1,2,0,false,q,true,false,0.0-2.0-0.26-0.241-3.241,0,1,1,90,false,stim,false,0,384.59999999031425,0,1,1,55005,WMM2,617267,false,false,907,image-keyboard-response,2
true,5,1,2,2,false,d,true,false,0.0-2.0-0.26-0.242-3.242,0,1,1,90,false,stim,false,2,419.1050003282726,0,1,2,55005,WMM2,619203,false,false,910,image-keyboard-response,3
true,5,0,2,0,true,q,false,true,0.0-2.0-0.27-0.243-3.243,0,1,1,81,false,stim,false,1,257.8350002877414,0,0,0,55005,WMM2,620987,false,false,913,image-keyboard-response,4
true,5,0,2,0,true,q,false,true,0.0-2.0-0.27-0.244-3.244,0,1,1,81,false,stim,false,1,424.1599999368191,0,0,0,55005,WMM2,622939,false,false,916,image-keyboard-response,5
true,5,0,2,2,false,d,true,false,0.0-2.0-0.27-0.245-3.245,0,1,1,81,false,stim,false,2,272.21000008285046,0,1,2,55005,WMM2,624723,false,false,919,image-keyboard-response,6
true,5,2,2,0,false,q,true,false,0.0-2.0-0.27-0.246-3.246,0,1,1,68,false,stim,false,0,178.15000005066395,0,1,1,55005,WMM2,626427,false,false,922,image-keyboard-response,7
true,5,1,2,0,false,q,true,false,0.0-2.0-0.27-0.247-3.247,0,1,1,90,false,stim,false,0,429.23999996855855,0,1,1,55005,WMM2,628363,false,false,925,image-keyboard-response,8
true,5,0,2,2,false,d,true,false,0.0-2.0-0.27-0.248-3.248,0,1,1,81,false,stim,false,2,432.560000102967,0,1,2,55005,WMM2,630315,false,false,928,image-keyboard-response,9
true,5,1,2,0,false,q,false,true,0.0-2.0-0.27-0.249-3.249,0,1,1,90,false,stim,true,1,268.285000231117,0,0,0,55005,WMM2,632115,false,true,931,image-keyboard-response,10
true,5,1,2,0,false,q,true,false,0.0-2.0-0.27-0.250-3.250,0,1,1,90,false,stim,false,0,660.7349999248981,0,1,1,55005,WMM2,634307,false,false,934,image-keyboard-response,11
true,5,2,2,2,true,d,false,true,0.0-2.0-0.27-0.251-3.251,0,1,1,68,false,stim,false,2,421.4850002899766,0,1,2,55005,WMM2,636251,false,false,937,image-keyboard-response,12
true,5,2,2,2,true,d,false,true,0.0-2.0-0.28-0.252-3.252,0,1,1,68,false,stim,false,2,421.2899999693036,0,1,2,55005,WMM2,638203,false,false,940,image-keyboard-response,13
true,5,1,2,0,false,q,true,false,0.0-2.0-0.28-0.253-3.253,0,1,1,90,false,stim,false,0,871.9750000163913,0,1,1,55005,WMM2,640603,false,false,943,image-keyboard-response,14
true,5,0,2,0,true,q,false,true,0.0-2.0-0.28-0.254-3.254,0,1,1,81,false,stim,false,1,902.959999628365,0,0,0,55005,WMM2,643035,false,false,946,image-keyboard-response,15
true,5,0,2,0,true,q,false,true,0.0-2.0-0.28-0.255-3.255,0,1,1,81,false,stim,false,0,406.0300001874566,0,1,1,55005,WMM2,644971,false,false,949,image-keyboard-response,16
true,5,0,2,0,true,q,false,true,0.0-2.0-0.28-0.256-3.256,0,1,1,81,false,stim,false,1,481.3299998641014,0,0,0,55005,WMM2,646978,false,false,952,image-keyboard-response,17
true,5,1,2,2,false,d,true,false,0.0-2.0-0.28-0.257-3.257,0,1,1,90,false,stim,false,2,559.4199998304248,0,1,2,55005,WMM2,649059,false,false,955,image-keyboard-response,18
true,5,2,2,0,false,q,true,false,0.0-2.0-0.28-0.258-3.258,0,1,1,68,false,stim,false,1,515.020000282675,0,0,0,55005,WMM2,651082,false,false,958,image-keyboard-response,19
true,5,1,2,2,false,d,true,false,0.0-2.0-0.28-0.259-3.259,0,1,1,90,false,stim,false,2,275.8749998174608,0,1,2,55005,WMM2,652890,false,false,961,image-keyboard-response,20
true,5,0,2,0,true,q,false,true,0.0-2.0-0.28-0.260-3.260,0,1,1,81,false,stim,false,0,371.84999976307154,0,1,1,55005,WMM2,654770,false,false,964,image-keyboard-response,21
true,5,0,2,2,false,d,true,true,0.0-2.0-0.29-0.261-3.261,0,1,1,81,false,stim,false,2,392.384999897331,0,1,2,55005,WMM2,656690,false,true,967,image-keyboard-response,22
true,5,0,2,0,true,q,false,true,0.0-2.0-0.29-0.262-3.262,0,1,1,81,false,stim,false,1,941.6649998165667,0,0,0,55005,WMM2,659155,false,false,970,image-keyboard-response,23
true,5,0,2,0,true,q,false,true,0.0-2.0-0.29-0.263-3.263,0,1,1,81,false,stim,false,1,757.5250002555549,0,0,0,55005,WMM2,661426,false,false,973,image-keyboard-response,24
true,5,2,2,0,false,q,true,false,0.0-2.0-0.29-0.264-3.264,0,1,1,68,false,stim,false,0,428.19999996572733,0,1,1,55005,WMM2,663378,false,false,976,image-keyboard-response,25
true,5,1,2,2,false,d,true,false,0.0-2.0-0.29-0.265-3.265,0,1,1,90,false,stim,false,2,231.5500001423061,0,1,2,55005,WMM2,665130,false,false,979,image-keyboard-response,26
true,5,0,2,0,true,q,false,true,0.0-2.0-0.29-0.266-3.266,0,1,1,81,false,stim,false,0,310.9050001949072,0,1,1,55005,WMM2,666969,false,false,982,image-keyboard-response,27
true,5,0,2,0,true,q,false,true,0.0-2.0-0.29-0.267-3.267,0,1,1,81,false,stim,false,1,214.74500000476837,0,0,0,55005,WMM2,668697,false,false,985,image-keyboard-response,28
true,5,0,2,0,true,q,false,true,0.0-2.0-0.29-0.268-3.268,0,1,1,81,false,stim,false,0,1896.449999883771,0,1,1,55005,WMM2,672114,false,false,988,image-keyboard-response,29
true,5,1,2,2,false,d,true,false,0.0-2.0-0.29-0.269-3.269,0,1,1,90,false,stim,false,2,745.6200001761317,0,1,2,55005,WMM2,674377,false,false,991,image-keyboard-response,30
true,5,0,2,0,true,q,false,true,0.0-2.0-0.30-0.270-3.270,0,1,1,81,false,stim,false,1,502.9600001871586,0,0,0,55005,WMM2,676401,false,false,994,image-keyboard-response,31
true,5,0,2,2,false,d,true,false,0.0-2.0-0.30-0.271-3.271,0,1,1,81,false,stim,false,2,569.3900003097951,0,1,2,55005,WMM2,678497,false,false,997,image-keyboard-response,32
true,5,2,2,0,false,q,true,false,0.0-2.0-0.30-0.272-3.272,0,1,1,68,false,stim,false,0,284.3200000934303,0,1,1,55005,WMM2,680313,false,false,1000,image-keyboard-response,33
true,5,1,2,2,false,d,true,false,0.0-2.0-0.30-0.273-3.273,0,1,1,90,false,stim,false,2,392.62000005692244,0,1,2,55005,WMM2,682242,false,false,1003,image-keyboard-response,34
true,5,0,2,0,true,q,false,true,0.0-2.0-0.30-0.274-3.274,0,1,1,81,false,stim,false,0,805.1599999889731,0,1,1,55005,WMM2,684585,false,false,1006,image-keyboard-response,35
true,5,0,2,0,true,q,false,true,0.0-2.0-0.30-0.275-3.275,0,1,1,81,false,stim,false,0,494.440000038594,0,1,1,55005,WMM2,686593,false,false,1009,image-keyboard-response,36
true,5,0,2,0,true,q,false,false,0.0-2.0-0.30-0.276-3.276,0,1,1,81,false,stim,false,1,302.08999989554286,0,0,0,55005,WMM2,688417,false,true,1012,image-keyboard-response,37
true,5,0,2,2,false,d,true,false,0.0-2.0-0.30-0.277-3.277,0,1,1,81,false,stim,false,2,750.8550002239645,0,1,2,55005,WMM2,690697,false,false,1015,image-keyboard-response,38
true,5,0,2,0,true,q,false,true,0.0-2.0-0.30-0.278-3.278,0,1,1,81,false,stim,false,1,675.5450000055134,0,0,0,55005,WMM2,692905,false,false,1018,image-keyboard-response,39
true,5,0,2,0,true,q,false,true,0.0-2.0-0.31-0.279-3.279,0,1,1,81,false,stim,false,1,781.4249997027218,0,0,0,55005,WMM2,695209,false,false,1021,image-keyboard-response,40
true,5,1,2,0,false,q,false,false,0.0-2.0-0.31-0.280-3.280,0,1,1,90,false,stim,true,1,464.60000006482005,0,0,0,55005,WMM2,697209,false,false,1024,image-keyboard-response,41
true,5,0,2,2,false,d,true,true,0.0-2.0-0.31-0.281-3.281,0,1,1,81,false,stim,false,2,778.9649995975196,0,1,2,55005,WMM2,699505,false,true,1027,image-keyboard-response,42
true,5,0,2,0,true,q,false,true,0.0-2.0-0.31-0.282-3.282,0,1,1,81,false,stim,false,0,1545.109999831766,0,1,1,55005,WMM2,702561,false,false,1030,image-keyboard-response,43
true,5,0,2,2,false,d,true,false,0.0-2.0-0.31-0.283-3.283,0,1,1,81,false,stim,false,2,315.4899999499321,0,1,2,55005,WMM2,704393,false,false,1033,image-keyboard-response,44
true,5,1,2,0,false,q,true,true,0.0-2.0-0.31-0.284-3.284,0,1,1,90,false,stim,false,0,420.06499972194433,0,1,1,55005,WMM2,706329,false,true,1036,image-keyboard-response,45
true,5,2,2,2,true,d,false,true,0.0-2.0-0.31-0.285-3.285,0,1,1,68,false,stim,false,2,713.9250002801418,0,1,2,55005,WMM2,708569,false,false,1039,image-keyboard-response,46
true,5,0,2,0,true,q,false,true,0.0-2.0-0.31-0.286-3.286,0,1,1,81,false,stim,false,1,743.9099997282028,0,0,0,55005,WMM2,710825,false,false,1042,image-keyboard-response,47
true,5,0,2,0,true,q,false,true,0.0-2.0-0.31-0.287-3.287,0,1,1,81,false,stim,false,0,583.3349996246397,0,1,1,55005,WMM2,712929,false,false,1045,image-keyboard-response,48
true,5,0,2,0,true,q,false,true,0.0-2.0-0.32-0.288-3.288,0,1,1,81,false,stim,false,0,420.38500029593706,0,1,1,55005,WMM2,714857,false,false,1048,image-keyboard-response,49
true,5,0,2,2,false,d,true,false,0.0-2.0-0.32-0.289-3.289,0,1,1,81,false,stim,false,2,706.994999665767,0,1,2,55005,WMM2,717088,false,false,1051,image-keyboard-response,50
true,5,0,2,0,true,q,false,true,0.0-2.0-0.32-0.290-3.290,0,1,1,81,false,stim,false,1,627.7000000700355,0,1,0,55005,WMM2,719240,false,false,1054,image-keyboard-response,51
true,5,0,2,0,true,q,false,true,0.0-2.0-0.32-0.291-3.291,0,1,1,81,false,stim,false,0,302.7200000360608,0,0,1,55005,WMM2,721064,false,false,1057,image-keyboard-response,52
true,5,0,2,0,true,q,false,true,0.0-2.0-0.32-0.292-3.292,0,1,1,81,false,stim,false,1,255.4250000976026,0,1,0,55005,WMM2,722848,false,false,1060,image-keyboard-response,53
true,5,0,2,0,true,q,false,true,0.0-2.0-0.32-0.293-3.293,0,1,1,81,false,stim,false,0,408.6199998855591,0,0,1,55005,WMM2,724784,false,false,1063,image-keyboard-response,54
true,5,0,2,2,false,d,true,false,0.0-2.0-0.32-0.294-3.294,0,1,1,81,false,stim,false,2,849.309999961406,0,1,2,55005,WMM2,727160,false,false,1066,image-keyboard-response,55
true,5,2,2,2,true,d,false,true,0.0-2.0-0.32-0.295-3.295,0,1,1,68,false,stim,false,2,39.89999974146485,0,1,2,55005,WMM2,728720,false,false,1069,image-keyboard-response,56
true,5,1,2,0,false,q,false,false,0.0-2.0-0.32-0.296-3.296,0,1,1,90,false,stim,true,1,818.3949999511242,0,1,0,55005,WMM2,731064,false,false,1072,image-keyboard-response,57
true,5,0,2,0,true,q,false,true,0.0-2.0-0.33-0.297-3.297,0,1,1,81,false,stim,false,0,861.2049999646842,0,0,1,55005,WMM2,733456,false,false,1075,image-keyboard-response,58
true,5,0,2,0,true,q,false,true,0.0-2.0-0.33-0.298-3.298,0,1,1,81,false,stim,false,0,685.8350001275539,0,0,1,55005,WMM2,735664,false,false,1078,image-keyboard-response,59
true,5,0,2,0,true,q,false,true,0.0-2.0-0.33-0.299-3.299,0,1,1,81,false,stim,false,1,568.2350001297891,0,1,0,55005,WMM2,737760,false,false,1081,image-keyboard-response,60
true,6,0,2,2,false,d,false,false,0.0-2.0-0.33-0.300-3.300,1,0,1,81,true,stim,true,0,1744.8950000107288,0,0,1,55005,WMM2,741040,false,false,1084,image-keyboard-response,1
true,6,1,2,0,false,q,true,false,0.0-2.0-0.33-0.301-3.301,1,0,1,90,false,stim,false,0,717.3099997453392,0,1,0,55005,WMM2,743280,false,false,1087,image-keyboard-response,2
true,6,0,2,2,false,d,true,false,0.0-2.0-0.33-0.302-3.302,1,0,1,81,false,stim,false,2,419.39499974250793,0,1,2,55005,WMM2,745231,false,false,1090,image-keyboard-response,3
true,6,1,2,2,false,d,true,false,0.0-2.0-0.33-0.303-3.303,1,0,1,90,false,stim,false,2,557.7650000341237,0,1,2,55005,WMM2,747319,false,false,1093,image-keyboard-response,4
true,6,2,2,0,false,q,true,false,0.0-2.0-0.33-0.304-3.304,1,0,1,68,false,stim,false,0,1296.3200001977384,0,1,0,55005,WMM2,750128,false,false,1096,image-keyboard-response,5
true,6,0,2,2,false,d,true,false,0.0-2.0-0.33-0.305-3.305,1,0,1,81,false,stim,false,2,785.4499998502433,0,1,2,55005,WMM2,752431,false,false,1099,image-keyboard-response,6
true,6,0,2,2,false,d,false,false,0.0-2.0-0.34-0.306-3.306,1,0,1,81,false,stim,true,0,563.570000231266,0,0,1,55005,WMM2,754527,false,false,1102,image-keyboard-response,7
true,6,1,2,0,false,q,true,false,0.0-2.0-0.34-0.307-3.307,1,0,1,90,false,stim,false,0,449.7199999168515,0,1,0,55005,WMM2,756511,false,false,1105,image-keyboard-response,8
true,6,2,2,0,false,q,true,false,0.0-2.0-0.34-0.308-3.308,1,0,1,68,false,stim,false,0,660.9700000844896,0,1,0,55005,WMM2,758704,false,false,1108,image-keyboard-response,9
true,6,0,2,2,false,d,false,false,0.0-2.0-0.34-0.309-3.309,1,0,1,81,false,stim,true,0,435.0999998860061,0,0,1,55005,WMM2,760663,false,false,1111,image-keyboard-response,10
true,6,1,2,2,false,d,true,false,0.0-2.0-0.34-0.310-3.310,1,0,1,90,false,stim,false,2,526.480000000447,0,1,2,55005,WMM2,762719,false,false,1114,image-keyboard-response,11
true,6,2,2,0,false,q,true,false,0.0-2.0-0.34-0.311-3.311,1,0,1,68,false,stim,false,0,426.73000041395426,0,1,0,55005,WMM2,764671,false,false,1117,image-keyboard-response,12
false,6,-1,2,2,false,d,true,false,0.0-2.0-0.34-0.312-3.312,1,0,1,,false,stim,false,2,,0,1,2,55005,WMM2,769206,false,false,1120,image-keyboard-response,13
true,6,0,2,2,false,d,true,false,0.0-2.0-0.34-0.313-3.313,1,0,1,81,false,stim,false,2,358.18499978631735,0,1,2,55005,WMM2,771087,false,false,1123,image-keyboard-response,14
true,6,1,2,2,false,d,true,false,0.0-2.0-0.34-0.314-3.314,1,0,1,90,false,stim,false,0,334.23000015318394,0,0,1,55005,WMM2,772943,false,false,1126,image-keyboard-response,15
true,6,2,2,2,true,d,false,false,0.0-2.0-0.35-0.315-3.315,1,0,1,68,false,stim,false,2,411.1999999731779,0,1,2,55005,WMM2,774887,false,true,1129,image-keyboard-response,16
true,6,0,2,2,false,d,false,false,0.0-2.0-0.35-0.316-3.316,1,0,1,81,false,stim,true,0,412.2250000946224,0,0,1,55005,WMM2,776823,false,false,1132,image-keyboard-response,17
true,6,1,2,2,false,d,true,true,0.0-2.0-0.35-0.317-3.317,1,0,1,90,false,stim,false,2,302.24999971687794,0,1,2,55005,WMM2,778647,false,true,1135,image-keyboard-response,18
true,6,0,2,2,false,d,false,false,0.0-2.0-0.35-0.318-3.318,1,0,1,81,false,stim,true,0,347.5449997931719,0,0,1,55005,WMM2,780511,false,false,1138,image-keyboard-response,19
true,6,2,2,2,true,d,false,true,0.0-2.0-0.35-0.319-3.319,1,0,1,68,false,stim,false,0,333.4150002337992,0,0,1,55005,WMM2,782375,false,false,1141,image-keyboard-response,20
true,6,2,2,0,false,q,true,false,0.0-2.0-0.35-0.320-3.320,1,0,1,68,false,stim,false,0,519.8949999175966,0,1,0,55005,WMM2,784430,false,false,1144,image-keyboard-response,21
true,6,1,2,2,false,d,true,false,0.0-2.0-0.35-0.321-3.321,1,0,1,90,false,stim,false,2,286.68499970808625,0,1,2,55005,WMM2,786246,false,false,1147,image-keyboard-response,22
true,6,0,2,0,true,q,false,true,0.0-2.0-0.35-0.322-3.322,1,0,1,81,false,stim,false,0,309.48999989777803,0,1,0,55005,WMM2,788086,false,false,1150,image-keyboard-response,23
true,6,0,2,0,true,q,false,true,0.0-2.0-0.35-0.323-3.323,1,0,1,81,false,stim,false,0,225.93000018969178,0,1,0,55005,WMM2,789822,false,false,1153,image-keyboard-response,24
true,6,0,2,2,false,d,false,false,0.0-2.0-0.36-0.324-3.324,1,0,1,81,false,stim,true,0,386.1250001937151,0,0,1,55005,WMM2,791734,false,false,1156,image-keyboard-response,25
true,6,1,2,2,false,d,true,false,0.0-2.0-0.36-0.325-3.325,1,0,1,90,false,stim,false,2,451.12500013783574,0,1,2,55005,WMM2,793711,false,false,1159,image-keyboard-response,26
true,6,2,2,2,true,d,false,true,0.0-2.0-0.36-0.326-3.326,1,0,1,68,false,stim,false,0,309.43999998271465,0,0,1,55005,WMM2,795550,false,false,1162,image-keyboard-response,27
true,6,1,2,0,false,q,true,false,0.0-2.0-0.36-0.327-3.327,1,0,1,90,false,stim,false,0,413.5550004430115,0,1,0,55005,WMM2,797478,false,false,1165,image-keyboard-response,28
true,6,0,2,0,true,q,false,false,0.0-2.0-0.36-0.328-3.328,1,0,1,81,false,stim,false,0,187.65500001609325,0,1,0,55005,WMM2,799198,false,true,1168,image-keyboard-response,29
true,6,2,2,2,true,d,false,true,0.0-2.0-0.36-0.329-3.329,1,0,1,68,false,stim,false,2,287.61500027030706,0,1,2,55005,WMM2,801014,false,false,1171,image-keyboard-response,30
true,6,2,2,2,true,d,false,true,0.0-2.0-0.36-0.330-3.330,1,0,1,68,false,stim,false,2,335.2200002409518,0,1,2,55005,WMM2,802878,false,false,1174,image-keyboard-response,31
true,6,2,2,0,false,q,true,false,0.0-2.0-0.36-0.331-3.331,1,0,1,68,false,stim,false,0,356.14999989047647,0,1,0,55005,WMM2,804766,false,false,1177,image-keyboard-response,32
true,6,0,2,2,false,d,false,false,0.0-2.0-0.36-0.332-3.332,1,0,1,81,false,stim,true,0,432.53500014543533,0,0,1,55005,WMM2,806726,false,false,1180,image-keyboard-response,33
true,6,2,2,0,false,q,true,false,0.0-2.0-0.37-0.333-3.333,1,0,1,68,false,stim,false,0,311.6649999283254,0,1,0,55005,WMM2,808558,false,false,1183,image-keyboard-response,34
true,6,1,2,2,false,d,true,false,0.0-2.0-0.37-0.334-3.334,1,0,1,90,false,stim,false,2,416.24499997124076,0,1,2,55005,WMM2,810510,false,false,1186,image-keyboard-response,35
true,6,0,2,2,false,d,false,false,0.0-2.0-0.37-0.335-3.335,1,0,1,81,false,stim,true,0,531.1000002548099,0,0,1,55005,WMM2,812574,false,false,1189,image-keyboard-response,36
true,6,2,2,2,true,d,false,true,0.0-2.0-0.37-0.336-3.336,1,0,1,68,false,stim,false,2,55.2599998190999,0,1,2,55005,WMM2,814150,false,false,1192,image-keyboard-response,37
true,6,0,2,2,false,d,true,false,0.0-2.0-0.37-0.337-3.337,1,0,1,81,false,stim,false,2,470.790000166744,0,1,2,55005,WMM2,816133,false,false,1195,image-keyboard-response,38
true,6,1,2,0,false,q,true,false,0.0-2.0-0.37-0.338-3.338,1,0,1,90,false,stim,false,0,72.38500006496906,0,1,0,55005,WMM2,817717,false,false,1198,image-keyboard-response,39
true,6,1,2,0,false,q,true,true,0.0-2.0-0.37-0.339-3.339,1,0,1,90,false,stim,false,0,456.68500009924173,0,1,0,55005,WMM2,819693,false,true,1201,image-keyboard-response,40
true,6,1,2,2,false,d,true,false,0.0-2.0-0.37-0.340-3.340,1,0,1,90,false,stim,false,0,859.5399996265769,0,0,1,55005,WMM2,822085,false,false,1204,image-keyboard-response,41
true,6,1,2,2,false,d,true,false,0.0-2.0-0.37-0.341-3.341,1,0,1,90,false,stim,false,0,1229.069999884814,0,0,1,55005,WMM2,824837,false,false,1207,image-keyboard-response,42
true,6,2,2,0,false,q,true,false,0.0-2.0-0.38-0.342-3.342,1,0,1,68,false,stim,false,0,325.39999997243285,0,1,0,55005,WMM2,826686,false,false,1210,image-keyboard-response,43
true,6,0,2,2,false,d,true,false,0.0-2.0-0.38-0.343-3.343,1,0,1,81,false,stim,false,2,321.8700001016259,0,1,2,55005,WMM2,828525,false,false,1213,image-keyboard-response,44
true,6,2,2,2,true,d,false,true,0.0-2.0-0.38-0.344-3.344,1,0,1,68,false,stim,false,0,520.5950001254678,0,0,1,55005,WMM2,830565,false,false,1216,image-keyboard-response,45
true,6,2,2,2,true,d,false,true,0.0-2.0-0.38-0.345-3.345,1,0,1,68,false,stim,false,0,339.18499993160367,0,0,1,55005,WMM2,832429,false,false,1219,image-keyboard-response,46
true,6,2,2,0,false,q,true,false,0.0-2.0-0.38-0.346-3.346,1,0,1,68,false,stim,false,0,391.13999996334314,0,1,0,55005,WMM2,834349,false,false,1222,image-keyboard-response,47
true,6,1,2,0,false,q,true,false,0.0-2.0-0.38-0.347-3.347,1,0,1,90,false,stim,false,0,228.9300002157688,0,1,0,55005,WMM2,836093,false,false,1225,image-keyboard-response,48
true,6,0,2,2,false,d,true,false,0.0-2.0-0.38-0.348-3.348,1,0,1,81,false,stim,false,2,44.14500016719103,0,1,2,55005,WMM2,837670,false,false,1228,image-keyboard-response,49
true,6,2,2,2,true,d,false,false,0.0-2.0-0.38-0.349-3.349,1,0,1,68,false,stim,false,2,426.50000005960464,0,1,2,55005,WMM2,839621,false,true,1231,image-keyboard-response,50
true,6,1,2,2,false,d,true,false,0.0-2.0-0.38-0.350-3.350,1,0,1,90,false,stim,false,0,540.9200000576675,0,0,1,55005,WMM2,841673,false,false,1234,image-keyboard-response,51
true,6,0,2,2,false,d,false,false,0.0-2.0-0.39-0.351-3.351,1,0,1,81,false,stim,true,0,84.09500028938055,0,0,1,55005,WMM2,843281,false,false,1237,image-keyboard-response,52
true,6,2,2,2,true,d,false,true,0.0-2.0-0.39-0.352-3.352,1,0,1,68,false,stim,false,0,395.64500004053116,0,0,1,55005,WMM2,845209,false,false,1240,image-keyboard-response,53
true,6,2,2,0,false,q,true,false,0.0-2.0-0.39-0.353-3.353,1,0,1,68,false,stim,false,0,374.23499999567866,0,1,0,55005,WMM2,847105,false,false,1243,image-keyboard-response,54
true,6,1,2,2,false,d,true,true,0.0-2.0-0.39-0.354-3.354,1,0,1,90,false,stim,false,0,426.97500018402934,0,0,1,55005,WMM2,849057,false,true,1246,image-keyboard-response,55
true,6,1,2,0,false,q,true,false,0.0-2.0-0.39-0.355-3.355,1,0,1,90,false,stim,false,0,484.02500012889504,0,1,0,55005,WMM2,851065,false,false,1249,image-keyboard-response,56
true,6,1,2,2,false,d,true,false,0.0-2.0-0.39-0.356-3.356,1,0,1,90,false,stim,false,2,635.7599999755621,0,0,2,55005,WMM2,853233,false,false,1252,image-keyboard-response,57
true,6,0,2,0,true,q,false,true,0.0-2.0-0.39-0.357-3.357,1,0,1,81,false,stim,false,0,59.690000023692846,0,1,0,55005,WMM2,854825,false,false,1255,image-keyboard-response,58
true,6,0,2,2,false,d,true,false,0.0-2.0-0.39-0.358-3.358,1,0,1,81,false,stim,false,2,279.76000029593706,0,0,2,55005,WMM2,856625,false,false,1258,image-keyboard-response,59
true,6,2,2,2,true,d,false,true,0.0-2.0-0.39-0.359-3.359,1,0,1,68,false,stim,false,2,621.4300002902746,0,0,2,55005,WMM2,858769,false,false,1261,image-keyboard-response,60
true,7,2,1,0,false,q,false,false,0.0-2.0-0.40-0.360-3.360,1,0,0,68,true,stim,true,2,512.7050001174212,0,0,2,55005,WMM2,860809,false,false,1264,image-keyboard-response,1
true,7,1,1,1,true,z,false,true,0.0-2.0-0.40-0.361-3.361,1,0,0,90,false,stim,false,2,101.22000006958842,0,0,1,55005,WMM2,862416,false,false,1267,image-keyboard-response,2
true,7,1,1,0,false,q,true,true,0.0-2.0-0.40-0.362-3.362,1,0,0,90,false,stim,false,2,93.93499977886677,0,0,2,55005,WMM2,864041,false,true,1270,image-keyboard-response,3
true,7,1,1,0,false,q,true,false,0.0-2.0-0.40-0.363-3.363,1,0,0,90,false,stim,false,2,333.79000006243587,0,0,2,55005,WMM2,865896,false,false,1273,image-keyboard-response,4
true,7,0,1,0,true,q,false,true,0.0-2.0-0.40-0.364-3.364,1,0,0,81,false,stim,false,0,233.7599997408688,0,1,0,55005,WMM2,867648,false,false,1276,image-keyboard-response,5
true,7,0,1,1,false,z,true,false,0.0-2.0-0.40-0.365-3.365,1,0,0,81,false,stim,false,2,334.42999981343746,0,0,1,55005,WMM2,869512,false,false,1279,image-keyboard-response,6
true,7,0,1,0,true,q,false,true,0.0-2.0-0.40-0.366-3.366,1,0,0,81,false,stim,false,0,699.9799995683134,0,1,0,55005,WMM2,871745,false,false,1282,image-keyboard-response,7
true,7,0,1,0,true,q,false,true,0.0-2.0-0.40-0.367-3.367,1,0,0,81,false,stim,false,0,295.85499968379736,0,1,0,55005,WMM2,873560,false,false,1285,image-keyboard-response,8
true,7,0,1,1,false,z,true,false,0.0-2.0-0.40-0.368-3.368,1,0,0,81,false,stim,false,2,358.76999981701374,0,0,1,55005,WMM2,875440,false,false,1288,image-keyboard-response,9
true,7,1,1,0,false,q,true,false,0.0-2.0-0.41-0.369-3.369,1,0,0,90,false,stim,false,0,453.6199998110533,0,1,0,55005,WMM2,877416,false,false,1291,image-keyboard-response,10
true,7,2,1,1,false,z,false,false,0.0-2.0-0.41-0.370-3.370,1,0,0,68,false,stim,true,2,437.6599998213351,0,0,1,55005,WMM2,879384,false,false,1294,image-keyboard-response,11
true,7,1,1,1,true,z,false,true,0.0-2.0-0.41-0.371-3.371,1,0,0,90,false,stim,false,2,440.23000029847026,0,0,1,55005,WMM2,881336,false,false,1297,image-keyboard-response,12
true,7,1,1,0,false,q,true,false,0.0-2.0-0.41-0.372-3.372,1,0,0,90,false,stim,false,0,664.1150000505149,0,1,0,55005,WMM2,883513,false,false,1300,image-keyboard-response,13
true,7,0,1,0,true,q,false,true,0.0-2.0-0.41-0.373-3.373,1,0,0,81,false,stim,false,2,369.6550000458956,0,0,2,55005,WMM2,885416,false,false,1303,image-keyboard-response,14
true,7,0,1,0,true,q,false,true,0.0-2.0-0.41-0.374-3.374,1,0,0,81,false,stim,false,2,496.16000009700656,0,0,2,55005,WMM2,887440,false,false,1306,image-keyboard-response,15
true,7,0,1,0,true,q,false,true,0.0-2.0-0.41-0.375-3.375,1,0,0,81,false,stim,false,2,493.40999964624643,0,0,2,55005,WMM2,889456,false,false,1309,image-keyboard-response,16
true,7,0,1,0,true,q,false,true,0.0-2.0-0.41-0.376-3.376,1,0,0,81,false,stim,false,0,444.3500000052154,0,1,0,55005,WMM2,891424,false,false,1312,image-keyboard-response,17
true,7,0,1,1,false,z,true,false,0.0-2.0-0.41-0.377-3.377,1,0,0,81,false,stim,false,2,603.279999922961,0,0,1,55005,WMM2,893536,false,false,1315,image-keyboard-response,18
true,7,1,1,1,true,z,false,true,0.0-2.0-0.42-0.378-3.378,1,0,0,90,false,stim,false,2,281.5549997612834,0,0,1,55005,WMM2,895344,false,false,1318,image-keyboard-response,19
true,7,0,1,0,true,q,false,true,0.0-2.0-0.42-0.379-3.379,1,0,0,81,false,stim,false,0,934.7500000149012,0,1,0,55005,WMM2,897800,false,false,1321,image-keyboard-response,20
true,7,0,1,0,true,q,false,true,0.0-2.0-0.42-0.380-3.380,1,0,0,81,false,stim,false,0,479.8499997705221,0,1,0,55005,WMM2,899808,false,false,1324,image-keyboard-response,21
true,7,0,1,0,true,q,false,true,0.0-2.0-0.42-0.381-3.381,1,0,0,81,false,stim,false,2,740.4749998822808,0,0,2,55005,WMM2,902073,false,false,1327,image-keyboard-response,22
true,7,1,1,0,false,q,true,false,0.0-2.0-0.42-0.382-3.382,1,0,0,90,false,stim,false,0,404.2699998244643,0,1,0,55005,WMM2,904002,false,false,1330,image-keyboard-response,23
true,7,0,1,0,true,q,false,true,0.0-2.0-0.42-0.383-3.383,1,0,0,81,false,stim,false,2,380.96500001847744,0,0,2,55005,WMM2,905897,false,false,1333,image-keyboard-response,24
true,7,0,1,1,false,z,true,true,0.0-2.0-0.42-0.384-3.384,1,0,0,81,false,stim,false,2,732.7499999664724,0,0,1,55005,WMM2,908161,false,true,1336,image-keyboard-response,25
true,7,0,1,1,false,z,true,false,0.0-2.0-0.42-0.385-3.385,1,0,0,81,false,stim,false,2,456.38000033795834,0,0,1,55005,WMM2,910137,false,false,1339,image-keyboard-response,26
true,7,1,1,0,false,q,true,false,0.0-2.0-0.42-0.386-3.386,1,0,0,90,false,stim,false,2,633.3699999377131,0,0,2,55005,WMM2,912297,false,false,1342,image-keyboard-response,27
true,7,0,1,0,true,q,false,true,0.0-2.0-0.43-0.387-3.387,1,0,0,81,false,stim,false,2,306.67000031098723,0,0,2,55005,WMM2,914122,false,false,1345,image-keyboard-response,28
true,7,0,1,0,true,q,false,true,0.0-2.0-0.43-0.388-3.388,1,0,0,81,false,stim,false,0,433.5850002244115,0,1,0,55005,WMM2,916081,false,false,1348,image-keyboard-response,29
true,7,0,1,1,false,z,true,false,0.0-2.0-0.43-0.389-3.389,1,0,0,81,false,stim,false,2,500.43000001460314,0,0,1,55005,WMM2,918105,false,false,1351,image-keyboard-response,30
true,7,2,1,1,false,z,false,false,0.0-2.0-0.43-0.390-3.390,1,0,0,68,false,stim,true,2,488.11000026762486,0,0,1,55005,WMM2,920121,false,false,1354,image-keyboard-response,31
true,7,1,1,0,false,q,true,false,0.0-2.0-0.43-0.391-3.391,1,0,0,90,false,stim,false,2,354.04499992728233,0,0,2,55005,WMM2,922001,false,false,1357,image-keyboard-response,32
true,7,0,1,0,true,q,false,true,0.0-2.0-0.43-0.392-3.392,1,0,0,81,false,stim,false,0,205.3050003014505,0,1,0,55005,WMM2,923737,false,false,1360,image-keyboard-response,33
true,7,0,1,1,false,z,true,false,0.0-2.0-0.43-0.393-3.393,1,0,0,81,false,stim,false,2,743.2500002905726,0,0,1,55005,WMM2,925993,false,false,1363,image-keyboard-response,34
true,7,1,1,0,false,q,true,false,0.0-2.0-0.43-0.394-3.394,1,0,0,90,false,stim,false,2,750.8999998681247,0,0,2,55005,WMM2,928281,false,false,1366,image-keyboard-response,35
true,7,0,1,0,true,q,false,true,0.0-2.0-0.43-0.395-3.395,1,0,0,81,false,stim,false,0,301.9050001166761,0,1,0,55005,WMM2,930113,false,false,1369,image-keyboard-response,36
true,7,0,1,0,true,q,false,false,0.0-2.0-0.44-0.396-3.396,1,0,0,81,false,stim,false,2,592.6300003193319,0,0,2,55005,WMM2,932225,false,true,1372,image-keyboard-response,37
true,7,1,1,0,false,q,true,false,0.0-2.0-0.44-0.397-3.397,1,0,0,90,false,stim,false,0,564.4799997098744,0,1,0,55005,WMM2,934313,false,false,1375,image-keyboard-response,38
true,7,2,1,0,false,q,false,false,0.0-2.0-0.44-0.398-3.398,1,0,0,68,false,stim,true,2,266.84499997645617,0,0,2,55005,WMM2,936113,false,false,1378,image-keyboard-response,39
true,7,0,1,1,false,z,true,false,0.0-2.0-0.44-0.399-3.399,1,0,0,81,false,stim,false,2,169.93999993428588,0,0,1,55005,WMM2,937817,false,false,1381,image-keyboard-response,40
true,7,1,1,0,false,q,true,false,0.0-2.0-0.44-0.400-3.400,1,0,0,90,false,stim,false,0,349.71500001847744,0,1,0,55005,WMM2,939697,false,false,1384,image-keyboard-response,41
true,7,0,1,1,false,z,true,false,0.0-2.0-0.44-0.401-3.401,1,0,0,81,false,stim,false,2,344.4199999794364,0,0,1,55005,WMM2,941561,false,false,1387,image-keyboard-response,42
true,7,2,1,0,false,q,false,false,0.0-2.0-0.44-0.402-3.402,1,0,0,68,false,stim,true,2,127.70000007003546,0,0,2,55005,WMM2,943225,false,false,1390,image-keyboard-response,43
true,7,1,1,0,false,q,true,false,0.0-2.0-0.44-0.403-3.403,1,0,0,90,false,stim,false,0,284.58999982103705,0,1,0,55005,WMM2,945033,false,false,1393,image-keyboard-response,44
true,7,0,1,1,false,z,true,false,0.0-2.0-0.44-0.404-3.404,1,0,0,81,false,stim,false,2,558.7800000794232,0,0,1,55005,WMM2,947121,false,false,1396,image-keyboard-response,45
true,7,1,1,1,true,z,false,true,0.0-2.0-0.45-0.405-3.405,1,0,0,90,false,stim,false,2,553.7749999202788,0,0,1,55005,WMM2,949200,false,false,1399,image-keyboard-response,46
true,7,1,1,0,false,q,true,false,0.0-2.0-0.45-0.406-3.406,1,0,0,90,false,stim,false,0,596.0050001740456,0,1,0,55005,WMM2,951328,false,false,1402,image-keyboard-response,47
true,7,0,1,0,true,q,false,true,0.0-2.0-0.45-0.407-3.407,1,0,0,81,false,stim,false,0,706.909999717027,0,1,0,55005,WMM2,953568,false,false,1405,image-keyboard-response,48
true,7,0,1,0,true,q,false,true,0.0-2.0-0.45-0.408-3.408,1,0,0,81,false,stim,false,0,792.4100002273917,0,1,0,55005,WMM2,955888,false,false,1408,image-keyboard-response,49
true,7,0,1,1,false,z,true,false,0.0-2.0-0.45-0.409-3.409,1,0,0,81,false,stim,false,2,771.5499997138977,0,0,1,55005,WMM2,958185,false,false,1411,image-keyboard-response,50
true,7,2,1,0,false,q,false,false,0.0-2.0-0.45-0.410-3.410,1,0,0,68,false,stim,true,2,534.7549999132752,0,1,2,55005,WMM2,960248,false,false,1414,image-keyboard-response,51
true,7,1,1,1,true,z,false,true,0.0-2.0-0.45-0.411-3.411,1,0,0,90,false,stim,false,2,436.7800001055002,0,0,1,55005,WMM2,962210,false,false,1417,image-keyboard-response,52
true,7,1,1,0,false,q,true,true,0.0-2.0-0.45-0.412-3.412,1,0,0,90,false,stim,false,2,1215.3349998407066,0,1,2,55005,WMM2,964954,false,true,1420,image-keyboard-response,53
true,7,1,1,0,false,q,true,false,0.0-2.0-0.45-0.413-3.413,1,0,0,90,false,stim,false,2,629.2650001123548,0,1,2,55005,WMM2,967090,false,false,1423,image-keyboard-response,54
true,7,2,1,0,false,q,true,false,0.0-2.0-0.46-0.414-3.414,1,0,0,68,false,stim,false,0,245.54000003263354,0,1,0,55005,WMM2,968866,false,false,1426,image-keyboard-response,55
true,7,1,1,0,false,q,true,false,0.0-2.0-0.46-0.415-3.415,1,0,0,90,false,stim,false,0,698.5049997456372,0,1,0,55005,WMM2,971074,false,false,1429,image-keyboard-response,56
true,7,0,1,0,true,q,false,true,0.0-2.0-0.46-0.416-3.416,1,0,0,81,false,stim,false,2,471.9949997961521,0,1,2,55005,WMM2,973066,false,false,1432,image-keyboard-response,57
true,7,0,1,1,false,z,true,false,0.0-2.0-0.46-0.417-3.417,1,0,0,81,false,stim,false,2,986.585000064224,0,0,1,55005,WMM2,975578,false,false,1435,image-keyboard-response,58
true,7,2,1,0,false,q,false,false,0.0-2.0-0.46-0.418-3.418,1,0,0,68,false,stim,true,2,555.8349997736514,0,1,2,55005,WMM2,977650,false,false,1438,image-keyboard-response,59
true,7,0,1,0,true,q,false,false,0.0-2.0-0.46-0.419-3.419,1,0,0,81,false,stim,false,0,820.6799998879433,0,1,0,55005,WMM2,979994,false,true,1441,image-keyboard-response,60
true,8,1,3,2,false,d,false,false,0.0-2.0-0.46-0.420-3.420,1,0,1,90,true,stim,true,1,743.6150000430644,0,0,1,55005,WMM2,982266,false,false,1444,image-keyboard-response,1
true,8,0,3,2,false,d,true,false,0.0-2.0-0.46-0.421-3.421,1,0,1,81,false,stim,false,1,436.29000009968877,0,0,1,55005,WMM2,984226,false,false,1447,image-keyboard-response,2
true,8,2,3,0,false,q,true,false,0.0-2.0-0.46-0.422-3.422,1,0,1,68,false,stim,false,0,355.2600000984967,0,1,2,55005,WMM2,986098,false,false,1450,image-keyboard-response,3
true,8,1,3,0,false,q,true,false,0.0-2.0-0.47-0.423-3.423,1,0,1,90,false,stim,false,0,848.9999999292195,0,1,2,55005,WMM2,988457,false,false,1453,image-keyboard-response,4
true,8,0,3,2,false,d,true,false,0.0-2.0-0.47-0.424-3.424,1,0,1,81,false,stim,false,1,339.8950002156198,0,0,1,55005,WMM2,990330,false,false,1456,image-keyboard-response,5
true,8,2,3,2,true,d,false,true,0.0-2.0-0.47-0.425-3.425,1,0,1,68,false,stim,false,1,729.2900001630187,0,0,1,55005,WMM2,992585,false,false,1459,image-keyboard-response,6
true,8,2,3,0,false,q,true,false,0.0-2.0-0.47-0.426-3.426,1,0,1,68,false,stim,false,0,567.2749998047948,0,1,0,55005,WMM2,994673,false,false,1462,image-keyboard-response,7
true,8,0,3,0,true,q,false,true,0.0-2.0-0.47-0.427-3.427,1,0,1,81,false,stim,false,0,599.8949999921024,0,1,2,55005,WMM2,996793,false,false,1465,image-keyboard-response,8
true,8,0,3,0,true,q,false,true,0.0-2.0-0.47-0.428-3.428,1,0,1,81,false,stim,false,0,837.7300002612174,0,1,0,55005,WMM2,999161,false,false,1468,image-keyboard-response,9
true,8,0,3,0,true,q,false,true,0.0-2.0-0.47-0.429-3.429,1,0,1,81,false,stim,false,0,376.844999846071,0,1,2,55005,WMM2,1001058,false,false,1471,image-keyboard-response,10
true,8,0,3,0,true,q,false,false,0.0-2.0-0.47-0.430-3.430,1,0,1,81,false,stim,false,0,442.87999998778105,0,1,0,55005,WMM2,1003017,false,true,1474,image-keyboard-response,11
true,8,1,3,2,false,d,false,false,0.0-2.0-0.47-0.431-3.431,1,0,1,90,false,stim,true,1,821.6450000181794,0,0,1,55005,WMM2,1005361,false,false,1477,image-keyboard-response,12
true,8,0,3,2,false,d,true,false,0.0-2.0-0.48-0.432-3.432,1,0,1,81,false,stim,false,1,488.9799999073148,0,0,1,55005,WMM2,1007377,false,false,1480,image-keyboard-response,13
true,8,2,3,0,false,q,true,false,0.0-2.0-0.48-0.433-3.433,1,0,1,68,false,stim,false,0,457.8500003553927,0,1,0,55005,WMM2,1009361,false,false,1483,image-keyboard-response,14
true,8,1,3,2,false,d,false,false,0.0-2.0-0.48-0.434-3.434,1,0,1,90,false,stim,true,1,870.7500002346933,0,0,1,55005,WMM2,1011746,false,false,1486,image-keyboard-response,15
true,8,0,3,0,true,q,false,true,0.0-2.0-0.48-0.435-3.435,1,0,1,81,false,stim,false,0,561.5699999034405,0,1,0,55005,WMM2,1013833,false,false,1489,image-keyboard-response,16
true,8,0,3,0,true,q,false,true,0.0-2.0-0.48-0.436-3.436,1,0,1,81,false,stim,false,0,468.62500021234155,0,1,2,55005,WMM2,1015825,false,false,1492,image-keyboard-response,17
true,8,0,3,0,true,q,false,true,0.0-2.0-0.48-0.437-3.437,1,0,1,81,false,stim,false,0,500.82499999552965,0,1,2,55005,WMM2,1017857,false,false,1495,image-keyboard-response,18
true,8,0,3,0,true,q,false,false,0.0-2.0-0.48-0.438-3.438,1,0,1,81,false,stim,false,0,411.894999910146,0,1,0,55005,WMM2,1019801,false,true,1498,image-keyboard-response,19
true,8,2,3,2,true,d,false,true,0.0-2.0-0.48-0.439-3.439,1,0,1,68,false,stim,false,1,381.3649998046458,0,0,1,55005,WMM2,1021713,false,false,1501,image-keyboard-response,20
true,8,2,3,0,false,q,true,false,0.0-2.0-0.48-0.440-3.440,1,0,1,68,false,stim,false,0,976.4549997635186,0,1,2,55005,WMM2,1024216,false,false,1504,image-keyboard-response,21
true,8,2,3,2,true,d,false,true,0.0-2.0-0.49-0.441-3.441,1,0,1,68,false,stim,false,1,206.20500016957521,0,0,1,55005,WMM2,1025959,false,false,1507,image-keyboard-response,22
true,8,2,3,0,false,q,true,false,0.0-2.0-0.49-0.442-3.442,1,0,1,68,false,stim,false,0,422.69999999552965,0,1,2,55005,WMM2,1027895,false,false,1510,image-keyboard-response,23
true,8,0,3,0,true,q,false,false,0.0-2.0-0.49-0.443-3.443,1,0,1,81,false,stim,false,0,129.33499971404672,0,1,2,55005,WMM2,1029535,false,true,1513,image-keyboard-response,24
true,8,0,3,2,false,d,true,false,0.0-2.0-0.49-0.444-3.444,1,0,1,81,false,stim,false,1,83.11500027775764,0,0,1,55005,WMM2,1031151,false,false,1516,image-keyboard-response,25
true,8,1,3,2,false,d,false,true,0.0-2.0-0.49-0.445-3.445,1,0,1,90,false,stim,true,1,24.279999546706676,0,0,1,55005,WMM2,1032687,false,true,1519,image-keyboard-response,26
true,8,0,3,0,true,q,false,true,0.0-2.0-0.49-0.446-3.446,1,0,1,81,false,stim,false,0,185.50499994307756,0,1,0,55005,WMM2,1034391,false,false,1522,image-keyboard-response,27
true,8,0,3,0,true,q,false,true,0.0-2.0-0.49-0.447-3.447,1,0,1,81,false,stim,false,0,399.10999964922667,0,1,2,55005,WMM2,1036319,false,false,1525,image-keyboard-response,28
true,8,0,3,0,true,q,false,true,0.0-2.0-0.49-0.448-3.448,1,0,1,81,false,stim,false,0,183.45499970018864,0,1,0,55005,WMM2,1038023,false,false,1528,image-keyboard-response,29
true,8,0,3,0,true,q,false,true,0.0-2.0-0.49-0.449-3.449,1,0,1,81,false,stim,false,0,243.91999980434775,0,1,0,55005,WMM2,1039783,false,false,1531,image-keyboard-response,30
true,8,1,3,2,false,d,false,false,0.0-2.0-0.50-0.450-3.450,1,0,1,90,false,stim,true,1,288.5500001721084,0,0,1,55005,WMM2,1041607,false,false,1534,image-keyboard-response,31
true,8,0,3,0,true,q,false,true,0.0-2.0-0.50-0.451-3.451,1,0,1,81,false,stim,false,0,301.014999859035,0,1,2,55005,WMM2,1043423,false,false,1537,image-keyboard-response,32
true,8,0,3,2,false,d,true,false,0.0-2.0-0.50-0.452-3.452,1,0,1,81,false,stim,false,1,203.07500008493662,0,0,1,55005,WMM2,1045143,false,false,1540,image-keyboard-response,33
true,8,2,3,0,false,q,true,false,0.0-2.0-0.50-0.453-3.453,1,0,1,68,false,stim,false,0,185.1800000295043,0,1,0,55005,WMM2,1046855,false,false,1543,image-keyboard-response,34
true,8,1,3,0,false,q,true,false,0.0-2.0-0.50-0.454-3.454,1,0,1,90,false,stim,false,0,260.1700001396239,0,1,2,55005,WMM2,1048631,false,false,1546,image-keyboard-response,35
true,8,0,3,0,true,q,false,true,0.0-2.0-0.50-0.455-3.455,1,0,1,81,false,stim,false,0,219.1400001756847,0,1,2,55005,WMM2,1050374,false,false,1549,image-keyboard-response,36
true,8,0,3,0,true,q,false,true,0.0-2.0-0.50-0.456-3.456,1,0,1,81,false,stim,false,0,413.91999972984195,0,1,0,55005,WMM2,1052302,false,false,1552,image-keyboard-response,37
true,8,0,3,0,true,q,false,false,0.0-2.0-0.50-0.457-3.457,1,0,1,81,false,stim,false,0,322.9299997910857,0,1,0,55005,WMM2,1054158,false,true,1555,image-keyboard-response,38
true,8,1,3,2,false,d,false,false,0.0-2.0-0.50-0.458-3.458,1,0,1,90,false,stim,true,1,456.9900003261864,0,0,1,55005,WMM2,1056143,false,false,1558,image-keyboard-response,39
true,8,2,3,0,false,q,true,false,0.0-2.0-0.51-0.459-3.459,1,0,1,68,false,stim,false,0,375.51999976858497,0,1,2,55005,WMM2,1058046,false,false,1561,image-keyboard-response,40
true,8,0,3,0,true,q,false,true,0.0-2.0-0.51-0.460-3.460,1,0,1,81,false,stim,false,0,36.84499999508262,0,1,2,55005,WMM2,1059606,false,false,1564,image-keyboard-response,41
true,8,0,3,0,true,q,false,true,0.0-2.0-0.51-0.461-3.461,1,0,1,81,false,stim,false,0,253.85500025004148,0,1,0,55005,WMM2,1061390,false,false,1567,image-keyboard-response,42
true,8,0,3,0,true,q,false,true,0.0-2.0-0.51-0.462-3.462,1,0,1,81,false,stim,false,0,255.64000010490417,0,1,2,55005,WMM2,1063174,false,false,1570,image-keyboard-response,43
true,8,0,3,2,false,d,true,false,0.0-2.0-0.51-0.463-3.463,1,0,1,81,false,stim,false,1,76.34000014513731,0,0,1,55005,WMM2,1064766,false,false,1573,image-keyboard-response,44
true,8,1,3,2,false,d,false,true,0.0-2.0-0.51-0.464-3.464,1,0,1,90,false,stim,true,1,183.19999985396862,0,0,1,55005,WMM2,1066471,false,true,1576,image-keyboard-response,45
true,8,1,3,0,false,q,true,false,0.0-2.0-0.51-0.465-3.465,1,0,1,90,false,stim,false,0,406.42999997362494,0,1,0,55005,WMM2,1068406,false,false,1579,image-keyboard-response,46
true,8,2,3,0,false,q,true,false,0.0-2.0-0.51-0.466-3.466,1,0,1,68,false,stim,false,0,374.1049999371171,0,1,0,55005,WMM2,1070310,false,false,1582,image-keyboard-response,47
true,8,0,3,2,false,d,true,false,0.0-2.0-0.51-0.467-3.467,1,0,1,81,false,stim,false,1,202.2350002080202,0,0,1,55005,WMM2,1072038,false,false,1585,image-keyboard-response,48
true,8,1,3,2,false,d,false,false,0.0-2.0-0.52-0.468-3.468,1,0,1,90,false,stim,true,1,350.5450002849102,0,0,1,55005,WMM2,1073918,false,false,1588,image-keyboard-response,49
true,8,0,3,0,true,q,false,true,0.0-2.0-0.52-0.469-3.469,1,0,1,81,false,stim,false,0,526.4550000429153,0,1,2,55005,WMM2,1075966,false,false,1591,image-keyboard-response,50
true,8,0,3,0,true,q,false,true,0.0-2.0-0.52-0.470-3.470,1,0,1,81,false,stim,false,0,200.6350001320243,0,0,2,55005,WMM2,1077702,false,false,1594,image-keyboard-response,51
true,8,0,3,2,false,d,true,false,0.0-2.0-0.52-0.471-3.471,1,0,1,81,false,stim,false,1,372.620000038296,0,1,1,55005,WMM2,1079606,false,false,1597,image-keyboard-response,52
true,8,1,3,2,false,d,false,false,0.0-2.0-0.52-0.472-3.472,1,0,1,90,false,stim,true,1,398.7799999304116,0,1,1,55005,WMM2,1081534,false,false,1600,image-keyboard-response,53
true,8,2,3,0,false,q,true,false,0.0-2.0-0.52-0.473-3.473,1,0,1,68,false,stim,false,0,241.41000024974346,0,0,0,55005,WMM2,1083309,false,false,1603,image-keyboard-response,54
true,8,0,3,0,true,q,false,true,0.0-2.0-0.52-0.474-3.474,1,0,1,81,false,stim,false,0,408.5400002077222,0,0,0,55005,WMM2,1085229,false,false,1606,image-keyboard-response,55
true,8,0,3,0,true,q,false,true,0.0-2.0-0.52-0.475-3.475,1,0,1,81,false,stim,false,0,285.2549999952316,0,0,2,55005,WMM2,1087037,false,false,1609,image-keyboard-response,56
true,8,0,3,0,true,q,false,true,0.0-2.0-0.52-0.476-3.476,1,0,1,81,false,stim,false,0,422.9699997231364,0,0,0,55005,WMM2,1088990,false,false,1612,image-keyboard-response,57
true,8,0,3,0,true,q,false,true,0.0-2.0-0.53-0.477-3.477,1,0,1,81,false,stim,false,0,239.25000010058284,0,0,2,55005,WMM2,1090757,false,false,1615,image-keyboard-response,58
true,8,0,3,2,false,d,true,false,0.0-2.0-0.53-0.478-3.478,1,0,1,81,false,stim,false,1,351.44499968737364,0,1,1,55005,WMM2,1092621,false,false,1618,image-keyboard-response,59
true,8,2,3,0,false,q,true,false,0.0-2.0-0.53-0.479-3.479,1,0,1,68,false,stim,false,0,405.7800001464784,0,0,0,55005,WMM2,1094557,false,false,1621,image-keyboard-response,60
true,9,1,1,1,true,z,false,true,0.0-2.0-0.53-0.480-3.480,0,1,0,90,true,stim,false,0,489.4600003026426,0,0,2,55005,WMM2,1096573,false,false,1624,image-keyboard-response,1
true,9,1,1,1,true,z,false,true,0.0-2.0-0.53-0.481-3.481,0,1,0,90,false,stim,false,0,560.3800001554191,0,0,0,55005,WMM2,1098661,false,false,1627,image-keyboard-response,2
true,9,1,1,1,true,z,false,true,0.0-2.0-0.53-0.482-3.482,0,1,0,90,false,stim,false,0,425.309999845922,0,0,2,55005,WMM2,1100598,false,false,1630,image-keyboard-response,3
true,9,1,1,1,true,z,false,true,0.0-2.0-0.53-0.483-3.483,0,1,0,90,false,stim,false,0,487.2300000861287,0,0,0,55005,WMM2,1102621,false,false,1633,image-keyboard-response,4
true,9,1,1,2,false,d,true,false,0.0-2.0-0.53-0.484-3.484,0,1,0,90,false,stim,false,2,408.49500009790063,0,1,1,55005,WMM2,1104557,false,false,1636,image-keyboard-response,5
true,9,0,1,2,false,d,true,false,0.0-2.0-0.53-0.485-3.485,0,1,0,81,false,stim,false,2,344.2299999296665,0,1,1,55005,WMM2,1106429,false,false,1639,image-keyboard-response,6
true,9,2,1,2,true,d,false,true,0.0-2.0-0.54-0.486-3.486,0,1,0,68,false,stim,false,2,261.66500011458993,0,1,1,55005,WMM2,1108213,false,false,1642,image-keyboard-response,7
true,9,2,1,1,false,z,true,false,0.0-2.0-0.54-0.487-3.487,0,1,0,68,false,stim,false,0,517.2449997626245,0,0,2,55005,WMM2,1110237,false,false,1645,image-keyboard-response,8
true,9,1,1,2,false,d,true,false,0.0-2.0-0.54-0.488-3.488,0,1,0,90,false,stim,false,2,519.5450000464916,0,1,1,55005,WMM2,1112285,false,false,1648,image-keyboard-response,9
true,9,0,1,1,false,z,false,false,0.0-2.0-0.54-0.489-3.489,0,1,0,81,false,stim,true,0,325.86999982595444,0,0,0,55005,WMM2,1114141,false,false,1651,image-keyboard-response,10
true,9,2,1,1,false,z,true,false,0.0-2.0-0.54-0.490-3.490,0,1,0,68,false,stim,false,0,391.31500013172626,0,0,0,55005,WMM2,1116045,false,false,1654,image-keyboard-response,11
true,9,1,1,2,false,d,true,false,0.0-2.0-0.54-0.491-3.491,0,1,0,90,false,stim,false,2,284.8749998956919,0,1,1,55005,WMM2,1117853,false,false,1657,image-keyboard-response,12
true,9,0,1,1,false,z,false,false,0.0-2.0-0.54-0.492-3.492,0,1,0,81,false,stim,true,0,420.77500000596046,0,0,2,55005,WMM2,1119805,false,false,1660,image-keyboard-response,13
true,9,0,1,1,false,z,false,false,0.0-2.0-0.54-0.493-3.493,0,1,0,81,false,stim,true,0,292.3449999652803,0,0,0,55005,WMM2,1121613,false,false,1663,image-keyboard-response,14
true,9,1,1,1,true,z,false,true,0.0-2.0-0.54-0.494-3.494,0,1,0,90,false,stim,false,0,501.1949995532632,0,0,2,55005,WMM2,1123621,false,false,1666,image-keyboard-response,15
true,9,1,1,1,true,z,false,true,0.0-2.0-0.55-0.495-3.495,0,1,0,90,false,stim,false,0,469.13000009953976,0,0,2,55005,WMM2,1125620,false,false,1669,image-keyboard-response,16
true,9,1,1,1,true,z,false,true,0.0-2.0-0.55-0.496-3.496,0,1,0,90,false,stim,false,0,851.2349999509752,0,0,2,55005,WMM2,1127988,false,false,1672,image-keyboard-response,17
true,9,1,1,1,true,z,false,true,0.0-2.0-0.55-0.497-3.497,0,1,0,90,false,stim,false,0,456.9800002500415,0,0,2,55005,WMM2,1129972,false,false,1675,image-keyboard-response,18
true,9,1,1,1,true,z,false,true,0.0-2.0-0.55-0.498-3.498,0,1,0,90,false,stim,false,0,328.11000011861324,0,0,0,55005,WMM2,1131828,false,false,1678,image-keyboard-response,19
true,9,1,1,1,true,z,false,true,0.0-2.0-0.55-0.499-3.499,0,1,0,90,false,stim,false,0,392.7149996161461,0,0,0,55005,WMM2,1133741,false,false,1681,image-keyboard-response,20
true,9,1,1,2,false,d,true,false,0.0-2.0-0.55-0.500-3.500,0,1,0,90,false,stim,false,2,438.68999974802136,0,1,1,55005,WMM2,1135708,false,false,1684,image-keyboard-response,21
true,9,0,1,1,false,z,false,false,0.0-2.0-0.55-0.501-3.501,0,1,0,81,false,stim,true,0,464.87499959766865,0,0,0,55005,WMM2,1137684,false,false,1687,image-keyboard-response,22
true,9,2,1,2,true,d,false,true,0.0-2.0-0.55-0.502-3.502,0,1,0,68,false,stim,false,2,365.9999999217689,0,1,1,55005,WMM2,1139580,false,false,1690,image-keyboard-response,23
true,9,0,1,2,false,d,true,false,0.0-2.0-0.55-0.503-3.503,0,1,0,81,false,stim,false,2,808.800000231713,0,1,1,55005,WMM2,1141924,false,false,1693,image-keyboard-response,24
true,9,1,1,2,false,d,true,false,0.0-2.0-0.56-0.504-3.504,0,1,0,90,false,stim,false,2,201.93500025197864,0,1,1,55005,WMM2,1143652,false,false,1696,image-keyboard-response,25
true,9,2,1,1,false,z,true,false,0.0-2.0-0.56-0.505-3.505,0,1,0,68,false,stim,false,0,157.8450002707541,0,0,0,55005,WMM2,1145340,false,false,1699,image-keyboard-response,26
true,9,0,1,1,false,z,false,false,0.0-2.0-0.56-0.506-3.506,0,1,0,81,false,stim,true,0,116.3900000974536,0,0,2,55005,WMM2,1146987,false,false,1702,image-keyboard-response,27
true,9,1,1,1,true,z,false,true,0.0-2.0-0.56-0.507-3.507,0,1,0,90,false,stim,false,0,335.91000037267804,0,0,2,55005,WMM2,1148851,false,false,1705,image-keyboard-response,28
true,9,1,1,1,true,z,false,false,0.0-2.0-0.56-0.508-3.508,0,1,0,90,false,stim,false,0,398.94000021740794,0,0,2,55005,WMM2,1150779,false,true,1708,image-keyboard-response,29
true,9,0,1,1,false,z,false,false,0.0-2.0-0.56-0.509-3.509,0,1,0,81,false,stim,true,0,304.57499995827675,0,0,0,55005,WMM2,1152619,false,false,1711,image-keyboard-response,30
true,9,2,1,2,true,d,false,true,0.0-2.0-0.56-0.510-3.510,0,1,0,68,false,stim,false,2,213.81500037387013,0,1,1,55005,WMM2,1154363,false,false,1714,image-keyboard-response,31
true,9,2,1,1,false,z,true,false,0.0-2.0-0.56-0.511-3.511,0,1,0,68,false,stim,false,0,1209.1799997724593,0,0,0,55005,WMM2,1157108,false,false,1717,image-keyboard-response,32
true,9,1,1,2,false,d,true,false,0.0-2.0-0.56-0.512-3.512,0,1,0,90,false,stim,false,2,419.51500019058585,0,1,1,55005,WMM2,1159043,false,false,1720,image-keyboard-response,33
true,9,0,1,1,false,z,false,false,0.0-2.0-0.57-0.513-3.513,0,1,0,81,false,stim,true,0,1195.880000013858,0,0,2,55005,WMM2,1161763,false,false,1723,image-keyboard-response,34
true,9,1,1,1,true,z,false,true,0.0-2.0-0.57-0.514-3.514,0,1,0,90,false,stim,false,0,638.7999998405576,0,0,0,55005,WMM2,1163923,false,false,1726,image-keyboard-response,35
true,9,1,1,1,true,z,false,true,0.0-2.0-0.57-0.515-3.515,0,1,0,90,false,stim,false,0,737.7599999308586,0,0,0,55005,WMM2,1166187,false,false,1729,image-keyboard-response,36
true,9,1,1,1,true,z,false,true,0.0-2.0-0.57-0.516-3.516,0,1,0,90,false,stim,false,0,361.53499968349934,0,0,2,55005,WMM2,1168076,false,false,1732,image-keyboard-response,37
true,9,1,1,2,false,d,true,false,0.0-2.0-0.57-0.517-3.517,0,1,0,90,false,stim,false,2,255.35500003024936,0,1,1,55005,WMM2,1169859,false,false,1735,image-keyboard-response,38
true,9,0,1,2,false,d,true,false,0.0-2.0-0.57-0.518-3.518,0,1,0,81,false,stim,false,2,473.01500011235476,0,1,1,55005,WMM2,1171859,false,false,1738,image-keyboard-response,39
true,9,0,1,2,false,d,true,false,0.0-2.0-0.57-0.519-3.519,0,1,0,81,false,stim,false,2,706.3749996013939,0,1,1,55005,WMM2,1174091,false,false,1741,image-keyboard-response,40
true,9,2,1,1,false,z,true,false,0.0-2.0-0.57-0.520-3.520,0,1,0,68,false,stim,false,0,637.1349999681115,0,0,0,55005,WMM2,1176251,false,false,1744,image-keyboard-response,41
true,9,1,1,1,true,z,false,true,0.0-2.0-0.57-0.521-3.521,0,1,0,90,false,stim,false,0,435.81500044092536,0,0,2,55005,WMM2,1178203,false,false,1747,image-keyboard-response,42
true,9,1,1,2,false,d,true,false,0.0-2.0-0.58-0.522-3.522,0,1,0,90,false,stim,false,2,445.3900000080466,0,1,1,55005,WMM2,1180179,false,false,1750,image-keyboard-response,43
true,9,1,1,1,true,z,false,true,0.0-2.0-0.58-0.523-3.523,0,1,0,90,false,stim,false,0,480.58500001206994,0,0,2,55005,WMM2,1182195,false,false,1753,image-keyboard-response,44
true,9,1,1,1,true,z,false,true,0.0-2.0-0.58-0.524-3.524,0,1,0,90,false,stim,false,0,600.4349999129772,0,0,2,55005,WMM2,1184331,false,false,1756,image-keyboard-response,45
true,9,1,1,1,true,z,false,true,0.0-2.0-0.58-0.525-3.525,0,1,0,90,false,stim,false,0,652.5400001555681,0,0,0,55005,WMM2,1186515,false,false,1759,image-keyboard-response,46
true,9,1,1,1,true,z,false,true,0.0-2.0-0.58-0.526-3.526,0,1,0,90,false,stim,false,0,376.82999996468425,0,0,2,55005,WMM2,1188427,false,false,1762,image-keyboard-response,47
true,9,1,1,2,false,d,true,false,0.0-2.0-0.58-0.527-3.527,0,1,0,90,false,stim,false,2,318.10499960556626,0,1,1,55005,WMM2,1190283,false,false,1765,image-keyboard-response,48
true,9,1,1,1,true,z,false,true,0.0-2.0-0.58-0.528-3.528,0,1,0,90,false,stim,false,0,2996.7399998568,0,0,0,55005,WMM2,1194810,false,false,1768,image-keyboard-response,49
true,9,1,1,1,true,z,false,true,0.0-2.0-0.58-0.529-3.529,0,1,0,90,false,stim,false,0,212.33000000938773,0,0,0,55005,WMM2,1196546,false,false,1771,image-keyboard-response,50
true,9,1,1,2,false,d,true,false,0.0-2.0-0.58-0.530-3.530,0,1,0,90,false,stim,false,2,809.3949998728931,0,1,1,55005,WMM2,1198891,false,false,1774,image-keyboard-response,51
true,9,2,1,1,false,z,true,true,0.0-2.0-0.59-0.531-3.531,0,1,0,68,false,stim,false,0,507.7949999831617,0,1,2,55005,WMM2,1200922,false,true,1777,image-keyboard-response,52
true,9,2,1,2,true,d,false,false,0.0-2.0-0.59-0.532-3.532,0,1,0,68,false,stim,false,2,560.825000051409,0,1,1,55005,WMM2,1202994,false,true,1780,image-keyboard-response,53
true,9,0,1,1,false,z,false,false,0.0-2.0-0.59-0.533-3.533,0,1,0,81,false,stim,true,0,148.51999981328845,0,0,0,55005,WMM2,1204650,false,false,1783,image-keyboard-response,54
true,9,0,1,2,false,d,true,false,0.0-2.0-0.59-0.534-3.534,0,1,0,81,false,stim,false,2,280.86499962955713,0,1,1,55005,WMM2,1206458,false,false,1786,image-keyboard-response,55
true,9,1,1,1,true,z,false,false,0.0-2.0-0.59-0.535-3.535,0,1,0,90,false,stim,false,0,292.58000012487173,0,0,0,55005,WMM2,1208274,false,true,1789,image-keyboard-response,56
true,9,2,1,2,true,d,false,true,0.0-2.0-0.59-0.536-3.536,0,1,0,68,false,stim,false,2,559.7650003619492,0,1,1,55005,WMM2,1210345,false,false,1792,image-keyboard-response,57
true,9,2,1,1,false,z,true,false,0.0-2.0-0.59-0.537-3.537,0,1,0,68,false,stim,false,0,493.86500008404255,0,1,2,55005,WMM2,1212361,false,false,1795,image-keyboard-response,58
true,9,2,1,1,false,z,true,false,0.0-2.0-0.59-0.538-3.538,0,1,0,68,false,stim,false,0,806.8949999287724,0,1,2,55005,WMM2,1214689,false,false,1798,image-keyboard-response,59
true,9,0,1,1,false,z,false,false,0.0-2.0-0.59-0.539-3.539,0,1,0,81,false,stim,true,0,317.2450000420213,0,0,0,55005,WMM2,1216545,false,false,1801,image-keyboard-response,60
true,10,2,3,2,true,d,false,true,0.0-2.0-0.60-0.540-3.540,0,1,1,68,true,stim,false,1,540.8000000752509,0,0,0,55005,WMM2,1218617,false,false,1804,image-keyboard-response,1
true,10,2,3,2,true,d,false,true,0.0-2.0-0.60-0.541-3.541,0,1,1,68,false,stim,false,1,670.6499997526407,0,0,0,55005,WMM2,1220818,false,false,1807,image-keyboard-response,2
true,10,2,3,1,false,z,true,false,0.0-2.0-0.60-0.542-3.542,0,1,1,68,false,stim,false,1,269.3650000728667,0,1,2,55005,WMM2,1222617,false,false,1810,image-keyboard-response,3
true,10,0,3,1,false,z,true,false,0.0-2.0-0.60-0.543-3.543,0,1,1,81,false,stim,false,1,141.87499973922968,0,1,2,55005,WMM2,1224289,false,false,1813,image-keyboard-response,4
true,10,1,3,1,true,z,false,true,0.0-2.0-0.60-0.544-3.544,0,1,1,90,false,stim,false,1,730.9200000017881,0,1,2,55005,WMM2,1226545,false,false,1816,image-keyboard-response,5
true,10,1,3,2,false,d,true,true,0.0-2.0-0.60-0.545-3.545,0,1,1,90,false,stim,false,2,1026.8950001336634,0,1,1,55005,WMM2,1229105,false,true,1819,image-keyboard-response,6
true,10,1,3,2,false,d,false,false,0.0-2.0-0.60-0.546-3.546,0,1,1,90,false,stim,true,1,442.3299999907613,0,0,0,55005,WMM2,1231074,false,false,1822,image-keyboard-response,7
true,10,1,3,2,false,d,true,false,0.0-2.0-0.60-0.547-3.547,0,1,1,90,false,stim,false,2,912.795000243932,0,1,1,55005,WMM2,1233497,false,false,1825,image-keyboard-response,8
true,10,0,3,2,false,d,true,false,0.0-2.0-0.60-0.548-3.548,0,1,1,81,false,stim,false,2,1005.2849999628961,0,1,1,55005,WMM2,1236033,false,false,1828,image-keyboard-response,9
true,10,2,3,2,true,d,false,false,0.0-2.0-0.61-0.549-3.549,0,1,1,68,false,stim,false,2,439.8850002326071,0,1,1,55005,WMM2,1238001,false,true,1831,image-keyboard-response,10
true,10,1,3,2,false,d,true,false,0.0-2.0-0.61-0.550-3.550,0,1,1,90,false,stim,false,2,334.03499983251095,0,1,1,55005,WMM2,1239865,false,false,1834,image-keyboard-response,11
true,10,0,3,2,false,d,true,false,0.0-2.0-0.61-0.551-3.551,0,1,1,81,false,stim,false,2,419.5199999958277,0,1,1,55005,WMM2,1241817,false,false,1837,image-keyboard-response,12
true,10,2,3,1,false,z,true,false,0.0-2.0-0.61-0.552-3.552,0,1,1,68,false,stim,false,1,210.18500020727515,0,1,2,55005,WMM2,1243553,false,false,1840,image-keyboard-response,13
true,10,1,3,2,false,d,false,false,0.0-2.0-0.61-0.553-3.553,0,1,1,90,false,stim,true,1,1037.9099999554455,0,0,0,55005,WMM2,1246121,false,false,1843,image-keyboard-response,14
true,10,0,3,2,false,d,true,false,0.0-2.0-0.61-0.554-3.554,0,1,1,81,false,stim,false,1,992.9150003008544,0,0,0,55005,WMM2,1248641,false,false,1846,image-keyboard-response,15
false,10,-1,3,1,false,z,true,false,0.0-2.0-0.61-0.555-3.555,0,1,1,,false,stim,false,1,,0,1,2,55005,WMM2,1253157,false,false,1849,image-keyboard-response,16
true,10,1,3,1,true,z,false,true,0.0-2.0-0.61-0.556-3.556,0,1,1,90,false,stim,false,1,287.8450001589954,0,1,2,55005,WMM2,1254969,false,false,1852,image-keyboard-response,17
true,10,0,3,2,false,d,true,true,0.0-2.0-0.61-0.557-3.557,0,1,1,81,false,stim,false,1,176.44000006839633,0,0,0,55005,WMM2,1256673,false,true,1855,image-keyboard-response,18
true,10,0,3,2,false,d,true,false,0.0-2.0-0.62-0.558-3.558,0,1,1,81,false,stim,false,1,849.7200002893806,0,0,0,55005,WMM2,1259048,false,false,1858,image-keyboard-response,19
true,10,0,3,1,false,z,true,false,0.0-2.0-0.62-0.559-3.559,0,1,1,81,false,stim,false,1,1722.9349999688566,0,1,2,55005,WMM2,1262304,false,false,1861,image-keyboard-response,20
true,10,1,3,1,true,z,false,true,0.0-2.0-0.62-0.560-3.560,0,1,1,90,false,stim,false,1,698.6749996431172,0,1,2,55005,WMM2,1264516,false,false,1864,image-keyboard-response,21
true,10,0,3,2,false,d,true,false,0.0-2.0-0.62-0.561-3.561,0,1,1,81,false,stim,false,2,512.3800002038479,0,1,1,55005,WMM2,1266564,false,false,1867,image-keyboard-response,22
true,10,0,3,2,false,d,true,false,0.0-2.0-0.62-0.562-3.562,0,1,1,81,false,stim,false,1,361.3100000657141,0,0,0,55005,WMM2,1268460,false,false,1870,image-keyboard-response,23
true,10,0,3,2,false,d,true,false,0.0-2.0-0.62-0.563-3.563,0,1,1,81,false,stim,false,1,147.68500020727515,0,0,0,55005,WMM2,1270131,false,false,1873,image-keyboard-response,24
true,10,1,3,2,false,d,true,false,0.0-2.0-0.62-0.564-3.564,0,1,1,90,false,stim,false,2,225.80000013113022,0,1,1,55005,WMM2,1271891,false,false,1876,image-keyboard-response,25
true,10,1,3,2,false,d,true,false,0.0-2.0-0.62-0.565-3.565,0,1,1,90,false,stim,false,2,529.0600000880659,0,1,1,55005,WMM2,1273948,false,false,1879,image-keyboard-response,26
true,10,0,3,1,false,z,true,false,0.0-2.0-0.62-0.566-3.566,0,1,1,81,false,stim,false,1,754.1200001724064,0,1,2,55005,WMM2,1276235,false,false,1882,image-keyboard-response,27
true,10,0,3,1,false,z,true,false,0.0-2.0-0.63-0.567-3.567,0,1,1,81,false,stim,false,1,1812.7699997276068,0,1,2,55005,WMM2,1279579,false,false,1885,image-keyboard-response,28
true,10,0,3,2,false,d,true,false,0.0-2.0-0.63-0.568-3.568,0,1,1,81,false,stim,false,1,638.0400001071393,0,0,0,55005,WMM2,1281755,false,false,1888,image-keyboard-response,29
true,10,2,3,2,true,d,false,true,0.0-2.0-0.63-0.569-3.569,0,1,1,68,false,stim,false,2,712.1200002729893,0,1,1,55005,WMM2,1283995,false,false,1891,image-keyboard-response,30
true,10,2,3,2,true,d,false,true,0.0-2.0-0.63-0.570-3.570,0,1,1,68,false,stim,false,2,323.3899995684624,0,1,1,55005,WMM2,1285843,false,false,1894,image-keyboard-response,31
true,10,2,3,1,false,z,true,false,0.0-2.0-0.63-0.571-3.571,0,1,1,68,false,stim,false,1,261.6200000047684,0,1,2,55005,WMM2,1287628,false,false,1897,image-keyboard-response,32
true,10,0,3,2,false,d,true,true,0.0-2.0-0.63-0.572-3.572,0,1,1,81,false,stim,false,2,185.96999999135733,0,1,1,55005,WMM2,1289339,false,true,1900,image-keyboard-response,33
true,10,0,3,2,false,d,true,false,0.0-2.0-0.63-0.573-3.573,0,1,1,81,false,stim,false,1,390.30000008642673,0,0,0,55005,WMM2,1291275,false,false,1903,image-keyboard-response,34
true,10,1,3,2,false,d,false,false,0.0-2.0-0.63-0.574-3.574,0,1,1,90,false,stim,true,1,299.04500022530556,0,0,0,55005,WMM2,1293099,false,false,1906,image-keyboard-response,35
true,10,2,3,1,false,z,true,false,0.0-2.0-0.63-0.575-3.575,0,1,1,68,false,stim,false,1,610.4350001551211,0,1,2,55005,WMM2,1295243,false,false,1909,image-keyboard-response,36
true,10,0,3,1,false,z,true,false,0.0-2.0-0.64-0.576-3.576,0,1,1,81,false,stim,false,1,292.8250003606081,0,1,2,55005,WMM2,1297075,false,false,1912,image-keyboard-response,37
true,10,1,3,1,true,z,false,true,0.0-2.0-0.64-0.577-3.577,0,1,1,90,false,stim,false,1,155.2999997511506,0,1,2,55005,WMM2,1298755,false,false,1915,image-keyboard-response,38
true,10,1,3,2,false,d,false,false,0.0-2.0-0.64-0.578-3.578,0,1,1,90,false,stim,true,1,295.20499985665083,0,0,0,55005,WMM2,1300579,false,false,1918,image-keyboard-response,39
true,10,2,3,1,false,z,true,false,0.0-2.0-0.64-0.579-3.579,0,1,1,68,false,stim,false,1,352.2499999962747,0,1,2,55005,WMM2,1302467,false,false,1921,image-keyboard-response,40
true,10,0,3,2,false,d,true,false,0.0-2.0-0.64-0.580-3.580,0,1,1,81,false,stim,false,1,243.07500012218952,0,0,0,55005,WMM2,1304243,false,false,1924,image-keyboard-response,41
true,10,0,3,2,false,d,true,false,0.0-2.0-0.64-0.581-3.581,0,1,1,81,false,stim,false,2,427.17500030994415,0,1,1,55005,WMM2,1306195,false,false,1927,image-keyboard-response,42
true,10,2,3,2,true,d,false,true,0.0-2.0-0.64-0.582-3.582,0,1,1,68,false,stim,false,1,347.21000026911497,0,0,0,55005,WMM2,1308067,false,false,1930,image-keyboard-response,43
true,10,2,3,2,true,d,false,true,0.0-2.0-0.64-0.583-3.583,0,1,1,68,false,stim,false,2,373.05500032380223,0,1,1,55005,WMM2,1309971,false,false,1933,image-keyboard-response,44
true,10,0,3,2,false,d,true,false,0.0-2.0-0.64-0.584-3.584,0,1,1,81,false,stim,false,2,777.4200001731515,0,1,1,55005,WMM2,1312275,false,false,1936,image-keyboard-response,45
true,10,1,3,2,false,d,true,false,0.0-2.0-0.65-0.585-3.585,0,1,1,90,false,stim,false,2,474.63499987497926,0,1,1,55005,WMM2,1314275,false,false,1939,image-keyboard-response,46
