answered,blockNum,choice,condition,corResp,correct,correct_response,explo,fb,internal_node_id,isStable_1,isStable_2,isStable_3,key_press,newBlock,part,persev,persevResp,rt,sessNum,stableAS,stimulus,subject,task,time_elapsed,training,trap,trial_index,trial_type,trialsInBlock
true,1,0,0,1,false,z,true,false,0.0-2.0-0.0-0.0-3.0,0,0,0,81,true,stim,false,-1,1545.3499999998603,1,0,1,55005,WMM2,335025,false,false,184,image-keyboard-response,1
true,1,1,0,0,false,q,true,false,0.0-2.0-0.0-0.1-3.1,0,0,0,90,false,stim,false,-1,547.1450000000186,1,0,0,55005,WMM2,337080,false,false,187,image-keyboard-response,2
true,1,2,0,1,false,z,true,true,0.0-2.0-0.0-0.2-3.2,0,0,0,68,false,stim,false,-1,1868.9349999999395,1,0,1,55005,WMM2,340454,false,true,190,image-keyboard-response,3
true,1,2,0,0,false,q,true,false,0.0-2.0-0.0-0.3-3.3,0,0,0,68,false,stim,false,-1,995.8150000000023,1,0,0,55005,WMM2,342959,false,false,193,image-keyboard-response,4
true,1,1,0,1,true,z,false,true,0.0-2.0-0.0-0.4-3.4,0,0,0,90,false,stim,false,-1,651.7149999999674,1,0,1,55005,WMM2,345118,false,false,196,image-keyboard-response,5
true,1,1,0,0,false,q,true,false,0.0-2.0-0.0-0.5-3.5,0,0,0,90,false,stim,false,-1,1208.5400000000373,1,0,0,55005,WMM2,347838,false,false,199,image-keyboard-response,6
true,1,0,0,2,false,d,true,false,0.0-2.0-0.0-0.6-3.6,0,0,0,81,false,stim,false,-1,968.8649999998743,1,0,2,55005,WMM2,350317,false,false,202,image-keyboard-response,7
true,1,2,0,2,true,d,false,true,0.0-2.0-0.0-0.7-3.7,0,0,0,68,false,stim,false,-1,632.9000000000233,1,0,2,55005,WMM2,352459,false,false,205,image-keyboard-response,8
true,1,2,0,2,true,d,false,true,0.0-2.0-0.0-0.8-3.8,0,0,0,68,false,stim,false,-1,1602.2400000001653,1,0,2,55005,WMM2,355568,false,false,208,image-keyboard-response,9
true,1,2,0,1,false,z,true,false,0.0-2.0-0.1-0.9-3.9,0,0,0,68,false,stim,false,-1,1086.4750000000931,1,0,1,55005,WMM2,358160,false,false,211,image-keyboard-response,10
true,1,1,0,2,false,d,true,false,0.0-2.0-0.1-0.10-3.10,0,0,0,90,false,stim,false,-1,617.3449999999139,1,0,2,55005,WMM2,360284,false,false,214,image-keyboard-response,11
true,1,0,0,1,false,z,true,false,0.0-2.0-0.1-0.11-3.11,0,0,0,81,false,stim,false,-1,528.4150000000373,1,0,1,55005,WMM2,362319,false,false,217,image-keyboard-response,12
true,1,2,0,0,false,q,true,false,0.0-2.0-0.1-0.12-3.12,0,0,0,68,false,stim,false,-1,310.605000000156,1,0,0,55005,WMM2,364140,false,false,220,image-keyboard-response,13
true,1,1,0,0,false,q,true,true,0.0-2.0-0.1-0.13-3.13,0,0,0,90,false,stim,false,-1,428.39500000013504,1,0,0,55005,WMM2,366075,false,true,223,image-keyboard-response,14
true,1,1,0,0,false,q,true,false,0.0-2.0-0.1-0.14-3.14,0,0,0,90,false,stim,false,-1,909.0650000000605,1,0,0,55005,WMM2,368492,false,false,226,image-keyboard-response,15
true,1,2,0,2,true,d,false,true,0.0-2.0-0.1-0.15-3.15,0,0,0,68,false,stim,false,-1,927.1850000000559,1,0,2,55005,WMM2,370924,false,false,229,image-keyboard-response,16
true,1,2,0,2,true,d,false,false,0.0-2.0-0.1-0.16-3.16,0,0,0,68,false,stim,false,-1,861.6050000000396,1,0,2,55005,WMM2,373292,false,true,232,image-keyboard-response,17
true,1,1,0,1,true,z,false,true,0.0-2.0-0.1-0.17-3.17,0,0,0,90,false,stim,false,-1,775.4199999999255,1,0,1,55005,WMM2,375573,false,false,235,image-keyboard-response,18
true,1,0,0,0,true,q,false,true,0.0-2.0-0.2-0.18-3.18,0,0,0,81,false,stim,false,-1,942.2399999998743,1,0,0,55005,WMM2,378021,false,false,238,image-keyboard-response,19
true,1,2,0,0,false,q,true,false,0.0-2.0-0.2-0.19-3.19,0,0,0,68,false,stim,false,-1,1002.8249999997788,1,0,0,55005,WMM2,380534,false,false,241,image-keyboard-response,20
true,1,1,0,1,true,z,false,true,0.0-2.0-0.2-0.20-3.20,0,0,0,90,false,stim,false,-1,370.1049999999814,1,0,1,55005,WMM2,382412,false,false,244,image-keyboard-response,21
true,1,1,0,2,false,d,true,false,0.0-2.0-0.2-0.21-3.21,0,0,0,90,false,stim,false,-1,712.4149999999208,1,0,2,55005,WMM2,384630,false,false,247,image-keyboard-response,22
true,1,0,0,2,false,d,true,false,0.0-2.0-0.2-0.22-3.22,0,0,0,81,false,stim,false,-1,784.2049999998999,1,0,2,55005,WMM2,386921,false,false,250,image-keyboard-response,23
true,1,1,0,1,true,z,false,true,0.0-2.0-0.2-0.23-3.23,0,0,0,90,false,stim,false,-1,607.3200000001234,1,0,1,55005,WMM2,389037,false,false,253,image-keyboard-response,24
true,1,1,0,1,true,z,false,true,0.0-2.0-0.2-0.24-3.24,0,0,0,90,false,stim,false,-1,967.3549999999814,1,0,1,55005,WMM2,391513,false,false,256,image-keyboard-response,25
true,1,1,0,2,false,d,true,false,0.0-2.0-0.2-0.25-3.25,0,0,0,90,false,stim,false,-1,941.715000000142,1,0,2,55005,WMM2,393963,false,false,259,image-keyboard-response,26
true,1,1,0,0,false,q,true,false,0.0-2.0-0.2-0.26-3.26,0,0,0,90,false,stim,false,-1,2854.0350000000326,1,0,0,55005,WMM2,398323,false,false,262,image-keyboard-response,27
true,1,0,0,1,false,z,true,false,0.0-2.0-0.3-0.27-3.27,0,0,0,81,false,stim,false,-1,496.9650000000838,1,0,1,55005,WMM2,400327,false,false,265,image-keyboard-response,28
true,1,2,0,0,false,q,true,false,0.0-2.0-0.3-0.28-3.28,0,0,0,68,false,stim,false,-1,163.44000000000233,1,0,0,55005,WMM2,402000,false,false,268,image-keyboard-response,29
true,1,1,0,1,true,z,false,true,0.0-2.0-0.3-0.29-3.29,0,0,0,90,false,stim,false,-1,435.1099999999278,1,0,1,55005,WMM2,403942,false,false,271,image-keyboard-response,30
true,1,1,0,2,false,d,true,false,0.0-2.0-0.3-0.30-3.30,0,0,0,90,false,stim,false,-1,1020.9799999999814,1,0,2,55005,WMM2,406468,false,false,274,image-keyboard-response,31
true,1,1,0,1,true,z,false,true,0.0-2.0-0.3-0.31-3.31,0,0,0,90,false,stim,false,-1,794.4250000000466,1,0,1,55005,WMM2,408771,false,false,277,image-keyboard-response,32
true,1,1,0,0,false,q,true,false,0.0-2.0-0.3-0.32-3.32,0,0,0,90,false,stim,false,-1,2229.994999999879,1,0,0,55005,WMM2,412508,false,false,280,image-keyboard-response,33
true,1,0,0,2,false,d,true,false,0.0-2.0-0.3-0.33-3.33,0,0,0,81,false,stim,false,-1,866.2250000000349,1,0,2,55005,WMM2,414880,false,false,283,image-keyboard-response,34
true,1,1,0,2,false,d,true,false,0.0-2.0-0.3-0.34-3.34,0,0,0,90,false,stim,false,-1,1066.8049999999348,1,0,2,55005,WMM2,417456,false,false,286,image-keyboard-response,35
true,1,2,0,0,false,q,true,false,0.0-2.0-0.3-0.35-3.35,0,0,0,68,false,stim,false,-1,584.5050000000047,1,0,0,55005,WMM2,419546,false,false,289,image-keyboard-response,36
true,1,0,0,1,false,z,true,false,0.0-2.0-0.4-0.36-3.36,0,0,0,81,false,stim,false,-1,941.2950000001001,1,0,1,55005,WMM2,421999,false,false,292,image-keyboard-response,37
true,1,1,0,1,true,z,false,true,0.0-2.0-0.4-0.37-3.37,0,0,0,90,false,stim,false,-1,572.089999999851,1,0,1,55005,WMM2,424079,false,false,295,image-keyboard-response,38
true,1,1,0,0,false,q,true,false,0.0-2.0-0.4-0.38-3.38,0,0,0,90,false,stim,false,-1,561.4149999999208,1,0,0,55005,WMM2,426152,false,false,298,image-keyboard-response,39
true,1,0,0,0,true,q,false,true,0.0-2.0-0.4-0.39-3.39,0,0,0,81,false,stim,false,-1,511.81500000006054,1,0,0,55005,WMM2,428175,false,false,301,image-keyboard-response,40
true,1,1,0,0,false,q,true,false,0.0-2.0-0.4-0.40-3.40,0,0,0,90,false,stim,false,-1,1723.9549999998999,1,0,0,55005,WMM2,431404,false,false,304,image-keyboard-response,41
true,1,0,0,2,false,d,true,false,0.0-2.0-0.4-0.41-3.41,0,0,0,81,false,stim,false,-1,1588.1699999999837,1,0,2,55005,WMM2,434500,false,false,307,image-keyboard-response,42
true,1,1,0,1,true,z,false,true,0.0-2.0-0.4-0.42-3.42,0,0,0,90,false,stim,false,-1,1339.545000000042,1,0,1,55005,WMM2,437346,false,false,310,image-keyboard-response,43
true,1,1,0,2,false,d,true,false,0.0-2.0-0.4-0.43-3.43,0,0,0,90,false,stim,false,-1,1252.1899999999441,1,0,2,55005,WMM2,440105,false,false,313,image-keyboard-response,44
true,1,0,0,2,false,d,true,false,0.0-2.0-0.4-0.44-3.44,0,0,0,81,false,stim,false,-1,819.0449999999255,1,0,2,55005,WMM2,442433,false,false,316,image-keyboard-response,45
true,1,1,0,0,false,q,true,false,0.0-2.0-0.5-0.45-3.45,0,0,0,90,false,stim,false,-1,571.6349999997765,1,0,0,55005,WMM2,444512,false,false,319,image-keyboard-response,46
true,1,2,0,0,false,q,true,true,0.0-2.0-0.5-0.46-3.46,0,0,0,68,false,stim,false,-1,1212.0999999999767,1,0,0,55005,WMM2,447230,false,true,322,image-keyboard-response,47
true,1,1,0,2,false,d,true,false,0.0-2.0-0.5-0.47-3.47,0,0,0,90,false,stim,false,-1,992.8050000001094,1,0,2,55005,WMM2,449729,false,false,325,image-keyboard-response,48
true,1,1,0,1,true,z,false,true,0.0-2.0-0.5-0.48-3.48,0,0,0,90,false,stim,false,-1,1892.5450000001583,1,0,1,55005,WMM2,453130,false,false,328,image-keyboard-response,49
false,1,-1,0,2,false,d,false,true,0.0-2.0-0.5-0.49-3.49,0,0,0,,false,stim,true,-1,,1,0,2,55005,WMM2,457640,false,true,331,image-keyboard-response,50
true,1,1,0,0,false,q,true,false,0.0-2.0-0.5-0.50-3.50,0,0,0,90,false,stim,false,-1,1035.0150000001886,1,1,0,55005,WMM2,460183,false,false,334,image-keyboard-response,51
false,1,-1,0,1,false,z,false,false,0.0-2.0-0.5-0.51-3.51,0,0,0,,false,stim,true,-1,,1,0,1,55005,WMM2,464693,false,false,337,image-keyboard-response,52
true,1,1,0,2,false,d,true,false,0.0-2.0-0.5-0.52-3.52,0,0,0,90,false,stim,false,-1,607.0950000000885,1,1,2,55005,WMM2,466807,false,false,340,image-keyboard-response,53
true,1,2,0,1,false,z,true,false,0.0-2.0-0.5-0.53-3.53,0,0,0,68,false,stim,false,-1,728.9000000000233,1,0,1,55005,WMM2,469043,false,false,343,image-keyboard-response,54
true,1,1,0,2,false,d,true,false,0.0-2.0-0.6-0.54-3.54,0,0,0,90,false,stim,false,-1,2004.6199999999371,1,1,2,55005,WMM2,472554,false,false,346,image-keyboard-response,55
false,1,-1,0,2,false,d,false,false,0.0-2.0-0.6-0.55-3.55,0,0,0,,false,stim,true,-1,,1,1,2,55005,WMM2,477062,false,false,349,image-keyboard-response,56
true,1,0,0,1,false,z,true,true,0.0-2.0-0.6-0.56-3.56,0,0,0,81,false,stim,false,-1,398.7050000000745,1,0,1,55005,WMM2,478968,false,true,352,image-keyboard-response,57
true,1,1,0,0,false,q,true,false,0.0-2.0-0.6-0.57-3.57,0,0,0,90,false,stim,false,-1,811.015000000014,1,1,0,55005,WMM2,481286,false,false,355,image-keyboard-response,58
true,1,1,0,1,true,z,false,true,0.0-2.0-0.6-0.58-3.58,0,0,0,90,false,stim,false,-1,681.6350000001257,1,0,1,55005,WMM2,483476,false,false,358,image-keyboard-response,59
true,1,1,0,0,false,q,true,false,0.0-2.0-0.6-0.59-3.59,0,0,0,90,false,stim,false,-1,958.9600000001956,1,1,0,55005,WMM2,485939,false,false,361,image-keyboard-response,60
true,2,1,4,1,true,z,false,true,0.0-2.0-0.6-0.60-3.60,1,0,1,90,true,stim,false,1,2894.0299999999115,1,0,1,55005,WMM2,490340,false,false,364,image-keyboard-response,1
true,2,1,4,2,false,d,true,false,0.0-2.0-0.6-0.61-3.61,1,0,1,90,false,stim,false,2,658.4900000000489,1,1,2,55005,WMM2,492504,false,false,367,image-keyboard-response,2
false,2,-1,4,0,false,q,true,false,0.0-2.0-0.6-0.62-3.62,1,0,1,,false,stim,false,0,,1,1,0,55005,WMM2,497014,false,false,370,image-keyboard-response,3
false,2,-1,4,1,false,z,true,false,0.0-2.0-0.7-0.63-3.63,1,0,1,,false,stim,false,1,,1,0,1,55005,WMM2,501525,false,false,373,image-keyboard-response,4
true,2,1,4,1,true,z,false,true,0.0-2.0-0.7-0.64-3.64,1,0,1,90,false,stim,false,1,362.8200000000652,1,0,1,55005,WMM2,503396,false,false,376,image-keyboard-response,5
true,2,1,4,2,false,d,true,true,0.0-2.0-0.7-0.65-3.65,1,0,1,90,false,stim,false,2,1153.1500000001397,1,1,2,55005,WMM2,506058,false,true,379,image-keyboard-response,6
true,2,1,4,2,false,d,true,false,0.0-2.0-0.7-0.66-3.66,1,0,1,90,false,stim,false,2,791.1750000001048,1,1,2,55005,WMM2,508359,false,false,382,image-keyboard-response,7
false,2,-1,4,0,false,q,true,false,0.0-2.0-0.7-0.67-3.67,1,0,1,,false,stim,false,0,,1,1,0,55005,WMM2,512865,false,false,385,image-keyboard-response,8
true,2,1,4,1,true,z,false,true,0.0-2.0-0.7-0.68-3.68,1,0,1,90,false,stim,false,1,1755.035000000149,1,0,1,55005,WMM2,516132,false,false,388,image-keyboard-response,9
true,2,1,4,0,false,q,true,false,0.0-2.0-0.7-0.69-3.69,1,0,1,90,false,stim,false,0,1219.3750000001164,1,1,0,55005,WMM2,518857,false,false,391,image-keyboard-response,10
true,2,1,4,2,false,d,true,false,0.0-2.0-0.7-0.70-3.70,1,0,1,90,false,stim,false,2,1723.0200000001932,1,1,2,55005,WMM2,522084,false,false,394,image-keyboard-response,11
true,2,1,4,0,false,q,true,false,0.0-2.0-0.7-0.71-3.71,1,0,1,90,false,stim,false,0,905.5100000001257,1,1,0,55005,WMM2,524500,false,false,397,image-keyboard-response,12
true,2,0,4,0,true,q,false,true,0.0-2.0-0.8-0.72-3.72,1,0,1,81,false,stim,false,0,466.02499999990687,1,1,0,55005,WMM2,526475,false,false,400,image-keyboard-response,13
true,2,0,4,0,true,q,false,true,0.0-2.0-0.8-0.73-3.73,1,0,1,81,false,stim,false,0,772.9750000000931,1,1,0,55005,WMM2,528757,false,false,403,image-keyboard-response,14
true,2,0,4,1,false,z,true,false,0.0-2.0-0.8-0.74-3.74,1,0,1,81,false,stim,false,1,1498.4350000001723,1,0,1,55005,WMM2,531763,false,false,406,image-keyboard-response,15
true,2,1,4,1,true,z,false,true,0.0-2.0-0.8-0.75-3.75,1,0,1,90,false,stim,false,1,675.0700000000652,1,0,1,55005,WMM2,533944,false,false,409,image-keyboard-response,16
true,2,1,4,2,false,d,true,false,0.0-2.0-0.8-0.76-3.76,1,0,1,90,false,stim,false,2,959.4099999999162,1,1,2,55005,WMM2,536409,false,false,412,image-keyboard-response,17
true,2,0,4,2,false,d,true,false,0.0-2.0-0.8-0.77-3.77,1,0,1,81,false,stim,false,2,461.78000000002794,1,1,2,55005,WMM2,538379,false,false,415,image-keyboard-response,18
true,2,1,4,2,false,d,true,false,0.0-2.0-0.8-0.78-3.78,1,0,1,90,false,stim,false,2,2681.4999999998836,1,1,2,55005,WMM2,542569,false,false,418,image-keyboard-response,19
true,2,2,4,0,false,q,true,false,0.0-2.0-0.8-0.79-3.79,1,0,1,68,false,stim,false,0,382.7249999998603,1,1,0,55005,WMM2,544461,false,false,421,image-keyboard-response,20
true,2,1,4,1,true,z,false,true,0.0-2.0-0.8-0.80-3.80,1,0,1,90,false,stim,false,1,2035.0849999999627,1,0,1,55005,WMM2,548004,false,false,424,image-keyboard-response,21
true,2,1,4,2,false,d,true,false,0.0-2.0-0.9-0.81-3.81,1,0,1,90,false,stim,false,2,551.1699999999255,1,1,2,55005,WMM2,550062,false,false,427,image-keyboard-response,22
true,2,1,4,0,false,q,true,false,0.0-2.0-0.9-0.82-3.82,1,0,1,90,false,stim,false,0,930.4799999999814,1,1,0,55005,WMM2,552501,false,false,430,image-keyboard-response,23
true,2,0,4,1,false,z,true,false,0.0-2.0-0.9-0.83-3.83,1,0,1,81,false,stim,false,1,659.7399999998743,1,0,1,55005,WMM2,554673,false,false,433,image-keyboard-response,24
true,2,1,4,1,true,z,false,true,0.0-2.0-0.9-0.84-3.84,1,0,1,90,false,stim,false,1,372.75,1,0,1,55005,WMM2,556584,false,false,436,image-keyboard-response,25
true,2,1,4,2,false,d,true,false,0.0-2.0-0.9-0.85-3.85,1,0,1,90,false,stim,false,2,551.0300000001444,1,1,2,55005,WMM2,558645,false,false,439,image-keyboard-response,26
true,2,0,4,0,true,q,false,false,0.0-2.0-0.9-0.86-3.86,1,0,1,81,false,stim,false,0,753.4300000000512,1,1,0,55005,WMM2,560904,false,true,442,image-keyboard-response,27
true,2,1,4,0,false,q,true,false,0.0-2.0-0.9-0.87-3.87,1,0,1,90,false,stim,false,0,565.1000000000931,1,1,0,55005,WMM2,562979,false,false,445,image-keyboard-response,28
true,2,0,4,1,false,z,true,false,0.0-2.0-0.9-0.88-3.88,1,0,1,81,false,stim,false,1,421.22500000009313,1,0,1,55005,WMM2,564909,false,false,448,image-keyboard-response,29
true,2,1,4,2,false,d,true,false,0.0-2.0-0.9-0.89-3.89,1,0,1,90,false,stim,false,2,498.2150000000838,1,1,2,55005,WMM2,566916,false,false,451,image-keyboard-response,30
true,2,2,4,1,false,z,true,false,0.0-2.0-0.10-0.90-3.90,1,0,1,68,false,stim,false,1,239.5199999999022,1,0,1,55005,WMM2,568669,false,false,454,image-keyboard-response,31
true,2,0,4,1,false,z,true,false,0.0-2.0-0.10-0.91-3.91,1,0,1,81,false,stim,false,1,298.53999999992084,1,0,1,55005,WMM2,570475,false,false,457,image-keyboard-response,32
true,2,1,4,0,false,q,true,false,0.0-2.0-0.10-0.92-3.92,1,0,1,90,false,stim,false,0,20.649999999906868,1,1,0,55005,WMM2,572004,false,false,460,image-keyboard-response,33
true,2,0,4,2,false,d,true,false,0.0-2.0-0.10-0.93-3.93,1,0,1,81,false,stim,false,2,331.675000000163,1,1,2,55005,WMM2,573844,false,false,463,image-keyboard-response,34
true,2,1,4,0,false,q,true,false,0.0-2.0-0.10-0.94-3.94,1,0,1,90,false,stim,false,0,520.175000000163,1,1,0,55005,WMM2,575872,false,false,466,image-keyboard-response,35
true,2,0,4,1,false,z,true,false,0.0-2.0-0.10-0.95-3.95,1,0,1,81,false,stim,false,1,900.7100000001956,1,0,1,55005,WMM2,578281,false,false,469,image-keyboard-response,36
true,2,2,4,2,true,d,false,true,0.0-2.0-0.10-0.96-3.96,1,0,1,68,false,stim,false,2,456.53999999992084,1,1,2,55005,WMM2,580248,false,false,472,image-keyboard-response,37
true,2,0,4,0,true,q,false,true,0.0-2.0-0.10-0.97-3.97,1,0,1,81,false,stim,false,0,731.1150000001071,1,1,0,55005,WMM2,582485,false,false,475,image-keyboard-response,38
true,2,1,4,2,false,d,true,false,0.0-2.0-0.10-0.98-3.98,1,0,1,90,false,stim,false,2,1173.7350000001024,1,1,2,55005,WMM2,585166,false,false,478,image-keyboard-response,39
true,2,2,4,2,true,d,false,true,0.0-2.0-0.11-0.99-3.99,1,0,1,68,false,stim,false,2,751.8149999998277,1,1,2,55005,WMM2,587426,false,false,481,image-keyboard-response,40
true,2,0,4,1,false,z,true,false,0.0-2.0-0.11-0.100-3.100,1,0,1,81,false,stim,false,1,926.3449999998556,1,0,1,55005,WMM2,589862,false,false,484,image-keyboard-response,41
true,2,1,4,1,true,z,false,true,0.0-2.0-0.11-0.101-3.101,1,0,1,90,false,stim,false,1,407.65500000002794,1,0,1,55005,WMM2,591776,false,false,487,image-keyboard-response,42
true,2,1,4,0,false,q,true,false,0.0-2.0-0.11-0.102-3.102,1,0,1,90,false,stim,false,0,769.3850000000093,1,1,0,55005,WMM2,594054,false,false,490,image-keyboard-response,43
true,2,0,4,0,true,q,false,true,0.0-2.0-0.11-0.103-3.103,1,0,1,81,false,stim,false,0,1460.5000000001164,1,1,0,55005,WMM2,597025,false,false,493,image-keyboard-response,44
true,2,0,4,2,false,d,true,false,0.0-2.0-0.11-0.104-3.104,1,0,1,81,false,stim,false,2,831.2200000000885,1,1,2,55005,WMM2,599367,false,false,496,image-keyboard-response,45
true,2,1,4,1,true,z,false,true,0.0-2.0-0.11-0.105-3.105,1,0,1,90,false,stim,false,1,426.76499999989755,1,0,1,55005,WMM2,601304,false,false,499,image-keyboard-response,46
true,2,0,4,0,true,q,false,true,0.0-2.0-0.11-0.106-3.106,1,0,1,81,false,stim,false,0,1296.324999999837,1,1,0,55005,WMM2,604109,false,false,502,image-keyboard-response,47
true,2,1,4,2,false,d,true,false,0.0-2.0-0.11-0.107-3.107,1,0,1,90,false,stim,false,2,973.2650000001304,1,1,2,55005,WMM2,606593,false,false,505,image-keyboard-response,48
true,2,0,4,1,false,z,true,false,0.0-2.0-0.12-0.108-3.108,1,0,1,81,false,stim,false,1,1214.6799999999348,1,0,1,55005,WMM2,609319,false,false,508,image-keyboard-response,49
true,2,0,4,2,false,d,true,false,0.0-2.0-0.12-0.109-3.109,1,0,1,81,false,stim,false,2,1159.380000000121,1,1,2,55005,WMM2,611991,false,false,511,image-keyboard-response,50
true,2,2,4,0,false,q,true,false,0.0-2.0-0.12-0.110-3.110,1,0,1,68,false,stim,false,0,969.515000000014,1,0,0,55005,WMM2,614468,false,false,514,image-keyboard-response,51
true,2,1,4,1,true,z,false,true,0.0-2.0-0.12-0.111-3.111,1,0,1,90,false,stim,false,1,333.32499999995343,1,1,1,55005,WMM2,616308,false,false,517,image-keyboard-response,52
true,2,1,4,0,false,q,true,false,0.0-2.0-0.12-0.112-3.112,1,0,1,90,false,stim,false,0,720.8549999999814,1,0,0,55005,WMM2,618536,false,false,520,image-keyboard-response,53
true,2,1,4,1,true,z,false,true,0.0-2.0-0.12-0.113-3.113,1,0,1,90,false,stim,false,1,1259.7750000000233,1,1,1,55005,WMM2,621304,false,false,523,image-keyboard-response,54
true,2,1,4,2,false,d,true,false,0.0-2.0-0.12-0.114-3.114,1,0,1,90,false,stim,false,2,769.5099999998929,1,1,2,55005,WMM2,623581,false,false,526,image-keyboard-response,55
true,2,0,4,0,true,q,false,true,0.0-2.0-0.12-0.115-3.115,1,0,1,81,false,stim,false,0,720.6350000000093,1,0,0,55005,WMM2,625811,false,false,529,image-keyboard-response,56
true,2,0,4,2,false,d,true,false,0.0-2.0-0.12-0.116-3.116,1,0,1,81,false,stim,false,2,2949.32500000007,1,1,2,55005,WMM2,630267,false,false,532,image-keyboard-response,57
true,2,1,4,0,false,q,true,false,0.0-2.0-0.13-0.117-3.117,1,0,1,90,false,stim,false,0,939.5149999997811,1,0,0,55005,WMM2,632714,false,false,535,image-keyboard-response,58
true,2,1,4,0,false,q,true,false,0.0-2.0-0.13-0.118-3.118,1,0,1,90,false,stim,false,0,636.1950000000652,1,0,0,55005,WMM2,634870,false,false,538,image-keyboard-response,59
true,2,2,4,1,false,z,true,false,0.0-2.0-0.13-0.119-3.119,1,0,1,68,false,stim,false,1,964.4300000000512,1,1,1,55005,WMM2,637342,false,false,541,image-keyboard-response,60
true,3,1,3,2,false,d,true,false,0.0-2.0-0.13-0.120-3.120,0,1,1,90,true,stim,false,2,623.824999999837,1,1,2,55005,WMM2,639474,false,false,544,image-keyboard-response,1
true,3,0,3,1,false,z,true,false,0.0-2.0-0.13-0.121-3.121,0,1,1,81,false,stim,false,1,580.8150000000605,1,1,1,55005,WMM2,641561,false,false,547,image-keyboard-response,2
true,3,1,3,2,false,d,true,false,0.0-2.0-0.13-0.122-3.122,0,1,1,90,false,stim,false,2,759.925000000163,1,1,2,55005,WMM2,643827,false,false,550,image-keyboard-response,3
true,3,1,3,1,true,z,false,true,0.0-2.0-0.13-0.123-3.123,0,1,1,90,false,stim,false,1,1982.1799999999348,1,1,1,55005,WMM2,647318,false,false,553,image-keyboard-response,4
true,3,1,3,1,true,z,false,true,0.0-2.0-0.13-0.124-3.124,0,1,1,90,false,stim,false,0,863.4300000000512,1,0,0,55005,WMM2,649690,false,false,556,image-keyboard-response,5
true,3,0,3,2,false,d,true,false,0.0-2.0-0.13-0.125-3.125,0,1,1,81,false,stim,false,2,878.234999999986,1,1,2,55005,WMM2,652075,false,false,559,image-keyboard-response,6
true,3,2,3,2,true,d,false,true,0.0-2.0-0.14-0.126-3.126,0,1,1,68,false,stim,false,2,1391.9399999999441,1,1,2,55005,WMM2,654974,false,false,562,image-keyboard-response,7
true,3,0,3,1,false,z,true,true,0.0-2.0-0.14-0.127-3.127,0,1,1,81,false,stim,false,1,922.4900000002235,1,1,1,55005,WMM2,657404,false,true,565,image-keyboard-response,8
true,3,0,3,1,false,z,true,false,0.0-2.0-0.14-0.128-3.128,0,1,1,81,false,stim,false,1,922.6550000000279,1,1,1,55005,WMM2,659836,false,false,568,image-keyboard-response,9
true,3,1,3,1,true,z,false,true,0.0-2.0-0.14-0.129-3.129,0,1,1,90,false,stim,false,0,962.3900000001304,1,0,0,55005,WMM2,662305,false,false,571,image-keyboard-response,10
true,3,1,3,2,false,d,true,true,0.0-2.0-0.14-0.130-3.130,0,1,1,90,false,stim,false,2,589.734999999986,1,1,2,55005,WMM2,664402,false,true,574,image-keyboard-response,11
true,3,2,3,1,false,z,true,false,0.0-2.0-0.14-0.131-3.131,0,1,1,68,false,stim,false,1,697.4399999999441,1,1,1,55005,WMM2,666609,false,false,577,image-keyboard-response,12
true,3,1,3,2,false,d,true,false,0.0-2.0-0.14-0.132-3.132,0,1,1,90,false,stim,false,2,425.1700000000419,1,1,2,55005,WMM2,668542,false,false,580,image-keyboard-response,13
true,3,0,3,1,false,z,false,false,0.0-2.0-0.14-0.133-3.133,0,1,1,81,false,stim,true,0,245.7750000001397,1,0,0,55005,WMM2,670294,false,false,583,image-keyboard-response,14
true,3,1,3,1,true,z,false,true,0.0-2.0-0.14-0.134-3.134,0,1,1,90,false,stim,false,0,372.5050000001211,1,0,0,55005,WMM2,672174,false,false,586,image-keyboard-response,15
true,3,1,3,2,false,d,true,true,0.0-2.0-0.15-0.135-3.135,0,1,1,90,false,stim,false,2,857.8950000000186,1,1,2,55005,WMM2,674540,false,true,589,image-keyboard-response,16
true,3,1,3,1,true,z,false,false,0.0-2.0-0.15-0.136-3.136,0,1,1,90,false,stim,false,1,513.2750000000233,1,1,1,55005,WMM2,676561,false,true,592,image-keyboard-response,17
true,3,2,3,1,false,z,true,false,0.0-2.0-0.15-0.137-3.137,0,1,1,68,false,stim,false,1,559.6300000000047,1,1,1,55005,WMM2,678628,false,false,595,image-keyboard-response,18
true,3,1,3,1,true,z,false,true,0.0-2.0-0.15-0.138-3.138,0,1,1,90,false,stim,false,0,615.5299999999115,1,0,0,55005,WMM2,680752,false,false,598,image-keyboard-response,19
true,3,1,3,1,true,z,false,true,0.0-2.0-0.15-0.139-3.139,0,1,1,90,false,stim,false,1,454.7650000001304,1,1,1,55005,WMM2,682721,false,false,601,image-keyboard-response,20
true,3,0,3,2,false,d,true,false,0.0-2.0-0.15-0.140-3.140,0,1,1,81,false,stim,false,2,816.4549999998417,1,1,2,55005,WMM2,685047,false,false,604,image-keyboard-response,21
true,3,1,3,1,true,z,false,true,0.0-2.0-0.15-0.141-3.141,0,1,1,90,false,stim,false,0,500.1500000000233,1,0,0,55005,WMM2,687059,false,false,607,image-keyboard-response,22
true,3,0,3,2,false,d,true,false,0.0-2.0-0.15-0.142-3.142,0,1,1,81,false,stim,false,2,408.08500000007916,1,1,2,55005,WMM2,688975,false,false,610,image-keyboard-response,23
true,3,1,3,1,true,z,false,false,0.0-2.0-0.15-0.143-3.143,0,1,1,90,false,stim,false,0,103.02000000001863,1,0,0,55005,WMM2,690588,false,true,613,image-keyboard-response,24
true,3,0,3,1,false,z,false,false,0.0-2.0-0.16-0.144-3.144,0,1,1,81,false,stim,true,0,198.8200000000652,1,0,0,55005,WMM2,692298,false,false,616,image-keyboard-response,25
true,3,2,3,2,true,d,false,true,0.0-2.0-0.16-0.145-3.145,0,1,1,68,false,stim,false,2,198.73499999986961,1,1,2,55005,WMM2,694003,false,false,619,image-keyboard-response,26
true,3,1,3,1,true,z,false,true,0.0-2.0-0.16-0.146-3.146,0,1,1,90,false,stim,false,0,518.6450000000186,1,0,0,55005,WMM2,696032,false,false,622,image-keyboard-response,27
true,3,2,3,1,false,z,true,false,0.0-2.0-0.16-0.147-3.147,0,1,1,68,false,stim,false,0,386.2550000001211,1,0,0,55005,WMM2,697926,false,false,625,image-keyboard-response,28
true,3,1,3,1,true,z,false,true,0.0-2.0-0.16-0.148-3.148,0,1,1,90,false,stim,false,1,327.3849999997765,1,1,1,55005,WMM2,699759,false,false,628,image-keyboard-response,29
true,3,1,3,1,true,z,false,true,0.0-2.0-0.16-0.149-3.149,0,1,1,90,false,stim,false,1,1001.6250000001164,1,1,1,55005,WMM2,702269,false,false,631,image-keyboard-response,30
true,3,1,3,2,false,d,true,false,0.0-2.0-0.16-0.150-3.150,0,1,1,90,false,stim,false,2,554.8850000001257,1,1,2,55005,WMM2,704334,false,false,634,image-keyboard-response,31
true,3,2,3,1,false,z,true,false,0.0-2.0-0.16-0.151-3.151,0,1,1,68,false,stim,false,1,749.6249999998836,1,1,1,55005,WMM2,706591,false,false,637,image-keyboard-response,32
true,3,1,3,2,false,d,true,false,0.0-2.0-0.16-0.152-3.152,0,1,1,90,false,stim,false,2,345.4550000000745,1,1,2,55005,WMM2,708445,false,false,640,image-keyboard-response,33
true,3,0,3,1,false,z,false,false,0.0-2.0-0.17-0.153-3.153,0,1,1,81,false,stim,true,0,166.84499999997206,1,0,0,55005,WMM2,710125,false,false,643,image-keyboard-response,34
true,3,1,3,2,false,d,true,false,0.0-2.0-0.17-0.154-3.154,0,1,1,90,false,stim,false,2,612.3100000000559,1,1,2,55005,WMM2,712246,false,false,646,image-keyboard-response,35
true,3,2,3,1,false,z,true,false,0.0-2.0-0.17-0.155-3.155,0,1,1,68,false,stim,false,1,441.1149999999907,1,1,1,55005,WMM2,714195,false,false,649,image-keyboard-response,36
true,3,1,3,2,false,d,true,false,0.0-2.0-0.17-0.156-3.156,0,1,1,90,false,stim,false,2,558.5550000000512,1,1,2,55005,WMM2,716261,false,false,652,image-keyboard-response,37
true,3,0,3,1,false,z,false,false,0.0-2.0-0.17-0.157-3.157,0,1,1,81,false,stim,true,0,438.1249999998836,1,0,0,55005,WMM2,718208,false,false,655,image-keyboard-response,38
true,3,1,3,2,false,d,true,false,0.0-2.0-0.17-0.158-3.158,0,1,1,90,false,stim,false,2,418.9450000001816,1,1,2,55005,WMM2,720134,false,false,658,image-keyboard-response,39
true,3,2,3,1,false,z,true,false,0.0-2.0-0.17-0.159-3.159,0,1,1,68,false,stim,false,1,505.58499999984633,1,1,1,55005,WMM2,722147,false,false,661,image-keyboard-response,40
true,3,1,3,1,true,z,false,true,0.0-2.0-0.17-0.160-3.160,0,1,1,90,false,stim,false,0,341.4099999999162,1,0,0,55005,WMM2,723994,false,false,664,image-keyboard-response,41
true,3,1,3,1,true,z,false,true,0.0-2.0-0.17-0.161-3.161,0,1,1,90,false,stim,false,1,512.859999999986,1,1,1,55005,WMM2,726025,false,false,667,image-keyboard-response,42
true,3,0,3,1,false,z,false,false,0.0-2.0-0.18-0.162-3.162,0,1,1,81,false,stim,true,0,798.4749999998603,1,0,0,55005,WMM2,728329,false,false,670,image-keyboard-response,43
true,3,1,3,1,true,z,false,true,0.0-2.0-0.18-0.163-3.163,0,1,1,90,false,stim,false,1,439.214999999851,1,1,1,55005,WMM2,730279,false,false,673,image-keyboard-response,44
true,3,1,3,2,false,d,true,false,0.0-2.0-0.18-0.164-3.164,0,1,1,90,false,stim,false,2,507.92500000004657,1,1,2,55005,WMM2,732295,false,false,676,image-keyboard-response,45
true,3,0,3,2,false,d,true,false,0.0-2.0-0.18-0.165-3.165,0,1,1,81,false,stim,false,2,278.8849999998929,1,1,2,55005,WMM2,734082,false,false,679,image-keyboard-response,46
true,3,1,3,1,true,z,false,true,0.0-2.0-0.18-0.166-3.166,0,1,1,90,false,stim,false,0,429.03999999992084,1,0,0,55005,WMM2,736018,false,false,682,image-keyboard-response,47
true,3,1,3,1,true,z,false,true,0.0-2.0-0.18-0.167-3.167,0,1,1,90,false,stim,false,0,801.0699999999488,1,0,0,55005,WMM2,738327,false,false,685,image-keyboard-response,48
true,3,1,3,2,false,d,true,false,0.0-2.0-0.18-0.168-3.168,0,1,1,90,false,stim,false,2,487.8650000001071,1,1,2,55005,WMM2,740321,false,false,688,image-keyboard-response,49
true,3,0,3,1,false,z,true,true,0.0-2.0-0.18-0.169-3.169,0,1,1,81,false,stim,false,1,195.90500000002794,1,1,1,55005,WMM2,742037,false,true,691,image-keyboard-response,50
true,3,1,3,1,true,z,false,true,0.0-2.0-0.18-0.170-3.170,0,1,1,90,false,stim,false,1,1095.704999999958,1,0,1,55005,WMM2,744648,false,false,694,image-keyboard-response,51
true,3,1,3,1,true,z,false,true,0.0-2.0-0.19-0.171-3.171,0,1,1,90,false,stim,false,1,815.9649999999674,1,0,1,55005,WMM2,746969,false,false,697,image-keyboard-response,52
true,3,1,3,1,true,z,false,true,0.0-2.0-0.19-0.172-3.172,0,1,1,90,false,stim,false,1,771.4449999998324,1,0,1,55005,WMM2,749248,false,false,700,image-keyboard-response,53
true,3,1,3,1,true,z,false,true,0.0-2.0-0.19-0.173-3.173,0,1,1,90,false,stim,false,0,1302.925000000163,1,1,0,55005,WMM2,752068,false,false,703,image-keyboard-response,54
true,3,1,3,2,false,d,true,false,0.0-2.0-0.19-0.174-3.174,0,1,1,90,false,stim,false,2,790.8249999999534,1,1,2,55005,WMM2,754365,false,false,706,image-keyboard-response,55
true,3,0,3,1,false,z,false,false,0.0-2.0-0.19-0.175-3.175,0,1,1,81,false,stim,true,0,532.0599999999395,1,1,0,55005,WMM2,756403,false,false,709,image-keyboard-response,56
true,3,1,3,2,false,d,true,false,0.0-2.0-0.19-0.176-3.176,0,1,1,90,false,stim,false,2,440.50500000000466,1,1,2,55005,WMM2,758350,false,false,712,image-keyboard-response,57
true,3,2,3,2,true,d,false,true,0.0-2.0-0.19-0.177-3.177,0,1,1,68,false,stim,false,2,711.0649999999441,1,1,2,55005,WMM2,760569,false,false,715,image-keyboard-response,58
true,3,2,3,1,false,z,true,false,0.0-2.0-0.19-0.178-3.178,0,1,1,68,false,stim,false,0,1489.579999999958,1,1,0,55005,WMM2,763564,false,false,718,image-keyboard-response,59
true,3,1,3,1,true,z,false,true,0.0-2.0-0.19-0.179-3.179,0,1,1,90,false,stim,false,1,1225.0750000000698,1,0,1,55005,WMM2,766295,false,false,721,image-keyboard-response,60
true,4,1,2,2,false,d,true,false,0.0-2.0-0.20-0.180-3.180,1,0,1,90,true,stim,false,2,989.7949999999255,1,1,2,55005,WMM2,768790,false,false,724,image-keyboard-response,1
true,4,0,2,0,true,q,false,true,0.0-2.0-0.20-0.181-3.181,1,0,1,81,false,stim,false,1,769.1899999999441,1,0,1,55005,WMM2,771066,false,false,727,image-keyboard-response,2
true,4,1,2,1,true,z,false,true,0.0-2.0-0.20-0.182-3.182,1,0,1,90,false,stim,false,1,469.449999999837,1,1,0,55005,WMM2,773041,false,false,730,image-keyboard-response,3
true,4,1,2,1,true,z,false,true,0.0-2.0-0.20-0.183-3.183,1,0,1,90,false,stim,false,1,924.6900000000605,1,1,0,55005,WMM2,775474,false,false,733,image-keyboard-response,4
true,4,1,2,1,true,z,false,true,0.0-2.0-0.20-0.184-3.184,1,0,1,90,false,stim,false,1,1977.4749999999767,1,1,0,55005,WMM2,778959,false,false,736,image-keyboard-response,5
true,4,1,2,2,false,d,true,false,0.0-2.0-0.20-0.185-3.185,1,0,1,90,false,stim,false,2,1064.9949999999953,1,1,2,55005,WMM2,781530,false,false,739,image-keyboard-response,6
true,4,1,2,0,false,q,false,false,0.0-2.0-0.20-0.186-3.186,1,0,1,90,false,stim,true,1,948.1599999999162,1,0,1,55005,WMM2,783983,false,false,742,image-keyboard-response,7
true,4,0,2,2,false,d,true,false,0.0-2.0-0.20-0.187-3.187,1,0,1,81,false,stim,false,2,1112.3049999999348,1,1,2,55005,WMM2,786601,false,false,745,image-keyboard-response,8
true,4,1,2,0,false,q,false,false,0.0-2.0-0.20-0.188-3.188,1,0,1,90,false,stim,true,1,1471.1449999999022,1,0,1,55005,WMM2,789596,false,false,748,image-keyboard-response,9
true,4,0,2,2,false,d,true,false,0.0-2.0-0.21-0.189-3.189,1,0,1,81,false,stim,false,2,2010.7949999999255,1,1,2,55005,WMM2,793116,false,false,751,image-keyboard-response,10
true,4,1,2,0,false,q,false,false,0.0-2.0-0.21-0.190-3.190,1,0,1,90,false,stim,true,1,967.0400000000373,1,0,1,55005,WMM2,795593,false,false,754,image-keyboard-response,11
true,4,2,2,2,true,d,false,true,0.0-2.0-0.21-0.191-3.191,1,0,1,68,false,stim,false,2,575.9749999999767,1,1,2,55005,WMM2,797679,false,false,757,image-keyboard-response,12
true,4,1,2,2,false,d,true,false,0.0-2.0-0.21-0.192-3.192,1,0,1,90,false,stim,false,2,1083.829999999958,1,1,2,55005,WMM2,800271,false,false,760,image-keyboard-response,13
false,4,-1,2,0,false,q,true,false,0.0-2.0-0.21-0.193-3.193,1,0,1,,false,stim,false,1,,1,0,1,55005,WMM2,804781,false,false,763,image-keyboard-response,14
true,4,1,2,1,true,z,false,true,0.0-2.0-0.21-0.194-3.194,1,0,1,90,false,stim,false,1,414.27499999990687,1,1,0,55005,WMM2,806707,false,false,766,image-keyboard-response,15
true,4,1,2,0,false,q,false,true,0.0-2.0-0.21-0.195-3.195,1,0,1,90,false,stim,true,1,963.065000000177,1,0,1,55005,WMM2,809176,false,true,769,image-keyboard-response,16
true,4,1,2,1,true,z,false,true,0.0-2.0-0.21-0.196-3.196,1,0,1,90,false,stim,false,1,1610.785000000149,1,1,0,55005,WMM2,812293,false,false,772,image-keyboard-response,17
true,4,1,2,1,true,z,false,true,0.0-2.0-0.21-0.197-3.197,1,0,1,90,false,stim,false,1,793.7950000000419,1,1,0,55005,WMM2,814608,false,false,775,image-keyboard-response,18
true,4,1,2,2,false,d,true,false,0.0-2.0-0.22-0.198-3.198,1,0,1,90,false,stim,false,2,567.7849999999162,1,1,2,55005,WMM2,816705,false,false,778,image-keyboard-response,19
true,4,0,2,0,true,q,false,false,0.0-2.0-0.22-0.199-3.199,1,0,1,81,false,stim,false,1,309.1300000001211,1,0,1,55005,WMM2,818532,false,true,781,image-keyboard-response,20
true,4,1,2,2,false,d,true,false,0.0-2.0-0.22-0.200-3.200,1,0,1,90,false,stim,false,2,893.7699999999022,1,1,2,55005,WMM2,820936,false,false,784,image-keyboard-response,21
true,4,2,2,1,false,z,true,false,0.0-2.0-0.22-0.201-3.201,1,0,1,68,false,stim,false,1,532.5699999998324,1,1,0,55005,WMM2,822975,false,false,787,image-keyboard-response,22
true,4,1,2,0,false,q,false,false,0.0-2.0-0.22-0.202-3.202,1,0,1,90,false,stim,true,1,482.3649999999907,1,0,1,55005,WMM2,824966,false,false,790,image-keyboard-response,23
true,4,1,2,0,false,q,false,false,0.0-2.0-0.22-0.203-3.203,1,0,1,90,false,stim,true,1,510.63000000000466,1,0,1,55005,WMM2,826985,false,false,793,image-keyboard-response,24
true,4,1,2,1,true,z,false,true,0.0-2.0-0.22-0.204-3.204,1,0,1,90,false,stim,false,1,1831.75,1,1,0,55005,WMM2,830329,false,false,796,image-keyboard-response,25
true,4,1,2,1,true,z,false,true,0.0-2.0-0.22-0.205-3.205,1,0,1,90,false,stim,false,1,2268.25,1,1,0,55005,WMM2,834113,false,false,799,image-keyboard-response,26
true,4,1,2,2,false,d,true,false,0.0-2.0-0.22-0.206-3.206,1,0,1,90,false,stim,false,2,712.9500000000698,1,1,2,55005,WMM2,836357,false,false,802,image-keyboard-response,27
true,4,1,2,0,false,q,false,false,0.0-2.0-0.23-0.207-3.207,1,0,1,90,false,stim,true,1,842.5500000000466,1,0,1,55005,WMM2,838708,false,false,805,image-keyboard-response,28
true,4,1,2,2,false,d,true,false,0.0-2.0-0.23-0.208-3.208,1,0,1,90,false,stim,false,2,876.9999999998836,1,1,2,55005,WMM2,841092,false,false,808,image-keyboard-response,29
true,4,0,2,1,false,z,true,false,0.0-2.0-0.23-0.209-3.209,1,0,1,81,false,stim,false,1,606.7699999999022,1,1,0,55005,WMM2,843209,false,false,811,image-keyboard-response,30
true,4,2,2,0,false,q,true,false,0.0-2.0-0.23-0.210-3.210,1,0,1,68,false,stim,false,1,336.5900000000838,1,0,1,55005,WMM2,845056,false,false,814,image-keyboard-response,31
true,4,1,2,2,false,d,true,false,0.0-2.0-0.23-0.211-3.211,1,0,1,90,false,stim,false,2,501.5099999998929,1,1,2,55005,WMM2,847067,false,false,817,image-keyboard-response,32
true,4,1,2,1,true,z,false,true,0.0-2.0-0.23-0.212-3.212,1,0,1,90,false,stim,false,1,1678.6450000000186,1,1,0,55005,WMM2,850257,false,false,820,image-keyboard-response,33
true,4,1,2,0,false,q,false,true,0.0-2.0-0.23-0.213-3.213,1,0,1,90,false,stim,true,1,928.9500000000698,1,0,1,55005,WMM2,852693,false,true,823,image-keyboard-response,34
true,4,1,2,1,true,z,false,true,0.0-2.0-0.23-0.214-3.214,1,0,1,90,false,stim,false,1,566.3449999999721,1,1,0,55005,WMM2,854769,false,false,826,image-keyboard-response,35
true,4,1,2,2,false,d,true,false,0.0-2.0-0.23-0.215-3.215,1,0,1,90,false,stim,false,2,699.1900000000605,1,1,2,55005,WMM2,856977,false,false,829,image-keyboard-response,36
true,4,0,2,0,true,q,false,true,0.0-2.0-0.24-0.216-3.216,1,0,1,81,false,stim,false,1,547.0950000000885,1,0,1,55005,WMM2,859031,false,false,832,image-keyboard-response,37
true,4,0,2,2,false,d,true,false,0.0-2.0-0.24-0.217-3.217,1,0,1,81,false,stim,false,2,641.1450000000186,1,1,2,55005,WMM2,861183,false,false,835,image-keyboard-response,38
true,4,2,2,1,false,z,true,false,0.0-2.0-0.24-0.218-3.218,1,0,1,68,false,stim,false,1,466.4649999999674,1,1,0,55005,WMM2,863158,false,false,838,image-keyboard-response,39
true,4,1,2,1,true,z,false,false,0.0-2.0-0.24-0.219-3.219,1,0,1,90,false,stim,false,1,552.4449999998324,1,1,0,55005,WMM2,865219,false,true,841,image-keyboard-response,40
true,4,0,2,0,true,q,false,true,0.0-2.0-0.24-0.220-3.220,1,0,1,81,false,stim,false,1,362.6899999999441,1,0,1,55005,WMM2,867092,false,false,844,image-keyboard-response,41
true,4,0,2,2,false,d,true,false,0.0-2.0-0.24-0.221-3.221,1,0,1,81,false,stim,false,2,691.2449999999953,1,1,2,55005,WMM2,869293,false,false,847,image-keyboard-response,42
true,4,1,2,1,true,z,false,true,0.0-2.0-0.24-0.222-3.222,1,0,1,90,false,stim,false,1,455.78000000002794,1,1,0,55005,WMM2,871258,false,false,850,image-keyboard-response,43
true,4,1,2,2,false,d,true,false,0.0-2.0-0.24-0.223-3.223,1,0,1,90,false,stim,false,2,858.0100000001257,1,1,2,55005,WMM2,873625,false,false,853,image-keyboard-response,44
true,4,2,2,0,false,q,true,false,0.0-2.0-0.24-0.224-3.224,1,0,1,68,false,stim,false,1,598.7800000000279,1,0,1,55005,WMM2,875734,false,false,856,image-keyboard-response,45
true,4,1,2,2,false,d,true,true,0.0-2.0-0.25-0.225-3.225,1,0,1,90,false,stim,false,2,583.5099999998929,1,1,2,55005,WMM2,877828,false,true,859,image-keyboard-response,46
true,4,1,2,0,false,q,false,false,0.0-2.0-0.25-0.226-3.226,1,0,1,90,false,stim,true,1,788.2149999999674,1,0,1,55005,WMM2,880128,false,false,862,image-keyboard-response,47
true,4,0,2,0,true,q,false,true,0.0-2.0-0.25-0.227-3.227,1,0,1,81,false,stim,false,1,946.8800000000047,1,0,1,55005,WMM2,882599,false,false,865,image-keyboard-response,48
true,4,0,2,1,false,z,true,true,0.0-2.0-0.25-0.228-3.228,1,0,1,81,false,stim,false,1,1078.5999999999767,1,1,0,55005,WMM2,885187,false,true,868,image-keyboard-response,49
true,4,0,2,2,false,d,true,true,0.0-2.0-0.25-0.229-3.229,1,0,1,81,false,stim,false,2,950.6550000000279,1,1,2,55005,WMM2,887647,false,true,871,image-keyboard-response,50
true,4,0,2,0,true,q,false,true,0.0-2.0-0.25-0.230-3.230,1,0,1,81,false,stim,false,1,1017.6149999999907,1,1,1,55005,WMM2,890174,false,false,874,image-keyboard-response,51
false,4,-1,2,1,false,z,true,false,0.0-2.0-0.25-0.231-3.231,1,0,1,,false,stim,false,1,,1,0,0,55005,WMM2,894682,false,false,877,image-keyboard-response,52
true,4,1,2,2,false,d,true,false,0.0-2.0-0.25-0.232-3.232,1,0,1,90,false,stim,false,2,122.59499999997206,1,1,2,55005,WMM2,896312,false,false,880,image-keyboard-response,53
true,4,1,2,1,true,z,false,true,0.0-2.0-0.25-0.233-3.233,1,0,1,90,false,stim,false,1,880.7450000001118,1,0,0,55005,WMM2,898701,false,false,883,image-keyboard-response,54
true,4,1,2,1,true,z,false,true,0.0-2.0-0.26-0.234-3.234,1,0,1,90,false,stim,false,1,985.1049999999814,1,0,0,55005,WMM2,901196,false,false,886,image-keyboard-response,55
true,4,1,2,2,false,d,true,false,0.0-2.0-0.26-0.235-3.235,1,0,1,90,false,stim,false,2,644.3800000000047,1,1,2,55005,WMM2,903346,false,false,889,image-keyboard-response,56
true,4,0,2,2,false,d,true,false,0.0-2.0-0.26-0.236-3.236,1,0,1,81,false,stim,false,2,198.57500000018626,1,1,2,55005,WMM2,905056,false,false,892,image-keyboard-response,57
true,4,2,2,0,false,q,true,false,0.0-2.0-0.26-0.237-3.237,1,0,1,68,false,stim,false,1,159.72000000008848,1,1,1,55005,WMM2,906725,false,false,895,image-keyboard-response,58
true,4,1,2,1,true,z,false,true,0.0-2.0-0.26-0.238-3.238,1,0,1,90,false,stim,false,1,8.984999999869615,1,0,0,55005,WMM2,908243,false,false,898,image-keyboard-response,59
true,4,1,2,1,true,z,false,true,0.0-2.0-0.26-0.239-3.239,1,0,1,90,false,stim,false,1,690.5050000001211,1,0,0,55005,WMM2,910459,false,false,901,image-keyboard-response,60
true,5,1,2,2,false,d,true,false,0.0-2.0-0.26-0.240-3.240,0,1,1,90,true,stim,false,2,898.8850000001257,1,1,2,55005,WMM2,912869,false,false,904,image-keyboard-response,1
true,5,1,2,0,false,q,true,false,0.0-2.0-0.26-0.241-3.241,0,1,1,90,false,stim,false,0,1307.219999999972,1,1,1,55005,WMM2,915687,false,false,907,image-keyboard-response,2
true,5,1,2,0,false,q,true,true,0.0-2.0-0.26-0.242-3.242,0,1,1,90,false,stim,false,0,1355.2900000000373,1,1,1,55005,WMM2,918551,false,true,910,image-keyboard-response,3
true,5,1,2,0,false,q,true,false,0.0-2.0-0.27-0.243-3.243,0,1,1,90,false,stim,false,0,421.7049999999581,1,1,1,55005,WMM2,920482,false,false,913,image-keyboard-response,4
true,5,0,2,2,false,d,true,false,0.0-2.0-0.27-0.244-3.244,0,1,1,81,false,stim,false,2,606.0499999999302,1,1,2,55005,WMM2,922598,false,false,916,image-keyboard-response,5
true,5,1,2,0,false,q,false,false,0.0-2.0-0.27-0.245-3.245,0,1,1,90,false,stim,true,1,1116.2399999998743,1,0,0,55005,WMM2,925224,false,false,919,image-keyboard-response,6
true,5,2,2,2,true,d,false,true,0.0-2.0-0.27-0.246-3.246,0,1,1,68,false,stim,false,2,433.61000000010245,1,1,2,55005,WMM2,927166,false,false,922,image-keyboard-response,7
true,5,2,2,0,false,q,true,false,0.0-2.0-0.27-0.247-3.247,0,1,1,68,false,stim,false,0,735.9149999999208,1,1,1,55005,WMM2,929413,false,false,925,image-keyboard-response,8
true,5,1,2,2,false,d,true,false,0.0-2.0-0.27-0.248-3.248,0,1,1,90,false,stim,false,2,371.7750000001397,1,1,2,55005,WMM2,931293,false,false,928,image-keyboard-response,9
true,5,0,2,0,true,q,false,false,0.0-2.0-0.27-0.249-3.249,0,1,1,81,false,stim,false,1,650.5549999999348,1,0,0,55005,WMM2,933452,false,true,931,image-keyboard-response,10
true,5,1,2,0,false,q,false,false,0.0-2.0-0.27-0.250-3.250,0,1,1,90,false,stim,true,1,512.8100000001723,1,0,0,55005,WMM2,935475,false,false,934,image-keyboard-response,11
true,5,2,2,0,false,q,true,false,0.0-2.0-0.27-0.251-3.251,0,1,1,68,false,stim,false,0,741.9299999999348,1,1,1,55005,WMM2,937726,false,false,937,image-keyboard-response,12
true,5,1,2,0,false,q,true,false,0.0-2.0-0.28-0.252-3.252,0,1,1,90,false,stim,false,0,409.089999999851,1,1,1,55005,WMM2,939642,false,false,940,image-keyboard-response,13
true,5,1,2,2,false,d,true,true,0.0-2.0-0.28-0.253-3.253,0,1,1,90,false,stim,false,2,336.22999999986496,1,1,2,55005,WMM2,941485,false,true,943,image-keyboard-response,14
true,5,1,2,0,false,q,true,false,0.0-2.0-0.28-0.254-3.254,0,1,1,90,false,stim,false,0,690.4849999998696,1,1,1,55005,WMM2,943686,false,false,946,image-keyboard-response,15
true,5,2,2,0,false,q,true,false,0.0-2.0-0.28-0.255-3.255,0,1,1,68,false,stim,false,1,431.1050000000978,1,0,0,55005,WMM2,945626,false,false,949,image-keyboard-response,16
true,5,0,2,0,true,q,false,true,0.0-2.0-0.28-0.256-3.256,0,1,1,81,false,stim,false,1,345.7799999997951,1,0,0,55005,WMM2,947480,false,false,952,image-keyboard-response,17
true,5,1,2,2,false,d,true,false,0.0-2.0-0.28-0.257-3.257,0,1,1,90,false,stim,false,2,2087.4150000000373,1,1,2,55005,WMM2,951076,false,false,955,image-keyboard-response,18
true,5,0,2,2,false,d,true,false,0.0-2.0-0.28-0.258-3.258,0,1,1,81,false,stim,false,2,895.9999999998836,1,1,2,55005,WMM2,953480,false,false,958,image-keyboard-response,19
true,5,1,2,0,false,q,false,false,0.0-2.0-0.28-0.259-3.259,0,1,1,90,false,stim,true,1,45.175000000046566,1,0,0,55005,WMM2,955032,false,false,961,image-keyboard-response,20
true,5,1,2,0,false,q,true,false,0.0-2.0-0.28-0.260-3.260,0,1,1,90,false,stim,false,0,1914.839999999851,1,1,1,55005,WMM2,958462,false,false,964,image-keyboard-response,21
true,5,2,2,2,true,d,false,true,0.0-2.0-0.29-0.261-3.261,0,1,1,68,false,stim,false,2,257.79500000027474,1,1,2,55005,WMM2,960236,false,false,967,image-keyboard-response,22
true,5,0,2,0,true,q,false,true,0.0-2.0-0.29-0.262-3.262,0,1,1,81,false,stim,false,1,1661.515000000014,1,0,0,55005,WMM2,963407,false,false,970,image-keyboard-response,23
true,5,2,2,2,true,d,false,true,0.0-2.0-0.29-0.263-3.263,0,1,1,68,false,stim,false,2,740.2400000001071,1,1,2,55005,WMM2,965658,false,false,973,image-keyboard-response,24
true,5,0,2,0,true,q,false,true,0.0-2.0-0.29-0.264-3.264,0,1,1,81,false,stim,false,0,782.2350000001024,1,1,1,55005,WMM2,967950,false,false,976,image-keyboard-response,25
true,5,1,2,0,false,q,true,false,0.0-2.0-0.29-0.265-3.265,0,1,1,90,false,stim,false,0,646.1950000000652,1,1,1,55005,WMM2,970107,false,false,979,image-keyboard-response,26
true,5,2,2,0,false,q,true,false,0.0-2.0-0.29-0.266-3.266,0,1,1,68,false,stim,false,1,568.2300000000978,1,0,0,55005,WMM2,972187,false,false,982,image-keyboard-response,27
true,5,0,2,0,true,q,false,true,0.0-2.0-0.29-0.267-3.267,0,1,1,81,false,stim,false,0,497.41500000003725,1,1,1,55005,WMM2,974192,false,false,985,image-keyboard-response,28
true,5,0,2,0,true,q,false,true,0.0-2.0-0.29-0.268-3.268,0,1,1,81,false,stim,false,1,1253.5449999996927,1,0,0,55005,WMM2,976953,false,false,988,image-keyboard-response,29
true,5,0,2,2,false,d,true,false,0.0-2.0-0.29-0.269-3.269,0,1,1,81,false,stim,false,2,1163.579999999958,1,1,2,55005,WMM2,979628,false,false,991,image-keyboard-response,30
true,5,1,2,0,false,q,false,false,0.0-2.0-0.30-0.270-3.270,0,1,1,90,false,stim,true,1,1956.2450000001118,1,0,0,55005,WMM2,983094,false,false,994,image-keyboard-response,31
true,5,2,2,2,true,d,false,true,0.0-2.0-0.30-0.271-3.271,0,1,1,68,false,stim,false,2,313.04999999993015,1,1,2,55005,WMM2,984921,false,false,997,image-keyboard-response,32
true,5,2,2,2,true,d,false,true,0.0-2.0-0.30-0.272-3.272,0,1,1,68,false,stim,false,2,449.00499999988824,1,1,2,55005,WMM2,986880,false,false,1000,image-keyboard-response,33
true,5,2,2,0,false,q,true,false,0.0-2.0-0.30-0.273-3.273,0,1,1,68,false,stim,false,0,799.6249999998836,1,1,1,55005,WMM2,989194,false,false,1003,image-keyboard-response,34
true,5,1,2,2,false,d,true,false,0.0-2.0-0.30-0.274-3.274,0,1,1,90,false,stim,false,2,2827.425000000163,1,1,2,55005,WMM2,993532,false,false,1006,image-keyboard-response,35
true,5,0,2,0,true,q,false,true,0.0-2.0-0.30-0.275-3.275,0,1,1,81,false,stim,false,1,1706.740000000107,1,0,0,55005,WMM2,996754,false,false,1009,image-keyboard-response,36
true,5,1,2,0,false,q,false,true,0.0-2.0-0.30-0.276-3.276,0,1,1,90,false,stim,true,1,1303.8199999998324,1,0,0,55005,WMM2,999571,false,true,1012,image-keyboard-response,37
true,5,2,2,0,false,q,true,false,0.0-2.0-0.30-0.277-3.277,0,1,1,68,false,stim,false,0,2060.7449999999953,1,1,1,55005,WMM2,1003145,false,false,1015,image-keyboard-response,38
false,5,-1,2,0,false,q,true,false,0.0-2.0-0.30-0.278-3.278,0,1,1,,false,stim,false,0,,1,1,1,55005,WMM2,1007656,false,false,1018,image-keyboard-response,39
true,5,0,2,0,true,q,false,true,0.0-2.0-0.31-0.279-3.279,0,1,1,81,false,stim,false,0,474.2449999998789,1,1,1,55005,WMM2,1009640,false,false,1021,image-keyboard-response,40
true,5,0,2,2,false,d,true,false,0.0-2.0-0.31-0.280-3.280,0,1,1,81,false,stim,false,2,505.160000000149,1,1,2,55005,WMM2,1011655,false,false,1024,image-keyboard-response,41
true,5,1,2,0,false,q,false,false,0.0-2.0-0.31-0.281-3.281,0,1,1,90,false,stim,true,1,394.5649999998277,1,0,0,55005,WMM2,1013559,false,false,1027,image-keyboard-response,42
true,5,2,2,0,false,q,true,false,0.0-2.0-0.31-0.282-3.282,0,1,1,68,false,stim,false,0,788.4249999999302,1,1,1,55005,WMM2,1015860,false,false,1030,image-keyboard-response,43
true,5,1,2,0,false,q,true,false,0.0-2.0-0.31-0.283-3.283,0,1,1,90,false,stim,false,0,409.24499999999534,1,1,1,55005,WMM2,1017780,false,false,1033,image-keyboard-response,44
true,5,1,2,0,false,q,false,false,0.0-2.0-0.31-0.284-3.284,0,1,1,90,false,stim,true,1,633.7400000001071,1,0,0,55005,WMM2,1019927,false,false,1036,image-keyboard-response,45
true,5,0,2,2,false,d,true,false,0.0-2.0-0.31-0.285-3.285,0,1,1,81,false,stim,false,2,450.1799999998184,1,1,2,55005,WMM2,1021891,false,false,1039,image-keyboard-response,46
true,5,1,2,0,false,q,false,false,0.0-2.0-0.31-0.286-3.286,0,1,1,90,false,stim,true,1,461.8800000001211,1,0,0,55005,WMM2,1023862,false,false,1042,image-keyboard-response,47
true,5,0,2,2,false,d,true,false,0.0-2.0-0.31-0.287-3.287,0,1,1,81,false,stim,false,2,700.0850000001956,1,1,2,55005,WMM2,1026073,false,false,1045,image-keyboard-response,48
true,5,1,2,0,false,q,false,false,0.0-2.0-0.32-0.288-3.288,0,1,1,90,false,stim,true,1,807.7350000001024,1,0,0,55005,WMM2,1028390,false,false,1048,image-keyboard-response,49
true,5,1,2,0,false,q,false,false,0.0-2.0-0.32-0.289-3.289,0,1,1,90,false,stim,true,1,964.1850000000559,1,0,0,55005,WMM2,1030864,false,false,1051,image-keyboard-response,50
true,5,2,2,2,true,d,false,true,0.0-2.0-0.32-0.290-3.290,0,1,1,68,false,stim,false,2,701.6550000000279,1,1,2,55005,WMM2,1033077,false,false,1054,image-keyboard-response,51
true,5,1,2,2,false,d,true,false,0.0-2.0-0.32-0.291-3.291,0,1,1,90,false,stim,false,2,1097.5750000000698,1,1,2,55005,WMM2,1035683,false,false,1057,image-keyboard-response,52
true,5,0,2,0,true,q,false,false,0.0-2.0-0.32-0.292-3.292,0,1,1,81,false,stim,false,0,568.6300000000047,1,0,1,55005,WMM2,1037762,false,true,1060,image-keyboard-response,53
true,5,1,2,0,false,q,false,false,0.0-2.0-0.32-0.293-3.293,0,1,1,90,false,stim,true,1,526.3550000002142,1,1,0,55005,WMM2,1039796,false,false,1063,image-keyboard-response,54
true,5,1,2,2,false,d,true,false,0.0-2.0-0.32-0.294-3.294,0,1,1,90,false,stim,false,2,966.390000000014,1,1,2,55005,WMM2,1042273,false,false,1066,image-keyboard-response,55
true,5,2,2,0,false,q,true,false,0.0-2.0-0.32-0.295-3.295,0,1,1,68,false,stim,false,0,490.99500000011176,1,0,1,55005,WMM2,1044273,false,false,1069,image-keyboard-response,56
true,5,1,2,0,false,q,true,false,0.0-2.0-0.32-0.296-3.296,0,1,1,90,false,stim,false,0,345.14500000013504,1,0,1,55005,WMM2,1046128,false,false,1072,image-keyboard-response,57
true,5,0,2,2,false,d,true,false,0.0-2.0-0.33-0.297-3.297,0,1,1,81,false,stim,false,2,223.53499999968335,1,1,2,55005,WMM2,1047858,false,false,1075,image-keyboard-response,58
true,5,1,2,0,false,q,false,false,0.0-2.0-0.33-0.298-3.298,0,1,1,90,false,stim,true,1,341.7050000000745,1,1,0,55005,WMM2,1049708,false,false,1078,image-keyboard-response,59
true,5,0,2,0,true,q,false,true,0.0-2.0-0.33-0.299-3.299,0,1,1,81,false,stim,false,1,90.78000000002794,1,1,0,55005,WMM2,1051308,false,false,1081,image-keyboard-response,60
true,6,0,2,2,false,d,false,true,0.0-2.0-0.33-0.300-3.300,1,0,1,81,true,stim,true,0,424.714999999851,1,0,1,55005,WMM2,1053241,false,true,1084,image-keyboard-response,1
true,6,2,2,2,true,d,false,false,0.0-2.0-0.33-0.301-3.301,1,0,1,68,false,stim,false,2,816.375,1,1,2,55005,WMM2,1055567,false,true,1087,image-keyboard-response,2
true,6,0,2,0,true,q,false,true,0.0-2.0-0.33-0.302-3.302,1,0,1,81,false,stim,false,0,306.78000000002794,1,1,0,55005,WMM2,1057383,false,false,1090,image-keyboard-response,3
true,6,1,2,2,false,d,true,false,0.0-2.0-0.33-0.303-3.303,1,0,1,90,false,stim,false,0,547.1699999999255,1,0,1,55005,WMM2,1059440,false,false,1093,image-keyboard-response,4
true,6,0,2,2,false,d,true,false,0.0-2.0-0.33-0.304-3.304,1,0,1,81,false,stim,false,2,169.21000000019558,1,1,2,55005,WMM2,1061116,false,false,1096,image-keyboard-response,5
true,6,1,2,2,false,d,true,false,0.0-2.0-0.33-0.305-3.305,1,0,1,90,false,stim,false,0,292.8499999998603,1,0,1,55005,WMM2,1062917,false,false,1099,image-keyboard-response,6
true,6,2,2,0,false,q,true,false,0.0-2.0-0.34-0.306-3.306,1,0,1,68,false,stim,false,0,366.23999999975786,1,1,0,55005,WMM2,1064804,false,false,1102,image-keyboard-response,7
true,6,0,2,2,false,d,false,false,0.0-2.0-0.34-0.307-3.307,1,0,1,81,false,stim,true,0,292.81999999983236,1,0,1,55005,WMM2,1066607,false,false,1105,image-keyboard-response,8
true,6,1,2,2,false,d,true,true,0.0-2.0-0.34-0.308-3.308,1,0,1,90,false,stim,false,2,380.79499999969266,1,1,2,55005,WMM2,1068500,false,true,1108,image-keyboard-response,9
true,6,0,2,0,true,q,false,true,0.0-2.0-0.34-0.309-3.309,1,0,1,81,false,stim,false,0,448.4899999999907,1,1,0,55005,WMM2,1070458,false,false,1111,image-keyboard-response,10
true,6,2,2,2,true,d,false,true,0.0-2.0-0.34-0.310-3.310,1,0,1,68,false,stim,false,2,402.33499999996275,1,1,2,55005,WMM2,1072368,false,false,1114,image-keyboard-response,11
true,6,1,2,2,false,d,true,true,0.0-2.0-0.34-0.311-3.311,1,0,1,90,false,stim,false,2,454.2399999999907,1,1,2,55005,WMM2,1074333,false,true,1117,image-keyboard-response,12
true,6,0,2,0,true,q,false,true,0.0-2.0-0.34-0.312-3.312,1,0,1,81,false,stim,false,0,453.0199999997858,1,1,0,55005,WMM2,1076294,false,false,1120,image-keyboard-response,13
true,6,1,2,2,false,d,true,true,0.0-2.0-0.34-0.313-3.313,1,0,1,90,false,stim,false,0,314.1449999997858,1,0,1,55005,WMM2,1078118,false,true,1123,image-keyboard-response,14
true,6,2,2,2,true,d,false,true,0.0-2.0-0.34-0.314-3.314,1,0,1,68,false,stim,false,0,265.71999999973923,1,0,1,55005,WMM2,1079895,false,false,1126,image-keyboard-response,15
true,6,1,2,2,false,d,true,false,0.0-2.0-0.35-0.315-3.315,1,0,1,90,false,stim,false,0,327.1899999999441,1,0,1,55005,WMM2,1081733,false,false,1129,image-keyboard-response,16
true,6,0,2,0,true,q,false,true,0.0-2.0-0.35-0.316-3.316,1,0,1,81,false,stim,false,0,344.8349999997299,1,1,0,55005,WMM2,1083586,false,false,1132,image-keyboard-response,17
true,6,1,2,2,false,d,true,false,0.0-2.0-0.35-0.317-3.317,1,0,1,90,false,stim,false,0,257.50499999988824,1,0,1,55005,WMM2,1085353,false,false,1135,image-keyboard-response,18
true,6,2,2,0,false,q,true,false,0.0-2.0-0.35-0.318-3.318,1,0,1,68,false,stim,false,0,233.43500000005588,1,1,0,55005,WMM2,1087094,false,false,1138,image-keyboard-response,19
true,6,0,2,0,true,q,false,true,0.0-2.0-0.35-0.319-3.319,1,0,1,81,false,stim,false,0,229.32499999995343,1,1,0,55005,WMM2,1088832,false,false,1141,image-keyboard-response,20
true,6,1,2,2,false,d,true,false,0.0-2.0-0.35-0.320-3.320,1,0,1,90,false,stim,false,2,88.25,1,1,2,55005,WMM2,1090436,false,false,1144,image-keyboard-response,21
true,6,0,2,2,false,d,true,false,0.0-2.0-0.35-0.321-3.321,1,0,1,81,false,stim,false,2,156.7600000000093,1,1,2,55005,WMM2,1092107,false,false,1147,image-keyboard-response,22
true,6,2,2,2,true,d,false,true,0.0-2.0-0.35-0.322-3.322,1,0,1,68,false,stim,false,0,150.54999999981374,1,0,1,55005,WMM2,1093775,false,false,1150,image-keyboard-response,23
true,6,1,2,2,false,d,true,false,0.0-2.0-0.35-0.323-3.323,1,0,1,90,false,stim,false,2,263.78499999968335,1,1,2,55005,WMM2,1095549,false,false,1153,image-keyboard-response,24
true,6,0,2,2,false,d,true,true,0.0-2.0-0.36-0.324-3.324,1,0,1,81,false,stim,false,2,123.42000000015832,1,1,2,55005,WMM2,1097185,false,true,1156,image-keyboard-response,25
true,6,1,2,0,false,q,true,false,0.0-2.0-0.36-0.325-3.325,1,0,1,90,false,stim,false,0,205.4749999998603,1,1,0,55005,WMM2,1098898,false,false,1159,image-keyboard-response,26
true,6,0,2,0,true,q,false,true,0.0-2.0-0.36-0.326-3.326,1,0,1,81,false,stim,false,0,155.07499999995343,1,1,0,55005,WMM2,1100571,false,false,1162,image-keyboard-response,27
true,6,2,2,2,true,d,false,true,0.0-2.0-0.36-0.327-3.327,1,0,1,68,false,stim,false,0,322.34499999997206,1,0,1,55005,WMM2,1102407,false,false,1165,image-keyboard-response,28
true,6,0,2,0,true,q,false,true,0.0-2.0-0.36-0.328-3.328,1,0,1,81,false,stim,false,0,314.5299999997951,1,1,0,55005,WMM2,1104232,false,false,1168,image-keyboard-response,29
true,6,1,2,2,false,d,true,false,0.0-2.0-0.36-0.329-3.329,1,0,1,90,false,stim,false,2,451.6950000000652,1,1,2,55005,WMM2,1106196,false,false,1171,image-keyboard-response,30
true,6,0,2,2,false,d,false,false,0.0-2.0-0.36-0.330-3.330,1,0,1,81,false,stim,true,0,322.98500000010245,1,0,1,55005,WMM2,1108028,false,false,1174,image-keyboard-response,31
true,6,2,2,2,true,d,false,false,0.0-2.0-0.36-0.331-3.331,1,0,1,68,false,stim,false,0,135.0800000000745,1,0,1,55005,WMM2,1109677,false,true,1177,image-keyboard-response,32
true,6,1,2,2,false,d,true,false,0.0-2.0-0.36-0.332-3.332,1,0,1,90,false,stim,false,2,210.43999999994412,1,1,2,55005,WMM2,1111400,false,false,1180,image-keyboard-response,33
true,6,2,2,0,false,q,true,false,0.0-2.0-0.37-0.333-3.333,1,0,1,68,false,stim,false,0,155.49500000011176,1,1,0,55005,WMM2,1113067,false,false,1183,image-keyboard-response,34
true,6,0,2,2,false,d,true,false,0.0-2.0-0.37-0.334-3.334,1,0,1,81,false,stim,false,2,64.28000000002794,1,1,2,55005,WMM2,1114643,false,false,1186,image-keyboard-response,35
true,6,1,2,2,false,d,true,false,0.0-2.0-0.37-0.335-3.335,1,0,1,90,false,stim,false,0,158.71999999973923,1,0,1,55005,WMM2,1116313,false,false,1189,image-keyboard-response,36
true,6,2,2,2,true,d,false,true,0.0-2.0-0.37-0.336-3.336,1,0,1,68,false,stim,false,2,248.660000000149,1,1,2,55005,WMM2,1118073,false,false,1192,image-keyboard-response,37
true,6,0,2,0,true,q,false,true,0.0-2.0-0.37-0.337-3.337,1,0,1,81,false,stim,false,0,228.90999999991618,1,1,0,55005,WMM2,1119811,false,false,1195,image-keyboard-response,38
true,6,1,2,2,false,d,true,false,0.0-2.0-0.37-0.338-3.338,1,0,1,90,false,stim,false,0,250.2399999999907,1,0,1,55005,WMM2,1121571,false,false,1198,image-keyboard-response,39
true,6,0,2,2,false,d,false,false,0.0-2.0-0.37-0.339-3.339,1,0,1,81,false,stim,true,0,250.839999999851,1,0,1,55005,WMM2,1123353,false,false,1201,image-keyboard-response,40
true,6,2,2,2,true,d,false,true,0.0-2.0-0.37-0.340-3.340,1,0,1,68,false,stim,false,2,152.875,1,1,2,55005,WMM2,1125019,false,false,1204,image-keyboard-response,41
true,6,0,2,0,true,q,false,false,0.0-2.0-0.37-0.341-3.341,1,0,1,81,false,stim,false,0,351.6350000000093,1,1,0,55005,WMM2,1126884,false,true,1207,image-keyboard-response,42
true,6,1,2,2,false,d,true,false,0.0-2.0-0.38-0.342-3.342,1,0,1,90,false,stim,false,2,178.20999999996275,1,1,2,55005,WMM2,1128578,false,false,1210,image-keyboard-response,43
true,6,0,2,2,false,d,true,false,0.0-2.0-0.38-0.343-3.343,1,0,1,81,false,stim,false,2,583.0749999997206,1,1,2,55005,WMM2,1130673,false,false,1213,image-keyboard-response,44
true,6,2,2,0,false,q,true,false,0.0-2.0-0.38-0.344-3.344,1,0,1,68,false,stim,false,0,405.3400000000838,1,1,0,55005,WMM2,1132590,false,false,1216,image-keyboard-response,45
true,6,1,2,0,false,q,true,true,0.0-2.0-0.38-0.345-3.345,1,0,1,90,false,stim,false,0,308.3699999998789,1,1,0,55005,WMM2,1134412,false,true,1219,image-keyboard-response,46
true,6,0,2,2,false,d,false,false,0.0-2.0-0.38-0.346-3.346,1,0,1,81,false,stim,true,0,311.60000000009313,1,0,1,55005,WMM2,1136237,false,false,1222,image-keyboard-response,47
true,6,2,2,2,true,d,false,true,0.0-2.0-0.38-0.347-3.347,1,0,1,68,false,stim,false,0,347.48500000010245,1,0,1,55005,WMM2,1138096,false,false,1225,image-keyboard-response,48
true,6,1,2,2,false,d,true,false,0.0-2.0-0.38-0.348-3.348,1,0,1,90,false,stim,false,0,290.63999999989755,1,0,1,55005,WMM2,1139903,false,false,1228,image-keyboard-response,49
true,6,0,2,2,false,d,true,false,0.0-2.0-0.38-0.349-3.349,1,0,1,81,false,stim,false,2,264.160000000149,1,1,2,55005,WMM2,1141684,false,false,1231,image-keyboard-response,50
true,6,1,2,0,false,q,true,false,0.0-2.0-0.38-0.350-3.350,1,0,1,90,false,stim,false,0,372.98999999975786,1,1,0,55005,WMM2,1143571,false,false,1234,image-keyboard-response,51
true,6,2,2,2,true,d,false,true,0.0-2.0-0.39-0.351-3.351,1,0,1,68,false,stim,false,0,507.88999999989755,1,0,1,55005,WMM2,1145590,false,false,1237,image-keyboard-response,52
true,6,0,2,2,false,d,false,false,0.0-2.0-0.39-0.352-3.352,1,0,1,81,false,stim,true,0,408.5649999999441,1,0,1,55005,WMM2,1147509,false,false,1240,image-keyboard-response,53
true,6,1,2,0,false,q,true,false,0.0-2.0-0.39-0.353-3.353,1,0,1,90,false,stim,false,0,556.410000000149,1,1,0,55005,WMM2,1149576,false,false,1243,image-keyboard-response,54
true,6,2,2,2,true,d,false,true,0.0-2.0-0.39-0.354-3.354,1,0,1,68,false,stim,false,2,395.23500000010245,1,0,2,55005,WMM2,1151480,false,false,1246,image-keyboard-response,55
true,6,2,2,2,true,d,false,true,0.0-2.0-0.39-0.355-3.355,1,0,1,68,false,stim,false,2,359.4749999998603,1,0,2,55005,WMM2,1153348,false,false,1249,image-keyboard-response,56
true,6,0,2,0,true,q,false,true,0.0-2.0-0.39-0.356-3.356,1,0,1,81,false,stim,false,0,534.559999999823,1,1,0,55005,WMM2,1155393,false,false,1252,image-keyboard-response,57
true,6,1,2,2,false,d,true,true,0.0-2.0-0.39-0.357-3.357,1,0,1,90,false,stim,false,0,497.7550000001211,1,0,1,55005,WMM2,1157399,false,true,1255,image-keyboard-response,58
true,6,2,2,2,true,d,false,true,0.0-2.0-0.39-0.358-3.358,1,0,1,68,false,stim,false,2,485.82499999995343,1,0,2,55005,WMM2,1159396,false,false,1258,image-keyboard-response,59
true,6,1,2,0,false,q,true,false,0.0-2.0-0.39-0.359-3.359,1,0,1,90,false,stim,false,0,618.7700000000186,1,1,0,55005,WMM2,1161526,false,false,1261,image-keyboard-response,60
true,7,0,1,0,true,q,false,true,0.0-2.0-0.40-0.360-3.360,1,0,0,81,true,stim,false,0,373.0800000000745,1,1,0,55005,WMM2,1163410,false,false,1264,image-keyboard-response,1
true,7,0,1,0,true,q,false,true,0.0-2.0-0.40-0.361-3.361,1,0,0,81,false,stim,false,0,595.6350000000093,1,1,0,55005,WMM2,1165516,false,false,1267,image-keyboard-response,2
true,7,2,1,0,false,q,false,true,0.0-2.0-0.40-0.362-3.362,1,0,0,68,false,stim,true,2,169.88999999989755,1,0,2,55005,WMM2,1167195,false,true,1270,image-keyboard-response,3
true,7,1,1,0,false,q,true,false,0.0-2.0-0.40-0.363-3.363,1,0,0,90,false,stim,false,2,452.9099999999162,1,0,2,55005,WMM2,1169158,false,false,1273,image-keyboard-response,4
true,7,0,1,0,true,q,false,true,0.0-2.0-0.40-0.364-3.364,1,0,0,81,false,stim,false,2,4.574999999953434,1,0,2,55005,WMM2,1170670,false,false,1276,image-keyboard-response,5
true,7,0,1,0,true,q,false,true,0.0-2.0-0.40-0.365-3.365,1,0,0,81,false,stim,false,0,670.0849999999627,1,1,0,55005,WMM2,1172851,false,false,1279,image-keyboard-response,6
true,7,1,1,1,true,z,false,true,0.0-2.0-0.40-0.366-3.366,1,0,0,90,false,stim,false,2,1267.3850000000093,1,0,1,55005,WMM2,1175628,false,false,1282,image-keyboard-response,7
true,7,0,1,1,false,z,true,false,0.0-2.0-0.40-0.367-3.367,1,0,0,81,false,stim,false,2,257.70000000018626,1,0,1,55005,WMM2,1177396,false,false,1285,image-keyboard-response,8
true,7,2,1,1,false,z,false,true,0.0-2.0-0.40-0.368-3.368,1,0,0,68,false,stim,true,2,2422.5,1,0,1,55005,WMM2,1181330,false,true,1288,image-keyboard-response,9
true,7,0,1,0,true,q,false,true,0.0-2.0-0.41-0.369-3.369,1,0,0,81,false,stim,false,0,695.6000000000931,1,1,0,55005,WMM2,1183539,false,false,1291,image-keyboard-response,10
true,7,1,1,0,false,q,true,false,0.0-2.0-0.41-0.370-3.370,1,0,0,90,false,stim,false,2,256.87499999976717,1,0,2,55005,WMM2,1185305,false,false,1294,image-keyboard-response,11
true,7,2,1,0,false,q,true,false,0.0-2.0-0.41-0.371-3.371,1,0,0,68,false,stim,false,0,240.68000000016764,1,1,0,55005,WMM2,1187059,false,false,1297,image-keyboard-response,12
true,7,0,1,1,false,z,true,false,0.0-2.0-0.41-0.372-3.372,1,0,0,81,false,stim,false,2,309.91500000003725,1,0,1,55005,WMM2,1188878,false,false,1300,image-keyboard-response,13
true,7,1,1,1,true,z,false,true,0.0-2.0-0.41-0.373-3.373,1,0,0,90,false,stim,false,2,174.1549999997951,1,0,1,55005,WMM2,1190569,false,false,1303,image-keyboard-response,14
true,7,0,1,1,false,z,true,false,0.0-2.0-0.41-0.374-3.374,1,0,0,81,false,stim,false,2,595.5400000000373,1,0,1,55005,WMM2,1192674,false,false,1306,image-keyboard-response,15
true,7,2,1,0,false,q,false,false,0.0-2.0-0.41-0.375-3.375,1,0,0,68,false,stim,true,2,261.4799999999814,1,0,2,55005,WMM2,1194445,false,false,1309,image-keyboard-response,16
true,7,0,1,0,true,q,false,true,0.0-2.0-0.41-0.376-3.376,1,0,0,81,false,stim,false,2,278.125,1,0,2,55005,WMM2,1196233,false,false,1312,image-keyboard-response,17
true,7,0,1,0,true,q,false,true,0.0-2.0-0.41-0.377-3.377,1,0,0,81,false,stim,false,0,475.3649999999907,1,1,0,55005,WMM2,1198217,false,false,1315,image-keyboard-response,18
true,7,1,1,0,false,q,true,false,0.0-2.0-0.42-0.378-3.378,1,0,0,90,false,stim,false,2,443.94000000017695,1,0,2,55005,WMM2,1200171,false,false,1318,image-keyboard-response,19
true,7,0,1,0,true,q,false,true,0.0-2.0-0.42-0.379-3.379,1,0,0,81,false,stim,false,2,292.17500000004657,1,0,2,55005,WMM2,1201971,false,false,1321,image-keyboard-response,20
true,7,0,1,0,true,q,false,true,0.0-2.0-0.42-0.380-3.380,1,0,0,81,false,stim,false,2,543.6799999999348,1,0,2,55005,WMM2,1204028,false,false,1324,image-keyboard-response,21
true,7,1,1,0,false,q,true,false,0.0-2.0-0.42-0.381-3.381,1,0,0,90,false,stim,false,0,773.5449999996927,1,1,0,55005,WMM2,1206318,false,false,1327,image-keyboard-response,22
true,7,0,1,1,false,z,true,false,0.0-2.0-0.42-0.382-3.382,1,0,0,81,false,stim,false,2,204.06999999983236,1,0,1,55005,WMM2,1208035,false,false,1330,image-keyboard-response,23
true,7,2,1,0,false,q,true,false,0.0-2.0-0.42-0.383-3.383,1,0,0,68,false,stim,false,0,417.1400000001304,1,1,0,55005,WMM2,1209970,false,false,1333,image-keyboard-response,24
true,7,1,1,0,false,q,true,false,0.0-2.0-0.42-0.384-3.384,1,0,0,90,false,stim,false,0,418.47500000009313,1,1,0,55005,WMM2,1211902,false,false,1336,image-keyboard-response,25
true,7,0,1,1,false,z,true,false,0.0-2.0-0.42-0.385-3.385,1,0,0,81,false,stim,false,2,287.6049999999814,1,0,1,55005,WMM2,1213705,false,false,1339,image-keyboard-response,26
true,7,1,1,1,true,z,false,true,0.0-2.0-0.42-0.386-3.386,1,0,0,90,false,stim,false,2,171.3949999997858,1,0,1,55005,WMM2,1215392,false,false,1342,image-keyboard-response,27
true,7,1,1,0,false,q,true,true,0.0-2.0-0.43-0.387-3.387,1,0,0,90,false,stim,false,0,659.0100000000093,1,1,0,55005,WMM2,1217561,false,true,1345,image-keyboard-response,28
true,7,1,1,0,false,q,true,false,0.0-2.0-0.43-0.388-3.388,1,0,0,90,false,stim,false,0,450.26499999989755,1,1,0,55005,WMM2,1219524,false,false,1348,image-keyboard-response,29
true,7,0,1,1,false,z,true,false,0.0-2.0-0.43-0.389-3.389,1,0,0,81,false,stim,false,2,172.8949999997858,1,0,1,55005,WMM2,1221210,false,false,1351,image-keyboard-response,30
true,7,2,1,0,false,q,true,false,0.0-2.0-0.43-0.390-3.390,1,0,0,68,false,stim,false,0,334.73500000010245,1,1,0,55005,WMM2,1223059,false,false,1354,image-keyboard-response,31
true,7,1,1,0,false,q,true,false,0.0-2.0-0.43-0.391-3.391,1,0,0,90,false,stim,false,2,453.0199999997858,1,0,2,55005,WMM2,1225025,false,false,1357,image-keyboard-response,32
true,7,0,1,1,false,z,true,false,0.0-2.0-0.43-0.392-3.392,1,0,0,81,false,stim,false,2,119.88000000012107,1,0,1,55005,WMM2,1226660,false,false,1360,image-keyboard-response,33
true,7,1,1,0,false,q,true,false,0.0-2.0-0.43-0.393-3.393,1,0,0,90,false,stim,false,2,133.52000000001863,1,0,2,55005,WMM2,1228306,false,false,1363,image-keyboard-response,34
true,7,2,1,1,false,z,false,false,0.0-2.0-0.43-0.394-3.394,1,0,0,68,false,stim,true,2,110.74500000011176,1,0,1,55005,WMM2,1229927,false,false,1366,image-keyboard-response,35
true,7,0,1,0,true,q,false,true,0.0-2.0-0.43-0.395-3.395,1,0,0,81,false,stim,false,2,160.50999999977648,1,0,2,55005,WMM2,1231601,false,false,1369,image-keyboard-response,36
true,7,0,1,0,true,q,false,true,0.0-2.0-0.44-0.396-3.396,1,0,0,81,false,stim,false,2,472.7049999998417,1,0,2,55005,WMM2,1233588,false,false,1372,image-keyboard-response,37
true,7,1,1,1,true,z,false,true,0.0-2.0-0.44-0.397-3.397,1,0,0,90,false,stim,false,2,593.3349999999627,1,0,1,55005,WMM2,1235693,false,false,1375,image-keyboard-response,38
true,7,2,1,1,false,z,false,false,0.0-2.0-0.44-0.398-3.398,1,0,0,68,false,stim,true,2,322.45000000018626,1,0,1,55005,WMM2,1237532,false,false,1378,image-keyboard-response,39
true,7,0,1,1,false,z,true,false,0.0-2.0-0.44-0.399-3.399,1,0,0,81,false,stim,false,2,345.3849999997765,1,0,1,55005,WMM2,1239391,false,false,1381,image-keyboard-response,40
true,7,1,1,0,false,q,true,false,0.0-2.0-0.44-0.400-3.400,1,0,0,90,false,stim,false,2,356.57499999995343,1,0,2,55005,WMM2,1241260,false,false,1384,image-keyboard-response,41
true,7,1,1,0,false,q,true,false,0.0-2.0-0.44-0.401-3.401,1,0,0,90,false,stim,false,0,629.5699999998324,1,1,0,55005,WMM2,1243402,false,false,1387,image-keyboard-response,42
true,7,2,1,0,false,q,true,false,0.0-2.0-0.44-0.402-3.402,1,0,0,68,false,stim,false,0,370.2700000000186,1,1,0,55005,WMM2,1245289,false,false,1390,image-keyboard-response,43
true,7,0,1,0,true,q,false,true,0.0-2.0-0.44-0.403-3.403,1,0,0,81,false,stim,false,2,633.8400000000838,1,0,2,55005,WMM2,1247433,false,false,1393,image-keyboard-response,44
true,7,0,1,0,true,q,false,true,0.0-2.0-0.44-0.404-3.404,1,0,0,81,false,stim,false,0,469.63999999989755,1,1,0,55005,WMM2,1249414,false,false,1396,image-keyboard-response,45
true,7,1,1,0,false,q,true,false,0.0-2.0-0.45-0.405-3.405,1,0,0,90,false,stim,false,0,456.77499999990687,1,1,0,55005,WMM2,1251385,false,false,1399,image-keyboard-response,46
true,7,2,1,0,false,q,false,false,0.0-2.0-0.45-0.406-3.406,1,0,0,68,false,stim,true,2,333.125,1,0,2,55005,WMM2,1253236,false,false,1402,image-keyboard-response,47
true,7,0,1,0,true,q,false,true,0.0-2.0-0.45-0.407-3.407,1,0,0,81,false,stim,false,2,378.375,1,0,2,55005,WMM2,1255126,false,false,1405,image-keyboard-response,48
true,7,0,1,1,false,z,true,false,0.0-2.0-0.45-0.408-3.408,1,0,0,81,false,stim,false,2,667.5049999998882,1,0,1,55005,WMM2,1257302,false,false,1408,image-keyboard-response,49
true,7,1,1,1,true,z,false,true,0.0-2.0-0.45-0.409-3.409,1,0,0,90,false,stim,false,2,218.64999999990687,1,0,1,55005,WMM2,1259030,false,false,1411,image-keyboard-response,50
true,7,2,1,0,false,q,true,true,0.0-2.0-0.45-0.410-3.410,1,0,0,68,false,stim,false,0,561.8900000001304,1,1,0,55005,WMM2,1261102,false,true,1414,image-keyboard-response,51
true,7,1,1,0,false,q,true,false,0.0-2.0-0.45-0.411-3.411,1,0,0,90,false,stim,false,0,517.8699999998789,1,1,0,55005,WMM2,1263129,false,false,1417,image-keyboard-response,52
true,7,0,1,1,false,z,true,false,0.0-2.0-0.45-0.412-3.412,1,0,0,81,false,stim,false,2,273.73999999975786,1,0,1,55005,WMM2,1264909,false,false,1420,image-keyboard-response,53
true,7,1,1,0,false,q,true,false,0.0-2.0-0.45-0.413-3.413,1,0,0,90,false,stim,false,2,278.6149999999907,1,1,2,55005,WMM2,1266709,false,false,1423,image-keyboard-response,54
true,7,2,1,0,false,q,false,false,0.0-2.0-0.46-0.414-3.414,1,0,0,68,false,stim,true,2,96.88999999989755,1,1,2,55005,WMM2,1268315,false,false,1426,image-keyboard-response,55
true,7,1,1,1,true,z,false,true,0.0-2.0-0.46-0.415-3.415,1,0,0,90,false,stim,false,2,221.19499999983236,1,0,1,55005,WMM2,1270044,false,false,1429,image-keyboard-response,56
true,7,1,1,1,true,z,false,true,0.0-2.0-0.46-0.416-3.416,1,0,0,90,false,stim,false,2,525.0749999999534,1,0,1,55005,WMM2,1272075,false,false,1432,image-keyboard-response,57
true,7,1,1,0,false,q,true,true,0.0-2.0-0.46-0.417-3.417,1,0,0,90,false,stim,false,0,527.0700000000652,1,1,0,55005,WMM2,1274110,false,true,1435,image-keyboard-response,58
true,7,0,1,1,false,z,true,false,0.0-2.0-0.46-0.418-3.418,1,0,0,81,false,stim,false,2,481.65500000002794,1,0,1,55005,WMM2,1276103,false,false,1438,image-keyboard-response,59
true,7,1,1,0,false,q,true,false,0.0-2.0-0.46-0.419-3.419,1,0,0,90,false,stim,false,2,528.9699999999721,1,1,2,55005,WMM2,1278178,false,false,1441,image-keyboard-response,60
true,8,2,3,0,false,q,true,false,0.0-2.0-0.46-0.420-3.420,1,0,1,68,true,stim,false,0,275.9549999998417,1,1,2,55005,WMM2,1279961,false,false,1444,image-keyboard-response,1
true,8,1,3,0,false,q,true,false,0.0-2.0-0.46-0.421-3.421,1,0,1,90,false,stim,false,0,286.7950000001583,1,1,0,55005,WMM2,1281759,false,false,1447,image-keyboard-response,2
true,8,0,3,0,true,q,false,false,0.0-2.0-0.46-0.422-3.422,1,0,1,81,false,stim,false,0,507.0199999997858,1,1,0,55005,WMM2,1283776,false,true,1450,image-keyboard-response,3
true,8,1,3,0,false,q,true,false,0.0-2.0-0.47-0.423-3.423,1,0,1,90,false,stim,false,0,465.37000000011176,1,1,2,55005,WMM2,1285753,false,false,1453,image-keyboard-response,4
true,8,2,3,2,true,d,false,true,0.0-2.0-0.47-0.424-3.424,1,0,1,68,false,stim,false,1,286.23500000010245,1,0,1,55005,WMM2,1287548,false,false,1456,image-keyboard-response,5
true,8,1,3,0,false,q,true,true,0.0-2.0-0.47-0.425-3.425,1,0,1,90,false,stim,false,0,395.47499999962747,1,1,2,55005,WMM2,1289451,false,true,1459,image-keyboard-response,6
true,8,1,3,0,false,q,true,false,0.0-2.0-0.47-0.426-3.426,1,0,1,90,false,stim,false,0,548.8900000001304,1,1,0,55005,WMM2,1291510,false,false,1462,image-keyboard-response,7
true,8,0,3,0,true,q,false,true,0.0-2.0-0.47-0.427-3.427,1,0,1,81,false,stim,false,0,291.26499999989755,1,1,0,55005,WMM2,1293310,false,false,1465,image-keyboard-response,8
true,8,0,3,2,false,d,true,false,0.0-2.0-0.47-0.428-3.428,1,0,1,81,false,stim,false,1,464.80000000004657,1,0,1,55005,WMM2,1295283,false,false,1468,image-keyboard-response,9
true,8,1,3,2,false,d,false,false,0.0-2.0-0.47-0.429-3.429,1,0,1,90,false,stim,true,1,322.53000000002794,1,0,1,55005,WMM2,1297117,false,false,1471,image-keyboard-response,10
true,8,2,3,0,false,q,true,false,0.0-2.0-0.47-0.430-3.430,1,0,1,68,false,stim,false,0,335.78000000002794,1,1,2,55005,WMM2,1298968,false,false,1474,image-keyboard-response,11
true,8,1,3,0,false,q,true,false,0.0-2.0-0.47-0.431-3.431,1,0,1,90,false,stim,false,0,369.3850000000093,1,1,0,55005,WMM2,1300848,false,false,1477,image-keyboard-response,12
true,8,0,3,0,true,q,false,true,0.0-2.0-0.48-0.432-3.432,1,0,1,81,false,stim,false,0,472.12499999976717,1,1,0,55005,WMM2,1302831,false,false,1480,image-keyboard-response,13
true,8,0,3,2,false,d,true,false,0.0-2.0-0.48-0.433-3.433,1,0,1,81,false,stim,false,1,499.69499999983236,1,0,1,55005,WMM2,1304844,false,false,1483,image-keyboard-response,14
true,8,1,3,0,false,q,true,false,0.0-2.0-0.48-0.434-3.434,1,0,1,90,false,stim,false,0,278.7950000001583,1,1,2,55005,WMM2,1306634,false,false,1486,image-keyboard-response,15
true,8,2,3,0,false,q,true,false,0.0-2.0-0.48-0.435-3.435,1,0,1,68,false,stim,false,0,272.5600000000559,1,1,2,55005,WMM2,1308427,false,false,1489,image-keyboard-response,16
true,8,1,3,0,false,q,true,false,0.0-2.0-0.48-0.436-3.436,1,0,1,90,false,stim,false,0,465.5199999997858,1,1,0,55005,WMM2,1310402,false,false,1492,image-keyboard-response,17
true,8,1,3,2,false,d,false,false,0.0-2.0-0.48-0.437-3.437,1,0,1,90,false,stim,true,1,448.56999999983236,1,0,1,55005,WMM2,1312362,false,false,1495,image-keyboard-response,18
true,8,2,3,2,true,d,false,true,0.0-2.0-0.48-0.438-3.438,1,0,1,68,false,stim,false,1,283.7299999999814,1,0,1,55005,WMM2,1314154,false,false,1498,image-keyboard-response,19
true,8,2,3,0,false,q,true,false,0.0-2.0-0.48-0.439-3.439,1,0,1,68,false,stim,false,0,601.9749999998603,1,1,0,55005,WMM2,1316281,false,false,1501,image-keyboard-response,20
true,8,1,3,0,false,q,true,false,0.0-2.0-0.48-0.440-3.440,1,0,1,90,false,stim,false,0,602.9899999999907,1,1,2,55005,WMM2,1318400,false,false,1504,image-keyboard-response,21
true,8,0,3,2,false,d,true,false,0.0-2.0-0.49-0.441-3.441,1,0,1,81,false,stim,false,1,315.6300000001211,1,0,1,55005,WMM2,1320234,false,false,1507,image-keyboard-response,22
true,8,1,3,0,false,q,true,false,0.0-2.0-0.49-0.442-3.442,1,0,1,90,false,stim,false,0,327.56500000017695,1,1,0,55005,WMM2,1322075,false,false,1510,image-keyboard-response,23
true,8,2,3,0,false,q,true,false,0.0-2.0-0.49-0.443-3.443,1,0,1,68,false,stim,false,0,327.5250000001397,1,1,2,55005,WMM2,1323918,false,false,1513,image-keyboard-response,24
true,8,0,3,0,true,q,false,true,0.0-2.0-0.49-0.444-3.444,1,0,1,81,false,stim,false,0,31.794999999925494,1,1,0,55005,WMM2,1325465,false,false,1516,image-keyboard-response,25
true,8,0,3,0,true,q,false,true,0.0-2.0-0.49-0.445-3.445,1,0,1,81,false,stim,false,0,348.0200000000186,1,1,0,55005,WMM2,1327324,false,false,1519,image-keyboard-response,26
true,8,0,3,2,false,d,true,false,0.0-2.0-0.49-0.446-3.446,1,0,1,81,false,stim,false,1,375.96499999961816,1,0,1,55005,WMM2,1329214,false,false,1522,image-keyboard-response,27
true,8,1,3,2,false,d,false,false,0.0-2.0-0.49-0.447-3.447,1,0,1,90,false,stim,true,1,579.7800000000279,1,0,1,55005,WMM2,1331307,false,false,1525,image-keyboard-response,28
true,8,2,3,0,false,q,true,true,0.0-2.0-0.49-0.448-3.448,1,0,1,68,false,stim,false,0,709.9299999999348,1,1,2,55005,WMM2,1333531,false,true,1528,image-keyboard-response,29
true,8,1,3,0,false,q,true,false,0.0-2.0-0.49-0.449-3.449,1,0,1,90,false,stim,false,0,402.42000000039116,1,1,2,55005,WMM2,1335449,false,false,1531,image-keyboard-response,30
true,8,1,3,0,false,q,true,false,0.0-2.0-0.50-0.450-3.450,1,0,1,90,false,stim,false,0,463.77000000025146,1,1,0,55005,WMM2,1337428,false,false,1534,image-keyboard-response,31
true,8,1,3,0,false,q,true,false,0.0-2.0-0.50-0.451-3.451,1,0,1,90,false,stim,false,0,1155.7400000002235,1,1,0,55005,WMM2,1340098,false,false,1537,image-keyboard-response,32
true,8,0,3,0,true,q,false,true,0.0-2.0-0.50-0.452-3.452,1,0,1,81,false,stim,false,0,437.10000000009313,1,1,0,55005,WMM2,1342077,false,false,1540,image-keyboard-response,33
true,8,0,3,2,false,d,true,false,0.0-2.0-0.50-0.453-3.453,1,0,1,81,false,stim,false,1,550.179999999702,1,0,1,55005,WMM2,1344142,false,false,1543,image-keyboard-response,34
true,8,1,3,2,false,d,false,false,0.0-2.0-0.50-0.454-3.454,1,0,1,90,false,stim,true,1,19.264999999897555,1,0,1,55005,WMM2,1345671,false,false,1546,image-keyboard-response,35
true,8,2,3,2,true,d,false,true,0.0-2.0-0.50-0.455-3.455,1,0,1,68,false,stim,false,1,406.2650000001304,1,0,1,55005,WMM2,1347594,false,false,1549,image-keyboard-response,36
true,8,2,3,0,false,q,true,false,0.0-2.0-0.50-0.456-3.456,1,0,1,68,false,stim,false,0,406.3450000002049,1,1,2,55005,WMM2,1349515,false,false,1552,image-keyboard-response,37
true,8,1,3,0,false,q,true,false,0.0-2.0-0.50-0.457-3.457,1,0,1,90,false,stim,false,0,412.9299999999348,1,1,2,55005,WMM2,1351441,false,false,1555,image-keyboard-response,38
true,8,0,3,0,true,q,false,true,0.0-2.0-0.50-0.458-3.458,1,0,1,81,false,stim,false,0,126.72000000020489,1,1,2,55005,WMM2,1353079,false,false,1558,image-keyboard-response,39
true,8,0,3,0,true,q,false,true,0.0-2.0-0.51-0.459-3.459,1,0,1,81,false,stim,false,0,523.8500000000931,1,1,2,55005,WMM2,1355118,false,false,1561,image-keyboard-response,40
true,8,0,3,0,true,q,false,true,0.0-2.0-0.51-0.460-3.460,1,0,1,81,false,stim,false,0,435.7349999998696,1,1,0,55005,WMM2,1357069,false,false,1564,image-keyboard-response,41
true,8,1,3,2,false,d,false,false,0.0-2.0-0.51-0.461-3.461,1,0,1,90,false,stim,true,1,424.035000000149,1,0,1,55005,WMM2,1359007,false,false,1567,image-keyboard-response,42
true,8,1,3,2,false,d,false,false,0.0-2.0-0.51-0.462-3.462,1,0,1,90,false,stim,true,1,1340.3549999997485,1,0,1,55005,WMM2,1361860,false,false,1570,image-keyboard-response,43
true,8,0,3,0,true,q,false,true,0.0-2.0-0.51-0.463-3.463,1,0,1,81,false,stim,false,0,421.77500000037253,1,1,0,55005,WMM2,1363801,false,false,1573,image-keyboard-response,44
true,8,2,3,0,false,q,true,false,0.0-2.0-0.51-0.464-3.464,1,0,1,68,false,stim,false,0,256.785000000149,1,1,0,55005,WMM2,1365573,false,false,1576,image-keyboard-response,45
true,8,0,3,0,true,q,false,true,0.0-2.0-0.51-0.465-3.465,1,0,1,81,false,stim,false,0,369.02500000037253,1,1,2,55005,WMM2,1367454,false,false,1579,image-keyboard-response,46
true,8,0,3,2,false,d,true,false,0.0-2.0-0.51-0.466-3.466,1,0,1,81,false,stim,false,1,410.625,1,0,1,55005,WMM2,1369379,false,false,1582,image-keyboard-response,47
true,8,1,3,0,false,q,true,false,0.0-2.0-0.51-0.467-3.467,1,0,1,90,false,stim,false,0,44.47000000020489,1,1,2,55005,WMM2,1370935,false,false,1585,image-keyboard-response,48
true,8,2,3,0,false,q,true,false,0.0-2.0-0.52-0.468-3.468,1,0,1,68,false,stim,false,0,327.2350000003353,1,1,2,55005,WMM2,1372780,false,false,1588,image-keyboard-response,49
true,8,0,3,2,false,d,true,false,0.0-2.0-0.52-0.469-3.469,1,0,1,81,false,stim,false,1,357.4600000001956,1,0,1,55005,WMM2,1374653,false,false,1591,image-keyboard-response,50
true,8,1,3,2,false,d,false,false,0.0-2.0-0.52-0.470-3.470,1,0,1,90,false,stim,true,1,286.1950000000652,1,1,1,55005,WMM2,1376449,false,false,1594,image-keyboard-response,51
true,8,2,3,2,true,d,false,true,0.0-2.0-0.52-0.471-3.471,1,0,1,68,false,stim,false,1,40.390000000130385,1,1,1,55005,WMM2,1378000,false,false,1597,image-keyboard-response,52
true,8,0,3,0,true,q,false,true,0.0-2.0-0.52-0.472-3.472,1,0,1,81,false,stim,false,0,607.4450000000652,1,0,0,55005,WMM2,1380120,false,false,1600,image-keyboard-response,53
true,8,0,3,0,true,q,false,true,0.0-2.0-0.52-0.473-3.473,1,0,1,81,false,stim,false,0,425.5349999999162,1,0,2,55005,WMM2,1382071,false,false,1603,image-keyboard-response,54
true,8,1,3,0,false,q,true,false,0.0-2.0-0.52-0.474-3.474,1,0,1,90,false,stim,false,0,419.7900000002701,1,0,2,55005,WMM2,1384001,false,false,1606,image-keyboard-response,55
true,8,2,3,0,false,q,true,false,0.0-2.0-0.52-0.475-3.475,1,0,1,68,false,stim,false,0,300.6449999997858,1,0,0,55005,WMM2,1385812,false,false,1609,image-keyboard-response,56
true,8,1,3,0,false,q,true,true,0.0-2.0-0.52-0.476-3.476,1,0,1,90,false,stim,false,0,317.10000000009313,1,0,0,55005,WMM2,1387639,false,true,1612,image-keyboard-response,57
true,8,1,3,2,false,d,false,false,0.0-2.0-0.53-0.477-3.477,1,0,1,90,false,stim,true,1,507.3850000000093,1,1,1,55005,WMM2,1389659,false,false,1615,image-keyboard-response,58
true,8,2,3,2,true,d,false,false,0.0-2.0-0.53-0.478-3.478,1,0,1,68,false,stim,false,1,288.79000000003725,1,1,1,55005,WMM2,1391460,false,true,1618,image-keyboard-response,59
true,8,0,3,0,true,q,false,false,0.0-2.0-0.53-0.479-3.479,1,0,1,81,false,stim,false,0,431.02499999990687,1,0,0,55005,WMM2,1393403,false,true,1621,image-keyboard-response,60
true,9,1,1,1,true,z,false,true,0.0-2.0-0.53-0.480-3.480,0,1,0,90,true,stim,false,0,1867.0799999998417,1,0,0,55005,WMM2,1396781,false,false,1624,image-keyboard-response,1
true,9,1,1,1,true,z,false,true,0.0-2.0-0.53-0.481-3.481,0,1,0,90,false,stim,false,0,833.0900000000838,1,0,2,55005,WMM2,1399125,false,false,1627,image-keyboard-response,2
true,9,1,1,1,true,z,false,true,0.0-2.0-0.53-0.482-3.482,0,1,0,90,false,stim,false,0,1948.9399999997113,1,0,2,55005,WMM2,1402585,false,false,1630,image-keyboard-response,3
true,9,1,1,2,false,d,true,false,0.0-2.0-0.53-0.483-3.483,0,1,0,90,false,stim,false,2,447.28000000002794,1,1,1,55005,WMM2,1404541,false,false,1633,image-keyboard-response,4
true,9,2,1,1,false,z,true,true,0.0-2.0-0.53-0.484-3.484,0,1,0,68,false,stim,false,0,473.0950000002049,1,0,2,55005,WMM2,1406524,false,true,1636,image-keyboard-response,5
true,9,0,1,1,false,z,false,false,0.0-2.0-0.53-0.485-3.485,0,1,0,81,false,stim,true,0,4.175000000046566,1,0,0,55005,WMM2,1408039,false,false,1639,image-keyboard-response,6
true,9,1,1,2,false,d,true,false,0.0-2.0-0.54-0.486-3.486,0,1,0,90,false,stim,false,2,290.9949999996461,1,1,1,55005,WMM2,1409842,false,false,1642,image-keyboard-response,7
true,9,2,1,1,false,z,true,false,0.0-2.0-0.54-0.487-3.487,0,1,0,68,false,stim,false,0,496.83499999996275,1,0,0,55005,WMM2,1411849,false,false,1645,image-keyboard-response,8
true,9,0,1,1,false,z,false,true,0.0-2.0-0.54-0.488-3.488,0,1,0,81,false,stim,true,0,224.85499999998137,1,0,0,55005,WMM2,1413587,false,true,1648,image-keyboard-response,9
true,9,0,1,1,false,z,false,false,0.0-2.0-0.54-0.489-3.489,0,1,0,81,false,stim,true,0,371.44499999959953,1,0,2,55005,WMM2,1415471,false,false,1651,image-keyboard-response,10
true,9,1,1,2,false,d,true,false,0.0-2.0-0.54-0.490-3.490,0,1,0,90,false,stim,false,2,351.1699999999255,1,1,1,55005,WMM2,1417334,false,false,1654,image-keyboard-response,11
true,9,2,1,2,true,d,false,true,0.0-2.0-0.54-0.491-3.491,0,1,0,68,false,stim,false,2,382.160000000149,1,1,1,55005,WMM2,1419230,false,false,1657,image-keyboard-response,12
true,9,2,1,1,false,z,true,false,0.0-2.0-0.54-0.492-3.492,0,1,0,68,false,stim,false,0,379.1799999999348,1,0,2,55005,WMM2,1421120,false,false,1660,image-keyboard-response,13
true,9,0,1,1,false,z,false,false,0.0-2.0-0.54-0.493-3.493,0,1,0,81,false,stim,true,0,242.80999999959022,1,0,0,55005,WMM2,1422875,false,false,1663,image-keyboard-response,14
true,9,1,1,1,true,z,false,true,0.0-2.0-0.54-0.494-3.494,0,1,0,90,false,stim,false,0,274.6700000001583,1,0,2,55005,WMM2,1424666,false,false,1666,image-keyboard-response,15
true,9,1,1,2,false,d,true,false,0.0-2.0-0.55-0.495-3.495,0,1,0,90,false,stim,false,2,355.24000000045635,1,1,1,55005,WMM2,1426530,false,false,1669,image-keyboard-response,16
true,9,2,1,2,true,d,false,true,0.0-2.0-0.55-0.496-3.496,0,1,0,68,false,stim,false,2,353.05000000004657,1,1,1,55005,WMM2,1428394,false,false,1672,image-keyboard-response,17
true,9,2,1,1,false,z,true,false,0.0-2.0-0.55-0.497-3.497,0,1,0,68,false,stim,false,0,518.7050000003073,1,0,2,55005,WMM2,1430424,false,false,1675,image-keyboard-response,18
true,9,0,1,1,false,z,false,false,0.0-2.0-0.55-0.498-3.498,0,1,0,81,false,stim,true,0,348.30000000004657,1,0,0,55005,WMM2,1432284,false,false,1678,image-keyboard-response,19
true,9,1,1,1,true,z,false,false,0.0-2.0-0.55-0.499-3.499,0,1,0,90,false,stim,false,0,340.18000000016764,1,0,0,55005,WMM2,1434134,false,true,1681,image-keyboard-response,20
true,9,2,1,2,true,d,false,true,0.0-2.0-0.55-0.500-3.500,0,1,0,68,false,stim,false,2,263.5849999997299,1,1,1,55005,WMM2,1435910,false,false,1684,image-keyboard-response,21
true,9,2,1,1,false,z,true,true,0.0-2.0-0.55-0.501-3.501,0,1,0,68,false,stim,false,0,589.7049999998417,1,0,2,55005,WMM2,1438015,false,true,1687,image-keyboard-response,22
true,9,0,1,1,false,z,false,false,0.0-2.0-0.55-0.502-3.502,0,1,0,81,false,stim,true,0,346.0549999999348,1,0,2,55005,WMM2,1439877,false,false,1690,image-keyboard-response,23
true,9,1,1,1,true,z,false,true,0.0-2.0-0.55-0.503-3.503,0,1,0,90,false,stim,false,0,351.6699999999255,1,0,0,55005,WMM2,1441744,false,false,1693,image-keyboard-response,24
true,9,1,1,1,true,z,false,true,0.0-2.0-0.56-0.504-3.504,0,1,0,90,false,stim,false,0,376.2799999997951,1,0,0,55005,WMM2,1443633,false,false,1696,image-keyboard-response,25
true,9,2,1,1,false,z,true,false,0.0-2.0-0.56-0.505-3.505,0,1,0,68,false,stim,false,0,431.9550000000745,1,0,2,55005,WMM2,1445582,false,false,1699,image-keyboard-response,26
true,9,0,1,2,false,d,true,false,0.0-2.0-0.56-0.506-3.506,0,1,0,81,false,stim,false,2,187.3049999999348,1,1,1,55005,WMM2,1447314,false,false,1702,image-keyboard-response,27
true,9,1,1,2,false,d,true,false,0.0-2.0-0.56-0.507-3.507,0,1,0,90,false,stim,false,2,320.6500000001397,1,1,1,55005,WMM2,1449150,false,false,1705,image-keyboard-response,28
true,9,2,1,1,false,z,true,true,0.0-2.0-0.56-0.508-3.508,0,1,0,68,false,stim,false,0,275.74500000011176,1,0,0,55005,WMM2,1450936,false,true,1708,image-keyboard-response,29
true,9,2,1,1,false,z,true,false,0.0-2.0-0.56-0.509-3.509,0,1,0,68,false,stim,false,0,326.7049999998417,1,0,2,55005,WMM2,1452775,false,false,1711,image-keyboard-response,30
true,9,1,1,2,false,d,true,false,0.0-2.0-0.56-0.510-3.510,0,1,0,90,false,stim,false,2,336.83499999996275,1,1,1,55005,WMM2,1454630,false,false,1714,image-keyboard-response,31
true,9,0,1,1,false,z,false,false,0.0-2.0-0.56-0.511-3.511,0,1,0,81,false,stim,true,0,266.87500000023283,1,0,0,55005,WMM2,1456410,false,false,1717,image-keyboard-response,32
true,9,1,1,1,true,z,false,true,0.0-2.0-0.56-0.512-3.512,0,1,0,90,false,stim,false,0,363.2899999998044,1,0,2,55005,WMM2,1458290,false,false,1720,image-keyboard-response,33
true,9,1,1,1,true,z,false,false,0.0-2.0-0.57-0.513-3.513,0,1,0,90,false,stim,false,0,518.1450000000186,1,0,0,55005,WMM2,1460325,false,true,1723,image-keyboard-response,34
true,9,2,1,1,false,z,true,false,0.0-2.0-0.57-0.514-3.514,0,1,0,68,false,stim,false,0,400.3299999998417,1,0,2,55005,WMM2,1462241,false,false,1726,image-keyboard-response,35
true,9,0,1,2,false,d,true,false,0.0-2.0-0.57-0.515-3.515,0,1,0,81,false,stim,false,2,262.65500000002794,1,1,1,55005,WMM2,1464017,false,false,1729,image-keyboard-response,36
true,9,1,1,1,true,z,false,true,0.0-2.0-0.57-0.516-3.516,0,1,0,90,false,stim,false,0,306.6300000001211,1,0,0,55005,WMM2,1465839,false,false,1732,image-keyboard-response,37
true,9,1,1,1,true,z,false,true,0.0-2.0-0.57-0.517-3.517,0,1,0,90,false,stim,false,0,688.1300000001211,1,0,2,55005,WMM2,1468042,false,false,1735,image-keyboard-response,38
true,9,0,1,2,false,d,true,false,0.0-2.0-0.57-0.518-3.518,0,1,0,81,false,stim,false,2,639.1699999999255,1,1,1,55005,WMM2,1470197,false,false,1738,image-keyboard-response,39
true,9,2,1,1,false,z,true,true,0.0-2.0-0.57-0.519-3.519,0,1,0,68,false,stim,false,0,1115.1800000001676,1,0,2,55005,WMM2,1472830,false,true,1741,image-keyboard-response,40
true,9,2,1,1,false,z,true,false,0.0-2.0-0.57-0.520-3.520,0,1,0,68,false,stim,false,0,77.90499999979511,1,0,0,55005,WMM2,1474422,false,false,1744,image-keyboard-response,41
true,9,1,1,2,false,d,true,true,0.0-2.0-0.57-0.521-3.521,0,1,0,90,false,stim,false,2,8.545000000158325,1,1,1,55005,WMM2,1475959,false,true,1747,image-keyboard-response,42
true,9,0,1,1,false,z,false,false,0.0-2.0-0.58-0.522-3.522,0,1,0,81,false,stim,true,0,417.53000000002794,1,0,0,55005,WMM2,1477894,false,false,1750,image-keyboard-response,43
true,9,1,1,1,true,z,false,true,0.0-2.0-0.58-0.523-3.523,0,1,0,90,false,stim,false,0,368.8149999997113,1,0,0,55005,WMM2,1479780,false,false,1753,image-keyboard-response,44
true,9,1,1,1,true,z,false,false,0.0-2.0-0.58-0.524-3.524,0,1,0,90,false,stim,false,0,516.2749999999069,1,0,0,55005,WMM2,1481810,false,true,1756,image-keyboard-response,45
true,9,0,1,1,false,z,false,false,0.0-2.0-0.58-0.525-3.525,0,1,0,81,false,stim,true,0,566.9550000003073,1,0,2,55005,WMM2,1483894,false,false,1759,image-keyboard-response,46
true,9,2,1,1,false,z,true,false,0.0-2.0-0.58-0.526-3.526,0,1,0,68,false,stim,false,0,337.625,1,0,2,55005,WMM2,1485748,false,false,1762,image-keyboard-response,47
true,9,1,1,2,false,d,true,false,0.0-2.0-0.58-0.527-3.527,0,1,0,90,false,stim,false,2,302.28499999968335,1,1,1,55005,WMM2,1487567,false,false,1765,image-keyboard-response,48
true,9,0,1,2,false,d,true,false,0.0-2.0-0.58-0.528-3.528,0,1,0,81,false,stim,false,2,220.90500000026077,1,1,1,55005,WMM2,1489299,false,false,1768,image-keyboard-response,49
true,9,1,1,1,true,z,false,true,0.0-2.0-0.58-0.529-3.529,0,1,0,90,false,stim,false,0,192.29500000039116,1,0,2,55005,WMM2,1491001,false,false,1771,image-keyboard-response,50
true,9,1,1,2,false,d,true,false,0.0-2.0-0.58-0.530-3.530,0,1,0,90,false,stim,false,2,595.1150000002235,1,1,1,55005,WMM2,1493109,false,false,1774,image-keyboard-response,51
true,9,0,1,2,false,d,true,false,0.0-2.0-0.59-0.531-3.531,0,1,0,81,false,stim,false,2,539.2349999996368,1,1,1,55005,WMM2,1495162,false,false,1777,image-keyboard-response,52
true,9,2,1,1,false,z,true,false,0.0-2.0-0.59-0.532-3.532,0,1,0,68,false,stim,false,0,456.7699999997858,1,0,0,55005,WMM2,1497127,false,false,1780,image-keyboard-response,53
true,9,1,1,1,true,z,false,false,0.0-2.0-0.59-0.533-3.533,0,1,0,90,false,stim,false,0,420.929999999702,1,1,2,55005,WMM2,1499057,false,true,1783,image-keyboard-response,54
true,9,0,1,1,false,z,false,false,0.0-2.0-0.59-0.534-3.534,0,1,0,81,false,stim,true,0,409.63999999989755,1,0,0,55005,WMM2,1500977,false,false,1786,image-keyboard-response,55
true,9,1,1,1,true,z,false,true,0.0-2.0-0.59-0.535-3.535,0,1,0,90,false,stim,false,0,589.2549999998882,1,1,2,55005,WMM2,1503078,false,false,1789,image-keyboard-response,56
true,9,1,1,2,false,d,true,false,0.0-2.0-0.59-0.536-3.536,0,1,0,90,false,stim,false,2,1470.875,1,1,1,55005,WMM2,1506059,false,false,1792,image-keyboard-response,57
true,9,0,1,1,false,z,false,false,0.0-2.0-0.59-0.537-3.537,0,1,0,81,false,stim,true,0,315.59499999997206,1,1,2,55005,WMM2,1507885,false,false,1795,image-keyboard-response,58
true,9,2,1,2,true,d,false,true,0.0-2.0-0.59-0.538-3.538,0,1,0,68,false,stim,false,2,539.304999999702,1,1,1,55005,WMM2,1509937,false,false,1798,image-keyboard-response,59
true,9,2,1,1,false,z,true,false,0.0-2.0-0.59-0.539-3.539,0,1,0,68,false,stim,false,0,535.3599999998696,1,0,0,55005,WMM2,1511994,false,false,1801,image-keyboard-response,60
true,10,1,3,1,true,z,false,true,0.0-2.0-0.60-0.540-3.540,0,1,1,90,true,stim,false,1,601.9099999996834,1,1,2,55005,WMM2,1514107,false,false,1804,image-keyboard-response,1
true,10,0,3,1,false,z,true,false,0.0-2.0-0.60-0.541-3.541,0,1,1,81,false,stim,false,1,369.6449999997858,1,1,2,55005,WMM2,1516006,false,false,1807,image-keyboard-response,2
true,10,1,3,2,false,d,true,false,0.0-2.0-0.60-0.542-3.542,0,1,1,90,false,stim,false,2,1052.2700000000186,1,1,1,55005,WMM2,1518569,false,false,1810,image-keyboard-response,3
true,10,0,3,2,false,d,true,false,0.0-2.0-0.60-0.543-3.543,0,1,1,81,false,stim,false,1,287.7650000001304,1,0,0,55005,WMM2,1520367,false,false,1813,image-keyboard-response,4
true,10,2,3,2,true,d,false,false,0.0-2.0-0.60-0.544-3.544,0,1,1,68,false,stim,false,2,441.6599999999162,1,1,1,55005,WMM2,1522317,false,true,1816,image-keyboard-response,5
true,10,1,3,2,false,d,false,false,0.0-2.0-0.60-0.545-3.545,0,1,1,90,false,stim,true,1,640.0349999999162,1,0,0,55005,WMM2,1524469,false,false,1819,image-keyboard-response,6
true,10,0,3,2,false,d,true,false,0.0-2.0-0.60-0.546-3.546,0,1,1,81,false,stim,false,2,375.6899999999441,1,1,1,55005,WMM2,1526356,false,false,1822,image-keyboard-response,7
true,10,2,3,1,false,z,true,false,0.0-2.0-0.60-0.547-3.547,0,1,1,68,false,stim,false,1,436.3299999998417,1,1,2,55005,WMM2,1528303,false,false,1825,image-keyboard-response,8
true,10,0,3,2,false,d,true,false,0.0-2.0-0.60-0.548-3.548,0,1,1,81,false,stim,false,1,591.1800000004005,1,0,0,55005,WMM2,1530407,false,false,1828,image-keyboard-response,9
true,10,1,3,2,false,d,false,false,0.0-2.0-0.61-0.549-3.549,0,1,1,90,false,stim,true,1,525.8400000003166,1,0,0,55005,WMM2,1532442,false,false,1831,image-keyboard-response,10
true,10,2,3,2,true,d,false,true,0.0-2.0-0.61-0.550-3.550,0,1,1,68,false,stim,false,1,421.80000000004657,1,0,0,55005,WMM2,1534374,false,false,1834,image-keyboard-response,11
true,10,0,3,2,false,d,true,false,0.0-2.0-0.61-0.551-3.551,0,1,1,81,false,stim,false,2,362.9900000002235,1,1,1,55005,WMM2,1536248,false,false,1837,image-keyboard-response,12
true,10,1,3,1,true,z,false,false,0.0-2.0-0.61-0.552-3.552,0,1,1,90,false,stim,false,1,386.5149999996647,1,1,2,55005,WMM2,1538145,false,true,1840,image-keyboard-response,13
true,10,2,3,2,true,d,false,true,0.0-2.0-0.61-0.553-3.553,0,1,1,68,false,stim,false,1,299.47500000032596,1,0,0,55005,WMM2,1539952,false,false,1843,image-keyboard-response,14
true,10,1,3,2,false,d,true,false,0.0-2.0-0.61-0.554-3.554,0,1,1,90,false,stim,false,2,462.46499999961816,1,1,1,55005,WMM2,1541927,false,false,1846,image-keyboard-response,15
true,10,0,3,2,false,d,true,false,0.0-2.0-0.61-0.555-3.555,0,1,1,81,false,stim,false,2,322.53500000038184,1,1,1,55005,WMM2,1543759,false,false,1849,image-keyboard-response,16
true,10,1,3,1,true,z,false,true,0.0-2.0-0.61-0.556-3.556,0,1,1,90,false,stim,false,1,242.4700000002049,1,1,2,55005,WMM2,1545513,false,false,1852,image-keyboard-response,17
true,10,1,3,1,true,z,false,false,0.0-2.0-0.61-0.557-3.557,0,1,1,90,false,stim,false,1,341.71999999997206,1,1,2,55005,WMM2,1547368,false,true,1855,image-keyboard-response,18
true,10,2,3,1,false,z,true,false,0.0-2.0-0.62-0.558-3.558,0,1,1,68,false,stim,false,1,302.58499999996275,1,1,2,55005,WMM2,1549183,false,false,1858,image-keyboard-response,19
true,10,0,3,2,false,d,true,false,0.0-2.0-0.62-0.559-3.559,0,1,1,81,false,stim,false,2,333.6199999998789,1,1,1,55005,WMM2,1551026,false,false,1861,image-keyboard-response,20
true,10,1,3,2,false,d,true,false,0.0-2.0-0.62-0.560-3.560,0,1,1,90,false,stim,false,2,307.65500000002794,1,1,1,55005,WMM2,1552844,false,false,1864,image-keyboard-response,21
true,10,2,3,2,true,d,false,true,0.0-2.0-0.62-0.561-3.561,0,1,1,68,false,stim,false,1,511.79000000003725,1,0,0,55005,WMM2,1554872,false,false,1867,image-keyboard-response,22
true,10,2,3,2,true,d,false,true,0.0-2.0-0.62-0.562-3.562,0,1,1,68,false,stim,false,2,591.6100000001024,1,1,1,55005,WMM2,1556981,false,false,1870,image-keyboard-response,23
true,10,2,3,2,true,d,false,true,0.0-2.0-0.62-0.563-3.563,0,1,1,68,false,stim,false,1,1791.7849999999162,1,0,0,55005,WMM2,1560292,false,false,1873,image-keyboard-response,24
true,10,1,3,1,true,z,false,true,0.0-2.0-0.62-0.564-3.564,0,1,1,90,false,stim,false,1,606.9699999997392,1,1,2,55005,WMM2,1562413,false,false,1876,image-keyboard-response,25
true,10,0,3,1,false,z,true,false,0.0-2.0-0.62-0.565-3.565,0,1,1,81,false,stim,false,1,816.3850000000093,1,1,2,55005,WMM2,1564747,false,false,1879,image-keyboard-response,26
true,10,1,3,2,false,d,false,false,0.0-2.0-0.62-0.566-3.566,0,1,1,90,false,stim,true,1,405.6350000000093,1,0,0,55005,WMM2,1566670,false,false,1882,image-keyboard-response,27
true,10,2,3,1,false,z,true,false,0.0-2.0-0.63-0.567-3.567,0,1,1,68,false,stim,false,1,345.10000000009313,1,1,2,55005,WMM2,1568531,false,false,1885,image-keyboard-response,28
true,10,0,3,1,false,z,true,false,0.0-2.0-0.63-0.568-3.568,0,1,1,81,false,stim,false,1,376.8549999999814,1,1,2,55005,WMM2,1570425,false,false,1888,image-keyboard-response,29
true,10,1,3,2,false,d,false,false,0.0-2.0-0.63-0.569-3.569,0,1,1,90,false,stim,true,1,349.41000000038184,1,0,0,55005,WMM2,1572289,false,false,1891,image-keyboard-response,30
true,10,2,3,1,false,z,true,false,0.0-2.0-0.63-0.570-3.570,0,1,1,68,false,stim,false,1,453.6899999997113,1,1,2,55005,WMM2,1574261,false,false,1894,image-keyboard-response,31
true,10,1,3,2,false,d,true,false,0.0-2.0-0.63-0.571-3.571,0,1,1,90,false,stim,false,2,349.3800000001211,1,1,1,55005,WMM2,1576127,false,false,1897,image-keyboard-response,32
true,10,0,3,2,false,d,true,false,0.0-2.0-0.63-0.572-3.572,0,1,1,81,false,stim,false,2,342.0900000000838,1,1,1,55005,WMM2,1577982,false,false,1900,image-keyboard-response,33
true,10,1,3,2,false,d,true,false,0.0-2.0-0.63-0.573-3.573,0,1,1,90,false,stim,false,2,377.06500000017695,1,1,1,55005,WMM2,1579896,false,false,1903,image-keyboard-response,34
true,10,0,3,2,false,d,true,false,0.0-2.0-0.63-0.574-3.574,0,1,1,81,false,stim,false,1,165.01500000013039,1,0,0,55005,WMM2,1581573,false,false,1906,image-keyboard-response,35
true,10,0,3,2,false,d,true,false,0.0-2.0-0.63-0.575-3.575,0,1,1,81,false,stim,false,1,885.375,1,0,0,55005,WMM2,1583975,false,false,1909,image-keyboard-response,36
true,10,1,3,2,false,d,true,false,0.0-2.0-0.64-0.576-3.576,0,1,1,90,false,stim,false,2,348.5850000001956,1,1,1,55005,WMM2,1585841,false,false,1912,image-keyboard-response,37
true,10,2,3,1,false,z,true,false,0.0-2.0-0.64-0.577-3.577,0,1,1,68,false,stim,false,1,115.35000000009313,1,1,2,55005,WMM2,1587474,false,false,1915,image-keyboard-response,38
true,10,1,3,1,true,z,false,true,0.0-2.0-0.64-0.578-3.578,0,1,1,90,false,stim,false,1,223.53499999991618,1,1,2,55005,WMM2,1589215,false,false,1918,image-keyboard-response,39
true,10,1,3,2,false,d,true,false,0.0-2.0-0.64-0.579-3.579,0,1,1,90,false,stim,false,2,687.089999999851,1,1,1,55005,WMM2,1591416,false,false,1921,image-keyboard-response,40
true,10,0,3,2,false,d,true,false,0.0-2.0-0.64-0.580-3.580,0,1,1,81,false,stim,false,1,133.76500000013039,1,0,0,55005,WMM2,1593062,false,false,1924,image-keyboard-response,41
true,10,2,3,2,true,d,false,true,0.0-2.0-0.64-0.581-3.581,0,1,1,68,false,stim,false,2,261.79999999981374,1,1,1,55005,WMM2,1594842,false,false,1927,image-keyboard-response,42
true,10,1,3,2,false,d,false,false,0.0-2.0-0.64-0.582-3.582,0,1,1,90,false,stim,true,1,815.6599999999162,1,0,0,55005,WMM2,1597173,false,false,1930,image-keyboard-response,43
true,10,0,3,2,false,d,true,true,0.0-2.0-0.64-0.583-3.583,0,1,1,81,false,stim,false,1,384.9650000000838,1,0,0,55005,WMM2,1599068,false,true,1933,image-keyboard-response,44
true,10,1,3,1,true,z,false,true,0.0-2.0-0.64-0.584-3.584,0,1,1,90,false,stim,false,1,689.8249999999534,1,1,2,55005,WMM2,1601275,false,false,1936,image-keyboard-response,45
true,10,1,3,1,true,z,false,true,0.0-2.0-0.65-0.585-3.585,0,1,1,90,false,stim,false,1,783.4899999997579,1,1,2,55005,WMM2,1603576,false,false,1939,image-keyboard-response,46
true,10,1,3,1,true,z,false,true,0.0-2.0-0.65-0.586-3.586,0,1,1,90,false,stim,false,1,416.6700000001583,1,1,2,55005,WMM2,1605511,false,false,1942,image-keyboard-response,47
