answered,blockNum,choice,condition,corResp,correct,correct_response,explo,fb,internal_node_id,isStable_1,isStable_2,isStable_3,key_press,newBlock,part,persev,persevResp,rt,sessNum,stableAS,stimulus,subject,task,time_elapsed,training,trap,trial_index,trial_type,trialsInBlock
true,1,0,0,1,false,z,true,false,0.0-2.0-0.0-0.0-3.0,0,0,0,81,true,stim,false,-1,1003.0000000000291,3,0,2,57493,WMM1,187630,false,false,227,image-keyboard-response,1
true,1,1,0,0,false,q,true,false,0.0-2.0-0.0-0.1-3.1,0,0,0,90,false,stim,false,-1,650.0,3,0,0,57493,WMM1,189787,false,false,230,image-keyboard-response,2
true,1,1,0,0,false,q,true,false,0.0-2.0-0.0-0.2-3.2,0,0,0,90,false,stim,false,-1,661.0,3,0,1,57493,WMM1,191953,false,false,233,image-keyboard-response,3
true,1,2,0,0,false,q,true,false,0.0-2.0-0.0-0.3-3.3,0,0,0,68,false,stim,false,-1,728.9999999999709,3,0,1,57493,WMM1,194187,false,false,236,image-keyboard-response,4
true,1,0,0,0,true,q,false,true,0.0-2.0-0.0-0.4-3.4,0,0,0,81,false,stim,false,-1,1067.0,3,0,0,57493,WMM1,196759,false,false,239,image-keyboard-response,5
true,1,0,0,1,false,z,true,false,0.0-2.0-0.0-0.5-3.5,0,0,0,81,false,stim,false,-1,752.0,3,0,2,57493,WMM1,199015,false,false,242,image-keyboard-response,6
true,1,2,0,1,false,z,true,true,0.0-2.0-0.0-0.6-3.6,0,0,0,68,false,stim,false,-1,855.0000000000291,3,0,2,57493,WMM1,201374,false,true,245,image-keyboard-response,7
true,1,0,0,0,true,q,false,true,0.0-2.0-0.0-0.7-3.7,0,0,0,81,false,stim,false,-1,441.0000000000291,3,0,1,57493,WMM1,203321,false,false,248,image-keyboard-response,8
true,1,0,0,0,true,q,false,true,0.0-2.0-0.0-0.8-3.8,0,0,0,81,false,stim,false,-1,677.0,3,0,0,57493,WMM1,205503,false,false,251,image-keyboard-response,9
true,1,2,0,1,false,z,true,false,0.0-2.0-0.1-0.9-3.9,0,0,0,68,false,stim,false,-1,993.0,3,0,2,57493,WMM1,208003,false,false,254,image-keyboard-response,10
true,1,0,0,0,true,q,false,true,0.0-2.0-0.1-0.10-3.10,0,0,0,81,false,stim,false,-1,453.0,3,0,1,57493,WMM1,209961,false,false,257,image-keyboard-response,11
true,1,2,0,1,false,z,true,false,0.0-2.0-0.1-0.11-3.11,0,0,0,68,false,stim,false,-1,905.0,3,0,2,57493,WMM1,212371,false,false,260,image-keyboard-response,12
true,1,0,0,0,true,q,false,true,0.0-2.0-0.1-0.12-3.12,0,0,0,81,false,stim,false,-1,826.0,3,0,0,57493,WMM1,214704,false,false,263,image-keyboard-response,13
true,1,0,0,0,true,q,false,true,0.0-2.0-0.1-0.13-3.13,0,0,0,81,false,stim,false,-1,536.0,3,0,1,57493,WMM1,216746,false,false,266,image-keyboard-response,14
true,1,0,0,0,true,q,false,true,0.0-2.0-0.1-0.14-3.14,0,0,0,81,false,stim,false,-1,496.0,3,0,0,57493,WMM1,218749,false,false,269,image-keyboard-response,15
true,1,0,0,0,true,q,false,true,0.0-2.0-0.1-0.15-3.15,0,0,0,81,false,stim,false,-1,872.0,3,0,1,57493,WMM1,221127,false,false,272,image-keyboard-response,16
true,1,1,0,1,true,z,false,true,0.0-2.0-0.1-0.16-3.16,0,0,0,90,false,stim,false,-1,535.0,3,0,2,57493,WMM1,223169,false,false,275,image-keyboard-response,17
true,1,0,0,0,true,q,false,false,0.0-2.0-0.1-0.17-3.17,0,0,0,81,false,stim,false,-1,462.0,3,0,0,57493,WMM1,225139,false,true,278,image-keyboard-response,18
true,1,1,0,1,true,z,false,true,0.0-2.0-0.2-0.18-3.18,0,0,0,90,false,stim,false,-1,915.0,3,0,2,57493,WMM1,227560,false,false,281,image-keyboard-response,19
true,1,0,0,0,true,q,false,true,0.0-2.0-0.2-0.19-3.19,0,0,0,81,false,stim,false,-1,860.9999999999709,3,0,1,57493,WMM1,229926,false,false,284,image-keyboard-response,20
true,1,0,0,0,true,q,false,true,0.0-2.0-0.2-0.20-3.20,0,0,0,81,false,stim,false,-1,469.0,3,0,0,57493,WMM1,231902,false,false,287,image-keyboard-response,21
true,1,1,0,1,true,z,false,true,0.0-2.0-0.2-0.21-3.21,0,0,0,90,false,stim,false,-1,861.0,3,1,2,57493,WMM1,234269,false,false,290,image-keyboard-response,22
true,1,0,0,0,true,q,false,true,0.0-2.0-0.2-0.22-3.22,0,0,0,81,false,stim,false,-1,758.0,3,0,1,57493,WMM1,236534,false,false,293,image-keyboard-response,23
true,1,0,0,0,true,q,false,true,0.0-2.0-0.2-0.23-3.23,0,0,0,81,false,stim,false,-1,663.0,3,0,0,57493,WMM1,238705,false,false,296,image-keyboard-response,24
true,1,1,0,1,true,z,false,true,0.0-2.0-0.2-0.24-3.24,0,0,0,90,false,stim,false,-1,831.0,3,1,2,57493,WMM1,241043,false,false,299,image-keyboard-response,25
true,1,0,0,0,true,q,false,true,0.0-2.0-0.2-0.25-3.25,0,0,0,81,false,stim,false,-1,724.0,3,0,1,57493,WMM1,243276,false,false,302,image-keyboard-response,26
true,1,1,0,0,false,q,true,false,0.0-2.0-0.2-0.26-3.26,0,0,0,90,false,stim,false,-1,1117.999999999971,3,0,0,57493,WMM1,245899,false,false,305,image-keyboard-response,27
true,1,0,0,0,true,q,false,true,0.0-2.0-0.3-0.27-3.27,0,0,0,81,false,stim,false,-1,727.9999999999709,3,0,1,57493,WMM1,248134,false,false,308,image-keyboard-response,28
true,1,0,0,0,true,q,false,true,0.0-2.0-0.3-0.28-3.28,0,0,0,81,false,stim,false,-1,815.0,3,0,1,57493,WMM1,250455,false,false,311,image-keyboard-response,29
true,1,1,0,1,true,z,false,true,0.0-2.0-0.3-0.29-3.29,0,0,0,90,false,stim,false,-1,855.0000000000291,3,1,2,57493,WMM1,252816,false,false,314,image-keyboard-response,30
true,2,1,3,1,true,z,false,true,0.0-2.0-0.3-0.30-3.30,0,0,1,90,true,stim,false,1,1042.000000000029,3,1,2,57493,WMM1,255364,false,false,317,image-keyboard-response,1
true,2,0,3,1,false,z,false,false,0.0-2.0-0.3-0.31-3.31,0,0,1,81,false,stim,true,0,593.0,3,0,0,57493,WMM1,257463,false,false,320,image-keyboard-response,2
true,2,0,3,1,false,z,false,false,0.0-2.0-0.3-0.32-3.32,0,0,1,81,false,stim,true,0,784.0,3,0,0,57493,WMM1,259754,false,false,323,image-keyboard-response,3
true,2,1,3,1,true,z,false,true,0.0-2.0-0.3-0.33-3.33,0,0,1,90,false,stim,false,1,726.0,3,1,2,57493,WMM1,261987,false,false,326,image-keyboard-response,4
true,2,2,3,1,false,z,true,true,0.0-2.0-0.3-0.34-3.34,0,0,1,68,false,stim,false,0,927.0000000000582,3,0,0,57493,WMM1,264421,false,true,329,image-keyboard-response,5
true,2,0,3,2,false,d,false,false,0.0-2.0-0.3-0.35-3.35,0,0,1,81,false,stim,true,0,1006.0,3,0,1,57493,WMM1,266932,false,false,332,image-keyboard-response,6
true,2,1,3,1,true,z,false,true,0.0-2.0-0.4-0.36-3.36,0,0,1,90,false,stim,false,1,1273.0000000000582,3,1,2,57493,WMM1,269713,false,false,335,image-keyboard-response,7
true,2,2,3,1,false,z,true,false,0.0-2.0-0.4-0.37-3.37,0,0,1,68,false,stim,false,0,489.0,3,0,0,57493,WMM1,271708,false,false,338,image-keyboard-response,8
true,2,1,3,1,true,z,false,true,0.0-2.0-0.4-0.38-3.38,0,0,1,90,false,stim,false,1,1399.9999999999418,3,1,2,57493,WMM1,274613,false,false,341,image-keyboard-response,9
true,2,0,3,1,false,z,false,false,0.0-2.0-0.4-0.39-3.39,0,0,1,81,false,stim,true,0,689.0000000000582,3,0,0,57493,WMM1,276808,false,false,344,image-keyboard-response,10
true,2,2,3,2,true,d,false,true,0.0-2.0-0.4-0.40-3.40,0,0,1,68,false,stim,false,0,1042.9999999999418,3,0,1,57493,WMM1,279356,false,false,347,image-keyboard-response,11
true,2,1,3,1,true,z,false,true,0.0-2.0-0.4-0.41-3.41,0,0,1,90,false,stim,false,1,1267.9999999999418,3,1,2,57493,WMM1,282129,false,false,350,image-keyboard-response,12
true,2,2,3,1,false,z,true,false,0.0-2.0-0.4-0.42-3.42,0,0,1,68,false,stim,false,0,544.0,3,0,0,57493,WMM1,284181,false,false,353,image-keyboard-response,13
true,2,2,3,2,true,d,false,true,0.0-2.0-0.4-0.43-3.43,0,0,1,68,false,stim,false,0,1073.9999999999418,3,0,1,57493,WMM1,286763,false,false,356,image-keyboard-response,14
true,2,2,3,2,true,d,false,true,0.0-2.0-0.4-0.44-3.44,0,0,1,68,false,stim,false,0,1938.0,3,0,1,57493,WMM1,290206,false,false,359,image-keyboard-response,15
true,2,2,3,2,true,d,false,true,0.0-2.0-0.5-0.45-3.45,0,0,1,68,false,stim,false,0,1536.0,3,0,1,57493,WMM1,293249,false,false,362,image-keyboard-response,16
true,2,2,3,2,true,d,false,true,0.0-2.0-0.5-0.46-3.46,0,0,1,68,false,stim,false,0,966.0,3,0,1,57493,WMM1,295720,false,false,365,image-keyboard-response,17
true,2,1,3,1,true,z,false,true,0.0-2.0-0.5-0.47-3.47,0,0,1,90,false,stim,false,0,567.0,3,0,0,57493,WMM1,297793,false,false,368,image-keyboard-response,18
true,2,2,3,2,true,d,false,true,0.0-2.0-0.5-0.48-3.48,0,0,1,68,false,stim,false,0,1006.0,3,0,1,57493,WMM1,300305,false,false,371,image-keyboard-response,19
true,2,1,3,1,true,z,false,true,0.0-2.0-0.5-0.49-3.49,0,0,1,90,false,stim,false,1,1240.9999999999418,3,1,2,57493,WMM1,303050,false,false,374,image-keyboard-response,20
true,2,1,3,1,true,z,false,true,0.0-2.0-0.5-0.50-3.50,0,0,1,90,false,stim,false,0,1707.0,3,0,0,57493,WMM1,306264,false,false,377,image-keyboard-response,21
true,2,1,3,1,true,z,false,true,0.0-2.0-0.5-0.51-3.51,0,0,1,90,false,stim,false,1,1225.0,3,0,2,57493,WMM1,308995,false,false,380,image-keyboard-response,22
true,2,1,3,1,true,z,false,true,0.0-2.0-0.5-0.52-3.52,0,0,1,90,false,stim,false,0,786.0,3,1,0,57493,WMM1,311286,false,false,383,image-keyboard-response,23
true,2,1,3,1,true,z,false,false,0.0-2.0-0.5-0.53-3.53,0,0,1,90,false,stim,false,1,715.0,3,0,2,57493,WMM1,313508,false,true,386,image-keyboard-response,24
true,2,1,3,1,true,z,false,false,0.0-2.0-0.6-0.54-3.54,0,0,1,90,false,stim,false,0,883.0,3,1,0,57493,WMM1,315897,false,true,389,image-keyboard-response,25
true,2,0,3,2,false,d,false,true,0.0-2.0-0.6-0.55-3.55,0,0,1,81,false,stim,true,0,394.0000000000582,3,0,1,57493,WMM1,317798,false,true,392,image-keyboard-response,26
true,2,0,3,2,false,d,false,false,0.0-2.0-0.6-0.56-3.56,0,0,1,81,false,stim,true,0,585.0,3,0,1,57493,WMM1,319889,false,false,395,image-keyboard-response,27
true,2,0,3,1,false,z,false,false,0.0-2.0-0.6-0.57-3.57,0,0,1,81,false,stim,true,0,819.0,3,1,0,57493,WMM1,322215,false,false,398,image-keyboard-response,28
true,2,2,3,2,true,d,false,false,0.0-2.0-0.6-0.58-3.58,0,0,1,68,false,stim,false,0,952.0,3,0,1,57493,WMM1,324675,false,true,401,image-keyboard-response,29
true,2,0,3,1,false,z,true,false,0.0-2.0-0.6-0.59-3.59,0,0,1,81,false,stim,false,1,834.0,3,0,2,57493,WMM1,327015,false,false,404,image-keyboard-response,30
true,2,1,3,1,true,z,false,true,0.0-2.0-0.6-0.60-3.60,0,0,1,90,false,stim,false,1,367.0000000000582,3,0,2,57493,WMM1,328886,false,false,407,image-keyboard-response,31
true,3,2,3,1,false,z,true,true,0.0-2.0-0.6-0.61-3.61,1,0,0,68,true,stim,false,1,603.0,3,1,0,57493,WMM1,330996,false,true,410,image-keyboard-response,1
true,3,1,3,2,false,d,false,false,0.0-2.0-0.6-0.62-3.62,1,0,0,90,false,stim,true,1,683.0000000000582,3,0,2,57493,WMM1,333185,false,false,413,image-keyboard-response,2
true,3,1,3,2,false,d,false,false,0.0-2.0-0.7-0.63-3.63,1,0,0,90,false,stim,true,1,592.0,3,0,2,57493,WMM1,335283,false,false,416,image-keyboard-response,3
true,3,2,3,2,true,d,false,false,0.0-2.0-0.7-0.64-3.64,1,0,0,68,false,stim,false,1,482.0,3,0,2,57493,WMM1,337271,false,true,419,image-keyboard-response,4
true,3,2,3,0,false,q,false,true,0.0-2.0-0.7-0.65-3.65,1,0,0,68,false,stim,true,2,834.0,3,0,1,57493,WMM1,339610,false,true,422,image-keyboard-response,5
true,3,2,3,1,false,z,true,true,0.0-2.0-0.7-0.66-3.66,1,0,0,68,false,stim,false,1,716.0,3,1,0,57493,WMM1,341833,false,true,425,image-keyboard-response,6
true,3,2,3,1,false,z,true,false,0.0-2.0-0.7-0.67-3.67,1,0,0,68,false,stim,false,1,632.0,3,1,0,57493,WMM1,343971,false,false,428,image-keyboard-response,7
true,3,2,3,0,false,q,false,false,0.0-2.0-0.7-0.68-3.68,1,0,0,68,false,stim,true,2,510.0,3,0,1,57493,WMM1,345987,false,false,431,image-keyboard-response,8
true,3,0,3,0,true,q,false,true,0.0-2.0-0.7-0.69-3.69,1,0,0,81,false,stim,false,2,526.0,3,0,1,57493,WMM1,348020,false,false,434,image-keyboard-response,9
true,3,0,3,2,false,d,true,false,0.0-2.0-0.7-0.70-3.70,1,0,0,81,false,stim,false,1,498.0,3,0,2,57493,WMM1,350023,false,false,437,image-keyboard-response,10
true,3,0,3,1,false,z,true,true,0.0-2.0-0.7-0.71-3.71,1,0,0,81,false,stim,false,1,703.0,3,1,0,57493,WMM1,352232,false,true,440,image-keyboard-response,11
true,3,1,3,0,false,q,true,false,0.0-2.0-0.8-0.72-3.72,1,0,0,90,false,stim,false,2,687.0,3,0,1,57493,WMM1,354426,false,false,443,image-keyboard-response,12
true,3,2,3,2,true,d,false,true,0.0-2.0-0.8-0.73-3.73,1,0,0,68,false,stim,false,1,1877.0,3,0,2,57493,WMM1,357809,false,false,446,image-keyboard-response,13
true,3,0,3,0,true,q,false,true,0.0-2.0-0.8-0.74-3.74,1,0,0,81,false,stim,false,2,505.0,3,0,1,57493,WMM1,359819,false,false,449,image-keyboard-response,14
true,3,0,3,1,false,z,true,false,0.0-2.0-0.8-0.75-3.75,1,0,0,81,false,stim,false,1,522.0,3,1,0,57493,WMM1,361847,false,false,452,image-keyboard-response,15
true,3,1,3,1,true,z,false,true,0.0-2.0-0.8-0.76-3.76,1,0,0,90,false,stim,false,1,1287.0,3,1,0,57493,WMM1,364642,false,false,455,image-keyboard-response,16
true,3,2,3,2,true,d,false,true,0.0-2.0-0.8-0.77-3.77,1,0,0,68,false,stim,false,1,791.0,3,0,2,57493,WMM1,366939,false,false,458,image-keyboard-response,17
true,3,2,3,2,true,d,false,true,0.0-2.0-0.8-0.78-3.78,1,0,0,68,false,stim,false,1,818.0000000000582,3,0,2,57493,WMM1,369263,false,false,461,image-keyboard-response,18
true,3,0,3,0,true,q,false,true,0.0-2.0-0.8-0.79-3.79,1,0,0,81,false,stim,false,2,547.0,3,0,1,57493,WMM1,371315,false,false,464,image-keyboard-response,19
true,3,1,3,1,true,z,false,true,0.0-2.0-0.8-0.80-3.80,1,0,0,90,false,stim,false,1,559.0,3,1,0,57493,WMM1,373381,false,false,467,image-keyboard-response,20
true,3,1,3,1,true,z,false,true,0.0-2.0-0.9-0.81-3.81,1,0,0,90,false,stim,false,1,1101.0,3,0,0,57493,WMM1,375990,false,false,470,image-keyboard-response,21
true,3,2,3,2,true,d,false,false,0.0-2.0-0.9-0.82-3.82,1,0,0,68,false,stim,false,1,1035.0,3,0,2,57493,WMM1,378529,false,true,473,image-keyboard-response,22
true,3,0,3,0,true,q,false,true,0.0-2.0-0.9-0.83-3.83,1,0,0,81,false,stim,false,2,622.0,3,0,1,57493,WMM1,380658,false,false,476,image-keyboard-response,23
true,3,0,3,0,true,q,false,true,0.0-2.0-0.9-0.84-3.84,1,0,0,81,false,stim,false,2,744.0,3,0,1,57493,WMM1,382909,false,false,479,image-keyboard-response,24
true,3,0,3,0,true,q,false,true,0.0-2.0-0.9-0.85-3.85,1,0,0,81,false,stim,false,2,621.0,3,0,1,57493,WMM1,385035,false,false,482,image-keyboard-response,25
true,3,1,3,1,true,z,false,true,0.0-2.0-0.9-0.86-3.86,1,0,0,90,false,stim,false,1,1122.0,3,0,0,57493,WMM1,387664,false,false,485,image-keyboard-response,26
true,3,2,3,2,true,d,false,true,0.0-2.0-0.9-0.87-3.87,1,0,0,68,false,stim,false,1,985.0,3,0,2,57493,WMM1,390155,false,false,488,image-keyboard-response,27
true,3,1,3,1,true,z,false,true,0.0-2.0-0.9-0.88-3.88,1,0,0,90,false,stim,false,1,769.0,3,0,0,57493,WMM1,392430,false,false,491,image-keyboard-response,28
true,3,2,3,2,true,d,false,true,0.0-2.0-0.9-0.89-3.89,1,0,0,68,false,stim,false,1,988.0,3,0,2,57493,WMM1,394925,false,false,494,image-keyboard-response,29
true,3,2,3,2,true,d,false,true,0.0-2.0-0.10-0.90-3.90,1,0,0,68,false,stim,false,1,1266.0,3,0,2,57493,WMM1,397698,false,false,497,image-keyboard-response,30
true,4,0,1,2,false,d,false,false,0.0-2.0-0.10-0.91-3.91,0,0,0,81,true,stim,true,0,1225.0,3,0,1,57493,WMM1,400431,false,false,500,image-keyboard-response,1
true,4,2,1,1,false,z,false,false,0.0-2.0-0.10-0.92-3.92,0,0,0,68,false,stim,true,2,994.0,3,0,2,57493,WMM1,402934,false,false,503,image-keyboard-response,2
true,4,1,1,2,false,d,true,false,0.0-2.0-0.10-0.93-3.93,0,0,0,90,false,stim,false,0,1109.9999999999418,3,0,1,57493,WMM1,405551,false,false,506,image-keyboard-response,3
true,4,0,1,0,true,q,false,false,0.0-2.0-0.10-0.94-3.94,0,0,0,81,false,stim,false,1,433.0,3,0,0,57493,WMM1,407491,false,true,509,image-keyboard-response,4
true,4,2,1,1,false,z,false,false,0.0-2.0-0.10-0.95-3.95,0,0,0,68,false,stim,true,2,643.9999999999418,3,0,2,57493,WMM1,409640,false,false,512,image-keyboard-response,5
true,4,2,1,0,false,q,true,false,0.0-2.0-0.10-0.96-3.96,0,0,0,68,false,stim,false,1,725.0,3,0,0,57493,WMM1,411873,false,false,515,image-keyboard-response,6
true,4,2,1,2,true,d,false,true,0.0-2.0-0.10-0.97-3.97,0,0,0,68,false,stim,false,0,508.0,3,0,1,57493,WMM1,413886,false,false,518,image-keyboard-response,7
true,4,0,1,0,true,q,false,true,0.0-2.0-0.10-0.98-3.98,0,0,0,81,false,stim,false,1,531.0,3,0,0,57493,WMM1,415923,false,false,521,image-keyboard-response,8
true,4,1,1,1,true,z,false,true,0.0-2.0-0.11-0.99-3.99,0,0,0,90,false,stim,false,2,425.0,3,0,2,57493,WMM1,417854,false,false,524,image-keyboard-response,9
true,4,0,1,0,true,q,false,true,0.0-2.0-0.11-0.100-3.100,0,0,0,81,false,stim,false,1,634.9999999999418,3,0,0,57493,WMM1,419995,false,false,527,image-keyboard-response,10
true,4,2,1,2,true,d,false,true,0.0-2.0-0.11-0.101-3.101,0,0,0,68,false,stim,false,0,941.9999999999418,3,0,1,57493,WMM1,422444,false,false,530,image-keyboard-response,11
true,4,0,1,1,false,z,true,false,0.0-2.0-0.11-0.102-3.102,0,0,0,81,false,stim,false,2,733.0,3,0,2,57493,WMM1,424683,false,false,533,image-keyboard-response,12
true,4,0,1,0,true,q,false,true,0.0-2.0-0.11-0.103-3.103,0,0,0,81,false,stim,false,1,461.0,3,0,0,57493,WMM1,426649,false,false,536,image-keyboard-response,13
true,4,2,1,2,true,d,false,false,0.0-2.0-0.11-0.104-3.104,0,0,0,68,false,stim,false,0,680.0,3,0,1,57493,WMM1,428834,false,true,539,image-keyboard-response,14
true,4,0,1,0,true,q,false,true,0.0-2.0-0.11-0.105-3.105,0,0,0,81,false,stim,false,1,626.9999999999418,3,0,0,57493,WMM1,430968,false,false,542,image-keyboard-response,15
true,4,1,1,1,true,z,false,true,0.0-2.0-0.11-0.106-3.106,0,0,0,90,false,stim,false,2,515.0000000000582,3,0,2,57493,WMM1,432990,false,false,545,image-keyboard-response,16
true,4,2,1,2,true,d,false,true,0.0-2.0-0.11-0.107-3.107,0,0,0,68,false,stim,false,0,530.0,3,0,1,57493,WMM1,435029,false,false,548,image-keyboard-response,17
true,4,0,1,0,true,q,false,true,0.0-2.0-0.12-0.108-3.108,0,0,0,81,false,stim,false,1,538.0000000000582,3,0,0,57493,WMM1,437074,false,false,551,image-keyboard-response,18
true,4,1,1,0,false,q,false,true,0.0-2.0-0.12-0.109-3.109,0,0,0,90,false,stim,true,1,496.0,3,0,0,57493,WMM1,439077,false,true,554,image-keyboard-response,19
true,4,2,1,2,true,d,false,true,0.0-2.0-0.12-0.110-3.110,0,0,0,68,false,stim,false,0,1507.0000000000582,3,0,1,57493,WMM1,442091,false,false,557,image-keyboard-response,20
true,4,0,1,0,true,q,false,true,0.0-2.0-0.12-0.111-3.111,0,0,0,81,false,stim,false,1,514.9999999999418,3,0,0,57493,WMM1,444113,false,false,560,image-keyboard-response,21
true,4,1,1,1,true,z,false,true,0.0-2.0-0.12-0.112-3.112,0,0,0,90,false,stim,false,2,700.0,3,0,2,57493,WMM1,446322,false,false,563,image-keyboard-response,22
true,4,1,1,1,true,z,false,true,0.0-2.0-0.12-0.113-3.113,0,0,0,90,false,stim,false,2,911.0,3,0,2,57493,WMM1,448740,false,false,566,image-keyboard-response,23
true,4,2,1,2,true,d,false,true,0.0-2.0-0.12-0.114-3.114,0,0,0,68,false,stim,false,0,845.0000000000582,3,0,1,57493,WMM1,451092,false,false,569,image-keyboard-response,24
true,4,1,1,1,true,z,false,true,0.0-2.0-0.12-0.115-3.115,0,0,0,90,false,stim,false,2,901.0,3,0,2,57493,WMM1,453501,false,false,572,image-keyboard-response,25
true,4,2,1,2,true,d,false,true,0.0-2.0-0.12-0.116-3.116,0,0,0,68,false,stim,false,0,1101.0,3,0,1,57493,WMM1,456109,false,false,575,image-keyboard-response,26
true,4,1,1,1,true,z,false,true,0.0-2.0-0.13-0.117-3.117,0,0,0,90,false,stim,false,2,910.0,3,0,2,57493,WMM1,458524,false,false,578,image-keyboard-response,27
true,4,0,1,0,true,q,false,true,0.0-2.0-0.13-0.118-3.118,0,0,0,81,false,stim,false,1,830.0000000000582,3,0,0,57493,WMM1,460861,false,false,581,image-keyboard-response,28
true,4,2,1,2,true,d,false,true,0.0-2.0-0.13-0.119-3.119,0,0,0,68,false,stim,false,0,1004.0000000000582,3,0,1,57493,WMM1,463373,false,false,584,image-keyboard-response,29
true,4,1,1,1,true,z,false,true,0.0-2.0-0.13-0.120-3.120,0,0,0,90,false,stim,false,2,1195.0000000000582,3,0,2,57493,WMM1,466075,false,false,587,image-keyboard-response,30
true,4,1,1,1,true,z,false,false,0.0-2.0-0.13-0.121-3.121,0,0,0,90,false,stim,false,2,696.0,3,0,2,57493,WMM1,468278,false,true,590,image-keyboard-response,31
true,4,0,1,0,true,q,false,true,0.0-2.0-0.13-0.122-3.122,0,0,0,81,false,stim,false,1,928.0,3,0,0,57493,WMM1,470713,false,false,593,image-keyboard-response,32
true,4,0,1,0,true,q,false,false,0.0-2.0-0.13-0.123-3.123,0,0,0,81,false,stim,false,1,681.0,3,0,0,57493,WMM1,472900,false,true,596,image-keyboard-response,33
true,4,2,1,2,true,d,false,true,0.0-2.0-0.13-0.124-3.124,0,0,0,68,false,stim,false,0,1215.0,3,0,1,57493,WMM1,475621,false,false,599,image-keyboard-response,34
true,4,2,1,2,true,d,false,true,0.0-2.0-0.13-0.125-3.125,0,0,0,68,false,stim,false,0,976.0,3,0,1,57493,WMM1,478108,false,false,602,image-keyboard-response,35
true,4,2,1,2,true,d,false,true,0.0-2.0-0.14-0.126-3.126,0,0,0,68,false,stim,false,0,759.0000000000582,3,0,1,57493,WMM1,480373,false,false,605,image-keyboard-response,36
true,4,2,1,2,true,d,false,true,0.0-2.0-0.14-0.127-3.127,0,0,0,68,false,stim,false,0,640.9999999999418,3,0,1,57493,WMM1,482519,false,false,608,image-keyboard-response,37
true,4,1,1,1,true,z,false,false,0.0-2.0-0.14-0.128-3.128,0,0,0,90,false,stim,false,2,897.0,3,0,2,57493,WMM1,484924,false,true,611,image-keyboard-response,38
true,5,0,4,2,false,d,false,false,0.0-2.0-0.14-0.129-3.129,0,0,0,81,true,stim,true,0,903.0,3,0,0,57493,WMM1,483823,false,false,614,image-keyboard-response,1
true,5,2,4,2,true,d,false,true,0.0-2.0-0.14-0.130-3.130,0,0,0,68,false,stim,false,0,821.0000000000582,3,0,0,57493,WMM1,486150,false,false,617,image-keyboard-response,2
true,5,2,4,0,false,q,true,false,0.0-2.0-0.14-0.131-3.131,0,0,0,68,false,stim,false,1,848.0,3,0,2,57493,WMM1,488502,false,false,620,image-keyboard-response,3
true,5,1,4,0,false,q,false,true,0.0-2.0-0.14-0.132-3.132,0,0,0,90,false,stim,true,1,2743.0,3,0,2,57493,WMM1,492751,false,true,623,image-keyboard-response,4
true,5,2,4,2,true,d,false,true,0.0-2.0-0.14-0.133-3.133,0,0,0,68,false,stim,false,0,918.0,3,0,0,57493,WMM1,495176,false,false,626,image-keyboard-response,5
true,5,2,4,1,false,z,false,false,0.0-2.0-0.14-0.134-3.134,0,0,0,68,false,stim,true,2,1156.0,3,0,1,57493,WMM1,497839,false,false,629,image-keyboard-response,6
true,5,1,4,0,false,q,false,false,0.0-2.0-0.15-0.135-3.135,0,0,0,90,false,stim,true,1,1428.9999999999418,3,0,2,57493,WMM1,500775,false,false,632,image-keyboard-response,7
true,5,0,4,0,true,q,false,true,0.0-2.0-0.15-0.136-3.136,0,0,0,81,false,stim,false,1,1383.0,3,0,2,57493,WMM1,503665,false,false,635,image-keyboard-response,8
true,5,1,4,1,true,z,false,true,0.0-2.0-0.15-0.137-3.137,0,0,0,90,false,stim,false,2,1190.0,3,0,1,57493,WMM1,506361,false,false,638,image-keyboard-response,9
true,5,1,4,1,true,z,false,true,0.0-2.0-0.15-0.138-3.138,0,0,0,90,false,stim,false,2,830.0000000000582,3,0,1,57493,WMM1,508696,false,false,641,image-keyboard-response,10
true,5,2,4,2,true,d,false,true,0.0-2.0-0.15-0.139-3.139,0,0,0,68,false,stim,false,0,786.0000000000582,3,0,0,57493,WMM1,510989,false,false,644,image-keyboard-response,11
true,5,1,4,1,true,z,false,true,0.0-2.0-0.15-0.140-3.140,0,0,0,90,false,stim,false,2,865.0,3,0,1,57493,WMM1,513361,false,false,647,image-keyboard-response,12
true,5,2,4,2,true,d,false,true,0.0-2.0-0.15-0.141-3.141,0,0,0,68,false,stim,false,0,1132.0000000000582,3,0,0,57493,WMM1,515999,false,false,650,image-keyboard-response,13
true,5,0,4,0,true,q,false,true,0.0-2.0-0.15-0.142-3.142,0,0,0,81,false,stim,false,1,925.0000000000582,3,0,2,57493,WMM1,518431,false,false,653,image-keyboard-response,14
true,5,2,4,2,true,d,false,true,0.0-2.0-0.15-0.143-3.143,0,0,0,68,false,stim,false,0,1202.0,3,0,0,57493,WMM1,521141,false,false,656,image-keyboard-response,15
true,5,1,4,1,true,z,false,true,0.0-2.0-0.16-0.144-3.144,0,0,0,90,false,stim,false,2,765.0,3,0,1,57493,WMM1,523413,false,false,659,image-keyboard-response,16
true,5,1,4,1,true,z,false,true,0.0-2.0-0.16-0.145-3.145,0,0,0,90,false,stim,false,2,1158.0,3,0,1,57493,WMM1,526078,false,false,662,image-keyboard-response,17
true,5,0,4,0,true,q,false,true,0.0-2.0-0.16-0.146-3.146,0,0,0,81,false,stim,false,1,822.0,3,0,2,57493,WMM1,528407,false,false,665,image-keyboard-response,18
true,5,2,4,2,true,d,false,true,0.0-2.0-0.16-0.147-3.147,0,0,0,68,false,stim,false,0,814.0,3,0,0,57493,WMM1,530728,false,false,668,image-keyboard-response,19
true,5,0,4,0,true,q,false,true,0.0-2.0-0.16-0.148-3.148,0,0,0,81,false,stim,false,1,1022.9999999998836,3,0,2,57493,WMM1,533257,false,false,671,image-keyboard-response,20
true,5,0,4,0,true,q,false,true,0.0-2.0-0.16-0.149-3.149,0,0,0,81,false,stim,false,1,1088.9999999998836,3,0,2,57493,WMM1,535853,false,false,674,image-keyboard-response,21
true,5,1,4,1,true,z,false,false,0.0-2.0-0.16-0.150-3.150,0,0,0,90,false,stim,false,2,752.0000000001164,3,0,1,57493,WMM1,538109,false,true,677,image-keyboard-response,22
true,5,2,4,2,true,d,false,true,0.0-2.0-0.16-0.151-3.151,0,0,0,68,false,stim,false,0,1123.0,3,0,0,57493,WMM1,540736,false,false,680,image-keyboard-response,23
true,5,2,4,2,true,d,false,true,0.0-2.0-0.16-0.152-3.152,0,0,0,68,false,stim,false,0,2435.0,3,0,0,57493,WMM1,544678,false,false,683,image-keyboard-response,24
true,5,1,4,1,true,z,false,true,0.0-2.0-0.17-0.153-3.153,0,0,0,90,false,stim,false,2,1014.0,3,0,1,57493,WMM1,547198,false,false,686,image-keyboard-response,25
true,5,1,4,1,true,z,false,true,0.0-2.0-0.17-0.154-3.154,0,0,0,90,false,stim,false,2,1007.0,3,0,1,57493,WMM1,549711,false,false,689,image-keyboard-response,26
true,5,2,4,2,true,d,false,false,0.0-2.0-0.17-0.155-3.155,0,0,0,68,false,stim,false,0,1050.0,3,0,0,57493,WMM1,552266,false,true,692,image-keyboard-response,27
true,5,1,4,2,false,d,true,false,0.0-2.0-0.17-0.156-3.156,0,0,0,90,false,stim,false,0,652.0,3,0,0,57493,WMM1,554424,false,false,695,image-keyboard-response,28
true,5,1,4,1,true,z,false,false,0.0-2.0-0.17-0.157-3.157,0,0,0,90,false,stim,false,2,1013.0,3,0,1,57493,WMM1,556944,false,true,698,image-keyboard-response,29
true,5,0,4,0,true,q,false,true,0.0-2.0-0.17-0.158-3.158,0,0,0,81,false,stim,false,1,590.0,3,0,2,57493,WMM1,559047,false,false,701,image-keyboard-response,30
true,6,0,2,0,true,q,false,true,0.0-2.0-0.17-0.159-3.159,0,0,0,81,true,stim,false,2,659.0,3,0,0,57493,WMM1,561214,false,false,704,image-keyboard-response,1
true,6,0,2,1,false,z,false,false,0.0-2.0-0.17-0.160-3.160,0,0,0,81,false,stim,true,0,727.0,3,0,2,57493,WMM1,563447,false,false,707,image-keyboard-response,2
true,6,0,2,1,false,z,false,false,0.0-2.0-0.17-0.161-3.161,0,0,0,81,false,stim,true,0,650.0,3,0,2,57493,WMM1,565604,false,false,710,image-keyboard-response,3
true,6,0,2,0,true,q,false,true,0.0-2.0-0.18-0.162-3.162,0,0,0,81,false,stim,false,2,490.0,3,0,0,57493,WMM1,567601,false,false,713,image-keyboard-response,4
true,6,0,2,0,true,q,false,true,0.0-2.0-0.18-0.163-3.163,0,0,0,81,false,stim,false,2,704.0,3,0,0,57493,WMM1,569810,false,false,716,image-keyboard-response,5
true,6,1,2,1,true,z,false,true,0.0-2.0-0.18-0.164-3.164,0,0,0,90,false,stim,false,0,646.0,3,0,2,57493,WMM1,571962,false,false,719,image-keyboard-response,6
true,6,2,2,2,true,d,false,true,0.0-2.0-0.18-0.165-3.165,0,0,0,68,false,stim,false,1,456.0,3,0,1,57493,WMM1,573923,false,false,722,image-keyboard-response,7
true,6,0,2,0,true,q,false,true,0.0-2.0-0.18-0.166-3.166,0,0,0,81,false,stim,false,2,524.0,3,0,0,57493,WMM1,575953,false,false,725,image-keyboard-response,8
true,6,2,2,2,true,d,false,true,0.0-2.0-0.18-0.167-3.167,0,0,0,68,false,stim,false,1,989.0,3,0,1,57493,WMM1,578448,false,false,728,image-keyboard-response,9
true,6,1,2,1,true,z,false,true,0.0-2.0-0.18-0.168-3.168,0,0,0,90,false,stim,false,0,1881.0000000001164,3,0,2,57493,WMM1,581836,false,false,731,image-keyboard-response,10
true,6,1,2,1,true,z,false,true,0.0-2.0-0.18-0.169-3.169,0,0,0,90,false,stim,false,0,787.0,3,0,2,57493,WMM1,584130,false,false,734,image-keyboard-response,11
true,6,2,2,2,true,d,false,true,0.0-2.0-0.18-0.170-3.170,0,0,0,68,false,stim,false,1,1019.0,3,0,1,57493,WMM1,586656,false,false,737,image-keyboard-response,12
true,6,2,2,2,true,d,false,true,0.0-2.0-0.19-0.171-3.171,0,0,0,68,false,stim,false,1,1054.0000000001164,3,0,1,57493,WMM1,589216,false,false,740,image-keyboard-response,13
true,6,0,2,0,true,q,false,true,0.0-2.0-0.19-0.172-3.172,0,0,0,81,false,stim,false,2,2496.0,3,0,0,57493,WMM1,593220,false,false,743,image-keyboard-response,14
true,6,2,2,2,true,d,false,true,0.0-2.0-0.19-0.173-3.173,0,0,0,68,false,stim,false,1,732.0,3,0,1,57493,WMM1,595459,false,false,746,image-keyboard-response,15
true,6,2,2,2,true,d,false,true,0.0-2.0-0.19-0.174-3.174,0,0,0,68,false,stim,false,1,110.0,3,0,1,57493,WMM1,597078,false,false,749,image-keyboard-response,16
true,6,0,2,0,true,q,false,true,0.0-2.0-0.19-0.175-3.175,0,0,0,81,false,stim,false,2,1076.0,3,0,0,57493,WMM1,599662,false,false,752,image-keyboard-response,17
true,6,1,2,1,true,z,false,true,0.0-2.0-0.19-0.176-3.176,0,0,0,90,false,stim,false,0,1155.0,3,0,2,57493,WMM1,602322,false,false,755,image-keyboard-response,18
true,6,1,2,1,true,z,false,true,0.0-2.0-0.19-0.177-3.177,0,0,0,90,false,stim,false,0,1079.0,3,0,2,57493,WMM1,604906,false,false,758,image-keyboard-response,19
true,6,1,2,1,true,z,false,true,0.0-2.0-0.19-0.178-3.178,0,0,0,90,false,stim,false,0,719.0,3,0,2,57493,WMM1,607132,false,false,761,image-keyboard-response,20
true,6,0,2,0,true,q,false,true,0.0-2.0-0.19-0.179-3.179,0,0,0,81,false,stim,false,2,1313.9999999998836,3,0,0,57493,WMM1,609953,false,false,764,image-keyboard-response,21
true,6,2,2,2,true,d,false,true,0.0-2.0-0.20-0.180-3.180,0,0,0,68,false,stim,false,1,791.0,3,0,1,57493,WMM1,612251,false,false,767,image-keyboard-response,22
true,6,1,2,1,true,z,false,true,0.0-2.0-0.20-0.181-3.181,0,0,0,90,false,stim,false,0,1107.0,3,1,2,57493,WMM1,614864,false,false,770,image-keyboard-response,23
true,6,1,2,1,true,z,false,false,0.0-2.0-0.20-0.182-3.182,0,0,0,90,false,stim,false,0,670.0,3,1,2,57493,WMM1,617041,false,true,773,image-keyboard-response,24
true,6,2,2,2,true,d,false,true,0.0-2.0-0.20-0.183-3.183,0,0,0,68,false,stim,false,1,818.0000000001164,3,0,1,57493,WMM1,619365,false,false,776,image-keyboard-response,25
true,6,0,2,0,true,q,false,true,0.0-2.0-0.20-0.184-3.184,0,0,0,81,false,stim,false,2,880.0,3,0,0,57493,WMM1,621752,false,false,779,image-keyboard-response,26
true,6,0,2,0,true,q,false,true,0.0-2.0-0.20-0.185-3.185,0,0,0,81,false,stim,false,2,1155.9999999998836,3,0,0,57493,WMM1,624416,false,false,782,image-keyboard-response,27
true,6,2,2,2,true,d,false,true,0.0-2.0-0.20-0.186-3.186,0,0,0,68,false,stim,false,1,1092.0,3,0,1,57493,WMM1,627016,false,false,785,image-keyboard-response,28
true,6,0,2,0,true,q,false,true,0.0-2.0-0.20-0.187-3.187,0,0,0,81,false,stim,false,2,660.0000000001164,3,0,0,57493,WMM1,629183,false,false,788,image-keyboard-response,29
true,6,1,2,1,true,z,false,true,0.0-2.0-0.20-0.188-3.188,0,0,0,90,false,stim,false,0,1026.0,3,1,2,57493,WMM1,631716,false,false,791,image-keyboard-response,30
true,7,2,3,0,false,q,false,false,0.0-2.0-0.21-0.189-3.189,0,0,1,68,true,stim,true,2,1046.0,3,0,1,57493,WMM1,634269,false,false,794,image-keyboard-response,1
true,7,1,3,0,false,q,true,false,0.0-2.0-0.21-0.190-3.190,0,0,1,90,false,stim,false,2,1761.0,3,0,1,57493,WMM1,637537,false,false,797,image-keyboard-response,2
true,7,1,3,1,true,z,false,true,0.0-2.0-0.21-0.191-3.191,0,0,1,90,false,stim,false,1,1101.0,3,1,2,57493,WMM1,640143,false,false,800,image-keyboard-response,3
true,7,0,3,1,false,z,false,false,0.0-2.0-0.21-0.192-3.192,0,0,1,81,false,stim,true,0,495.0,3,0,0,57493,WMM1,642150,false,false,803,image-keyboard-response,4
true,7,2,3,1,false,z,true,false,0.0-2.0-0.21-0.193-3.193,0,0,1,68,false,stim,false,0,683.0,3,0,0,57493,WMM1,644340,false,false,806,image-keyboard-response,5
true,7,1,3,1,true,z,false,true,0.0-2.0-0.21-0.194-3.194,0,0,1,90,false,stim,false,1,803.0,3,1,2,57493,WMM1,646650,false,false,809,image-keyboard-response,6
true,7,1,3,0,false,q,true,false,0.0-2.0-0.21-0.195-3.195,0,0,1,90,false,stim,false,2,469.0,3,0,1,57493,WMM1,648626,false,false,812,image-keyboard-response,7
true,7,1,3,1,true,z,false,true,0.0-2.0-0.21-0.196-3.196,0,0,1,90,false,stim,false,0,627.0000000001164,3,0,0,57493,WMM1,650760,false,false,815,image-keyboard-response,8
true,7,1,3,1,true,z,false,true,0.0-2.0-0.21-0.197-3.197,0,0,1,90,false,stim,false,1,971.0,3,1,2,57493,WMM1,653238,false,false,818,image-keyboard-response,9
true,7,0,3,0,true,q,false,true,0.0-2.0-0.22-0.198-3.198,0,0,1,81,false,stim,false,2,895.0,3,0,1,57493,WMM1,655642,false,false,821,image-keyboard-response,10
true,7,0,3,0,true,q,false,true,0.0-2.0-0.22-0.199-3.199,0,0,1,81,false,stim,false,2,823.0,3,0,1,57493,WMM1,657971,false,false,824,image-keyboard-response,11
true,7,1,3,1,true,z,false,true,0.0-2.0-0.22-0.200-3.200,0,0,1,90,false,stim,false,0,606.0,3,0,0,57493,WMM1,660085,false,false,827,image-keyboard-response,12
true,7,1,3,1,true,z,false,false,0.0-2.0-0.22-0.201-3.201,0,0,1,90,false,stim,false,0,1084.0,3,0,0,57493,WMM1,662675,false,true,830,image-keyboard-response,13
true,7,2,3,1,false,z,true,false,0.0-2.0-0.22-0.202-3.202,0,0,1,68,false,stim,false,0,1549.0,3,0,0,57493,WMM1,665729,false,false,833,image-keyboard-response,14
true,7,0,3,1,false,z,true,false,0.0-2.0-0.22-0.203-3.203,0,0,1,81,false,stim,false,1,529.0,3,1,2,57493,WMM1,667765,false,false,836,image-keyboard-response,15
true,7,2,3,0,false,q,false,false,0.0-2.0-0.22-0.204-3.204,0,0,1,68,false,stim,true,2,914.0000000001164,3,0,1,57493,WMM1,670184,false,false,839,image-keyboard-response,16
true,7,2,3,1,false,z,true,false,0.0-2.0-0.22-0.205-3.205,0,0,1,68,false,stim,false,1,1081.0,3,1,2,57493,WMM1,672772,false,false,842,image-keyboard-response,17
true,7,2,3,1,false,z,true,false,0.0-2.0-0.22-0.206-3.206,0,0,1,68,false,stim,false,1,651.0,3,1,2,57493,WMM1,674930,false,false,845,image-keyboard-response,18
true,7,0,3,1,false,z,false,false,0.0-2.0-0.23-0.207-3.207,0,0,1,81,false,stim,true,0,972.0000000001164,3,0,0,57493,WMM1,677410,false,false,848,image-keyboard-response,19
true,7,0,3,1,false,z,true,false,0.0-2.0-0.23-0.208-3.208,0,0,1,81,false,stim,false,1,561.0,3,1,2,57493,WMM1,679478,false,false,851,image-keyboard-response,20
true,7,0,3,0,true,q,false,true,0.0-2.0-0.23-0.209-3.209,0,0,1,81,false,stim,false,2,452.9999999998836,3,0,1,57493,WMM1,681440,false,false,854,image-keyboard-response,21
true,7,1,3,1,true,z,false,true,0.0-2.0-0.23-0.210-3.210,0,0,1,90,false,stim,false,0,840.0,3,0,0,57493,WMM1,683789,false,false,857,image-keyboard-response,22
true,7,0,3,0,true,q,false,true,0.0-2.0-0.23-0.211-3.211,0,0,1,81,false,stim,false,2,791.0,3,0,1,57493,WMM1,686089,false,false,860,image-keyboard-response,23
true,7,1,3,1,true,z,false,true,0.0-2.0-0.23-0.212-3.212,0,0,1,90,false,stim,false,0,485.0000000001164,3,0,0,57493,WMM1,688083,false,false,863,image-keyboard-response,24
true,7,0,3,0,true,q,false,true,0.0-2.0-0.23-0.213-3.213,0,0,1,81,false,stim,false,2,1161.0,3,0,1,57493,WMM1,690751,false,false,866,image-keyboard-response,25
true,7,2,3,1,false,z,true,false,0.0-2.0-0.23-0.214-3.214,0,0,1,68,false,stim,false,1,786.0,3,1,2,57493,WMM1,693045,false,false,869,image-keyboard-response,26
true,7,1,3,1,true,z,false,true,0.0-2.0-0.23-0.215-3.215,0,0,1,90,false,stim,false,1,1135.0,3,1,2,57493,WMM1,695688,false,false,872,image-keyboard-response,27
true,7,1,3,1,true,z,false,true,0.0-2.0-0.24-0.216-3.216,0,0,1,90,false,stim,false,0,1281.0,3,0,0,57493,WMM1,698478,false,false,875,image-keyboard-response,28
true,7,0,3,0,true,q,false,true,0.0-2.0-0.24-0.217-3.217,0,0,1,81,false,stim,false,2,715.0,3,0,1,57493,WMM1,700701,false,false,878,image-keyboard-response,29
true,7,0,3,0,true,q,false,true,0.0-2.0-0.24-0.218-3.218,0,0,1,81,false,stim,false,2,2423.9999999998836,3,0,1,57493,WMM1,704632,false,false,881,image-keyboard-response,30
true,7,1,3,1,true,z,false,true,0.0-2.0-0.24-0.219-3.219,0,0,1,90,false,stim,false,1,1273.0,3,1,2,57493,WMM1,707412,false,false,884,image-keyboard-response,31
true,7,1,3,1,true,z,false,true,0.0-2.0-0.24-0.220-3.220,0,0,1,90,false,stim,false,1,2873.0,3,0,2,57493,WMM1,711792,false,false,887,image-keyboard-response,32
false,7,-1,3,1,false,z,true,true,0.0-2.0-0.24-0.221-3.221,0,0,1,,false,stim,false,0,,3,0,0,57493,WMM1,716300,false,true,890,image-keyboard-response,33
true,7,1,3,1,true,z,false,true,0.0-2.0-0.24-0.222-3.222,0,0,1,90,false,stim,false,0,1036.0000000001164,3,0,0,57493,WMM1,718843,false,false,893,image-keyboard-response,34
true,7,1,3,1,true,z,false,true,0.0-2.0-0.24-0.223-3.223,0,0,1,90,false,stim,false,1,1574.9999999998836,3,0,2,57493,WMM1,721933,false,false,896,image-keyboard-response,35
true,7,1,3,0,false,q,true,false,0.0-2.0-0.24-0.224-3.224,0,0,1,90,false,stim,false,2,697.0,3,0,1,57493,WMM1,724137,false,false,899,image-keyboard-response,36
true,7,1,3,1,true,z,false,true,0.0-2.0-0.25-0.225-3.225,0,0,1,90,false,stim,false,0,825.0,3,0,0,57493,WMM1,726478,false,false,902,image-keyboard-response,37
true,7,1,3,1,true,z,false,true,0.0-2.0-0.25-0.226-3.226,0,0,1,90,false,stim,false,1,734.0000000001164,3,0,2,57493,WMM1,728719,false,false,905,image-keyboard-response,38
true,7,0,3,0,true,q,false,true,0.0-2.0-0.25-0.227-3.227,0,0,1,81,false,stim,false,2,659.0,3,0,1,57493,WMM1,730884,false,false,908,image-keyboard-response,39
true,7,1,3,1,true,z,false,false,0.0-2.0-0.25-0.228-3.228,0,0,1,90,false,stim,false,1,710.9999999998836,3,0,2,57493,WMM1,733103,false,true,911,image-keyboard-response,40
true,7,1,3,1,true,z,false,true,0.0-2.0-0.25-0.229-3.229,0,0,1,90,false,stim,false,0,721.0,3,0,0,57493,WMM1,735330,false,false,914,image-keyboard-response,41
true,8,0,1,1,false,z,false,false,0.0-2.0-0.25-0.230-3.230,0,0,0,81,true,stim,true,0,767.0,3,0,1,57493,WMM1,737604,false,false,917,image-keyboard-response,1
true,8,2,1,2,true,d,false,true,0.0-2.0-0.25-0.231-3.231,0,0,0,68,false,stim,false,1,1715.0,3,0,2,57493,WMM1,740827,false,false,920,image-keyboard-response,2
true,8,1,1,1,true,z,false,true,0.0-2.0-0.25-0.232-3.232,0,0,0,90,false,stim,false,0,570.9999999998836,3,0,1,57493,WMM1,742905,false,false,923,image-keyboard-response,3
true,8,1,1,2,false,d,false,false,0.0-2.0-0.25-0.233-3.233,0,0,0,90,false,stim,true,1,454.0,3,0,0,57493,WMM1,744867,false,false,926,image-keyboard-response,4
true,8,1,1,1,true,z,false,true,0.0-2.0-0.26-0.234-3.234,0,0,0,90,false,stim,false,0,903.0,3,0,1,57493,WMM1,747276,false,false,929,image-keyboard-response,5
true,8,2,1,2,true,d,false,true,0.0-2.0-0.26-0.235-3.235,0,0,0,68,false,stim,false,1,626.0,3,0,2,57493,WMM1,749410,false,false,932,image-keyboard-response,6
true,8,1,1,1,true,z,false,false,0.0-2.0-0.26-0.236-3.236,0,0,0,90,false,stim,false,0,956.0,3,0,1,57493,WMM1,751874,false,true,935,image-keyboard-response,7
true,8,0,1,2,false,d,true,false,0.0-2.0-0.26-0.237-3.237,0,0,0,81,false,stim,false,1,848.0,3,0,0,57493,WMM1,754228,false,false,938,image-keyboard-response,8
true,8,2,1,1,false,z,true,true,0.0-2.0-0.26-0.238-3.238,0,0,0,68,false,stim,false,0,793.0,3,0,1,57493,WMM1,756529,false,true,941,image-keyboard-response,9
true,8,2,1,2,true,d,false,true,0.0-2.0-0.26-0.239-3.239,0,0,0,68,false,stim,false,1,484.9999999998836,3,0,0,57493,WMM1,758521,false,false,944,image-keyboard-response,10
true,8,2,1,2,true,d,false,true,0.0-2.0-0.26-0.240-3.240,0,0,0,68,false,stim,false,1,573.0,3,0,0,57493,WMM1,760600,false,false,947,image-keyboard-response,11
true,8,2,1,2,true,d,false,true,0.0-2.0-0.26-0.241-3.241,0,0,0,68,false,stim,false,1,1694.0,3,0,2,57493,WMM1,763801,false,false,950,image-keyboard-response,12
true,8,2,1,2,true,d,false,true,0.0-2.0-0.26-0.242-3.242,0,0,0,68,false,stim,false,1,445.0,3,0,2,57493,WMM1,765753,false,false,953,image-keyboard-response,13
true,8,2,1,2,true,d,false,true,0.0-2.0-0.27-0.243-3.243,0,0,0,68,false,stim,false,1,720.0,3,0,0,57493,WMM1,767981,false,false,956,image-keyboard-response,14
true,8,2,1,2,true,d,false,true,0.0-2.0-0.27-0.244-3.244,0,0,0,68,false,stim,false,1,627.9999999998836,3,0,2,57493,WMM1,770116,false,false,959,image-keyboard-response,15
true,8,2,1,2,true,d,false,true,0.0-2.0-0.27-0.245-3.245,0,0,0,68,false,stim,false,1,584.0,3,0,0,57493,WMM1,772208,false,false,962,image-keyboard-response,16
true,8,2,1,2,true,d,false,true,0.0-2.0-0.27-0.246-3.246,0,0,0,68,false,stim,false,1,978.0,3,0,2,57493,WMM1,774693,false,false,965,image-keyboard-response,17
true,8,2,1,1,false,z,true,true,0.0-2.0-0.27-0.247-3.247,0,0,0,68,false,stim,false,0,629.0,3,0,1,57493,WMM1,776831,false,true,968,image-keyboard-response,18
true,8,0,1,2,false,d,true,false,0.0-2.0-0.27-0.248-3.248,0,0,0,81,false,stim,false,1,873.0000000001164,3,0,0,57493,WMM1,779210,false,false,971,image-keyboard-response,19
true,8,1,1,2,false,d,false,false,0.0-2.0-0.27-0.249-3.249,0,0,0,90,false,stim,true,1,489.0,3,0,2,57493,WMM1,781205,false,false,974,image-keyboard-response,20
true,8,2,1,1,false,z,true,false,0.0-2.0-0.27-0.250-3.250,0,0,0,68,false,stim,false,0,296.0,3,0,1,57493,WMM1,783009,false,false,977,image-keyboard-response,21
true,8,0,1,1,false,z,false,false,0.0-2.0-0.27-0.251-3.251,0,0,0,81,false,stim,true,0,687.0,3,0,1,57493,WMM1,785202,false,false,980,image-keyboard-response,22
true,8,2,1,2,true,d,false,true,0.0-2.0-0.28-0.252-3.252,0,0,0,68,false,stim,false,1,603.9999999998836,3,0,0,57493,WMM1,787314,false,false,983,image-keyboard-response,23
true,8,2,1,2,true,d,false,true,0.0-2.0-0.28-0.253-3.253,0,0,0,68,false,stim,false,1,611.0,3,0,0,57493,WMM1,789435,false,false,986,image-keyboard-response,24
true,8,2,1,2,true,d,false,true,0.0-2.0-0.28-0.254-3.254,0,0,0,68,false,stim,false,1,590.0,3,0,0,57493,WMM1,791533,false,false,989,image-keyboard-response,25
true,8,2,1,2,true,d,false,true,0.0-2.0-0.28-0.255-3.255,0,0,0,68,false,stim,false,1,852.0,3,0,2,57493,WMM1,793895,false,false,992,image-keyboard-response,26
true,8,2,1,2,true,d,false,true,0.0-2.0-0.28-0.256-3.256,0,0,0,68,false,stim,false,1,621.0,3,0,2,57493,WMM1,796025,false,false,995,image-keyboard-response,27
true,8,2,1,1,false,z,true,false,0.0-2.0-0.28-0.257-3.257,0,0,0,68,false,stim,false,0,648.0,3,0,1,57493,WMM1,798182,false,false,998,image-keyboard-response,28
true,8,1,1,1,true,z,false,true,0.0-2.0-0.28-0.258-3.258,0,0,0,90,false,stim,false,0,524.0,3,0,1,57493,WMM1,800224,false,false,1001,image-keyboard-response,29
true,8,1,1,1,true,z,false,true,0.0-2.0-0.28-0.259-3.259,0,0,0,90,false,stim,false,0,776.0,3,0,1,57493,WMM1,802507,false,false,1004,image-keyboard-response,30
true,8,2,1,2,true,d,false,true,0.0-2.0-0.28-0.260-3.260,0,0,0,68,false,stim,false,1,539.0,3,0,2,57493,WMM1,804554,false,false,1007,image-keyboard-response,31
true,8,2,1,2,true,d,false,true,0.0-2.0-0.29-0.261-3.261,0,0,0,68,false,stim,false,1,2407.0,3,0,0,57493,WMM1,808469,false,false,1010,image-keyboard-response,32
true,8,1,1,1,true,z,false,true,0.0-2.0-0.29-0.262-3.262,0,0,0,90,false,stim,false,0,1423.0,3,0,1,57493,WMM1,811400,false,false,1013,image-keyboard-response,33
true,8,1,1,2,false,d,false,false,0.0-2.0-0.29-0.263-3.263,0,0,0,90,false,stim,true,1,2252.9999999998836,3,0,2,57493,WMM1,815160,false,false,1016,image-keyboard-response,34
false,8,-1,1,1,false,z,true,false,0.0-2.0-0.29-0.264-3.264,0,0,0,,false,stim,false,0,,3,0,1,57493,WMM1,819666,false,false,1019,image-keyboard-response,35
false,8,-1,1,2,false,d,true,false,0.0-2.0-0.29-0.265-3.265,0,0,0,,false,stim,false,1,,3,0,2,57493,WMM1,824171,false,false,1022,image-keyboard-response,36
true,8,1,1,2,false,d,false,false,0.0-2.0-0.29-0.266-3.266,0,0,0,90,false,stim,true,1,2492.0,3,0,0,57493,WMM1,828170,false,false,1025,image-keyboard-response,37
true,8,2,1,2,true,d,false,true,0.0-2.0-0.29-0.267-3.267,0,0,0,68,false,stim,false,1,785.0000000001164,3,0,0,57493,WMM1,830460,false,false,1028,image-keyboard-response,38
true,8,2,1,2,true,d,false,true,0.0-2.0-0.29-0.268-3.268,0,0,0,68,false,stim,false,1,1622.0,3,0,2,57493,WMM1,833590,false,false,1031,image-keyboard-response,39
false,8,-1,1,1,false,z,true,false,0.0-2.0-0.29-0.269-3.269,0,0,0,,false,stim,false,0,,3,0,1,57493,WMM1,838099,false,false,1034,image-keyboard-response,40
true,9,1,2,2,false,d,false,false,0.0-2.0-0.30-0.270-3.270,0,0,0,90,true,stim,true,1,751.0,3,0,1,57493,WMM1,840358,false,false,1037,image-keyboard-response,1
true,9,0,2,1,false,z,true,false,0.0-2.0-0.30-0.271-3.271,0,0,0,81,false,stim,false,2,590.0000000001164,3,0,2,57493,WMM1,842456,false,false,1040,image-keyboard-response,2
true,9,2,2,0,false,q,false,false,0.0-2.0-0.30-0.272-3.272,0,0,0,68,false,stim,true,2,455.0,3,0,0,57493,WMM1,844417,false,false,1043,image-keyboard-response,3
true,9,2,2,2,true,d,false,true,0.0-2.0-0.30-0.273-3.273,0,0,0,68,false,stim,false,1,619.0000000001164,3,0,1,57493,WMM1,846543,false,false,1046,image-keyboard-response,4
true,9,2,2,2,true,d,false,true,0.0-2.0-0.30-0.274-3.274,0,0,0,68,false,stim,false,1,662.0,3,0,1,57493,WMM1,848712,false,false,1049,image-keyboard-response,5
true,9,2,2,1,false,z,false,false,0.0-2.0-0.30-0.275-3.275,0,0,0,68,false,stim,true,2,658.0,3,0,2,57493,WMM1,850877,false,false,1052,image-keyboard-response,6
true,9,1,2,0,false,q,true,false,0.0-2.0-0.30-0.276-3.276,0,0,0,90,false,stim,false,2,1195.0,3,0,0,57493,WMM1,853578,false,false,1055,image-keyboard-response,7
true,9,0,2,0,true,q,false,true,0.0-2.0-0.30-0.277-3.277,0,0,0,81,false,stim,false,2,528.0,3,0,0,57493,WMM1,855613,false,false,1058,image-keyboard-response,8
true,9,1,2,1,true,z,false,true,0.0-2.0-0.30-0.278-3.278,0,0,0,90,false,stim,false,2,498.0,3,0,2,57493,WMM1,857617,false,false,1061,image-keyboard-response,9
true,9,2,2,2,true,d,false,true,0.0-2.0-0.31-0.279-3.279,0,0,0,68,false,stim,false,1,824.0,3,0,1,57493,WMM1,859945,false,false,1064,image-keyboard-response,10
true,9,0,2,0,true,q,false,true,0.0-2.0-0.31-0.280-3.280,0,0,0,81,false,stim,false,2,1020.0,3,0,0,57493,WMM1,862472,false,false,1067,image-keyboard-response,11
true,9,0,2,0,true,q,false,true,0.0-2.0-0.31-0.281-3.281,0,0,0,81,false,stim,false,2,659.0,3,0,0,57493,WMM1,864639,false,false,1070,image-keyboard-response,12
true,9,1,2,1,true,z,false,true,0.0-2.0-0.31-0.282-3.282,0,0,0,90,false,stim,false,2,1090.0,3,0,2,57493,WMM1,867237,false,false,1073,image-keyboard-response,13
true,9,0,2,0,true,q,false,false,0.0-2.0-0.31-0.283-3.283,0,0,0,81,false,stim,false,2,682.0,3,0,0,57493,WMM1,869427,false,true,1076,image-keyboard-response,14
true,9,2,2,2,true,d,false,true,0.0-2.0-0.31-0.284-3.284,0,0,0,68,false,stim,false,1,1179.0,3,0,1,57493,WMM1,872113,false,false,1079,image-keyboard-response,15
true,9,1,2,1,true,z,false,true,0.0-2.0-0.31-0.285-3.285,0,0,0,90,false,stim,false,2,816.0,3,0,2,57493,WMM1,874435,false,false,1082,image-keyboard-response,16
true,9,1,2,2,false,d,false,false,0.0-2.0-0.31-0.286-3.286,0,0,0,90,false,stim,true,1,1197.9999999998836,3,0,1,57493,WMM1,877140,false,false,1085,image-keyboard-response,17
true,9,1,2,1,true,z,false,false,0.0-2.0-0.31-0.287-3.287,0,0,0,90,false,stim,false,2,1454.0,3,0,2,57493,WMM1,880102,false,true,1088,image-keyboard-response,18
true,9,2,2,1,false,z,false,false,0.0-2.0-0.32-0.288-3.288,0,0,0,68,false,stim,true,2,982.0,3,0,2,57493,WMM1,882590,false,false,1091,image-keyboard-response,19
true,9,2,2,2,true,d,false,true,0.0-2.0-0.32-0.289-3.289,0,0,0,68,false,stim,false,1,906.0,3,0,1,57493,WMM1,885003,false,false,1094,image-keyboard-response,20
true,9,0,2,2,false,d,true,true,0.0-2.0-0.32-0.290-3.290,0,0,0,81,false,stim,false,1,519.0,3,0,1,57493,WMM1,887030,false,true,1097,image-keyboard-response,21
true,9,0,2,2,false,d,true,false,0.0-2.0-0.32-0.291-3.291,0,0,0,81,false,stim,false,1,556.9999999998836,3,0,1,57493,WMM1,889096,false,false,1100,image-keyboard-response,22
true,9,0,2,0,true,q,false,true,0.0-2.0-0.32-0.292-3.292,0,0,0,81,false,stim,false,2,603.0,3,0,0,57493,WMM1,891215,false,false,1103,image-keyboard-response,23
true,9,0,2,0,true,q,false,true,0.0-2.0-0.32-0.293-3.293,0,0,0,81,false,stim,false,2,826.0,3,0,0,57493,WMM1,893550,false,false,1106,image-keyboard-response,24
true,9,0,2,0,true,q,false,true,0.0-2.0-0.32-0.294-3.294,0,0,0,81,false,stim,false,2,790.0,3,0,0,57493,WMM1,895849,false,false,1109,image-keyboard-response,25
true,9,1,2,1,true,z,false,true,0.0-2.0-0.32-0.295-3.295,0,0,0,90,false,stim,false,2,1108.0,3,0,2,57493,WMM1,898465,false,false,1112,image-keyboard-response,26
true,9,1,2,1,true,z,false,true,0.0-2.0-0.32-0.296-3.296,0,0,0,90,false,stim,false,2,795.0,3,0,2,57493,WMM1,900768,false,false,1115,image-keyboard-response,27
true,9,1,2,1,true,z,false,true,0.0-2.0-0.33-0.297-3.297,0,0,0,90,false,stim,false,2,755.0,3,0,2,57493,WMM1,903032,false,false,1118,image-keyboard-response,28
true,9,1,2,1,true,z,false,true,0.0-2.0-0.33-0.298-3.298,0,0,0,90,false,stim,false,2,658.0,3,0,2,57493,WMM1,905199,false,false,1121,image-keyboard-response,29
true,9,1,2,1,true,z,false,false,0.0-2.0-0.33-0.299-3.299,0,0,0,90,false,stim,false,2,848.0,3,0,2,57493,WMM1,907557,false,true,1124,image-keyboard-response,30
true,9,0,2,0,true,q,false,true,0.0-2.0-0.33-0.300-3.300,0,0,0,81,false,stim,false,2,907.0,3,0,0,57493,WMM1,909972,false,false,1127,image-keyboard-response,31
true,9,2,2,2,true,d,false,true,0.0-2.0-0.33-0.301-3.301,0,0,0,68,false,stim,false,1,955.0000000001164,3,0,1,57493,WMM1,912433,false,false,1130,image-keyboard-response,32
true,9,0,2,0,true,q,false,false,0.0-2.0-0.33-0.302-3.302,0,0,0,81,false,stim,false,2,1096.0,3,0,0,57493,WMM1,915038,false,true,1133,image-keyboard-response,33
true,9,2,2,2,true,d,false,true,0.0-2.0-0.33-0.303-3.303,0,0,0,68,false,stim,false,1,940.0,3,0,1,57493,WMM1,917487,false,false,1136,image-keyboard-response,34
true,9,2,2,2,true,d,false,true,0.0-2.0-0.33-0.304-3.304,0,0,0,68,false,stim,false,1,651.9999999998836,3,0,1,57493,WMM1,919648,false,false,1139,image-keyboard-response,35
true,9,0,2,0,true,q,false,true,0.0-2.0-0.33-0.305-3.305,0,0,0,81,false,stim,false,2,871.0,3,0,0,57493,WMM1,922027,false,false,1142,image-keyboard-response,36
true,9,2,2,2,true,d,false,true,0.0-2.0-0.34-0.306-3.306,0,0,0,68,false,stim,false,1,737.0,3,0,1,57493,WMM1,924273,false,false,1145,image-keyboard-response,37
true,9,0,2,0,true,q,false,false,0.0-2.0-0.34-0.307-3.307,0,0,0,81,false,stim,false,2,1015.0,3,0,0,57493,WMM1,926796,false,true,1148,image-keyboard-response,38
true,9,2,2,2,true,d,false,false,0.0-2.0-0.34-0.308-3.308,0,0,0,68,false,stim,false,1,1359.0,3,0,1,57493,WMM1,929663,false,true,1151,image-keyboard-response,39
true,9,1,2,1,true,z,false,true,0.0-2.0-0.34-0.309-3.309,0,0,0,90,false,stim,false,2,1382.9999999998836,3,0,2,57493,WMM1,932552,false,false,1154,image-keyboard-response,40
true,9,1,2,0,false,q,true,false,0.0-2.0-0.34-0.310-3.310,0,0,0,90,false,stim,false,2,787.0,3,0,0,57493,WMM1,934846,false,false,1157,image-keyboard-response,41
true,9,1,2,1,true,z,false,true,0.0-2.0-0.34-0.311-3.311,0,0,0,90,false,stim,false,2,691.0,3,0,2,57493,WMM1,937044,false,false,1160,image-keyboard-response,42
true,9,1,2,1,true,z,false,true,0.0-2.0-0.34-0.312-3.312,0,0,0,90,false,stim,false,2,729.0,3,0,2,57493,WMM1,939281,false,false,1163,image-keyboard-response,43
true,9,1,2,2,false,d,false,false,0.0-2.0-0.34-0.313-3.313,0,0,0,90,false,stim,true,1,1161.0,3,0,1,57493,WMM1,941948,false,false,1166,image-keyboard-response,44
true,10,0,1,1,false,z,false,false,0.0-2.0-0.34-0.314-3.314,0,0,0,81,true,stim,true,0,1465.0,3,0,0,57493,WMM1,944921,false,false,1169,image-keyboard-response,1
true,10,1,1,0,false,q,false,false,0.0-2.0-0.35-0.315-3.315,0,0,0,90,false,stim,true,1,1265.0,3,0,2,57493,WMM1,947692,false,false,1172,image-keyboard-response,2
true,10,1,1,1,true,z,false,true,0.0-2.0-0.35-0.316-3.316,0,0,0,90,false,stim,false,0,947.0,3,0,0,57493,WMM1,950147,false,false,1175,image-keyboard-response,3
true,10,2,1,0,false,q,true,false,0.0-2.0-0.35-0.317-3.317,0,0,0,68,false,stim,false,1,1008.9999999998836,3,0,2,57493,WMM1,952664,false,false,1178,image-keyboard-response,4
true,10,1,1,1,true,z,false,true,0.0-2.0-0.35-0.318-3.318,0,0,0,90,false,stim,false,0,894.0,3,0,0,57493,WMM1,955066,false,false,1181,image-keyboard-response,5
true,10,1,1,0,false,q,false,false,0.0-2.0-0.35-0.319-3.319,0,0,0,90,false,stim,true,1,625.0,3,0,2,57493,WMM1,957198,false,false,1184,image-keyboard-response,6
true,10,0,1,0,true,q,false,true,0.0-2.0-0.35-0.320-3.320,0,0,0,81,false,stim,false,2,1069.0,3,0,1,57493,WMM1,959775,false,false,1187,image-keyboard-response,7
true,10,1,1,1,true,z,false,true,0.0-2.0-0.35-0.321-3.321,0,0,0,90,false,stim,false,0,905.0,3,0,0,57493,WMM1,962187,false,false,1190,image-keyboard-response,8
true,10,0,1,0,true,q,false,true,0.0-2.0-0.35-0.322-3.322,0,0,0,81,false,stim,false,2,729.9999999998836,3,0,1,57493,WMM1,964423,false,false,1193,image-keyboard-response,9
true,10,0,1,0,true,q,false,true,0.0-2.0-0.35-0.323-3.323,0,0,0,81,false,stim,false,2,689.0,3,0,1,57493,WMM1,966620,false,false,1196,image-keyboard-response,10
true,10,2,1,0,false,q,true,false,0.0-2.0-0.36-0.324-3.324,0,0,0,68,false,stim,false,1,1053.0000000001164,3,0,2,57493,WMM1,969179,false,false,1199,image-keyboard-response,11
true,10,0,1,0,true,q,false,true,0.0-2.0-0.36-0.325-3.325,0,0,0,81,false,stim,false,2,932.0,3,0,1,57493,WMM1,971628,false,false,1202,image-keyboard-response,12
true,10,1,1,0,false,q,false,false,0.0-2.0-0.36-0.326-3.326,0,0,0,90,false,stim,true,1,1154.0,3,0,2,57493,WMM1,974289,false,false,1205,image-keyboard-response,13
true,10,0,1,0,true,q,false,true,0.0-2.0-0.36-0.327-3.327,0,0,0,81,false,stim,false,1,1179.0,3,0,2,57493,WMM1,976976,false,false,1208,image-keyboard-response,14
true,10,0,1,0,true,q,false,true,0.0-2.0-0.36-0.328-3.328,0,0,0,81,false,stim,false,2,1330.0,3,0,1,57493,WMM1,979813,false,false,1211,image-keyboard-response,15
true,10,1,1,1,true,z,false,true,0.0-2.0-0.36-0.329-3.329,0,0,0,90,false,stim,false,0,753.0,3,0,0,57493,WMM1,982074,false,false,1214,image-keyboard-response,16
true,10,1,1,1,true,z,false,true,0.0-2.0-0.36-0.330-3.330,0,0,0,90,false,stim,false,0,1082.0,3,0,0,57493,WMM1,984663,false,false,1217,image-keyboard-response,17
true,10,0,1,0,true,q,false,true,0.0-2.0-0.36-0.331-3.331,0,0,0,81,false,stim,false,2,2379.9999999998836,3,0,1,57493,WMM1,988550,false,false,1220,image-keyboard-response,18
true,10,1,1,1,true,z,false,true,0.0-2.0-0.36-0.332-3.332,0,0,0,90,false,stim,false,0,745.0,3,0,0,57493,WMM1,990803,false,false,1223,image-keyboard-response,19
true,10,0,1,0,true,q,false,true,0.0-2.0-0.37-0.333-3.333,0,0,0,81,false,stim,false,1,907.0,3,0,2,57493,WMM1,993218,false,false,1226,image-keyboard-response,20
true,10,0,1,0,true,q,false,true,0.0-2.0-0.37-0.334-3.334,0,0,0,81,false,stim,false,1,1037.0,3,0,2,57493,WMM1,995763,false,false,1229,image-keyboard-response,21
true,10,0,1,0,true,q,false,true,0.0-2.0-0.37-0.335-3.335,0,0,0,81,false,stim,false,2,1261.9999999998836,3,0,1,57493,WMM1,998533,false,false,1232,image-keyboard-response,22
true,10,0,1,0,true,q,false,true,0.0-2.0-0.37-0.336-3.336,0,0,0,81,false,stim,false,2,964.9999999998836,3,0,1,57493,WMM1,1001005,false,false,1235,image-keyboard-response,23
true,10,1,1,1,true,z,false,true,0.0-2.0-0.37-0.337-3.337,0,0,0,90,false,stim,false,0,1899.0,3,0,0,57493,WMM1,1004411,false,false,1238,image-keyboard-response,24
true,10,0,1,0,true,q,false,true,0.0-2.0-0.37-0.338-3.338,0,0,0,81,false,stim,false,1,798.0,3,0,2,57493,WMM1,1006716,false,false,1241,image-keyboard-response,25
true,10,1,1,1,true,z,false,true,0.0-2.0-0.37-0.339-3.339,0,0,0,90,false,stim,false,0,1431.0000000001164,3,0,0,57493,WMM1,1009656,false,false,1244,image-keyboard-response,26
true,10,0,1,0,true,q,false,true,0.0-2.0-0.37-0.340-3.340,0,0,0,81,false,stim,false,2,2032.0,3,0,1,57493,WMM1,1013196,false,false,1247,image-keyboard-response,27
true,10,1,1,1,true,z,false,true,0.0-2.0-0.37-0.341-3.341,0,0,0,90,false,stim,false,0,1607.0000000001164,3,0,0,57493,WMM1,1016310,false,false,1250,image-keyboard-response,28
true,10,0,1,0,true,q,false,true,0.0-2.0-0.38-0.342-3.342,0,0,0,81,false,stim,false,2,1308.0,3,0,1,57493,WMM1,1019126,false,false,1253,image-keyboard-response,29
true,10,0,1,0,true,q,false,true,0.0-2.0-0.38-0.343-3.343,0,0,0,81,false,stim,false,1,877.9999999998836,3,0,2,57493,WMM1,1021512,false,false,1256,image-keyboard-response,30
true,11,1,2,0,false,q,false,false,0.0-2.0-0.38-0.344-3.344,0,0,0,90,true,stim,true,1,1187.0000000001164,3,0,0,57493,WMM1,1024207,false,false,1259,image-keyboard-response,1
true,11,0,2,1,false,z,false,false,0.0-2.0-0.38-0.345-3.345,0,0,0,81,false,stim,true,0,819.9999999998836,3,0,2,57493,WMM1,1026531,false,false,1262,image-keyboard-response,2
true,11,0,2,2,false,d,false,true,0.0-2.0-0.38-0.346-3.346,0,0,0,81,false,stim,true,0,815.0000000001164,3,0,1,57493,WMM1,1028852,false,true,1265,image-keyboard-response,3
true,11,1,2,1,true,z,false,true,0.0-2.0-0.38-0.347-3.347,0,0,0,90,false,stim,false,0,890.0000000001164,3,0,2,57493,WMM1,1031250,false,false,1268,image-keyboard-response,4
true,11,0,2,2,false,d,false,false,0.0-2.0-0.38-0.348-3.348,0,0,0,81,false,stim,true,0,860.0,3,0,1,57493,WMM1,1033617,false,false,1271,image-keyboard-response,5
true,11,2,2,0,false,q,true,false,0.0-2.0-0.38-0.349-3.349,0,0,0,68,false,stim,false,1,1492.0,3,0,0,57493,WMM1,1036616,false,false,1274,image-keyboard-response,6
true,11,1,2,0,false,q,false,false,0.0-2.0-0.38-0.350-3.350,0,0,0,90,false,stim,true,1,620.9999999998836,3,0,0,57493,WMM1,1038742,false,false,1277,image-keyboard-response,7
true,11,1,2,2,false,d,true,false,0.0-2.0-0.39-0.351-3.351,0,0,0,90,false,stim,false,0,1683.0,3,0,1,57493,WMM1,1041933,false,false,1280,image-keyboard-response,8
true,11,0,2,2,false,d,false,false,0.0-2.0-0.39-0.352-3.352,0,0,0,81,false,stim,true,0,734.0,3,0,1,57493,WMM1,1044174,false,false,1283,image-keyboard-response,9
true,11,1,2,2,false,d,true,false,0.0-2.0-0.39-0.353-3.353,0,0,0,90,false,stim,false,0,383.0,3,0,1,57493,WMM1,1046065,false,false,1286,image-keyboard-response,10
true,11,2,2,0,false,q,true,false,0.0-2.0-0.39-0.354-3.354,0,0,0,68,false,stim,false,1,633.0,3,0,0,57493,WMM1,1048206,false,false,1289,image-keyboard-response,11
true,11,2,2,1,false,z,true,false,0.0-2.0-0.39-0.355-3.355,0,0,0,68,false,stim,false,0,568.0,3,0,2,57493,WMM1,1050282,false,false,1292,image-keyboard-response,12
true,11,1,2,1,true,z,false,true,0.0-2.0-0.39-0.356-3.356,0,0,0,90,false,stim,false,0,1136.0,3,0,2,57493,WMM1,1052925,false,false,1295,image-keyboard-response,13
true,11,0,2,0,true,q,false,true,0.0-2.0-0.39-0.357-3.357,0,0,0,81,false,stim,false,1,1122.0,3,0,0,57493,WMM1,1055555,false,false,1298,image-keyboard-response,14
true,11,0,2,0,true,q,false,true,0.0-2.0-0.39-0.358-3.358,0,0,0,81,false,stim,false,1,866.0,3,0,0,57493,WMM1,1057936,false,false,1301,image-keyboard-response,15
true,11,1,2,1,true,z,false,true,0.0-2.0-0.39-0.359-3.359,0,0,0,90,false,stim,false,0,661.0,3,0,2,57493,WMM1,1060105,false,false,1304,image-keyboard-response,16
true,11,2,2,2,true,d,false,true,0.0-2.0-0.40-0.360-3.360,0,0,0,68,false,stim,false,0,779.0,3,0,1,57493,WMM1,1062392,false,false,1307,image-keyboard-response,17
true,11,0,2,0,true,q,false,true,0.0-2.0-0.40-0.361-3.361,0,0,0,81,false,stim,false,1,535.0,3,0,0,57493,WMM1,1064432,false,false,1310,image-keyboard-response,18
true,11,0,2,0,true,q,false,true,0.0-2.0-0.40-0.362-3.362,0,0,0,81,false,stim,false,1,1630.0,3,0,0,57493,WMM1,1067569,false,false,1313,image-keyboard-response,19
true,11,0,2,0,true,q,false,true,0.0-2.0-0.40-0.363-3.363,0,0,0,81,false,stim,false,1,972.0,3,0,0,57493,WMM1,1070048,false,false,1316,image-keyboard-response,20
true,11,1,2,1,true,z,false,true,0.0-2.0-0.40-0.364-3.364,0,0,0,90,false,stim,false,0,673.0,3,0,2,57493,WMM1,1072230,false,false,1319,image-keyboard-response,21
true,11,2,2,2,true,d,false,true,0.0-2.0-0.40-0.365-3.365,0,0,0,68,false,stim,false,0,1010.0,3,0,1,57493,WMM1,1074750,false,false,1322,image-keyboard-response,22
true,11,1,2,1,true,z,false,true,0.0-2.0-0.40-0.366-3.366,0,0,0,90,false,stim,false,0,832.0,3,1,2,57493,WMM1,1077091,false,false,1325,image-keyboard-response,23
true,11,2,2,2,true,d,false,true,0.0-2.0-0.40-0.367-3.367,0,0,0,68,false,stim,false,0,1294.0,3,0,1,57493,WMM1,1079892,false,false,1328,image-keyboard-response,24
true,11,1,2,1,true,z,false,true,0.0-2.0-0.40-0.368-3.368,0,0,0,90,false,stim,false,0,1021.9999999997672,3,1,2,57493,WMM1,1082422,false,false,1331,image-keyboard-response,25
true,11,0,2,0,true,q,false,true,0.0-2.0-0.41-0.369-3.369,0,0,0,81,false,stim,false,1,714.0,3,0,0,57493,WMM1,1084643,false,false,1334,image-keyboard-response,26
true,11,2,2,2,true,d,false,true,0.0-2.0-0.41-0.370-3.370,0,0,0,68,false,stim,false,0,1675.0,3,0,1,57493,WMM1,1087826,false,false,1337,image-keyboard-response,27
true,11,2,2,2,true,d,false,true,0.0-2.0-0.41-0.371-3.371,0,0,0,68,false,stim,false,0,773.9999999997672,3,0,1,57493,WMM1,1090107,false,false,1340,image-keyboard-response,28
true,11,1,2,1,true,z,false,true,0.0-2.0-0.41-0.372-3.372,0,0,0,90,false,stim,false,0,712.0,3,1,2,57493,WMM1,1092327,false,false,1343,image-keyboard-response,29
true,11,1,2,1,true,z,false,false,0.0-2.0-0.41-0.373-3.373,0,0,0,90,false,stim,false,0,698.0,3,1,2,57493,WMM1,1094532,false,true,1346,image-keyboard-response,30
true,11,2,2,2,true,d,false,true,0.0-2.0-0.41-0.374-3.374,0,0,0,68,false,stim,false,0,663.0,3,0,1,57493,WMM1,1096702,false,false,1349,image-keyboard-response,31
true,11,1,2,1,true,z,false,true,0.0-2.0-0.41-0.375-3.375,0,0,0,90,false,stim,false,0,898.0,3,1,2,57493,WMM1,1099108,false,false,1352,image-keyboard-response,32
true,12,0,3,2,false,d,false,false,0.0-2.0-0.41-0.376-3.376,0,0,1,81,true,stim,true,0,838.0,3,0,0,57493,WMM1,1101454,false,false,1355,image-keyboard-response,1
true,12,0,3,2,false,d,false,false,0.0-2.0-0.41-0.377-3.377,0,0,1,81,false,stim,true,0,1018.0,3,0,0,57493,WMM1,1103979,false,false,1358,image-keyboard-response,2
true,12,1,3,2,false,d,true,false,0.0-2.0-0.42-0.378-3.378,0,0,1,90,false,stim,false,0,706.0,3,0,0,57493,WMM1,1106194,false,false,1361,image-keyboard-response,3
true,12,2,3,2,true,d,false,true,0.0-2.0-0.42-0.379-3.379,0,0,1,68,false,stim,false,0,547.0,3,0,0,57493,WMM1,1108249,false,false,1364,image-keyboard-response,4
true,12,2,3,2,true,d,false,true,0.0-2.0-0.42-0.380-3.380,0,0,1,68,false,stim,false,0,882.9999999997672,3,0,0,57493,WMM1,1110639,false,false,1367,image-keyboard-response,5
true,12,1,3,1,true,z,false,true,0.0-2.0-0.42-0.381-3.381,0,0,1,90,false,stim,false,1,531.0,3,1,2,57493,WMM1,1112677,false,false,1370,image-keyboard-response,6
true,12,2,3,1,false,z,false,false,0.0-2.0-0.42-0.382-3.382,0,0,1,68,false,stim,true,2,651.0,3,0,1,57493,WMM1,1114835,false,false,1373,image-keyboard-response,7
true,12,0,3,1,false,z,true,false,0.0-2.0-0.42-0.383-3.383,0,0,1,81,false,stim,false,2,976.0,3,0,1,57493,WMM1,1117326,false,false,1376,image-keyboard-response,8
true,12,1,3,1,true,z,false,true,0.0-2.0-0.42-0.384-3.384,0,0,1,90,false,stim,false,1,847.0000000002328,3,1,2,57493,WMM1,1119679,false,false,1379,image-keyboard-response,9
true,12,2,3,1,false,z,true,false,0.0-2.0-0.42-0.385-3.385,0,0,1,68,false,stim,false,1,622.0,3,1,2,57493,WMM1,1121808,false,false,1382,image-keyboard-response,10
true,12,2,3,1,false,z,false,false,0.0-2.0-0.42-0.386-3.386,0,0,1,68,false,stim,true,2,978.0,3,0,1,57493,WMM1,1124293,false,false,1385,image-keyboard-response,11
true,12,1,3,2,false,d,true,false,0.0-2.0-0.43-0.387-3.387,0,0,1,90,false,stim,false,0,770.0,3,0,0,57493,WMM1,1126569,false,false,1388,image-keyboard-response,12
true,12,1,3,1,true,z,false,true,0.0-2.0-0.43-0.388-3.388,0,0,1,90,false,stim,false,2,1435.0,3,0,1,57493,WMM1,1129511,false,false,1391,image-keyboard-response,13
true,12,1,3,1,true,z,false,true,0.0-2.0-0.43-0.389-3.389,0,0,1,90,false,stim,false,1,609.0,3,1,2,57493,WMM1,1131628,false,false,1394,image-keyboard-response,14
true,12,2,3,2,true,d,false,true,0.0-2.0-0.43-0.390-3.390,0,0,1,68,false,stim,false,0,738.0,3,0,0,57493,WMM1,1133875,false,false,1397,image-keyboard-response,15
true,12,1,3,1,true,z,false,true,0.0-2.0-0.43-0.391-3.391,0,0,1,90,false,stim,false,2,811.0,3,0,1,57493,WMM1,1136194,false,false,1400,image-keyboard-response,16
true,12,2,3,2,true,d,false,true,0.0-2.0-0.43-0.392-3.392,0,0,1,68,false,stim,false,0,1201.0,3,0,0,57493,WMM1,1138912,false,false,1403,image-keyboard-response,17
true,12,1,3,1,true,z,false,true,0.0-2.0-0.43-0.393-3.393,0,0,1,90,false,stim,false,1,769.9999999997672,3,1,2,57493,WMM1,1141190,false,false,1406,image-keyboard-response,18
true,12,1,3,1,true,z,false,true,0.0-2.0-0.43-0.394-3.394,0,0,1,90,false,stim,false,2,1016.0,3,0,1,57493,WMM1,1143714,false,false,1409,image-keyboard-response,19
true,12,1,3,1,true,z,false,true,0.0-2.0-0.43-0.395-3.395,0,0,1,90,false,stim,false,1,1055.0,3,1,2,57493,WMM1,1146276,false,false,1412,image-keyboard-response,20
true,12,1,3,1,true,z,false,true,0.0-2.0-0.44-0.396-3.396,0,0,1,90,false,stim,false,2,841.0,3,0,1,57493,WMM1,1148628,false,false,1415,image-keyboard-response,21
true,12,1,3,1,true,z,false,true,0.0-2.0-0.44-0.397-3.397,0,0,1,90,false,stim,false,1,657.0,3,0,2,57493,WMM1,1150794,false,false,1418,image-keyboard-response,22
true,12,2,3,2,true,d,false,true,0.0-2.0-0.44-0.398-3.398,0,0,1,68,false,stim,false,0,1857.0000000002328,3,0,0,57493,WMM1,1154161,false,false,1421,image-keyboard-response,23
true,12,1,3,1,true,z,false,true,0.0-2.0-0.44-0.399-3.399,0,0,1,90,false,stim,false,1,838.0,3,0,2,57493,WMM1,1156505,false,false,1424,image-keyboard-response,24
true,12,1,3,1,true,z,false,true,0.0-2.0-0.44-0.400-3.400,0,0,1,90,false,stim,false,2,784.0,3,0,1,57493,WMM1,1158797,false,false,1427,image-keyboard-response,25
true,12,2,3,2,true,d,false,true,0.0-2.0-0.44-0.401-3.401,0,0,1,68,false,stim,false,0,956.0,3,0,0,57493,WMM1,1161260,false,false,1430,image-keyboard-response,26
true,12,1,3,1,true,z,false,true,0.0-2.0-0.44-0.402-3.402,0,0,1,90,false,stim,false,2,869.0,3,0,1,57493,WMM1,1163636,false,false,1433,image-keyboard-response,27
true,12,2,3,2,true,d,false,true,0.0-2.0-0.44-0.403-3.403,0,0,1,68,false,stim,false,0,739.0,3,0,0,57493,WMM1,1165884,false,false,1436,image-keyboard-response,28
true,12,1,3,1,true,z,false,true,0.0-2.0-0.44-0.404-3.404,0,0,1,90,false,stim,false,1,591.9999999997672,3,0,2,57493,WMM1,1167983,false,false,1439,image-keyboard-response,29
true,12,2,3,2,true,d,false,true,0.0-2.0-0.45-0.405-3.405,0,0,1,68,false,stim,false,0,1231.0,3,0,0,57493,WMM1,1170726,false,false,1442,image-keyboard-response,30
true,13,2,1,0,false,q,false,false,0.0-2.0-0.45-0.406-3.406,0,0,0,68,true,stim,true,2,799.0,3,0,0,57493,WMM1,1173032,false,false,1445,image-keyboard-response,1
true,13,1,1,2,false,d,false,true,0.0-2.0-0.45-0.407-3.407,0,0,0,90,false,stim,true,1,775.0,3,0,1,57493,WMM1,1175313,false,true,1448,image-keyboard-response,2
true,13,1,1,2,false,d,false,false,0.0-2.0-0.45-0.408-3.408,0,0,0,90,false,stim,true,1,481.0,3,0,2,57493,WMM1,1177303,false,false,1451,image-keyboard-response,3
true,13,0,1,2,false,d,true,true,0.0-2.0-0.45-0.409-3.409,0,0,0,81,false,stim,false,1,1515.0000000002328,3,0,2,57493,WMM1,1180324,false,true,1454,image-keyboard-response,4
true,13,0,1,2,false,d,true,false,0.0-2.0-0.45-0.410-3.410,0,0,0,81,false,stim,false,1,833.0,3,0,2,57493,WMM1,1182664,false,false,1457,image-keyboard-response,5
true,13,1,1,2,false,d,false,false,0.0-2.0-0.45-0.411-3.411,0,0,0,90,false,stim,true,1,1789.0,3,0,1,57493,WMM1,1185959,false,false,1460,image-keyboard-response,6
true,13,2,1,2,true,d,false,true,0.0-2.0-0.45-0.412-3.412,0,0,0,68,false,stim,false,1,1284.0,3,0,1,57493,WMM1,1188749,false,false,1463,image-keyboard-response,7
true,13,2,1,0,false,q,false,false,0.0-2.0-0.45-0.413-3.413,0,0,0,68,false,stim,true,2,922.0,3,0,0,57493,WMM1,1191182,false,false,1466,image-keyboard-response,8
true,13,2,1,2,true,d,false,true,0.0-2.0-0.46-0.414-3.414,0,0,0,68,false,stim,false,1,755.0,3,0,1,57493,WMM1,1193445,false,false,1469,image-keyboard-response,9
true,13,2,1,2,true,d,false,true,0.0-2.0-0.46-0.415-3.415,0,0,0,68,false,stim,false,1,891.0,3,0,1,57493,WMM1,1195844,false,false,1472,image-keyboard-response,10
true,13,0,1,0,true,q,false,true,0.0-2.0-0.46-0.416-3.416,0,0,0,81,false,stim,false,2,689.0,3,0,0,57493,WMM1,1198042,false,false,1475,image-keyboard-response,11
true,13,2,1,2,true,d,false,true,0.0-2.0-0.46-0.417-3.417,0,0,0,68,false,stim,false,1,1107.0,3,0,1,57493,WMM1,1200658,false,false,1478,image-keyboard-response,12
false,13,-1,1,2,false,d,true,false,0.0-2.0-0.46-0.418-3.418,0,0,0,,false,stim,false,1,,3,0,2,57493,WMM1,1205167,false,false,1481,image-keyboard-response,13
true,13,0,1,0,true,q,false,true,0.0-2.0-0.46-0.419-3.419,0,0,0,81,false,stim,false,2,1616.0,3,0,0,57493,WMM1,1208292,false,false,1484,image-keyboard-response,14
true,13,1,1,2,false,d,false,false,0.0-2.0-0.46-0.420-3.420,0,0,0,90,false,stim,true,1,1402.0,3,0,2,57493,WMM1,1211201,false,false,1487,image-keyboard-response,15
true,13,0,1,0,true,q,false,true,0.0-2.0-0.46-0.421-3.421,0,0,0,81,false,stim,false,2,1574.0,3,0,0,57493,WMM1,1214283,false,false,1490,image-keyboard-response,16
true,13,2,1,2,true,d,false,true,0.0-2.0-0.46-0.422-3.422,0,0,0,68,false,stim,false,1,1826.0,3,0,2,57493,WMM1,1217621,false,false,1493,image-keyboard-response,17
true,13,0,1,0,true,q,false,true,0.0-2.0-0.47-0.423-3.423,0,0,0,81,false,stim,false,2,1114.0,3,0,0,57493,WMM1,1220243,false,false,1496,image-keyboard-response,18
true,13,1,1,2,false,d,false,false,0.0-2.0-0.47-0.424-3.424,0,0,0,90,false,stim,true,1,1355.0,3,0,1,57493,WMM1,1223107,false,false,1499,image-keyboard-response,19
true,13,2,1,2,true,d,false,true,0.0-2.0-0.47-0.425-3.425,0,0,0,68,false,stim,false,1,2157.999999999767,3,0,1,57493,WMM1,1226781,false,false,1502,image-keyboard-response,20
true,13,2,1,2,true,d,false,true,0.0-2.0-0.47-0.426-3.426,0,0,0,68,false,stim,false,1,1496.0000000002328,3,0,2,57493,WMM1,1229789,false,false,1505,image-keyboard-response,21
true,13,2,1,2,true,d,false,true,0.0-2.0-0.47-0.427-3.427,0,0,0,68,false,stim,false,1,1589.0,3,0,1,57493,WMM1,1232889,false,false,1508,image-keyboard-response,22
true,13,0,1,0,true,q,false,true,0.0-2.0-0.47-0.428-3.428,0,0,0,81,false,stim,false,2,902.0,3,1,0,57493,WMM1,1235301,false,false,1511,image-keyboard-response,23
true,13,2,1,2,true,d,false,true,0.0-2.0-0.47-0.429-3.429,0,0,0,68,false,stim,false,1,1592.0000000002328,3,1,2,57493,WMM1,1238402,false,false,1514,image-keyboard-response,24
true,13,2,1,2,true,d,false,true,0.0-2.0-0.47-0.430-3.430,0,0,0,68,false,stim,false,1,2012.0,3,1,2,57493,WMM1,1241920,false,false,1517,image-keyboard-response,25
true,13,0,1,0,true,q,false,true,0.0-2.0-0.47-0.431-3.431,0,0,0,81,false,stim,false,2,785.0,3,1,0,57493,WMM1,1244212,false,false,1520,image-keyboard-response,26
true,13,2,1,2,true,d,false,true,0.0-2.0-0.48-0.432-3.432,0,0,0,68,false,stim,false,1,1429.0,3,1,2,57493,WMM1,1247148,false,false,1523,image-keyboard-response,27
true,13,0,1,0,true,q,false,true,0.0-2.0-0.48-0.433-3.433,0,0,0,81,false,stim,false,2,1105.0,3,1,0,57493,WMM1,1249762,false,false,1526,image-keyboard-response,28
true,13,2,1,2,true,d,false,true,0.0-2.0-0.48-0.434-3.434,0,0,0,68,false,stim,false,1,830.0,3,1,2,57493,WMM1,1252100,false,false,1529,image-keyboard-response,29
true,13,0,1,0,true,q,false,true,0.0-2.0-0.48-0.435-3.435,0,0,0,81,false,stim,false,2,667.0,3,1,0,57493,WMM1,1254275,false,false,1532,image-keyboard-response,30
true,13,0,1,2,false,d,true,false,0.0-2.0-0.48-0.436-3.436,0,0,0,81,false,stim,false,1,1347.0,3,1,1,57493,WMM1,1257131,false,false,1535,image-keyboard-response,31
true,13,2,1,2,true,d,false,true,0.0-2.0-0.48-0.437-3.437,0,0,0,68,false,stim,false,1,683.0,3,1,2,57493,WMM1,1259321,false,false,1538,image-keyboard-response,32
true,14,0,0,0,true,q,false,true,0.0-2.0-0.48-0.438-3.438,1,1,1,81,true,stim,false,0,1714.0,3,1,0,57493,WMM1,1382845,false,false,1661,image-keyboard-response,1
true,14,0,0,2,false,d,true,false,0.0-2.0-0.48-0.439-3.439,1,1,1,81,false,stim,false,2,1044.0,3,1,1,57493,WMM1,1385401,false,false,1664,image-keyboard-response,2
true,14,1,0,2,false,d,true,true,0.0-2.0-0.48-0.440-3.440,1,1,1,90,false,stim,false,2,1061.0,3,1,1,57493,WMM1,1387972,false,true,1667,image-keyboard-response,3
true,14,1,0,2,false,d,true,false,0.0-2.0-0.49-0.441-3.441,1,1,1,90,false,stim,false,2,615.0000000002328,3,1,1,57493,WMM1,1390097,false,false,1670,image-keyboard-response,4
true,14,1,0,2,false,d,true,true,0.0-2.0-0.49-0.442-3.442,1,1,1,90,false,stim,false,2,99.0,3,1,2,57493,WMM1,1391702,false,true,1673,image-keyboard-response,5
true,14,0,0,0,true,q,false,true,0.0-2.0-0.49-0.443-3.443,1,1,1,81,false,stim,false,0,831.0,3,1,0,57493,WMM1,1394041,false,false,1676,image-keyboard-response,6
true,14,1,0,2,false,d,true,false,0.0-2.0-0.49-0.444-3.444,1,1,1,90,false,stim,false,2,480.0,3,1,1,57493,WMM1,1396032,false,false,1679,image-keyboard-response,7
true,14,2,0,2,true,d,false,true,0.0-2.0-0.49-0.445-3.445,1,1,1,68,false,stim,false,2,471.0,3,1,1,57493,WMM1,1398012,false,false,1682,image-keyboard-response,8
true,14,0,0,0,true,q,false,false,0.0-2.0-0.49-0.446-3.446,1,1,1,81,false,stim,false,0,944.0,3,1,0,57493,WMM1,1400467,false,true,1685,image-keyboard-response,9
true,14,1,0,2,false,d,true,false,0.0-2.0-0.49-0.447-3.447,1,1,1,90,false,stim,false,2,572.0,3,1,2,57493,WMM1,1402548,false,false,1688,image-keyboard-response,10
true,14,0,0,0,true,q,false,true,0.0-2.0-0.49-0.448-3.448,1,1,1,81,false,stim,false,0,1121.9999999997672,3,1,0,57493,WMM1,1405179,false,false,1691,image-keyboard-response,11
true,14,1,0,2,false,d,true,false,0.0-2.0-0.49-0.449-3.449,1,1,1,90,false,stim,false,2,1601.0,3,1,2,57493,WMM1,1408290,false,false,1694,image-keyboard-response,12
true,14,2,0,2,true,d,false,false,0.0-2.0-0.50-0.450-3.450,1,1,1,68,false,stim,false,2,1295.0000000002328,3,1,1,57493,WMM1,1411099,false,true,1697,image-keyboard-response,13
true,14,2,0,2,true,d,false,true,0.0-2.0-0.50-0.451-3.451,1,1,1,68,false,stim,false,2,471.0,3,1,2,57493,WMM1,1413079,false,false,1700,image-keyboard-response,14
true,14,2,0,0,false,q,true,false,0.0-2.0-0.50-0.452-3.452,1,1,1,68,false,stim,false,0,954.9999999997672,3,1,0,57493,WMM1,1415554,false,false,1703,image-keyboard-response,15
true,14,1,0,2,false,d,true,false,0.0-2.0-0.50-0.453-3.453,1,1,1,90,false,stim,false,2,543.0,3,1,2,57493,WMM1,1417607,false,false,1706,image-keyboard-response,16
true,14,0,0,0,true,q,false,false,0.0-2.0-0.50-0.454-3.454,1,1,1,81,false,stim,false,0,692.0,3,1,0,57493,WMM1,1419809,false,true,1709,image-keyboard-response,17
true,14,1,0,2,false,d,true,false,0.0-2.0-0.50-0.455-3.455,1,1,1,90,false,stim,false,2,924.0,3,1,1,57493,WMM1,1422240,false,false,1712,image-keyboard-response,18
true,14,0,0,2,false,d,true,true,0.0-2.0-0.50-0.456-3.456,1,1,1,81,false,stim,false,2,464.0,3,1,1,57493,WMM1,1424211,false,true,1715,image-keyboard-response,19
true,14,2,0,2,true,d,false,true,0.0-2.0-0.50-0.457-3.457,1,1,1,68,false,stim,false,2,760.0,3,1,2,57493,WMM1,1426479,false,false,1718,image-keyboard-response,20
true,14,1,0,0,false,q,true,false,0.0-2.0-0.50-0.458-3.458,1,1,1,90,false,stim,false,0,631.0,3,1,0,57493,WMM1,1428619,false,false,1721,image-keyboard-response,21
true,14,2,0,2,true,d,false,true,0.0-2.0-0.51-0.459-3.459,1,1,1,68,false,stim,false,2,923.0,3,1,2,57493,WMM1,1431055,false,false,1724,image-keyboard-response,22
true,14,2,0,2,true,d,false,true,0.0-2.0-0.51-0.460-3.460,1,1,1,68,false,stim,false,2,967.0,3,1,2,57493,WMM1,1433533,false,false,1727,image-keyboard-response,23
true,14,0,0,0,true,q,false,true,0.0-2.0-0.51-0.461-3.461,1,1,1,81,false,stim,false,0,622.0,3,1,0,57493,WMM1,1435665,false,false,1730,image-keyboard-response,24
true,14,0,0,2,false,d,true,false,0.0-2.0-0.51-0.462-3.462,1,1,1,81,false,stim,false,2,846.0,3,1,1,57493,WMM1,1438022,false,false,1733,image-keyboard-response,25
true,14,0,0,0,true,q,false,true,0.0-2.0-0.51-0.463-3.463,1,1,1,81,false,stim,false,0,684.0,3,1,0,57493,WMM1,1440218,false,false,1736,image-keyboard-response,26
true,14,0,0,2,false,d,true,false,0.0-2.0-0.51-0.464-3.464,1,1,1,81,false,stim,false,2,544.0,3,1,1,57493,WMM1,1442273,false,false,1739,image-keyboard-response,27
true,14,0,0,0,true,q,false,true,0.0-2.0-0.51-0.465-3.465,1,1,1,81,false,stim,false,0,767.0,3,1,0,57493,WMM1,1444550,false,false,1742,image-keyboard-response,28
true,14,2,0,2,true,d,false,false,0.0-2.0-0.51-0.466-3.466,1,1,1,68,false,stim,false,2,644.0,3,1,2,57493,WMM1,1446707,false,true,1745,image-keyboard-response,29
true,14,1,0,2,false,d,true,false,0.0-2.0-0.51-0.467-3.467,1,1,1,90,false,stim,false,2,581.0,3,1,1,57493,WMM1,1448798,false,false,1748,image-keyboard-response,30
true,14,2,0,2,true,d,false,true,0.0-2.0-0.52-0.468-3.468,1,1,1,68,false,stim,false,2,907.0,3,1,2,57493,WMM1,1451216,false,false,1751,image-keyboard-response,31
true,14,2,0,2,true,d,false,true,0.0-2.0-0.52-0.469-3.469,1,1,1,68,false,stim,false,2,713.0,3,1,2,57493,WMM1,1453438,false,false,1754,image-keyboard-response,32
true,14,2,0,2,true,d,false,true,0.0-2.0-0.52-0.470-3.470,1,1,1,68,false,stim,false,2,742.0000000002328,3,1,2,57493,WMM1,1455688,false,false,1757,image-keyboard-response,33
true,14,0,0,0,true,q,false,true,0.0-2.0-0.52-0.471-3.471,1,1,1,81,false,stim,false,0,1436.9999999997672,3,1,0,57493,WMM1,1458636,false,false,1760,image-keyboard-response,34
true,14,0,0,2,false,d,true,false,0.0-2.0-0.52-0.472-3.472,1,1,1,81,false,stim,false,2,2751.0,3,1,1,57493,WMM1,1462896,false,false,1763,image-keyboard-response,35
false,14,-1,0,0,false,q,true,false,0.0-2.0-0.52-0.473-3.473,1,1,1,,false,stim,false,0,,3,1,0,57493,WMM1,1467408,false,false,1766,image-keyboard-response,36
false,14,-1,0,2,false,d,true,false,0.0-2.0-0.52-0.474-3.474,1,1,1,,false,stim,false,2,,3,1,1,57493,WMM1,1471922,false,false,1769,image-keyboard-response,37
true,14,0,0,2,false,d,true,false,0.0-2.0-0.52-0.475-3.475,1,1,1,81,false,stim,false,2,520.0,3,1,1,57493,WMM1,1473952,false,false,1772,image-keyboard-response,38
true,14,1,0,0,false,q,true,false,0.0-2.0-0.52-0.476-3.476,1,1,1,90,false,stim,false,0,395.0,3,1,0,57493,WMM1,1475858,false,false,1775,image-keyboard-response,39
true,14,0,0,0,true,q,false,true,0.0-2.0-0.53-0.477-3.477,1,1,1,81,false,stim,false,0,665.0000000002328,3,1,0,57493,WMM1,1478037,false,false,1778,image-keyboard-response,40
true,14,2,0,2,true,d,false,true,0.0-2.0-0.53-0.478-3.478,1,1,1,68,false,stim,false,2,578.0,3,1,2,57493,WMM1,1480126,false,false,1781,image-keyboard-response,41
true,14,0,0,0,true,q,false,true,0.0-2.0-0.53-0.479-3.479,1,1,1,81,false,stim,false,0,918.0,3,1,0,57493,WMM1,1482554,false,false,1784,image-keyboard-response,42
true,14,2,0,2,true,d,false,false,0.0-2.0-0.53-0.480-3.480,1,1,1,68,false,stim,false,2,579.9999999997672,3,1,2,57493,WMM1,1484645,false,true,1787,image-keyboard-response,43
true,14,1,0,2,false,d,true,false,0.0-2.0-0.53-0.481-3.481,1,1,1,90,false,stim,false,2,485.0,3,1,1,57493,WMM1,1486639,false,false,1790,image-keyboard-response,44
true,14,0,0,2,false,d,true,false,0.0-2.0-0.53-0.482-3.482,1,1,1,81,false,stim,false,2,698.0000000002328,3,1,1,57493,WMM1,1488844,false,false,1793,image-keyboard-response,45
true,14,0,0,0,true,q,false,true,0.0-2.0-0.53-0.483-3.483,1,1,1,81,false,stim,false,0,713.0,3,1,0,57493,WMM1,1491069,false,false,1796,image-keyboard-response,46
true,14,2,0,2,true,d,false,true,0.0-2.0-0.53-0.484-3.484,1,1,1,68,false,stim,false,2,505.00000000023283,3,1,2,57493,WMM1,1493085,false,false,1799,image-keyboard-response,47
true,14,1,0,2,false,d,true,false,0.0-2.0-0.53-0.485-3.485,1,1,1,90,false,stim,false,2,416.0,3,1,1,57493,WMM1,1495025,false,false,1802,image-keyboard-response,48
true,14,0,0,0,true,q,false,true,0.0-2.0-0.54-0.486-3.486,1,1,1,81,false,stim,false,0,540.9999999997672,3,1,0,57493,WMM1,1497078,false,false,1805,image-keyboard-response,49
true,14,1,0,2,false,d,true,false,0.0-2.0-0.54-0.487-3.487,1,1,1,90,false,stim,false,2,511.0,3,1,1,57493,WMM1,1499100,false,false,1808,image-keyboard-response,50
true,14,0,0,0,true,q,false,true,0.0-2.0-0.54-0.488-3.488,1,1,1,81,false,stim,false,0,653.0,3,0,0,57493,WMM1,1501265,false,false,1811,image-keyboard-response,51
true,14,2,0,2,true,d,false,true,0.0-2.0-0.54-0.489-3.489,1,1,1,68,false,stim,false,2,422.0,3,0,1,57493,WMM1,1503195,false,false,1814,image-keyboard-response,52
true,14,2,0,2,true,d,false,true,0.0-2.0-0.54-0.490-3.490,1,1,1,68,false,stim,false,2,626.0,3,1,2,57493,WMM1,1505330,false,false,1817,image-keyboard-response,53
true,14,2,0,2,true,d,false,false,0.0-2.0-0.54-0.491-3.491,1,1,1,68,false,stim,false,2,611.0,3,1,2,57493,WMM1,1507450,false,true,1820,image-keyboard-response,54
true,14,2,0,2,true,d,false,true,0.0-2.0-0.54-0.492-3.492,1,1,1,68,false,stim,false,2,1250.0,3,0,1,57493,WMM1,1510208,false,false,1823,image-keyboard-response,55
true,14,0,0,0,true,q,false,true,0.0-2.0-0.54-0.493-3.493,1,1,1,81,false,stim,false,0,649.0000000002328,3,0,0,57493,WMM1,1512364,false,false,1826,image-keyboard-response,56
true,14,2,0,2,true,d,false,false,0.0-2.0-0.54-0.494-3.494,1,1,1,68,false,stim,false,2,492.00000000023283,3,1,2,57493,WMM1,1514363,false,true,1829,image-keyboard-response,57
true,14,0,0,0,true,q,false,true,0.0-2.0-0.55-0.495-3.495,1,1,1,81,false,stim,false,0,683.0,3,0,0,57493,WMM1,1516553,false,false,1832,image-keyboard-response,58
true,14,1,0,2,false,d,true,false,0.0-2.0-0.55-0.496-3.496,1,1,1,90,false,stim,false,2,501.0,3,1,2,57493,WMM1,1518571,false,false,1835,image-keyboard-response,59
true,14,0,0,0,true,q,false,true,0.0-2.0-0.55-0.497-3.497,1,1,1,81,false,stim,false,0,627.0,3,0,0,57493,WMM1,1520705,false,false,1838,image-keyboard-response,60
true,15,2,3,0,false,q,false,false,0.0-2.0-0.55-0.498-3.498,0,0,1,68,true,stim,true,2,957.0000000002328,3,0,1,57493,WMM1,1523172,false,false,1841,image-keyboard-response,1
true,15,0,3,2,false,d,true,false,0.0-2.0-0.55-0.499-3.499,0,0,1,81,false,stim,false,2,567.0,3,1,2,57493,WMM1,1525246,false,false,1844,image-keyboard-response,2
true,15,2,3,0,false,q,false,false,0.0-2.0-0.55-0.500-3.500,0,0,1,68,false,stim,true,2,2410.0,3,0,1,57493,WMM1,1529166,false,false,1847,image-keyboard-response,3
true,15,2,3,2,true,d,false,true,0.0-2.0-0.55-0.501-3.501,0,0,1,68,false,stim,false,2,707.0,3,1,2,57493,WMM1,1531380,false,false,1850,image-keyboard-response,4
true,15,0,3,2,false,d,false,false,0.0-2.0-0.55-0.502-3.502,0,0,1,81,false,stim,true,0,585.0,3,0,0,57493,WMM1,1533474,false,false,1853,image-keyboard-response,5
true,15,1,3,0,false,q,true,false,0.0-2.0-0.55-0.503-3.503,0,0,1,90,false,stim,false,2,520.0,3,0,1,57493,WMM1,1535502,false,false,1856,image-keyboard-response,6
true,15,2,3,2,true,d,false,true,0.0-2.0-0.56-0.504-3.504,0,0,1,68,false,stim,false,2,1167.0,3,1,2,57493,WMM1,1538179,false,false,1859,image-keyboard-response,7
true,15,2,3,2,true,d,false,false,0.0-2.0-0.56-0.505-3.505,0,0,1,68,false,stim,false,2,669.0000000002328,3,1,2,57493,WMM1,1540356,false,true,1862,image-keyboard-response,8
true,15,1,3,0,false,q,true,false,0.0-2.0-0.56-0.506-3.506,0,0,1,90,false,stim,false,2,691.0000000002328,3,0,1,57493,WMM1,1542557,false,false,1865,image-keyboard-response,9
true,15,2,3,2,true,d,false,true,0.0-2.0-0.56-0.507-3.507,0,0,1,68,false,stim,false,0,632.0,3,0,0,57493,WMM1,1544697,false,false,1868,image-keyboard-response,10
true,15,2,3,0,false,q,false,false,0.0-2.0-0.56-0.508-3.508,0,0,1,68,false,stim,true,2,936.0,3,0,1,57493,WMM1,1547140,false,false,1871,image-keyboard-response,11
true,15,2,3,2,true,d,false,true,0.0-2.0-0.56-0.509-3.509,0,0,1,68,false,stim,false,2,495.0,3,1,2,57493,WMM1,1549146,false,false,1874,image-keyboard-response,12
true,15,1,3,0,false,q,true,false,0.0-2.0-0.56-0.510-3.510,0,0,1,90,false,stim,false,2,792.0,3,0,1,57493,WMM1,1551444,false,false,1877,image-keyboard-response,13
true,15,2,3,2,true,d,false,true,0.0-2.0-0.56-0.511-3.511,0,0,1,68,false,stim,false,0,621.0,3,0,0,57493,WMM1,1553574,false,false,1880,image-keyboard-response,14
true,15,2,3,2,true,d,false,true,0.0-2.0-0.56-0.512-3.512,0,0,1,68,false,stim,false,0,623.0,3,0,0,57493,WMM1,1555706,false,false,1883,image-keyboard-response,15
true,15,2,3,2,true,d,false,true,0.0-2.0-0.57-0.513-3.513,0,0,1,68,false,stim,false,2,1990.0,3,1,2,57493,WMM1,1559206,false,false,1886,image-keyboard-response,16
true,15,0,3,0,true,q,false,true,0.0-2.0-0.57-0.514-3.514,0,0,1,81,false,stim,false,2,521.0,3,0,1,57493,WMM1,1561236,false,false,1889,image-keyboard-response,17
true,15,2,3,2,true,d,false,true,0.0-2.0-0.57-0.515-3.515,0,0,1,68,false,stim,false,2,715.0,3,1,2,57493,WMM1,1563458,false,false,1892,image-keyboard-response,18
true,15,2,3,2,true,d,false,true,0.0-2.0-0.57-0.516-3.516,0,0,1,68,false,stim,false,0,1528.0,3,0,0,57493,WMM1,1566497,false,false,1895,image-keyboard-response,19
true,15,2,3,2,true,d,false,true,0.0-2.0-0.57-0.517-3.517,0,0,1,68,false,stim,false,0,652.0,3,0,0,57493,WMM1,1568658,false,false,1898,image-keyboard-response,20
true,15,2,3,2,true,d,false,true,0.0-2.0-0.57-0.518-3.518,0,0,1,68,false,stim,false,0,610.0,3,0,0,57493,WMM1,1570792,false,false,1901,image-keyboard-response,21
true,15,0,3,0,true,q,false,true,0.0-2.0-0.57-0.519-3.519,0,0,1,81,false,stim,false,2,933.0,3,0,1,57493,WMM1,1573236,false,false,1904,image-keyboard-response,22
true,15,2,3,2,true,d,false,true,0.0-2.0-0.57-0.520-3.520,0,0,1,68,false,stim,false,2,1449.0,3,0,2,57493,WMM1,1576195,false,false,1907,image-keyboard-response,23
true,15,0,3,0,true,q,false,true,0.0-2.0-0.57-0.521-3.521,0,0,1,81,false,stim,false,2,1663.0,3,0,1,57493,WMM1,1579368,false,false,1910,image-keyboard-response,24
true,15,2,3,2,true,d,false,true,0.0-2.0-0.58-0.522-3.522,0,0,1,68,false,stim,false,2,631.9999999997672,3,0,2,57493,WMM1,1581508,false,false,1913,image-keyboard-response,25
true,15,2,3,2,true,d,false,true,0.0-2.0-0.58-0.523-3.523,0,0,1,68,false,stim,false,2,727.0,3,0,2,57493,WMM1,1583744,false,false,1916,image-keyboard-response,26
true,15,0,3,0,true,q,false,false,0.0-2.0-0.58-0.524-3.524,0,0,1,81,false,stim,false,2,1000.0,3,0,1,57493,WMM1,1586253,false,true,1919,image-keyboard-response,27
true,15,2,3,2,true,d,false,true,0.0-2.0-0.58-0.525-3.525,0,0,1,68,false,stim,false,0,984.9999999997672,3,0,0,57493,WMM1,1588746,false,false,1922,image-keyboard-response,28
true,15,2,3,2,true,d,false,true,0.0-2.0-0.58-0.526-3.526,0,0,1,68,false,stim,false,0,788.0,3,0,0,57493,WMM1,1591044,false,false,1925,image-keyboard-response,29
true,15,2,3,2,true,d,false,true,0.0-2.0-0.58-0.527-3.527,0,0,1,68,false,stim,false,2,1000.0,3,0,2,57493,WMM1,1593552,false,false,1928,image-keyboard-response,30
true,15,2,3,2,true,d,false,false,0.0-2.0-0.58-0.528-3.528,0,0,1,68,false,stim,false,0,717.0,3,0,0,57493,WMM1,1595778,false,true,1931,image-keyboard-response,31
true,15,0,3,0,true,q,false,true,0.0-2.0-0.58-0.529-3.529,0,0,1,81,false,stim,false,2,1010.0,3,0,1,57493,WMM1,1598297,false,false,1934,image-keyboard-response,32
true,16,0,2,2,false,d,false,false,0.0-2.0-0.58-0.530-3.530,0,0,0,81,true,stim,true,0,2699.0,3,0,1,57493,WMM1,1602506,false,false,1937,image-keyboard-response,1
true,16,2,2,0,false,q,false,false,0.0-2.0-0.59-0.531-3.531,0,0,0,68,false,stim,true,2,666.0,3,0,0,57493,WMM1,1604680,false,false,1940,image-keyboard-response,2
true,16,1,2,1,true,z,false,false,0.0-2.0-0.59-0.532-3.532,0,0,0,90,false,stim,false,2,965.0,3,0,2,57493,WMM1,1607154,false,true,1943,image-keyboard-response,3
true,16,2,2,2,true,d,false,true,0.0-2.0-0.59-0.533-3.533,0,0,0,68,false,stim,false,0,862.9999999997672,3,0,1,57493,WMM1,1609527,false,false,1946,image-keyboard-response,4
true,16,2,2,1,false,z,false,false,0.0-2.0-0.59-0.534-3.534,0,0,0,68,false,stim,true,2,807.0,3,0,2,57493,WMM1,1611841,false,false,1949,image-keyboard-response,5
true,16,0,2,0,true,q,false,true,0.0-2.0-0.59-0.535-3.535,0,0,0,81,false,stim,false,2,668.0,3,0,0,57493,WMM1,1614017,false,false,1952,image-keyboard-response,6
true,16,2,2,2,true,d,false,true,0.0-2.0-0.59-0.536-3.536,0,0,0,68,false,stim,false,0,973.0,3,0,1,57493,WMM1,1616498,false,false,1955,image-keyboard-response,7
true,16,0,2,0,true,q,false,true,0.0-2.0-0.59-0.537-3.537,0,0,0,81,false,stim,false,2,821.0,3,0,0,57493,WMM1,1618828,false,false,1958,image-keyboard-response,8
true,16,2,2,2,true,d,false,true,0.0-2.0-0.59-0.538-3.538,0,0,0,68,false,stim,false,0,771.0,3,0,1,57493,WMM1,1621107,false,false,1961,image-keyboard-response,9
true,16,1,2,1,true,z,false,false,0.0-2.0-0.59-0.539-3.539,0,0,0,90,false,stim,false,2,483.99999999976717,3,0,2,57493,WMM1,1623102,false,true,1964,image-keyboard-response,10
true,16,0,2,0,true,q,false,true,0.0-2.0-0.60-0.540-3.540,0,0,0,81,false,stim,false,2,599.0,3,0,0,57493,WMM1,1625211,false,false,1967,image-keyboard-response,11
true,16,0,2,2,false,d,false,false,0.0-2.0-0.60-0.541-3.541,0,0,0,81,false,stim,true,0,1199.0,3,0,1,57493,WMM1,1627917,false,false,1970,image-keyboard-response,12
true,16,2,2,1,false,z,false,true,0.0-2.0-0.60-0.542-3.542,0,0,0,68,false,stim,true,2,798.0,3,0,2,57493,WMM1,1630224,false,true,1973,image-keyboard-response,13
true,16,0,2,0,true,q,false,true,0.0-2.0-0.60-0.543-3.543,0,0,0,81,false,stim,false,2,529.9999999997672,3,0,0,57493,WMM1,1632264,false,false,1976,image-keyboard-response,14
true,16,2,2,1,false,z,false,false,0.0-2.0-0.60-0.544-3.544,0,0,0,68,false,stim,true,2,448.99999999976717,3,0,2,57493,WMM1,1634220,false,false,1979,image-keyboard-response,15
true,16,0,2,0,true,q,false,true,0.0-2.0-0.60-0.545-3.545,0,0,0,81,false,stim,false,2,743.0,3,0,0,57493,WMM1,1636470,false,false,1982,image-keyboard-response,16
true,16,2,2,2,true,d,false,true,0.0-2.0-0.60-0.546-3.546,0,0,0,68,false,stim,false,0,669.0,3,0,1,57493,WMM1,1638648,false,false,1985,image-keyboard-response,17
true,16,2,2,2,true,d,false,true,0.0-2.0-0.60-0.547-3.547,0,0,0,68,false,stim,false,0,835.0000000002328,3,0,1,57493,WMM1,1640994,false,false,1988,image-keyboard-response,18
true,16,1,2,1,true,z,false,true,0.0-2.0-0.60-0.548-3.548,0,0,0,90,false,stim,false,2,789.0000000002328,3,0,2,57493,WMM1,1643291,false,false,1991,image-keyboard-response,19
true,16,1,2,1,true,z,false,true,0.0-2.0-0.61-0.549-3.549,0,0,0,90,false,stim,false,2,803.0,3,0,2,57493,WMM1,1645602,false,false,1994,image-keyboard-response,20
true,16,2,2,2,true,d,false,true,0.0-2.0-0.61-0.550-3.550,0,0,0,68,false,stim,false,0,1467.0000000002328,3,0,1,57493,WMM1,1648580,false,false,1997,image-keyboard-response,21
true,16,0,2,0,true,q,false,true,0.0-2.0-0.61-0.551-3.551,0,0,0,81,false,stim,false,2,840.0,3,0,0,57493,WMM1,1650931,false,false,2000,image-keyboard-response,22
true,16,1,2,1,true,z,false,true,0.0-2.0-0.61-0.552-3.552,0,0,0,90,false,stim,false,2,1691.0,3,0,2,57493,WMM1,1654142,false,false,2003,image-keyboard-response,23
true,16,0,2,0,true,q,false,true,0.0-2.0-0.61-0.553-3.553,0,0,0,81,false,stim,false,2,674.0,3,0,0,57493,WMM1,1656325,false,false,2006,image-keyboard-response,24
true,16,2,2,2,true,d,false,false,0.0-2.0-0.61-0.554-3.554,0,0,0,68,false,stim,false,0,798.0,3,0,1,57493,WMM1,1658634,false,true,2009,image-keyboard-response,25
true,16,1,2,1,true,z,false,false,0.0-2.0-0.61-0.555-3.555,0,0,0,90,false,stim,false,2,1173.0,3,0,2,57493,WMM1,1661314,false,true,2012,image-keyboard-response,26
true,16,2,2,2,true,d,false,true,0.0-2.0-0.61-0.556-3.556,0,0,0,68,false,stim,false,0,1736.0,3,0,1,57493,WMM1,1664559,false,false,2015,image-keyboard-response,27
true,16,0,2,0,true,q,false,true,0.0-2.0-0.61-0.557-3.557,0,0,0,81,false,stim,false,2,625.0,3,0,0,57493,WMM1,1666692,false,false,2018,image-keyboard-response,28
true,16,2,2,1,false,z,false,false,0.0-2.0-0.62-0.558-3.558,0,0,0,68,false,stim,true,2,1415.0,3,0,2,57493,WMM1,1669616,false,false,2021,image-keyboard-response,29
true,16,2,2,2,true,d,false,true,0.0-2.0-0.62-0.559-3.559,0,0,0,68,false,stim,false,0,746.0,3,0,1,57493,WMM1,1671881,false,false,2024,image-keyboard-response,30
true,17,1,4,1,true,z,false,true,0.0-2.0-0.62-0.560-3.560,0,0,0,90,true,stim,false,2,919.9999999997672,3,0,1,57493,WMM1,1674309,false,false,2027,image-keyboard-response,1
true,17,0,4,1,false,z,false,false,0.0-2.0-0.62-0.561-3.561,0,0,0,81,false,stim,true,0,748.0,3,0,0,57493,WMM1,1676565,false,false,2030,image-keyboard-response,2
true,17,1,4,1,true,z,false,true,0.0-2.0-0.62-0.562-3.562,0,0,0,90,false,stim,false,0,493.0,3,0,0,57493,WMM1,1678566,false,false,2033,image-keyboard-response,3
true,17,1,4,1,true,z,false,true,0.0-2.0-0.62-0.563-3.563,0,0,0,90,false,stim,false,2,477.0,3,0,1,57493,WMM1,1680551,false,false,2036,image-keyboard-response,4
true,17,1,4,0,false,q,false,false,0.0-2.0-0.62-0.564-3.564,0,0,0,90,false,stim,true,1,707.0,3,0,2,57493,WMM1,1682766,false,false,2039,image-keyboard-response,5
true,17,1,4,1,true,z,false,true,0.0-2.0-0.62-0.565-3.565,0,0,0,90,false,stim,false,0,567.0,3,0,0,57493,WMM1,1684842,false,false,2042,image-keyboard-response,6
true,17,2,4,0,false,q,true,true,0.0-2.0-0.62-0.566-3.566,0,0,0,68,false,stim,false,1,593.0,3,0,2,57493,WMM1,1686944,false,true,2045,image-keyboard-response,7
true,17,1,4,1,true,z,false,true,0.0-2.0-0.63-0.567-3.567,0,0,0,90,false,stim,false,0,513.0000000002328,3,0,0,57493,WMM1,1688966,false,false,2048,image-keyboard-response,8
true,17,1,4,1,true,z,false,true,0.0-2.0-0.63-0.568-3.568,0,0,0,90,false,stim,false,2,503.99999999976717,3,0,1,57493,WMM1,1690979,false,false,2051,image-keyboard-response,9
true,17,2,4,0,false,q,true,false,0.0-2.0-0.63-0.569-3.569,0,0,0,68,false,stim,false,1,551.0,3,0,2,57493,WMM1,1693038,false,false,2054,image-keyboard-response,10
true,17,1,4,1,true,z,false,true,0.0-2.0-0.63-0.570-3.570,0,0,0,90,false,stim,false,2,446.0,3,0,1,57493,WMM1,1694990,false,false,2057,image-keyboard-response,11
true,17,1,4,1,true,z,false,true,0.0-2.0-0.63-0.571-3.571,0,0,0,90,false,stim,false,2,552.0,3,0,1,57493,WMM1,1697051,false,false,2060,image-keyboard-response,12
true,17,1,4,0,false,q,false,true,0.0-2.0-0.63-0.572-3.572,0,0,0,90,false,stim,true,1,499.0,3,0,2,57493,WMM1,1699057,false,true,2063,image-keyboard-response,13
true,17,1,4,1,true,z,false,true,0.0-2.0-0.63-0.573-3.573,0,0,0,90,false,stim,false,0,528.0,3,0,0,57493,WMM1,1701095,false,false,2066,image-keyboard-response,14
true,17,1,4,0,false,q,false,false,0.0-2.0-0.63-0.574-3.574,0,0,0,90,false,stim,true,1,652.0000000002328,3,0,2,57493,WMM1,1703254,false,false,2069,image-keyboard-response,15
true,17,1,4,1,true,z,false,true,0.0-2.0-0.63-0.575-3.575,0,0,0,90,false,stim,false,0,449.0,3,0,0,57493,WMM1,1705211,false,false,2072,image-keyboard-response,16
true,17,1,4,1,true,z,false,true,0.0-2.0-0.64-0.576-3.576,0,0,0,90,false,stim,false,0,671.0,3,0,0,57493,WMM1,1707392,false,false,2075,image-keyboard-response,17
true,17,1,4,1,true,z,false,true,0.0-2.0-0.64-0.577-3.577,0,0,0,90,false,stim,false,0,649.0,3,0,0,57493,WMM1,1709550,false,false,2078,image-keyboard-response,18
true,17,1,4,1,true,z,false,false,0.0-2.0-0.64-0.578-3.578,0,0,0,90,false,stim,false,0,743.0,3,0,0,57493,WMM1,1711802,false,true,2081,image-keyboard-response,19
true,17,2,4,0,false,q,true,false,0.0-2.0-0.64-0.579-3.579,0,0,0,68,false,stim,false,1,1282.9999999997672,3,0,2,57493,WMM1,1714596,false,false,2084,image-keyboard-response,20
true,17,1,4,1,true,z,false,true,0.0-2.0-0.64-0.580-3.580,0,0,0,90,false,stim,false,2,851.0,3,0,1,57493,WMM1,1716958,false,false,2087,image-keyboard-response,21
true,17,0,4,0,true,q,false,true,0.0-2.0-0.64-0.581-3.581,0,0,0,81,false,stim,false,1,576.0,3,0,2,57493,WMM1,1719044,false,false,2090,image-keyboard-response,22
true,17,0,4,0,true,q,false,true,0.0-2.0-0.64-0.582-3.582,0,0,0,81,false,stim,false,1,803.0000000002328,3,0,2,57493,WMM1,1721361,false,false,2093,image-keyboard-response,23
true,17,2,4,1,false,z,false,false,0.0-2.0-0.64-0.583-3.583,0,0,0,68,false,stim,true,2,742.0,3,0,1,57493,WMM1,1723615,false,false,2096,image-keyboard-response,24
true,17,1,4,1,true,z,false,true,0.0-2.0-0.64-0.584-3.584,0,0,0,90,false,stim,false,2,647.0,3,0,1,57493,WMM1,1725770,false,false,2099,image-keyboard-response,25
true,17,1,4,1,true,z,false,false,0.0-2.0-0.65-0.585-3.585,0,0,0,90,false,stim,false,0,612.0,3,0,0,57493,WMM1,1727901,false,true,2102,image-keyboard-response,26
true,17,2,4,1,false,z,true,false,0.0-2.0-0.65-0.586-3.586,0,0,0,68,false,stim,false,0,1282.0,3,0,0,57493,WMM1,1730690,false,false,2105,image-keyboard-response,27
true,17,0,4,1,false,z,false,false,0.0-2.0-0.65-0.587-3.587,0,0,0,81,false,stim,true,0,672.0,3,0,0,57493,WMM1,1732867,false,false,2108,image-keyboard-response,28
true,17,1,4,1,true,z,false,true,0.0-2.0-0.65-0.588-3.588,0,0,0,90,false,stim,false,2,894.0,3,0,1,57493,WMM1,1735272,false,false,2111,image-keyboard-response,29
true,17,1,4,1,true,z,false,true,0.0-2.0-0.65-0.589-3.589,0,0,0,90,false,stim,false,2,566.0,3,0,1,57493,WMM1,1737347,false,false,2114,image-keyboard-response,30
true,17,1,4,1,true,z,false,true,0.0-2.0-0.65-0.590-3.590,0,0,0,90,false,stim,false,2,675.0,3,0,1,57493,WMM1,1739531,false,false,2117,image-keyboard-response,31
true,17,0,4,0,true,q,false,true,0.0-2.0-0.65-0.591-3.591,0,0,0,81,false,stim,false,1,717.0,3,0,2,57493,WMM1,1741757,false,false,2120,image-keyboard-response,32
true,17,0,4,0,true,q,false,false,0.0-2.0-0.65-0.592-3.592,0,0,0,81,false,stim,false,1,887.0,3,0,2,57493,WMM1,1744151,false,true,2123,image-keyboard-response,33
true,18,2,2,1,false,z,true,false,0.0-2.0-0.65-0.593-3.593,0,0,0,68,true,stim,false,0,2279.0,3,0,2,57493,WMM1,1747940,false,false,2126,image-keyboard-response,1
true,18,1,2,2,false,d,false,false,0.0-2.0-0.66-0.594-3.594,0,0,0,90,false,stim,true,1,1164.0,3,0,1,57493,WMM1,1750615,false,false,2129,image-keyboard-response,2
true,18,0,2,0,true,q,false,true,0.0-2.0-0.66-0.595-3.595,0,0,0,81,false,stim,false,1,1120.0,3,0,0,57493,WMM1,1753243,false,false,2132,image-keyboard-response,3
true,18,0,2,0,true,q,false,true,0.0-2.0-0.66-0.596-3.596,0,0,0,81,false,stim,false,1,727.0,3,0,0,57493,WMM1,1755478,false,false,2135,image-keyboard-response,4
true,18,0,2,0,true,q,false,true,0.0-2.0-0.66-0.597-3.597,0,0,0,81,false,stim,false,1,603.0,3,0,0,57493,WMM1,1757595,false,false,2138,image-keyboard-response,5
true,18,1,2,1,true,z,false,false,0.0-2.0-0.66-0.598-3.598,0,0,0,90,false,stim,false,0,2112.999999999767,3,0,2,57493,WMM1,1761215,false,true,2141,image-keyboard-response,6
true,18,2,2,2,true,d,false,true,0.0-2.0-0.66-0.599-3.599,0,0,0,68,false,stim,false,1,853.0,3,0,1,57493,WMM1,1763576,false,false,2144,image-keyboard-response,7
true,18,0,2,1,false,z,false,false,0.0-2.0-0.66-0.600-3.600,0,0,0,81,false,stim,true,0,1571.9999999997672,3,0,2,57493,WMM1,1766655,false,false,2147,image-keyboard-response,8
true,18,2,2,1,false,z,true,false,0.0-2.0-0.66-0.601-3.601,0,0,0,68,false,stim,false,0,566.0,3,0,2,57493,WMM1,1768730,false,false,2150,image-keyboard-response,9
true,18,2,2,2,true,d,false,true,0.0-2.0-0.66-0.602-3.602,0,0,0,68,false,stim,false,1,698.0,3,0,1,57493,WMM1,1770937,false,false,2153,image-keyboard-response,10
true,18,2,2,2,true,d,false,true,0.0-2.0-0.67-0.603-3.603,0,0,0,68,false,stim,false,1,744.0,3,0,1,57493,WMM1,1773189,false,false,2156,image-keyboard-response,11
true,18,0,2,0,true,q,false,true,0.0-2.0-0.67-0.604-3.604,0,0,0,81,false,stim,false,1,1693.0,3,0,0,57493,WMM1,1776389,false,false,2159,image-keyboard-response,12
true,18,0,2,1,false,z,false,false,0.0-2.0-0.67-0.605-3.605,0,0,0,81,false,stim,true,0,659.9999999997672,3,0,2,57493,WMM1,1778560,false,false,2162,image-keyboard-response,13
true,18,0,2,0,true,q,false,true,0.0-2.0-0.67-0.606-3.606,0,0,0,81,false,stim,false,1,926.0,3,0,0,57493,WMM1,1780996,false,false,2165,image-keyboard-response,14
true,18,2,2,1,false,z,true,false,0.0-2.0-0.67-0.607-3.607,0,0,0,68,false,stim,false,0,1176.0,3,0,2,57493,WMM1,1783682,false,false,2168,image-keyboard-response,15
true,18,2,2,2,true,d,false,true,0.0-2.0-0.67-0.608-3.608,0,0,0,68,false,stim,false,1,999.0,3,0,1,57493,WMM1,1786188,false,false,2171,image-keyboard-response,16
true,18,0,2,1,false,z,false,false,0.0-2.0-0.67-0.609-3.609,0,0,0,81,false,stim,true,0,2484.000000000233,3,0,2,57493,WMM1,1790180,false,false,2174,image-keyboard-response,17
true,18,2,2,2,true,d,false,true,0.0-2.0-0.67-0.610-3.610,0,0,0,68,false,stim,false,1,1398.0,3,0,1,57493,WMM1,1793085,false,false,2177,image-keyboard-response,18
true,18,2,2,0,false,q,true,false,0.0-2.0-0.67-0.611-3.611,0,0,0,68,false,stim,false,1,1796.0000000002328,3,0,0,57493,WMM1,1796392,false,false,2180,image-keyboard-response,19
true,18,1,2,2,false,d,false,false,0.0-2.0-0.68-0.612-3.612,0,0,0,90,false,stim,true,1,1613.0,3,0,1,57493,WMM1,1799514,false,false,2183,image-keyboard-response,20
true,18,0,2,2,false,d,true,true,0.0-2.0-0.68-0.613-3.613,0,0,0,81,false,stim,false,1,925.0,3,0,1,57493,WMM1,1801946,false,true,2186,image-keyboard-response,21
true,18,2,2,0,false,q,true,false,0.0-2.0-0.68-0.614-3.614,0,0,0,68,false,stim,false,1,947.0,3,0,0,57493,WMM1,1804406,false,false,2189,image-keyboard-response,22
true,18,2,2,1,false,z,true,false,0.0-2.0-0.68-0.615-3.615,0,0,0,68,false,stim,false,0,1522.0000000002328,3,0,2,57493,WMM1,1807439,false,false,2192,image-keyboard-response,23
true,18,2,2,1,false,z,true,false,0.0-2.0-0.68-0.616-3.616,0,0,0,68,false,stim,false,0,632.9999999997672,3,0,2,57493,WMM1,1809583,false,false,2195,image-keyboard-response,24
true,18,1,2,0,false,q,false,false,0.0-2.0-0.68-0.617-3.617,0,0,0,90,false,stim,true,1,637.0,3,0,0,57493,WMM1,1811734,false,false,2198,image-keyboard-response,25
true,18,0,2,0,true,q,false,true,0.0-2.0-0.68-0.618-3.618,0,0,0,81,false,stim,false,1,541.0,3,0,0,57493,WMM1,1813799,false,false,2201,image-keyboard-response,26
