answered,blockNum,choice,condition,corResp,correct,correct_response,explo,fb,internal_node_id,isStable_1,isStable_2,isStable_3,key_press,newBlock,part,persev,persevResp,rt,sessNum,stableAS,stimulus,subject,task,time_elapsed,training,trap,trial_index,trial_type,trialsInBlock
true,1,0,0,0,true,q,false,true,0.0-2.0-0.0-0.0-3.0,0,0,0,81,true,stim,false,-1,1241.0,2,0,0,57493,WMM1,148355,false,false,102,image-keyboard-response,1
true,1,1,0,0,false,q,true,false,0.0-2.0-0.0-0.1-3.1,0,0,0,90,false,stim,false,-1,759.0,2,0,1,57493,WMM1,150621,false,false,105,image-keyboard-response,2
true,1,0,0,0,true,q,false,true,0.0-2.0-0.0-0.2-3.2,0,0,0,81,false,stim,false,-1,1207.0,2,0,0,57493,WMM1,153333,false,false,108,image-keyboard-response,3
true,1,2,0,1,false,z,true,false,0.0-2.0-0.0-0.3-3.3,0,0,0,68,false,stim,false,-1,752.0,2,0,2,57493,WMM1,155590,false,false,111,image-keyboard-response,4
true,1,1,0,1,true,z,false,false,0.0-2.0-0.0-0.4-3.4,0,0,0,90,false,stim,false,-1,971.0,2,0,2,57493,WMM1,158067,false,true,114,image-keyboard-response,5
true,1,0,0,0,true,q,false,true,0.0-2.0-0.0-0.5-3.5,0,0,0,81,false,stim,false,-1,130.0,2,0,1,57493,WMM1,159703,false,false,117,image-keyboard-response,6
true,1,0,0,0,true,q,false,true,0.0-2.0-0.0-0.6-3.6,0,0,0,81,false,stim,false,-1,705.0,2,0,1,57493,WMM1,161913,false,false,120,image-keyboard-response,7
true,1,0,0,0,true,q,false,true,0.0-2.0-0.0-0.7-3.7,0,0,0,81,false,stim,false,-1,767.0,2,0,0,57493,WMM1,164193,false,false,123,image-keyboard-response,8
true,1,0,0,1,false,z,true,false,0.0-2.0-0.0-0.8-3.8,0,0,0,81,false,stim,false,-1,552.9999999999709,2,0,2,57493,WMM1,166252,false,false,126,image-keyboard-response,9
true,1,2,0,1,false,z,true,false,0.0-2.0-0.1-0.9-3.9,0,0,0,68,false,stim,false,-1,684.0,2,0,2,57493,WMM1,168442,false,false,129,image-keyboard-response,10
true,1,0,0,0,true,q,false,true,0.0-2.0-0.1-0.10-3.10,0,0,0,81,false,stim,false,-1,786.0,2,0,1,57493,WMM1,170733,false,false,132,image-keyboard-response,11
true,1,0,0,0,true,q,false,true,0.0-2.0-0.1-0.11-3.11,0,0,0,81,false,stim,false,-1,877.0000000000291,2,0,0,57493,WMM1,173117,false,false,135,image-keyboard-response,12
true,1,0,0,0,true,q,false,true,0.0-2.0-0.1-0.12-3.12,0,0,0,81,false,stim,false,-1,845.9999999999709,2,0,0,57493,WMM1,175469,false,false,138,image-keyboard-response,13
true,1,1,0,1,true,z,false,true,0.0-2.0-0.1-0.13-3.13,0,0,0,90,false,stim,false,-1,1976.0,2,0,2,57493,WMM1,178952,false,false,141,image-keyboard-response,14
true,1,0,0,0,true,q,false,true,0.0-2.0-0.1-0.14-3.14,0,0,0,81,false,stim,false,-1,826.0000000000291,2,0,1,57493,WMM1,181283,false,false,144,image-keyboard-response,15
true,1,0,0,0,true,q,false,true,0.0-2.0-0.1-0.15-3.15,0,0,0,81,false,stim,false,-1,1281.0,2,0,0,57493,WMM1,184071,false,false,147,image-keyboard-response,16
true,1,1,0,1,true,z,false,false,0.0-2.0-0.1-0.16-3.16,0,0,0,90,false,stim,false,-1,1317.0,2,0,2,57493,WMM1,186894,false,true,150,image-keyboard-response,17
true,1,0,0,0,true,q,false,true,0.0-2.0-0.1-0.17-3.17,0,0,0,81,false,stim,false,-1,1055.0,2,0,1,57493,WMM1,189454,false,false,153,image-keyboard-response,18
true,1,0,0,0,true,q,false,true,0.0-2.0-0.2-0.18-3.18,0,0,0,81,false,stim,false,-1,951.0,2,0,0,57493,WMM1,191911,false,false,156,image-keyboard-response,19
true,1,0,0,0,true,q,false,true,0.0-2.0-0.2-0.19-3.19,0,0,0,81,false,stim,false,-1,1355.000000000029,2,0,1,57493,WMM1,194772,false,false,159,image-keyboard-response,20
true,1,0,0,0,true,q,false,true,0.0-2.0-0.2-0.20-3.20,0,0,0,81,false,stim,false,-1,1319.0,2,0,1,57493,WMM1,197602,false,false,162,image-keyboard-response,21
true,1,0,0,0,true,q,false,true,0.0-2.0-0.2-0.21-3.21,0,0,0,81,false,stim,false,-1,1467.0,2,0,0,57493,WMM1,200578,false,false,165,image-keyboard-response,22
true,1,0,0,0,true,q,false,false,0.0-2.0-0.2-0.22-3.22,0,0,0,81,false,stim,false,-1,819.0,2,0,0,57493,WMM1,202903,false,true,168,image-keyboard-response,23
true,1,0,0,0,true,q,false,true,0.0-2.0-0.2-0.23-3.23,0,0,0,81,false,stim,false,-1,720.9999999999709,2,0,1,57493,WMM1,205130,false,false,171,image-keyboard-response,24
true,1,2,0,1,false,z,true,false,0.0-2.0-0.2-0.24-3.24,0,0,0,68,false,stim,false,-1,1178.0,2,1,2,57493,WMM1,207815,false,false,174,image-keyboard-response,25
true,1,1,0,1,true,z,false,true,0.0-2.0-0.2-0.25-3.25,0,0,0,90,false,stim,false,-1,925.0,2,1,2,57493,WMM1,210245,false,false,177,image-keyboard-response,26
true,1,1,0,1,true,z,false,true,0.0-2.0-0.2-0.26-3.26,0,0,0,90,false,stim,false,-1,852.0,2,1,2,57493,WMM1,212602,false,false,180,image-keyboard-response,27
true,1,0,0,0,true,q,false,true,0.0-2.0-0.3-0.27-3.27,0,0,0,81,false,stim,false,-1,1281.0,2,0,1,57493,WMM1,215390,false,false,183,image-keyboard-response,28
true,1,0,0,0,true,q,false,true,0.0-2.0-0.3-0.28-3.28,0,0,0,81,false,stim,false,-1,1264.000000000029,2,0,1,57493,WMM1,218159,false,false,186,image-keyboard-response,29
true,1,2,0,0,false,q,true,false,0.0-2.0-0.3-0.29-3.29,0,0,0,68,false,stim,false,-1,1312.0,2,0,0,57493,WMM1,220976,false,false,189,image-keyboard-response,30
true,2,1,3,1,true,z,false,true,0.0-2.0-0.3-0.30-3.30,0,0,1,90,true,stim,false,1,1100.0,2,1,2,57493,WMM1,223583,false,false,192,image-keyboard-response,1
true,2,0,3,1,false,z,false,false,0.0-2.0-0.3-0.31-3.31,0,0,1,81,false,stim,true,0,1179.0,2,0,0,57493,WMM1,226270,false,false,195,image-keyboard-response,2
true,2,1,3,1,true,z,false,false,0.0-2.0-0.3-0.32-3.32,0,0,1,90,false,stim,false,1,1623.0,2,1,2,57493,WMM1,229400,false,true,198,image-keyboard-response,3
true,2,2,3,1,false,z,true,false,0.0-2.0-0.3-0.33-3.33,0,0,1,68,false,stim,false,1,922.0,2,1,2,57493,WMM1,231832,false,false,201,image-keyboard-response,4
true,2,0,3,1,false,z,false,false,0.0-2.0-0.3-0.34-3.34,0,0,1,81,false,stim,true,0,534.9999999999709,2,0,0,57493,WMM1,233873,false,false,204,image-keyboard-response,5
true,2,0,3,2,false,d,false,false,0.0-2.0-0.3-0.35-3.35,0,0,1,81,false,stim,true,0,413.9999999999709,2,0,1,57493,WMM1,235794,false,false,207,image-keyboard-response,6
true,2,1,3,1,true,z,false,true,0.0-2.0-0.4-0.36-3.36,0,0,1,90,false,stim,false,1,821.0,2,1,2,57493,WMM1,238121,false,false,210,image-keyboard-response,7
true,2,1,3,2,false,d,true,false,0.0-2.0-0.4-0.37-3.37,0,0,1,90,false,stim,false,0,516.0,2,0,1,57493,WMM1,240143,false,false,213,image-keyboard-response,8
true,2,1,3,1,true,z,false,true,0.0-2.0-0.4-0.38-3.38,0,0,1,90,false,stim,false,1,635.9999999999709,2,1,2,57493,WMM1,242284,false,false,216,image-keyboard-response,9
true,2,1,3,2,false,d,true,false,0.0-2.0-0.4-0.39-3.39,0,0,1,90,false,stim,false,0,973.9999999999709,2,0,1,57493,WMM1,244771,false,false,219,image-keyboard-response,10
true,2,2,3,2,true,d,false,true,0.0-2.0-0.4-0.40-3.40,0,0,1,68,false,stim,false,0,695.0,2,0,1,57493,WMM1,246972,false,false,222,image-keyboard-response,11
true,2,1,3,1,true,z,false,true,0.0-2.0-0.4-0.41-3.41,0,0,1,90,false,stim,false,1,1073.0,2,1,2,57493,WMM1,249550,false,false,225,image-keyboard-response,12
true,2,2,3,1,false,z,true,false,0.0-2.0-0.4-0.42-3.42,0,0,1,68,false,stim,false,0,1933.0,2,0,0,57493,WMM1,252987,false,false,228,image-keyboard-response,13
true,2,1,3,1,true,z,false,true,0.0-2.0-0.4-0.43-3.43,0,0,1,90,false,stim,false,0,1872.0,2,0,0,57493,WMM1,256367,false,false,231,image-keyboard-response,14
true,2,1,3,1,true,z,false,true,0.0-2.0-0.4-0.44-3.44,0,0,1,90,false,stim,false,0,785.0000000000291,2,0,0,57493,WMM1,258657,false,false,234,image-keyboard-response,15
true,2,2,3,2,true,d,false,true,0.0-2.0-0.5-0.45-3.45,0,0,1,68,false,stim,false,0,1107.0,2,0,1,57493,WMM1,261272,false,false,237,image-keyboard-response,16
true,2,2,3,2,true,d,false,true,0.0-2.0-0.5-0.46-3.46,0,0,1,68,false,stim,false,0,1037.9999999999418,2,0,1,57493,WMM1,263815,false,false,240,image-keyboard-response,17
true,2,1,3,1,true,z,false,true,0.0-2.0-0.5-0.47-3.47,0,0,1,90,false,stim,false,1,606.0,2,1,2,57493,WMM1,265927,false,false,243,image-keyboard-response,18
true,2,1,3,2,false,d,true,false,0.0-2.0-0.5-0.48-3.48,0,0,1,90,false,stim,false,0,778.0,2,0,1,57493,WMM1,268209,false,false,246,image-keyboard-response,19
true,2,1,3,1,true,z,false,true,0.0-2.0-0.5-0.49-3.49,0,0,1,90,false,stim,false,1,759.0,2,1,2,57493,WMM1,270475,false,false,249,image-keyboard-response,20
true,2,1,3,1,true,z,false,true,0.0-2.0-0.5-0.50-3.50,0,0,1,90,false,stim,false,1,678.0,2,1,2,57493,WMM1,272659,false,false,252,image-keyboard-response,21
true,2,1,3,1,true,z,false,true,0.0-2.0-0.5-0.51-3.51,0,0,1,90,false,stim,false,0,696.0,2,0,0,57493,WMM1,274863,false,false,255,image-keyboard-response,22
true,2,1,3,1,true,z,false,true,0.0-2.0-0.5-0.52-3.52,0,0,1,90,false,stim,false,0,1036.0,2,0,0,57493,WMM1,277406,false,false,258,image-keyboard-response,23
true,2,1,3,1,true,z,false,true,0.0-2.0-0.5-0.53-3.53,0,0,1,90,false,stim,false,0,1419.9999999999418,2,0,0,57493,WMM1,280333,false,false,261,image-keyboard-response,24
true,2,2,3,2,true,d,false,true,0.0-2.0-0.6-0.54-3.54,0,0,1,68,false,stim,false,0,827.0,2,0,1,57493,WMM1,282666,false,false,264,image-keyboard-response,25
true,2,1,3,1,true,z,false,false,0.0-2.0-0.6-0.55-3.55,0,0,1,90,false,stim,false,1,1582.0,2,1,2,57493,WMM1,285755,false,true,267,image-keyboard-response,26
true,2,2,3,2,true,d,false,true,0.0-2.0-0.6-0.56-3.56,0,0,1,68,false,stim,false,0,1761.0,2,0,1,57493,WMM1,289021,false,false,270,image-keyboard-response,27
true,2,1,3,1,true,z,false,true,0.0-2.0-0.6-0.57-3.57,0,0,1,90,false,stim,false,0,1276.0,2,1,0,57493,WMM1,291806,false,false,273,image-keyboard-response,28
true,2,1,3,1,true,z,false,true,0.0-2.0-0.6-0.58-3.58,0,0,1,90,false,stim,false,1,1195.9999999999418,2,0,2,57493,WMM1,294509,false,false,276,image-keyboard-response,29
true,2,1,3,1,true,z,false,true,0.0-2.0-0.6-0.59-3.59,0,0,1,90,false,stim,false,0,909.0,2,1,0,57493,WMM1,296925,false,false,279,image-keyboard-response,30
true,2,1,3,1,true,z,false,false,0.0-2.0-0.6-0.60-3.60,0,0,1,90,false,stim,false,1,845.0,2,0,2,57493,WMM1,299276,false,true,282,image-keyboard-response,31
true,2,1,3,1,true,z,false,true,0.0-2.0-0.6-0.61-3.61,0,0,1,90,false,stim,false,0,897.0,2,1,0,57493,WMM1,301678,false,false,285,image-keyboard-response,32
true,2,2,3,2,true,d,false,true,0.0-2.0-0.6-0.62-3.62,0,0,1,68,false,stim,false,0,706.9999999999418,2,0,1,57493,WMM1,303895,false,false,288,image-keyboard-response,33
true,2,2,3,2,true,d,false,true,0.0-2.0-0.7-0.63-3.63,0,0,1,68,false,stim,false,0,1194.0,2,0,1,57493,WMM1,306596,false,false,291,image-keyboard-response,34
true,2,1,3,1,true,z,false,true,0.0-2.0-0.7-0.64-3.64,0,0,1,90,false,stim,false,0,1116.0000000000582,2,1,0,57493,WMM1,309218,false,false,294,image-keyboard-response,35
true,2,1,3,1,true,z,false,true,0.0-2.0-0.7-0.65-3.65,0,0,1,90,false,stim,false,0,888.0,2,1,0,57493,WMM1,311609,false,false,297,image-keyboard-response,36
true,2,0,3,1,false,z,true,false,0.0-2.0-0.7-0.66-3.66,0,0,1,81,false,stim,false,1,643.0,2,0,2,57493,WMM1,313758,false,false,300,image-keyboard-response,37
true,3,1,3,2,false,d,false,false,0.0-2.0-0.7-0.67-3.67,1,0,0,90,true,stim,true,1,770.0,2,0,2,57493,WMM1,316037,false,false,303,image-keyboard-response,1
true,3,2,3,2,true,d,false,true,0.0-2.0-0.7-0.68-3.68,1,0,0,68,false,stim,false,1,772.0,2,0,2,57493,WMM1,318316,false,false,306,image-keyboard-response,2
true,3,1,3,1,true,z,false,true,0.0-2.0-0.7-0.69-3.69,1,0,0,90,false,stim,false,1,1197.0,2,1,0,57493,WMM1,321016,false,false,309,image-keyboard-response,3
true,3,2,3,0,false,q,false,false,0.0-2.0-0.7-0.70-3.70,1,0,0,68,false,stim,true,2,765.0,2,0,1,57493,WMM1,323286,false,false,312,image-keyboard-response,4
true,3,0,3,0,true,q,false,true,0.0-2.0-0.7-0.71-3.71,1,0,0,81,false,stim,false,2,1339.0,2,0,1,57493,WMM1,326130,false,false,315,image-keyboard-response,5
true,3,0,3,0,true,q,false,true,0.0-2.0-0.8-0.72-3.72,1,0,0,81,false,stim,false,2,1259.0,2,0,1,57493,WMM1,328896,false,false,318,image-keyboard-response,6
true,3,2,3,2,true,d,false,true,0.0-2.0-0.8-0.73-3.73,1,0,0,68,false,stim,false,1,946.0,2,0,2,57493,WMM1,331348,false,false,321,image-keyboard-response,7
true,3,1,3,1,true,z,false,true,0.0-2.0-0.8-0.74-3.74,1,0,0,90,false,stim,false,1,792.0,2,1,0,57493,WMM1,333644,false,false,324,image-keyboard-response,8
true,3,2,3,2,true,d,false,true,0.0-2.0-0.8-0.75-3.75,1,0,0,68,false,stim,false,1,1068.0,2,0,2,57493,WMM1,336219,false,false,327,image-keyboard-response,9
true,3,1,3,1,true,z,false,true,0.0-2.0-0.8-0.76-3.76,1,0,0,90,false,stim,false,1,1321.0,2,1,0,57493,WMM1,339046,false,false,330,image-keyboard-response,10
true,3,2,3,2,true,d,false,true,0.0-2.0-0.8-0.77-3.77,1,0,0,68,false,stim,false,1,1147.0,2,0,2,57493,WMM1,341702,false,false,333,image-keyboard-response,11
true,3,0,3,0,true,q,false,true,0.0-2.0-0.8-0.78-3.78,1,0,0,81,false,stim,false,2,1406.0,2,0,1,57493,WMM1,344616,false,false,336,image-keyboard-response,12
true,3,1,3,1,true,z,false,true,0.0-2.0-0.8-0.79-3.79,1,0,0,90,false,stim,false,1,1590.0000000000582,2,1,0,57493,WMM1,347713,false,false,339,image-keyboard-response,13
true,3,0,3,0,true,q,false,true,0.0-2.0-0.8-0.80-3.80,1,0,0,81,false,stim,false,2,655.0000000000582,2,0,1,57493,WMM1,349875,false,false,342,image-keyboard-response,14
true,3,2,3,2,true,d,false,true,0.0-2.0-0.9-0.81-3.81,1,0,0,68,false,stim,false,1,1171.0,2,0,2,57493,WMM1,352555,false,false,345,image-keyboard-response,15
true,3,1,3,1,true,z,false,true,0.0-2.0-0.9-0.82-3.82,1,0,0,90,false,stim,false,1,1511.0,2,1,0,57493,WMM1,355571,false,false,348,image-keyboard-response,16
true,3,0,3,0,true,q,false,true,0.0-2.0-0.9-0.83-3.83,1,0,0,81,false,stim,false,2,886.0000000000582,2,0,1,57493,WMM1,357963,false,false,351,image-keyboard-response,17
true,3,0,3,0,true,q,false,true,0.0-2.0-0.9-0.84-3.84,1,0,0,81,false,stim,false,2,981.9999999999418,2,0,1,57493,WMM1,360450,false,false,354,image-keyboard-response,18
true,3,0,3,0,true,q,false,true,0.0-2.0-0.9-0.85-3.85,1,0,0,81,false,stim,false,2,1216.0,2,0,1,57493,WMM1,363174,false,false,357,image-keyboard-response,19
true,3,2,3,2,true,d,false,true,0.0-2.0-0.9-0.86-3.86,1,0,0,68,false,stim,false,1,1986.0,2,0,2,57493,WMM1,366667,false,false,360,image-keyboard-response,20
true,3,1,3,1,true,z,false,true,0.0-2.0-0.9-0.87-3.87,1,0,0,90,false,stim,false,1,1323.0,2,0,0,57493,WMM1,369508,false,false,363,image-keyboard-response,21
true,3,0,3,1,false,z,true,false,0.0-2.0-0.9-0.88-3.88,1,0,0,81,false,stim,false,1,1814.0,2,0,0,57493,WMM1,372828,false,false,366,image-keyboard-response,22
true,3,2,3,2,true,d,false,false,0.0-2.0-0.9-0.89-3.89,1,0,0,68,false,stim,false,1,2969.0,2,0,2,57493,WMM1,377304,false,true,369,image-keyboard-response,23
true,3,2,3,2,true,d,false,true,0.0-2.0-0.10-0.90-3.90,1,0,0,68,false,stim,false,1,2611.0,2,0,2,57493,WMM1,381421,false,false,372,image-keyboard-response,24
true,3,2,3,2,true,d,false,true,0.0-2.0-0.10-0.91-3.91,1,0,0,68,false,stim,false,1,801.0,2,0,2,57493,WMM1,383730,false,false,375,image-keyboard-response,25
true,3,0,3,0,true,q,false,true,0.0-2.0-0.10-0.92-3.92,1,0,0,81,false,stim,false,2,822.0,2,0,1,57493,WMM1,386058,false,false,378,image-keyboard-response,26
true,3,2,3,2,true,d,false,true,0.0-2.0-0.10-0.93-3.93,1,0,0,68,false,stim,false,1,895.0,2,0,2,57493,WMM1,388458,false,false,381,image-keyboard-response,27
true,3,0,3,0,true,q,false,true,0.0-2.0-0.10-0.94-3.94,1,0,0,81,false,stim,false,2,723.0,2,0,1,57493,WMM1,390688,false,false,384,image-keyboard-response,28
true,3,1,3,1,true,z,false,true,0.0-2.0-0.10-0.95-3.95,1,0,0,90,false,stim,false,1,878.0,2,0,0,57493,WMM1,393072,false,false,387,image-keyboard-response,29
true,3,1,3,1,true,z,false,true,0.0-2.0-0.10-0.96-3.96,1,0,0,90,false,stim,false,1,841.9999999999418,2,0,0,57493,WMM1,395420,false,false,390,image-keyboard-response,30
true,4,1,1,0,false,q,false,false,0.0-2.0-0.10-0.97-3.97,0,0,0,90,true,stim,true,1,844.0,2,0,0,57493,WMM1,397769,false,false,393,image-keyboard-response,1
true,4,0,1,2,false,d,false,false,0.0-2.0-0.10-0.98-3.98,0,0,0,81,false,stim,true,0,1011.0,2,0,1,57493,WMM1,400284,false,false,396,image-keyboard-response,2
true,4,2,1,0,false,q,true,false,0.0-2.0-0.11-0.99-3.99,0,0,0,68,false,stim,false,1,1709.0,2,0,0,57493,WMM1,403497,false,false,399,image-keyboard-response,3
true,4,2,1,1,false,z,false,false,0.0-2.0-0.11-0.100-3.100,0,0,0,68,false,stim,true,2,1082.0000000000582,2,0,2,57493,WMM1,406090,false,false,402,image-keyboard-response,4
true,4,0,1,2,false,d,false,false,0.0-2.0-0.11-0.101-3.101,0,0,0,81,false,stim,true,0,654.9999999999418,2,0,1,57493,WMM1,408250,false,false,405,image-keyboard-response,5
true,4,0,1,0,true,q,false,true,0.0-2.0-0.11-0.102-3.102,0,0,0,81,false,stim,false,1,564.0,2,0,0,57493,WMM1,410321,false,false,408,image-keyboard-response,6
true,4,1,1,2,false,d,true,true,0.0-2.0-0.11-0.103-3.103,0,0,0,90,false,stim,false,0,1242.0,2,0,1,57493,WMM1,413069,false,true,411,image-keyboard-response,7
true,4,1,1,1,true,z,false,true,0.0-2.0-0.11-0.104-3.104,0,0,0,90,false,stim,false,2,798.0,2,0,2,57493,WMM1,415371,false,false,414,image-keyboard-response,8
true,4,0,1,0,true,q,false,true,0.0-2.0-0.11-0.105-3.105,0,0,0,81,false,stim,false,1,936.0,2,0,0,57493,WMM1,417813,false,false,417,image-keyboard-response,9
true,4,1,1,1,true,z,false,true,0.0-2.0-0.11-0.106-3.106,0,0,0,90,false,stim,false,2,1176.0,2,0,2,57493,WMM1,420496,false,false,420,image-keyboard-response,10
true,4,1,1,2,false,d,true,false,0.0-2.0-0.11-0.107-3.107,0,0,0,90,false,stim,false,0,1107.0,2,0,1,57493,WMM1,423111,false,false,423,image-keyboard-response,11
true,4,2,1,2,true,d,false,false,0.0-2.0-0.12-0.108-3.108,0,0,0,68,false,stim,false,0,672.0000000000582,2,0,1,57493,WMM1,425287,false,true,426,image-keyboard-response,12
true,4,0,1,2,false,d,false,false,0.0-2.0-0.12-0.109-3.109,0,0,0,81,false,stim,true,0,1057.0,2,0,1,57493,WMM1,427847,false,false,429,image-keyboard-response,13
true,4,0,1,0,true,q,false,true,0.0-2.0-0.12-0.110-3.110,0,0,0,81,false,stim,false,1,759.0,2,0,0,57493,WMM1,430112,false,false,432,image-keyboard-response,14
true,4,1,1,1,true,z,false,true,0.0-2.0-0.12-0.111-3.111,0,0,0,90,false,stim,false,2,737.0,2,0,2,57493,WMM1,432355,false,false,435,image-keyboard-response,15
true,4,0,1,0,true,q,false,true,0.0-2.0-0.12-0.112-3.112,0,0,0,81,false,stim,false,1,956.0,2,0,0,57493,WMM1,434822,false,false,438,image-keyboard-response,16
true,4,1,1,1,true,z,false,true,0.0-2.0-0.12-0.113-3.113,0,0,0,90,false,stim,false,2,1152.0,2,0,2,57493,WMM1,437478,false,false,441,image-keyboard-response,17
true,4,1,1,1,true,z,false,true,0.0-2.0-0.12-0.114-3.114,0,0,0,90,false,stim,false,2,865.0,2,0,2,57493,WMM1,439850,false,false,444,image-keyboard-response,18
true,4,0,1,0,true,q,false,true,0.0-2.0-0.12-0.115-3.115,0,0,0,81,false,stim,false,1,1027.0,2,0,0,57493,WMM1,442382,false,false,447,image-keyboard-response,19
true,4,1,1,2,false,d,true,false,0.0-2.0-0.12-0.116-3.116,0,0,0,90,false,stim,false,0,1212.9999999999418,2,0,1,57493,WMM1,445101,false,false,450,image-keyboard-response,20
true,4,1,1,2,false,d,true,false,0.0-2.0-0.13-0.117-3.117,0,0,0,90,false,stim,false,0,738.9999999999418,2,0,1,57493,WMM1,447346,false,false,453,image-keyboard-response,21
true,4,1,1,1,true,z,false,true,0.0-2.0-0.13-0.118-3.118,0,0,0,90,false,stim,false,2,1289.9999999999418,2,0,2,57493,WMM1,450142,false,false,456,image-keyboard-response,22
true,4,2,1,2,true,d,false,false,0.0-2.0-0.13-0.119-3.119,0,0,0,68,false,stim,false,0,772.0000000000582,2,0,1,57493,WMM1,452424,false,true,459,image-keyboard-response,23
true,4,0,1,0,true,q,false,true,0.0-2.0-0.13-0.120-3.120,0,0,0,81,false,stim,false,1,1141.0,2,0,0,57493,WMM1,455075,false,false,462,image-keyboard-response,24
true,4,1,1,1,true,z,false,true,0.0-2.0-0.13-0.121-3.121,0,0,0,90,false,stim,false,2,631.0,2,0,2,57493,WMM1,457211,false,false,465,image-keyboard-response,25
true,4,0,1,0,true,q,false,false,0.0-2.0-0.13-0.122-3.122,0,0,0,81,false,stim,false,1,933.0,2,0,0,57493,WMM1,459650,false,true,468,image-keyboard-response,26
true,4,1,1,1,true,z,false,true,0.0-2.0-0.13-0.123-3.123,0,0,0,90,false,stim,false,2,1223.9999999999418,2,0,2,57493,WMM1,462380,false,false,471,image-keyboard-response,27
true,4,1,1,0,false,q,false,false,0.0-2.0-0.13-0.124-3.124,0,0,0,90,false,stim,true,1,640.0,2,0,0,57493,WMM1,464527,false,false,474,image-keyboard-response,28
true,4,1,1,2,false,d,true,false,0.0-2.0-0.13-0.125-3.125,0,0,0,90,false,stim,false,0,1110.0,2,0,1,57493,WMM1,467147,false,false,477,image-keyboard-response,29
true,4,0,1,2,false,d,false,false,0.0-2.0-0.14-0.126-3.126,0,0,0,81,false,stim,true,0,881.0,2,0,1,57493,WMM1,469535,false,false,480,image-keyboard-response,30
true,4,0,1,0,true,q,false,true,0.0-2.0-0.14-0.127-3.127,0,0,0,81,false,stim,false,1,1228.0,2,0,0,57493,WMM1,472270,false,false,483,image-keyboard-response,31
true,4,0,1,0,true,q,false,true,0.0-2.0-0.14-0.128-3.128,0,0,0,81,false,stim,false,1,1254.0,2,0,0,57493,WMM1,475030,false,false,486,image-keyboard-response,32
true,4,1,1,1,true,z,false,true,0.0-2.0-0.14-0.129-3.129,0,0,0,90,false,stim,false,2,656.0000000000582,2,0,2,57493,WMM1,477192,false,false,489,image-keyboard-response,33
true,4,2,1,2,true,d,false,true,0.0-2.0-0.14-0.130-3.130,0,0,0,68,false,stim,false,0,551.0,2,0,1,57493,WMM1,479251,false,false,492,image-keyboard-response,34
true,4,1,1,1,true,z,false,true,0.0-2.0-0.14-0.131-3.131,0,0,0,90,false,stim,false,2,1307.0,2,0,2,57493,WMM1,482069,false,false,495,image-keyboard-response,35
true,4,2,1,2,true,d,false,true,0.0-2.0-0.14-0.132-3.132,0,0,0,68,false,stim,false,0,1372.0,2,0,1,57493,WMM1,484948,false,false,498,image-keyboard-response,36
true,4,1,1,1,true,z,false,true,0.0-2.0-0.14-0.133-3.133,0,0,0,90,false,stim,false,2,907.0,2,0,2,57493,WMM1,487365,false,false,501,image-keyboard-response,37
true,4,0,1,0,true,q,false,true,0.0-2.0-0.14-0.134-3.134,0,0,0,81,false,stim,false,1,746.0,2,0,0,57493,WMM1,489618,false,false,504,image-keyboard-response,38
true,4,0,1,0,true,q,false,true,0.0-2.0-0.15-0.135-3.135,0,0,0,81,false,stim,false,1,2346.0,2,0,0,57493,WMM1,493471,false,false,507,image-keyboard-response,39
true,4,2,1,2,true,d,false,true,0.0-2.0-0.15-0.136-3.136,0,0,0,68,false,stim,false,0,1829.0,2,0,1,57493,WMM1,496807,false,false,510,image-keyboard-response,40
true,4,1,1,1,true,z,false,true,0.0-2.0-0.15-0.137-3.137,0,0,0,90,false,stim,false,2,920.0,2,0,2,57493,WMM1,499232,false,false,513,image-keyboard-response,41
true,4,1,1,1,true,z,false,true,0.0-2.0-0.15-0.138-3.138,0,0,0,90,false,stim,false,2,1383.0000000000582,2,0,2,57493,WMM1,502121,false,false,516,image-keyboard-response,42
true,4,2,1,2,true,d,false,false,0.0-2.0-0.15-0.139-3.139,0,0,0,68,false,stim,false,0,2143.999999999942,2,0,1,57493,WMM1,505772,false,true,519,image-keyboard-response,43
true,4,0,1,0,true,q,false,true,0.0-2.0-0.15-0.140-3.140,0,0,0,81,false,stim,false,1,840.0,2,0,0,57493,WMM1,508123,false,false,522,image-keyboard-response,44
true,4,2,1,2,true,d,false,true,0.0-2.0-0.15-0.141-3.141,0,0,0,68,false,stim,false,0,1065.0000000000582,2,0,1,57493,WMM1,510695,false,false,525,image-keyboard-response,45
true,4,0,1,0,true,q,false,true,0.0-2.0-0.15-0.142-3.142,0,0,0,81,false,stim,false,1,1330.0000000000582,2,0,0,57493,WMM1,513532,false,false,528,image-keyboard-response,46
true,5,1,4,0,false,q,false,false,0.0-2.0-0.15-0.143-3.143,0,0,0,90,true,stim,true,1,771.0,2,0,2,57493,WMM1,515808,false,false,531,image-keyboard-response,1
true,5,2,4,0,false,q,true,false,0.0-2.0-0.16-0.144-3.144,0,0,0,68,false,stim,false,1,675.0000000000582,2,0,2,57493,WMM1,517988,false,false,534,image-keyboard-response,2
true,5,0,4,2,false,d,false,false,0.0-2.0-0.16-0.145-3.145,0,0,0,81,false,stim,true,0,1203.9999999999418,2,0,0,57493,WMM1,520697,false,false,537,image-keyboard-response,3
true,5,2,4,1,false,z,false,false,0.0-2.0-0.16-0.146-3.146,0,0,0,68,false,stim,true,2,1332.0,2,0,1,57493,WMM1,523533,false,false,540,image-keyboard-response,4
true,5,0,4,2,false,d,false,false,0.0-2.0-0.16-0.147-3.147,0,0,0,81,false,stim,true,0,862.0,2,0,0,57493,WMM1,525900,false,false,543,image-keyboard-response,5
true,5,1,4,0,false,q,false,false,0.0-2.0-0.16-0.148-3.148,0,0,0,90,false,stim,true,1,643.0,2,0,2,57493,WMM1,528052,false,false,546,image-keyboard-response,6
true,5,2,4,0,false,q,true,false,0.0-2.0-0.16-0.149-3.149,0,0,0,68,false,stim,false,1,853.0,2,0,2,57493,WMM1,530412,false,false,549,image-keyboard-response,7
true,5,2,4,1,false,z,false,false,0.0-2.0-0.16-0.150-3.150,0,0,0,68,false,stim,true,2,998.0,2,0,1,57493,WMM1,532916,false,false,552,image-keyboard-response,8
true,5,1,4,1,true,z,false,false,0.0-2.0-0.16-0.151-3.151,0,0,0,90,false,stim,false,2,662.0,2,0,1,57493,WMM1,535086,false,true,555,image-keyboard-response,9
true,5,0,4,2,false,d,false,false,0.0-2.0-0.16-0.152-3.152,0,0,0,81,false,stim,true,0,548.0,2,0,0,57493,WMM1,537140,false,false,558,image-keyboard-response,10
true,5,0,4,1,false,z,true,false,0.0-2.0-0.17-0.153-3.153,0,0,0,81,false,stim,false,2,711.9999999998836,2,0,1,57493,WMM1,539358,false,false,561,image-keyboard-response,11
true,5,0,4,2,false,d,false,true,0.0-2.0-0.17-0.154-3.154,0,0,0,81,false,stim,true,0,608.0,2,0,0,57493,WMM1,541472,false,true,564,image-keyboard-response,12
true,5,0,4,1,false,z,true,true,0.0-2.0-0.17-0.155-3.155,0,0,0,81,false,stim,false,2,610.0,2,0,1,57493,WMM1,543590,false,true,567,image-keyboard-response,13
true,5,0,4,2,false,d,false,false,0.0-2.0-0.17-0.156-3.156,0,0,0,81,false,stim,true,0,776.0000000001164,2,0,0,57493,WMM1,545873,false,false,570,image-keyboard-response,14
true,5,1,4,0,false,q,false,false,0.0-2.0-0.17-0.157-3.157,0,0,0,90,false,stim,true,1,1524.0,2,0,2,57493,WMM1,548905,false,false,573,image-keyboard-response,15
true,5,0,4,0,true,q,false,true,0.0-2.0-0.17-0.158-3.158,0,0,0,81,false,stim,false,1,571.0,2,0,2,57493,WMM1,550984,false,false,576,image-keyboard-response,16
true,5,0,4,1,false,z,true,false,0.0-2.0-0.17-0.159-3.159,0,0,0,81,false,stim,false,2,1008.0000000001164,2,0,1,57493,WMM1,553499,false,false,579,image-keyboard-response,17
true,5,0,4,0,true,q,false,false,0.0-2.0-0.17-0.160-3.160,0,0,0,81,false,stim,false,1,844.9999999998836,2,0,2,57493,WMM1,555850,false,true,582,image-keyboard-response,18
true,5,0,4,2,false,d,false,false,0.0-2.0-0.17-0.161-3.161,0,0,0,81,false,stim,true,0,717.0,2,0,0,57493,WMM1,558073,false,false,585,image-keyboard-response,19
true,5,2,4,2,true,d,false,true,0.0-2.0-0.18-0.162-3.162,0,0,0,68,false,stim,false,0,1309.0,2,0,0,57493,WMM1,560894,false,false,588,image-keyboard-response,20
true,5,2,4,2,true,d,false,true,0.0-2.0-0.18-0.163-3.163,0,0,0,68,false,stim,false,0,800.0,2,0,0,57493,WMM1,563202,false,false,591,image-keyboard-response,21
true,5,2,4,1,false,z,false,true,0.0-2.0-0.18-0.164-3.164,0,0,0,68,false,stim,true,2,900.0,2,0,1,57493,WMM1,565610,false,true,594,image-keyboard-response,22
true,5,2,4,0,false,q,true,false,0.0-2.0-0.18-0.165-3.165,0,0,0,68,false,stim,false,1,722.0000000001164,2,0,2,57493,WMM1,567839,false,false,597,image-keyboard-response,23
true,5,2,4,1,false,z,false,false,0.0-2.0-0.18-0.166-3.166,0,0,0,68,false,stim,true,2,821.0,2,0,1,57493,WMM1,570168,false,false,600,image-keyboard-response,24
true,5,1,4,0,false,q,false,false,0.0-2.0-0.18-0.167-3.167,0,0,0,90,false,stim,true,1,834.0000000001164,2,0,2,57493,WMM1,572518,false,false,603,image-keyboard-response,25
true,5,2,4,0,false,q,true,true,0.0-2.0-0.18-0.168-3.168,0,0,0,68,false,stim,false,1,617.0,2,0,2,57493,WMM1,574642,false,true,606,image-keyboard-response,26
true,5,0,4,1,false,z,true,false,0.0-2.0-0.18-0.169-3.169,0,0,0,81,false,stim,false,2,811.0000000001164,2,0,1,57493,WMM1,576961,false,false,609,image-keyboard-response,27
true,5,0,4,2,false,d,false,false,0.0-2.0-0.18-0.170-3.170,0,0,0,81,false,stim,true,0,1016.0,2,0,0,57493,WMM1,579484,false,false,612,image-keyboard-response,28
true,5,1,4,1,true,z,false,true,0.0-2.0-0.19-0.171-3.171,0,0,0,90,false,stim,false,2,1235.0,2,0,1,57493,WMM1,582227,false,false,615,image-keyboard-response,29
true,5,0,4,2,false,d,false,false,0.0-2.0-0.19-0.172-3.172,0,0,0,81,false,stim,true,0,597.0,2,0,0,57493,WMM1,584332,false,false,618,image-keyboard-response,30
true,5,1,4,2,false,d,true,false,0.0-2.0-0.19-0.173-3.173,0,0,0,90,false,stim,false,0,584.0,2,0,0,57493,WMM1,586423,false,false,621,image-keyboard-response,31
true,5,2,4,0,false,q,true,true,0.0-2.0-0.19-0.174-3.174,0,0,0,68,false,stim,false,1,739.0000000001164,2,0,2,57493,WMM1,588670,false,true,624,image-keyboard-response,32
true,5,2,4,0,false,q,true,true,0.0-2.0-0.19-0.175-3.175,0,0,0,68,false,stim,false,1,537.0,2,0,2,57493,WMM1,590714,false,true,627,image-keyboard-response,33
true,5,2,4,2,true,d,false,true,0.0-2.0-0.19-0.176-3.176,0,0,0,68,false,stim,false,0,710.0,2,0,0,57493,WMM1,592932,false,false,630,image-keyboard-response,34
true,5,1,4,1,true,z,false,true,0.0-2.0-0.19-0.177-3.177,0,0,0,90,false,stim,false,2,905.9999999998836,2,0,1,57493,WMM1,595350,false,false,633,image-keyboard-response,35
true,5,1,4,1,true,z,false,true,0.0-2.0-0.19-0.178-3.178,0,0,0,90,false,stim,false,2,689.0,2,0,1,57493,WMM1,597546,false,false,636,image-keyboard-response,36
true,5,2,4,0,false,q,true,false,0.0-2.0-0.19-0.179-3.179,0,0,0,68,false,stim,false,1,934.0,2,0,2,57493,WMM1,599990,false,false,639,image-keyboard-response,37
true,5,2,4,1,false,z,false,false,0.0-2.0-0.20-0.180-3.180,0,0,0,68,false,stim,true,2,1418.0000000001164,2,0,1,57493,WMM1,602916,false,false,642,image-keyboard-response,38
true,5,2,4,2,true,d,false,true,0.0-2.0-0.20-0.181-3.181,0,0,0,68,false,stim,false,0,2308.0,2,0,0,57493,WMM1,606732,false,false,645,image-keyboard-response,39
true,5,2,4,2,true,d,false,true,0.0-2.0-0.20-0.182-3.182,0,0,0,68,false,stim,false,0,935.9999999998836,2,0,0,57493,WMM1,609175,false,false,648,image-keyboard-response,40
true,5,2,4,0,false,q,true,false,0.0-2.0-0.20-0.183-3.183,0,0,0,68,false,stim,false,1,727.0,2,0,2,57493,WMM1,611414,false,false,651,image-keyboard-response,41
true,5,1,4,1,true,z,false,true,0.0-2.0-0.20-0.184-3.184,0,0,0,90,false,stim,false,2,884.0,2,0,1,57493,WMM1,613804,false,false,654,image-keyboard-response,42
true,5,0,4,0,true,q,false,true,0.0-2.0-0.20-0.185-3.185,0,0,0,81,false,stim,false,1,501.0,2,0,2,57493,WMM1,615811,false,false,657,image-keyboard-response,43
true,5,1,4,1,true,z,false,true,0.0-2.0-0.20-0.186-3.186,0,0,0,90,false,stim,false,2,848.0000000001164,2,0,1,57493,WMM1,618167,false,false,660,image-keyboard-response,44
true,5,2,4,2,true,d,false,true,0.0-2.0-0.20-0.187-3.187,0,0,0,68,false,stim,false,0,956.0,2,0,0,57493,WMM1,620634,false,false,663,image-keyboard-response,45
true,5,0,4,0,true,q,false,false,0.0-2.0-0.20-0.188-3.188,0,0,0,81,false,stim,false,1,612.9999999998836,2,0,2,57493,WMM1,622756,false,true,666,image-keyboard-response,46
true,5,2,4,0,false,q,true,false,0.0-2.0-0.21-0.189-3.189,0,0,0,68,false,stim,false,1,713.0,2,0,2,57493,WMM1,624977,false,false,669,image-keyboard-response,47
true,5,0,4,0,true,q,false,true,0.0-2.0-0.21-0.190-3.190,0,0,0,81,false,stim,false,1,649.0,2,0,2,57493,WMM1,627134,false,false,672,image-keyboard-response,48
true,5,1,4,1,true,z,false,true,0.0-2.0-0.21-0.191-3.191,0,0,0,90,false,stim,false,2,456.9999999998836,2,0,1,57493,WMM1,629100,false,false,675,image-keyboard-response,49
true,5,2,4,2,true,d,false,true,0.0-2.0-0.21-0.192-3.192,0,0,0,68,false,stim,false,0,582.0,2,0,0,57493,WMM1,631190,false,false,678,image-keyboard-response,50
true,5,0,4,0,true,q,false,true,0.0-2.0-0.21-0.193-3.193,0,0,0,81,false,stim,false,1,572.0,2,0,2,57493,WMM1,633269,false,false,681,image-keyboard-response,51
true,5,2,4,2,true,d,false,true,0.0-2.0-0.21-0.194-3.194,0,0,0,68,false,stim,false,0,922.0,2,0,0,57493,WMM1,635702,false,false,684,image-keyboard-response,52
true,5,1,4,1,true,z,false,true,0.0-2.0-0.21-0.195-3.195,0,0,0,90,false,stim,false,2,649.0,2,0,1,57493,WMM1,637858,false,false,687,image-keyboard-response,53
true,5,2,4,2,true,d,false,true,0.0-2.0-0.21-0.196-3.196,0,0,0,68,false,stim,false,0,858.0000000001164,2,0,0,57493,WMM1,640220,false,false,690,image-keyboard-response,54
true,5,1,4,1,true,z,false,true,0.0-2.0-0.21-0.197-3.197,0,0,0,90,false,stim,false,2,1116.0,2,0,1,57493,WMM1,642842,false,false,693,image-keyboard-response,55
true,5,1,4,1,true,z,false,true,0.0-2.0-0.22-0.198-3.198,0,0,0,90,false,stim,false,2,1195.0,2,0,1,57493,WMM1,645546,false,false,696,image-keyboard-response,56
true,6,1,2,2,false,d,false,false,0.0-2.0-0.22-0.199-3.199,0,0,0,90,true,stim,true,1,1479.0,2,0,1,57493,WMM1,648531,false,false,699,image-keyboard-response,1
true,6,2,2,0,false,q,false,false,0.0-2.0-0.22-0.200-3.200,0,0,0,68,false,stim,true,2,1404.0,2,0,0,57493,WMM1,651451,false,false,702,image-keyboard-response,2
true,6,1,2,2,false,d,false,false,0.0-2.0-0.22-0.201-3.201,0,0,0,90,false,stim,true,1,1652.0,2,0,1,57493,WMM1,654607,false,false,705,image-keyboard-response,3
true,6,0,2,1,false,z,false,false,0.0-2.0-0.22-0.202-3.202,0,0,0,81,false,stim,true,0,1293.0,2,0,2,57493,WMM1,657407,false,false,708,image-keyboard-response,4
true,6,2,2,1,false,z,true,false,0.0-2.0-0.22-0.203-3.203,0,0,0,68,false,stim,false,0,1977.0,2,0,2,57493,WMM1,660891,false,false,711,image-keyboard-response,5
false,6,-1,2,0,false,q,true,false,0.0-2.0-0.22-0.204-3.204,0,0,0,,false,stim,false,2,,2,0,0,57493,WMM1,665399,false,false,714,image-keyboard-response,6
true,6,0,2,0,true,q,false,true,0.0-2.0-0.22-0.205-3.205,0,0,0,81,false,stim,false,2,1103.0,2,0,0,57493,WMM1,668010,false,false,717,image-keyboard-response,7
true,6,1,2,1,true,z,false,true,0.0-2.0-0.22-0.206-3.206,0,0,0,90,false,stim,false,0,780.9999999998836,2,0,2,57493,WMM1,670296,false,false,720,image-keyboard-response,8
true,6,1,2,1,true,z,false,false,0.0-2.0-0.23-0.207-3.207,0,0,0,90,false,stim,false,0,790.0,2,0,2,57493,WMM1,672591,false,true,723,image-keyboard-response,9
true,6,2,2,1,false,z,true,false,0.0-2.0-0.23-0.208-3.208,0,0,0,68,false,stim,false,0,764.0,2,0,2,57493,WMM1,674859,false,false,726,image-keyboard-response,10
true,6,0,2,0,true,q,false,true,0.0-2.0-0.23-0.209-3.209,0,0,0,81,false,stim,false,2,731.0,2,0,0,57493,WMM1,677095,false,false,729,image-keyboard-response,11
true,6,0,2,0,true,q,false,true,0.0-2.0-0.23-0.210-3.210,0,0,0,81,false,stim,false,2,1098.0,2,0,0,57493,WMM1,679699,false,false,732,image-keyboard-response,12
true,6,0,2,0,true,q,false,true,0.0-2.0-0.23-0.211-3.211,0,0,0,81,false,stim,false,2,589.0,2,0,0,57493,WMM1,681795,false,false,735,image-keyboard-response,13
true,6,0,2,2,false,d,true,false,0.0-2.0-0.23-0.212-3.212,0,0,0,81,false,stim,false,1,1094.0000000001164,2,0,1,57493,WMM1,684400,false,false,738,image-keyboard-response,14
true,6,2,2,2,true,d,false,true,0.0-2.0-0.23-0.213-3.213,0,0,0,68,false,stim,false,1,850.0,2,0,1,57493,WMM1,686758,false,false,741,image-keyboard-response,15
true,6,1,2,1,true,z,false,true,0.0-2.0-0.23-0.214-3.214,0,0,0,90,false,stim,false,0,720.0,2,0,2,57493,WMM1,688982,false,false,744,image-keyboard-response,16
true,6,2,2,2,true,d,false,true,0.0-2.0-0.23-0.215-3.215,0,0,0,68,false,stim,false,1,1187.0,2,0,1,57493,WMM1,691675,false,false,747,image-keyboard-response,17
true,6,0,2,0,true,q,false,false,0.0-2.0-0.24-0.216-3.216,0,0,0,81,false,stim,false,2,1105.0,2,0,0,57493,WMM1,694288,false,true,750,image-keyboard-response,18
true,6,1,2,1,true,z,false,true,0.0-2.0-0.24-0.217-3.217,0,0,0,90,false,stim,false,0,960.0,2,0,2,57493,WMM1,696753,false,false,753,image-keyboard-response,19
true,6,1,2,1,true,z,false,false,0.0-2.0-0.24-0.218-3.218,0,0,0,90,false,stim,false,0,1067.0,2,0,2,57493,WMM1,699326,false,true,756,image-keyboard-response,20
true,6,2,2,2,true,d,false,true,0.0-2.0-0.24-0.219-3.219,0,0,0,68,false,stim,false,1,607.0,2,0,1,57493,WMM1,701442,false,false,759,image-keyboard-response,21
true,6,0,2,0,true,q,false,true,0.0-2.0-0.24-0.220-3.220,0,0,0,81,false,stim,false,2,849.9999999998836,2,0,0,57493,WMM1,703799,false,false,762,image-keyboard-response,22
true,6,0,2,0,true,q,false,true,0.0-2.0-0.24-0.221-3.221,0,0,0,81,false,stim,false,2,870.0000000001164,2,0,0,57493,WMM1,706174,false,false,765,image-keyboard-response,23
true,6,2,2,2,true,d,false,false,0.0-2.0-0.24-0.222-3.222,0,0,0,68,false,stim,false,1,796.0,2,0,1,57493,WMM1,708476,false,true,768,image-keyboard-response,24
true,6,1,2,1,true,z,false,true,0.0-2.0-0.24-0.223-3.223,0,0,0,90,false,stim,false,0,1358.0,2,1,2,57493,WMM1,711339,false,false,771,image-keyboard-response,25
true,6,1,2,2,false,d,false,false,0.0-2.0-0.24-0.224-3.224,0,0,0,90,false,stim,true,1,1164.0,2,0,1,57493,WMM1,714009,false,false,774,image-keyboard-response,26
true,6,1,2,1,true,z,false,true,0.0-2.0-0.25-0.225-3.225,0,0,0,90,false,stim,false,0,728.0,2,1,2,57493,WMM1,716243,false,false,777,image-keyboard-response,27
true,6,1,2,1,true,z,false,true,0.0-2.0-0.25-0.226-3.226,0,0,0,90,false,stim,false,0,636.0,2,1,2,57493,WMM1,718389,false,false,780,image-keyboard-response,28
true,6,0,2,0,true,q,false,true,0.0-2.0-0.25-0.227-3.227,0,0,0,81,false,stim,false,2,1003.0000000001164,2,0,0,57493,WMM1,720901,false,false,783,image-keyboard-response,29
true,6,2,2,2,true,d,false,true,0.0-2.0-0.25-0.228-3.228,0,0,0,68,false,stim,false,1,1055.0,2,0,1,57493,WMM1,723464,false,false,786,image-keyboard-response,30
true,7,0,3,1,false,z,false,false,0.0-2.0-0.25-0.229-3.229,0,0,1,81,true,stim,true,0,1068.0,2,0,0,57493,WMM1,726037,false,false,789,image-keyboard-response,1
true,7,2,3,0,false,q,false,true,0.0-2.0-0.25-0.230-3.230,0,0,1,68,false,stim,true,2,1221.0,2,0,1,57493,WMM1,728764,false,true,792,image-keyboard-response,2
true,7,1,3,1,true,z,false,true,0.0-2.0-0.25-0.231-3.231,0,0,1,90,false,stim,false,1,1082.0,2,1,2,57493,WMM1,731351,false,false,795,image-keyboard-response,3
true,7,2,3,0,false,q,false,false,0.0-2.0-0.25-0.232-3.232,0,0,1,68,false,stim,true,2,1040.0,2,0,1,57493,WMM1,733900,false,false,798,image-keyboard-response,4
true,7,0,3,1,false,z,false,false,0.0-2.0-0.25-0.233-3.233,0,0,1,81,false,stim,true,0,1246.0,2,0,0,57493,WMM1,736656,false,false,801,image-keyboard-response,5
true,7,1,3,1,true,z,false,true,0.0-2.0-0.26-0.234-3.234,0,0,1,90,false,stim,false,0,1280.0,2,0,0,57493,WMM1,739441,false,false,804,image-keyboard-response,6
true,7,2,3,0,false,q,false,false,0.0-2.0-0.26-0.235-3.235,0,0,1,68,false,stim,true,2,1900.0,2,0,1,57493,WMM1,742847,false,false,807,image-keyboard-response,7
false,7,-1,3,1,false,z,true,false,0.0-2.0-0.26-0.236-3.236,0,0,1,,false,stim,false,1,,2,1,2,57493,WMM1,747358,false,false,810,image-keyboard-response,8
true,7,2,3,1,false,z,true,false,0.0-2.0-0.26-0.237-3.237,0,0,1,68,false,stim,false,1,809.0,2,1,2,57493,WMM1,749675,false,false,813,image-keyboard-response,9
true,7,1,3,0,false,q,true,false,0.0-2.0-0.26-0.238-3.238,0,0,1,90,false,stim,false,2,1163.0,2,0,1,57493,WMM1,752346,false,false,816,image-keyboard-response,10
true,7,0,3,1,false,z,false,false,0.0-2.0-0.26-0.239-3.239,0,0,1,81,false,stim,true,0,373.0,2,0,0,57493,WMM1,754227,false,false,819,image-keyboard-response,11
true,7,0,3,0,true,q,false,true,0.0-2.0-0.26-0.240-3.240,0,0,1,81,false,stim,false,2,456.0000000001164,2,0,1,57493,WMM1,756190,false,false,822,image-keyboard-response,12
true,7,0,3,1,false,z,true,true,0.0-2.0-0.26-0.241-3.241,0,0,1,81,false,stim,false,1,454.9999999998836,2,1,2,57493,WMM1,758156,false,true,825,image-keyboard-response,13
true,7,2,3,1,false,z,true,false,0.0-2.0-0.26-0.242-3.242,0,0,1,68,false,stim,false,0,617.0,2,0,0,57493,WMM1,760279,false,false,828,image-keyboard-response,14
true,7,1,3,1,true,z,false,true,0.0-2.0-0.27-0.243-3.243,0,0,1,90,false,stim,false,0,479.0,2,0,0,57493,WMM1,762266,false,false,831,image-keyboard-response,15
true,7,0,3,1,false,z,true,false,0.0-2.0-0.27-0.244-3.244,0,0,1,81,false,stim,false,1,648.0,2,1,2,57493,WMM1,764419,false,false,834,image-keyboard-response,16
true,7,0,3,0,true,q,false,true,0.0-2.0-0.27-0.245-3.245,0,0,1,81,false,stim,false,2,1143.0000000001164,2,0,1,57493,WMM1,767071,false,false,837,image-keyboard-response,17
true,7,0,3,1,false,z,true,false,0.0-2.0-0.27-0.246-3.246,0,0,1,81,false,stim,false,1,908.0,2,1,2,57493,WMM1,769487,false,false,840,image-keyboard-response,18
true,7,1,3,1,true,z,false,true,0.0-2.0-0.27-0.247-3.247,0,0,1,90,false,stim,false,0,1036.0,2,0,0,57493,WMM1,772030,false,false,843,image-keyboard-response,19
true,7,1,3,1,true,z,false,true,0.0-2.0-0.27-0.248-3.248,0,0,1,90,false,stim,false,0,1134.0000000001164,2,0,0,57493,WMM1,774672,false,false,846,image-keyboard-response,20
true,7,0,3,0,true,q,false,true,0.0-2.0-0.27-0.249-3.249,0,0,1,81,false,stim,false,2,869.0,2,0,1,57493,WMM1,777054,false,false,849,image-keyboard-response,21
true,7,0,3,0,true,q,false,true,0.0-2.0-0.27-0.250-3.250,0,0,1,81,false,stim,false,2,805.0,2,0,1,57493,WMM1,779368,false,false,852,image-keyboard-response,22
true,7,2,3,1,false,z,true,false,0.0-2.0-0.27-0.251-3.251,0,0,1,68,false,stim,false,1,523.0,2,1,2,57493,WMM1,781401,false,false,855,image-keyboard-response,23
true,7,1,3,1,true,z,false,true,0.0-2.0-0.28-0.252-3.252,0,0,1,90,false,stim,false,0,1110.0,2,0,0,57493,WMM1,784020,false,false,858,image-keyboard-response,24
true,7,1,3,1,true,z,false,true,0.0-2.0-0.28-0.253-3.253,0,0,1,90,false,stim,false,0,878.9999999998836,2,0,0,57493,WMM1,786407,false,false,861,image-keyboard-response,25
true,7,1,3,1,true,z,false,true,0.0-2.0-0.28-0.254-3.254,0,0,1,90,false,stim,false,1,1213.0,2,1,2,57493,WMM1,789132,false,false,864,image-keyboard-response,26
true,7,0,3,0,true,q,false,false,0.0-2.0-0.28-0.255-3.255,0,0,1,81,false,stim,false,2,688.0,2,0,1,57493,WMM1,791326,false,true,867,image-keyboard-response,27
true,7,1,3,1,true,z,false,false,0.0-2.0-0.28-0.256-3.256,0,0,1,90,false,stim,false,0,555.0000000001164,2,0,0,57493,WMM1,793388,false,true,870,image-keyboard-response,28
true,7,0,3,0,true,q,false,true,0.0-2.0-0.28-0.257-3.257,0,0,1,81,false,stim,false,2,1071.0,2,0,1,57493,WMM1,795967,false,false,873,image-keyboard-response,29
true,7,1,3,1,true,z,false,true,0.0-2.0-0.28-0.258-3.258,0,0,1,90,false,stim,false,1,627.0,2,1,2,57493,WMM1,798104,false,false,876,image-keyboard-response,30
true,7,1,3,1,true,z,false,true,0.0-2.0-0.28-0.259-3.259,0,0,1,90,false,stim,false,1,609.0,2,0,2,57493,WMM1,800219,false,false,879,image-keyboard-response,31
true,7,0,3,0,true,q,false,true,0.0-2.0-0.28-0.260-3.260,0,0,1,81,false,stim,false,2,939.0,2,0,1,57493,WMM1,802667,false,false,882,image-keyboard-response,32
true,7,1,3,1,true,z,false,true,0.0-2.0-0.29-0.261-3.261,0,0,1,90,false,stim,false,1,505.9999999998836,2,0,2,57493,WMM1,804683,false,false,885,image-keyboard-response,33
true,7,0,3,0,true,q,false,true,0.0-2.0-0.29-0.262-3.262,0,0,1,81,false,stim,false,2,992.0,2,0,1,57493,WMM1,807183,false,false,888,image-keyboard-response,34
true,7,1,3,1,true,z,false,true,0.0-2.0-0.29-0.263-3.263,0,0,1,90,false,stim,false,0,791.9999999998836,2,0,0,57493,WMM1,809484,false,false,891,image-keyboard-response,35
true,7,1,3,1,true,z,false,true,0.0-2.0-0.29-0.264-3.264,0,0,1,90,false,stim,false,0,639.9999999998836,2,0,0,57493,WMM1,811635,false,false,894,image-keyboard-response,36
true,7,0,3,0,true,q,false,true,0.0-2.0-0.29-0.265-3.265,0,0,1,81,false,stim,false,2,911.0,2,0,1,57493,WMM1,814054,false,false,897,image-keyboard-response,37
true,7,0,3,0,true,q,false,true,0.0-2.0-0.29-0.266-3.266,0,0,1,81,false,stim,false,2,1512.0,2,0,1,57493,WMM1,817073,false,false,900,image-keyboard-response,38
true,7,1,3,1,true,z,false,true,0.0-2.0-0.29-0.267-3.267,0,0,1,90,false,stim,false,1,916.9999999998836,2,0,2,57493,WMM1,819508,false,false,903,image-keyboard-response,39
true,7,1,3,1,true,z,false,true,0.0-2.0-0.29-0.268-3.268,0,0,1,90,false,stim,false,0,896.0,2,0,0,57493,WMM1,821911,false,false,906,image-keyboard-response,40
true,8,1,1,2,false,d,false,false,0.0-2.0-0.29-0.269-3.269,0,0,0,90,true,stim,true,1,851.0,2,0,2,57493,WMM1,824268,false,false,909,image-keyboard-response,1
true,8,0,1,1,false,z,false,false,0.0-2.0-0.30-0.270-3.270,0,0,0,81,false,stim,true,0,752.9999999998836,2,0,1,57493,WMM1,826527,false,false,912,image-keyboard-response,2
true,8,1,1,2,false,d,false,false,0.0-2.0-0.30-0.271-3.271,0,0,0,90,false,stim,true,1,573.0,2,0,0,57493,WMM1,828605,false,false,915,image-keyboard-response,3
true,8,1,1,2,false,d,false,false,0.0-2.0-0.30-0.272-3.272,0,0,0,90,false,stim,true,1,933.9999999998836,2,0,2,57493,WMM1,831049,false,false,918,image-keyboard-response,4
true,8,0,1,1,false,z,false,false,0.0-2.0-0.30-0.273-3.273,0,0,0,81,false,stim,true,0,527.0,2,0,1,57493,WMM1,833084,false,false,921,image-keyboard-response,5
true,8,0,1,2,false,d,true,false,0.0-2.0-0.30-0.274-3.274,0,0,0,81,false,stim,false,1,405.9999999998836,2,0,2,57493,WMM1,834997,false,false,924,image-keyboard-response,6
true,8,0,1,2,false,d,true,false,0.0-2.0-0.30-0.275-3.275,0,0,0,81,false,stim,false,1,477.0,2,0,0,57493,WMM1,836982,false,false,927,image-keyboard-response,7
true,8,2,1,2,true,d,false,true,0.0-2.0-0.30-0.276-3.276,0,0,0,68,false,stim,false,1,423.0,2,0,2,57493,WMM1,838912,false,false,930,image-keyboard-response,8
true,8,2,1,1,false,z,true,true,0.0-2.0-0.30-0.277-3.277,0,0,0,68,false,stim,false,0,423.0,2,0,1,57493,WMM1,840841,false,true,933,image-keyboard-response,9
true,8,2,1,2,true,d,false,true,0.0-2.0-0.30-0.278-3.278,0,0,0,68,false,stim,false,1,482.0,2,0,0,57493,WMM1,842830,false,false,936,image-keyboard-response,10
true,8,2,1,2,true,d,false,true,0.0-2.0-0.31-0.279-3.279,0,0,0,68,false,stim,false,1,806.0,2,0,2,57493,WMM1,845146,false,false,939,image-keyboard-response,11
true,8,2,1,1,false,z,true,false,0.0-2.0-0.31-0.280-3.280,0,0,0,68,false,stim,false,0,421.0,2,0,1,57493,WMM1,847074,false,false,942,image-keyboard-response,12
true,8,2,1,2,true,d,false,true,0.0-2.0-0.31-0.281-3.281,0,0,0,68,false,stim,false,1,870.0,2,0,2,57493,WMM1,849451,false,false,945,image-keyboard-response,13
true,8,2,1,2,true,d,false,true,0.0-2.0-0.31-0.282-3.282,0,0,0,68,false,stim,false,1,665.0,2,0,0,57493,WMM1,851623,false,false,948,image-keyboard-response,14
true,8,2,1,1,false,z,true,true,0.0-2.0-0.31-0.283-3.283,0,0,0,68,false,stim,false,0,541.0,2,0,1,57493,WMM1,853671,false,true,951,image-keyboard-response,15
true,8,2,1,2,true,d,false,true,0.0-2.0-0.31-0.284-3.284,0,0,0,68,false,stim,false,1,563.0,2,0,0,57493,WMM1,855740,false,false,954,image-keyboard-response,16
true,8,2,1,2,true,d,false,true,0.0-2.0-0.31-0.285-3.285,0,0,0,68,false,stim,false,1,395.0,2,0,2,57493,WMM1,857644,false,false,957,image-keyboard-response,17
true,8,2,1,1,false,z,true,false,0.0-2.0-0.31-0.286-3.286,0,0,0,68,false,stim,false,0,388.0000000001164,2,0,1,57493,WMM1,859539,false,false,960,image-keyboard-response,18
true,8,2,1,2,true,d,false,true,0.0-2.0-0.31-0.287-3.287,0,0,0,68,false,stim,false,1,437.0,2,0,0,57493,WMM1,861483,false,false,963,image-keyboard-response,19
true,8,2,1,1,false,z,true,false,0.0-2.0-0.32-0.288-3.288,0,0,0,68,false,stim,false,0,454.9999999998836,2,0,1,57493,WMM1,863447,false,false,966,image-keyboard-response,20
true,8,2,1,2,true,d,false,true,0.0-2.0-0.32-0.289-3.289,0,0,0,68,false,stim,false,1,597.0,2,0,0,57493,WMM1,865552,false,false,969,image-keyboard-response,21
true,8,1,1,1,true,z,false,true,0.0-2.0-0.32-0.290-3.290,0,0,0,90,false,stim,false,0,953.0,2,0,1,57493,WMM1,868015,false,false,972,image-keyboard-response,22
true,8,2,1,2,true,d,false,true,0.0-2.0-0.32-0.291-3.291,0,0,0,68,false,stim,false,1,481.9999999998836,2,0,2,57493,WMM1,870008,false,false,975,image-keyboard-response,23
true,8,1,1,1,true,z,false,true,0.0-2.0-0.32-0.292-3.292,0,0,0,90,false,stim,false,0,754.0,2,0,1,57493,WMM1,872272,false,false,978,image-keyboard-response,24
true,8,2,1,2,true,d,false,true,0.0-2.0-0.32-0.293-3.293,0,0,0,68,false,stim,false,1,472.0,2,0,0,57493,WMM1,874254,false,false,981,image-keyboard-response,25
true,8,2,1,2,true,d,false,true,0.0-2.0-0.32-0.294-3.294,0,0,0,68,false,stim,false,1,522.0,2,0,2,57493,WMM1,876282,false,false,984,image-keyboard-response,26
true,8,2,1,2,true,d,false,true,0.0-2.0-0.32-0.295-3.295,0,0,0,68,false,stim,false,1,534.9999999998836,2,0,2,57493,WMM1,878324,false,false,987,image-keyboard-response,27
true,8,2,1,2,true,d,false,true,0.0-2.0-0.32-0.296-3.296,0,0,0,68,false,stim,false,1,823.0,2,0,0,57493,WMM1,880659,false,false,990,image-keyboard-response,28
true,8,2,1,2,true,d,false,false,0.0-2.0-0.33-0.297-3.297,0,0,0,68,false,stim,false,1,934.9999999998836,2,0,2,57493,WMM1,883100,false,true,993,image-keyboard-response,29
true,8,1,1,1,true,z,false,true,0.0-2.0-0.33-0.298-3.298,0,0,0,90,false,stim,false,0,865.0,2,0,1,57493,WMM1,885470,false,false,996,image-keyboard-response,30
true,8,1,1,2,false,d,false,false,0.0-2.0-0.33-0.299-3.299,0,0,0,90,false,stim,true,1,1231.9999999998836,2,0,0,57493,WMM1,888210,false,false,999,image-keyboard-response,31
true,8,0,1,2,false,d,true,false,0.0-2.0-0.33-0.300-3.300,0,0,0,81,false,stim,false,1,1196.0000000001164,2,0,2,57493,WMM1,890915,false,false,1002,image-keyboard-response,32
true,8,1,1,1,true,z,false,true,0.0-2.0-0.33-0.301-3.301,0,0,0,90,false,stim,false,0,840.0,2,0,1,57493,WMM1,893262,false,false,1005,image-keyboard-response,33
true,8,2,1,2,true,d,false,false,0.0-2.0-0.33-0.302-3.302,0,0,0,68,false,stim,false,1,778.0,2,0,2,57493,WMM1,895548,false,true,1008,image-keyboard-response,34
true,9,1,2,2,false,d,false,false,0.0-2.0-0.33-0.303-3.303,0,0,0,90,true,stim,true,1,1407.0,2,0,1,57493,WMM1,898461,false,false,1011,image-keyboard-response,1
true,9,1,2,0,false,q,true,false,0.0-2.0-0.33-0.304-3.304,0,0,0,90,false,stim,false,2,2030.0,2,0,0,57493,WMM1,902001,false,false,1014,image-keyboard-response,2
false,9,-1,2,0,false,q,true,false,0.0-2.0-0.33-0.305-3.305,0,0,0,,false,stim,false,2,,2,0,0,57493,WMM1,906509,false,false,1017,image-keyboard-response,3
true,9,0,2,1,false,z,true,false,0.0-2.0-0.34-0.306-3.306,0,0,0,81,false,stim,false,2,582.9999999998836,2,0,2,57493,WMM1,908600,false,false,1020,image-keyboard-response,4
true,9,1,2,2,false,d,false,false,0.0-2.0-0.34-0.307-3.307,0,0,0,90,false,stim,true,1,733.0,2,0,1,57493,WMM1,910839,false,false,1023,image-keyboard-response,5
true,9,2,2,1,false,z,false,false,0.0-2.0-0.34-0.308-3.308,0,0,0,68,false,stim,true,2,889.0,2,0,2,57493,WMM1,913235,false,false,1026,image-keyboard-response,6
true,9,2,2,2,true,d,false,true,0.0-2.0-0.34-0.309-3.309,0,0,0,68,false,stim,false,1,882.0,2,0,1,57493,WMM1,915626,false,false,1029,image-keyboard-response,7
true,9,1,2,0,false,q,true,false,0.0-2.0-0.34-0.310-3.310,0,0,0,90,false,stim,false,2,807.0,2,0,0,57493,WMM1,917939,false,false,1032,image-keyboard-response,8
true,9,1,2,1,true,z,false,true,0.0-2.0-0.34-0.311-3.311,0,0,0,90,false,stim,false,2,1191.0,2,0,2,57493,WMM1,920640,false,false,1035,image-keyboard-response,9
true,9,0,2,0,true,q,false,true,0.0-2.0-0.34-0.312-3.312,0,0,0,81,false,stim,false,2,545.0,2,0,0,57493,WMM1,922693,false,false,1038,image-keyboard-response,10
true,9,2,2,2,true,d,false,false,0.0-2.0-0.34-0.313-3.313,0,0,0,68,false,stim,false,1,862.0,2,0,1,57493,WMM1,925063,false,true,1041,image-keyboard-response,11
true,9,0,2,0,true,q,false,true,0.0-2.0-0.34-0.314-3.314,0,0,0,81,false,stim,false,2,773.0,2,0,0,57493,WMM1,927341,false,false,1044,image-keyboard-response,12
true,9,0,2,0,true,q,false,true,0.0-2.0-0.35-0.315-3.315,0,0,0,81,false,stim,false,2,754.0,2,0,0,57493,WMM1,929605,false,false,1047,image-keyboard-response,13
true,9,1,2,2,false,d,false,false,0.0-2.0-0.35-0.316-3.316,0,0,0,90,false,stim,true,1,732.0,2,0,1,57493,WMM1,931846,false,false,1050,image-keyboard-response,14
true,9,1,2,1,true,z,false,true,0.0-2.0-0.35-0.317-3.317,0,0,0,90,false,stim,false,2,631.0,2,0,2,57493,WMM1,933987,false,false,1053,image-keyboard-response,15
true,9,0,2,0,true,q,false,true,0.0-2.0-0.35-0.318-3.318,0,0,0,81,false,stim,false,2,833.0,2,0,0,57493,WMM1,936328,false,false,1056,image-keyboard-response,16
true,9,0,2,0,true,q,false,true,0.0-2.0-0.35-0.319-3.319,0,0,0,81,false,stim,false,2,684.0,2,0,0,57493,WMM1,938518,false,false,1059,image-keyboard-response,17
true,9,2,2,2,true,d,false,false,0.0-2.0-0.35-0.320-3.320,0,0,0,68,false,stim,false,1,806.0,2,0,1,57493,WMM1,940829,false,true,1062,image-keyboard-response,18
true,9,1,2,1,true,z,false,true,0.0-2.0-0.35-0.321-3.321,0,0,0,90,false,stim,false,2,1107.0,2,0,2,57493,WMM1,943445,false,false,1065,image-keyboard-response,19
true,9,1,2,1,true,z,false,true,0.0-2.0-0.35-0.322-3.322,0,0,0,90,false,stim,false,2,860.9999999998836,2,0,2,57493,WMM1,945812,false,false,1068,image-keyboard-response,20
true,9,1,2,2,false,d,false,false,0.0-2.0-0.35-0.323-3.323,0,0,0,90,false,stim,true,1,466.9999999998836,2,0,1,57493,WMM1,947787,false,false,1071,image-keyboard-response,21
true,9,1,2,1,true,z,false,false,0.0-2.0-0.36-0.324-3.324,0,0,0,90,false,stim,false,2,753.0,2,0,2,57493,WMM1,950048,false,true,1074,image-keyboard-response,22
true,9,0,2,0,true,q,false,true,0.0-2.0-0.36-0.325-3.325,0,0,0,81,false,stim,false,2,498.0,2,0,0,57493,WMM1,952056,false,false,1077,image-keyboard-response,23
true,9,0,2,2,false,d,true,false,0.0-2.0-0.36-0.326-3.326,0,0,0,81,false,stim,false,1,505.0,2,0,1,57493,WMM1,954071,false,false,1080,image-keyboard-response,24
true,9,0,2,0,true,q,false,true,0.0-2.0-0.36-0.327-3.327,0,0,0,81,false,stim,false,2,1021.0,2,0,0,57493,WMM1,956601,false,false,1083,image-keyboard-response,25
true,9,0,2,0,true,q,false,false,0.0-2.0-0.36-0.328-3.328,0,0,0,81,false,stim,false,2,669.0,2,0,0,57493,WMM1,958779,false,true,1086,image-keyboard-response,26
true,9,2,2,1,false,z,false,false,0.0-2.0-0.36-0.329-3.329,0,0,0,68,false,stim,true,2,870.0,2,0,2,57493,WMM1,961161,false,false,1089,image-keyboard-response,27
true,9,1,2,2,false,d,false,false,0.0-2.0-0.36-0.330-3.330,0,0,0,90,false,stim,true,1,1307.0,2,0,1,57493,WMM1,963979,false,false,1092,image-keyboard-response,28
true,9,2,2,1,false,z,false,false,0.0-2.0-0.36-0.331-3.331,0,0,0,68,false,stim,true,2,595.0,2,0,2,57493,WMM1,966084,false,false,1095,image-keyboard-response,29
true,9,2,2,2,true,d,false,false,0.0-2.0-0.36-0.332-3.332,0,0,0,68,false,stim,false,1,431.0,2,0,1,57493,WMM1,968022,false,true,1098,image-keyboard-response,30
true,9,0,2,1,false,z,true,false,0.0-2.0-0.37-0.333-3.333,0,0,0,81,false,stim,false,2,505.0,2,0,2,57493,WMM1,970045,false,false,1101,image-keyboard-response,31
true,9,0,2,2,false,d,true,true,0.0-2.0-0.37-0.334-3.334,0,0,0,81,false,stim,false,1,400.9999999998836,2,0,1,57493,WMM1,971953,false,true,1104,image-keyboard-response,32
true,9,1,2,1,true,z,false,true,0.0-2.0-0.37-0.335-3.335,0,0,0,90,false,stim,false,2,748.0,2,0,2,57493,WMM1,974209,false,false,1107,image-keyboard-response,33
true,9,1,2,1,true,z,false,true,0.0-2.0-0.37-0.336-3.336,0,0,0,90,false,stim,false,2,937.0,2,0,2,57493,WMM1,976655,false,false,1110,image-keyboard-response,34
true,9,2,2,0,false,q,false,false,0.0-2.0-0.37-0.337-3.337,0,0,0,68,false,stim,true,2,1046.0,2,0,0,57493,WMM1,979211,false,false,1113,image-keyboard-response,35
true,9,0,2,0,true,q,false,true,0.0-2.0-0.37-0.338-3.338,0,0,0,81,false,stim,false,2,562.0,2,0,0,57493,WMM1,981281,false,false,1116,image-keyboard-response,36
true,9,0,2,0,true,q,false,true,0.0-2.0-0.37-0.339-3.339,0,0,0,81,false,stim,false,2,503.0000000001164,2,0,0,57493,WMM1,983293,false,false,1119,image-keyboard-response,37
true,9,0,2,2,false,d,true,false,0.0-2.0-0.37-0.340-3.340,0,0,0,81,false,stim,false,1,468.9999999998836,2,0,1,57493,WMM1,985272,false,false,1122,image-keyboard-response,38
true,9,0,2,2,false,d,true,false,0.0-2.0-0.37-0.341-3.341,0,0,0,81,false,stim,false,1,891.0,2,0,1,57493,WMM1,987676,false,false,1125,image-keyboard-response,39
true,9,1,2,1,true,z,false,true,0.0-2.0-0.38-0.342-3.342,0,0,0,90,false,stim,false,2,1394.0,2,0,2,57493,WMM1,990580,false,false,1128,image-keyboard-response,40
true,9,0,2,0,true,q,false,true,0.0-2.0-0.38-0.343-3.343,0,0,0,81,false,stim,false,2,814.0,2,0,0,57493,WMM1,992902,false,false,1131,image-keyboard-response,41
true,9,0,2,0,true,q,false,true,0.0-2.0-0.38-0.344-3.344,0,0,0,81,false,stim,false,2,959.0000000001164,2,0,0,57493,WMM1,995371,false,false,1134,image-keyboard-response,42
true,9,1,2,1,true,z,false,true,0.0-2.0-0.38-0.345-3.345,0,0,0,90,false,stim,false,2,834.0000000001164,2,0,2,57493,WMM1,997717,false,false,1137,image-keyboard-response,43
true,9,1,2,2,false,d,false,false,0.0-2.0-0.38-0.346-3.346,0,0,0,90,false,stim,true,1,459.0,2,0,1,57493,WMM1,999685,false,false,1140,image-keyboard-response,44
true,9,2,2,2,true,d,false,true,0.0-2.0-0.38-0.347-3.347,0,0,0,68,false,stim,false,1,680.0,2,0,1,57493,WMM1,1001875,false,false,1143,image-keyboard-response,45
true,9,0,2,0,true,q,false,true,0.0-2.0-0.38-0.348-3.348,0,0,0,81,false,stim,false,2,512.0000000001164,2,0,0,57493,WMM1,1003894,false,false,1146,image-keyboard-response,46
true,9,1,2,1,true,z,false,true,0.0-2.0-0.38-0.349-3.349,0,0,0,90,false,stim,false,2,501.0,2,0,2,57493,WMM1,1005902,false,false,1149,image-keyboard-response,47
true,9,2,2,2,true,d,false,true,0.0-2.0-0.38-0.350-3.350,0,0,0,68,false,stim,false,1,1271.9999999998836,2,0,1,57493,WMM1,1008690,false,false,1152,image-keyboard-response,48
true,9,0,2,0,true,q,false,true,0.0-2.0-0.39-0.351-3.351,0,0,0,81,false,stim,false,2,1174.0,2,0,0,57493,WMM1,1011373,false,false,1155,image-keyboard-response,49
true,9,2,2,2,true,d,false,true,0.0-2.0-0.39-0.352-3.352,0,0,0,68,false,stim,false,1,1351.9999999998836,2,0,1,57493,WMM1,1014233,false,false,1158,image-keyboard-response,50
true,9,2,2,2,true,d,false,true,0.0-2.0-0.39-0.353-3.353,0,0,0,68,false,stim,false,1,1346.9999999998836,2,0,1,57493,WMM1,1017088,false,false,1161,image-keyboard-response,51
true,9,1,2,1,true,z,false,true,0.0-2.0-0.39-0.354-3.354,0,0,0,90,false,stim,false,2,871.9999999998836,2,0,2,57493,WMM1,1019469,false,false,1164,image-keyboard-response,52
true,9,1,2,1,true,z,false,true,0.0-2.0-0.39-0.355-3.355,0,0,0,90,false,stim,false,2,794.0,2,0,2,57493,WMM1,1021771,false,false,1167,image-keyboard-response,53
true,9,2,2,2,true,d,false,true,0.0-2.0-0.39-0.356-3.356,0,0,0,68,false,stim,false,1,1059.0,2,0,1,57493,WMM1,1024340,false,false,1170,image-keyboard-response,54
true,9,1,2,1,true,z,false,true,0.0-2.0-0.39-0.357-3.357,0,0,0,90,false,stim,false,2,949.0000000001164,2,0,2,57493,WMM1,1026798,false,false,1173,image-keyboard-response,55
true,9,0,2,0,true,q,false,true,0.0-2.0-0.39-0.358-3.358,0,0,0,81,false,stim,false,2,805.9999999998836,2,0,0,57493,WMM1,1029112,false,false,1176,image-keyboard-response,56
true,9,0,2,0,true,q,false,true,0.0-2.0-0.39-0.359-3.359,0,0,0,81,false,stim,false,2,645.0000000002328,2,0,0,57493,WMM1,1031269,false,false,1179,image-keyboard-response,57
true,9,2,2,2,true,d,false,true,0.0-2.0-0.40-0.360-3.360,0,0,0,68,false,stim,false,1,897.9999999998836,2,0,1,57493,WMM1,1033675,false,false,1182,image-keyboard-response,58
true,10,1,1,0,false,q,false,false,0.0-2.0-0.40-0.361-3.361,0,0,0,90,true,stim,true,1,920.9999999997672,2,0,2,57493,WMM1,1036103,false,false,1185,image-keyboard-response,1
true,10,2,1,0,false,q,true,false,0.0-2.0-0.40-0.362-3.362,0,0,0,68,false,stim,false,1,755.0000000001164,2,0,2,57493,WMM1,1038364,false,false,1188,image-keyboard-response,2
true,10,0,1,1,false,z,false,false,0.0-2.0-0.40-0.363-3.363,0,0,0,81,false,stim,true,0,480.0,2,0,0,57493,WMM1,1040349,false,false,1191,image-keyboard-response,3
true,10,2,1,1,false,z,true,false,0.0-2.0-0.40-0.364-3.364,0,0,0,68,false,stim,false,0,801.0,2,0,0,57493,WMM1,1042661,false,false,1194,image-keyboard-response,4
true,10,1,1,1,true,z,false,true,0.0-2.0-0.40-0.365-3.365,0,0,0,90,false,stim,false,0,496.0000000001164,2,0,0,57493,WMM1,1044663,false,false,1197,image-keyboard-response,5
true,10,0,1,0,true,q,false,true,0.0-2.0-0.40-0.366-3.366,0,0,0,81,false,stim,false,1,472.0,2,0,2,57493,WMM1,1046642,false,false,1200,image-keyboard-response,6
true,10,2,1,0,false,q,false,false,0.0-2.0-0.40-0.367-3.367,0,0,0,68,false,stim,true,2,670.0,2,0,1,57493,WMM1,1048830,false,false,1203,image-keyboard-response,7
true,10,1,1,0,false,q,true,true,0.0-2.0-0.40-0.368-3.368,0,0,0,90,false,stim,false,2,583.0,2,0,1,57493,WMM1,1050919,false,true,1206,image-keyboard-response,8
true,10,1,1,1,true,z,false,true,0.0-2.0-0.41-0.369-3.369,0,0,0,90,false,stim,false,0,572.0,2,0,0,57493,WMM1,1053000,false,false,1209,image-keyboard-response,9
true,10,1,1,1,true,z,false,true,0.0-2.0-0.41-0.370-3.370,0,0,0,90,false,stim,false,0,678.0,2,0,0,57493,WMM1,1055188,false,false,1212,image-keyboard-response,10
true,10,0,1,0,true,q,false,true,0.0-2.0-0.41-0.371-3.371,0,0,0,81,false,stim,false,1,919.0,2,0,2,57493,WMM1,1057617,false,false,1215,image-keyboard-response,11
true,10,1,1,0,false,q,true,false,0.0-2.0-0.41-0.372-3.372,0,0,0,90,false,stim,false,2,726.0,2,0,1,57493,WMM1,1059851,false,false,1218,image-keyboard-response,12
true,10,2,1,0,false,q,false,false,0.0-2.0-0.41-0.373-3.373,0,0,0,68,false,stim,true,2,1207.0,2,0,1,57493,WMM1,1062566,false,false,1221,image-keyboard-response,13
true,10,0,1,0,true,q,false,true,0.0-2.0-0.41-0.374-3.374,0,0,0,81,false,stim,false,1,861.0,2,0,2,57493,WMM1,1064933,false,false,1224,image-keyboard-response,14
true,10,0,1,1,false,z,false,false,0.0-2.0-0.41-0.375-3.375,0,0,0,81,false,stim,true,0,563.0,2,0,0,57493,WMM1,1067007,false,false,1227,image-keyboard-response,15
true,10,1,1,0,false,q,true,false,0.0-2.0-0.41-0.376-3.376,0,0,0,90,false,stim,false,2,879.0,2,0,1,57493,WMM1,1069393,false,false,1230,image-keyboard-response,16
true,10,0,1,0,true,q,false,true,0.0-2.0-0.41-0.377-3.377,0,0,0,81,false,stim,false,1,676.0,2,0,2,57493,WMM1,1071574,false,false,1233,image-keyboard-response,17
true,10,2,1,0,false,q,true,false,0.0-2.0-0.42-0.378-3.378,0,0,0,68,false,stim,false,1,869.0,2,0,2,57493,WMM1,1073949,false,false,1236,image-keyboard-response,18
true,10,0,1,0,true,q,false,true,0.0-2.0-0.42-0.379-3.379,0,0,0,81,false,stim,false,1,448.0,2,0,2,57493,WMM1,1075905,false,false,1239,image-keyboard-response,19
true,10,2,1,1,false,z,true,false,0.0-2.0-0.42-0.380-3.380,0,0,0,68,false,stim,false,0,566.0,2,0,0,57493,WMM1,1077979,false,false,1242,image-keyboard-response,20
true,10,0,1,0,true,q,false,true,0.0-2.0-0.42-0.381-3.381,0,0,0,81,false,stim,false,1,798.0,2,0,2,57493,WMM1,1080286,false,false,1245,image-keyboard-response,21
true,10,1,1,0,false,q,true,true,0.0-2.0-0.42-0.382-3.382,0,0,0,90,false,stim,false,2,855.0000000002328,2,0,1,57493,WMM1,1082654,false,true,1248,image-keyboard-response,22
true,10,1,1,1,true,z,false,true,0.0-2.0-0.42-0.383-3.383,0,0,0,90,false,stim,false,0,844.0,2,0,0,57493,WMM1,1085007,false,false,1251,image-keyboard-response,23
true,10,1,1,1,true,z,false,true,0.0-2.0-0.42-0.384-3.384,0,0,0,90,false,stim,false,0,627.0,2,0,0,57493,WMM1,1087144,false,false,1254,image-keyboard-response,24
true,10,1,1,0,false,q,true,false,0.0-2.0-0.42-0.385-3.385,0,0,0,90,false,stim,false,2,771.0,2,0,1,57493,WMM1,1089427,false,false,1257,image-keyboard-response,25
true,10,1,1,0,false,q,true,false,0.0-2.0-0.42-0.386-3.386,0,0,0,90,false,stim,false,2,634.0,2,0,1,57493,WMM1,1091569,false,false,1260,image-keyboard-response,26
true,10,1,1,1,true,z,false,false,0.0-2.0-0.43-0.387-3.387,0,0,0,90,false,stim,false,0,807.0,2,0,0,57493,WMM1,1093886,false,true,1263,image-keyboard-response,27
true,10,2,1,0,false,q,false,false,0.0-2.0-0.43-0.388-3.388,0,0,0,68,false,stim,true,2,900.0,2,0,1,57493,WMM1,1096294,false,false,1266,image-keyboard-response,28
true,10,0,1,0,true,q,false,true,0.0-2.0-0.43-0.389-3.389,0,0,0,81,false,stim,false,1,128.0,2,0,2,57493,WMM1,1097941,false,false,1269,image-keyboard-response,29
true,10,0,1,0,true,q,false,true,0.0-2.0-0.43-0.390-3.390,0,0,0,81,false,stim,false,1,316.0,2,0,2,57493,WMM1,1099766,false,false,1272,image-keyboard-response,30
true,10,0,1,1,false,z,false,false,0.0-2.0-0.43-0.391-3.391,0,0,0,81,false,stim,true,0,693.0,2,0,0,57493,WMM1,1101965,false,false,1275,image-keyboard-response,31
true,10,0,1,0,true,q,false,true,0.0-2.0-0.43-0.392-3.392,0,0,0,81,false,stim,false,1,722.0000000002328,2,0,2,57493,WMM1,1104194,false,false,1278,image-keyboard-response,32
true,10,1,1,0,false,q,true,false,0.0-2.0-0.43-0.393-3.393,0,0,0,90,false,stim,false,2,574.0,2,0,1,57493,WMM1,1106278,false,false,1281,image-keyboard-response,33
true,10,2,1,0,false,q,false,true,0.0-2.0-0.43-0.394-3.394,0,0,0,68,false,stim,true,2,464.0,2,0,1,57493,WMM1,1108252,false,true,1284,image-keyboard-response,34
true,10,1,1,1,true,z,false,true,0.0-2.0-0.43-0.395-3.395,0,0,0,90,false,stim,false,0,442.0,2,0,0,57493,WMM1,1110203,false,false,1287,image-keyboard-response,35
true,10,2,1,0,false,q,false,false,0.0-2.0-0.44-0.396-3.396,0,0,0,68,false,stim,true,2,781.0,2,0,1,57493,WMM1,1112492,false,false,1290,image-keyboard-response,36
true,10,1,1,1,true,z,false,true,0.0-2.0-0.44-0.397-3.397,0,0,0,90,false,stim,false,0,657.0,2,0,0,57493,WMM1,1114662,false,false,1293,image-keyboard-response,37
true,10,2,1,0,false,q,false,false,0.0-2.0-0.44-0.398-3.398,0,0,0,68,false,stim,true,2,985.0,2,0,1,57493,WMM1,1117157,false,false,1296,image-keyboard-response,38
true,10,0,1,0,true,q,false,true,0.0-2.0-0.44-0.399-3.399,0,0,0,81,false,stim,false,1,833.0,2,0,2,57493,WMM1,1119501,false,false,1299,image-keyboard-response,39
true,10,0,1,0,true,q,false,true,0.0-2.0-0.44-0.400-3.400,0,0,0,81,false,stim,false,1,760.0,2,0,2,57493,WMM1,1121782,false,false,1302,image-keyboard-response,40
true,10,1,1,0,false,q,true,false,0.0-2.0-0.44-0.401-3.401,0,0,0,90,false,stim,false,2,661.0000000002328,2,0,1,57493,WMM1,1123953,false,false,1305,image-keyboard-response,41
true,10,1,1,1,true,z,false,true,0.0-2.0-0.44-0.402-3.402,0,0,0,90,false,stim,false,0,854.0,2,0,0,57493,WMM1,1126314,false,false,1308,image-keyboard-response,42
true,10,1,1,1,true,z,false,true,0.0-2.0-0.44-0.403-3.403,0,0,0,90,false,stim,false,0,726.0,2,0,0,57493,WMM1,1128551,false,false,1311,image-keyboard-response,43
true,10,0,1,0,true,q,false,true,0.0-2.0-0.44-0.404-3.404,0,0,0,81,false,stim,false,1,510.0,2,0,2,57493,WMM1,1130572,false,false,1314,image-keyboard-response,44
true,10,0,1,0,true,q,false,true,0.0-2.0-0.45-0.405-3.405,0,0,0,81,false,stim,false,1,484.0,2,0,2,57493,WMM1,1132563,false,false,1317,image-keyboard-response,45
true,10,1,1,1,true,z,false,true,0.0-2.0-0.45-0.406-3.406,0,0,0,90,false,stim,false,0,778.0,2,0,0,57493,WMM1,1134853,false,false,1320,image-keyboard-response,46
true,10,0,1,0,true,q,false,true,0.0-2.0-0.45-0.407-3.407,0,0,0,81,false,stim,false,2,477.0,2,0,1,57493,WMM1,1136841,false,false,1323,image-keyboard-response,47
true,10,0,1,0,true,q,false,true,0.0-2.0-0.45-0.408-3.408,0,0,0,81,false,stim,false,2,913.0,2,0,1,57493,WMM1,1139262,false,false,1326,image-keyboard-response,48
true,10,0,1,1,false,z,false,false,0.0-2.0-0.45-0.409-3.409,0,0,0,81,false,stim,true,0,1476.0,2,0,0,57493,WMM1,1142244,false,false,1329,image-keyboard-response,49
true,10,1,1,0,false,q,false,false,0.0-2.0-0.45-0.410-3.410,0,0,0,90,false,stim,true,1,1617.0,2,0,2,57493,WMM1,1145370,false,false,1332,image-keyboard-response,50
true,10,0,1,0,true,q,false,true,0.0-2.0-0.45-0.411-3.411,0,0,0,81,false,stim,false,1,2058.0,2,0,2,57493,WMM1,1148936,false,false,1335,image-keyboard-response,51
true,10,1,1,1,true,z,false,true,0.0-2.0-0.45-0.412-3.412,0,0,0,90,false,stim,false,0,1536.0,2,0,0,57493,WMM1,1151979,false,false,1338,image-keyboard-response,52
true,10,0,1,0,true,q,false,true,0.0-2.0-0.45-0.413-3.413,0,0,0,81,false,stim,false,2,2034.0,2,0,1,57493,WMM1,1155521,false,false,1341,image-keyboard-response,53
true,10,0,1,1,false,z,false,false,0.0-2.0-0.46-0.414-3.414,0,0,0,81,false,stim,true,0,2181.0,2,0,0,57493,WMM1,1159211,false,false,1344,image-keyboard-response,54
true,10,0,1,0,true,q,false,true,0.0-2.0-0.46-0.415-3.415,0,0,0,81,false,stim,false,1,2564.0,2,0,2,57493,WMM1,1163283,false,false,1347,image-keyboard-response,55
true,10,0,1,0,true,q,false,true,0.0-2.0-0.46-0.416-3.416,0,0,0,81,false,stim,false,2,783.0,2,0,1,57493,WMM1,1165573,false,false,1350,image-keyboard-response,56
true,10,1,1,1,true,z,false,true,0.0-2.0-0.46-0.417-3.417,0,0,0,90,false,stim,false,0,1377.0,2,0,0,57493,WMM1,1168458,false,false,1353,image-keyboard-response,57
true,10,0,1,0,true,q,false,true,0.0-2.0-0.46-0.418-3.418,0,0,0,81,false,stim,false,1,2454.0,2,0,2,57493,WMM1,1172420,false,false,1356,image-keyboard-response,58
true,11,0,2,2,false,d,false,false,0.0-2.0-0.46-0.419-3.419,0,0,0,81,true,stim,true,0,1618.0,2,0,1,57493,WMM1,1175544,false,false,1359,image-keyboard-response,1
true,11,1,2,0,false,q,false,false,0.0-2.0-0.46-0.420-3.420,0,0,0,90,false,stim,true,1,1699.0,2,0,0,57493,WMM1,1178748,false,false,1362,image-keyboard-response,2
true,11,0,2,2,false,d,false,false,0.0-2.0-0.46-0.421-3.421,0,0,0,81,false,stim,true,0,2250.0,2,0,1,57493,WMM1,1182508,false,false,1365,image-keyboard-response,3
true,11,2,2,1,false,z,true,false,0.0-2.0-0.46-0.422-3.422,0,0,0,68,false,stim,false,0,1413.0,2,0,2,57493,WMM1,1185428,false,false,1368,image-keyboard-response,4
true,11,1,2,1,true,z,false,true,0.0-2.0-0.47-0.423-3.423,0,0,0,90,false,stim,false,0,1452.0,2,0,2,57493,WMM1,1188388,false,false,1371,image-keyboard-response,5
true,11,1,2,0,false,q,false,false,0.0-2.0-0.47-0.424-3.424,0,0,0,90,false,stim,true,1,1502.0,2,0,0,57493,WMM1,1191396,false,false,1374,image-keyboard-response,6
true,11,1,2,2,false,d,true,false,0.0-2.0-0.47-0.425-3.425,0,0,0,90,false,stim,false,0,1525.0,2,0,1,57493,WMM1,1194428,false,false,1377,image-keyboard-response,7
true,11,2,2,0,false,q,true,true,0.0-2.0-0.47-0.426-3.426,0,0,0,68,false,stim,false,1,1203.9999999997672,2,0,0,57493,WMM1,1197140,false,true,1380,image-keyboard-response,8
true,11,0,2,2,false,d,false,false,0.0-2.0-0.47-0.427-3.427,0,0,0,81,false,stim,true,0,710.0,2,0,1,57493,WMM1,1199358,false,false,1383,image-keyboard-response,9
true,11,1,2,1,true,z,false,true,0.0-2.0-0.47-0.428-3.428,0,0,0,90,false,stim,false,0,1644.0,2,0,2,57493,WMM1,1202510,false,false,1386,image-keyboard-response,10
true,11,1,2,1,true,z,false,true,0.0-2.0-0.47-0.429-3.429,0,0,0,90,false,stim,false,0,832.0,2,0,2,57493,WMM1,1204849,false,false,1389,image-keyboard-response,11
true,11,2,2,2,true,d,false,true,0.0-2.0-0.47-0.430-3.430,0,0,0,68,false,stim,false,0,1581.0,2,0,1,57493,WMM1,1207934,false,false,1392,image-keyboard-response,12
true,11,2,2,0,false,q,true,false,0.0-2.0-0.47-0.431-3.431,0,0,0,68,false,stim,false,1,1261.0,2,0,0,57493,WMM1,1210702,false,false,1395,image-keyboard-response,13
true,11,0,2,0,true,q,false,true,0.0-2.0-0.48-0.432-3.432,0,0,0,81,false,stim,false,1,2811.0,2,0,0,57493,WMM1,1215022,false,false,1398,image-keyboard-response,14
true,11,0,2,0,true,q,false,true,0.0-2.0-0.48-0.433-3.433,0,0,0,81,false,stim,false,1,1221.0,2,0,0,57493,WMM1,1217758,false,false,1401,image-keyboard-response,15
true,11,2,2,2,true,d,false,true,0.0-2.0-0.48-0.434-3.434,0,0,0,68,false,stim,false,0,865.0,2,0,1,57493,WMM1,1220133,false,false,1404,image-keyboard-response,16
true,11,2,2,2,true,d,false,true,0.0-2.0-0.48-0.435-3.435,0,0,0,68,false,stim,false,0,1510.0,2,0,1,57493,WMM1,1223148,false,false,1407,image-keyboard-response,17
true,11,1,2,1,true,z,false,true,0.0-2.0-0.48-0.436-3.436,0,0,0,90,false,stim,false,0,1206.0000000002328,2,0,2,57493,WMM1,1225860,false,false,1410,image-keyboard-response,18
true,11,1,2,1,true,z,false,true,0.0-2.0-0.48-0.437-3.437,0,0,0,90,false,stim,false,0,2579.0,2,0,2,57493,WMM1,1229945,false,false,1413,image-keyboard-response,19
true,11,2,2,2,true,d,false,false,0.0-2.0-0.48-0.438-3.438,0,0,0,68,false,stim,false,0,1385.9999999997672,2,0,1,57493,WMM1,1232842,false,true,1416,image-keyboard-response,20
true,11,1,2,1,true,z,false,true,0.0-2.0-0.48-0.439-3.439,0,0,0,90,false,stim,false,0,1452.9999999997672,2,1,2,57493,WMM1,1235804,false,false,1419,image-keyboard-response,21
true,11,0,2,0,true,q,false,true,0.0-2.0-0.48-0.440-3.440,0,0,0,81,false,stim,false,1,1695.0,2,0,0,57493,WMM1,1239008,false,false,1422,image-keyboard-response,22
true,11,1,2,1,true,z,false,true,0.0-2.0-0.49-0.441-3.441,0,0,0,90,false,stim,false,0,1225.0,2,1,2,57493,WMM1,1241740,false,false,1425,image-keyboard-response,23
true,11,2,2,2,true,d,false,true,0.0-2.0-0.49-0.442-3.442,0,0,0,68,false,stim,false,0,2938.0,2,0,1,57493,WMM1,1246185,false,false,1428,image-keyboard-response,24
true,11,0,2,0,true,q,false,true,0.0-2.0-0.49-0.443-3.443,0,0,0,81,false,stim,false,1,1554.0,2,0,0,57493,WMM1,1249251,false,false,1431,image-keyboard-response,25
true,11,2,2,2,true,d,false,false,0.0-2.0-0.49-0.444-3.444,0,0,0,68,false,stim,false,0,1385.0,2,0,1,57493,WMM1,1252144,false,true,1434,image-keyboard-response,26
false,11,-1,2,1,false,z,true,false,0.0-2.0-0.49-0.445-3.445,0,0,0,,false,stim,false,0,,2,1,2,57493,WMM1,1256653,false,false,1437,image-keyboard-response,27
true,11,0,2,0,true,q,false,true,0.0-2.0-0.49-0.446-3.446,0,0,0,81,false,stim,false,1,2826.0,2,0,0,57493,WMM1,1260989,false,false,1440,image-keyboard-response,28
true,11,2,2,2,true,d,false,true,0.0-2.0-0.49-0.447-3.447,0,0,0,68,false,stim,false,0,2842.0,2,0,1,57493,WMM1,1265340,false,false,1443,image-keyboard-response,29
false,11,-1,2,0,false,q,true,false,0.0-2.0-0.49-0.448-3.448,0,0,0,,false,stim,false,1,,2,0,0,57493,WMM1,1269849,false,false,1446,image-keyboard-response,30
true,12,1,3,1,true,z,false,true,0.0-2.0-0.49-0.449-3.449,0,0,1,90,true,stim,false,1,2673.0,2,1,2,57493,WMM1,1274030,false,false,1449,image-keyboard-response,1
true,12,0,3,2,false,d,false,false,0.0-2.0-0.50-0.450-3.450,0,0,1,81,false,stim,true,0,1635.0,2,0,0,57493,WMM1,1277174,false,false,1452,image-keyboard-response,2
true,12,0,3,2,false,d,false,true,0.0-2.0-0.50-0.451-3.451,0,0,1,81,false,stim,true,0,1364.0,2,0,0,57493,WMM1,1280044,false,true,1455,image-keyboard-response,3
true,12,1,3,1,true,z,false,true,0.0-2.0-0.50-0.452-3.452,0,0,1,90,false,stim,false,1,2168.0,2,1,2,57493,WMM1,1283719,false,false,1458,image-keyboard-response,4
false,12,-1,3,1,false,z,true,false,0.0-2.0-0.50-0.453-3.453,0,0,1,,false,stim,false,2,,2,0,1,57493,WMM1,1288228,false,false,1461,image-keyboard-response,5
true,12,2,3,1,false,z,false,false,0.0-2.0-0.50-0.454-3.454,0,0,1,68,false,stim,true,2,2488.0,2,0,1,57493,WMM1,1292223,false,false,1464,image-keyboard-response,6
false,12,-1,3,1,false,z,true,false,0.0-2.0-0.50-0.455-3.455,0,0,1,,false,stim,false,2,,2,0,1,57493,WMM1,1296732,false,false,1467,image-keyboard-response,7
true,12,1,3,1,true,z,false,true,0.0-2.0-0.50-0.456-3.456,0,0,1,90,false,stim,false,1,2125.0,2,1,2,57493,WMM1,1300365,false,false,1470,image-keyboard-response,8
true,12,1,3,1,true,z,false,false,0.0-2.0-0.50-0.457-3.457,0,0,1,90,false,stim,false,1,1700.0,2,1,2,57493,WMM1,1303574,false,true,1473,image-keyboard-response,9
true,12,0,3,2,false,d,false,false,0.0-2.0-0.50-0.458-3.458,0,0,1,81,false,stim,true,0,1870.0,2,0,0,57493,WMM1,1306955,false,false,1476,image-keyboard-response,10
true,12,2,3,1,false,z,true,false,0.0-2.0-0.51-0.459-3.459,0,0,1,68,false,stim,false,1,1777.0,2,1,2,57493,WMM1,1310239,false,false,1479,image-keyboard-response,11
false,12,-1,3,1,false,z,true,false,0.0-2.0-0.51-0.460-3.460,0,0,1,,false,stim,false,2,,2,0,1,57493,WMM1,1314746,false,false,1482,image-keyboard-response,12
true,12,0,3,1,false,z,true,false,0.0-2.0-0.51-0.461-3.461,0,0,1,81,false,stim,false,2,1806.0,2,0,1,57493,WMM1,1318061,false,false,1485,image-keyboard-response,13
true,12,0,3,2,false,d,false,false,0.0-2.0-0.51-0.462-3.462,0,0,1,81,false,stim,true,0,2247.0,2,0,0,57493,WMM1,1321816,false,false,1488,image-keyboard-response,14
true,12,0,3,1,false,z,true,false,0.0-2.0-0.51-0.463-3.463,0,0,1,81,false,stim,false,1,2454.000000000233,2,1,2,57493,WMM1,1325777,false,false,1491,image-keyboard-response,15
true,12,1,3,1,true,z,false,true,0.0-2.0-0.51-0.464-3.464,0,0,1,90,false,stim,false,2,2908.0,2,0,1,57493,WMM1,1330193,false,false,1494,image-keyboard-response,16
true,12,1,3,2,false,d,true,false,0.0-2.0-0.51-0.465-3.465,0,0,1,90,false,stim,false,0,2471.999999999767,2,0,0,57493,WMM1,1334172,false,false,1497,image-keyboard-response,17
true,12,2,3,1,false,z,true,false,0.0-2.0-0.51-0.466-3.466,0,0,1,68,false,stim,false,1,1859.0,2,1,2,57493,WMM1,1337542,false,false,1500,image-keyboard-response,18
false,12,-1,3,2,false,d,true,false,0.0-2.0-0.51-0.467-3.467,0,0,1,,false,stim,false,0,,2,0,0,57493,WMM1,1342057,false,false,1503,image-keyboard-response,19
true,12,0,3,1,false,z,true,true,0.0-2.0-0.52-0.468-3.468,0,0,1,81,false,stim,false,2,1251.0,2,0,1,57493,WMM1,1344819,false,true,1506,image-keyboard-response,20
true,12,1,3,1,true,z,false,true,0.0-2.0-0.52-0.469-3.469,0,0,1,90,false,stim,false,1,1225.0,2,1,2,57493,WMM1,1347553,false,false,1509,image-keyboard-response,21
true,12,2,3,1,false,z,false,false,0.0-2.0-0.52-0.470-3.470,0,0,1,68,false,stim,true,2,1583.0,2,0,1,57493,WMM1,1350648,false,false,1512,image-keyboard-response,22
true,12,0,3,1,false,z,true,false,0.0-2.0-0.52-0.471-3.471,0,0,1,81,false,stim,false,2,1079.0,2,0,1,57493,WMM1,1353237,false,false,1515,image-keyboard-response,23
false,12,-1,3,1,false,z,true,false,0.0-2.0-0.52-0.472-3.472,0,0,1,,false,stim,false,1,,2,1,2,57493,WMM1,1357748,false,false,1518,image-keyboard-response,24
true,12,1,3,2,false,d,true,false,0.0-2.0-0.52-0.473-3.473,0,0,1,90,false,stim,false,0,2251.000000000233,2,0,0,57493,WMM1,1361508,false,false,1521,image-keyboard-response,25
false,12,-1,3,1,false,z,true,false,0.0-2.0-0.52-0.474-3.474,0,0,1,,false,stim,false,1,,2,1,2,57493,WMM1,1366022,false,false,1524,image-keyboard-response,26
true,12,2,3,2,true,d,false,true,0.0-2.0-0.52-0.475-3.475,0,0,1,68,false,stim,false,0,576.0,2,0,0,57493,WMM1,1368108,false,false,1527,image-keyboard-response,27
true,12,2,3,2,true,d,false,true,0.0-2.0-0.52-0.476-3.476,0,0,1,68,false,stim,false,0,1494.9999999997672,2,0,0,57493,WMM1,1371110,false,false,1530,image-keyboard-response,28
true,12,2,3,1,false,z,true,false,0.0-2.0-0.53-0.477-3.477,0,0,1,68,false,stim,false,1,1025.0,2,1,2,57493,WMM1,1373652,false,false,1533,image-keyboard-response,29
true,12,2,3,2,true,d,false,true,0.0-2.0-0.53-0.478-3.478,0,0,1,68,false,stim,false,0,849.9999999997672,2,0,0,57493,WMM1,1376012,false,false,1536,image-keyboard-response,30
true,12,2,3,2,true,d,false,true,0.0-2.0-0.53-0.479-3.479,0,0,1,68,false,stim,false,0,1587.0,2,0,0,57493,WMM1,1379109,false,false,1539,image-keyboard-response,31
true,12,2,3,1,false,z,true,false,0.0-2.0-0.53-0.480-3.480,0,0,1,68,false,stim,false,1,1964.0,2,1,2,57493,WMM1,1382582,false,false,1542,image-keyboard-response,32
true,12,1,3,1,true,z,false,true,0.0-2.0-0.53-0.481-3.481,0,0,1,90,false,stim,false,1,1098.0,2,1,2,57493,WMM1,1385189,false,false,1545,image-keyboard-response,33
true,12,2,3,2,true,d,false,true,0.0-2.0-0.53-0.482-3.482,0,0,1,68,false,stim,false,0,1639.0,2,0,0,57493,WMM1,1388338,false,false,1548,image-keyboard-response,34
true,12,0,3,1,false,z,true,false,0.0-2.0-0.53-0.483-3.483,0,0,1,81,false,stim,false,2,1477.0,2,0,1,57493,WMM1,1391326,false,false,1551,image-keyboard-response,35
true,12,2,3,1,false,z,false,false,0.0-2.0-0.53-0.484-3.484,0,0,1,68,false,stim,true,2,1736.0,2,0,1,57493,WMM1,1394574,false,false,1554,image-keyboard-response,36
true,12,2,3,1,false,z,false,false,0.0-2.0-0.53-0.485-3.485,0,0,1,68,false,stim,true,2,2544.0,2,0,1,57493,WMM1,1398628,false,false,1557,image-keyboard-response,37
true,12,1,3,2,false,d,true,false,0.0-2.0-0.54-0.486-3.486,0,0,1,90,false,stim,false,0,2503.0,2,0,0,57493,WMM1,1402644,false,false,1560,image-keyboard-response,38
true,12,2,3,1,false,z,true,false,0.0-2.0-0.54-0.487-3.487,0,0,1,68,false,stim,false,1,1185.0,2,1,2,57493,WMM1,1405338,false,false,1563,image-keyboard-response,39
true,12,0,3,1,false,z,true,false,0.0-2.0-0.54-0.488-3.488,0,0,1,81,false,stim,false,2,1692.0,2,0,1,57493,WMM1,1408539,false,false,1566,image-keyboard-response,40
true,12,1,3,1,true,z,false,true,0.0-2.0-0.54-0.489-3.489,0,0,1,90,false,stim,false,2,1163.0,2,0,1,57493,WMM1,1411218,false,false,1569,image-keyboard-response,41
true,12,1,3,1,true,z,false,true,0.0-2.0-0.54-0.490-3.490,0,0,1,90,false,stim,false,1,1987.0,2,1,2,57493,WMM1,1414714,false,false,1572,image-keyboard-response,42
true,12,1,3,1,true,z,false,true,0.0-2.0-0.54-0.491-3.491,0,0,1,90,false,stim,false,2,1338.0,2,0,1,57493,WMM1,1417562,false,false,1575,image-keyboard-response,43
true,12,1,3,2,false,d,true,false,0.0-2.0-0.54-0.492-3.492,0,0,1,90,false,stim,false,0,1130.0,2,0,0,57493,WMM1,1420202,false,false,1578,image-keyboard-response,44
true,12,2,3,2,true,d,false,true,0.0-2.0-0.54-0.493-3.493,0,0,1,68,false,stim,false,0,781.0000000002328,2,0,0,57493,WMM1,1422491,false,false,1581,image-keyboard-response,45
true,12,1,3,1,true,z,false,true,0.0-2.0-0.54-0.494-3.494,0,0,1,90,false,stim,false,1,1355.0,2,1,2,57493,WMM1,1425352,false,false,1584,image-keyboard-response,46
true,12,1,3,1,true,z,false,true,0.0-2.0-0.55-0.495-3.495,0,0,1,90,false,stim,false,2,1641.0,2,0,1,57493,WMM1,1428505,false,false,1587,image-keyboard-response,47
true,12,2,3,2,true,d,false,true,0.0-2.0-0.55-0.496-3.496,0,0,1,68,false,stim,false,0,1628.0,2,0,0,57493,WMM1,1431642,false,false,1590,image-keyboard-response,48
false,12,-1,3,2,false,d,true,false,0.0-2.0-0.55-0.497-3.497,0,0,1,,false,stim,false,0,,2,0,0,57493,WMM1,1436152,false,false,1593,image-keyboard-response,49
true,12,1,3,1,true,z,false,true,0.0-2.0-0.55-0.498-3.498,0,0,1,90,false,stim,false,2,2288.0,2,0,1,57493,WMM1,1439949,false,false,1596,image-keyboard-response,50
true,12,2,3,1,false,z,false,false,0.0-2.0-0.55-0.499-3.499,0,0,1,68,false,stim,true,2,1480.0,2,0,1,57493,WMM1,1442936,false,false,1599,image-keyboard-response,51
true,12,1,3,1,true,z,false,false,0.0-2.0-0.55-0.500-3.500,0,0,1,90,false,stim,false,1,2698.000000000233,2,0,2,57493,WMM1,1447154,false,true,1602,image-keyboard-response,52
true,12,2,3,2,true,d,false,true,0.0-2.0-0.55-0.501-3.501,0,0,1,68,false,stim,false,0,2257.0,2,0,0,57493,WMM1,1450920,false,false,1605,image-keyboard-response,53
false,12,-1,3,1,false,z,true,false,0.0-2.0-0.55-0.502-3.502,0,0,1,,false,stim,false,1,,2,0,2,57493,WMM1,1455430,false,false,1608,image-keyboard-response,54
false,12,-1,3,1,false,z,true,false,0.0-2.0-0.55-0.503-3.503,0,0,1,,false,stim,false,1,,2,0,2,57493,WMM1,1459939,false,false,1611,image-keyboard-response,55
true,12,1,3,1,true,z,false,true,0.0-2.0-0.56-0.504-3.504,0,0,1,90,false,stim,false,2,1505.0000000002328,2,0,1,57493,WMM1,1462954,false,false,1614,image-keyboard-response,56
true,12,2,3,2,true,d,false,false,0.0-2.0-0.56-0.505-3.505,0,0,1,68,false,stim,false,0,1849.0,2,0,0,57493,WMM1,1466310,false,true,1617,image-keyboard-response,57
true,12,2,3,2,true,d,false,true,0.0-2.0-0.56-0.506-3.506,0,0,1,68,false,stim,false,0,803.0,2,0,0,57493,WMM1,1468624,false,false,1620,image-keyboard-response,58
true,13,1,1,2,false,d,false,false,0.0-2.0-0.56-0.507-3.507,0,0,0,90,true,stim,true,1,2512.0,2,0,1,57493,WMM1,1472643,false,false,1623,image-keyboard-response,1
true,13,1,1,2,false,d,false,true,0.0-2.0-0.56-0.508-3.508,0,0,0,90,false,stim,true,1,1923.0,2,0,2,57493,WMM1,1476074,false,true,1626,image-keyboard-response,2
true,13,1,1,2,false,d,false,true,0.0-2.0-0.56-0.509-3.509,0,0,0,90,false,stim,true,1,1044.0,2,0,2,57493,WMM1,1478626,false,true,1629,image-keyboard-response,3
true,13,1,1,2,false,d,false,false,0.0-2.0-0.56-0.510-3.510,0,0,0,90,false,stim,true,1,1731.0,2,0,2,57493,WMM1,1481867,false,false,1632,image-keyboard-response,4
true,13,1,1,2,false,d,false,false,0.0-2.0-0.56-0.511-3.511,0,0,0,90,false,stim,true,1,1260.0000000002328,2,0,1,57493,WMM1,1484637,false,false,1635,image-keyboard-response,5
false,13,-1,1,0,false,q,true,false,0.0-2.0-0.56-0.512-3.512,0,0,0,,false,stim,false,2,,2,0,0,57493,WMM1,1489145,false,false,1638,image-keyboard-response,6
true,13,2,1,2,true,d,false,false,0.0-2.0-0.57-0.513-3.513,0,0,0,68,false,stim,false,1,1829.0,2,0,2,57493,WMM1,1492482,false,true,1641,image-keyboard-response,7
false,13,-1,1,2,false,d,true,false,0.0-2.0-0.57-0.514-3.514,0,0,0,,false,stim,false,1,,2,0,2,57493,WMM1,1496990,false,false,1644,image-keyboard-response,8
false,13,-1,1,0,false,q,true,false,0.0-2.0-0.57-0.515-3.515,0,0,0,,false,stim,false,2,,2,0,0,57493,WMM1,1501498,false,false,1647,image-keyboard-response,9
false,13,-1,1,2,false,d,true,false,0.0-2.0-0.57-0.516-3.516,0,0,0,,false,stim,false,1,,2,0,2,57493,WMM1,1506008,false,false,1650,image-keyboard-response,10
false,13,-1,1,2,false,d,true,false,0.0-2.0-0.57-0.517-3.517,0,0,0,,false,stim,false,1,,2,0,1,57493,WMM1,1510519,false,false,1653,image-keyboard-response,11
true,13,2,1,0,false,q,false,false,0.0-2.0-0.57-0.518-3.518,0,0,0,68,false,stim,true,2,539.0,2,0,0,57493,WMM1,1512567,false,false,1656,image-keyboard-response,12
true,13,0,1,2,false,d,true,false,0.0-2.0-0.57-0.519-3.519,0,0,0,81,false,stim,false,1,494.0,2,0,1,57493,WMM1,1514569,false,false,1659,image-keyboard-response,13
true,13,1,1,0,false,q,true,false,0.0-2.0-0.57-0.520-3.520,0,0,0,90,false,stim,false,2,493.0,2,0,0,57493,WMM1,1516567,false,false,1662,image-keyboard-response,14
true,13,2,1,2,true,d,false,true,0.0-2.0-0.57-0.521-3.521,0,0,0,68,false,stim,false,1,391.0,2,0,1,57493,WMM1,1518469,false,false,1665,image-keyboard-response,15
true,13,2,1,2,true,d,false,true,0.0-2.0-0.58-0.522-3.522,0,0,0,68,false,stim,false,1,509.0,2,0,2,57493,WMM1,1520487,false,false,1668,image-keyboard-response,16
true,13,2,1,2,true,d,false,true,0.0-2.0-0.58-0.523-3.523,0,0,0,68,false,stim,false,1,1027.0,2,0,1,57493,WMM1,1523018,false,false,1671,image-keyboard-response,17
true,13,2,1,0,false,q,false,false,0.0-2.0-0.58-0.524-3.524,0,0,0,68,false,stim,true,2,1822.0,2,0,0,57493,WMM1,1526348,false,false,1674,image-keyboard-response,18
true,13,2,1,2,true,d,false,true,0.0-2.0-0.58-0.525-3.525,0,0,0,68,false,stim,false,1,812.0,2,0,1,57493,WMM1,1528666,false,false,1677,image-keyboard-response,19
true,13,0,1,0,true,q,false,true,0.0-2.0-0.58-0.526-3.526,0,0,0,81,false,stim,false,2,1846.0,2,0,0,57493,WMM1,1532019,false,false,1680,image-keyboard-response,20
true,13,2,1,2,true,d,false,true,0.0-2.0-0.58-0.527-3.527,0,0,0,68,false,stim,false,1,1342.0,2,0,1,57493,WMM1,1534872,false,false,1683,image-keyboard-response,21
true,13,2,1,0,false,q,false,false,0.0-2.0-0.58-0.528-3.528,0,0,0,68,false,stim,true,2,2038.0,2,0,0,57493,WMM1,1538421,false,false,1686,image-keyboard-response,22
true,13,2,1,2,true,d,false,true,0.0-2.0-0.58-0.529-3.529,0,0,0,68,false,stim,false,1,652.0,2,0,2,57493,WMM1,1540588,false,false,1689,image-keyboard-response,23
true,13,2,1,2,true,d,false,true,0.0-2.0-0.58-0.530-3.530,0,0,0,68,false,stim,false,1,1242.0000000002328,2,0,2,57493,WMM1,1543342,false,false,1692,image-keyboard-response,24
true,13,0,1,0,true,q,false,true,0.0-2.0-0.59-0.531-3.531,0,0,0,81,false,stim,false,2,1482.0,2,0,0,57493,WMM1,1546335,false,false,1695,image-keyboard-response,25
true,13,2,1,2,true,d,false,true,0.0-2.0-0.59-0.532-3.532,0,0,0,68,false,stim,false,1,1288.0,2,0,1,57493,WMM1,1549134,false,false,1698,image-keyboard-response,26
true,13,0,1,0,true,q,false,true,0.0-2.0-0.59-0.533-3.533,0,0,0,81,false,stim,false,2,1143.0,2,0,0,57493,WMM1,1551799,false,false,1701,image-keyboard-response,27
true,13,2,1,2,true,d,false,true,0.0-2.0-0.59-0.534-3.534,0,0,0,68,false,stim,false,1,1855.0,2,1,2,57493,WMM1,1555164,false,false,1704,image-keyboard-response,28
true,13,2,1,2,true,d,false,true,0.0-2.0-0.59-0.535-3.535,0,0,0,68,false,stim,false,1,1326.0,2,1,1,57493,WMM1,1557996,false,false,1707,image-keyboard-response,29
true,13,2,1,2,true,d,false,true,0.0-2.0-0.59-0.536-3.536,0,0,0,68,false,stim,false,1,1676.0000000002328,2,1,1,57493,WMM1,1561178,false,false,1710,image-keyboard-response,30
true,13,2,1,2,true,d,false,true,0.0-2.0-0.59-0.537-3.537,0,0,0,68,false,stim,false,1,2476.000000000233,2,1,2,57493,WMM1,1565160,false,false,1713,image-keyboard-response,31
true,13,2,1,2,true,d,false,true,0.0-2.0-0.59-0.538-3.538,0,0,0,68,false,stim,false,1,1758.0,2,1,2,57493,WMM1,1568425,false,false,1716,image-keyboard-response,32
true,13,2,1,0,false,q,false,false,0.0-2.0-0.59-0.539-3.539,0,0,0,68,false,stim,true,2,1914.0,2,1,0,57493,WMM1,1571847,false,false,1719,image-keyboard-response,33
true,13,0,1,0,true,q,false,true,0.0-2.0-0.60-0.540-3.540,0,0,0,81,false,stim,false,2,1651.0000000002328,2,1,0,57493,WMM1,1575005,false,false,1722,image-keyboard-response,34
true,13,2,1,2,true,d,false,true,0.0-2.0-0.60-0.541-3.541,0,0,0,68,false,stim,false,1,2083.0,2,1,1,57493,WMM1,1578597,false,false,1725,image-keyboard-response,35
true,13,2,1,2,true,d,false,true,0.0-2.0-0.60-0.542-3.542,0,0,0,68,false,stim,false,1,1894.0,2,1,1,57493,WMM1,1582000,false,false,1728,image-keyboard-response,36
true,13,2,1,2,true,d,false,true,0.0-2.0-0.60-0.543-3.543,0,0,0,68,false,stim,false,1,1608.0,2,1,2,57493,WMM1,1585117,false,false,1731,image-keyboard-response,37
false,14,-1,0,2,false,d,true,false,0.0-2.0-0.60-0.544-3.544,1,1,1,,true,stim,false,2,,2,1,2,57493,WMM1,1709921,false,false,1854,image-keyboard-response,1
false,14,-1,0,0,false,q,true,false,0.0-2.0-0.60-0.545-3.545,1,1,1,,false,stim,false,0,,2,1,0,57493,WMM1,1714428,false,false,1857,image-keyboard-response,2
false,14,-1,0,2,false,d,true,false,0.0-2.0-0.60-0.546-3.546,1,1,1,,false,stim,false,2,,2,1,2,57493,WMM1,1718940,false,false,1860,image-keyboard-response,3
true,14,0,0,2,false,d,true,false,0.0-2.0-0.60-0.547-3.547,1,1,1,81,false,stim,false,2,1421.9999999997672,2,1,1,57493,WMM1,1721871,false,false,1863,image-keyboard-response,4
true,14,2,0,0,false,q,true,false,0.0-2.0-0.60-0.548-3.548,1,1,1,68,false,stim,false,0,1973.0,2,1,0,57493,WMM1,1725352,false,false,1866,image-keyboard-response,5
true,14,0,0,0,true,q,false,true,0.0-2.0-0.61-0.549-3.549,1,1,1,81,false,stim,false,0,1629.0,2,1,0,57493,WMM1,1728490,false,false,1869,image-keyboard-response,6
true,14,0,0,2,false,d,true,false,0.0-2.0-0.61-0.550-3.550,1,1,1,81,false,stim,false,2,712.0000000002328,2,1,1,57493,WMM1,1730709,false,false,1872,image-keyboard-response,7
true,14,1,0,2,false,d,true,false,0.0-2.0-0.61-0.551-3.551,1,1,1,90,false,stim,false,2,683.0,2,1,1,57493,WMM1,1732899,false,false,1875,image-keyboard-response,8
true,14,2,0,2,true,d,false,true,0.0-2.0-0.61-0.552-3.552,1,1,1,68,false,stim,false,2,731.0,2,1,2,57493,WMM1,1735137,false,false,1878,image-keyboard-response,9
true,14,2,0,2,true,d,false,true,0.0-2.0-0.61-0.553-3.553,1,1,1,68,false,stim,false,2,2031.0,2,1,1,57493,WMM1,1738675,false,false,1881,image-keyboard-response,10
true,14,0,0,0,true,q,false,true,0.0-2.0-0.61-0.554-3.554,1,1,1,81,false,stim,false,0,1247.0,2,1,0,57493,WMM1,1741437,false,false,1884,image-keyboard-response,11
true,14,2,0,0,false,q,true,true,0.0-2.0-0.61-0.555-3.555,1,1,1,68,false,stim,false,0,2239.0,2,1,0,57493,WMM1,1745184,false,true,1887,image-keyboard-response,12
true,14,2,0,2,true,d,false,true,0.0-2.0-0.61-0.556-3.556,1,1,1,68,false,stim,false,2,664.0,2,1,2,57493,WMM1,1747357,false,false,1890,image-keyboard-response,13
true,14,2,0,2,true,d,false,true,0.0-2.0-0.61-0.557-3.557,1,1,1,68,false,stim,false,2,762.0,2,1,2,57493,WMM1,1749627,false,false,1893,image-keyboard-response,14
true,14,2,0,2,true,d,false,true,0.0-2.0-0.62-0.558-3.558,1,1,1,68,false,stim,false,2,561.0,2,1,2,57493,WMM1,1751697,false,false,1896,image-keyboard-response,15
true,14,2,0,2,true,d,false,true,0.0-2.0-0.62-0.559-3.559,1,1,1,68,false,stim,false,2,721.0,2,1,1,57493,WMM1,1753926,false,false,1899,image-keyboard-response,16
true,14,0,0,0,true,q,false,true,0.0-2.0-0.62-0.560-3.560,1,1,1,81,false,stim,false,0,80.0,2,1,0,57493,WMM1,1755525,false,false,1902,image-keyboard-response,17
true,14,2,0,2,true,d,false,true,0.0-2.0-0.62-0.561-3.561,1,1,1,68,false,stim,false,2,645.0,2,1,1,57493,WMM1,1757678,false,false,1905,image-keyboard-response,18
true,14,2,0,2,true,d,false,true,0.0-2.0-0.62-0.562-3.562,1,1,1,68,false,stim,false,2,515.0000000002328,2,1,1,57493,WMM1,1759701,false,false,1908,image-keyboard-response,19
true,14,0,0,0,true,q,false,true,0.0-2.0-0.62-0.563-3.563,1,1,1,81,false,stim,false,0,721.0000000002328,2,1,0,57493,WMM1,1761932,false,false,1911,image-keyboard-response,20
true,14,2,0,2,true,d,false,true,0.0-2.0-0.62-0.564-3.564,1,1,1,68,false,stim,false,2,539.0,2,1,2,57493,WMM1,1763982,false,false,1914,image-keyboard-response,21
true,14,2,0,2,true,d,false,true,0.0-2.0-0.62-0.565-3.565,1,1,1,68,false,stim,false,2,378.0,2,1,2,57493,WMM1,1765869,false,false,1917,image-keyboard-response,22
true,14,0,0,0,true,q,false,false,0.0-2.0-0.62-0.566-3.566,1,1,1,81,false,stim,false,0,727.0000000002328,2,0,0,57493,WMM1,1768104,false,true,1920,image-keyboard-response,23
true,14,2,0,2,true,d,false,true,0.0-2.0-0.63-0.567-3.567,1,1,1,68,false,stim,false,2,392.0,2,0,1,57493,WMM1,1770004,false,false,1923,image-keyboard-response,24
true,14,2,0,0,false,q,true,false,0.0-2.0-0.63-0.568-3.568,1,1,1,68,false,stim,false,0,169.0,2,0,0,57493,WMM1,1771679,false,false,1926,image-keyboard-response,25
true,14,0,0,0,true,q,false,true,0.0-2.0-0.63-0.569-3.569,1,1,1,81,false,stim,false,0,517.0,2,0,0,57493,WMM1,1773703,false,false,1929,image-keyboard-response,26
true,14,2,0,2,true,d,false,true,0.0-2.0-0.63-0.570-3.570,1,1,1,68,false,stim,false,2,606.9999999997672,2,1,2,57493,WMM1,1775818,false,false,1932,image-keyboard-response,27
true,14,2,0,2,true,d,false,true,0.0-2.0-0.63-0.571-3.571,1,1,1,68,false,stim,false,2,422.00000000023283,2,1,2,57493,WMM1,1777750,false,false,1935,image-keyboard-response,28
true,14,2,0,2,true,d,false,false,0.0-2.0-0.63-0.572-3.572,1,1,1,68,false,stim,false,2,551.9999999997672,2,0,1,57493,WMM1,1779812,false,true,1938,image-keyboard-response,29
true,14,2,0,2,true,d,false,true,0.0-2.0-0.63-0.573-3.573,1,1,1,68,false,stim,false,2,776.0000000002328,2,0,1,57493,WMM1,1782096,false,false,1941,image-keyboard-response,30
true,15,2,3,2,true,d,false,true,0.0-2.0-0.63-0.574-3.574,0,0,1,68,true,stim,false,0,528.0,2,0,0,57493,WMM1,1784132,false,false,1944,image-keyboard-response,1
true,15,2,3,2,true,d,false,true,0.0-2.0-0.63-0.575-3.575,0,0,1,68,false,stim,false,2,840.0,2,1,2,57493,WMM1,1786480,false,false,1947,image-keyboard-response,2
true,15,2,3,0,false,q,false,false,0.0-2.0-0.64-0.576-3.576,0,0,1,68,false,stim,true,2,684.9999999997672,2,0,1,57493,WMM1,1788676,false,false,1950,image-keyboard-response,3
true,15,0,3,2,false,d,false,true,0.0-2.0-0.64-0.577-3.577,0,0,1,81,false,stim,true,0,484.99999999976717,2,0,0,57493,WMM1,1790668,false,true,1953,image-keyboard-response,4
true,15,0,3,2,false,d,false,false,0.0-2.0-0.64-0.578-3.578,0,0,1,81,false,stim,true,0,817.0,2,0,0,57493,WMM1,1792991,false,false,1956,image-keyboard-response,5
true,15,1,3,2,false,d,true,false,0.0-2.0-0.64-0.579-3.579,0,0,1,90,false,stim,false,2,589.9999999997672,2,1,2,57493,WMM1,1795089,false,false,1959,image-keyboard-response,6
true,15,0,3,2,false,d,false,false,0.0-2.0-0.64-0.580-3.580,0,0,1,81,false,stim,true,0,747.0,2,0,0,57493,WMM1,1797342,false,false,1962,image-keyboard-response,7
true,15,2,3,2,true,d,false,true,0.0-2.0-0.64-0.581-3.581,0,0,1,68,false,stim,false,2,1242.0,2,1,2,57493,WMM1,1800092,false,false,1965,image-keyboard-response,8
true,15,1,3,0,false,q,true,false,0.0-2.0-0.64-0.582-3.582,0,0,1,90,false,stim,false,2,508.0,2,0,1,57493,WMM1,1802109,false,false,1968,image-keyboard-response,9
true,15,2,3,2,true,d,false,true,0.0-2.0-0.64-0.583-3.583,0,0,1,68,false,stim,false,2,749.0000000002328,2,1,2,57493,WMM1,1804366,false,false,1971,image-keyboard-response,10
true,15,0,3,0,true,q,false,true,0.0-2.0-0.64-0.584-3.584,0,0,1,81,false,stim,false,2,887.0000000002328,2,0,1,57493,WMM1,1806761,false,false,1974,image-keyboard-response,11
true,15,0,3,0,true,q,false,true,0.0-2.0-0.65-0.585-3.585,0,0,1,81,false,stim,false,2,683.0000000002328,2,0,1,57493,WMM1,1808952,false,false,1977,image-keyboard-response,12
true,15,2,3,2,true,d,false,true,0.0-2.0-0.65-0.586-3.586,0,0,1,68,false,stim,false,0,923.0000000002328,2,0,0,57493,WMM1,1811386,false,false,1980,image-keyboard-response,13
true,15,2,3,2,true,d,false,true,0.0-2.0-0.65-0.587-3.587,0,0,1,68,false,stim,false,2,705.0,2,1,2,57493,WMM1,1813598,false,false,1983,image-keyboard-response,14
true,15,2,3,2,true,d,false,false,0.0-2.0-0.65-0.588-3.588,0,0,1,68,false,stim,false,2,702.0,2,1,2,57493,WMM1,1815809,false,true,1986,image-keyboard-response,15
true,15,0,3,2,false,d,false,true,0.0-2.0-0.65-0.589-3.589,0,0,1,81,false,stim,true,0,411.0,2,0,0,57493,WMM1,1817727,false,true,1989,image-keyboard-response,16
true,15,2,3,2,true,d,false,true,0.0-2.0-0.65-0.590-3.590,0,0,1,68,false,stim,false,2,798.0,2,1,2,57493,WMM1,1820033,false,false,1992,image-keyboard-response,17
true,15,0,3,0,true,q,false,false,0.0-2.0-0.65-0.591-3.591,0,0,1,81,false,stim,false,2,668.0,2,0,1,57493,WMM1,1822210,false,true,1995,image-keyboard-response,18
true,15,2,3,2,true,d,false,true,0.0-2.0-0.65-0.592-3.592,0,0,1,68,false,stim,false,0,557.0,2,0,0,57493,WMM1,1824275,false,false,1998,image-keyboard-response,19
true,15,0,3,0,true,q,false,true,0.0-2.0-0.65-0.593-3.593,0,0,1,81,false,stim,false,2,1357.0,2,0,1,57493,WMM1,1827151,false,false,2001,image-keyboard-response,20
true,15,2,3,2,true,d,false,true,0.0-2.0-0.66-0.594-3.594,0,0,1,68,false,stim,false,2,597.0,2,1,2,57493,WMM1,1829259,false,false,2004,image-keyboard-response,21
true,15,0,3,2,false,d,false,false,0.0-2.0-0.66-0.595-3.595,0,0,1,81,false,stim,true,0,416.0,2,0,0,57493,WMM1,1831183,false,false,2007,image-keyboard-response,22
true,15,0,3,2,false,d,false,false,0.0-2.0-0.66-0.596-3.596,0,0,1,81,false,stim,true,0,679.0,2,0,0,57493,WMM1,1833372,false,false,2010,image-keyboard-response,23
true,15,0,3,0,true,q,false,true,0.0-2.0-0.66-0.597-3.597,0,0,1,81,false,stim,false,2,853.0,2,0,1,57493,WMM1,1835736,false,false,2013,image-keyboard-response,24
true,15,2,3,2,true,d,false,true,0.0-2.0-0.66-0.598-3.598,0,0,1,68,false,stim,false,2,602.0000000002328,2,1,2,57493,WMM1,1837848,false,false,2016,image-keyboard-response,25
true,15,0,3,0,true,q,false,true,0.0-2.0-0.66-0.599-3.599,0,0,1,81,false,stim,false,2,641.0,2,0,1,57493,WMM1,1839997,false,false,2019,image-keyboard-response,26
true,15,1,3,2,false,d,true,false,0.0-2.0-0.66-0.600-3.600,0,0,1,90,false,stim,false,2,2558.0,2,1,2,57493,WMM1,1844068,false,false,2022,image-keyboard-response,27
true,15,2,3,2,true,d,false,true,0.0-2.0-0.66-0.601-3.601,0,0,1,68,false,stim,false,0,1193.0,2,0,0,57493,WMM1,1846771,false,false,2025,image-keyboard-response,28
true,15,0,3,0,true,q,false,true,0.0-2.0-0.66-0.602-3.602,0,0,1,81,false,stim,false,2,618.9999999997672,2,0,1,57493,WMM1,1848900,false,false,2028,image-keyboard-response,29
true,15,0,3,0,true,q,false,true,0.0-2.0-0.67-0.603-3.603,0,0,1,81,false,stim,false,2,587.0,2,0,1,57493,WMM1,1850998,false,false,2031,image-keyboard-response,30
true,15,2,3,2,true,d,false,true,0.0-2.0-0.67-0.604-3.604,0,0,1,68,false,stim,false,2,1345.0,2,1,2,57493,WMM1,1853855,false,false,2034,image-keyboard-response,31
true,15,0,3,0,true,q,false,true,0.0-2.0-0.67-0.605-3.605,0,0,1,81,false,stim,false,2,724.0000000002328,2,0,1,57493,WMM1,1856088,false,false,2037,image-keyboard-response,32
true,15,2,3,2,true,d,false,true,0.0-2.0-0.67-0.606-3.606,0,0,1,68,false,stim,false,0,674.0,2,0,0,57493,WMM1,1858275,false,false,2040,image-keyboard-response,33
true,15,2,3,2,true,d,false,true,0.0-2.0-0.67-0.607-3.607,0,0,1,68,false,stim,false,0,1065.0,2,0,0,57493,WMM1,1860850,false,false,2043,image-keyboard-response,34
true,15,0,3,0,true,q,false,true,0.0-2.0-0.67-0.608-3.608,0,0,1,81,false,stim,false,2,669.9999999997672,2,0,1,57493,WMM1,1863028,false,false,2046,image-keyboard-response,35
true,15,2,3,2,true,d,false,false,0.0-2.0-0.67-0.609-3.609,0,0,1,68,false,stim,false,2,837.0000000002328,2,1,2,57493,WMM1,1865377,false,true,2049,image-keyboard-response,36
true,15,1,3,2,false,d,true,false,0.0-2.0-0.67-0.610-3.610,0,0,1,90,false,stim,false,2,1113.0,2,0,2,57493,WMM1,1867998,false,false,2052,image-keyboard-response,37
true,15,2,3,2,true,d,false,true,0.0-2.0-0.67-0.611-3.611,0,0,1,68,false,stim,false,0,1815.0,2,0,0,57493,WMM1,1871322,false,false,2055,image-keyboard-response,38
true,15,0,3,2,false,d,true,false,0.0-2.0-0.68-0.612-3.612,0,0,1,81,false,stim,false,2,1232.9999999997672,2,0,2,57493,WMM1,1874063,false,false,2058,image-keyboard-response,39
true,15,2,3,2,true,d,false,false,0.0-2.0-0.68-0.613-3.613,0,0,1,68,false,stim,false,0,815.0000000002328,2,0,0,57493,WMM1,1876387,false,true,2061,image-keyboard-response,40
true,15,1,3,0,false,q,true,false,0.0-2.0-0.68-0.614-3.614,0,0,1,90,false,stim,false,2,1007.0,2,0,1,57493,WMM1,1878903,false,false,2064,image-keyboard-response,41
true,15,2,3,0,false,q,false,false,0.0-2.0-0.68-0.615-3.615,0,0,1,68,false,stim,true,2,710.0,2,0,1,57493,WMM1,1881120,false,false,2067,image-keyboard-response,42
true,15,2,3,2,true,d,false,false,0.0-2.0-0.68-0.616-3.616,0,0,1,68,false,stim,false,2,1218.0,2,0,2,57493,WMM1,1883844,false,true,2070,image-keyboard-response,43
true,15,0,3,2,false,d,true,false,0.0-2.0-0.68-0.617-3.617,0,0,1,81,false,stim,false,2,936.0000000002328,2,0,2,57493,WMM1,1886291,false,false,2073,image-keyboard-response,44
true,15,1,3,2,false,d,true,false,0.0-2.0-0.68-0.618-3.618,0,0,1,90,false,stim,false,0,608.0000000002328,2,0,0,57493,WMM1,1888408,false,false,2076,image-keyboard-response,45
