answered,blockNum,choice,condition,corResp,correct,correct_response,explo,fb,internal_node_id,isStable_1,isStable_2,isStable_3,key_press,newBlock,part,persev,persevResp,rt,sessNum,stableAS,stimulus,subject,task,time_elapsed,training,trap,trial_index,trial_type,trialsInBlock
true,1,2,0,2,true,d,false,true,0.0-2.0-0.0-0.0-3.0,0,0,0,68,true,stim,false,-1,830.7000000058906,1,0,1,62384,WMM1,138746,false,false,142,image-keyboard-response,1
true,1,1,0,2,false,d,true,false,0.0-2.0-0.0-0.1-3.1,0,0,0,90,false,stim,false,-1,529.5249999981024,1,0,2,62384,WMM1,140787,false,false,145,image-keyboard-response,2
true,1,2,0,2,true,d,false,true,0.0-2.0-0.0-0.2-3.2,0,0,0,68,false,stim,false,-1,305.594999997993,1,0,1,62384,WMM1,142601,false,false,148,image-keyboard-response,3
true,1,0,0,2,false,d,true,false,0.0-2.0-0.0-0.3-3.3,0,0,0,81,false,stim,false,-1,417.7849999978207,1,0,2,62384,WMM1,144530,false,false,151,image-keyboard-response,4
true,1,1,0,0,false,q,true,false,0.0-2.0-0.0-0.4-3.4,0,0,0,90,false,stim,false,-1,570.0299999953131,1,0,0,62384,WMM1,146609,false,false,154,image-keyboard-response,5
true,1,0,0,0,true,q,false,false,0.0-2.0-0.0-0.5-3.5,0,0,0,81,false,stim,false,-1,475.3850000051898,1,0,0,62384,WMM1,148599,false,true,157,image-keyboard-response,6
true,1,2,0,2,true,d,false,true,0.0-2.0-0.0-0.6-3.6,0,0,0,68,false,stim,false,-1,313.17000000126427,1,0,1,62384,WMM1,150421,false,false,160,image-keyboard-response,7
true,1,2,0,0,false,q,true,false,0.0-2.0-0.0-0.7-3.7,0,0,0,68,false,stim,false,-1,371.72000000282424,1,0,0,62384,WMM1,152305,false,false,163,image-keyboard-response,8
true,1,2,0,2,true,d,false,true,0.0-2.0-0.0-0.8-3.8,0,0,0,68,false,stim,false,-1,508.25500000064494,1,0,2,62384,WMM1,154326,false,false,166,image-keyboard-response,9
true,1,2,0,2,true,d,false,true,0.0-2.0-0.1-0.9-3.9,0,0,0,68,false,stim,false,-1,453.28000000154134,1,0,1,62384,WMM1,156286,false,false,169,image-keyboard-response,10
true,1,0,0,0,true,q,false,true,0.0-2.0-0.1-0.10-3.10,0,0,0,81,false,stim,false,-1,513.440000002447,1,0,0,62384,WMM1,158308,false,false,172,image-keyboard-response,11
true,1,2,0,2,true,d,false,true,0.0-2.0-0.1-0.11-3.11,0,0,0,68,false,stim,false,-1,364.064999994298,1,0,2,62384,WMM1,160179,false,false,175,image-keyboard-response,12
true,1,0,0,0,true,q,false,false,0.0-2.0-0.1-0.12-3.12,0,0,0,81,false,stim,false,-1,531.8249999982072,1,0,0,62384,WMM1,162222,false,true,178,image-keyboard-response,13
true,1,2,0,2,true,d,false,true,0.0-2.0-0.1-0.13-3.13,0,0,0,68,false,stim,false,-1,410.2950000014971,1,0,1,62384,WMM1,164144,false,false,181,image-keyboard-response,14
true,1,1,0,0,false,q,true,false,0.0-2.0-0.1-0.14-3.14,0,0,0,90,false,stim,false,-1,590.5950000014855,1,0,0,62384,WMM1,166246,false,false,184,image-keyboard-response,15
true,1,2,0,2,true,d,false,true,0.0-2.0-0.1-0.15-3.15,0,0,0,68,false,stim,false,-1,448.3299999992596,1,0,2,62384,WMM1,168205,false,false,187,image-keyboard-response,16
true,1,1,0,2,false,d,true,false,0.0-2.0-0.1-0.16-3.16,0,0,0,90,false,stim,false,-1,537.465000001248,1,0,1,62384,WMM1,170250,false,false,190,image-keyboard-response,17
true,1,2,0,2,true,d,false,true,0.0-2.0-0.1-0.17-3.17,0,0,0,68,false,stim,false,-1,362.6850000000559,1,0,2,62384,WMM1,172118,false,false,193,image-keyboard-response,18
true,1,2,0,2,true,d,false,true,0.0-2.0-0.2-0.18-3.18,0,0,0,68,false,stim,false,-1,305.16000000352506,1,0,1,62384,WMM1,173937,false,false,196,image-keyboard-response,19
true,1,0,0,0,true,q,false,true,0.0-2.0-0.2-0.19-3.19,0,0,0,81,false,stim,false,-1,648.3350000053179,1,0,0,62384,WMM1,176096,false,false,199,image-keyboard-response,20
true,1,2,0,2,true,d,false,true,0.0-2.0-0.2-0.20-3.20,0,0,0,68,false,stim,false,-1,344.16000000055647,1,0,1,62384,WMM1,177953,false,false,202,image-keyboard-response,21
true,1,2,0,2,true,d,false,true,0.0-2.0-0.2-0.21-3.21,0,0,0,68,false,stim,false,-1,280.95500000199536,1,0,2,62384,WMM1,179746,false,false,205,image-keyboard-response,22
true,1,2,0,2,true,d,false,true,0.0-2.0-0.2-0.22-3.22,0,0,0,68,false,stim,false,-1,861.4200000010896,1,0,2,62384,WMM1,182121,false,false,208,image-keyboard-response,23
true,1,0,0,0,true,q,false,true,0.0-2.0-0.2-0.23-3.23,0,0,0,81,false,stim,false,-1,786.2099999983911,1,0,0,62384,WMM1,184414,false,false,211,image-keyboard-response,24
true,1,2,0,2,true,d,false,true,0.0-2.0-0.2-0.24-3.24,0,0,0,68,false,stim,false,-1,453.6000000007334,1,0,1,62384,WMM1,186374,false,false,214,image-keyboard-response,25
true,1,0,0,0,true,q,false,true,0.0-2.0-0.2-0.25-3.25,0,0,0,81,false,stim,false,-1,674.8999999981606,1,0,0,62384,WMM1,188558,false,false,217,image-keyboard-response,26
true,1,2,0,2,true,d,false,true,0.0-2.0-0.2-0.26-3.26,0,0,0,68,false,stim,false,-1,451.4649999982794,1,0,2,62384,WMM1,190517,false,false,220,image-keyboard-response,27
true,1,0,0,0,true,q,false,true,0.0-2.0-0.3-0.27-3.27,0,0,0,81,false,stim,false,-1,748.250000004191,1,0,0,62384,WMM1,192776,false,false,223,image-keyboard-response,28
true,1,0,0,0,true,q,false,true,0.0-2.0-0.3-0.28-3.28,0,0,0,81,false,stim,false,-1,432.15000000054715,1,0,0,62384,WMM1,194718,false,false,226,image-keyboard-response,29
true,1,2,0,2,true,d,false,true,0.0-2.0-0.3-0.29-3.29,0,0,0,68,false,stim,false,-1,767.9600000046776,1,0,1,62384,WMM1,196999,false,false,229,image-keyboard-response,30
true,1,2,0,2,true,d,false,true,0.0-2.0-0.3-0.30-3.30,0,0,0,68,false,stim,false,-1,779.6249999955762,1,0,2,62384,WMM1,199284,false,false,232,image-keyboard-response,31
true,1,2,0,2,true,d,false,true,0.0-2.0-0.3-0.31-3.31,0,0,0,68,false,stim,false,-1,522.2550000034971,1,0,1,62384,WMM1,201316,false,false,235,image-keyboard-response,32
true,1,2,0,2,true,d,false,true,0.0-2.0-0.3-0.32-3.32,0,0,0,68,false,stim,false,-1,352.35500000271713,1,0,1,62384,WMM1,203178,false,false,238,image-keyboard-response,33
true,1,2,0,2,true,d,false,true,0.0-2.0-0.3-0.33-3.33,0,0,0,68,false,stim,false,-1,536.420000004,1,0,2,62384,WMM1,205225,false,false,241,image-keyboard-response,34
true,2,0,1,1,false,z,false,false,0.0-2.0-0.3-0.34-3.34,0,0,0,81,true,stim,true,0,549.8599999991711,1,0,0,62384,WMM1,207282,false,false,244,image-keyboard-response,1
true,2,2,1,0,false,q,false,false,0.0-2.0-0.3-0.35-3.35,0,0,0,68,false,stim,true,2,452.145000002929,1,0,2,62384,WMM1,209245,false,false,247,image-keyboard-response,2
true,2,1,1,1,true,z,false,true,0.0-2.0-0.4-0.36-3.36,0,0,0,90,false,stim,false,0,531.7999999970198,1,0,0,62384,WMM1,211287,false,false,250,image-keyboard-response,3
true,2,1,1,1,true,z,false,false,0.0-2.0-0.4-0.37-3.37,0,0,0,90,false,stim,false,2,559.4399999972666,1,0,1,62384,WMM1,213355,false,true,253,image-keyboard-response,4
true,2,1,1,0,false,q,true,false,0.0-2.0-0.4-0.38-3.38,0,0,0,90,false,stim,false,2,516.219999997702,1,0,2,62384,WMM1,215381,false,false,256,image-keyboard-response,5
true,2,2,1,0,false,q,false,false,0.0-2.0-0.4-0.39-3.39,0,0,0,68,false,stim,true,2,593.7599999961094,1,0,2,62384,WMM1,217485,false,false,259,image-keyboard-response,6
true,2,1,1,1,true,z,false,true,0.0-2.0-0.4-0.40-3.40,0,0,0,90,false,stim,false,0,429.7000000005937,1,0,0,62384,WMM1,219422,false,false,262,image-keyboard-response,7
true,2,1,1,1,true,z,false,false,0.0-2.0-0.4-0.41-3.41,0,0,0,90,false,stim,false,0,520.1650000017253,1,0,0,62384,WMM1,221452,false,true,265,image-keyboard-response,8
true,2,0,1,0,true,q,false,true,0.0-2.0-0.4-0.42-3.42,0,0,0,81,false,stim,false,2,766.2300000010873,1,0,2,62384,WMM1,223730,false,false,268,image-keyboard-response,9
true,2,0,1,1,false,z,true,false,0.0-2.0-0.4-0.43-3.43,0,0,0,81,false,stim,false,2,781.474999996135,1,0,1,62384,WMM1,226021,false,false,271,image-keyboard-response,10
true,2,1,1,1,true,z,false,true,0.0-2.0-0.4-0.44-3.44,0,0,0,90,false,stim,false,2,385.6800000066869,1,0,1,62384,WMM1,227912,false,false,274,image-keyboard-response,11
true,2,1,1,1,true,z,false,true,0.0-2.0-0.5-0.45-3.45,0,0,0,90,false,stim,false,0,331.66499999788357,1,0,0,62384,WMM1,229756,false,false,277,image-keyboard-response,12
true,2,1,1,1,true,z,false,true,0.0-2.0-0.5-0.46-3.46,0,0,0,90,false,stim,false,2,296.7549999957555,1,0,1,62384,WMM1,231563,false,false,280,image-keyboard-response,13
true,2,0,1,0,true,q,false,true,0.0-2.0-0.5-0.47-3.47,0,0,0,81,false,stim,false,2,389.0099999989616,1,0,2,62384,WMM1,233465,false,false,283,image-keyboard-response,14
true,2,1,1,1,true,z,false,true,0.0-2.0-0.5-0.48-3.48,0,0,0,90,false,stim,false,2,703.1649999989895,1,0,1,62384,WMM1,235677,false,false,286,image-keyboard-response,15
true,2,1,1,1,true,z,false,true,0.0-2.0-0.5-0.49-3.49,0,0,0,90,false,stim,false,0,358.4649999975227,1,0,0,62384,WMM1,237544,false,false,289,image-keyboard-response,16
true,2,0,1,0,true,q,false,true,0.0-2.0-0.5-0.50-3.50,0,0,0,81,false,stim,false,2,317.32499999634456,1,0,2,62384,WMM1,239372,false,false,292,image-keyboard-response,17
true,2,1,1,0,false,q,true,false,0.0-2.0-0.5-0.51-3.51,0,0,0,90,false,stim,false,2,519.7550000011688,1,0,2,62384,WMM1,241403,false,false,295,image-keyboard-response,18
true,2,1,1,1,true,z,false,false,0.0-2.0-0.5-0.52-3.52,0,0,0,90,false,stim,false,2,643.4450000015204,1,0,1,62384,WMM1,243553,false,true,298,image-keyboard-response,19
true,2,1,1,1,true,z,false,true,0.0-2.0-0.5-0.53-3.53,0,0,0,90,false,stim,false,0,510.90000000112923,1,0,0,62384,WMM1,245576,false,false,301,image-keyboard-response,20
true,2,0,1,1,false,z,true,true,0.0-2.0-0.6-0.54-3.54,0,0,0,81,false,stim,false,2,887.5750000006519,1,0,1,62384,WMM1,247971,false,true,304,image-keyboard-response,21
true,2,0,1,1,false,z,true,false,0.0-2.0-0.6-0.55-3.55,0,0,0,81,false,stim,false,2,451.5400000018417,1,0,1,62384,WMM1,249931,false,false,307,image-keyboard-response,22
true,2,0,1,0,true,q,false,true,0.0-2.0-0.6-0.56-3.56,0,0,0,81,false,stim,false,2,362.0650000011665,1,0,2,62384,WMM1,251805,false,false,310,image-keyboard-response,23
true,2,1,1,1,true,z,false,true,0.0-2.0-0.6-0.57-3.57,0,0,0,90,false,stim,false,0,727.5250000020606,1,0,0,62384,WMM1,254040,false,false,313,image-keyboard-response,24
true,2,1,1,1,true,z,false,true,0.0-2.0-0.6-0.58-3.58,0,0,0,90,false,stim,false,0,475.815000005241,1,0,0,62384,WMM1,256024,false,false,316,image-keyboard-response,25
true,2,2,1,0,false,q,false,false,0.0-2.0-0.6-0.59-3.59,0,0,0,68,false,stim,true,2,385.2649999971618,1,0,2,62384,WMM1,257918,false,false,319,image-keyboard-response,26
true,2,1,1,1,true,z,false,true,0.0-2.0-0.6-0.60-3.60,0,0,0,90,false,stim,false,0,515.255000005709,1,0,0,62384,WMM1,259947,false,false,322,image-keyboard-response,27
true,2,1,1,0,false,q,true,false,0.0-2.0-0.6-0.61-3.61,0,0,0,90,false,stim,false,2,342.49499999714317,1,0,2,62384,WMM1,261800,false,false,325,image-keyboard-response,28
true,2,0,1,1,false,z,true,false,0.0-2.0-0.6-0.62-3.62,0,0,0,81,false,stim,false,2,455.96500000101514,1,0,1,62384,WMM1,263765,false,false,328,image-keyboard-response,29
true,2,1,1,1,true,z,false,true,0.0-2.0-0.7-0.63-3.63,0,0,0,90,false,stim,false,0,521.7499999998836,1,0,0,62384,WMM1,265799,false,false,331,image-keyboard-response,30
true,2,1,1,0,false,q,true,false,0.0-2.0-0.7-0.64-3.64,0,0,0,90,false,stim,false,2,493.5500000065076,1,0,2,62384,WMM1,267802,false,false,334,image-keyboard-response,31
true,2,1,1,1,true,z,false,true,0.0-2.0-0.7-0.65-3.65,0,0,0,90,false,stim,false,0,404.8949999996694,1,0,0,62384,WMM1,269717,false,false,337,image-keyboard-response,32
true,2,1,1,1,true,z,false,true,0.0-2.0-0.7-0.66-3.66,0,0,0,90,false,stim,false,2,373.9300000015646,1,0,1,62384,WMM1,271601,false,false,340,image-keyboard-response,33
true,2,0,1,0,true,q,false,true,0.0-2.0-0.7-0.67-3.67,0,0,0,81,false,stim,false,2,515.5149999991409,1,0,2,62384,WMM1,273630,false,false,343,image-keyboard-response,34
true,2,1,1,1,true,z,false,true,0.0-2.0-0.7-0.68-3.68,0,0,0,90,false,stim,false,2,843.7300000005052,1,0,1,62384,WMM1,275984,false,false,346,image-keyboard-response,35
true,2,1,1,1,true,z,false,true,0.0-2.0-0.7-0.69-3.69,0,0,0,90,false,stim,false,0,329.5399999988149,1,0,0,62384,WMM1,277821,false,false,349,image-keyboard-response,36
true,2,1,1,1,true,z,false,true,0.0-2.0-0.7-0.70-3.70,0,0,0,90,false,stim,false,2,413.92000000632834,1,0,1,62384,WMM1,279745,false,false,352,image-keyboard-response,37
true,2,0,1,0,true,q,false,true,0.0-2.0-0.7-0.71-3.71,0,0,0,81,false,stim,false,2,658.9549999989686,1,0,2,62384,WMM1,281918,false,false,355,image-keyboard-response,38
true,2,1,1,1,true,z,false,true,0.0-2.0-0.8-0.72-3.72,0,0,0,90,false,stim,false,0,269.9399999983143,1,1,0,62384,WMM1,283695,false,false,358,image-keyboard-response,39
true,2,1,1,0,false,q,true,false,0.0-2.0-0.8-0.73-3.73,0,0,0,90,false,stim,false,2,375.4750000007334,1,0,2,62384,WMM1,285582,false,false,361,image-keyboard-response,40
true,2,0,1,0,true,q,false,true,0.0-2.0-0.8-0.74-3.74,0,0,0,81,false,stim,false,2,351.56999999890104,1,0,2,62384,WMM1,287444,false,false,364,image-keyboard-response,41
true,2,1,1,1,true,z,false,true,0.0-2.0-0.8-0.75-3.75,0,0,0,90,false,stim,false,2,565.2800000025309,1,0,1,62384,WMM1,289522,false,false,367,image-keyboard-response,42
true,2,1,1,1,true,z,false,true,0.0-2.0-0.8-0.76-3.76,0,0,0,90,false,stim,false,2,429.920000002312,1,0,1,62384,WMM1,291459,false,false,370,image-keyboard-response,43
true,2,1,1,1,true,z,false,true,0.0-2.0-0.8-0.77-3.77,0,0,0,90,false,stim,false,2,361.65500000061,1,0,1,62384,WMM1,293328,false,false,373,image-keyboard-response,44
true,2,0,1,0,true,q,false,true,0.0-2.0-0.8-0.78-3.78,0,0,0,81,false,stim,false,2,564.2399999996996,1,0,2,62384,WMM1,295401,false,false,376,image-keyboard-response,45
true,2,1,1,1,true,z,false,true,0.0-2.0-0.8-0.79-3.79,0,0,0,90,false,stim,false,0,274.70000000175787,1,1,0,62384,WMM1,297183,false,false,379,image-keyboard-response,46
true,2,1,1,1,true,z,false,true,0.0-2.0-0.8-0.80-3.80,0,0,0,90,false,stim,false,0,497.9250000033062,1,1,0,62384,WMM1,299190,false,false,382,image-keyboard-response,47
true,2,0,1,0,true,q,false,true,0.0-2.0-0.9-0.81-3.81,0,0,0,81,false,stim,false,2,780.2000000010594,1,0,2,62384,WMM1,301480,false,false,385,image-keyboard-response,48
true,3,0,3,2,false,d,false,false,0.0-2.0-0.9-0.82-3.82,1,0,0,81,true,stim,true,0,318.5349999985192,1,0,2,62384,WMM1,303306,false,false,388,image-keyboard-response,1
true,3,1,3,0,false,q,false,false,0.0-2.0-0.9-0.83-3.83,1,0,0,90,false,stim,true,1,617.8799999979674,1,0,1,62384,WMM1,305434,false,false,391,image-keyboard-response,2
true,3,0,3,2,false,d,false,false,0.0-2.0-0.9-0.84-3.84,1,0,0,81,false,stim,true,0,938.495000002149,1,0,2,62384,WMM1,307879,false,false,394,image-keyboard-response,3
true,3,1,3,1,true,z,false,true,0.0-2.0-0.9-0.85-3.85,1,0,0,90,false,stim,false,1,572.3399999988033,1,1,0,62384,WMM1,309957,false,false,397,image-keyboard-response,4
true,3,2,3,0,false,q,true,false,0.0-2.0-0.9-0.86-3.86,1,0,0,68,false,stim,false,1,519.9950000023819,1,0,1,62384,WMM1,311989,false,false,400,image-keyboard-response,5
true,3,1,3,1,true,z,false,true,0.0-2.0-0.9-0.87-3.87,1,0,0,90,false,stim,false,1,685.2250000010827,1,1,0,62384,WMM1,314186,false,false,403,image-keyboard-response,6
true,3,1,3,1,true,z,false,true,0.0-2.0-0.9-0.88-3.88,1,0,0,90,false,stim,false,1,525.4500000010012,1,1,0,62384,WMM1,316220,false,false,406,image-keyboard-response,7
true,3,1,3,0,false,q,false,false,0.0-2.0-0.9-0.89-3.89,1,0,0,90,false,stim,true,1,539.9149999939254,1,0,1,62384,WMM1,318267,false,false,409,image-keyboard-response,8
true,3,0,3,2,false,d,false,false,0.0-2.0-0.10-0.90-3.90,1,0,0,81,false,stim,true,0,1081.190000004426,1,0,2,62384,WMM1,320857,false,false,412,image-keyboard-response,9
true,3,1,3,1,true,z,false,true,0.0-2.0-0.10-0.91-3.91,1,0,0,90,false,stim,false,1,387.56999999895925,1,1,0,62384,WMM1,322750,false,false,415,image-keyboard-response,10
true,3,1,3,0,false,q,false,false,0.0-2.0-0.10-0.92-3.92,1,0,0,90,false,stim,true,1,1141.4150000055088,1,0,1,62384,WMM1,325405,false,false,418,image-keyboard-response,11
true,3,1,3,1,true,z,false,true,0.0-2.0-0.10-0.93-3.93,1,0,0,90,false,stim,false,1,542.0049999956973,1,1,0,62384,WMM1,327453,false,false,421,image-keyboard-response,12
true,3,2,3,2,true,d,false,true,0.0-2.0-0.10-0.94-3.94,1,0,0,68,false,stim,false,0,363.7899999957881,1,0,2,62384,WMM1,329324,false,false,424,image-keyboard-response,13
true,3,1,3,1,true,z,false,true,0.0-2.0-0.10-0.95-3.95,1,0,0,90,false,stim,false,1,789.3649999969057,1,1,0,62384,WMM1,331624,false,false,427,image-keyboard-response,14
true,3,2,3,2,true,d,false,false,0.0-2.0-0.10-0.96-3.96,1,0,0,68,false,stim,false,0,319.4800000055693,1,0,2,62384,WMM1,333455,false,true,430,image-keyboard-response,15
true,3,0,3,0,true,q,false,true,0.0-2.0-0.10-0.97-3.97,1,0,0,81,false,stim,false,1,523.3949999965262,1,0,1,62384,WMM1,335486,false,false,433,image-keyboard-response,16
true,3,0,3,0,true,q,false,true,0.0-2.0-0.10-0.98-3.98,1,0,0,81,false,stim,false,1,1382.1349999998347,1,0,1,62384,WMM1,338376,false,false,436,image-keyboard-response,17
true,3,0,3,0,true,q,false,true,0.0-2.0-0.11-0.99-3.99,1,0,0,81,false,stim,false,1,392.7149999944959,1,0,1,62384,WMM1,340278,false,false,439,image-keyboard-response,18
true,3,0,3,0,true,q,false,true,0.0-2.0-0.11-0.100-3.100,1,0,0,81,false,stim,false,1,316.370000000461,1,0,1,62384,WMM1,342106,false,false,442,image-keyboard-response,19
true,3,1,3,1,true,z,false,true,0.0-2.0-0.11-0.101-3.101,1,0,0,90,false,stim,false,1,579.409999998461,1,1,0,62384,WMM1,344197,false,false,445,image-keyboard-response,20
true,3,0,3,0,true,q,false,true,0.0-2.0-0.11-0.102-3.102,1,0,0,81,false,stim,false,1,526.3500000000931,1,0,1,62384,WMM1,346232,false,false,448,image-keyboard-response,21
true,3,1,3,1,true,z,false,true,0.0-2.0-0.11-0.103-3.103,1,0,0,90,false,stim,false,1,337.8949999969336,1,0,0,62384,WMM1,348077,false,false,451,image-keyboard-response,22
true,3,0,3,2,false,d,false,false,0.0-2.0-0.11-0.104-3.104,1,0,0,81,false,stim,true,0,196.45499999751337,1,0,2,62384,WMM1,349782,false,false,454,image-keyboard-response,23
true,3,2,3,2,true,d,false,true,0.0-2.0-0.11-0.105-3.105,1,0,0,68,false,stim,false,0,332.0549999989453,1,0,2,62384,WMM1,351624,false,false,457,image-keyboard-response,24
true,3,1,3,1,true,z,false,true,0.0-2.0-0.11-0.106-3.106,1,0,0,90,false,stim,false,1,497.86999999923864,1,0,0,62384,WMM1,353630,false,false,460,image-keyboard-response,25
true,3,2,3,2,true,d,false,true,0.0-2.0-0.11-0.107-3.107,1,0,0,68,false,stim,false,0,415.9399999989546,1,0,2,62384,WMM1,355557,false,false,463,image-keyboard-response,26
true,3,1,3,1,true,z,false,true,0.0-2.0-0.12-0.108-3.108,1,0,0,90,false,stim,false,1,783.6699999970733,1,0,0,62384,WMM1,357852,false,false,466,image-keyboard-response,27
true,3,2,3,2,true,d,false,false,0.0-2.0-0.12-0.109-3.109,1,0,0,68,false,stim,false,0,322.1200000043609,1,0,2,62384,WMM1,359684,false,true,469,image-keyboard-response,28
true,3,1,3,1,true,z,false,true,0.0-2.0-0.12-0.110-3.110,1,0,0,90,false,stim,false,1,318.67500000225846,1,0,0,62384,WMM1,361515,false,false,472,image-keyboard-response,29
true,3,2,3,2,true,d,false,true,0.0-2.0-0.12-0.111-3.111,1,0,0,68,false,stim,false,0,508.30999999743653,1,0,2,62384,WMM1,363533,false,false,475,image-keyboard-response,30
true,4,2,1,0,false,q,false,false,0.0-2.0-0.12-0.112-3.112,0,0,0,68,true,stim,true,2,593.2500000053551,1,0,2,62384,WMM1,365638,false,false,478,image-keyboard-response,1
true,4,0,1,1,false,z,false,false,0.0-2.0-0.12-0.113-3.113,0,0,0,81,false,stim,true,0,664.9199999956181,1,0,1,62384,WMM1,367811,false,false,481,image-keyboard-response,2
true,4,1,1,1,true,z,false,true,0.0-2.0-0.12-0.114-3.114,0,0,0,90,false,stim,false,0,616.4500000013504,1,0,1,62384,WMM1,369934,false,false,484,image-keyboard-response,3
true,4,1,1,1,true,z,false,true,0.0-2.0-0.12-0.115-3.115,0,0,0,90,false,stim,false,0,340.78500000032363,1,0,1,62384,WMM1,371782,false,false,487,image-keyboard-response,4
true,4,1,1,0,false,q,false,false,0.0-2.0-0.12-0.116-3.116,0,0,0,90,false,stim,true,1,442.88999999844236,1,0,0,62384,WMM1,373737,false,false,490,image-keyboard-response,5
true,4,0,1,0,true,q,false,true,0.0-2.0-0.13-0.117-3.117,0,0,0,81,false,stim,false,1,413.56500000256347,1,0,0,62384,WMM1,375664,false,false,493,image-keyboard-response,6
true,4,1,1,1,true,z,false,true,0.0-2.0-0.13-0.118-3.118,0,0,0,90,false,stim,false,0,548.8150000019232,1,0,1,62384,WMM1,377721,false,false,496,image-keyboard-response,7
true,4,2,1,0,false,q,false,true,0.0-2.0-0.13-0.119-3.119,0,0,0,68,false,stim,true,2,461.5899999989779,1,0,2,62384,WMM1,379688,false,true,499,image-keyboard-response,8
true,4,2,1,0,false,q,false,false,0.0-2.0-0.13-0.120-3.120,0,0,0,68,false,stim,true,2,868.4399999983725,1,0,2,62384,WMM1,382070,false,false,502,image-keyboard-response,9
true,4,1,1,1,true,z,false,true,0.0-2.0-0.13-0.121-3.121,0,0,0,90,false,stim,false,0,509.4199999948614,1,0,1,62384,WMM1,384090,false,false,505,image-keyboard-response,10
true,4,1,1,1,true,z,false,true,0.0-2.0-0.13-0.122-3.122,0,0,0,90,false,stim,false,0,519.0549999970244,1,0,1,62384,WMM1,386114,false,false,508,image-keyboard-response,11
true,4,2,1,0,false,q,false,false,0.0-2.0-0.13-0.123-3.123,0,0,0,68,false,stim,true,2,733.3549999966635,1,0,2,62384,WMM1,388359,false,false,511,image-keyboard-response,12
true,4,0,1,0,true,q,false,true,0.0-2.0-0.13-0.124-3.124,0,0,0,81,false,stim,false,1,667.939999999362,1,0,0,62384,WMM1,390536,false,false,514,image-keyboard-response,13
true,4,0,1,0,true,q,false,true,0.0-2.0-0.13-0.125-3.125,0,0,0,81,false,stim,false,1,348.65999999601627,1,0,0,62384,WMM1,392393,false,false,517,image-keyboard-response,14
true,4,0,1,0,true,q,false,true,0.0-2.0-0.14-0.126-3.126,0,0,0,81,false,stim,false,1,316.7600000015227,1,0,0,62384,WMM1,394219,false,false,520,image-keyboard-response,15
true,4,0,1,0,true,q,false,true,0.0-2.0-0.14-0.127-3.127,0,0,0,81,false,stim,false,1,432.7899999989313,1,0,0,62384,WMM1,396164,false,false,523,image-keyboard-response,16
true,4,0,1,0,true,q,false,true,0.0-2.0-0.14-0.128-3.128,0,0,0,81,false,stim,false,1,378.485000001092,1,0,0,62384,WMM1,398054,false,false,526,image-keyboard-response,17
true,4,2,1,1,false,z,true,false,0.0-2.0-0.14-0.129-3.129,0,0,0,68,false,stim,false,0,967.1450000023469,1,0,1,62384,WMM1,400530,false,false,529,image-keyboard-response,18
true,4,2,1,0,false,q,false,true,0.0-2.0-0.14-0.130-3.130,0,0,0,68,false,stim,true,2,650.5100000067614,1,0,2,62384,WMM1,402692,false,true,532,image-keyboard-response,19
true,4,1,1,1,true,z,false,true,0.0-2.0-0.14-0.131-3.131,0,0,0,90,false,stim,false,0,726.7050000009476,1,0,1,62384,WMM1,404927,false,false,535,image-keyboard-response,20
true,4,1,1,1,true,z,false,true,0.0-2.0-0.14-0.132-3.132,0,0,0,90,false,stim,false,0,417.88999999698717,1,0,1,62384,WMM1,406853,false,false,538,image-keyboard-response,21
true,4,2,1,0,false,q,false,false,0.0-2.0-0.14-0.133-3.133,0,0,0,68,false,stim,true,2,575.8350000032806,1,0,2,62384,WMM1,408940,false,false,541,image-keyboard-response,22
true,4,1,1,0,false,q,true,false,0.0-2.0-0.14-0.134-3.134,0,0,0,90,false,stim,false,2,511.95000000006985,1,0,2,62384,WMM1,410959,false,false,544,image-keyboard-response,23
true,4,2,1,0,false,q,false,false,0.0-2.0-0.15-0.135-3.135,0,0,0,68,false,stim,true,2,441.8500000028871,1,0,2,62384,WMM1,412910,false,false,547,image-keyboard-response,24
true,4,0,1,0,true,q,false,true,0.0-2.0-0.15-0.136-3.136,0,0,0,81,false,stim,false,2,461.73999999882653,1,0,2,62384,WMM1,414885,false,false,550,image-keyboard-response,25
true,4,0,1,0,true,q,false,true,0.0-2.0-0.15-0.137-3.137,0,0,0,81,false,stim,false,2,359.54999999376014,1,0,2,62384,WMM1,416757,false,false,553,image-keyboard-response,26
true,4,1,1,1,true,z,false,true,0.0-2.0-0.15-0.138-3.138,0,0,0,90,false,stim,false,0,949.575000006007,1,0,1,62384,WMM1,419216,false,false,556,image-keyboard-response,27
true,4,1,1,1,true,z,false,true,0.0-2.0-0.15-0.139-3.139,0,0,0,90,false,stim,false,0,826.7299999934039,1,0,1,62384,WMM1,421554,false,false,559,image-keyboard-response,28
true,4,2,1,0,false,q,true,false,0.0-2.0-0.15-0.140-3.140,0,0,0,68,false,stim,false,1,1307.265000003099,1,0,0,62384,WMM1,424369,false,false,562,image-keyboard-response,29
true,4,1,1,0,false,q,false,false,0.0-2.0-0.15-0.141-3.141,0,0,0,90,false,stim,true,1,478.5249999986263,1,0,0,62384,WMM1,426356,false,false,565,image-keyboard-response,30
true,4,0,1,0,true,q,false,true,0.0-2.0-0.15-0.142-3.142,0,0,0,81,false,stim,false,1,335.45500000036554,1,0,0,62384,WMM1,428204,false,false,568,image-keyboard-response,31
true,4,1,1,1,true,z,false,true,0.0-2.0-0.15-0.143-3.143,0,0,0,90,false,stim,false,0,806.3049999982468,1,0,1,62384,WMM1,430519,false,false,571,image-keyboard-response,32
true,4,0,1,0,true,q,false,true,0.0-2.0-0.16-0.144-3.144,0,0,0,81,false,stim,false,1,589.1399999964051,1,0,0,62384,WMM1,432620,false,false,574,image-keyboard-response,33
true,4,1,1,1,true,z,false,true,0.0-2.0-0.16-0.145-3.145,0,0,0,90,false,stim,false,0,618.5850000038045,1,0,1,62384,WMM1,434745,false,false,577,image-keyboard-response,34
true,4,0,1,0,true,q,false,true,0.0-2.0-0.16-0.146-3.146,0,0,0,81,false,stim,false,2,542.5250000043889,1,0,2,62384,WMM1,436799,false,false,580,image-keyboard-response,35
true,4,0,1,0,true,q,false,true,0.0-2.0-0.16-0.147-3.147,0,0,0,81,false,stim,false,2,444.934999999532,1,0,2,62384,WMM1,438751,false,false,583,image-keyboard-response,36
true,4,1,1,1,true,z,false,true,0.0-2.0-0.16-0.148-3.148,0,0,0,90,false,stim,false,0,754.2150000008405,1,0,1,62384,WMM1,441016,false,false,586,image-keyboard-response,37
true,4,1,1,1,true,z,false,true,0.0-2.0-0.16-0.149-3.149,0,0,0,90,false,stim,false,0,388.3750000022701,1,0,1,62384,WMM1,442915,false,false,589,image-keyboard-response,38
true,5,0,2,2,false,d,false,false,0.0-2.0-0.16-0.150-3.150,0,0,0,81,true,stim,true,0,752.3650000002817,1,0,2,62384,WMM1,445177,false,false,592,image-keyboard-response,1
true,5,2,2,1,false,z,true,false,0.0-2.0-0.16-0.151-3.151,0,0,0,68,false,stim,false,0,321.4499999958207,1,0,0,62384,WMM1,447010,false,false,595,image-keyboard-response,2
true,5,0,2,1,false,z,false,false,0.0-2.0-0.16-0.152-3.152,0,0,0,81,false,stim,true,0,317.81000000046333,1,0,0,62384,WMM1,448841,false,false,598,image-keyboard-response,3
true,5,1,2,2,false,d,true,false,0.0-2.0-0.17-0.153-3.153,0,0,0,90,false,stim,false,0,792.0749999975669,1,0,2,62384,WMM1,451146,false,false,601,image-keyboard-response,4
true,5,0,2,2,false,d,false,false,0.0-2.0-0.17-0.154-3.154,0,0,0,81,false,stim,true,0,775.340000000142,1,0,2,62384,WMM1,453432,false,false,604,image-keyboard-response,5
true,5,1,2,1,true,z,false,true,0.0-2.0-0.17-0.155-3.155,0,0,0,90,false,stim,false,0,500.01000000338536,1,0,0,62384,WMM1,455440,false,false,607,image-keyboard-response,6
true,5,1,2,0,false,q,false,false,0.0-2.0-0.17-0.156-3.156,0,0,0,90,false,stim,true,1,399.61500000208616,1,0,1,62384,WMM1,457346,false,false,610,image-keyboard-response,7
true,5,1,2,1,true,z,false,true,0.0-2.0-0.17-0.157-3.157,0,0,0,90,false,stim,false,0,731.2300000048708,1,0,0,62384,WMM1,459587,false,false,613,image-keyboard-response,8
true,5,2,2,0,false,q,true,false,0.0-2.0-0.17-0.158-3.158,0,0,0,68,false,stim,false,1,494.0800000040326,1,0,1,62384,WMM1,461591,false,false,616,image-keyboard-response,9
true,5,1,2,0,false,q,false,false,0.0-2.0-0.17-0.159-3.159,0,0,0,90,false,stim,true,1,406.53000000020256,1,0,1,62384,WMM1,463506,false,false,619,image-keyboard-response,10
true,5,2,2,2,true,d,false,true,0.0-2.0-0.17-0.160-3.160,0,0,0,68,false,stim,false,0,954.0449999985867,1,0,2,62384,WMM1,465970,false,false,622,image-keyboard-response,11
true,5,1,2,1,true,z,false,true,0.0-2.0-0.17-0.161-3.161,0,0,0,90,false,stim,false,0,657.8900000022259,1,0,0,62384,WMM1,468135,false,false,625,image-keyboard-response,12
true,5,1,2,1,true,z,false,true,0.0-2.0-0.18-0.162-3.162,0,0,0,90,false,stim,false,0,739.3700000029639,1,0,0,62384,WMM1,470381,false,false,628,image-keyboard-response,13
true,5,1,2,1,true,z,false,true,0.0-2.0-0.18-0.163-3.163,0,0,0,90,false,stim,false,0,415.91499999776715,1,0,0,62384,WMM1,472305,false,false,631,image-keyboard-response,14
true,5,1,2,1,true,z,false,true,0.0-2.0-0.18-0.164-3.164,0,0,0,90,false,stim,false,0,360.675000003539,1,0,0,62384,WMM1,474177,false,false,634,image-keyboard-response,15
true,5,0,2,0,true,q,false,true,0.0-2.0-0.18-0.165-3.165,0,0,0,81,false,stim,false,1,865.8749999958673,1,0,1,62384,WMM1,476551,false,false,637,image-keyboard-response,16
true,5,0,2,0,true,q,false,true,0.0-2.0-0.18-0.166-3.166,0,0,0,81,false,stim,false,1,327.92999999946915,1,0,1,62384,WMM1,478388,false,false,640,image-keyboard-response,17
true,5,2,2,2,true,d,false,true,0.0-2.0-0.18-0.167-3.167,0,0,0,68,false,stim,false,0,416.5149999971618,1,0,2,62384,WMM1,480310,false,false,643,image-keyboard-response,18
true,5,0,2,0,true,q,false,true,0.0-2.0-0.18-0.168-3.168,0,0,0,81,false,stim,false,1,501.1000000013155,1,0,1,62384,WMM1,482316,false,false,646,image-keyboard-response,19
true,5,2,2,2,true,d,false,true,0.0-2.0-0.18-0.169-3.169,0,0,0,68,false,stim,false,0,456.83999999891967,1,0,2,62384,WMM1,484281,false,false,649,image-keyboard-response,20
true,5,2,2,2,true,d,false,true,0.0-2.0-0.18-0.170-3.170,0,0,0,68,false,stim,false,0,442.5150000024587,1,0,2,62384,WMM1,486234,false,false,652,image-keyboard-response,21
true,5,1,2,1,true,z,false,true,0.0-2.0-0.19-0.171-3.171,0,0,0,90,false,stim,false,0,421.3499999968917,1,0,0,62384,WMM1,488164,false,false,655,image-keyboard-response,22
true,5,2,2,2,true,d,false,false,0.0-2.0-0.19-0.172-3.172,0,0,0,68,false,stim,false,0,500.5749999982072,1,0,2,62384,WMM1,490176,false,true,658,image-keyboard-response,23
true,5,0,2,0,true,q,false,true,0.0-2.0-0.19-0.173-3.173,0,0,0,81,false,stim,false,1,650.180000004184,1,0,1,62384,WMM1,492334,false,false,661,image-keyboard-response,24
true,5,1,2,1,true,z,false,false,0.0-2.0-0.19-0.174-3.174,0,0,0,90,false,stim,false,0,562.0699999999488,1,0,0,62384,WMM1,494406,false,true,664,image-keyboard-response,25
true,5,0,2,2,false,d,false,false,0.0-2.0-0.19-0.175-3.175,0,0,0,81,false,stim,true,0,751.1250000025029,1,0,2,62384,WMM1,496667,false,false,667,image-keyboard-response,26
true,5,0,2,0,true,q,false,true,0.0-2.0-0.19-0.176-3.176,0,0,0,81,false,stim,false,1,806.4849999936996,1,0,1,62384,WMM1,498981,false,false,670,image-keyboard-response,27
true,5,2,2,2,true,d,false,true,0.0-2.0-0.19-0.177-3.177,0,0,0,68,false,stim,false,0,392.0849999994971,1,0,2,62384,WMM1,500883,false,false,673,image-keyboard-response,28
true,5,1,2,1,true,z,false,true,0.0-2.0-0.19-0.178-3.178,0,0,0,90,false,stim,false,0,321.62999999854947,1,0,0,62384,WMM1,502717,false,false,676,image-keyboard-response,29
true,5,0,2,0,true,q,false,true,0.0-2.0-0.19-0.179-3.179,0,0,0,81,false,stim,false,1,579.875000003085,1,0,1,62384,WMM1,504810,false,false,679,image-keyboard-response,30
true,6,2,4,1,false,z,false,false,0.0-2.0-0.20-0.180-3.180,0,0,0,68,true,stim,true,2,497.0150000008289,1,0,2,62384,WMM1,506816,false,false,682,image-keyboard-response,1
true,6,1,4,2,false,d,true,false,0.0-2.0-0.20-0.181-3.181,0,0,0,90,false,stim,false,0,280.6600000039907,1,0,1,62384,WMM1,508608,false,false,685,image-keyboard-response,2
true,6,2,4,1,false,z,false,false,0.0-2.0-0.20-0.182-3.182,0,0,0,68,false,stim,true,2,558.9049999980489,1,0,2,62384,WMM1,510672,false,false,688,image-keyboard-response,3
true,6,1,4,2,false,d,false,false,0.0-2.0-0.20-0.183-3.183,0,0,0,90,false,stim,true,1,633.0049999960465,1,0,0,62384,WMM1,512815,false,false,691,image-keyboard-response,4
true,6,0,4,2,false,d,true,false,0.0-2.0-0.20-0.184-3.184,0,0,0,81,false,stim,false,1,611.4349999988917,1,0,0,62384,WMM1,514936,false,false,694,image-keyboard-response,5
true,6,0,4,1,false,z,true,true,0.0-2.0-0.20-0.185-3.185,0,0,0,81,false,stim,false,2,949.5149999929708,1,0,2,62384,WMM1,517393,false,true,697,image-keyboard-response,6
true,6,0,4,2,false,d,false,false,0.0-2.0-0.20-0.186-3.186,0,0,0,81,false,stim,true,0,475.51499999826774,1,0,1,62384,WMM1,519377,false,false,700,image-keyboard-response,7
true,6,2,4,2,true,d,false,true,0.0-2.0-0.20-0.187-3.187,0,0,0,68,false,stim,false,1,857.6849999953993,1,0,0,62384,WMM1,521748,false,false,703,image-keyboard-response,8
true,6,1,4,2,false,d,true,false,0.0-2.0-0.20-0.188-3.188,0,0,0,90,false,stim,false,0,1098.4349999999395,1,0,1,62384,WMM1,524357,false,false,706,image-keyboard-response,9
true,6,0,4,1,false,z,true,false,0.0-2.0-0.21-0.189-3.189,0,0,0,81,false,stim,false,2,756.5400000021327,1,0,2,62384,WMM1,526622,false,false,709,image-keyboard-response,10
true,6,2,4,2,true,d,false,true,0.0-2.0-0.21-0.190-3.190,0,0,0,68,false,stim,false,1,495.53000000014435,1,0,0,62384,WMM1,528625,false,false,712,image-keyboard-response,11
true,6,2,4,2,true,d,false,true,0.0-2.0-0.21-0.191-3.191,0,0,0,68,false,stim,false,1,528.859999998589,1,0,0,62384,WMM1,530666,false,false,715,image-keyboard-response,12
true,6,1,4,1,true,z,false,true,0.0-2.0-0.21-0.192-3.192,0,0,0,90,false,stim,false,2,942.9649999947287,1,0,2,62384,WMM1,533119,false,false,718,image-keyboard-response,13
true,6,0,4,2,false,d,false,false,0.0-2.0-0.21-0.193-3.193,0,0,0,81,false,stim,true,0,1081.995000000461,1,0,1,62384,WMM1,535708,false,false,721,image-keyboard-response,14
true,6,2,4,2,true,d,false,true,0.0-2.0-0.21-0.194-3.194,0,0,0,68,false,stim,false,1,511.9349999949336,1,0,0,62384,WMM1,537726,false,false,724,image-keyboard-response,15
true,6,2,4,2,true,d,false,true,0.0-2.0-0.21-0.195-3.195,0,0,0,68,false,stim,false,0,699.8050000038929,1,0,1,62384,WMM1,539934,false,false,727,image-keyboard-response,16
true,6,2,4,2,true,d,false,true,0.0-2.0-0.21-0.196-3.196,0,0,0,68,false,stim,false,0,500.9899999932386,1,0,1,62384,WMM1,541942,false,false,730,image-keyboard-response,17
true,6,2,4,1,false,z,false,false,0.0-2.0-0.21-0.197-3.197,0,0,0,68,false,stim,true,2,773.3000000007451,1,0,2,62384,WMM1,544222,false,false,733,image-keyboard-response,18
true,6,2,4,2,true,d,false,false,0.0-2.0-0.22-0.198-3.198,0,0,0,68,false,stim,false,0,713.3150000008754,1,0,1,62384,WMM1,546444,false,true,736,image-keyboard-response,19
true,6,1,4,1,true,z,false,true,0.0-2.0-0.22-0.199-3.199,0,0,0,90,false,stim,false,2,937.1449999961769,1,0,2,62384,WMM1,548891,false,false,739,image-keyboard-response,20
true,6,2,4,2,true,d,false,true,0.0-2.0-0.22-0.200-3.200,0,0,0,68,false,stim,false,1,780.0850000057835,1,0,0,62384,WMM1,551183,false,false,742,image-keyboard-response,21
true,6,2,4,2,true,d,false,true,0.0-2.0-0.22-0.201-3.201,0,0,0,68,false,stim,false,1,441.93000000086613,1,0,0,62384,WMM1,553133,false,false,745,image-keyboard-response,22
true,6,0,4,2,false,d,false,false,0.0-2.0-0.22-0.202-3.202,0,0,0,81,false,stim,true,0,1568.794999999227,1,0,1,62384,WMM1,556215,false,false,748,image-keyboard-response,23
true,6,2,4,2,true,d,false,true,0.0-2.0-0.22-0.203-3.203,0,0,0,68,false,stim,false,0,362.9450000007637,1,0,1,62384,WMM1,558086,false,false,751,image-keyboard-response,24
true,6,1,4,1,true,z,false,false,0.0-2.0-0.22-0.204-3.204,0,0,0,90,false,stim,false,2,574.3849999998929,1,0,2,62384,WMM1,560173,false,true,754,image-keyboard-response,25
true,6,2,4,2,true,d,false,true,0.0-2.0-0.22-0.205-3.205,0,0,0,68,false,stim,false,1,498.31499999715015,1,0,0,62384,WMM1,562181,false,false,757,image-keyboard-response,26
true,6,0,4,1,false,z,true,true,0.0-2.0-0.22-0.206-3.206,0,0,0,81,false,stim,false,2,991.9999999983702,1,0,2,62384,WMM1,564684,false,true,760,image-keyboard-response,27
true,6,2,4,2,true,d,false,true,0.0-2.0-0.23-0.207-3.207,0,0,0,68,false,stim,false,1,600.0199999979232,1,0,0,62384,WMM1,566794,false,false,763,image-keyboard-response,28
true,6,0,4,1,false,z,true,false,0.0-2.0-0.23-0.208-3.208,0,0,0,81,false,stim,false,2,851.9099999975879,1,0,2,62384,WMM1,569153,false,false,766,image-keyboard-response,29
true,6,1,4,1,true,z,false,true,0.0-2.0-0.23-0.209-3.209,0,0,0,90,false,stim,false,2,671.8800000017509,1,0,2,62384,WMM1,571336,false,false,769,image-keyboard-response,30
true,6,2,4,2,true,d,false,true,0.0-2.0-0.23-0.210-3.210,0,0,0,68,false,stim,false,1,477.47000000521075,1,0,0,62384,WMM1,573324,false,false,772,image-keyboard-response,31
true,6,2,4,2,true,d,false,true,0.0-2.0-0.23-0.211-3.211,0,0,0,68,false,stim,false,1,492.7400000015041,1,0,0,62384,WMM1,575330,false,false,775,image-keyboard-response,32
true,6,2,4,2,true,d,false,true,0.0-2.0-0.23-0.212-3.212,0,0,0,68,false,stim,false,0,718.6199999996461,1,0,1,62384,WMM1,577559,false,false,778,image-keyboard-response,33
true,6,2,4,2,true,d,false,true,0.0-2.0-0.23-0.213-3.213,0,0,0,68,false,stim,false,0,392.9800000041723,1,0,1,62384,WMM1,579463,false,false,781,image-keyboard-response,34
true,6,1,4,1,true,z,false,true,0.0-2.0-0.23-0.214-3.214,0,0,0,90,false,stim,false,2,578.0400000002701,1,0,2,62384,WMM1,581552,false,false,784,image-keyboard-response,35
true,6,2,4,2,true,d,false,true,0.0-2.0-0.23-0.215-3.215,0,0,0,68,false,stim,false,0,642.885000001057,1,0,1,62384,WMM1,583702,false,false,787,image-keyboard-response,36
true,6,1,4,1,true,z,false,true,0.0-2.0-0.24-0.216-3.216,0,0,0,90,false,stim,false,2,557.8950000053737,1,0,2,62384,WMM1,585769,false,false,790,image-keyboard-response,37
true,6,1,4,1,true,z,false,true,0.0-2.0-0.24-0.217-3.217,0,0,0,90,false,stim,false,2,1039.3550000007963,1,0,2,62384,WMM1,588318,false,false,793,image-keyboard-response,38
true,6,1,4,1,true,z,false,true,0.0-2.0-0.24-0.218-3.218,0,0,0,90,false,stim,false,2,919.7449999991804,1,0,2,62384,WMM1,590746,false,false,796,image-keyboard-response,39
true,6,2,4,2,true,d,false,true,0.0-2.0-0.24-0.219-3.219,0,0,0,68,false,stim,false,1,802.6600000011967,1,0,0,62384,WMM1,593056,false,false,799,image-keyboard-response,40
true,6,2,4,2,true,d,false,true,0.0-2.0-0.24-0.220-3.220,0,0,0,68,false,stim,false,0,651.3099999937695,1,0,1,62384,WMM1,595221,false,false,802,image-keyboard-response,41
true,6,2,4,2,true,d,false,true,0.0-2.0-0.24-0.221-3.221,0,0,0,68,false,stim,false,1,842.08000000217,1,0,0,62384,WMM1,597571,false,false,805,image-keyboard-response,42
true,6,2,4,2,true,d,false,false,0.0-2.0-0.24-0.222-3.222,0,0,0,68,false,stim,false,0,578.800000002957,1,0,1,62384,WMM1,599660,false,true,808,image-keyboard-response,43
true,6,1,4,2,false,d,true,false,0.0-2.0-0.24-0.223-3.223,0,0,0,90,false,stim,false,0,512.3200000015786,1,0,1,62384,WMM1,601682,false,false,811,image-keyboard-response,44
true,6,2,4,2,true,d,false,false,0.0-2.0-0.24-0.224-3.224,0,0,0,68,false,stim,false,1,591.1049999995157,1,0,0,62384,WMM1,603782,false,true,814,image-keyboard-response,45
true,7,0,2,0,true,q,false,true,0.0-2.0-0.25-0.225-3.225,0,0,0,81,true,stim,false,2,405.4800000011455,1,0,1,62384,WMM1,605697,false,false,817,image-keyboard-response,1
true,7,2,2,2,true,d,false,true,0.0-2.0-0.25-0.226-3.226,0,0,0,68,false,stim,false,1,961.4250000014435,1,0,2,62384,WMM1,608169,false,false,820,image-keyboard-response,2
true,7,1,2,1,true,z,false,true,0.0-2.0-0.25-0.227-3.227,0,0,0,90,false,stim,false,2,312.12000000244007,1,0,0,62384,WMM1,609992,false,false,823,image-keyboard-response,3
true,7,0,2,0,true,q,false,true,0.0-2.0-0.25-0.228-3.228,0,0,0,81,false,stim,false,2,423.34999999729916,1,0,1,62384,WMM1,611927,false,false,826,image-keyboard-response,4
true,7,2,2,2,true,d,false,false,0.0-2.0-0.25-0.229-3.229,0,0,0,68,false,stim,false,1,356.9400000051828,1,0,2,62384,WMM1,613790,false,true,829,image-keyboard-response,5
true,7,1,2,2,false,d,false,false,0.0-2.0-0.25-0.230-3.230,0,0,0,90,false,stim,true,1,931.6800000015646,1,0,2,62384,WMM1,616231,false,false,832,image-keyboard-response,6
true,7,0,2,0,true,q,false,true,0.0-2.0-0.25-0.231-3.231,0,0,0,81,false,stim,false,2,1014.035000000149,1,0,1,62384,WMM1,618751,false,false,835,image-keyboard-response,7
true,7,1,2,1,true,z,false,true,0.0-2.0-0.25-0.232-3.232,0,0,0,90,false,stim,false,2,431.3850000035018,1,0,0,62384,WMM1,620694,false,false,838,image-keyboard-response,8
true,7,1,2,1,true,z,false,true,0.0-2.0-0.25-0.233-3.233,0,0,0,90,false,stim,false,2,521.6100000033621,1,0,0,62384,WMM1,622724,false,false,841,image-keyboard-response,9
true,7,2,2,2,true,d,false,true,0.0-2.0-0.26-0.234-3.234,0,0,0,68,false,stim,false,1,582.3249999957625,1,0,2,62384,WMM1,624816,false,false,844,image-keyboard-response,10
true,7,2,2,2,true,d,false,true,0.0-2.0-0.26-0.235-3.235,0,0,0,68,false,stim,false,1,442.1999999976251,1,0,2,62384,WMM1,626766,false,false,847,image-keyboard-response,11
true,7,1,2,1,true,z,false,true,0.0-2.0-0.26-0.236-3.236,0,0,0,90,false,stim,false,2,552.1650000009686,1,0,0,62384,WMM1,628826,false,false,850,image-keyboard-response,12
true,7,2,2,2,true,d,false,true,0.0-2.0-0.26-0.237-3.237,0,0,0,68,false,stim,false,1,620.7300000023097,1,0,2,62384,WMM1,630956,false,false,853,image-keyboard-response,13
true,7,0,2,0,true,q,false,true,0.0-2.0-0.26-0.238-3.238,0,0,0,81,false,stim,false,2,660.730000003241,1,0,1,62384,WMM1,633126,false,false,856,image-keyboard-response,14
true,7,1,2,1,true,z,false,true,0.0-2.0-0.26-0.239-3.239,0,0,0,90,false,stim,false,2,573.050000006333,1,0,0,62384,WMM1,635210,false,false,859,image-keyboard-response,15
true,7,2,2,0,false,q,false,false,0.0-2.0-0.26-0.240-3.240,0,0,0,68,false,stim,true,2,795.9249999985332,1,0,1,62384,WMM1,637517,false,false,862,image-keyboard-response,16
true,7,1,2,1,true,z,false,true,0.0-2.0-0.26-0.241-3.241,0,0,0,90,false,stim,false,2,494.42000000271946,1,0,0,62384,WMM1,639520,false,false,865,image-keyboard-response,17
true,7,0,2,0,true,q,false,true,0.0-2.0-0.26-0.242-3.242,0,0,0,81,false,stim,false,2,391.9099999984028,1,0,1,62384,WMM1,641420,false,false,868,image-keyboard-response,18
true,7,2,2,2,true,d,false,true,0.0-2.0-0.27-0.243-3.243,0,0,0,68,false,stim,false,1,497.11499999824446,1,0,2,62384,WMM1,643429,false,false,871,image-keyboard-response,19
true,7,0,2,0,true,q,false,true,0.0-2.0-0.27-0.244-3.244,0,0,0,81,false,stim,false,2,1478.255000001751,1,0,1,62384,WMM1,646419,false,false,874,image-keyboard-response,20
true,7,1,2,1,true,z,false,true,0.0-2.0-0.27-0.245-3.245,0,0,0,90,false,stim,false,2,517.6199999987148,1,1,0,62384,WMM1,648448,false,false,877,image-keyboard-response,21
true,7,0,2,0,true,q,false,true,0.0-2.0-0.27-0.246-3.246,0,0,0,81,false,stim,false,2,572.2999999998137,1,0,1,62384,WMM1,650531,false,false,880,image-keyboard-response,22
true,7,1,2,1,true,z,false,true,0.0-2.0-0.27-0.247-3.247,0,0,0,90,false,stim,false,2,404.08999999635853,1,1,0,62384,WMM1,652442,false,false,883,image-keyboard-response,23
true,7,2,2,0,false,q,false,false,0.0-2.0-0.27-0.248-3.248,0,0,0,68,false,stim,true,2,239.75500000233296,1,0,1,62384,WMM1,654196,false,false,886,image-keyboard-response,24
true,7,2,2,2,true,d,false,true,0.0-2.0-0.27-0.249-3.249,0,0,0,68,false,stim,false,1,526.2650000003632,1,0,2,62384,WMM1,656232,false,false,889,image-keyboard-response,25
true,7,2,2,2,true,d,false,true,0.0-2.0-0.27-0.250-3.250,0,0,0,68,false,stim,false,1,539.3049999985378,1,0,2,62384,WMM1,658281,false,false,892,image-keyboard-response,26
true,7,1,2,1,true,z,false,true,0.0-2.0-0.27-0.251-3.251,0,0,0,90,false,stim,false,2,541.4500000042608,1,1,0,62384,WMM1,660332,false,false,895,image-keyboard-response,27
true,7,0,2,0,true,q,false,true,0.0-2.0-0.28-0.252-3.252,0,0,0,81,false,stim,false,2,770.5199999982724,1,0,1,62384,WMM1,662610,false,false,898,image-keyboard-response,28
true,7,2,2,2,true,d,false,true,0.0-2.0-0.28-0.253-3.253,0,0,0,68,false,stim,false,1,509.6899999990128,1,0,2,62384,WMM1,664634,false,false,901,image-keyboard-response,29
true,7,2,2,2,true,d,false,true,0.0-2.0-0.28-0.254-3.254,0,0,0,68,false,stim,false,1,896.9750000033528,1,0,2,62384,WMM1,667038,false,false,904,image-keyboard-response,30
true,8,1,3,1,true,z,false,true,0.0-2.0-0.28-0.255-3.255,1,0,0,90,true,stim,false,1,519.5400000012014,1,1,0,62384,WMM1,669064,false,false,907,image-keyboard-response,1
true,8,0,3,2,false,d,false,false,0.0-2.0-0.28-0.256-3.256,1,0,0,81,false,stim,true,0,632.4850000018487,1,0,1,62384,WMM1,671203,false,false,910,image-keyboard-response,2
true,8,2,3,0,false,q,false,false,0.0-2.0-0.28-0.257-3.257,1,0,0,68,false,stim,true,2,761.3399999972899,1,0,2,62384,WMM1,673475,false,false,913,image-keyboard-response,3
true,8,1,3,1,true,z,false,false,0.0-2.0-0.28-0.258-3.258,1,0,0,90,false,stim,false,1,502.61000000312924,1,1,0,62384,WMM1,675485,false,true,916,image-keyboard-response,4
true,8,2,3,2,true,d,false,true,0.0-2.0-0.28-0.259-3.259,1,0,0,68,false,stim,false,0,685.9749999929918,1,0,1,62384,WMM1,677683,false,false,919,image-keyboard-response,5
true,8,1,3,1,true,z,false,false,0.0-2.0-0.28-0.260-3.260,1,0,0,90,false,stim,false,1,592.08000000217,1,1,0,62384,WMM1,679783,false,true,922,image-keyboard-response,6
true,8,2,3,1,false,z,true,false,0.0-2.0-0.29-0.261-3.261,1,0,0,68,false,stim,false,1,351.149999994901,1,1,0,62384,WMM1,681644,false,false,925,image-keyboard-response,7
true,8,0,3,0,true,q,false,true,0.0-2.0-0.29-0.262-3.262,1,0,0,81,false,stim,false,2,615.3649999978952,1,0,2,62384,WMM1,683766,false,false,928,image-keyboard-response,8
true,8,0,3,0,true,q,false,false,0.0-2.0-0.29-0.263-3.263,1,0,0,81,false,stim,false,2,1033.9949999980163,1,0,2,62384,WMM1,686310,false,true,931,image-keyboard-response,9
true,8,2,3,2,true,d,false,true,0.0-2.0-0.29-0.264-3.264,1,0,0,68,false,stim,false,0,558.7849999938626,1,0,1,62384,WMM1,688377,false,false,934,image-keyboard-response,10
true,8,2,3,0,false,q,false,false,0.0-2.0-0.29-0.265-3.265,1,0,0,68,false,stim,true,2,349.27500000060536,1,0,2,62384,WMM1,690233,false,false,937,image-keyboard-response,11
true,8,2,3,2,true,d,false,true,0.0-2.0-0.29-0.266-3.266,1,0,0,68,false,stim,false,0,555.3549999968382,1,0,1,62384,WMM1,692297,false,false,940,image-keyboard-response,12
true,8,1,3,2,false,d,true,false,0.0-2.0-0.29-0.267-3.267,1,0,0,90,false,stim,false,0,529.1600000055041,1,0,1,62384,WMM1,694338,false,false,943,image-keyboard-response,13
true,8,1,3,1,true,z,false,true,0.0-2.0-0.29-0.268-3.268,1,0,0,90,false,stim,false,1,652.3349999987986,1,1,0,62384,WMM1,696499,false,false,946,image-keyboard-response,14
true,8,1,3,1,true,z,false,true,0.0-2.0-0.29-0.269-3.269,1,0,0,90,false,stim,false,1,471.72499999578577,1,1,0,62384,WMM1,698478,false,false,949,image-keyboard-response,15
true,8,1,3,0,false,q,true,false,0.0-2.0-0.30-0.270-3.270,1,0,0,90,false,stim,false,2,1017.825000002631,1,0,2,62384,WMM1,701009,false,false,952,image-keyboard-response,16
true,8,1,3,0,false,q,true,false,0.0-2.0-0.30-0.271-3.271,1,0,0,90,false,stim,false,2,654.8550000006799,1,0,2,62384,WMM1,703170,false,false,955,image-keyboard-response,17
true,8,2,3,0,false,q,false,false,0.0-2.0-0.30-0.272-3.272,1,0,0,68,false,stim,true,2,370.5049999989569,1,0,2,62384,WMM1,705048,false,false,958,image-keyboard-response,18
true,8,1,3,1,true,z,false,true,0.0-2.0-0.30-0.273-3.273,1,0,0,90,false,stim,false,1,977.080000004149,1,1,0,62384,WMM1,707534,false,false,961,image-keyboard-response,19
true,8,1,3,1,true,z,false,true,0.0-2.0-0.30-0.274-3.274,1,0,0,90,false,stim,false,1,390.16499999701045,1,1,0,62384,WMM1,709432,false,false,964,image-keyboard-response,20
true,8,2,3,2,true,d,false,true,0.0-2.0-0.30-0.275-3.275,1,0,0,68,false,stim,false,0,853.269999999553,1,0,1,62384,WMM1,711799,false,false,967,image-keyboard-response,21
true,8,2,3,2,true,d,false,true,0.0-2.0-0.30-0.276-3.276,1,0,0,68,false,stim,false,0,425.77999999781605,1,0,1,62384,WMM1,713734,false,false,970,image-keyboard-response,22
true,8,1,3,1,true,z,false,true,0.0-2.0-0.30-0.277-3.277,1,0,0,90,false,stim,false,1,488.6899999983143,1,1,0,62384,WMM1,715736,false,false,973,image-keyboard-response,23
true,8,2,3,2,true,d,false,true,0.0-2.0-0.30-0.278-3.278,1,0,0,68,false,stim,false,0,491.5199999959441,1,0,1,62384,WMM1,717741,false,false,976,image-keyboard-response,24
true,8,2,3,2,true,d,false,true,0.0-2.0-0.31-0.279-3.279,1,0,0,68,false,stim,false,0,551.8149999988964,1,0,1,62384,WMM1,719805,false,false,979,image-keyboard-response,25
true,8,0,3,0,true,q,false,true,0.0-2.0-0.31-0.280-3.280,1,0,0,81,false,stim,false,2,917.1449999994365,1,0,2,62384,WMM1,722229,false,false,982,image-keyboard-response,26
true,8,0,3,0,true,q,false,false,0.0-2.0-0.31-0.281-3.281,1,0,0,81,false,stim,false,2,512.3349999993807,1,0,2,62384,WMM1,724252,false,true,985,image-keyboard-response,27
true,8,1,3,1,true,z,false,true,0.0-2.0-0.31-0.282-3.282,1,0,0,90,false,stim,false,1,799.4049999979325,1,0,0,62384,WMM1,726560,false,false,988,image-keyboard-response,28
true,8,0,3,0,true,q,false,true,0.0-2.0-0.31-0.283-3.283,1,0,0,81,false,stim,false,2,1148.8349999999627,1,1,2,62384,WMM1,729220,false,false,991,image-keyboard-response,29
true,8,2,3,2,true,d,false,true,0.0-2.0-0.31-0.284-3.284,1,0,0,68,false,stim,false,0,576.45500000217,1,0,1,62384,WMM1,731304,false,false,994,image-keyboard-response,30
true,8,1,3,1,true,z,false,true,0.0-2.0-0.31-0.285-3.285,1,0,0,90,false,stim,false,1,531.3099999984261,1,0,0,62384,WMM1,733345,false,false,997,image-keyboard-response,31
true,8,1,3,1,true,z,false,true,0.0-2.0-0.31-0.286-3.286,1,0,0,90,false,stim,false,1,480.3350000001956,1,0,0,62384,WMM1,735338,false,false,1000,image-keyboard-response,32
true,8,0,3,2,false,d,false,false,0.0-2.0-0.31-0.287-3.287,1,0,0,81,false,stim,true,0,623.1799999950454,1,0,1,62384,WMM1,737477,false,false,1003,image-keyboard-response,33
true,8,1,3,2,false,d,true,true,0.0-2.0-0.32-0.288-3.288,1,0,0,90,false,stim,false,0,1264.4900000013877,1,0,1,62384,WMM1,740255,false,true,1006,image-keyboard-response,34
true,8,1,3,1,true,z,false,true,0.0-2.0-0.32-0.289-3.289,1,0,0,90,false,stim,false,1,508.1750000026077,1,0,0,62384,WMM1,742273,false,false,1009,image-keyboard-response,35
true,8,1,3,2,false,d,true,false,0.0-2.0-0.32-0.290-3.290,1,0,0,90,false,stim,false,0,539.1100000052247,1,0,1,62384,WMM1,744324,false,false,1012,image-keyboard-response,36
true,8,2,3,0,false,q,false,false,0.0-2.0-0.32-0.291-3.291,1,0,0,68,false,stim,true,2,591.614999997546,1,1,2,62384,WMM1,746426,false,false,1015,image-keyboard-response,37
true,9,1,3,2,false,d,false,false,0.0-2.0-0.32-0.292-3.292,0,0,1,90,true,stim,true,1,696.909999998752,1,0,0,62384,WMM1,748633,false,false,1018,image-keyboard-response,1
true,9,2,3,1,false,z,false,false,0.0-2.0-0.32-0.293-3.293,0,0,1,68,false,stim,true,2,879.8749999987194,1,0,1,62384,WMM1,751022,false,false,1021,image-keyboard-response,2
true,9,0,3,0,true,q,false,true,0.0-2.0-0.32-0.294-3.294,0,0,1,81,false,stim,false,0,433.0550000013318,1,1,2,62384,WMM1,752966,false,false,1024,image-keyboard-response,3
true,9,0,3,0,true,q,false,true,0.0-2.0-0.32-0.295-3.295,0,0,1,81,false,stim,false,0,467.52000000560656,1,1,2,62384,WMM1,754945,false,false,1027,image-keyboard-response,4
true,9,1,3,2,false,d,false,false,0.0-2.0-0.32-0.296-3.296,0,0,1,90,false,stim,true,1,484.36999999836553,1,0,0,62384,WMM1,756943,false,false,1030,image-keyboard-response,5
true,9,1,3,1,true,z,false,true,0.0-2.0-0.33-0.297-3.297,0,0,1,90,false,stim,false,2,1010.0149999998976,1,0,1,62384,WMM1,759465,false,false,1033,image-keyboard-response,6
true,9,2,3,2,true,d,false,true,0.0-2.0-0.33-0.298-3.298,0,0,1,68,false,stim,false,1,646.919999999227,1,0,0,62384,WMM1,761622,false,false,1036,image-keyboard-response,7
true,9,0,3,0,true,q,false,true,0.0-2.0-0.33-0.299-3.299,0,0,1,81,false,stim,false,0,991.5350000009639,1,1,2,62384,WMM1,764125,false,false,1039,image-keyboard-response,8
true,9,0,3,0,true,q,false,true,0.0-2.0-0.33-0.300-3.300,0,0,1,81,false,stim,false,0,836.0149999934947,1,1,2,62384,WMM1,766472,false,false,1042,image-keyboard-response,9
true,9,2,3,2,true,d,false,true,0.0-2.0-0.33-0.301-3.301,0,0,1,68,false,stim,false,1,996.0100000025705,1,0,0,62384,WMM1,768977,false,false,1045,image-keyboard-response,10
true,9,2,3,2,true,d,false,true,0.0-2.0-0.33-0.302-3.302,0,0,1,68,false,stim,false,1,454.2700000018813,1,0,0,62384,WMM1,770943,false,false,1048,image-keyboard-response,11
true,9,1,3,1,true,z,false,true,0.0-2.0-0.33-0.303-3.303,0,0,1,90,false,stim,false,2,399.8049999936484,1,0,1,62384,WMM1,772857,false,false,1051,image-keyboard-response,12
true,9,0,3,0,true,q,false,true,0.0-2.0-0.33-0.304-3.304,0,0,1,81,false,stim,false,0,685.3999999947846,1,1,2,62384,WMM1,775052,false,false,1054,image-keyboard-response,13
true,9,2,3,1,false,z,false,false,0.0-2.0-0.33-0.305-3.305,0,0,1,68,false,stim,true,2,493.0449999956181,1,0,1,62384,WMM1,777055,false,false,1057,image-keyboard-response,14
true,9,2,3,2,true,d,false,true,0.0-2.0-0.34-0.306-3.306,0,0,1,68,false,stim,false,1,1046.3600000002189,1,0,0,62384,WMM1,779613,false,false,1060,image-keyboard-response,15
true,9,0,3,0,true,q,false,true,0.0-2.0-0.34-0.307-3.307,0,0,1,81,false,stim,false,0,805.0149999981513,1,1,2,62384,WMM1,781930,false,false,1063,image-keyboard-response,16
true,9,2,3,2,true,d,false,true,0.0-2.0-0.34-0.308-3.308,0,0,1,68,false,stim,false,1,867.6049999995157,1,0,0,62384,WMM1,784308,false,false,1066,image-keyboard-response,17
true,9,1,3,1,true,z,false,true,0.0-2.0-0.34-0.309-3.309,0,0,1,90,false,stim,false,2,667.8549999997485,1,0,1,62384,WMM1,786483,false,false,1069,image-keyboard-response,18
true,9,1,3,1,true,z,false,true,0.0-2.0-0.34-0.310-3.310,0,0,1,90,false,stim,false,2,360.2649999957066,1,0,1,62384,WMM1,788352,false,false,1072,image-keyboard-response,19
true,9,2,3,0,false,q,true,false,0.0-2.0-0.34-0.311-3.311,0,0,1,68,false,stim,false,0,446.62999999849126,1,1,2,62384,WMM1,790308,false,false,1075,image-keyboard-response,20
true,9,0,3,0,true,q,false,true,0.0-2.0-0.34-0.312-3.312,0,0,1,81,false,stim,false,0,397.84000000497326,1,1,2,62384,WMM1,792215,false,false,1078,image-keyboard-response,21
true,9,2,3,2,true,d,false,true,0.0-2.0-0.34-0.313-3.313,0,0,1,68,false,stim,false,1,744.179999994114,1,0,0,62384,WMM1,794471,false,false,1081,image-keyboard-response,22
true,9,1,3,1,true,z,false,true,0.0-2.0-0.34-0.314-3.314,0,0,1,90,false,stim,false,2,489.19500000192784,1,0,1,62384,WMM1,796468,false,false,1084,image-keyboard-response,23
true,9,1,3,1,true,z,false,true,0.0-2.0-0.35-0.315-3.315,0,0,1,90,false,stim,false,2,549.0699999936623,1,0,1,62384,WMM1,798531,false,false,1087,image-keyboard-response,24
true,9,2,3,0,false,q,true,false,0.0-2.0-0.35-0.316-3.316,0,0,1,68,false,stim,false,0,573.2099999950733,1,1,2,62384,WMM1,800616,false,false,1090,image-keyboard-response,25
true,9,1,3,0,false,q,true,true,0.0-2.0-0.35-0.317-3.317,0,0,1,90,false,stim,false,0,448.499999998603,1,1,2,62384,WMM1,802576,false,true,1093,image-keyboard-response,26
true,9,1,3,2,false,d,false,true,0.0-2.0-0.35-0.318-3.318,0,0,1,90,false,stim,true,1,1262.8200000035577,1,0,0,62384,WMM1,805352,false,true,1096,image-keyboard-response,27
true,9,1,3,2,false,d,false,false,0.0-2.0-0.35-0.319-3.319,0,0,1,90,false,stim,true,1,381.31499999866355,1,0,0,62384,WMM1,807246,false,false,1099,image-keyboard-response,28
true,9,1,3,0,false,q,true,false,0.0-2.0-0.35-0.320-3.320,0,0,1,90,false,stim,false,0,911.8900000030408,1,1,2,62384,WMM1,809674,false,false,1102,image-keyboard-response,29
true,9,0,3,1,false,z,true,false,0.0-2.0-0.35-0.321-3.321,0,0,1,81,false,stim,false,2,481.6399999980349,1,0,1,62384,WMM1,811665,false,false,1105,image-keyboard-response,30
true,9,1,3,2,false,d,false,false,0.0-2.0-0.35-0.322-3.322,0,0,1,90,false,stim,true,1,592.2099999951897,1,0,0,62384,WMM1,813767,false,false,1108,image-keyboard-response,31
true,9,2,3,1,false,z,false,false,0.0-2.0-0.35-0.323-3.323,0,0,1,68,false,stim,true,2,498.0250000007218,1,0,1,62384,WMM1,815774,false,false,1111,image-keyboard-response,32
true,9,0,3,0,true,q,false,true,0.0-2.0-0.36-0.324-3.324,0,0,1,81,false,stim,false,0,1495.7399999983609,1,1,2,62384,WMM1,818781,false,false,1114,image-keyboard-response,33
true,9,2,3,1,false,z,false,false,0.0-2.0-0.36-0.325-3.325,0,0,1,68,false,stim,true,2,776.5349999972386,1,0,1,62384,WMM1,821069,false,false,1117,image-keyboard-response,34
true,9,1,3,1,true,z,false,true,0.0-2.0-0.36-0.326-3.326,0,0,1,90,false,stim,false,2,348.83499999705236,1,0,1,62384,WMM1,822927,false,false,1120,image-keyboard-response,35
true,9,2,3,2,true,d,false,true,0.0-2.0-0.36-0.327-3.327,0,0,1,68,false,stim,false,1,630.9999999939464,1,0,0,62384,WMM1,825069,false,false,1123,image-keyboard-response,36
true,9,0,3,0,true,q,false,true,0.0-2.0-0.36-0.328-3.328,0,0,1,81,false,stim,false,0,862.0000000010477,1,1,2,62384,WMM1,827443,false,false,1126,image-keyboard-response,37
true,9,1,3,1,true,z,false,true,0.0-2.0-0.36-0.329-3.329,0,0,1,90,false,stim,false,2,452.74000000057276,1,0,1,62384,WMM1,829409,false,false,1129,image-keyboard-response,38
true,9,2,3,2,true,d,false,true,0.0-2.0-0.36-0.330-3.330,0,0,1,68,false,stim,false,1,585.4299999992363,1,0,0,62384,WMM1,831508,false,false,1132,image-keyboard-response,39
true,9,0,3,0,true,q,false,true,0.0-2.0-0.36-0.331-3.331,0,0,1,81,false,stim,false,0,1031.1000000000931,1,0,2,62384,WMM1,834051,false,false,1135,image-keyboard-response,40
true,9,2,3,2,true,d,false,true,0.0-2.0-0.36-0.332-3.332,0,0,1,68,false,stim,false,1,921.4649999993853,1,0,0,62384,WMM1,836484,false,false,1138,image-keyboard-response,41
true,9,2,3,2,true,d,false,true,0.0-2.0-0.37-0.333-3.333,0,0,1,68,false,stim,false,1,660.9449999959907,1,0,0,62384,WMM1,838659,false,false,1141,image-keyboard-response,42
true,9,0,3,0,true,q,false,true,0.0-2.0-0.37-0.334-3.334,0,0,1,81,false,stim,false,0,779.7800000044517,1,0,2,62384,WMM1,840946,false,false,1144,image-keyboard-response,43
true,9,2,3,0,false,q,true,false,0.0-2.0-0.37-0.335-3.335,0,0,1,68,false,stim,false,0,1483.1699999995762,1,0,2,62384,WMM1,843937,false,false,1147,image-keyboard-response,44
true,9,0,3,0,true,q,false,true,0.0-2.0-0.37-0.336-3.336,0,0,1,81,false,stim,false,0,505.65500000084285,1,0,2,62384,WMM1,845955,false,false,1150,image-keyboard-response,45
true,9,1,3,1,true,z,false,true,0.0-2.0-0.37-0.337-3.337,0,0,1,90,false,stim,false,2,643.1250000023283,1,0,1,62384,WMM1,848107,false,false,1153,image-keyboard-response,46
true,9,1,3,1,true,z,false,true,0.0-2.0-0.37-0.338-3.338,0,0,1,90,false,stim,false,2,559.140000004787,1,0,1,62384,WMM1,850177,false,false,1156,image-keyboard-response,47
true,9,0,3,2,false,d,true,false,0.0-2.0-0.37-0.339-3.339,0,0,1,81,false,stim,false,1,562.7499999974389,1,0,0,62384,WMM1,852247,false,false,1159,image-keyboard-response,48
true,9,1,3,1,true,z,false,false,0.0-2.0-0.37-0.340-3.340,0,0,1,90,false,stim,false,2,997.7150000049733,1,0,1,62384,WMM1,854756,false,true,1162,image-keyboard-response,49
true,10,2,2,1,false,z,false,false,0.0-2.0-0.37-0.341-3.341,0,0,0,68,true,stim,true,2,772.694999999716,1,0,0,62384,WMM1,857037,false,false,1165,image-keyboard-response,1
true,10,0,2,1,false,z,true,false,0.0-2.0-0.38-0.342-3.342,0,0,0,81,false,stim,false,2,545.1649999959627,1,0,0,62384,WMM1,859092,false,false,1168,image-keyboard-response,2
true,10,2,2,2,true,d,false,false,0.0-2.0-0.38-0.343-3.343,0,0,0,68,false,stim,false,0,452.0150000025751,1,0,2,62384,WMM1,861053,false,true,1171,image-keyboard-response,3
true,10,0,2,2,false,d,false,true,0.0-2.0-0.38-0.344-3.344,0,0,0,81,false,stim,true,0,604.1399999957066,1,0,2,62384,WMM1,863167,false,true,1174,image-keyboard-response,4
true,10,1,2,0,false,q,false,false,0.0-2.0-0.38-0.345-3.345,0,0,0,90,false,stim,true,1,819.5450000057463,1,0,1,62384,WMM1,865496,false,false,1177,image-keyboard-response,5
true,10,2,2,0,false,q,true,false,0.0-2.0-0.38-0.346-3.346,0,0,0,68,false,stim,false,1,320.285000001546,1,0,1,62384,WMM1,867325,false,false,1180,image-keyboard-response,6
true,10,0,2,0,true,q,false,false,0.0-2.0-0.38-0.347-3.347,0,0,0,81,false,stim,false,1,406.1199999996461,1,0,1,62384,WMM1,869245,false,true,1183,image-keyboard-response,7
true,10,1,2,1,true,z,false,true,0.0-2.0-0.38-0.348-3.348,0,0,0,90,false,stim,false,2,615.4600000008941,1,0,0,62384,WMM1,871370,false,false,1186,image-keyboard-response,8
true,10,1,2,1,true,z,false,true,0.0-2.0-0.38-0.349-3.349,0,0,0,90,false,stim,false,2,774.9649999969406,1,0,0,62384,WMM1,873654,false,false,1189,image-keyboard-response,9
true,10,0,2,2,false,d,false,false,0.0-2.0-0.38-0.350-3.350,0,0,0,81,false,stim,true,0,759.1700000048149,1,0,2,62384,WMM1,875921,false,false,1192,image-keyboard-response,10
true,10,2,2,2,true,d,false,true,0.0-2.0-0.39-0.351-3.351,0,0,0,68,false,stim,false,0,1194.519999997341,1,0,2,62384,WMM1,878625,false,false,1195,image-keyboard-response,11
true,10,2,2,2,true,d,false,true,0.0-2.0-0.39-0.352-3.352,0,0,0,68,false,stim,false,0,453.5799999939045,1,0,2,62384,WMM1,880589,false,false,1198,image-keyboard-response,12
true,10,2,2,1,false,z,false,true,0.0-2.0-0.39-0.353-3.353,0,0,0,68,false,stim,true,2,206.05000000074506,1,0,0,62384,WMM1,882309,false,true,1201,image-keyboard-response,13
true,10,2,2,0,false,q,true,false,0.0-2.0-0.39-0.354-3.354,0,0,0,68,false,stim,false,1,615.8550000035902,1,0,1,62384,WMM1,884439,false,false,1204,image-keyboard-response,14
true,10,1,2,0,false,q,false,false,0.0-2.0-0.39-0.355-3.355,0,0,0,90,false,stim,true,1,392.7650000042049,1,0,1,62384,WMM1,886341,false,false,1207,image-keyboard-response,15
true,10,2,2,0,false,q,true,false,0.0-2.0-0.39-0.356-3.356,0,0,0,68,false,stim,false,1,318.5400000002701,1,0,1,62384,WMM1,888169,false,false,1210,image-keyboard-response,16
true,10,0,2,1,false,z,true,false,0.0-2.0-0.39-0.357-3.357,0,0,0,81,false,stim,false,2,836.9200000015553,1,0,0,62384,WMM1,890516,false,false,1213,image-keyboard-response,17
true,10,2,2,2,true,d,false,true,0.0-2.0-0.39-0.358-3.358,0,0,0,68,false,stim,false,0,488.3799999952316,1,0,2,62384,WMM1,892513,false,false,1216,image-keyboard-response,18
true,10,1,2,1,true,z,false,true,0.0-2.0-0.39-0.359-3.359,0,0,0,90,false,stim,false,2,616.3449999948498,1,0,0,62384,WMM1,894638,false,false,1219,image-keyboard-response,19
true,10,2,2,2,true,d,false,true,0.0-2.0-0.40-0.360-3.360,0,0,0,68,false,stim,false,0,513.0149999967543,1,0,2,62384,WMM1,896660,false,false,1222,image-keyboard-response,20
true,10,2,2,0,false,q,true,false,0.0-2.0-0.40-0.361-3.361,0,0,0,68,false,stim,false,1,1066.0800000040326,1,0,1,62384,WMM1,899238,false,false,1225,image-keyboard-response,21
true,10,1,2,1,true,z,false,true,0.0-2.0-0.40-0.362-3.362,0,0,0,90,false,stim,false,2,805.7499999995343,1,0,0,62384,WMM1,901556,false,false,1228,image-keyboard-response,22
true,10,2,2,2,true,d,false,true,0.0-2.0-0.40-0.363-3.363,0,0,0,68,false,stim,false,0,764.8100000005215,1,0,2,62384,WMM1,903831,false,false,1231,image-keyboard-response,23
true,10,0,2,0,true,q,false,true,0.0-2.0-0.40-0.364-3.364,0,0,0,81,false,stim,false,1,645.105000003241,1,0,1,62384,WMM1,905987,false,false,1234,image-keyboard-response,24
true,10,2,2,2,true,d,false,true,0.0-2.0-0.40-0.365-3.365,0,0,0,68,false,stim,false,0,512.9250000027241,1,0,2,62384,WMM1,908008,false,false,1237,image-keyboard-response,25
true,10,1,2,1,true,z,false,true,0.0-2.0-0.40-0.366-3.366,0,0,0,90,false,stim,false,2,666.1299999977928,1,0,0,62384,WMM1,910188,false,false,1240,image-keyboard-response,26
true,10,0,2,0,true,q,false,true,0.0-2.0-0.40-0.367-3.367,0,0,0,81,false,stim,false,1,414.28499999886844,1,0,1,62384,WMM1,912113,false,false,1243,image-keyboard-response,27
true,10,2,2,1,false,z,false,false,0.0-2.0-0.40-0.368-3.368,0,0,0,68,false,stim,true,2,303.77500000037253,1,0,0,62384,WMM1,913929,false,false,1246,image-keyboard-response,28
true,10,1,2,1,true,z,false,true,0.0-2.0-0.41-0.369-3.369,0,0,0,90,false,stim,false,2,445.7699999985052,1,0,0,62384,WMM1,915888,false,false,1249,image-keyboard-response,29
true,10,0,2,0,true,q,false,true,0.0-2.0-0.41-0.370-3.370,0,0,0,81,false,stim,false,1,802.9099999985192,1,0,1,62384,WMM1,918202,false,false,1252,image-keyboard-response,30
true,10,0,2,0,true,q,false,true,0.0-2.0-0.41-0.371-3.371,0,0,0,81,false,stim,false,1,503.179999999702,1,0,1,62384,WMM1,920213,false,false,1255,image-keyboard-response,31
true,10,1,2,1,true,z,false,false,0.0-2.0-0.41-0.372-3.372,0,0,0,90,false,stim,false,2,628.5649999991292,1,0,0,62384,WMM1,922349,false,true,1258,image-keyboard-response,32
true,10,2,2,2,true,d,false,false,0.0-2.0-0.41-0.373-3.373,0,0,0,68,false,stim,false,0,694.7950000029523,1,0,2,62384,WMM1,924555,false,true,1261,image-keyboard-response,33
true,10,0,2,1,false,z,true,false,0.0-2.0-0.41-0.374-3.374,0,0,0,81,false,stim,false,2,1009.8399999988033,1,0,0,62384,WMM1,927076,false,false,1264,image-keyboard-response,34
true,10,2,2,2,true,d,false,false,0.0-2.0-0.41-0.375-3.375,0,0,0,68,false,stim,false,0,1004.6399999991991,1,0,2,62384,WMM1,929590,false,true,1267,image-keyboard-response,35
true,10,1,2,0,false,q,false,false,0.0-2.0-0.41-0.376-3.376,0,0,0,90,false,stim,true,1,1095.260000001872,1,0,1,62384,WMM1,932195,false,false,1270,image-keyboard-response,36
true,10,2,2,2,true,d,false,true,0.0-2.0-0.41-0.377-3.377,0,0,0,68,false,stim,false,0,1008.6750000045868,1,0,2,62384,WMM1,934714,false,false,1273,image-keyboard-response,37
true,11,0,1,0,true,q,false,true,0.0-2.0-0.42-0.378-3.378,0,0,0,81,true,stim,false,1,748.4349999941187,1,0,0,62384,WMM1,936974,false,false,1276,image-keyboard-response,1
true,11,2,1,0,false,q,true,false,0.0-2.0-0.42-0.379-3.379,0,0,0,68,false,stim,false,1,1706.6800000029616,1,0,0,62384,WMM1,940189,false,false,1279,image-keyboard-response,2
true,11,2,1,1,false,z,false,false,0.0-2.0-0.42-0.380-3.380,0,0,0,68,false,stim,true,2,1681.8549999953248,1,0,2,62384,WMM1,943382,false,false,1282,image-keyboard-response,3
true,11,0,1,0,true,q,false,true,0.0-2.0-0.42-0.381-3.381,0,0,0,81,false,stim,false,1,649.0349999947939,1,0,0,62384,WMM1,945541,false,false,1285,image-keyboard-response,4
true,11,1,1,2,false,d,true,false,0.0-2.0-0.42-0.382-3.382,0,0,0,90,false,stim,false,0,718.3549999971874,1,0,1,62384,WMM1,947773,false,false,1288,image-keyboard-response,5
true,11,0,1,2,false,d,false,false,0.0-2.0-0.42-0.383-3.383,0,0,0,81,false,stim,true,0,721.9149999946821,1,0,1,62384,WMM1,950003,false,false,1291,image-keyboard-response,6
true,11,2,1,1,false,z,false,false,0.0-2.0-0.42-0.384-3.384,0,0,0,68,false,stim,true,2,2725.189999997383,1,0,2,62384,WMM1,954234,false,false,1294,image-keyboard-response,7
true,11,2,1,1,false,z,false,false,0.0-2.0-0.42-0.385-3.385,0,0,0,68,false,stim,true,2,865.624999998603,1,0,2,62384,WMM1,956608,false,false,1297,image-keyboard-response,8
true,11,0,1,2,false,d,false,false,0.0-2.0-0.42-0.386-3.386,0,0,0,81,false,stim,true,0,578.2550000003539,1,0,1,62384,WMM1,958695,false,false,1300,image-keyboard-response,9
true,11,1,1,1,true,z,false,true,0.0-2.0-0.43-0.387-3.387,0,0,0,90,false,stim,false,2,494.16000000201166,1,0,2,62384,WMM1,960706,false,false,1303,image-keyboard-response,10
true,11,1,1,1,true,z,false,true,0.0-2.0-0.43-0.388-3.388,0,0,0,90,false,stim,false,2,439.6649999980582,1,0,2,62384,WMM1,962654,false,false,1306,image-keyboard-response,11
true,11,0,1,2,false,d,false,false,0.0-2.0-0.43-0.389-3.389,0,0,0,81,false,stim,true,0,784.2449999953387,1,0,1,62384,WMM1,964949,false,false,1309,image-keyboard-response,12
true,11,1,1,0,false,q,false,false,0.0-2.0-0.43-0.390-3.390,0,0,0,90,false,stim,true,1,614.4500000008848,1,0,0,62384,WMM1,967072,false,false,1312,image-keyboard-response,13
true,11,1,1,1,true,z,false,true,0.0-2.0-0.43-0.391-3.391,0,0,0,90,false,stim,false,2,515.9399999976158,1,0,2,62384,WMM1,969099,false,false,1315,image-keyboard-response,14
true,11,0,1,2,false,d,false,false,0.0-2.0-0.43-0.392-3.392,0,0,0,81,false,stim,true,0,786.0849999997299,1,0,1,62384,WMM1,971395,false,false,1318,image-keyboard-response,15
true,11,2,1,0,false,q,true,false,0.0-2.0-0.43-0.393-3.393,0,0,0,68,false,stim,false,1,434.09499999682885,1,0,0,62384,WMM1,973336,false,false,1321,image-keyboard-response,16
true,11,0,1,0,true,q,false,true,0.0-2.0-0.43-0.394-3.394,0,0,0,81,false,stim,false,1,738.2399999987101,1,0,0,62384,WMM1,975585,false,false,1324,image-keyboard-response,17
true,11,0,1,2,false,d,false,false,0.0-2.0-0.43-0.395-3.395,0,0,0,81,false,stim,true,0,696.5100000015227,1,0,1,62384,WMM1,977791,false,false,1327,image-keyboard-response,18
true,11,1,1,1,true,z,false,true,0.0-2.0-0.44-0.396-3.396,0,0,0,90,false,stim,false,2,924.4150000014342,1,0,2,62384,WMM1,980224,false,false,1330,image-keyboard-response,19
true,11,2,1,2,true,d,false,true,0.0-2.0-0.44-0.397-3.397,0,0,0,68,false,stim,false,0,729.5500000037719,1,0,1,62384,WMM1,982462,false,false,1333,image-keyboard-response,20
true,11,1,1,1,true,z,false,true,0.0-2.0-0.44-0.398-3.398,0,0,0,90,false,stim,false,2,1535.700000000419,1,0,2,62384,WMM1,985508,false,false,1336,image-keyboard-response,21
true,11,2,1,2,true,d,false,false,0.0-2.0-0.44-0.399-3.399,0,0,0,68,false,stim,false,0,1729.9999999959255,1,0,1,62384,WMM1,988751,false,true,1339,image-keyboard-response,22
true,11,0,1,0,true,q,false,true,0.0-2.0-0.44-0.400-3.400,0,0,0,81,false,stim,false,1,821.3099999993574,1,0,0,62384,WMM1,991081,false,false,1342,image-keyboard-response,23
true,11,1,1,2,false,d,true,false,0.0-2.0-0.44-0.401-3.401,0,0,0,90,false,stim,false,0,1745.7900000007357,1,0,1,62384,WMM1,994339,false,false,1345,image-keyboard-response,24
true,11,2,1,1,false,z,false,false,0.0-2.0-0.44-0.402-3.402,0,0,0,68,false,stim,true,2,671.5550000007497,1,1,2,62384,WMM1,996522,false,false,1348,image-keyboard-response,25
true,11,0,1,0,true,q,false,false,0.0-2.0-0.44-0.403-3.403,0,0,0,81,false,stim,false,1,525.6749999970198,1,0,0,62384,WMM1,998558,false,true,1351,image-keyboard-response,26
true,11,1,1,0,false,q,false,false,0.0-2.0-0.44-0.404-3.404,0,0,0,90,false,stim,true,1,584.6149999997579,1,0,0,62384,WMM1,1000655,false,false,1354,image-keyboard-response,27
true,11,2,1,1,false,z,false,true,0.0-2.0-0.45-0.405-3.405,0,0,0,68,false,stim,true,2,515.3750000026776,1,1,2,62384,WMM1,1002681,false,true,1357,image-keyboard-response,28
true,11,2,1,1,false,z,false,false,0.0-2.0-0.45-0.406-3.406,0,0,0,68,false,stim,true,2,1131.9799999982351,1,1,2,62384,WMM1,1005324,false,false,1360,image-keyboard-response,29
true,11,1,1,0,false,q,false,false,0.0-2.0-0.45-0.407-3.407,0,0,0,90,false,stim,true,1,667.459999996936,1,0,0,62384,WMM1,1007501,false,false,1363,image-keyboard-response,30
true,11,0,1,2,false,d,false,false,0.0-2.0-0.45-0.408-3.408,0,0,0,81,false,stim,true,0,483.4550000014715,1,0,1,62384,WMM1,1009494,false,false,1366,image-keyboard-response,31
true,11,1,1,0,false,q,false,false,0.0-2.0-0.45-0.409-3.409,0,0,0,90,false,stim,true,1,819.4599999987986,1,0,0,62384,WMM1,1011821,false,false,1369,image-keyboard-response,32
true,11,0,1,0,true,q,false,true,0.0-2.0-0.45-0.410-3.410,0,0,0,81,false,stim,false,1,824.6399999988498,1,0,0,62384,WMM1,1014152,false,false,1372,image-keyboard-response,33
true,12,2,3,0,false,q,false,false,0.0-2.0-0.45-0.411-3.411,0,0,1,68,true,stim,true,2,693.2799999995623,1,0,1,62384,WMM1,1016356,false,false,1375,image-keyboard-response,1
true,12,2,3,1,false,z,true,false,0.0-2.0-0.45-0.412-3.412,0,0,1,68,false,stim,false,1,392.9649999991525,1,1,2,62384,WMM1,1018257,false,false,1378,image-keyboard-response,2
true,12,1,3,0,false,q,true,false,0.0-2.0-0.45-0.413-3.413,0,0,1,90,false,stim,false,2,586.8549999940442,1,0,1,62384,WMM1,1020354,false,false,1381,image-keyboard-response,3
true,12,0,3,0,true,q,false,false,0.0-2.0-0.46-0.414-3.414,0,0,1,81,false,stim,false,2,795.6950000007637,1,0,1,62384,WMM1,1022659,false,true,1384,image-keyboard-response,4
true,12,0,3,2,false,d,false,false,0.0-2.0-0.46-0.415-3.415,0,0,1,81,false,stim,true,0,751.0150000017602,1,0,0,62384,WMM1,1024919,false,false,1387,image-keyboard-response,5
true,12,2,3,0,false,q,false,false,0.0-2.0-0.46-0.416-3.416,0,0,1,68,false,stim,true,2,1081.7099999985658,1,0,1,62384,WMM1,1027507,false,false,1390,image-keyboard-response,6
true,12,1,3,2,false,d,true,false,0.0-2.0-0.46-0.417-3.417,0,0,1,90,false,stim,false,0,632.8499999945052,1,0,0,62384,WMM1,1029648,false,false,1393,image-keyboard-response,7
true,12,0,3,1,false,z,true,false,0.0-2.0-0.46-0.418-3.418,0,0,1,81,false,stim,false,1,452.83999999798834,1,1,2,62384,WMM1,1031612,false,false,1396,image-keyboard-response,8
true,12,2,3,2,true,d,false,true,0.0-2.0-0.46-0.419-3.419,0,0,1,68,false,stim,false,0,485.09500000369735,1,0,0,62384,WMM1,1033607,false,false,1399,image-keyboard-response,9
true,12,2,3,1,false,z,true,false,0.0-2.0-0.46-0.420-3.420,0,0,1,68,false,stim,false,1,980.6800000005169,1,1,2,62384,WMM1,1036109,false,false,1402,image-keyboard-response,10
true,12,0,3,1,false,z,true,false,0.0-2.0-0.46-0.421-3.421,0,0,1,81,false,stim,false,1,766.400000000489,1,1,2,62384,WMM1,1038384,false,false,1405,image-keyboard-response,11
true,12,0,3,0,true,q,false,true,0.0-2.0-0.46-0.422-3.422,0,0,1,81,false,stim,false,2,1527.82500000461,1,0,1,62384,WMM1,1041422,false,false,1408,image-keyboard-response,12
true,12,2,3,1,false,z,true,false,0.0-2.0-0.47-0.423-3.423,0,0,1,68,false,stim,false,1,799.9849999977741,1,1,2,62384,WMM1,1043729,false,false,1411,image-keyboard-response,13
true,12,0,3,0,true,q,false,true,0.0-2.0-0.47-0.424-3.424,0,0,1,81,false,stim,false,2,506.4900000069756,1,0,1,62384,WMM1,1045747,false,false,1414,image-keyboard-response,14
true,12,0,3,0,true,q,false,true,0.0-2.0-0.47-0.425-3.425,0,0,1,81,false,stim,false,2,943.4700000057928,1,0,1,62384,WMM1,1048198,false,false,1417,image-keyboard-response,15
true,12,2,3,1,false,z,true,false,0.0-2.0-0.47-0.426-3.426,0,0,1,68,false,stim,false,1,2241.6900000025053,1,1,2,62384,WMM1,1051948,false,false,1420,image-keyboard-response,16
true,12,0,3,2,false,d,false,false,0.0-2.0-0.47-0.427-3.427,0,0,1,81,false,stim,true,0,580.6949999970384,1,0,0,62384,WMM1,1054036,false,false,1423,image-keyboard-response,17
true,12,1,3,1,true,z,false,true,0.0-2.0-0.47-0.428-3.428,0,0,1,90,false,stim,false,1,867.7450000031386,1,1,2,62384,WMM1,1056412,false,false,1426,image-keyboard-response,18
true,12,0,3,0,true,q,false,true,0.0-2.0-0.47-0.429-3.429,0,0,1,81,false,stim,false,2,708.8250000013504,1,0,1,62384,WMM1,1058628,false,false,1429,image-keyboard-response,19
true,12,0,3,2,false,d,false,false,0.0-2.0-0.47-0.430-3.430,0,0,1,81,false,stim,true,0,703.6599999992177,1,0,0,62384,WMM1,1060840,false,false,1432,image-keyboard-response,20
true,12,1,3,2,false,d,true,true,0.0-2.0-0.47-0.431-3.431,0,0,1,90,false,stim,false,0,846.1749999988824,1,0,0,62384,WMM1,1063194,false,true,1435,image-keyboard-response,21
true,12,1,3,0,false,q,true,false,0.0-2.0-0.48-0.432-3.432,0,0,1,90,false,stim,false,2,810.4649999949615,1,0,1,62384,WMM1,1065516,false,false,1438,image-keyboard-response,22
true,12,0,3,0,true,q,false,true,0.0-2.0-0.48-0.433-3.433,0,0,1,81,false,stim,false,2,1233.9449999998324,1,0,1,62384,WMM1,1068260,false,false,1441,image-keyboard-response,23
true,12,0,3,1,false,z,true,false,0.0-2.0-0.48-0.434-3.434,0,0,1,81,false,stim,false,1,1439.0200000053737,1,1,2,62384,WMM1,1071212,false,false,1444,image-keyboard-response,24
true,12,2,3,1,false,z,true,false,0.0-2.0-0.48-0.435-3.435,0,0,1,68,false,stim,false,1,1090.8150000032037,1,1,2,62384,WMM1,1073812,false,false,1447,image-keyboard-response,25
true,12,0,3,0,true,q,false,true,0.0-2.0-0.48-0.436-3.436,0,0,1,81,false,stim,false,2,927.7350000047591,1,0,1,62384,WMM1,1076251,false,false,1450,image-keyboard-response,26
true,12,1,3,2,false,d,true,true,0.0-2.0-0.48-0.437-3.437,0,0,1,90,false,stim,false,0,613.515000004787,1,0,0,62384,WMM1,1078376,false,true,1453,image-keyboard-response,27
true,12,1,3,2,false,d,true,false,0.0-2.0-0.48-0.438-3.438,0,0,1,90,false,stim,false,0,592.5100000023376,1,0,0,62384,WMM1,1080478,false,false,1456,image-keyboard-response,28
true,12,2,3,1,false,z,true,true,0.0-2.0-0.48-0.439-3.439,0,0,1,68,false,stim,false,1,2151.695000000531,1,1,2,62384,WMM1,1084139,false,true,1459,image-keyboard-response,29
true,12,0,3,2,false,d,false,false,0.0-2.0-0.48-0.440-3.440,0,0,1,81,false,stim,true,0,633.1700000008568,1,0,0,62384,WMM1,1086284,false,false,1462,image-keyboard-response,30
true,12,2,3,1,false,z,true,false,0.0-2.0-0.49-0.441-3.441,0,0,1,68,false,stim,false,1,498.33500000392087,1,1,2,62384,WMM1,1088296,false,false,1465,image-keyboard-response,31
true,12,1,3,0,false,q,true,false,0.0-2.0-0.49-0.442-3.442,0,0,1,90,false,stim,false,2,627.0949999962468,1,0,1,62384,WMM1,1090434,false,false,1468,image-keyboard-response,32
true,12,0,3,0,true,q,false,false,0.0-2.0-0.49-0.443-3.443,0,0,1,81,false,stim,false,2,765.1349999941885,1,0,1,62384,WMM1,1092708,false,true,1471,image-keyboard-response,33
true,12,1,3,2,false,d,true,false,0.0-2.0-0.49-0.444-3.444,0,0,1,90,false,stim,false,0,546.7900000002701,1,0,0,62384,WMM1,1094765,false,false,1474,image-keyboard-response,34
true,12,2,3,2,true,d,false,true,0.0-2.0-0.49-0.445-3.445,0,0,1,68,false,stim,false,0,531.454999996582,1,0,0,62384,WMM1,1096811,false,false,1477,image-keyboard-response,35
true,12,2,3,2,true,d,false,true,0.0-2.0-0.49-0.446-3.446,0,0,1,68,false,stim,false,0,540.45500000217,1,0,0,62384,WMM1,1098863,false,false,1480,image-keyboard-response,36
true,12,0,3,0,true,q,false,true,0.0-2.0-0.49-0.447-3.447,0,0,1,81,false,stim,false,2,621.2150000063702,1,0,1,62384,WMM1,1100999,false,false,1483,image-keyboard-response,37
true,12,2,3,1,false,z,true,false,0.0-2.0-0.49-0.448-3.448,0,0,1,68,false,stim,false,1,1447.6900000008754,1,1,2,62384,WMM1,1103956,false,false,1486,image-keyboard-response,38
true,12,0,3,1,false,z,true,false,0.0-2.0-0.49-0.449-3.449,0,0,1,81,false,stim,false,1,1139.409999996191,1,1,2,62384,WMM1,1106609,false,false,1489,image-keyboard-response,39
true,12,0,3,2,false,d,false,true,0.0-2.0-0.50-0.450-3.450,0,0,1,81,false,stim,true,0,2233.184999997262,1,0,0,62384,WMM1,1110355,false,true,1492,image-keyboard-response,40
true,12,0,3,0,true,q,false,true,0.0-2.0-0.50-0.451-3.451,0,0,1,81,false,stim,false,2,868.0399999939837,1,0,1,62384,WMM1,1112735,false,false,1495,image-keyboard-response,41
true,12,2,3,1,false,z,true,false,0.0-2.0-0.50-0.452-3.452,0,0,1,68,false,stim,false,1,566.2999999984168,1,1,2,62384,WMM1,1114813,false,false,1498,image-keyboard-response,42
true,12,1,3,0,false,q,true,false,0.0-2.0-0.50-0.453-3.453,0,0,1,90,false,stim,false,2,386.42999999877065,1,0,1,62384,WMM1,1116719,false,false,1501,image-keyboard-response,43
true,12,0,3,1,false,z,true,true,0.0-2.0-0.50-0.454-3.454,0,0,1,81,false,stim,false,1,825.055000001099,1,1,2,62384,WMM1,1119054,false,true,1504,image-keyboard-response,44
true,12,0,3,1,false,z,true,false,0.0-2.0-0.50-0.455-3.455,0,0,1,81,false,stim,false,1,517.7799999946728,1,1,2,62384,WMM1,1121086,false,false,1507,image-keyboard-response,45
true,12,0,3,0,true,q,false,true,0.0-2.0-0.50-0.456-3.456,0,0,1,81,false,stim,false,2,916.4650000021793,1,0,1,62384,WMM1,1123516,false,false,1510,image-keyboard-response,46
true,12,0,3,2,false,d,false,false,0.0-2.0-0.50-0.457-3.457,0,0,1,81,false,stim,true,0,1868.8100000000559,1,0,0,62384,WMM1,1126895,false,false,1513,image-keyboard-response,47
true,12,2,3,2,true,d,false,true,0.0-2.0-0.50-0.458-3.458,0,0,1,68,false,stim,false,0,558.9600000020582,1,0,0,62384,WMM1,1128967,false,false,1516,image-keyboard-response,48
true,12,0,3,1,false,z,true,false,0.0-2.0-0.51-0.459-3.459,0,0,1,81,false,stim,false,1,1185.6699999989942,1,1,2,62384,WMM1,1131663,false,false,1519,image-keyboard-response,49
true,12,0,3,0,true,q,false,false,0.0-2.0-0.51-0.460-3.460,0,0,1,81,false,stim,false,2,1559.8049999971408,1,0,1,62384,WMM1,1134731,false,true,1522,image-keyboard-response,50
true,12,2,3,1,false,z,true,false,0.0-2.0-0.51-0.461-3.461,0,0,1,68,false,stim,false,1,1362.295000006212,1,0,2,62384,WMM1,1137605,false,false,1525,image-keyboard-response,51
true,12,1,3,0,false,q,true,true,0.0-2.0-0.51-0.462-3.462,0,0,1,90,false,stim,false,2,909.8999999987427,1,0,1,62384,WMM1,1140026,false,true,1528,image-keyboard-response,52
true,12,0,3,2,false,d,false,false,0.0-2.0-0.51-0.463-3.463,0,0,1,81,false,stim,true,0,631.1649999988731,1,0,0,62384,WMM1,1142168,false,false,1531,image-keyboard-response,53
true,12,1,3,1,true,z,false,true,0.0-2.0-0.51-0.464-3.464,0,0,1,90,false,stim,false,1,1058.6249999979045,1,0,2,62384,WMM1,1144739,false,false,1534,image-keyboard-response,54
true,12,1,3,0,false,q,true,false,0.0-2.0-0.51-0.465-3.465,0,0,1,90,false,stim,false,2,936.6699999955017,1,0,1,62384,WMM1,1147187,false,false,1537,image-keyboard-response,55
true,12,0,3,2,false,d,false,false,0.0-2.0-0.51-0.466-3.466,0,0,1,81,false,stim,true,0,546.1649999995716,1,0,0,62384,WMM1,1149240,false,false,1540,image-keyboard-response,56
true,12,0,3,2,false,d,false,false,0.0-2.0-0.51-0.467-3.467,0,0,1,81,false,stim,true,0,584.8850000039674,1,0,0,62384,WMM1,1151334,false,false,1543,image-keyboard-response,57
true,12,2,3,0,false,q,false,false,0.0-2.0-0.52-0.468-3.468,0,0,1,68,false,stim,true,2,563.5150000015274,1,0,1,62384,WMM1,1153408,false,false,1546,image-keyboard-response,58
true,12,1,3,1,true,z,false,true,0.0-2.0-0.52-0.469-3.469,0,0,1,90,false,stim,false,1,598.7150000000838,1,0,2,62384,WMM1,1155516,false,false,1549,image-keyboard-response,59
true,12,1,3,1,true,z,false,true,0.0-2.0-0.52-0.470-3.470,0,0,1,90,false,stim,false,1,528.0500000007451,1,0,2,62384,WMM1,1157553,false,false,1552,image-keyboard-response,60
true,13,0,1,2,false,d,false,false,0.0-2.0-0.52-0.471-3.471,0,0,0,81,true,stim,true,0,666.039999996312,1,0,1,62384,WMM1,1159728,false,false,1555,image-keyboard-response,1
true,13,1,1,2,false,d,false,false,0.0-2.0-0.52-0.472-3.472,0,0,0,90,false,stim,true,1,624.0099999993108,1,0,2,62384,WMM1,1161863,false,false,1558,image-keyboard-response,2
true,13,1,1,2,false,d,true,false,0.0-2.0-0.52-0.473-3.473,0,0,0,90,false,stim,false,0,576.6599999989849,1,0,1,62384,WMM1,1163947,false,false,1561,image-keyboard-response,3
true,13,1,1,1,true,z,false,true,0.0-2.0-0.52-0.474-3.474,0,0,0,90,false,stim,false,2,937.7099999983329,1,0,0,62384,WMM1,1166393,false,false,1564,image-keyboard-response,4
true,13,1,1,1,true,z,false,true,0.0-2.0-0.52-0.475-3.475,0,0,0,90,false,stim,false,2,513.7150000010151,1,0,0,62384,WMM1,1168417,false,false,1567,image-keyboard-response,5
true,13,1,1,1,true,z,false,true,0.0-2.0-0.52-0.476-3.476,0,0,0,90,false,stim,false,2,758.0650000018068,1,0,0,62384,WMM1,1170688,false,false,1570,image-keyboard-response,6
true,13,1,1,2,false,d,true,false,0.0-2.0-0.53-0.477-3.477,0,0,0,90,false,stim,false,0,1182.1749999944586,1,0,1,62384,WMM1,1173382,false,false,1573,image-keyboard-response,7
true,13,1,1,1,true,z,false,true,0.0-2.0-0.53-0.478-3.478,0,0,0,90,false,stim,false,2,843.0650000011083,1,0,0,62384,WMM1,1175736,false,false,1576,image-keyboard-response,8
true,13,1,1,1,true,z,false,true,0.0-2.0-0.53-0.479-3.479,0,0,0,90,false,stim,false,2,613.775000005262,1,0,0,62384,WMM1,1177858,false,false,1579,image-keyboard-response,9
true,13,2,1,2,true,d,false,true,0.0-2.0-0.53-0.480-3.480,0,0,0,68,false,stim,false,0,786.0050000017509,1,0,1,62384,WMM1,1180155,false,false,1582,image-keyboard-response,10
true,13,2,1,2,true,d,false,true,0.0-2.0-0.53-0.481-3.481,0,0,0,68,false,stim,false,0,1356.0999999972992,1,0,1,62384,WMM1,1183023,false,false,1585,image-keyboard-response,11
true,13,0,1,2,false,d,true,false,0.0-2.0-0.53-0.482-3.482,0,0,0,81,false,stim,false,1,833.8749999967404,1,0,2,62384,WMM1,1185366,false,false,1588,image-keyboard-response,12
true,13,2,1,2,true,d,false,false,0.0-2.0-0.53-0.483-3.483,0,0,0,68,false,stim,false,1,693.3200000056531,1,0,2,62384,WMM1,1187569,false,true,1591,image-keyboard-response,13
true,13,2,1,1,false,z,false,false,0.0-2.0-0.53-0.484-3.484,0,0,0,68,false,stim,true,2,2982.0049999980256,1,0,0,62384,WMM1,1192063,false,false,1594,image-keyboard-response,14
true,13,0,1,2,false,d,true,false,0.0-2.0-0.53-0.485-3.485,0,0,0,81,false,stim,false,1,198.0200000035111,1,0,2,62384,WMM1,1193772,false,false,1597,image-keyboard-response,15
true,13,2,1,2,true,d,false,true,0.0-2.0-0.54-0.486-3.486,0,0,0,68,false,stim,false,0,320.5300000044517,1,0,1,62384,WMM1,1195607,false,false,1600,image-keyboard-response,16
true,13,0,1,1,false,z,true,false,0.0-2.0-0.54-0.487-3.487,0,0,0,81,false,stim,false,2,928.4000000045635,1,0,0,62384,WMM1,1198055,false,false,1603,image-keyboard-response,17
true,13,1,1,2,false,d,true,false,0.0-2.0-0.54-0.488-3.488,0,0,0,90,false,stim,false,0,554.8500000005588,1,0,1,62384,WMM1,1200120,false,false,1606,image-keyboard-response,18
true,13,2,1,2,true,d,false,true,0.0-2.0-0.54-0.489-3.489,0,0,0,68,false,stim,false,1,530.7949999989942,1,0,2,62384,WMM1,1202161,false,false,1609,image-keyboard-response,19
true,13,0,1,1,false,z,true,false,0.0-2.0-0.54-0.490-3.490,0,0,0,81,false,stim,false,2,656.0200000021141,1,0,0,62384,WMM1,1204325,false,false,1612,image-keyboard-response,20
true,13,1,1,2,false,d,false,false,0.0-2.0-0.54-0.491-3.491,0,0,0,90,false,stim,true,1,528.3950000011828,1,0,2,62384,WMM1,1206362,false,false,1615,image-keyboard-response,21
true,13,2,1,2,true,d,false,true,0.0-2.0-0.54-0.492-3.492,0,0,0,68,false,stim,false,1,254.85499999928288,1,0,2,62384,WMM1,1208126,false,false,1618,image-keyboard-response,22
true,13,2,1,1,false,z,false,false,0.0-2.0-0.54-0.493-3.493,0,0,0,68,false,stim,true,2,1186.0250000027008,1,0,0,62384,WMM1,1210823,false,false,1621,image-keyboard-response,23
true,13,0,1,2,false,d,false,false,0.0-2.0-0.54-0.494-3.494,0,0,0,81,false,stim,true,0,566.5500000030734,1,0,1,62384,WMM1,1212903,false,false,1624,image-keyboard-response,24
true,13,1,1,1,true,z,false,true,0.0-2.0-0.55-0.495-3.495,0,0,0,90,false,stim,false,2,499.9099999985192,1,0,0,62384,WMM1,1214914,false,false,1627,image-keyboard-response,25
true,13,1,1,1,true,z,false,true,0.0-2.0-0.55-0.496-3.496,0,0,0,90,false,stim,false,2,704.7099999981001,1,0,0,62384,WMM1,1217131,false,false,1630,image-keyboard-response,26
true,13,2,1,2,true,d,false,true,0.0-2.0-0.55-0.497-3.497,0,0,0,68,false,stim,false,1,2731.769999998389,1,0,2,62384,WMM1,1221376,false,false,1633,image-keyboard-response,27
true,13,0,1,2,false,d,false,false,0.0-2.0-0.55-0.498-3.498,0,0,0,81,false,stim,true,0,613.5500000016764,1,0,1,62384,WMM1,1223504,false,false,1636,image-keyboard-response,28
true,13,2,1,2,true,d,false,true,0.0-2.0-0.55-0.499-3.499,0,0,0,68,false,stim,false,1,577.7149999993853,1,0,2,62384,WMM1,1225592,false,false,1639,image-keyboard-response,29
false,13,-1,1,2,false,d,true,false,0.0-2.0-0.55-0.500-3.500,0,0,0,,false,stim,false,1,,1,0,2,62384,WMM1,1230110,false,false,1642,image-keyboard-response,30
true,13,0,1,1,false,z,true,false,0.0-2.0-0.55-0.501-3.501,0,0,0,81,false,stim,false,2,528.7749999989755,1,0,0,62384,WMM1,1232150,false,false,1645,image-keyboard-response,31
true,13,1,1,2,false,d,true,false,0.0-2.0-0.55-0.502-3.502,0,0,0,90,false,stim,false,0,487.53999999468215,1,0,1,62384,WMM1,1234152,false,false,1648,image-keyboard-response,32
true,13,2,1,2,true,d,false,true,0.0-2.0-0.55-0.503-3.503,0,0,0,68,false,stim,false,0,514.5250000059605,1,0,1,62384,WMM1,1236177,false,false,1651,image-keyboard-response,33
true,13,2,1,2,true,d,false,false,0.0-2.0-0.56-0.504-3.504,0,0,0,68,false,stim,false,1,616.9699999955483,1,0,2,62384,WMM1,1238304,false,true,1654,image-keyboard-response,34
true,13,2,1,2,true,d,false,true,0.0-2.0-0.56-0.505-3.505,0,0,0,68,false,stim,false,1,540.4750000014901,1,0,2,62384,WMM1,1240358,false,false,1657,image-keyboard-response,35
true,13,2,1,2,true,d,false,true,0.0-2.0-0.56-0.506-3.506,0,0,0,68,false,stim,false,1,457.2699999990873,1,0,2,62384,WMM1,1242324,false,false,1660,image-keyboard-response,36
true,13,0,1,2,false,d,false,false,0.0-2.0-0.56-0.507-3.507,0,0,0,81,false,stim,true,0,936.119999998482,1,0,1,62384,WMM1,1244771,false,false,1663,image-keyboard-response,37
true,13,1,1,1,true,z,false,true,0.0-2.0-0.56-0.508-3.508,0,0,0,90,false,stim,false,2,479.70499999797903,1,0,0,62384,WMM1,1246765,false,false,1666,image-keyboard-response,38
true,13,1,1,2,false,d,true,false,0.0-2.0-0.56-0.509-3.509,0,0,0,90,false,stim,false,0,413.40499999932945,1,0,1,62384,WMM1,1248695,false,false,1669,image-keyboard-response,39
true,13,2,1,1,false,z,false,true,0.0-2.0-0.56-0.510-3.510,0,0,0,68,false,stim,true,2,496.28500000108033,1,0,0,62384,WMM1,1250705,false,true,1672,image-keyboard-response,40
true,13,2,1,1,false,z,false,false,0.0-2.0-0.56-0.511-3.511,0,0,0,68,false,stim,true,2,703.2500000058208,1,0,0,62384,WMM1,1252921,false,false,1675,image-keyboard-response,41
true,13,1,1,2,false,d,true,false,0.0-2.0-0.56-0.512-3.512,0,0,0,90,false,stim,false,0,1005.0499999998137,1,0,1,62384,WMM1,1255440,false,false,1678,image-keyboard-response,42
true,13,0,1,2,false,d,false,true,0.0-2.0-0.57-0.513-3.513,0,0,0,81,false,stim,true,0,378.72500000242144,1,0,1,62384,WMM1,1257333,false,true,1681,image-keyboard-response,43
true,13,2,1,1,false,z,false,false,0.0-2.0-0.57-0.514-3.514,0,0,0,68,false,stim,true,2,807.4849999975413,1,0,0,62384,WMM1,1259655,false,false,1684,image-keyboard-response,44
true,13,0,1,2,false,d,true,false,0.0-2.0-0.57-0.515-3.515,0,0,0,81,false,stim,false,1,805.8850000014063,1,0,2,62384,WMM1,1261975,false,false,1687,image-keyboard-response,45
true,13,0,1,1,false,z,true,false,0.0-2.0-0.57-0.516-3.516,0,0,0,81,false,stim,false,2,1916.6150000018533,1,0,0,62384,WMM1,1265403,false,false,1690,image-keyboard-response,46
true,13,2,1,2,true,d,false,true,0.0-2.0-0.57-0.517-3.517,0,0,0,68,false,stim,false,0,554.6650000032969,1,0,1,62384,WMM1,1267471,false,false,1693,image-keyboard-response,47
true,13,1,1,1,true,z,false,true,0.0-2.0-0.57-0.518-3.518,0,0,0,90,false,stim,false,2,856.7949999996927,1,0,0,62384,WMM1,1269840,false,false,1696,image-keyboard-response,48
true,13,2,1,2,true,d,false,true,0.0-2.0-0.57-0.519-3.519,0,0,0,68,false,stim,false,0,539.8799999966286,1,0,1,62384,WMM1,1271891,false,false,1699,image-keyboard-response,49
true,13,0,1,2,false,d,true,false,0.0-2.0-0.57-0.520-3.520,0,0,0,81,false,stim,false,1,754.7100000011269,1,0,2,62384,WMM1,1274167,false,false,1702,image-keyboard-response,50
true,13,1,1,2,false,d,false,false,0.0-2.0-0.57-0.521-3.521,0,0,0,90,false,stim,true,1,1053.8950000046752,1,1,2,62384,WMM1,1276731,false,false,1705,image-keyboard-response,51
true,13,1,1,1,true,z,false,true,0.0-2.0-0.58-0.522-3.522,0,0,0,90,false,stim,false,2,1138.0549999957439,1,1,0,62384,WMM1,1279380,false,false,1708,image-keyboard-response,52
true,13,1,1,2,false,d,true,false,0.0-2.0-0.58-0.523-3.523,0,0,0,90,false,stim,false,0,1142.5799999998417,1,1,1,62384,WMM1,1282032,false,false,1711,image-keyboard-response,53
true,13,2,1,2,true,d,false,true,0.0-2.0-0.58-0.524-3.524,0,0,0,68,false,stim,false,0,508.95499999751337,1,1,1,62384,WMM1,1284052,false,false,1714,image-keyboard-response,54
true,13,1,1,1,true,z,false,true,0.0-2.0-0.58-0.525-3.525,0,0,0,90,false,stim,false,2,945.4000000043306,1,1,0,62384,WMM1,1286508,false,false,1717,image-keyboard-response,55
true,13,2,1,2,true,d,false,true,0.0-2.0-0.58-0.526-3.526,0,0,0,68,false,stim,false,1,660.6350000002421,1,1,2,62384,WMM1,1288679,false,false,1720,image-keyboard-response,56
true,13,1,1,1,true,z,false,true,0.0-2.0-0.58-0.527-3.527,0,0,0,90,false,stim,false,2,732.0299999990966,1,1,0,62384,WMM1,1290921,false,false,1723,image-keyboard-response,57
true,13,2,1,2,true,d,false,true,0.0-2.0-0.58-0.528-3.528,0,0,0,68,false,stim,false,1,464.28000000002794,1,1,2,62384,WMM1,1292894,false,false,1726,image-keyboard-response,58
true,13,2,1,2,true,d,false,true,0.0-2.0-0.58-0.529-3.529,0,0,0,68,false,stim,false,0,839.9350000037812,1,1,1,62384,WMM1,1295244,false,false,1729,image-keyboard-response,59
true,13,2,1,2,true,d,false,false,0.0-2.0-0.58-0.530-3.530,0,0,0,68,false,stim,false,1,525.8549999999814,1,1,2,62384,WMM1,1297281,false,true,1732,image-keyboard-response,60
true,14,2,0,1,false,z,true,false,0.0-2.0-0.59-0.531-3.531,1,1,1,68,true,stim,false,1,771.64500000095,1,1,0,62384,WMM1,1414378,false,false,1850,image-keyboard-response,1
true,14,1,0,1,true,z,false,true,0.0-2.0-0.59-0.532-3.532,1,1,1,90,false,stim,false,1,408.47999999835156,1,1,0,62384,WMM1,1416297,false,false,1853,image-keyboard-response,2
true,14,2,0,2,true,d,false,true,0.0-2.0-0.59-0.533-3.533,1,1,1,68,false,stim,false,2,668.0749999941327,1,1,2,62384,WMM1,1418478,false,false,1856,image-keyboard-response,3
true,14,2,0,2,true,d,false,true,0.0-2.0-0.59-0.534-3.534,1,1,1,68,false,stim,false,2,499.32000000262633,1,1,2,62384,WMM1,1420486,false,false,1859,image-keyboard-response,4
true,14,2,0,2,true,d,false,true,0.0-2.0-0.59-0.535-3.535,1,1,1,68,false,stim,false,2,360.8550000062678,1,1,2,62384,WMM1,1422356,false,false,1862,image-keyboard-response,5
true,14,1,0,1,true,z,false,true,0.0-2.0-0.59-0.536-3.536,1,1,1,90,false,stim,false,1,404.974999997532,1,1,0,62384,WMM1,1424276,false,false,1865,image-keyboard-response,6
true,14,0,0,2,false,d,true,true,0.0-2.0-0.59-0.537-3.537,1,1,1,81,false,stim,false,2,632.1399999943096,1,1,1,62384,WMM1,1426418,false,true,1868,image-keyboard-response,7
true,14,0,0,2,false,d,true,false,0.0-2.0-0.59-0.538-3.538,1,1,1,81,false,stim,false,2,483.20999999833293,1,1,1,62384,WMM1,1428412,false,false,1871,image-keyboard-response,8
true,14,1,0,2,false,d,true,false,0.0-2.0-0.59-0.539-3.539,1,1,1,90,false,stim,false,2,557.2099999990314,1,1,1,62384,WMM1,1430483,false,false,1874,image-keyboard-response,9
true,14,2,0,2,true,d,false,true,0.0-2.0-0.60-0.540-3.540,1,1,1,68,false,stim,false,2,399.6950000000652,1,1,2,62384,WMM1,1432392,false,false,1877,image-keyboard-response,10
true,14,1,0,1,true,z,false,true,0.0-2.0-0.60-0.541-3.541,1,1,1,90,false,stim,false,1,392.40000000433065,1,1,0,62384,WMM1,1434294,false,false,1880,image-keyboard-response,11
true,14,2,0,2,true,d,false,true,0.0-2.0-0.60-0.542-3.542,1,1,1,68,false,stim,false,2,506.050000003539,1,1,2,62384,WMM1,1436312,false,false,1883,image-keyboard-response,12
true,14,2,0,2,true,d,false,true,0.0-2.0-0.60-0.543-3.543,1,1,1,68,false,stim,false,2,490.81500000460073,1,1,2,62384,WMM1,1438311,false,false,1886,image-keyboard-response,13
true,14,1,0,1,true,z,false,true,0.0-2.0-0.60-0.544-3.544,1,1,1,90,false,stim,false,1,325.8599999973085,1,1,0,62384,WMM1,1440149,false,false,1889,image-keyboard-response,14
true,14,0,0,2,false,d,true,false,0.0-2.0-0.60-0.545-3.545,1,1,1,81,false,stim,false,2,248.73500000080094,1,1,1,62384,WMM1,1441905,false,false,1892,image-keyboard-response,15
true,14,1,0,1,true,z,false,true,0.0-2.0-0.60-0.546-3.546,1,1,1,90,false,stim,false,1,380.9400000027381,1,1,0,62384,WMM1,1443797,false,false,1895,image-keyboard-response,16
true,14,1,0,2,false,d,true,false,0.0-2.0-0.60-0.547-3.547,1,1,1,90,false,stim,false,2,392.1050000062678,1,1,1,62384,WMM1,1445704,false,false,1898,image-keyboard-response,17
true,14,0,0,2,false,d,true,false,0.0-2.0-0.60-0.548-3.548,1,1,1,81,false,stim,false,2,653.8750000037253,1,1,1,62384,WMM1,1447883,false,false,1901,image-keyboard-response,18
true,14,1,0,1,true,z,false,true,0.0-2.0-0.61-0.549-3.549,1,1,1,90,false,stim,false,1,604.6350000032689,1,1,0,62384,WMM1,1450000,false,false,1904,image-keyboard-response,19
true,14,2,0,2,true,d,false,true,0.0-2.0-0.61-0.550-3.550,1,1,1,68,false,stim,false,2,551.2099999978673,1,1,1,62384,WMM1,1452060,false,false,1907,image-keyboard-response,20
true,14,1,0,1,true,z,false,false,0.0-2.0-0.61-0.551-3.551,1,1,1,90,false,stim,false,1,542.9549999972805,1,1,0,62384,WMM1,1454112,false,true,1910,image-keyboard-response,21
true,14,2,0,2,true,d,false,true,0.0-2.0-0.61-0.552-3.552,1,1,1,68,false,stim,false,2,496.4800000016112,1,1,2,62384,WMM1,1456115,false,false,1913,image-keyboard-response,22
true,14,0,0,1,false,z,true,false,0.0-2.0-0.61-0.553-3.553,1,1,1,81,false,stim,false,1,383.91000000410713,1,1,0,62384,WMM1,1458012,false,false,1916,image-keyboard-response,23
true,14,2,0,2,true,d,false,true,0.0-2.0-0.61-0.554-3.554,1,1,1,68,false,stim,false,2,577.8199999986682,1,1,1,62384,WMM1,1460103,false,false,1919,image-keyboard-response,24
true,14,2,0,2,true,d,false,true,0.0-2.0-0.61-0.555-3.555,1,1,1,68,false,stim,false,2,367.5999999977648,1,1,2,62384,WMM1,1461983,false,false,1922,image-keyboard-response,25
true,14,2,0,2,true,d,false,true,0.0-2.0-0.61-0.556-3.556,1,1,1,68,false,stim,false,2,450.85999999707565,1,1,2,62384,WMM1,1463949,false,false,1925,image-keyboard-response,26
true,14,2,0,2,true,d,false,false,0.0-2.0-0.61-0.557-3.557,1,1,1,68,false,stim,false,2,267.26999999652617,1,1,1,62384,WMM1,1465732,false,true,1928,image-keyboard-response,27
true,14,2,0,2,true,d,false,true,0.0-2.0-0.62-0.558-3.558,1,1,1,68,false,stim,false,2,544.1949999949429,1,1,2,62384,WMM1,1467791,false,false,1931,image-keyboard-response,28
true,14,2,0,1,false,z,true,true,0.0-2.0-0.62-0.559-3.559,1,1,1,68,false,stim,false,1,645.085000003688,1,1,0,62384,WMM1,1469953,false,true,1934,image-keyboard-response,29
true,14,0,0,2,false,d,true,false,0.0-2.0-0.62-0.560-3.560,1,1,1,81,false,stim,false,2,464.7899999981746,1,1,1,62384,WMM1,1471926,false,false,1937,image-keyboard-response,30
true,14,2,0,2,true,d,false,true,0.0-2.0-0.62-0.561-3.561,1,1,1,68,false,stim,false,2,726.8299999996088,1,1,2,62384,WMM1,1474168,false,false,1940,image-keyboard-response,31
true,14,1,0,2,false,d,true,false,0.0-2.0-0.62-0.562-3.562,1,1,1,90,false,stim,false,2,565.3349999992643,1,1,1,62384,WMM1,1476244,false,false,1943,image-keyboard-response,32
true,14,2,0,1,false,z,true,false,0.0-2.0-0.62-0.563-3.563,1,1,1,68,false,stim,false,1,345.75999999651685,1,1,0,62384,WMM1,1478100,false,false,1946,image-keyboard-response,33
true,14,1,0,2,false,d,true,false,0.0-2.0-0.62-0.564-3.564,1,1,1,90,false,stim,false,2,659.6099999949802,1,1,1,62384,WMM1,1480277,false,false,1949,image-keyboard-response,34
true,14,2,0,2,true,d,false,true,0.0-2.0-0.62-0.565-3.565,1,1,1,68,false,stim,false,2,606.0849999992643,1,1,2,62384,WMM1,1482397,false,false,1952,image-keyboard-response,35
true,14,0,0,1,false,z,true,false,0.0-2.0-0.62-0.566-3.566,1,1,1,81,false,stim,false,1,559.8099999986589,1,1,0,62384,WMM1,1484468,false,false,1955,image-keyboard-response,36
true,14,2,0,2,true,d,false,true,0.0-2.0-0.63-0.567-3.567,1,1,1,68,false,stim,false,2,754.0100000044331,1,1,1,62384,WMM1,1486734,false,false,1958,image-keyboard-response,37
true,14,1,0,1,true,z,false,false,0.0-2.0-0.63-0.568-3.568,1,1,1,90,false,stim,false,1,581.9400000036694,1,1,0,62384,WMM1,1488828,false,true,1961,image-keyboard-response,38
true,14,2,0,1,false,z,true,false,0.0-2.0-0.63-0.569-3.569,1,1,1,68,false,stim,false,1,512.3900000036228,1,1,0,62384,WMM1,1490852,false,false,1964,image-keyboard-response,39
true,14,2,0,2,true,d,false,true,0.0-2.0-0.63-0.570-3.570,1,1,1,68,false,stim,false,2,440.634999999078,1,1,2,62384,WMM1,1492806,false,false,1967,image-keyboard-response,40
true,14,2,0,1,false,z,true,false,0.0-2.0-0.63-0.571-3.571,1,1,1,68,false,stim,false,1,439.070000000298,1,1,0,62384,WMM1,1494761,false,false,1970,image-keyboard-response,41
true,14,2,0,2,true,d,false,true,0.0-2.0-0.63-0.572-3.572,1,1,1,68,false,stim,false,2,503.160000000149,1,1,1,62384,WMM1,1496781,false,false,1973,image-keyboard-response,42
true,14,2,0,2,true,d,false,true,0.0-2.0-0.63-0.573-3.573,1,1,1,68,false,stim,false,2,487.2899999972433,1,1,2,62384,WMM1,1498780,false,false,1976,image-keyboard-response,43
true,14,2,0,2,true,d,false,true,0.0-2.0-0.63-0.574-3.574,1,1,1,68,false,stim,false,2,516.5899999993853,1,1,2,62384,WMM1,1500812,false,false,1979,image-keyboard-response,44
true,14,2,0,2,true,d,false,true,0.0-2.0-0.63-0.575-3.575,1,1,1,68,false,stim,false,2,323.21500000404194,1,1,1,62384,WMM1,1502650,false,false,1982,image-keyboard-response,45
true,14,0,0,1,false,z,true,false,0.0-2.0-0.64-0.576-3.576,1,1,1,81,false,stim,false,1,490.74999999720603,1,1,0,62384,WMM1,1504653,false,false,1985,image-keyboard-response,46
true,14,2,0,2,true,d,false,true,0.0-2.0-0.64-0.577-3.577,1,1,1,68,false,stim,false,2,433.38999999826774,1,1,1,62384,WMM1,1506604,false,false,1988,image-keyboard-response,47
true,14,2,0,2,true,d,false,true,0.0-2.0-0.64-0.578-3.578,1,1,1,68,false,stim,false,2,392.26500000222586,1,1,2,62384,WMM1,1508513,false,false,1991,image-keyboard-response,48
true,14,2,0,2,true,d,false,true,0.0-2.0-0.64-0.579-3.579,1,1,1,68,false,stim,false,2,445.4900000055786,1,1,1,62384,WMM1,1510471,false,false,1994,image-keyboard-response,49
true,14,2,0,1,false,z,true,false,0.0-2.0-0.64-0.580-3.580,1,1,1,68,false,stim,false,1,522.9899999976624,1,1,0,62384,WMM1,1512510,false,false,1997,image-keyboard-response,50
true,14,1,0,1,true,z,false,true,0.0-2.0-0.64-0.581-3.581,1,1,1,90,false,stim,false,1,457.06999999680556,1,0,0,62384,WMM1,1514482,false,false,2000,image-keyboard-response,51
true,14,2,0,2,true,d,false,true,0.0-2.0-0.64-0.582-3.582,1,1,1,68,false,stim,false,2,465.21999999834225,1,0,2,62384,WMM1,1516471,false,false,2003,image-keyboard-response,52
true,14,2,0,2,true,d,false,false,0.0-2.0-0.64-0.583-3.583,1,1,1,68,false,stim,false,2,514.8899999987334,1,0,2,62384,WMM1,1518493,false,true,2006,image-keyboard-response,53
true,14,2,0,2,true,d,false,true,0.0-2.0-0.64-0.584-3.584,1,1,1,68,false,stim,false,2,860.4599999962375,1,1,1,62384,WMM1,1520865,false,false,2009,image-keyboard-response,54
true,14,0,0,2,false,d,true,true,0.0-2.0-0.65-0.585-3.585,1,1,1,81,false,stim,false,2,689.4699999976438,1,0,2,62384,WMM1,1523068,false,true,2012,image-keyboard-response,55
