answered,blockNum,choice,condition,corResp,correct,correct_response,explo,fb,internal_node_id,isStable_1,isStable_2,isStable_3,key_press,newBlock,part,persev,persevResp,rt,sessNum,stableAS,stimulus,subject,task,time_elapsed,training,trap,trial_index,trial_type,trialsInBlock
true,1,2,0,2,true,d,false,true,0.0-2.0-0.0-0.0-3.0,0,0,0,68,true,stim,false,-1,960.7499999999709,0,0,1,62384,WMM1,249960,false,false,109,image-keyboard-response,1
true,1,1,0,0,false,q,true,false,0.0-2.0-0.0-0.1-3.1,0,0,0,90,false,stim,false,-1,449.4349999999977,0,0,0,62384,WMM1,251919,false,false,112,image-keyboard-response,2
true,1,0,0,0,true,q,false,true,0.0-2.0-0.0-0.2-3.2,0,0,0,81,false,stim,false,-1,533.5900000000256,0,0,0,62384,WMM1,253967,false,false,115,image-keyboard-response,3
true,1,2,0,2,true,d,false,true,0.0-2.0-0.0-0.3-3.3,0,0,0,68,false,stim,false,-1,395.06500000006054,0,0,1,62384,WMM1,255874,false,false,118,image-keyboard-response,4
true,1,2,0,2,true,d,false,true,0.0-2.0-0.0-0.4-3.4,0,0,0,68,false,stim,false,-1,758.9100000000035,0,0,1,62384,WMM1,258144,false,false,121,image-keyboard-response,5
true,1,1,0,2,false,d,true,false,0.0-2.0-0.0-0.5-3.5,0,0,0,90,false,stim,false,-1,545.4050000000861,0,0,2,62384,WMM1,260203,false,false,124,image-keyboard-response,6
true,1,2,0,2,true,d,false,false,0.0-2.0-0.0-0.6-3.6,0,0,0,68,false,stim,false,-1,632.875,0,0,2,62384,WMM1,262344,false,true,127,image-keyboard-response,7
true,1,0,0,0,true,q,false,true,0.0-2.0-0.0-0.7-3.7,0,0,0,81,false,stim,false,-1,567.6200000000536,0,0,0,62384,WMM1,264420,false,false,130,image-keyboard-response,8
true,1,0,0,2,false,d,true,false,0.0-2.0-0.0-0.8-3.8,0,0,0,81,false,stim,false,-1,332.82499999995343,0,0,2,62384,WMM1,266262,false,false,133,image-keyboard-response,9
true,1,1,0,2,false,d,true,false,0.0-2.0-0.1-0.9-3.9,0,0,0,90,false,stim,false,-1,653.0750000000698,0,0,2,62384,WMM1,268424,false,false,136,image-keyboard-response,10
true,1,0,0,0,true,q,false,true,0.0-2.0-0.1-0.10-3.10,0,0,0,81,false,stim,false,-1,787.914999999979,0,0,0,62384,WMM1,270724,false,false,139,image-keyboard-response,11
true,1,0,0,0,true,q,false,true,0.0-2.0-0.1-0.11-3.11,0,0,0,81,false,stim,false,-1,449.7300000000396,0,0,0,62384,WMM1,272683,false,false,142,image-keyboard-response,12
true,1,0,0,0,true,q,false,true,0.0-2.0-0.1-0.12-3.12,0,0,0,81,false,stim,false,-1,437.71999999997206,0,0,0,62384,WMM1,274627,false,false,145,image-keyboard-response,13
true,1,1,0,2,false,d,true,false,0.0-2.0-0.1-0.13-3.13,0,0,0,90,false,stim,false,-1,642.7500000001164,0,0,1,62384,WMM1,276783,false,false,148,image-keyboard-response,14
true,1,2,0,2,true,d,false,true,0.0-2.0-0.1-0.14-3.14,0,0,0,68,false,stim,false,-1,381.01499999995576,0,0,1,62384,WMM1,278673,false,false,151,image-keyboard-response,15
true,1,2,0,2,true,d,false,true,0.0-2.0-0.1-0.15-3.15,0,0,0,68,false,stim,false,-1,685.789999999979,0,0,2,62384,WMM1,280869,false,false,154,image-keyboard-response,16
true,1,2,0,2,true,d,false,true,0.0-2.0-0.1-0.16-3.16,0,0,0,68,false,stim,false,-1,467.72999999992317,0,0,2,62384,WMM1,282847,false,false,157,image-keyboard-response,17
true,1,2,0,2,true,d,false,true,0.0-2.0-0.1-0.17-3.17,0,0,0,68,false,stim,false,-1,452.14000000001397,0,0,1,62384,WMM1,284813,false,false,160,image-keyboard-response,18
true,1,2,0,2,true,d,false,true,0.0-2.0-0.2-0.18-3.18,0,0,0,68,false,stim,false,-1,324.48499999998603,0,0,1,62384,WMM1,286651,false,false,163,image-keyboard-response,19
true,1,0,0,0,true,q,false,true,0.0-2.0-0.2-0.19-3.19,0,0,0,81,false,stim,false,-1,637.3200000000652,0,0,0,62384,WMM1,288802,false,false,166,image-keyboard-response,20
true,1,2,0,2,true,d,false,true,0.0-2.0-0.2-0.20-3.20,0,0,0,68,false,stim,false,-1,630.6050000000396,0,0,2,62384,WMM1,290945,false,false,169,image-keyboard-response,21
true,1,2,0,2,true,d,false,true,0.0-2.0-0.2-0.21-3.21,0,0,0,68,false,stim,false,-1,608.0299999999697,0,0,1,62384,WMM1,293062,false,false,172,image-keyboard-response,22
true,1,2,0,2,true,d,false,true,0.0-2.0-0.2-0.22-3.22,0,0,0,68,false,stim,false,-1,556.8550000000396,0,0,2,62384,WMM1,295125,false,false,175,image-keyboard-response,23
true,1,2,0,2,true,d,false,true,0.0-2.0-0.2-0.23-3.23,0,0,0,68,false,stim,false,-1,438.445000000007,0,0,2,62384,WMM1,297071,false,false,178,image-keyboard-response,24
true,1,2,0,2,true,d,false,true,0.0-2.0-0.2-0.24-3.24,0,0,0,68,false,stim,false,-1,613.070000000007,0,0,1,62384,WMM1,299192,false,false,181,image-keyboard-response,25
true,1,0,0,0,true,q,false,true,0.0-2.0-0.2-0.25-3.25,0,0,0,81,false,stim,false,-1,543.3899999998976,0,0,0,62384,WMM1,301244,false,false,184,image-keyboard-response,26
true,1,0,0,0,true,q,false,true,0.0-2.0-0.2-0.26-3.26,0,0,0,81,false,stim,false,-1,447.0599999999977,0,0,0,62384,WMM1,303202,false,false,187,image-keyboard-response,27
true,1,2,0,2,true,d,false,true,0.0-2.0-0.3-0.27-3.27,0,0,0,68,false,stim,false,-1,488.6900000000023,0,0,1,62384,WMM1,305201,false,false,190,image-keyboard-response,28
true,1,2,0,2,true,d,false,false,0.0-2.0-0.3-0.28-3.28,0,0,0,68,false,stim,false,-1,446.1949999999488,0,0,1,62384,WMM1,307161,false,true,193,image-keyboard-response,29
true,1,0,0,0,true,q,false,false,0.0-2.0-0.3-0.29-3.29,0,0,0,81,false,stim,false,-1,393.8850000000675,0,0,0,62384,WMM1,309061,false,true,196,image-keyboard-response,30
true,2,1,1,0,false,q,true,false,0.0-2.0-0.3-0.30-3.30,0,0,0,90,true,stim,false,2,521.9699999998556,0,0,2,62384,WMM1,311092,false,false,199,image-keyboard-response,1
true,2,0,1,1,false,z,true,false,0.0-2.0-0.3-0.31-3.31,0,0,0,81,false,stim,false,2,655.2250000000931,0,0,1,62384,WMM1,313264,false,false,202,image-keyboard-response,2
true,2,1,1,0,false,q,true,false,0.0-2.0-0.3-0.32-3.32,0,0,0,90,false,stim,false,2,744.0549999999348,0,0,2,62384,WMM1,315518,false,false,205,image-keyboard-response,3
true,2,2,1,0,false,q,false,false,0.0-2.0-0.3-0.33-3.33,0,0,0,68,false,stim,true,2,1164.274999999965,0,0,2,62384,WMM1,318191,false,false,208,image-keyboard-response,4
true,2,0,1,1,false,z,false,false,0.0-2.0-0.3-0.34-3.34,0,0,0,81,false,stim,true,0,682.9199999999837,0,0,0,62384,WMM1,320383,false,false,211,image-keyboard-response,5
true,2,0,1,1,false,z,false,false,0.0-2.0-0.3-0.35-3.35,0,0,0,81,false,stim,true,0,424.1850000001141,0,0,0,62384,WMM1,322317,false,false,214,image-keyboard-response,6
true,2,0,1,1,false,z,true,false,0.0-2.0-0.4-0.36-3.36,0,0,0,81,false,stim,false,2,478.07500000001164,0,0,1,62384,WMM1,324303,false,false,217,image-keyboard-response,7
true,2,1,1,1,true,z,false,true,0.0-2.0-0.4-0.37-3.37,0,0,0,90,false,stim,false,2,756.3549999999814,0,0,1,62384,WMM1,326570,false,false,220,image-keyboard-response,8
true,2,2,1,1,false,z,true,false,0.0-2.0-0.4-0.38-3.38,0,0,0,68,false,stim,false,0,823.8950000000186,0,0,0,62384,WMM1,328902,false,false,223,image-keyboard-response,9
true,2,1,1,1,true,z,false,true,0.0-2.0-0.4-0.39-3.39,0,0,0,90,false,stim,false,2,542.195000000007,0,0,1,62384,WMM1,330955,false,false,226,image-keyboard-response,10
true,2,1,1,1,true,z,false,true,0.0-2.0-0.4-0.40-3.40,0,0,0,90,false,stim,false,0,356.13999999995576,0,0,0,62384,WMM1,332819,false,false,229,image-keyboard-response,11
true,2,0,1,0,true,q,false,true,0.0-2.0-0.4-0.41-3.41,0,0,0,81,false,stim,false,2,1079.25,0,0,2,62384,WMM1,335406,false,false,232,image-keyboard-response,12
true,2,0,1,0,true,q,false,true,0.0-2.0-0.4-0.42-3.42,0,0,0,81,false,stim,false,2,1029.945000000007,0,0,2,62384,WMM1,337949,false,false,235,image-keyboard-response,13
true,2,1,1,1,true,z,false,true,0.0-2.0-0.4-0.43-3.43,0,0,0,90,false,stim,false,0,731.0350000000326,0,0,0,62384,WMM1,340193,false,false,238,image-keyboard-response,14
true,2,0,1,0,true,q,false,true,0.0-2.0-0.4-0.44-3.44,0,0,0,81,false,stim,false,2,693.7299999999814,0,0,2,62384,WMM1,342397,false,false,241,image-keyboard-response,15
true,2,0,1,0,true,q,false,false,0.0-2.0-0.5-0.45-3.45,0,0,0,81,false,stim,false,2,737.5050000000629,0,0,2,62384,WMM1,344647,false,true,244,image-keyboard-response,16
true,2,2,1,0,false,q,false,false,0.0-2.0-0.5-0.46-3.46,0,0,0,68,false,stim,true,2,1257.1600000000326,0,0,2,62384,WMM1,347413,false,false,247,image-keyboard-response,17
true,2,1,1,1,true,z,false,true,0.0-2.0-0.5-0.47-3.47,0,0,0,90,false,stim,false,0,423.1449999999604,0,0,0,62384,WMM1,349346,false,false,250,image-keyboard-response,18
true,2,1,1,1,true,z,false,true,0.0-2.0-0.5-0.48-3.48,0,0,0,90,false,stim,false,2,469.0650000000023,0,0,1,62384,WMM1,351330,false,false,253,image-keyboard-response,19
true,2,1,1,0,false,q,true,false,0.0-2.0-0.5-0.49-3.49,0,0,0,90,false,stim,false,2,317.0350000000326,0,0,2,62384,WMM1,353160,false,false,256,image-keyboard-response,20
true,2,1,1,1,true,z,false,true,0.0-2.0-0.5-0.50-3.50,0,0,0,90,false,stim,false,0,596.4750000000931,0,0,0,62384,WMM1,355268,false,false,259,image-keyboard-response,21
true,2,1,1,1,true,z,false,true,0.0-2.0-0.5-0.51-3.51,0,0,0,90,false,stim,false,2,542.2849999999744,0,0,1,62384,WMM1,357317,false,false,262,image-keyboard-response,22
true,2,2,1,1,false,z,true,false,0.0-2.0-0.5-0.52-3.52,0,0,0,68,false,stim,false,0,428.7849999999744,0,0,0,62384,WMM1,359258,false,false,265,image-keyboard-response,23
true,2,1,1,1,true,z,false,true,0.0-2.0-0.5-0.53-3.53,0,0,0,90,false,stim,false,2,365.5099999999511,0,0,1,62384,WMM1,361138,false,false,268,image-keyboard-response,24
true,2,1,1,0,false,q,true,false,0.0-2.0-0.6-0.54-3.54,0,0,0,90,false,stim,false,2,856.5799999998999,0,0,2,62384,WMM1,363508,false,false,271,image-keyboard-response,25
true,2,1,1,1,true,z,false,true,0.0-2.0-0.6-0.55-3.55,0,0,0,90,false,stim,false,0,465.41500000003725,0,0,0,62384,WMM1,365484,false,false,274,image-keyboard-response,26
true,2,1,1,1,true,z,false,true,0.0-2.0-0.6-0.56-3.56,0,0,0,90,false,stim,false,2,548.6399999999558,0,0,1,62384,WMM1,367547,false,false,277,image-keyboard-response,27
true,2,2,1,0,false,q,false,false,0.0-2.0-0.6-0.57-3.57,0,0,0,68,false,stim,true,2,1315.9150000000373,0,0,2,62384,WMM1,370373,false,false,280,image-keyboard-response,28
true,2,1,1,1,true,z,false,true,0.0-2.0-0.6-0.58-3.58,0,0,0,90,false,stim,false,0,767.6799999999348,0,0,0,62384,WMM1,372648,false,false,283,image-keyboard-response,29
true,2,0,1,0,true,q,false,true,0.0-2.0-0.6-0.59-3.59,0,0,0,81,false,stim,false,2,624.0150000000722,0,0,2,62384,WMM1,374784,false,false,286,image-keyboard-response,30
true,2,1,1,1,true,z,false,true,0.0-2.0-0.6-0.60-3.60,0,0,0,90,false,stim,false,2,619.5750000000698,0,0,1,62384,WMM1,376912,false,false,289,image-keyboard-response,31
true,2,1,1,1,true,z,false,true,0.0-2.0-0.6-0.61-3.61,0,0,0,90,false,stim,false,2,479.5000000000582,0,0,1,62384,WMM1,378904,false,false,292,image-keyboard-response,32
true,2,1,1,1,true,z,false,true,0.0-2.0-0.6-0.62-3.62,0,0,0,90,false,stim,false,0,535.4699999999139,0,0,0,62384,WMM1,380950,false,false,295,image-keyboard-response,33
true,2,1,1,1,true,z,false,true,0.0-2.0-0.7-0.63-3.63,0,0,0,90,false,stim,false,2,1328.2550000000047,0,0,1,62384,WMM1,383791,false,false,298,image-keyboard-response,34
true,2,1,1,1,true,z,false,false,0.0-2.0-0.7-0.64-3.64,0,0,0,90,false,stim,false,2,455.4549999998999,0,0,1,62384,WMM1,385755,false,true,301,image-keyboard-response,35
true,2,1,1,1,true,z,false,true,0.0-2.0-0.7-0.65-3.65,0,0,0,90,false,stim,false,0,493.5350000000326,0,0,0,62384,WMM1,387759,false,false,304,image-keyboard-response,36
true,2,1,1,1,true,z,false,true,0.0-2.0-0.7-0.66-3.66,0,0,0,90,false,stim,false,0,557.265000000014,0,0,0,62384,WMM1,389826,false,false,307,image-keyboard-response,37
true,2,2,1,0,false,q,false,false,0.0-2.0-0.7-0.67-3.67,0,0,0,68,false,stim,true,2,284.3050000000512,0,0,2,62384,WMM1,391621,false,false,310,image-keyboard-response,38
true,2,2,1,0,false,q,false,false,0.0-2.0-0.7-0.68-3.68,0,0,0,68,false,stim,true,2,524.3999999999651,0,0,2,62384,WMM1,393659,false,false,313,image-keyboard-response,39
true,2,1,1,1,true,z,false,true,0.0-2.0-0.7-0.69-3.69,0,0,0,90,false,stim,false,0,664.6699999999837,0,0,0,62384,WMM1,395832,false,false,316,image-keyboard-response,40
true,2,0,1,0,true,q,false,true,0.0-2.0-0.7-0.70-3.70,0,0,0,81,false,stim,false,2,1010.9899999999907,0,0,2,62384,WMM1,398352,false,false,319,image-keyboard-response,41
true,2,1,1,1,true,z,false,true,0.0-2.0-0.7-0.71-3.71,0,0,0,90,false,stim,false,2,671.3399999999674,0,0,1,62384,WMM1,400536,false,false,322,image-keyboard-response,42
true,2,0,1,0,true,q,false,true,0.0-2.0-0.8-0.72-3.72,0,0,0,81,false,stim,false,2,572.6699999999837,0,0,2,62384,WMM1,402621,false,false,325,image-keyboard-response,43
true,2,1,1,1,true,z,false,true,0.0-2.0-0.8-0.73-3.73,0,0,0,90,false,stim,false,0,1057.414999999979,0,1,0,62384,WMM1,405187,false,false,328,image-keyboard-response,44
true,2,1,1,1,true,z,false,true,0.0-2.0-0.8-0.74-3.74,0,0,0,90,false,stim,false,2,1263.1849999999977,0,0,1,62384,WMM1,407963,false,false,331,image-keyboard-response,45
true,2,0,1,0,true,q,false,true,0.0-2.0-0.8-0.75-3.75,0,0,0,81,false,stim,false,2,755.7249999999767,0,0,2,62384,WMM1,410229,false,false,334,image-keyboard-response,46
true,2,1,1,1,true,z,false,true,0.0-2.0-0.8-0.76-3.76,0,0,0,90,false,stim,false,0,709.5349999999744,0,1,0,62384,WMM1,412453,false,false,337,image-keyboard-response,47
true,2,1,1,1,true,z,false,true,0.0-2.0-0.8-0.77-3.77,0,0,0,90,false,stim,false,2,339.92499999998836,0,0,1,62384,WMM1,414306,false,false,340,image-keyboard-response,48
true,2,1,1,1,true,z,false,true,0.0-2.0-0.8-0.78-3.78,0,0,0,90,false,stim,false,0,738.9199999999837,0,1,0,62384,WMM1,416555,false,false,343,image-keyboard-response,49
true,2,0,1,0,true,q,false,true,0.0-2.0-0.8-0.79-3.79,0,0,0,81,false,stim,false,2,898.0350000000326,0,0,2,62384,WMM1,418961,false,false,346,image-keyboard-response,50
true,2,1,1,1,true,z,false,true,0.0-2.0-0.8-0.80-3.80,0,0,0,90,false,stim,false,2,380.69000000006054,0,0,1,62384,WMM1,420851,false,false,349,image-keyboard-response,51
true,2,1,1,1,true,z,false,true,0.0-2.0-0.9-0.81-3.81,0,0,0,90,false,stim,false,0,558.8150000000023,0,1,0,62384,WMM1,422925,false,false,352,image-keyboard-response,52
true,2,0,1,0,true,q,false,true,0.0-2.0-0.9-0.82-3.82,0,0,0,81,false,stim,false,2,1301.585000000021,0,0,2,62384,WMM1,425738,false,false,355,image-keyboard-response,53
true,3,1,3,0,false,q,false,false,0.0-2.0-0.9-0.83-3.83,1,0,0,90,true,stim,true,1,1143.789999999979,0,0,1,62384,WMM1,428392,false,false,358,image-keyboard-response,1
true,3,1,3,1,true,z,false,true,0.0-2.0-0.9-0.84-3.84,1,0,0,90,false,stim,false,1,404.6050000000396,0,1,0,62384,WMM1,430303,false,false,361,image-keyboard-response,2
true,3,2,3,0,false,q,true,false,0.0-2.0-0.9-0.85-3.85,1,0,0,68,false,stim,false,1,542.289999999979,0,0,1,62384,WMM1,432351,false,false,364,image-keyboard-response,3
true,3,0,3,2,false,d,false,false,0.0-2.0-0.9-0.86-3.86,1,0,0,81,false,stim,true,0,560.4599999999045,0,0,2,62384,WMM1,434423,false,false,367,image-keyboard-response,4
true,3,1,3,2,false,d,true,false,0.0-2.0-0.9-0.87-3.87,1,0,0,90,false,stim,false,0,1131.4650000000838,0,0,2,62384,WMM1,437063,false,false,370,image-keyboard-response,5
true,3,1,3,1,true,z,false,true,0.0-2.0-0.9-0.88-3.88,1,0,0,90,false,stim,false,1,1077.3099999999977,0,1,0,62384,WMM1,439650,false,false,373,image-keyboard-response,6
true,3,0,3,0,true,q,false,true,0.0-2.0-0.9-0.89-3.89,1,0,0,81,false,stim,false,1,468.3649999999325,0,0,1,62384,WMM1,441632,false,false,376,image-keyboard-response,7
true,3,0,3,0,true,q,false,true,0.0-2.0-0.10-0.90-3.90,1,0,0,81,false,stim,false,1,618.2050000000163,0,0,1,62384,WMM1,443765,false,false,379,image-keyboard-response,8
true,3,0,3,0,true,q,false,true,0.0-2.0-0.10-0.91-3.91,1,0,0,81,false,stim,false,1,494.43499999993946,0,0,1,62384,WMM1,445770,false,false,382,image-keyboard-response,9
true,3,1,3,1,true,z,false,true,0.0-2.0-0.10-0.92-3.92,1,0,0,90,false,stim,false,1,746.1499999999651,0,1,0,62384,WMM1,448022,false,false,385,image-keyboard-response,10
true,3,2,3,2,true,d,false,true,0.0-2.0-0.10-0.93-3.93,1,0,0,68,false,stim,false,0,488.10499999992317,0,0,2,62384,WMM1,450016,false,false,388,image-keyboard-response,11
true,3,0,3,0,true,q,false,true,0.0-2.0-0.10-0.94-3.94,1,0,0,81,false,stim,false,1,702.8000000000466,0,0,1,62384,WMM1,452230,false,false,391,image-keyboard-response,12
true,3,2,3,2,true,d,false,true,0.0-2.0-0.10-0.95-3.95,1,0,0,68,false,stim,false,0,542.3899999999558,0,0,2,62384,WMM1,454285,false,false,394,image-keyboard-response,13
true,3,1,3,1,true,z,false,true,0.0-2.0-0.10-0.96-3.96,1,0,0,90,false,stim,false,1,743.8600000000442,0,1,0,62384,WMM1,456539,false,false,397,image-keyboard-response,14
true,3,2,3,2,true,d,false,true,0.0-2.0-0.10-0.97-3.97,1,0,0,68,false,stim,false,0,507.27499999990687,0,0,2,62384,WMM1,458559,false,false,400,image-keyboard-response,15
true,3,1,3,1,true,z,false,true,0.0-2.0-0.10-0.98-3.98,1,0,0,90,false,stim,false,1,688.8300000000745,0,1,0,62384,WMM1,460757,false,false,403,image-keyboard-response,16
true,3,1,3,1,true,z,false,true,0.0-2.0-0.11-0.99-3.99,1,0,0,90,false,stim,false,1,518.0400000000373,0,1,0,62384,WMM1,462789,false,false,406,image-keyboard-response,17
true,3,0,3,0,true,q,false,true,0.0-2.0-0.11-0.100-3.100,1,0,0,81,false,stim,false,1,1770.4299999999348,0,0,1,62384,WMM1,466067,false,false,409,image-keyboard-response,18
true,3,2,3,2,true,d,false,true,0.0-2.0-0.11-0.101-3.101,1,0,0,68,false,stim,false,0,598.0349999999744,0,0,2,62384,WMM1,468172,false,false,412,image-keyboard-response,19
true,3,1,3,1,true,z,false,true,0.0-2.0-0.11-0.102-3.102,1,0,0,90,false,stim,false,1,667.3899999998976,0,1,0,62384,WMM1,470345,false,false,415,image-keyboard-response,20
true,3,1,3,1,true,z,false,true,0.0-2.0-0.11-0.103-3.103,1,0,0,90,false,stim,false,1,497.5650000000023,0,0,0,62384,WMM1,472352,false,false,418,image-keyboard-response,21
true,3,2,3,2,true,d,false,true,0.0-2.0-0.11-0.104-3.104,1,0,0,68,false,stim,false,0,795.0049999999464,0,0,2,62384,WMM1,474660,false,false,421,image-keyboard-response,22
true,3,2,3,2,true,d,false,false,0.0-2.0-0.11-0.105-3.105,1,0,0,68,false,stim,false,0,470.2949999999255,0,0,2,62384,WMM1,476640,false,true,424,image-keyboard-response,23
true,3,0,3,0,true,q,false,true,0.0-2.0-0.11-0.106-3.106,1,0,0,81,false,stim,false,1,971.9350000000559,0,0,1,62384,WMM1,479126,false,false,427,image-keyboard-response,24
true,3,0,3,0,true,q,false,true,0.0-2.0-0.11-0.107-3.107,1,0,0,81,false,stim,false,1,560.5799999999581,0,0,1,62384,WMM1,481195,false,false,430,image-keyboard-response,25
true,3,0,3,0,true,q,false,true,0.0-2.0-0.12-0.108-3.108,1,0,0,81,false,stim,false,1,630.890000000014,0,0,1,62384,WMM1,483331,false,false,433,image-keyboard-response,26
true,3,0,3,0,true,q,false,true,0.0-2.0-0.12-0.109-3.109,1,0,0,81,false,stim,false,1,461.6149999999325,0,0,1,62384,WMM1,485305,false,false,436,image-keyboard-response,27
true,3,0,3,2,false,d,false,false,0.0-2.0-0.12-0.110-3.110,1,0,0,81,false,stim,true,0,676.3700000000536,0,0,2,62384,WMM1,487492,false,false,439,image-keyboard-response,28
true,3,1,3,1,true,z,false,true,0.0-2.0-0.12-0.111-3.111,1,0,0,90,false,stim,false,1,386.29999999998836,0,0,0,62384,WMM1,489389,false,false,442,image-keyboard-response,29
true,3,1,3,2,false,d,true,false,0.0-2.0-0.12-0.112-3.112,1,0,0,90,false,stim,false,0,438.78000000008615,0,0,2,62384,WMM1,491339,false,false,445,image-keyboard-response,30
true,4,1,1,0,false,q,false,false,0.0-2.0-0.12-0.113-3.113,0,0,0,90,true,stim,true,1,914.7050000000163,0,0,0,62384,WMM1,493763,false,false,448,image-keyboard-response,1
true,4,0,1,0,true,q,false,true,0.0-2.0-0.12-0.114-3.114,0,0,0,81,false,stim,false,2,935.4099999999162,0,0,2,62384,WMM1,496207,false,false,451,image-keyboard-response,2
true,4,0,1,0,true,q,false,false,0.0-2.0-0.12-0.115-3.115,0,0,0,81,false,stim,false,1,696.5649999999441,0,0,0,62384,WMM1,498416,false,true,454,image-keyboard-response,3
true,4,0,1,1,false,z,false,false,0.0-2.0-0.12-0.116-3.116,0,0,0,81,false,stim,true,0,959.7100000000792,0,0,1,62384,WMM1,500889,false,false,457,image-keyboard-response,4
true,4,0,1,0,true,q,false,true,0.0-2.0-0.13-0.117-3.117,0,0,0,81,false,stim,false,2,471.2400000001071,0,0,2,62384,WMM1,502873,false,false,460,image-keyboard-response,5
true,4,1,1,1,true,z,false,true,0.0-2.0-0.13-0.118-3.118,0,0,0,90,false,stim,false,0,419.07500000006985,0,0,1,62384,WMM1,504805,false,false,463,image-keyboard-response,6
true,4,2,1,0,false,q,true,false,0.0-2.0-0.13-0.119-3.119,0,0,0,68,false,stim,false,1,965.2350000000442,0,0,0,62384,WMM1,507284,false,false,466,image-keyboard-response,7
true,4,0,1,0,true,q,false,true,0.0-2.0-0.13-0.120-3.120,0,0,0,81,false,stim,false,2,1051.7000000000116,0,0,2,62384,WMM1,509847,false,false,469,image-keyboard-response,8
true,4,1,1,0,false,q,false,false,0.0-2.0-0.13-0.121-3.121,0,0,0,90,false,stim,true,1,780.0750000000116,0,0,0,62384,WMM1,512140,false,false,472,image-keyboard-response,9
true,4,0,1,0,true,q,false,true,0.0-2.0-0.13-0.122-3.122,0,0,0,81,false,stim,false,1,692.6749999999884,0,0,0,62384,WMM1,514346,false,false,475,image-keyboard-response,10
true,4,2,1,1,false,z,true,false,0.0-2.0-0.13-0.123-3.123,0,0,0,68,false,stim,false,0,631.3999999999651,0,0,1,62384,WMM1,516487,false,false,478,image-keyboard-response,11
true,4,0,1,1,false,z,false,false,0.0-2.0-0.13-0.124-3.124,0,0,0,81,false,stim,true,0,684.4550000000745,0,0,1,62384,WMM1,518685,false,false,481,image-keyboard-response,12
true,4,0,1,0,true,q,false,false,0.0-2.0-0.13-0.125-3.125,0,0,0,81,false,stim,false,2,870.5499999999884,0,0,2,62384,WMM1,521065,false,true,484,image-keyboard-response,13
true,4,0,1,0,true,q,false,true,0.0-2.0-0.14-0.126-3.126,0,0,0,81,false,stim,false,2,551.4400000000605,0,0,2,62384,WMM1,523125,false,false,487,image-keyboard-response,14
true,4,0,1,0,true,q,false,true,0.0-2.0-0.14-0.127-3.127,0,0,0,81,false,stim,false,2,698.8499999999767,0,0,2,62384,WMM1,525333,false,false,490,image-keyboard-response,15
true,4,1,1,1,true,z,false,true,0.0-2.0-0.14-0.128-3.128,0,0,0,90,false,stim,false,0,764.0749999999534,0,0,1,62384,WMM1,527606,false,false,493,image-keyboard-response,16
true,4,1,1,1,true,z,false,true,0.0-2.0-0.14-0.129-3.129,0,0,0,90,false,stim,false,0,699.1100000001024,0,0,1,62384,WMM1,529817,false,false,496,image-keyboard-response,17
true,4,0,1,0,true,q,false,true,0.0-2.0-0.14-0.130-3.130,0,0,0,81,false,stim,false,1,617.3150000000605,0,0,0,62384,WMM1,531943,false,false,499,image-keyboard-response,18
true,4,0,1,0,true,q,false,true,0.0-2.0-0.14-0.131-3.131,0,0,0,81,false,stim,false,1,692.8800000000047,0,0,0,62384,WMM1,534153,false,false,502,image-keyboard-response,19
true,4,0,1,0,true,q,false,true,0.0-2.0-0.14-0.132-3.132,0,0,0,81,false,stim,false,1,673.6600000000326,0,0,0,62384,WMM1,536335,false,false,505,image-keyboard-response,20
true,4,1,1,0,false,q,true,false,0.0-2.0-0.14-0.133-3.133,0,0,0,90,false,stim,false,2,1018.4449999999488,0,0,2,62384,WMM1,538866,false,false,508,image-keyboard-response,21
true,4,0,1,1,false,z,false,false,0.0-2.0-0.14-0.134-3.134,0,0,0,81,false,stim,true,0,580.6300000000047,0,0,1,62384,WMM1,540954,false,false,511,image-keyboard-response,22
true,4,0,1,0,true,q,false,true,0.0-2.0-0.15-0.135-3.135,0,0,0,81,false,stim,false,2,432.2299999999814,0,0,2,62384,WMM1,542894,false,false,514,image-keyboard-response,23
true,4,2,1,1,false,z,true,false,0.0-2.0-0.15-0.136-3.136,0,0,0,68,false,stim,false,0,607.3400000000838,0,0,1,62384,WMM1,545014,false,false,517,image-keyboard-response,24
true,4,0,1,0,true,q,false,true,0.0-2.0-0.15-0.137-3.137,0,0,0,81,false,stim,false,2,926.4249999999302,0,0,2,62384,WMM1,547451,false,false,520,image-keyboard-response,25
true,4,1,1,1,true,z,false,true,0.0-2.0-0.15-0.138-3.138,0,0,0,90,false,stim,false,0,571.1700000000419,0,0,1,62384,WMM1,549528,false,false,523,image-keyboard-response,26
true,4,0,1,0,true,q,false,true,0.0-2.0-0.15-0.139-3.139,0,0,0,81,false,stim,false,2,860.7800000000279,0,0,2,62384,WMM1,551900,false,false,526,image-keyboard-response,27
true,4,2,1,0,false,q,true,false,0.0-2.0-0.15-0.140-3.140,0,0,0,68,false,stim,false,1,1147.8049999999348,0,0,0,62384,WMM1,554554,false,false,529,image-keyboard-response,28
true,4,1,1,0,false,q,false,false,0.0-2.0-0.15-0.141-3.141,0,0,0,90,false,stim,true,1,821.2700000000186,0,0,0,62384,WMM1,556882,false,false,532,image-keyboard-response,29
true,4,0,1,0,true,q,false,true,0.0-2.0-0.15-0.142-3.142,0,0,0,81,false,stim,false,1,508.5450000000419,0,0,0,62384,WMM1,558901,false,false,535,image-keyboard-response,30
true,5,0,2,0,true,q,false,true,0.0-2.0-0.15-0.143-3.143,0,0,0,81,true,stim,false,1,978.9749999999767,0,0,1,62384,WMM1,561389,false,false,538,image-keyboard-response,1
true,5,0,2,1,false,z,false,false,0.0-2.0-0.16-0.144-3.144,0,0,0,81,false,stim,true,0,655.3299999999581,0,0,0,62384,WMM1,563556,false,false,541,image-keyboard-response,2
true,5,2,2,2,true,d,false,true,0.0-2.0-0.16-0.145-3.145,0,0,0,68,false,stim,false,0,1037.3850000000093,0,0,2,62384,WMM1,566105,false,false,544,image-keyboard-response,3
true,5,0,2,0,true,q,false,true,0.0-2.0-0.16-0.146-3.146,0,0,0,81,false,stim,false,1,494.6799999999348,0,0,1,62384,WMM1,568109,false,false,547,image-keyboard-response,4
true,5,2,2,2,true,d,false,true,0.0-2.0-0.16-0.147-3.147,0,0,0,68,false,stim,false,0,766.8100000000559,0,0,2,62384,WMM1,570388,false,false,550,image-keyboard-response,5
true,5,1,2,1,true,z,false,true,0.0-2.0-0.16-0.148-3.148,0,0,0,90,false,stim,false,0,634.4649999999674,0,0,0,62384,WMM1,572531,false,false,553,image-keyboard-response,6
true,5,1,2,1,true,z,false,true,0.0-2.0-0.16-0.149-3.149,0,0,0,90,false,stim,false,0,1298.4799999999814,0,0,0,62384,WMM1,575340,false,false,556,image-keyboard-response,7
true,5,0,2,0,true,q,false,true,0.0-2.0-0.16-0.150-3.150,0,0,0,81,false,stim,false,1,1101.0699999999488,0,0,1,62384,WMM1,577953,false,false,559,image-keyboard-response,8
true,5,0,2,0,true,q,false,true,0.0-2.0-0.16-0.151-3.151,0,0,0,81,false,stim,false,1,505.16499999992084,0,0,1,62384,WMM1,579972,false,false,562,image-keyboard-response,9
true,5,2,2,2,true,d,false,true,0.0-2.0-0.16-0.152-3.152,0,0,0,68,false,stim,false,0,480.8299999999581,0,0,2,62384,WMM1,581966,false,false,565,image-keyboard-response,10
true,5,1,2,1,true,z,false,true,0.0-2.0-0.17-0.153-3.153,0,0,0,90,false,stim,false,0,524.6949999999488,0,0,0,62384,WMM1,584002,false,false,568,image-keyboard-response,11
true,5,2,2,2,true,d,false,true,0.0-2.0-0.17-0.154-3.154,0,0,0,68,false,stim,false,0,531.4950000001118,0,0,2,62384,WMM1,586043,false,false,571,image-keyboard-response,12
true,5,1,2,0,false,q,false,false,0.0-2.0-0.17-0.155-3.155,0,0,0,90,false,stim,true,1,1073.8649999999907,0,0,1,62384,WMM1,588625,false,false,574,image-keyboard-response,13
true,5,1,2,1,true,z,false,false,0.0-2.0-0.17-0.156-3.156,0,0,0,90,false,stim,false,0,1228.4499999999534,0,0,0,62384,WMM1,591367,false,true,577,image-keyboard-response,14
true,5,0,2,0,true,q,false,true,0.0-2.0-0.17-0.157-3.157,0,0,0,81,false,stim,false,1,634.9699999999721,0,0,1,62384,WMM1,593513,false,false,580,image-keyboard-response,15
true,5,2,2,2,true,d,false,true,0.0-2.0-0.17-0.158-3.158,0,0,0,68,false,stim,false,0,359.5250000000233,0,0,2,62384,WMM1,595379,false,false,583,image-keyboard-response,16
true,5,2,2,0,false,q,true,false,0.0-2.0-0.17-0.159-3.159,0,0,0,68,false,stim,false,1,504.3549999999814,0,0,1,62384,WMM1,597397,false,false,586,image-keyboard-response,17
true,5,1,2,1,true,z,false,true,0.0-2.0-0.17-0.160-3.160,0,0,0,90,false,stim,false,0,1018.5300000000279,0,0,0,62384,WMM1,599926,false,false,589,image-keyboard-response,18
true,5,2,2,2,true,d,false,true,0.0-2.0-0.17-0.161-3.161,0,0,0,68,false,stim,false,0,594.2149999999674,0,0,2,62384,WMM1,602036,false,false,592,image-keyboard-response,19
true,5,2,2,2,true,d,false,true,0.0-2.0-0.18-0.162-3.162,0,0,0,68,false,stim,false,0,450.60000000009313,0,0,2,62384,WMM1,603992,false,false,595,image-keyboard-response,20
true,5,1,2,1,true,z,false,true,0.0-2.0-0.18-0.163-3.163,0,0,0,90,false,stim,false,0,630.1699999999255,0,0,0,62384,WMM1,606138,false,false,598,image-keyboard-response,21
true,5,0,2,0,true,q,false,true,0.0-2.0-0.18-0.164-3.164,0,0,0,81,false,stim,false,1,584.464999999851,0,0,1,62384,WMM1,608239,false,false,601,image-keyboard-response,22
true,5,1,2,1,true,z,false,true,0.0-2.0-0.18-0.165-3.165,0,0,0,90,false,stim,false,0,524.015000000014,0,0,0,62384,WMM1,610274,false,false,604,image-keyboard-response,23
true,5,0,2,0,true,q,false,true,0.0-2.0-0.18-0.166-3.166,0,0,0,81,false,stim,false,1,752.359999999986,0,0,1,62384,WMM1,612538,false,false,607,image-keyboard-response,24
true,5,2,2,2,true,d,false,true,0.0-2.0-0.18-0.167-3.167,0,0,0,68,false,stim,false,0,543.5400000000373,0,0,2,62384,WMM1,614591,false,false,610,image-keyboard-response,25
true,5,1,2,1,true,z,false,true,0.0-2.0-0.18-0.168-3.168,0,0,0,90,false,stim,false,0,527.5699999999488,0,0,0,62384,WMM1,616631,false,false,613,image-keyboard-response,26
true,5,2,2,2,true,d,false,true,0.0-2.0-0.18-0.169-3.169,0,0,0,68,false,stim,false,0,545.515000000014,0,0,2,62384,WMM1,618688,false,false,616,image-keyboard-response,27
true,5,0,2,0,true,q,false,true,0.0-2.0-0.18-0.170-3.170,0,0,0,81,false,stim,false,1,450.12000000011176,0,0,1,62384,WMM1,620650,false,false,619,image-keyboard-response,28
true,5,1,2,1,true,z,false,true,0.0-2.0-0.19-0.171-3.171,0,0,0,90,false,stim,false,0,529.359999999986,0,0,0,62384,WMM1,622690,false,false,622,image-keyboard-response,29
true,5,0,2,0,true,q,false,true,0.0-2.0-0.19-0.172-3.172,0,0,0,81,false,stim,false,1,698.4749999998603,0,0,1,62384,WMM1,624902,false,false,625,image-keyboard-response,30
true,5,2,2,2,true,d,false,true,0.0-2.0-0.19-0.173-3.173,0,0,0,68,false,stim,false,0,462.16499999992084,0,0,2,62384,WMM1,626877,false,false,628,image-keyboard-response,31
true,5,0,2,0,true,q,false,true,0.0-2.0-0.19-0.174-3.174,0,0,0,81,false,stim,false,1,1037.9999999998836,0,0,1,62384,WMM1,629425,false,false,631,image-keyboard-response,32
true,5,1,2,1,true,z,false,true,0.0-2.0-0.19-0.175-3.175,0,0,0,90,false,stim,false,0,538.9750000000931,0,0,0,62384,WMM1,631471,false,false,634,image-keyboard-response,33
true,5,1,2,1,true,z,false,true,0.0-2.0-0.19-0.176-3.176,0,0,0,90,false,stim,false,0,778.0799999999581,0,0,0,62384,WMM1,633758,false,false,637,image-keyboard-response,34
true,6,2,4,1,false,z,false,false,0.0-2.0-0.19-0.177-3.177,0,0,0,68,true,stim,true,2,504.7850000000326,0,0,2,62384,WMM1,635772,false,false,640,image-keyboard-response,1
true,6,0,4,1,false,z,true,false,0.0-2.0-0.19-0.178-3.178,0,0,0,81,false,stim,false,2,873.8299999999581,0,0,2,62384,WMM1,638153,false,false,643,image-keyboard-response,2
true,6,1,4,2,false,d,true,false,0.0-2.0-0.19-0.179-3.179,0,0,0,90,false,stim,false,0,568.5949999999721,0,0,1,62384,WMM1,640231,false,false,646,image-keyboard-response,3
true,6,0,4,2,false,d,false,false,0.0-2.0-0.20-0.180-3.180,0,0,0,81,false,stim,true,0,545.0250000000233,0,0,1,62384,WMM1,642285,false,false,649,image-keyboard-response,4
true,6,2,4,2,true,d,false,true,0.0-2.0-0.20-0.181-3.181,0,0,0,68,false,stim,false,0,418.32500000006985,0,0,1,62384,WMM1,644213,false,false,652,image-keyboard-response,5
true,6,1,4,1,true,z,false,true,0.0-2.0-0.20-0.182-3.182,0,0,0,90,false,stim,false,2,422.49499999999534,0,0,2,62384,WMM1,646147,false,false,655,image-keyboard-response,6
true,6,0,4,2,false,d,true,true,0.0-2.0-0.20-0.183-3.183,0,0,0,81,false,stim,false,1,594.1150000001071,0,0,0,62384,WMM1,648255,false,true,658,image-keyboard-response,7
true,6,1,4,1,true,z,false,true,0.0-2.0-0.20-0.184-3.184,0,0,0,90,false,stim,false,2,846.375,0,0,2,62384,WMM1,650615,false,false,661,image-keyboard-response,8
true,6,1,4,1,true,z,false,true,0.0-2.0-0.20-0.185-3.185,0,0,0,90,false,stim,false,2,688.3399999999674,0,0,2,62384,WMM1,652814,false,false,664,image-keyboard-response,9
true,6,2,4,2,true,d,false,true,0.0-2.0-0.20-0.186-3.186,0,0,0,68,false,stim,false,0,875.5650000000605,0,0,1,62384,WMM1,655201,false,false,667,image-keyboard-response,10
true,6,0,4,2,false,d,true,false,0.0-2.0-0.20-0.187-3.187,0,0,0,81,false,stim,false,1,592.2099999999627,0,0,0,62384,WMM1,657305,false,false,670,image-keyboard-response,11
true,6,2,4,2,true,d,false,true,0.0-2.0-0.20-0.188-3.188,0,0,0,68,false,stim,false,1,1088.5650000000605,0,0,0,62384,WMM1,659901,false,false,673,image-keyboard-response,12
true,6,1,4,1,true,z,false,true,0.0-2.0-0.21-0.189-3.189,0,0,0,90,false,stim,false,2,547.9899999999907,0,0,2,62384,WMM1,661965,false,false,676,image-keyboard-response,13
true,6,2,4,2,true,d,false,true,0.0-2.0-0.21-0.190-3.190,0,0,0,68,false,stim,false,0,465.8049999999348,0,0,1,62384,WMM1,663939,false,false,679,image-keyboard-response,14
true,6,2,4,2,true,d,false,true,0.0-2.0-0.21-0.191-3.191,0,0,0,68,false,stim,false,1,300.98499999998603,0,0,0,62384,WMM1,665750,false,false,682,image-keyboard-response,15
true,6,2,4,2,true,d,false,true,0.0-2.0-0.21-0.192-3.192,0,0,0,68,false,stim,false,0,773.5699999999488,0,0,1,62384,WMM1,668033,false,false,685,image-keyboard-response,16
true,6,2,4,2,true,d,false,true,0.0-2.0-0.21-0.193-3.193,0,0,0,68,false,stim,false,1,697.6899999999441,0,0,0,62384,WMM1,670236,false,false,688,image-keyboard-response,17
true,6,2,4,1,false,z,false,false,0.0-2.0-0.21-0.194-3.194,0,0,0,68,false,stim,true,2,603.75,0,0,2,62384,WMM1,672347,false,false,691,image-keyboard-response,18
true,6,1,4,1,true,z,false,true,0.0-2.0-0.21-0.195-3.195,0,0,0,90,false,stim,false,2,329.52499999990687,0,0,2,62384,WMM1,674185,false,false,694,image-keyboard-response,19
true,6,2,4,2,true,d,false,true,0.0-2.0-0.21-0.196-3.196,0,0,0,68,false,stim,false,1,670.015000000014,0,0,0,62384,WMM1,676367,false,false,697,image-keyboard-response,20
true,6,2,4,2,true,d,false,true,0.0-2.0-0.21-0.197-3.197,0,0,0,68,false,stim,false,0,832.859999999986,0,0,1,62384,WMM1,678712,false,false,700,image-keyboard-response,21
true,6,1,4,2,false,d,false,false,0.0-2.0-0.22-0.198-3.198,0,0,0,90,false,stim,true,1,791.6350000001257,0,0,0,62384,WMM1,681018,false,false,703,image-keyboard-response,22
true,6,1,4,1,true,z,false,true,0.0-2.0-0.22-0.199-3.199,0,0,0,90,false,stim,false,2,1551.9449999999488,0,0,2,62384,WMM1,684081,false,false,706,image-keyboard-response,23
true,6,1,4,1,true,z,false,true,0.0-2.0-0.22-0.200-3.200,0,0,0,90,false,stim,false,2,628.1849999999395,0,0,2,62384,WMM1,686223,false,false,709,image-keyboard-response,24
true,6,1,4,1,true,z,false,false,0.0-2.0-0.22-0.201-3.201,0,0,0,90,false,stim,false,2,606.0349999999162,0,0,2,62384,WMM1,688341,false,true,712,image-keyboard-response,25
true,6,2,4,2,true,d,false,true,0.0-2.0-0.22-0.202-3.202,0,0,0,68,false,stim,false,1,1035.719999999972,0,0,0,62384,WMM1,690884,false,false,715,image-keyboard-response,26
true,6,2,4,2,true,d,false,true,0.0-2.0-0.22-0.203-3.203,0,0,0,68,false,stim,false,0,345.5200000000186,0,0,1,62384,WMM1,692742,false,false,718,image-keyboard-response,27
true,6,2,4,2,true,d,false,true,0.0-2.0-0.22-0.204-3.204,0,0,0,68,false,stim,false,0,681.9449999999488,0,0,1,62384,WMM1,694931,false,false,721,image-keyboard-response,28
true,6,2,4,2,true,d,false,true,0.0-2.0-0.22-0.205-3.205,0,0,0,68,false,stim,false,1,519.1949999999488,0,0,0,62384,WMM1,696964,false,false,724,image-keyboard-response,29
true,6,2,4,2,true,d,false,true,0.0-2.0-0.22-0.206-3.206,0,0,0,68,false,stim,false,0,539.9499999999534,0,0,1,62384,WMM1,699013,false,false,727,image-keyboard-response,30
true,6,2,4,2,true,d,false,true,0.0-2.0-0.23-0.207-3.207,0,0,0,68,false,stim,false,0,384.71999999997206,0,0,1,62384,WMM1,700910,false,false,730,image-keyboard-response,31
true,6,2,4,2,true,d,false,true,0.0-2.0-0.23-0.208-3.208,0,0,0,68,false,stim,false,1,799.5199999999022,0,0,0,62384,WMM1,703224,false,false,733,image-keyboard-response,32
true,6,0,4,1,false,z,true,false,0.0-2.0-0.23-0.209-3.209,0,0,0,81,false,stim,false,2,663.9299999999348,0,0,2,62384,WMM1,705404,false,false,736,image-keyboard-response,33
true,6,2,4,2,true,d,false,true,0.0-2.0-0.23-0.210-3.210,0,0,0,68,false,stim,false,1,571.8349999999627,0,0,0,62384,WMM1,707490,false,false,739,image-keyboard-response,34
true,6,2,4,2,true,d,false,true,0.0-2.0-0.23-0.211-3.211,0,0,0,68,false,stim,false,0,624.0849999999627,0,0,1,62384,WMM1,709629,false,false,742,image-keyboard-response,35
true,6,1,4,1,true,z,false,true,0.0-2.0-0.23-0.212-3.212,0,0,0,90,false,stim,false,2,425.1599999999162,0,0,2,62384,WMM1,711566,false,false,745,image-keyboard-response,36
true,6,2,4,2,true,d,false,true,0.0-2.0-0.23-0.213-3.213,0,0,0,68,false,stim,false,1,570.3549999999814,0,0,0,62384,WMM1,713652,false,false,748,image-keyboard-response,37
true,6,2,4,2,true,d,false,true,0.0-2.0-0.23-0.214-3.214,0,0,0,68,false,stim,false,0,266.8550000000978,0,0,1,62384,WMM1,715432,false,false,751,image-keyboard-response,38
true,6,1,4,1,true,z,false,true,0.0-2.0-0.23-0.215-3.215,0,0,0,90,false,stim,false,2,405.3400000000838,0,0,2,62384,WMM1,717354,false,false,754,image-keyboard-response,39
true,7,2,2,1,false,z,false,false,0.0-2.0-0.24-0.216-3.216,0,0,0,68,true,stim,true,2,456.91499999992084,0,0,0,62384,WMM1,719327,false,false,757,image-keyboard-response,1
true,7,2,2,0,false,q,false,false,0.0-2.0-0.24-0.217-3.217,0,0,0,68,false,stim,true,2,838.4600000000792,0,0,1,62384,WMM1,721677,false,false,760,image-keyboard-response,2
true,7,1,2,2,false,d,false,false,0.0-2.0-0.24-0.218-3.218,0,0,0,90,false,stim,true,1,363.02499999990687,0,0,2,62384,WMM1,723556,false,false,763,image-keyboard-response,3
true,7,0,2,2,false,d,true,false,0.0-2.0-0.24-0.219-3.219,0,0,0,81,false,stim,false,1,677.1499999999069,0,0,2,62384,WMM1,725744,false,false,766,image-keyboard-response,4
true,7,2,2,2,true,d,false,true,0.0-2.0-0.24-0.220-3.220,0,0,0,68,false,stim,false,1,353.59499999997206,0,0,2,62384,WMM1,727607,false,false,769,image-keyboard-response,5
true,7,0,2,0,true,q,false,true,0.0-2.0-0.24-0.221-3.221,0,0,0,81,false,stim,false,2,569.2999999999302,0,0,1,62384,WMM1,729690,false,false,772,image-keyboard-response,6
true,7,1,2,1,true,z,false,true,0.0-2.0-0.24-0.222-3.222,0,0,0,90,false,stim,false,2,410.8049999999348,0,0,0,62384,WMM1,731611,false,false,775,image-keyboard-response,7
true,7,1,2,1,true,z,false,true,0.0-2.0-0.24-0.223-3.223,0,0,0,90,false,stim,false,2,526.1000000000931,0,0,0,62384,WMM1,733653,false,false,778,image-keyboard-response,8
true,7,0,2,0,true,q,false,true,0.0-2.0-0.24-0.224-3.224,0,0,0,81,false,stim,false,2,1183.3549999999814,0,0,1,62384,WMM1,736349,false,false,781,image-keyboard-response,9
true,7,0,2,0,true,q,false,true,0.0-2.0-0.25-0.225-3.225,0,0,0,81,false,stim,false,2,463.75,0,0,1,62384,WMM1,738327,false,false,784,image-keyboard-response,10
true,7,0,2,0,true,q,false,true,0.0-2.0-0.25-0.226-3.226,0,0,0,81,false,stim,false,2,437.54999999993015,0,0,1,62384,WMM1,740275,false,false,787,image-keyboard-response,11
true,7,1,2,1,true,z,false,false,0.0-2.0-0.25-0.227-3.227,0,0,0,90,false,stim,false,2,670.2050000000745,0,0,0,62384,WMM1,742457,false,true,790,image-keyboard-response,12
true,7,1,2,2,false,d,false,false,0.0-2.0-0.25-0.228-3.228,0,0,0,90,false,stim,true,1,729.0400000000373,0,0,2,62384,WMM1,744695,false,false,793,image-keyboard-response,13
true,7,2,2,1,false,z,false,false,0.0-2.0-0.25-0.229-3.229,0,0,0,68,false,stim,true,2,513.729999999865,0,0,0,62384,WMM1,746714,false,false,796,image-keyboard-response,14
true,7,0,2,2,false,d,true,false,0.0-2.0-0.25-0.230-3.230,0,0,0,81,false,stim,false,1,709.940000000177,0,0,2,62384,WMM1,748937,false,false,799,image-keyboard-response,15
true,7,0,2,0,true,q,false,false,0.0-2.0-0.25-0.231-3.231,0,0,0,81,false,stim,false,2,737.2550000000047,0,0,1,62384,WMM1,751193,false,true,802,image-keyboard-response,16
true,7,1,2,1,true,z,false,true,0.0-2.0-0.25-0.232-3.232,0,0,0,90,false,stim,false,2,710.5949999999721,0,0,0,62384,WMM1,753417,false,false,805,image-keyboard-response,17
true,7,2,2,2,true,d,false,false,0.0-2.0-0.25-0.233-3.233,0,0,0,68,false,stim,false,1,509.36999999999534,0,0,2,62384,WMM1,755437,false,true,808,image-keyboard-response,18
true,7,0,2,2,false,d,true,false,0.0-2.0-0.26-0.234-3.234,0,0,0,81,false,stim,false,1,473.1149999999907,0,0,2,62384,WMM1,757417,false,false,811,image-keyboard-response,19
true,7,1,2,1,true,z,false,true,0.0-2.0-0.26-0.235-3.235,0,0,0,90,false,stim,false,2,802.0150000001304,0,0,0,62384,WMM1,759732,false,false,814,image-keyboard-response,20
true,7,1,2,2,false,d,false,false,0.0-2.0-0.26-0.236-3.236,0,0,0,90,false,stim,true,1,573.9150000001537,0,0,2,62384,WMM1,761820,false,false,817,image-keyboard-response,21
true,7,1,2,1,true,z,false,true,0.0-2.0-0.26-0.237-3.237,0,0,0,90,false,stim,false,2,472.2850000000326,0,0,0,62384,WMM1,763800,false,false,820,image-keyboard-response,22
true,7,1,2,2,false,d,false,false,0.0-2.0-0.26-0.238-3.238,0,0,0,90,false,stim,true,1,536.8399999999674,0,0,2,62384,WMM1,765845,false,false,823,image-keyboard-response,23
true,7,0,2,0,true,q,false,true,0.0-2.0-0.26-0.239-3.239,0,0,0,81,false,stim,false,2,735.3749999998836,0,0,1,62384,WMM1,768091,false,false,826,image-keyboard-response,24
true,7,1,2,1,true,z,false,false,0.0-2.0-0.26-0.240-3.240,0,0,0,90,false,stim,false,2,732.9549999999581,0,0,0,62384,WMM1,770335,false,true,829,image-keyboard-response,25
true,7,0,2,0,true,q,false,true,0.0-2.0-0.26-0.241-3.241,0,0,0,81,false,stim,false,2,385.8299999999581,0,0,1,62384,WMM1,772233,false,false,832,image-keyboard-response,26
true,7,0,2,0,true,q,false,true,0.0-2.0-0.26-0.242-3.242,0,0,0,81,false,stim,false,2,663.1299999998882,0,0,1,62384,WMM1,774411,false,false,835,image-keyboard-response,27
true,7,0,2,0,true,q,false,true,0.0-2.0-0.27-0.243-3.243,0,0,0,81,false,stim,false,2,394.87000000011176,0,0,1,62384,WMM1,776318,false,false,838,image-keyboard-response,28
true,7,2,2,1,false,z,false,true,0.0-2.0-0.27-0.244-3.244,0,0,0,68,false,stim,true,2,600.0649999999441,0,0,0,62384,WMM1,778435,false,true,841,image-keyboard-response,29
true,7,1,2,2,false,d,false,true,0.0-2.0-0.27-0.245-3.245,0,0,0,90,false,stim,true,1,771.5499999999302,0,0,2,62384,WMM1,780716,false,true,844,image-keyboard-response,30
true,7,1,2,2,false,d,false,false,0.0-2.0-0.27-0.246-3.246,0,0,0,90,false,stim,true,1,950.109999999986,0,0,2,62384,WMM1,783172,false,false,847,image-keyboard-response,31
true,7,0,2,0,true,q,false,true,0.0-2.0-0.27-0.247-3.247,0,0,0,81,false,stim,false,2,500.91500000003725,0,0,1,62384,WMM1,785183,false,false,850,image-keyboard-response,32
true,7,2,2,1,false,z,false,false,0.0-2.0-0.27-0.248-3.248,0,0,0,68,false,stim,true,2,442.2399999999907,0,0,0,62384,WMM1,787134,false,false,853,image-keyboard-response,33
true,7,2,2,2,true,d,false,true,0.0-2.0-0.27-0.249-3.249,0,0,0,68,false,stim,false,1,1009.6549999997951,0,0,2,62384,WMM1,789660,false,false,856,image-keyboard-response,34
true,7,0,2,0,true,q,false,true,0.0-2.0-0.27-0.250-3.250,0,0,0,81,false,stim,false,2,1740.9299999999348,0,0,1,62384,WMM1,792914,false,false,859,image-keyboard-response,35
true,7,1,2,1,true,z,false,true,0.0-2.0-0.27-0.251-3.251,0,0,0,90,false,stim,false,2,512.4399999999441,0,0,0,62384,WMM1,794935,false,false,862,image-keyboard-response,36
true,7,2,2,2,true,d,false,true,0.0-2.0-0.28-0.252-3.252,0,0,0,68,false,stim,false,1,466.67499999993015,0,0,2,62384,WMM1,796911,false,false,865,image-keyboard-response,37
true,7,0,2,0,true,q,false,true,0.0-2.0-0.28-0.253-3.253,0,0,0,81,false,stim,false,2,569.9399999998277,0,0,1,62384,WMM1,798993,false,false,868,image-keyboard-response,38
true,7,2,2,2,true,d,false,true,0.0-2.0-0.28-0.254-3.254,0,0,0,68,false,stim,false,1,591.4950000001118,0,0,2,62384,WMM1,801094,false,false,871,image-keyboard-response,39
true,7,1,2,1,true,z,false,true,0.0-2.0-0.28-0.255-3.255,0,0,0,90,false,stim,false,2,650.4549999999581,0,0,0,62384,WMM1,803257,false,false,874,image-keyboard-response,40
true,7,1,2,1,true,z,false,true,0.0-2.0-0.28-0.256-3.256,0,0,0,90,false,stim,false,2,456.5250000001397,0,1,0,62384,WMM1,805223,false,false,877,image-keyboard-response,41
true,7,2,2,0,false,q,false,false,0.0-2.0-0.28-0.257-3.257,0,0,0,68,false,stim,true,2,1002.7750000001397,0,0,1,62384,WMM1,807740,false,false,880,image-keyboard-response,42
true,7,2,2,2,true,d,false,true,0.0-2.0-0.28-0.258-3.258,0,0,0,68,false,stim,false,1,539.7899999998044,0,0,2,62384,WMM1,809791,false,false,883,image-keyboard-response,43
true,7,0,2,0,true,q,false,true,0.0-2.0-0.28-0.259-3.259,0,0,0,81,false,stim,false,2,375.2400000001071,0,0,1,62384,WMM1,811674,false,false,886,image-keyboard-response,44
true,7,1,2,1,true,z,false,true,0.0-2.0-0.28-0.260-3.260,0,0,0,90,false,stim,false,2,363.39000000001397,0,1,0,62384,WMM1,813550,false,false,889,image-keyboard-response,45
true,7,0,2,0,true,q,false,true,0.0-2.0-0.29-0.261-3.261,0,0,0,81,false,stim,false,2,802.2050000001909,0,0,1,62384,WMM1,815867,false,false,892,image-keyboard-response,46
true,7,1,2,1,true,z,false,false,0.0-2.0-0.29-0.262-3.262,0,0,0,90,false,stim,false,2,653.7750000000233,0,1,0,62384,WMM1,818033,false,true,895,image-keyboard-response,47
true,7,0,2,0,true,q,false,false,0.0-2.0-0.29-0.263-3.263,0,0,0,81,false,stim,false,2,690.0450000000419,0,0,1,62384,WMM1,820237,false,true,898,image-keyboard-response,48
true,7,2,2,2,true,d,false,true,0.0-2.0-0.29-0.264-3.264,0,0,0,68,false,stim,false,1,460.46999999997206,0,0,2,62384,WMM1,822214,false,false,901,image-keyboard-response,49
true,7,2,2,2,true,d,false,true,0.0-2.0-0.29-0.265-3.265,0,0,0,68,false,stim,false,1,434.1049999999814,0,0,2,62384,WMM1,824163,false,false,904,image-keyboard-response,50
true,8,2,3,1,false,z,true,false,0.0-2.0-0.29-0.266-3.266,1,0,0,68,true,stim,false,1,1460.630000000121,0,1,0,62384,WMM1,827133,false,false,907,image-keyboard-response,1
true,8,2,3,0,false,q,false,false,0.0-2.0-0.29-0.267-3.267,1,0,0,68,false,stim,true,2,813.625,0,0,2,62384,WMM1,829457,false,false,910,image-keyboard-response,2
true,8,1,3,2,false,d,true,false,0.0-2.0-0.29-0.268-3.268,1,0,0,90,false,stim,false,0,909.0949999999721,0,0,1,62384,WMM1,831876,false,false,913,image-keyboard-response,3
true,8,1,3,1,true,z,false,false,0.0-2.0-0.29-0.269-3.269,1,0,0,90,false,stim,false,1,410.4799999999814,0,1,0,62384,WMM1,833798,false,true,916,image-keyboard-response,4
true,8,1,3,0,false,q,true,true,0.0-2.0-0.30-0.270-3.270,1,0,0,90,false,stim,false,2,533.0200000000186,0,0,2,62384,WMM1,835843,false,true,919,image-keyboard-response,5
true,8,0,3,2,false,d,false,false,0.0-2.0-0.30-0.271-3.271,1,0,0,81,false,stim,true,0,661.2199999998556,0,0,1,62384,WMM1,838016,false,false,922,image-keyboard-response,6
true,8,1,3,1,true,z,false,false,0.0-2.0-0.30-0.272-3.272,1,0,0,90,false,stim,false,1,716.3799999997718,0,1,0,62384,WMM1,840243,false,true,925,image-keyboard-response,7
true,8,2,3,2,true,d,false,true,0.0-2.0-0.30-0.273-3.273,1,0,0,68,false,stim,false,0,572.6150000001071,0,0,1,62384,WMM1,842326,false,false,928,image-keyboard-response,8
true,8,1,3,0,false,q,true,false,0.0-2.0-0.30-0.274-3.274,1,0,0,90,false,stim,false,2,1465.1750000000466,0,0,2,62384,WMM1,845301,false,false,931,image-keyboard-response,9
true,8,2,3,2,true,d,false,true,0.0-2.0-0.30-0.275-3.275,1,0,0,68,false,stim,false,0,867.5550000000512,0,0,1,62384,WMM1,847675,false,false,934,image-keyboard-response,10
true,8,0,3,1,false,z,true,false,0.0-2.0-0.30-0.276-3.276,1,0,0,81,false,stim,false,1,696.2450000001118,0,1,0,62384,WMM1,849881,false,false,937,image-keyboard-response,11
true,8,2,3,0,false,q,false,false,0.0-2.0-0.30-0.277-3.277,1,0,0,68,false,stim,true,2,502.90500000002794,0,0,2,62384,WMM1,851893,false,false,940,image-keyboard-response,12
true,8,1,3,1,true,z,false,true,0.0-2.0-0.30-0.278-3.278,1,0,0,90,false,stim,false,1,645.5649999998277,0,1,0,62384,WMM1,854052,false,false,943,image-keyboard-response,13
true,8,1,3,0,false,q,true,false,0.0-2.0-0.31-0.279-3.279,1,0,0,90,false,stim,false,2,665.7350000001024,0,0,2,62384,WMM1,856232,false,false,946,image-keyboard-response,14
true,8,1,3,1,true,z,false,true,0.0-2.0-0.31-0.280-3.280,1,0,0,90,false,stim,false,1,648.6249999998836,0,1,0,62384,WMM1,858391,false,false,949,image-keyboard-response,15
true,8,1,3,1,true,z,false,true,0.0-2.0-0.31-0.281-3.281,1,0,0,90,false,stim,false,1,921.5649999999441,0,1,0,62384,WMM1,860827,false,false,952,image-keyboard-response,16
true,8,1,3,1,true,z,false,true,0.0-2.0-0.31-0.282-3.282,1,0,0,90,false,stim,false,1,473.71999999997206,0,1,0,62384,WMM1,862811,false,false,955,image-keyboard-response,17
true,8,2,3,0,false,q,false,false,0.0-2.0-0.31-0.283-3.283,1,0,0,68,false,stim,true,2,658.9649999999674,0,0,2,62384,WMM1,864982,false,false,958,image-keyboard-response,18
true,8,2,3,2,true,d,false,true,0.0-2.0-0.31-0.284-3.284,1,0,0,68,false,stim,false,0,732.9449999999488,0,0,1,62384,WMM1,867226,false,false,961,image-keyboard-response,19
true,8,0,3,0,true,q,false,false,0.0-2.0-0.31-0.285-3.285,1,0,0,81,false,stim,false,2,771.3950000000186,0,0,2,62384,WMM1,869515,false,true,964,image-keyboard-response,20
true,8,2,3,2,true,d,false,true,0.0-2.0-0.31-0.286-3.286,1,0,0,68,false,stim,false,0,652.734999999986,0,0,1,62384,WMM1,871676,false,false,967,image-keyboard-response,21
true,8,2,3,2,true,d,false,true,0.0-2.0-0.31-0.287-3.287,1,0,0,68,false,stim,false,0,736.5350000000326,0,0,1,62384,WMM1,873924,false,false,970,image-keyboard-response,22
true,8,2,3,2,true,d,false,true,0.0-2.0-0.32-0.288-3.288,1,0,0,68,false,stim,false,0,406.92500000004657,0,0,1,62384,WMM1,875844,false,false,973,image-keyboard-response,23
true,8,2,3,0,false,q,false,false,0.0-2.0-0.32-0.289-3.289,1,0,0,68,false,stim,true,2,544.5849999998463,0,0,2,62384,WMM1,877902,false,false,976,image-keyboard-response,24
true,8,1,3,1,true,z,false,true,0.0-2.0-0.32-0.290-3.290,1,0,0,90,false,stim,false,1,695.6249999997672,0,1,0,62384,WMM1,880109,false,false,979,image-keyboard-response,25
true,8,1,3,1,true,z,false,true,0.0-2.0-0.32-0.291-3.291,1,0,0,90,false,stim,false,1,478.39999999990687,0,1,0,62384,WMM1,882099,false,false,982,image-keyboard-response,26
true,8,2,3,2,true,d,false,true,0.0-2.0-0.32-0.292-3.292,1,0,0,68,false,stim,false,0,490.28000000002794,0,0,1,62384,WMM1,884103,false,false,985,image-keyboard-response,27
true,8,1,3,0,false,q,true,false,0.0-2.0-0.32-0.293-3.293,1,0,0,90,false,stim,false,2,981.9349999999395,0,0,2,62384,WMM1,886593,false,false,988,image-keyboard-response,28
true,8,1,3,1,true,z,false,true,0.0-2.0-0.32-0.294-3.294,1,0,0,90,false,stim,false,1,747.395000000135,0,1,0,62384,WMM1,888850,false,false,991,image-keyboard-response,29
true,8,2,3,2,true,d,false,true,0.0-2.0-0.32-0.295-3.295,1,0,0,68,false,stim,false,0,664.190000000177,0,0,1,62384,WMM1,891028,false,false,994,image-keyboard-response,30
true,8,2,3,0,false,q,false,false,0.0-2.0-0.32-0.296-3.296,1,0,0,68,false,stim,true,2,374.75500000000466,0,0,2,62384,WMM1,892916,false,false,997,image-keyboard-response,31
true,8,1,3,1,true,z,false,true,0.0-2.0-0.33-0.297-3.297,1,0,0,90,false,stim,false,1,378.6700000000419,0,1,0,62384,WMM1,894802,false,false,1000,image-keyboard-response,32
true,8,2,3,0,false,q,false,false,0.0-2.0-0.33-0.298-3.298,1,0,0,68,false,stim,true,2,559.7349999997532,0,0,2,62384,WMM1,896880,false,false,1003,image-keyboard-response,33
true,8,0,3,1,false,z,true,false,0.0-2.0-0.33-0.299-3.299,1,0,0,81,false,stim,false,1,508.20000000006985,0,1,0,62384,WMM1,898903,false,false,1006,image-keyboard-response,34
true,8,1,3,2,false,d,true,false,0.0-2.0-0.33-0.300-3.300,1,0,0,90,false,stim,false,0,349.85999999998603,0,0,1,62384,WMM1,900763,false,false,1009,image-keyboard-response,35
true,8,1,3,2,false,d,true,false,0.0-2.0-0.33-0.301-3.301,1,0,0,90,false,stim,false,0,94.7850000000326,0,0,1,62384,WMM1,902375,false,false,1012,image-keyboard-response,36
true,8,2,3,2,true,d,false,true,0.0-2.0-0.33-0.302-3.302,1,0,0,68,false,stim,false,0,262.8149999999441,0,0,1,62384,WMM1,904155,false,false,1015,image-keyboard-response,37
true,8,0,3,1,false,z,true,true,0.0-2.0-0.33-0.303-3.303,1,0,0,81,false,stim,false,1,720.3850000001257,0,1,0,62384,WMM1,906390,false,true,1018,image-keyboard-response,38
true,8,1,3,0,false,q,true,false,0.0-2.0-0.33-0.304-3.304,1,0,0,90,false,stim,false,2,409.4199999999255,0,0,2,62384,WMM1,908310,false,false,1021,image-keyboard-response,39
true,8,2,3,0,false,q,false,false,0.0-2.0-0.33-0.305-3.305,1,0,0,68,false,stim,true,2,1489.7399999999907,0,0,2,62384,WMM1,911311,false,false,1024,image-keyboard-response,40
true,8,0,3,1,false,z,true,false,0.0-2.0-0.34-0.306-3.306,1,0,0,81,false,stim,false,1,1115.8850000002421,0,1,0,62384,WMM1,913936,false,false,1027,image-keyboard-response,41
true,8,1,3,1,true,z,false,true,0.0-2.0-0.34-0.307-3.307,1,0,0,90,false,stim,false,1,1205.8199999999488,0,1,0,62384,WMM1,916656,false,false,1030,image-keyboard-response,42
true,8,2,3,0,false,q,false,false,0.0-2.0-0.34-0.308-3.308,1,0,0,68,false,stim,true,2,557.4150000000373,0,0,2,62384,WMM1,918724,false,false,1033,image-keyboard-response,43
true,8,0,3,2,false,d,false,false,0.0-2.0-0.34-0.309-3.309,1,0,0,81,false,stim,true,0,763.6000000000931,0,0,1,62384,WMM1,921000,false,false,1036,image-keyboard-response,44
true,8,1,3,0,false,q,true,false,0.0-2.0-0.34-0.310-3.310,1,0,0,90,false,stim,false,2,1166.359999999986,0,0,2,62384,WMM1,923676,false,false,1039,image-keyboard-response,45
true,8,2,3,2,true,d,false,true,0.0-2.0-0.34-0.311-3.311,1,0,0,68,false,stim,false,0,1994.204999999958,0,0,1,62384,WMM1,927184,false,false,1042,image-keyboard-response,46
true,8,1,3,1,true,z,false,true,0.0-2.0-0.34-0.312-3.312,1,0,0,90,false,stim,false,1,1127.1299999997718,0,1,0,62384,WMM1,929829,false,false,1045,image-keyboard-response,47
true,8,2,3,0,false,q,false,false,0.0-2.0-0.34-0.313-3.313,1,0,0,68,false,stim,true,2,634.8049999999348,0,0,2,62384,WMM1,931977,false,false,1048,image-keyboard-response,48
true,8,2,3,2,true,d,false,true,0.0-2.0-0.34-0.314-3.314,1,0,0,68,false,stim,false,0,731.0700000000652,0,0,1,62384,WMM1,934222,false,false,1051,image-keyboard-response,49
true,8,1,3,1,true,z,false,true,0.0-2.0-0.35-0.315-3.315,1,0,0,90,false,stim,false,1,627.3450000000885,0,1,0,62384,WMM1,936363,false,false,1054,image-keyboard-response,50
true,8,2,3,2,true,d,false,true,0.0-2.0-0.35-0.316-3.316,1,0,0,68,false,stim,false,0,652.0999999999767,0,0,1,62384,WMM1,938528,false,false,1057,image-keyboard-response,51
true,8,1,3,1,true,z,false,true,0.0-2.0-0.35-0.317-3.317,1,0,0,90,false,stim,false,1,526.8450000000885,0,0,0,62384,WMM1,940569,false,false,1060,image-keyboard-response,52
true,8,2,3,0,false,q,false,false,0.0-2.0-0.35-0.318-3.318,1,0,0,68,false,stim,true,2,341.99499999999534,0,1,2,62384,WMM1,942425,false,false,1063,image-keyboard-response,53
true,8,0,3,0,true,q,false,true,0.0-2.0-0.35-0.319-3.319,1,0,0,81,false,stim,false,2,383.06999999983236,0,1,2,62384,WMM1,944321,false,false,1066,image-keyboard-response,54
true,8,1,3,1,true,z,false,true,0.0-2.0-0.35-0.320-3.320,1,0,0,90,false,stim,false,1,624.7299999999814,0,0,0,62384,WMM1,946460,false,false,1069,image-keyboard-response,55
true,8,2,3,2,true,d,false,true,0.0-2.0-0.35-0.321-3.321,1,0,0,68,false,stim,false,0,470.2249999999767,0,0,1,62384,WMM1,948441,false,false,1072,image-keyboard-response,56
true,8,2,3,2,true,d,false,true,0.0-2.0-0.35-0.322-3.322,1,0,0,68,false,stim,false,0,636.8999999999069,0,0,1,62384,WMM1,950591,false,false,1075,image-keyboard-response,57
true,8,0,3,0,true,q,false,true,0.0-2.0-0.35-0.323-3.323,1,0,0,81,false,stim,false,2,589.359999999986,0,1,2,62384,WMM1,952691,false,false,1078,image-keyboard-response,58
true,8,2,3,0,false,q,false,false,0.0-2.0-0.36-0.324-3.324,1,0,0,68,false,stim,true,2,1312.0149999998976,0,1,2,62384,WMM1,955517,false,false,1081,image-keyboard-response,59
true,8,2,3,2,true,d,false,true,0.0-2.0-0.36-0.325-3.325,1,0,0,68,false,stim,false,0,704.0300000001444,0,0,1,62384,WMM1,957733,false,false,1084,image-keyboard-response,60
true,9,0,3,0,true,q,false,true,0.0-2.0-0.36-0.326-3.326,0,0,1,81,true,stim,false,0,457.21999999997206,0,1,2,62384,WMM1,959702,false,false,1087,image-keyboard-response,1
true,9,1,3,2,false,d,false,false,0.0-2.0-0.36-0.327-3.327,0,0,1,90,false,stim,true,1,578.1299999997718,0,0,0,62384,WMM1,961795,false,false,1090,image-keyboard-response,2
true,9,2,3,1,false,z,false,false,0.0-2.0-0.36-0.328-3.328,0,0,1,68,false,stim,true,2,1317.9350000000559,0,0,1,62384,WMM1,964623,false,false,1093,image-keyboard-response,3
true,9,0,3,2,false,d,true,false,0.0-2.0-0.36-0.329-3.329,0,0,1,81,false,stim,false,1,675.7949999998091,0,0,0,62384,WMM1,966813,false,false,1096,image-keyboard-response,4
true,9,0,3,0,true,q,false,true,0.0-2.0-0.36-0.330-3.330,0,0,1,81,false,stim,false,0,991.8549999999814,0,1,2,62384,WMM1,969315,false,false,1099,image-keyboard-response,5
true,9,0,3,1,false,z,true,false,0.0-2.0-0.36-0.331-3.331,0,0,1,81,false,stim,false,2,381.8550000000978,0,0,1,62384,WMM1,971208,false,false,1102,image-keyboard-response,6
true,9,1,3,2,false,d,false,false,0.0-2.0-0.36-0.332-3.332,0,0,1,90,false,stim,true,1,977.4699999999721,0,0,0,62384,WMM1,973693,false,false,1105,image-keyboard-response,7
true,9,2,3,2,true,d,false,true,0.0-2.0-0.37-0.333-3.333,0,0,1,68,false,stim,false,1,535.589999999851,0,0,0,62384,WMM1,975742,false,false,1108,image-keyboard-response,8
true,9,0,3,0,true,q,false,true,0.0-2.0-0.37-0.334-3.334,0,0,1,81,false,stim,false,0,688.984999999986,0,1,2,62384,WMM1,977941,false,false,1111,image-keyboard-response,9
true,9,1,3,1,true,z,false,true,0.0-2.0-0.37-0.335-3.335,0,0,1,90,false,stim,false,2,773.7999999999302,0,0,1,62384,WMM1,980223,false,false,1114,image-keyboard-response,10
true,9,1,3,1,true,z,false,false,0.0-2.0-0.37-0.336-3.336,0,0,1,90,false,stim,false,2,680.5950000000885,0,0,1,62384,WMM1,982413,false,true,1117,image-keyboard-response,11
true,9,0,3,1,false,z,true,true,0.0-2.0-0.37-0.337-3.337,0,0,1,81,false,stim,false,2,864.6350000000093,0,0,1,62384,WMM1,984787,false,true,1120,image-keyboard-response,12
true,9,2,3,2,true,d,false,true,0.0-2.0-0.37-0.338-3.338,0,0,1,68,false,stim,false,1,518.6850000000559,0,0,0,62384,WMM1,986816,false,false,1123,image-keyboard-response,13
true,9,0,3,0,true,q,false,true,0.0-2.0-0.37-0.339-3.339,0,0,1,81,false,stim,false,0,659.6600000000326,0,1,2,62384,WMM1,988986,false,false,1126,image-keyboard-response,14
true,9,0,3,0,true,q,false,true,0.0-2.0-0.37-0.340-3.340,0,0,1,81,false,stim,false,0,585.6750000000466,0,1,2,62384,WMM1,991084,false,false,1129,image-keyboard-response,15
true,9,2,3,2,true,d,false,true,0.0-2.0-0.37-0.341-3.341,0,0,1,68,false,stim,false,1,1006.7350000002189,0,0,0,62384,WMM1,993600,false,false,1132,image-keyboard-response,16
true,9,1,3,1,true,z,false,true,0.0-2.0-0.38-0.342-3.342,0,0,1,90,false,stim,false,2,1015.160000000149,0,0,1,62384,WMM1,996132,false,false,1135,image-keyboard-response,17
true,9,2,3,2,true,d,false,true,0.0-2.0-0.38-0.343-3.343,0,0,1,68,false,stim,false,1,869.4500000001863,0,0,0,62384,WMM1,998512,false,false,1138,image-keyboard-response,18
true,9,0,3,0,true,q,false,true,0.0-2.0-0.38-0.344-3.344,0,0,1,81,false,stim,false,0,778.2999999999302,0,1,2,62384,WMM1,1000799,false,false,1141,image-keyboard-response,19
true,9,1,3,1,true,z,false,true,0.0-2.0-0.38-0.345-3.345,0,0,1,90,false,stim,false,2,404.63000000000466,0,0,1,62384,WMM1,1002714,false,false,1144,image-keyboard-response,20
true,9,0,3,0,true,q,false,true,0.0-2.0-0.38-0.346-3.346,0,0,1,81,false,stim,false,0,829.7800000000279,0,0,2,62384,WMM1,1005059,false,false,1147,image-keyboard-response,21
true,9,2,3,2,true,d,false,false,0.0-2.0-0.38-0.347-3.347,0,0,1,68,false,stim,false,1,615.8149999998277,0,0,0,62384,WMM1,1007187,false,true,1150,image-keyboard-response,22
true,9,0,3,1,false,z,true,false,0.0-2.0-0.38-0.348-3.348,0,0,1,81,false,stim,false,2,680.1650000000373,0,0,1,62384,WMM1,1009381,false,false,1153,image-keyboard-response,23
true,9,1,3,2,false,d,false,false,0.0-2.0-0.38-0.349-3.349,0,0,1,90,false,stim,true,1,1025.214999999851,0,0,0,62384,WMM1,1011920,false,false,1156,image-keyboard-response,24
true,9,0,3,0,true,q,false,true,0.0-2.0-0.38-0.350-3.350,0,0,1,81,false,stim,false,0,1092.2150000000838,0,0,2,62384,WMM1,1014521,false,false,1159,image-keyboard-response,25
true,9,1,3,1,true,z,false,true,0.0-2.0-0.39-0.351-3.351,0,0,1,90,false,stim,false,2,810.3999999999069,0,0,1,62384,WMM1,1016841,false,false,1162,image-keyboard-response,26
true,9,0,3,0,true,q,false,true,0.0-2.0-0.39-0.352-3.352,0,0,1,81,false,stim,false,0,602.4699999999721,0,0,2,62384,WMM1,1018957,false,false,1165,image-keyboard-response,27
true,9,0,3,2,false,d,true,false,0.0-2.0-0.39-0.353-3.353,0,0,1,81,false,stim,false,1,507.11999999999534,0,0,0,62384,WMM1,1020973,false,false,1168,image-keyboard-response,28
true,9,1,3,0,false,q,true,true,0.0-2.0-0.39-0.354-3.354,0,0,1,90,false,stim,false,0,805.2500000001164,0,0,2,62384,WMM1,1023289,false,true,1171,image-keyboard-response,29
true,9,1,3,0,false,q,true,true,0.0-2.0-0.39-0.355-3.355,0,0,1,90,false,stim,false,0,482.2850000000326,0,0,2,62384,WMM1,1025285,false,true,1174,image-keyboard-response,30
true,10,0,2,1,false,z,true,false,0.0-2.0-0.39-0.356-3.356,0,0,0,81,true,stim,false,2,2743.980000000098,0,0,0,62384,WMM1,1029544,false,false,1177,image-keyboard-response,1
true,10,2,2,0,false,q,true,false,0.0-2.0-0.39-0.357-3.357,0,0,0,68,false,stim,false,1,725.609999999986,0,0,1,62384,WMM1,1031780,false,false,1180,image-keyboard-response,2
true,10,0,2,0,true,q,false,true,0.0-2.0-0.39-0.358-3.358,0,0,0,81,false,stim,false,1,440.5699999999488,0,0,1,62384,WMM1,1033731,false,false,1183,image-keyboard-response,3
true,10,1,2,1,true,z,false,true,0.0-2.0-0.39-0.359-3.359,0,0,0,90,false,stim,false,2,808.5749999999534,0,0,0,62384,WMM1,1036055,false,false,1186,image-keyboard-response,4
true,10,0,2,0,true,q,false,true,0.0-2.0-0.40-0.360-3.360,0,0,0,81,false,stim,false,1,697.6850000000559,0,0,1,62384,WMM1,1038264,false,false,1189,image-keyboard-response,5
true,10,1,2,1,true,z,false,true,0.0-2.0-0.40-0.361-3.361,0,0,0,90,false,stim,false,2,802.4149999998044,0,0,0,62384,WMM1,1040580,false,false,1192,image-keyboard-response,6
true,10,1,2,2,false,d,true,false,0.0-2.0-0.40-0.362-3.362,0,0,0,90,false,stim,false,0,1070.675000000163,0,0,2,62384,WMM1,1043163,false,false,1195,image-keyboard-response,7
true,10,0,2,2,false,d,false,true,0.0-2.0-0.40-0.363-3.363,0,0,0,81,false,stim,true,0,355.53000000002794,0,0,2,62384,WMM1,1045027,false,true,1198,image-keyboard-response,8
true,10,0,2,2,false,d,false,false,0.0-2.0-0.40-0.364-3.364,0,0,0,81,false,stim,true,0,792.8649999999907,0,0,2,62384,WMM1,1047342,false,false,1201,image-keyboard-response,9
true,10,0,2,0,true,q,false,false,0.0-2.0-0.40-0.365-3.365,0,0,0,81,false,stim,false,1,783.7849999999162,0,0,1,62384,WMM1,1049638,false,true,1204,image-keyboard-response,10
true,10,1,2,0,false,q,false,false,0.0-2.0-0.40-0.366-3.366,0,0,0,90,false,stim,true,1,254.32999999984168,0,0,1,62384,WMM1,1051406,false,false,1207,image-keyboard-response,11
true,10,1,2,1,true,z,false,true,0.0-2.0-0.40-0.367-3.367,0,0,0,90,false,stim,false,2,972.9250000000466,0,0,0,62384,WMM1,1053891,false,false,1210,image-keyboard-response,12
true,10,1,2,1,true,z,false,true,0.0-2.0-0.40-0.368-3.368,0,0,0,90,false,stim,false,2,586.2599999997765,0,0,0,62384,WMM1,1055989,false,false,1213,image-keyboard-response,13
true,10,2,2,0,false,q,true,false,0.0-2.0-0.41-0.369-3.369,0,0,0,68,false,stim,false,1,542.8799999998882,0,0,1,62384,WMM1,1058045,false,false,1216,image-keyboard-response,14
true,10,1,2,1,true,z,false,true,0.0-2.0-0.41-0.370-3.370,0,0,0,90,false,stim,false,2,445.5200000000186,0,0,0,62384,WMM1,1060002,false,false,1219,image-keyboard-response,15
true,10,1,2,0,false,q,false,false,0.0-2.0-0.41-0.371-3.371,0,0,0,90,false,stim,true,1,500.33499999996275,0,0,1,62384,WMM1,1062014,false,false,1222,image-keyboard-response,16
true,10,0,2,0,true,q,false,true,0.0-2.0-0.41-0.372-3.372,0,0,0,81,false,stim,false,1,343.9399999999441,0,0,1,62384,WMM1,1063869,false,false,1225,image-keyboard-response,17
true,10,1,2,1,true,z,false,true,0.0-2.0-0.41-0.373-3.373,0,0,0,90,false,stim,false,2,747.1650000000373,0,0,0,62384,WMM1,1066129,false,false,1228,image-keyboard-response,18
true,10,2,2,2,true,d,false,true,0.0-2.0-0.41-0.374-3.374,0,0,0,68,false,stim,false,0,668.125,0,0,2,62384,WMM1,1068308,false,false,1231,image-keyboard-response,19
true,10,2,2,2,true,d,false,false,0.0-2.0-0.41-0.375-3.375,0,0,0,68,false,stim,false,0,682.0449999999255,0,0,2,62384,WMM1,1070496,false,true,1234,image-keyboard-response,20
true,10,1,2,2,false,d,true,false,0.0-2.0-0.41-0.376-3.376,0,0,0,90,false,stim,false,0,717.5700000000652,0,0,2,62384,WMM1,1072730,false,false,1237,image-keyboard-response,21
true,10,1,2,1,true,z,false,true,0.0-2.0-0.41-0.377-3.377,0,0,0,90,false,stim,false,2,791.5949999997392,0,0,0,62384,WMM1,1075035,false,false,1240,image-keyboard-response,22
true,10,0,2,0,true,q,false,true,0.0-2.0-0.42-0.378-3.378,0,0,0,81,false,stim,false,1,475.02499999990687,0,0,1,62384,WMM1,1077021,false,false,1243,image-keyboard-response,23
true,10,0,2,0,true,q,false,true,0.0-2.0-0.42-0.379-3.379,0,0,0,81,false,stim,false,1,543.565000000177,0,0,1,62384,WMM1,1079076,false,false,1246,image-keyboard-response,24
true,10,1,2,1,true,z,false,true,0.0-2.0-0.42-0.380-3.380,0,0,0,90,false,stim,false,2,664.0749999999534,0,0,0,62384,WMM1,1081255,false,false,1249,image-keyboard-response,25
true,10,0,2,0,true,q,false,true,0.0-2.0-0.42-0.381-3.381,0,0,0,81,false,stim,false,1,571.4249999998137,0,0,1,62384,WMM1,1083340,false,false,1252,image-keyboard-response,26
true,10,1,2,1,true,z,false,true,0.0-2.0-0.42-0.382-3.382,0,0,0,90,false,stim,false,2,583.8549999997485,0,0,0,62384,WMM1,1085438,false,false,1255,image-keyboard-response,27
true,10,1,2,1,true,z,false,true,0.0-2.0-0.42-0.383-3.383,0,0,0,90,false,stim,false,2,549.8050000001676,0,0,0,62384,WMM1,1087501,false,false,1258,image-keyboard-response,28
true,10,2,2,2,true,d,false,false,0.0-2.0-0.42-0.384-3.384,0,0,0,68,false,stim,false,0,1280.8949999997858,0,0,2,62384,WMM1,1090295,false,true,1261,image-keyboard-response,29
true,10,0,2,2,false,d,false,false,0.0-2.0-0.42-0.385-3.385,0,0,0,81,false,stim,true,0,366.02000000025146,0,0,2,62384,WMM1,1092171,false,false,1264,image-keyboard-response,30
true,10,1,2,2,false,d,true,false,0.0-2.0-0.42-0.386-3.386,0,0,0,90,false,stim,false,0,352.5200000000186,0,0,2,62384,WMM1,1094041,false,false,1267,image-keyboard-response,31
true,10,2,2,0,false,q,true,false,0.0-2.0-0.43-0.387-3.387,0,0,0,68,false,stim,false,1,475.6599999999162,0,0,1,62384,WMM1,1096032,false,false,1270,image-keyboard-response,32
true,10,1,2,2,false,d,true,false,0.0-2.0-0.43-0.388-3.388,0,0,0,90,false,stim,false,0,973.9699999999721,0,0,2,62384,WMM1,1098519,false,false,1273,image-keyboard-response,33
true,10,0,2,0,true,q,false,true,0.0-2.0-0.43-0.389-3.389,0,0,0,81,false,stim,false,1,638.910000000149,0,0,1,62384,WMM1,1100673,false,false,1276,image-keyboard-response,34
true,10,0,2,2,false,d,false,false,0.0-2.0-0.43-0.390-3.390,0,0,0,81,false,stim,true,0,852.714999999851,0,0,2,62384,WMM1,1103039,false,false,1279,image-keyboard-response,35
true,10,2,2,2,true,d,false,false,0.0-2.0-0.43-0.391-3.391,0,0,0,68,false,stim,false,0,422.25000000023283,0,0,2,62384,WMM1,1104971,false,true,1282,image-keyboard-response,36
true,10,1,2,0,false,q,false,false,0.0-2.0-0.43-0.392-3.392,0,0,0,90,false,stim,true,1,378.56999999983236,0,0,1,62384,WMM1,1106868,false,false,1285,image-keyboard-response,37
true,10,1,2,1,true,z,false,true,0.0-2.0-0.43-0.393-3.393,0,0,0,90,false,stim,false,2,620.6500000001397,0,0,0,62384,WMM1,1109006,false,false,1288,image-keyboard-response,38
true,10,1,2,1,true,z,false,true,0.0-2.0-0.43-0.394-3.394,0,0,0,90,false,stim,false,2,605.9299999999348,0,0,0,62384,WMM1,1111121,false,false,1291,image-keyboard-response,39
true,10,1,2,1,true,z,false,true,0.0-2.0-0.43-0.395-3.395,0,0,0,90,false,stim,false,2,462.96999999997206,0,0,0,62384,WMM1,1113094,false,false,1294,image-keyboard-response,40
true,10,0,2,2,false,d,false,false,0.0-2.0-0.44-0.396-3.396,0,0,0,81,false,stim,true,0,707.3049999999348,0,0,2,62384,WMM1,1115316,false,false,1297,image-keyboard-response,41
true,10,1,2,1,true,z,false,true,0.0-2.0-0.44-0.397-3.397,0,0,0,90,false,stim,false,2,597.5800000000745,0,0,0,62384,WMM1,1117425,false,false,1300,image-keyboard-response,42
true,10,0,2,0,true,q,false,true,0.0-2.0-0.44-0.398-3.398,0,0,0,81,false,stim,false,1,337.44499999983236,0,0,1,62384,WMM1,1119279,false,false,1303,image-keyboard-response,43
true,10,0,2,0,true,q,false,true,0.0-2.0-0.44-0.399-3.399,0,0,0,81,false,stim,false,1,561.1950000000652,0,0,1,62384,WMM1,1121351,false,false,1306,image-keyboard-response,44
true,10,1,2,1,true,z,false,true,0.0-2.0-0.44-0.400-3.400,0,0,0,90,false,stim,false,2,555.8700000001118,0,0,0,62384,WMM1,1123421,false,false,1309,image-keyboard-response,45
true,10,0,2,2,false,d,false,false,0.0-2.0-0.44-0.401-3.401,0,0,0,81,false,stim,true,0,1593.7700000002515,0,0,2,62384,WMM1,1126523,false,false,1312,image-keyboard-response,46
true,10,1,2,1,true,z,false,true,0.0-2.0-0.44-0.402-3.402,0,0,0,90,false,stim,false,2,650.4150000000373,0,0,0,62384,WMM1,1128687,false,false,1315,image-keyboard-response,47
true,10,1,2,2,false,d,true,false,0.0-2.0-0.44-0.403-3.403,0,0,0,90,false,stim,false,0,382.17500000004657,0,0,2,62384,WMM1,1130583,false,false,1318,image-keyboard-response,48
true,10,0,2,0,true,q,false,true,0.0-2.0-0.44-0.404-3.404,0,0,0,81,false,stim,false,1,493.44999999995343,0,0,1,62384,WMM1,1132595,false,false,1321,image-keyboard-response,49
true,10,0,2,0,true,q,false,true,0.0-2.0-0.45-0.405-3.405,0,0,0,81,false,stim,false,1,460.66500000003725,0,0,1,62384,WMM1,1134565,false,false,1324,image-keyboard-response,50
true,10,1,2,1,true,z,false,true,0.0-2.0-0.45-0.406-3.406,0,0,0,90,false,stim,false,2,764.6200000001118,0,0,0,62384,WMM1,1136843,false,false,1327,image-keyboard-response,51
true,10,2,2,1,false,z,false,false,0.0-2.0-0.45-0.407-3.407,0,0,0,68,false,stim,true,2,690.815000000177,0,0,0,62384,WMM1,1139046,false,false,1330,image-keyboard-response,52
true,10,2,2,0,false,q,true,false,0.0-2.0-0.45-0.408-3.408,0,0,0,68,false,stim,false,1,614.3850000000093,0,0,1,62384,WMM1,1141173,false,false,1333,image-keyboard-response,53
true,10,2,2,2,true,d,false,true,0.0-2.0-0.45-0.409-3.409,0,0,0,68,false,stim,false,0,405.56500000017695,0,0,2,62384,WMM1,1143094,false,false,1336,image-keyboard-response,54
true,10,0,2,0,true,q,false,false,0.0-2.0-0.45-0.410-3.410,0,0,0,81,false,stim,false,1,485.10000000009313,0,0,1,62384,WMM1,1145094,false,true,1339,image-keyboard-response,55
true,10,2,2,2,true,d,false,true,0.0-2.0-0.45-0.411-3.411,0,0,0,68,false,stim,false,0,565.589999999851,0,0,2,62384,WMM1,1147175,false,false,1342,image-keyboard-response,56
true,10,2,2,2,true,d,false,true,0.0-2.0-0.45-0.412-3.412,0,0,0,68,false,stim,false,0,637.4849999998696,0,0,2,62384,WMM1,1149323,false,false,1345,image-keyboard-response,57
true,10,1,2,1,true,z,false,true,0.0-2.0-0.45-0.413-3.413,0,0,0,90,false,stim,false,2,583.4749999998603,0,0,0,62384,WMM1,1151418,false,false,1348,image-keyboard-response,58
true,10,1,2,0,false,q,false,false,0.0-2.0-0.46-0.414-3.414,0,0,0,90,false,stim,true,1,853.5199999997858,0,0,1,62384,WMM1,1153781,false,false,1351,image-keyboard-response,59
true,10,2,2,0,false,q,true,false,0.0-2.0-0.46-0.415-3.415,0,0,0,68,false,stim,false,1,343.6149999999907,0,0,1,62384,WMM1,1155631,false,false,1354,image-keyboard-response,60
true,11,2,1,1,false,z,false,false,0.0-2.0-0.46-0.416-3.416,0,0,0,68,true,stim,true,2,799.8200000000652,0,0,2,62384,WMM1,1157941,false,false,1357,image-keyboard-response,1
true,11,2,1,1,false,z,false,false,0.0-2.0-0.46-0.417-3.417,0,0,0,68,false,stim,true,2,511.2349999998696,0,0,2,62384,WMM1,1159964,false,false,1360,image-keyboard-response,2
true,11,1,1,2,false,d,true,false,0.0-2.0-0.46-0.418-3.418,0,0,0,90,false,stim,false,0,479.5200000000186,0,0,1,62384,WMM1,1161957,false,false,1363,image-keyboard-response,3
true,11,1,1,0,false,q,false,false,0.0-2.0-0.46-0.419-3.419,0,0,0,90,false,stim,true,1,703.8750000002328,0,0,0,62384,WMM1,1164176,false,false,1366,image-keyboard-response,4
true,11,0,1,1,false,z,true,false,0.0-2.0-0.46-0.420-3.420,0,0,0,81,false,stim,false,2,381.04000000003725,0,0,2,62384,WMM1,1166069,false,false,1369,image-keyboard-response,5
true,11,2,1,0,false,q,true,false,0.0-2.0-0.46-0.421-3.421,0,0,0,68,false,stim,false,1,871.1250000002328,0,0,0,62384,WMM1,1168452,false,false,1372,image-keyboard-response,6
true,11,0,1,0,true,q,false,true,0.0-2.0-0.46-0.422-3.422,0,0,0,81,false,stim,false,1,430.15500000002794,0,0,0,62384,WMM1,1170392,false,false,1375,image-keyboard-response,7
true,11,1,1,2,false,d,true,false,0.0-2.0-0.47-0.423-3.423,0,0,0,90,false,stim,false,0,623.6950000000652,0,0,1,62384,WMM1,1172532,false,false,1378,image-keyboard-response,8
true,11,1,1,1,true,z,false,true,0.0-2.0-0.47-0.424-3.424,0,0,0,90,false,stim,false,2,938.3400000000838,0,0,2,62384,WMM1,1174985,false,false,1381,image-keyboard-response,9
true,11,0,1,0,true,q,false,true,0.0-2.0-0.47-0.425-3.425,0,0,0,81,false,stim,false,1,519.0,0,0,0,62384,WMM1,1177015,false,false,1384,image-keyboard-response,10
true,11,0,1,0,true,q,false,true,0.0-2.0-0.47-0.426-3.426,0,0,0,81,false,stim,false,1,684.7650000001304,0,0,0,62384,WMM1,1179209,false,false,1387,image-keyboard-response,11
true,11,1,1,1,true,z,false,true,0.0-2.0-0.47-0.427-3.427,0,0,0,90,false,stim,false,2,658.6400000001304,0,0,2,62384,WMM1,1181381,false,false,1390,image-keyboard-response,12
true,11,2,1,2,true,d,false,true,0.0-2.0-0.47-0.428-3.428,0,0,0,68,false,stim,false,0,874.0749999999534,0,0,1,62384,WMM1,1183766,false,false,1393,image-keyboard-response,13
true,11,0,1,0,true,q,false,true,0.0-2.0-0.47-0.429-3.429,0,0,0,81,false,stim,false,1,526.8900000001304,0,0,0,62384,WMM1,1185806,false,false,1396,image-keyboard-response,14
true,11,1,1,1,true,z,false,true,0.0-2.0-0.47-0.430-3.430,0,0,0,90,false,stim,false,2,473.9200000001583,0,0,2,62384,WMM1,1187787,false,false,1399,image-keyboard-response,15
true,11,2,1,2,true,d,false,true,0.0-2.0-0.47-0.431-3.431,0,0,0,68,false,stim,false,0,324.18499999982305,0,0,1,62384,WMM1,1189635,false,false,1402,image-keyboard-response,16
true,11,0,1,2,false,d,false,true,0.0-2.0-0.48-0.432-3.432,0,0,0,81,false,stim,true,0,1925.1149999999907,0,0,1,62384,WMM1,1193072,false,true,1405,image-keyboard-response,17
true,11,0,1,2,false,d,false,false,0.0-2.0-0.48-0.433-3.433,0,0,0,81,false,stim,true,0,616.6550000000279,0,0,1,62384,WMM1,1195205,false,false,1408,image-keyboard-response,18
true,11,1,1,0,false,q,false,false,0.0-2.0-0.48-0.434-3.434,0,0,0,90,false,stim,true,1,538.8499999998603,0,0,0,62384,WMM1,1197256,false,false,1411,image-keyboard-response,19
true,11,2,1,1,false,z,false,true,0.0-2.0-0.48-0.435-3.435,0,0,0,68,false,stim,true,2,509.9899999999907,0,0,2,62384,WMM1,1199273,false,true,1414,image-keyboard-response,20
true,11,1,1,2,false,d,true,false,0.0-2.0-0.48-0.436-3.436,0,0,0,90,false,stim,false,0,1035.4250000000466,0,0,1,62384,WMM1,1201821,false,false,1417,image-keyboard-response,21
true,11,0,1,0,true,q,false,true,0.0-2.0-0.48-0.437-3.437,0,0,0,81,false,stim,false,1,768.5300000000279,0,0,0,62384,WMM1,1204098,false,false,1420,image-keyboard-response,22
true,11,2,1,1,false,z,false,false,0.0-2.0-0.48-0.438-3.438,0,0,0,68,false,stim,true,2,500.9549999998417,0,0,2,62384,WMM1,1206113,false,false,1423,image-keyboard-response,23
true,11,1,1,1,true,z,false,true,0.0-2.0-0.48-0.439-3.439,0,0,0,90,false,stim,false,2,601.8299999998417,0,0,2,62384,WMM1,1208225,false,false,1426,image-keyboard-response,24
true,11,0,1,0,true,q,false,false,0.0-2.0-0.48-0.440-3.440,0,0,0,81,false,stim,false,1,482.5100000000093,0,0,0,62384,WMM1,1210221,false,true,1429,image-keyboard-response,25
true,11,1,1,0,false,q,false,false,0.0-2.0-0.49-0.441-3.441,0,0,0,90,false,stim,true,1,674.6299999998882,0,0,0,62384,WMM1,1212410,false,false,1432,image-keyboard-response,26
true,11,1,1,1,true,z,false,true,0.0-2.0-0.49-0.442-3.442,0,0,0,90,false,stim,false,2,667.3349999999627,0,0,2,62384,WMM1,1214589,false,false,1435,image-keyboard-response,27
true,11,2,1,2,true,d,false,false,0.0-2.0-0.49-0.443-3.443,0,0,0,68,false,stim,false,0,684.6899999999441,0,0,1,62384,WMM1,1216784,false,true,1438,image-keyboard-response,28
true,11,2,1,0,false,q,true,false,0.0-2.0-0.49-0.444-3.444,0,0,0,68,false,stim,false,1,692.850000000326,0,0,0,62384,WMM1,1218992,false,false,1441,image-keyboard-response,29
true,11,0,1,2,false,d,false,false,0.0-2.0-0.49-0.445-3.445,0,0,0,81,false,stim,true,0,540.2750000001397,0,0,1,62384,WMM1,1221043,false,false,1444,image-keyboard-response,30
true,11,1,1,0,false,q,false,false,0.0-2.0-0.49-0.446-3.446,0,0,0,90,false,stim,true,1,500.23500000010245,0,0,0,62384,WMM1,1223057,false,false,1447,image-keyboard-response,31
true,11,1,1,1,true,z,false,true,0.0-2.0-0.49-0.447-3.447,0,0,0,90,false,stim,false,2,915.9449999998324,0,0,2,62384,WMM1,1225487,false,false,1450,image-keyboard-response,32
true,11,1,1,1,true,z,false,true,0.0-2.0-0.49-0.448-3.448,0,0,0,90,false,stim,false,2,695.625,0,0,2,62384,WMM1,1227692,false,false,1453,image-keyboard-response,33
true,11,1,1,2,false,d,true,false,0.0-2.0-0.49-0.449-3.449,0,0,0,90,false,stim,false,0,849.4849999998696,0,0,1,62384,WMM1,1230056,false,false,1456,image-keyboard-response,34
true,11,0,1,2,false,d,false,false,0.0-2.0-0.50-0.450-3.450,0,0,0,81,false,stim,true,0,400.929999999702,0,0,1,62384,WMM1,1231970,false,false,1459,image-keyboard-response,35
true,11,2,1,0,false,q,true,false,0.0-2.0-0.50-0.451-3.451,0,0,0,68,false,stim,false,1,630.4399999999441,0,0,0,62384,WMM1,1234116,false,false,1462,image-keyboard-response,36
true,11,2,1,2,true,d,false,true,0.0-2.0-0.50-0.452-3.452,0,0,0,68,false,stim,false,0,826.964999999851,0,0,1,62384,WMM1,1236457,false,false,1465,image-keyboard-response,37
true,11,1,1,1,true,z,false,true,0.0-2.0-0.50-0.453-3.453,0,0,0,90,false,stim,false,2,785.565000000177,0,0,2,62384,WMM1,1238757,false,false,1468,image-keyboard-response,38
true,11,2,1,2,true,d,false,true,0.0-2.0-0.50-0.454-3.454,0,0,0,68,false,stim,false,0,301.2899999998044,0,0,1,62384,WMM1,1240573,false,false,1471,image-keyboard-response,39
true,11,0,1,0,true,q,false,true,0.0-2.0-0.50-0.455-3.455,0,0,0,81,false,stim,false,1,660.9350000000559,0,0,0,62384,WMM1,1242747,false,false,1474,image-keyboard-response,40
true,11,1,1,1,true,z,false,true,0.0-2.0-0.50-0.456-3.456,0,0,0,90,false,stim,false,2,701.6300000001211,0,0,2,62384,WMM1,1244963,false,false,1477,image-keyboard-response,41
true,11,1,1,1,true,z,false,true,0.0-2.0-0.50-0.457-3.457,0,0,0,90,false,stim,false,2,1038.91500000027,0,0,2,62384,WMM1,1247516,false,false,1480,image-keyboard-response,42
true,11,0,1,0,true,q,false,true,0.0-2.0-0.50-0.458-3.458,0,0,0,81,false,stim,false,1,677.070000000298,0,0,0,62384,WMM1,1249708,false,false,1483,image-keyboard-response,43
true,11,1,1,1,true,z,false,true,0.0-2.0-0.51-0.459-3.459,0,0,0,90,false,stim,false,2,822.6850000000559,0,1,2,62384,WMM1,1252045,false,false,1486,image-keyboard-response,44
true,11,2,1,2,true,d,false,true,0.0-2.0-0.51-0.460-3.460,0,0,0,68,false,stim,false,0,688.4200000001583,0,0,1,62384,WMM1,1254247,false,false,1489,image-keyboard-response,45
true,11,1,1,1,true,z,false,true,0.0-2.0-0.51-0.461-3.461,0,0,0,90,false,stim,false,2,540.6950000000652,0,1,2,62384,WMM1,1256297,false,false,1492,image-keyboard-response,46
true,11,0,1,0,true,q,false,true,0.0-2.0-0.51-0.462-3.462,0,0,0,81,false,stim,false,1,925.6650000000373,0,0,0,62384,WMM1,1258737,false,false,1495,image-keyboard-response,47
true,11,2,1,2,true,d,false,true,0.0-2.0-0.51-0.463-3.463,0,0,0,68,false,stim,false,0,653.0649999999441,0,0,1,62384,WMM1,1260902,false,false,1498,image-keyboard-response,48
true,11,0,1,0,true,q,false,true,0.0-2.0-0.51-0.464-3.464,0,0,0,81,false,stim,false,1,595.035000000149,0,0,0,62384,WMM1,1263020,false,false,1501,image-keyboard-response,49
true,11,0,1,0,true,q,false,true,0.0-2.0-0.51-0.465-3.465,0,0,0,81,false,stim,false,1,547.5000000002328,0,0,0,62384,WMM1,1265079,false,false,1504,image-keyboard-response,50
true,11,1,1,1,true,z,false,true,0.0-2.0-0.51-0.466-3.466,0,0,0,90,false,stim,false,2,463.3149999999441,0,1,2,62384,WMM1,1267056,false,false,1507,image-keyboard-response,51
true,11,2,1,2,true,d,false,false,0.0-2.0-0.51-0.467-3.467,0,0,0,68,false,stim,false,0,512.0300000000279,0,0,1,62384,WMM1,1269083,false,true,1510,image-keyboard-response,52
true,11,1,1,2,false,d,true,false,0.0-2.0-0.52-0.468-3.468,0,0,0,90,false,stim,false,0,688.5900000000838,0,0,1,62384,WMM1,1271285,false,false,1513,image-keyboard-response,53
true,12,0,3,0,true,q,false,true,0.0-2.0-0.52-0.469-3.469,0,0,1,81,true,stim,false,2,426.79999999981374,0,0,1,62384,WMM1,1273226,false,false,1516,image-keyboard-response,1
true,12,1,3,1,true,z,false,true,0.0-2.0-0.52-0.470-3.470,0,0,1,90,false,stim,false,1,615.4850000001024,0,1,2,62384,WMM1,1275349,false,false,1519,image-keyboard-response,2
true,12,0,3,2,false,d,false,false,0.0-2.0-0.52-0.471-3.471,0,0,1,81,false,stim,true,0,434.4800000002142,0,0,0,62384,WMM1,1277297,false,false,1522,image-keyboard-response,3
true,12,0,3,0,true,q,false,true,0.0-2.0-0.52-0.472-3.472,0,0,1,81,false,stim,false,2,941.7049999998417,0,0,1,62384,WMM1,1279755,false,false,1525,image-keyboard-response,4
true,12,1,3,1,true,z,false,true,0.0-2.0-0.52-0.473-3.473,0,0,1,90,false,stim,false,1,509.6999999997206,0,1,2,62384,WMM1,1281777,false,false,1528,image-keyboard-response,5
true,12,2,3,2,true,d,false,true,0.0-2.0-0.52-0.474-3.474,0,0,1,68,false,stim,false,0,414.2300000002142,0,0,0,62384,WMM1,1283703,false,false,1531,image-keyboard-response,6
true,12,2,3,2,true,d,false,true,0.0-2.0-0.52-0.475-3.475,0,0,1,68,false,stim,false,0,503.6300000001211,0,0,0,62384,WMM1,1285723,false,false,1534,image-keyboard-response,7
true,12,1,3,1,true,z,false,true,0.0-2.0-0.52-0.476-3.476,0,0,1,90,false,stim,false,1,1240.375,0,1,2,62384,WMM1,1288471,false,false,1537,image-keyboard-response,8
true,12,0,3,0,true,q,false,true,0.0-2.0-0.53-0.477-3.477,0,0,1,81,false,stim,false,2,377.51499999989755,0,0,1,62384,WMM1,1290363,false,false,1540,image-keyboard-response,9
true,12,2,3,2,true,d,false,true,0.0-2.0-0.53-0.478-3.478,0,0,1,68,false,stim,false,0,607.3699999998789,0,0,0,62384,WMM1,1292483,false,false,1543,image-keyboard-response,10
true,12,1,3,1,true,z,false,true,0.0-2.0-0.53-0.479-3.479,0,0,1,90,false,stim,false,1,1238.655000000028,0,1,2,62384,WMM1,1295235,false,false,1546,image-keyboard-response,11
true,12,0,3,0,true,q,false,true,0.0-2.0-0.53-0.480-3.480,0,0,1,81,false,stim,false,2,635.5949999999721,0,0,1,62384,WMM1,1297385,false,false,1549,image-keyboard-response,12
true,12,1,3,1,true,z,false,true,0.0-2.0-0.53-0.481-3.481,0,0,1,90,false,stim,false,1,561.5150000001304,0,1,2,62384,WMM1,1299461,false,false,1552,image-keyboard-response,13
true,12,1,3,0,false,q,true,false,0.0-2.0-0.53-0.482-3.482,0,0,1,90,false,stim,false,2,476.8200000000652,0,0,1,62384,WMM1,1301444,false,false,1555,image-keyboard-response,14
true,12,2,3,2,true,d,false,true,0.0-2.0-0.53-0.483-3.483,0,0,1,68,false,stim,false,0,488.87999999988824,0,0,0,62384,WMM1,1303448,false,false,1558,image-keyboard-response,15
true,12,1,3,1,true,z,false,true,0.0-2.0-0.53-0.484-3.484,0,0,1,90,false,stim,false,1,649.3750000002328,0,1,2,62384,WMM1,1305611,false,false,1561,image-keyboard-response,16
true,12,0,3,2,false,d,false,false,0.0-2.0-0.53-0.485-3.485,0,0,1,81,false,stim,true,0,1028.2950000001583,0,0,0,62384,WMM1,1308151,false,false,1564,image-keyboard-response,17
true,12,1,3,1,true,z,false,true,0.0-2.0-0.54-0.486-3.486,0,0,1,90,false,stim,false,1,573.0200000000186,0,1,2,62384,WMM1,1310235,false,false,1567,image-keyboard-response,18
true,12,0,3,0,true,q,false,true,0.0-2.0-0.54-0.487-3.487,0,0,1,81,false,stim,false,2,856.9099999999162,0,0,1,62384,WMM1,1312606,false,false,1570,image-keyboard-response,19
true,12,2,3,2,true,d,false,false,0.0-2.0-0.54-0.488-3.488,0,0,1,68,false,stim,false,0,417.87999999988824,0,0,0,62384,WMM1,1314534,false,true,1573,image-keyboard-response,20
true,12,1,3,2,false,d,true,false,0.0-2.0-0.54-0.489-3.489,0,0,1,90,false,stim,false,0,801.8549999999814,0,0,0,62384,WMM1,1316851,false,false,1576,image-keyboard-response,21
true,12,0,3,0,true,q,false,true,0.0-2.0-0.54-0.490-3.490,0,0,1,81,false,stim,false,2,534.9250000002794,0,0,1,62384,WMM1,1318902,false,false,1579,image-keyboard-response,22
true,12,1,3,1,true,z,false,true,0.0-2.0-0.54-0.491-3.491,0,0,1,90,false,stim,false,1,719.9899999997579,0,1,2,62384,WMM1,1321136,false,false,1582,image-keyboard-response,23
true,12,0,3,0,true,q,false,true,0.0-2.0-0.54-0.492-3.492,0,0,1,81,false,stim,false,2,971.8000000000466,0,0,1,62384,WMM1,1323620,false,false,1585,image-keyboard-response,24
true,12,1,3,1,true,z,false,true,0.0-2.0-0.54-0.493-3.493,0,0,1,90,false,stim,false,1,522.0550000001676,0,1,2,62384,WMM1,1325655,false,false,1588,image-keyboard-response,25
true,12,0,3,2,false,d,false,false,0.0-2.0-0.54-0.494-3.494,0,0,1,81,false,stim,true,0,601.6499999999069,0,0,0,62384,WMM1,1327771,false,false,1591,image-keyboard-response,26
true,12,0,3,0,true,q,false,false,0.0-2.0-0.55-0.495-3.495,0,0,1,81,false,stim,false,2,801.3900000001304,0,0,1,62384,WMM1,1330082,false,true,1594,image-keyboard-response,27
true,12,1,3,1,true,z,false,true,0.0-2.0-0.55-0.496-3.496,0,0,1,90,false,stim,false,1,272.5999999998603,0,1,2,62384,WMM1,1331866,false,false,1597,image-keyboard-response,28
true,12,2,3,2,true,d,false,true,0.0-2.0-0.55-0.497-3.497,0,0,1,68,false,stim,false,0,760.4999999997672,0,0,0,62384,WMM1,1334140,false,false,1600,image-keyboard-response,29
true,12,0,3,0,true,q,false,true,0.0-2.0-0.55-0.498-3.498,0,0,1,81,false,stim,false,2,353.80500000016764,0,0,1,62384,WMM1,1336014,false,false,1603,image-keyboard-response,30
true,12,1,3,1,true,z,false,true,0.0-2.0-0.55-0.499-3.499,0,0,1,90,false,stim,false,1,810.0249999999069,0,1,2,62384,WMM1,1338343,false,false,1606,image-keyboard-response,31
true,12,1,3,1,true,z,false,true,0.0-2.0-0.55-0.500-3.500,0,0,1,90,false,stim,false,1,1620.1999999999534,0,1,2,62384,WMM1,1341479,false,false,1609,image-keyboard-response,32
true,12,2,3,2,true,d,false,true,0.0-2.0-0.55-0.501-3.501,0,0,1,68,false,stim,false,0,775.214999999851,0,0,0,62384,WMM1,1343764,false,false,1612,image-keyboard-response,33
true,12,2,3,2,true,d,false,true,0.0-2.0-0.55-0.502-3.502,0,0,1,68,false,stim,false,0,648.7250000000931,0,0,0,62384,WMM1,1345927,false,false,1615,image-keyboard-response,34
true,12,0,3,0,true,q,false,true,0.0-2.0-0.55-0.503-3.503,0,0,1,81,false,stim,false,2,592.1750000000466,0,0,1,62384,WMM1,1348028,false,false,1618,image-keyboard-response,35
true,12,0,3,0,true,q,false,true,0.0-2.0-0.56-0.504-3.504,0,0,1,81,false,stim,false,2,1377.8850000000093,0,0,1,62384,WMM1,1350918,false,false,1621,image-keyboard-response,36
true,12,0,3,0,true,q,false,true,0.0-2.0-0.56-0.505-3.505,0,0,1,81,false,stim,false,2,562.5900000000838,0,0,1,62384,WMM1,1352996,false,false,1624,image-keyboard-response,37
true,12,2,3,1,false,z,true,false,0.0-2.0-0.56-0.506-3.506,0,0,1,68,false,stim,false,1,1313.3600000001024,0,0,2,62384,WMM1,1355819,false,false,1627,image-keyboard-response,38
true,12,1,3,1,true,z,false,true,0.0-2.0-0.56-0.507-3.507,0,0,1,90,false,stim,false,1,575.6449999997858,0,0,2,62384,WMM1,1357907,false,false,1630,image-keyboard-response,39
true,12,2,3,2,true,d,false,true,0.0-2.0-0.56-0.508-3.508,0,0,1,68,false,stim,false,0,656.5500000002794,0,0,0,62384,WMM1,1360078,false,false,1633,image-keyboard-response,40
true,12,1,3,1,true,z,false,false,0.0-2.0-0.56-0.509-3.509,0,0,1,90,false,stim,false,1,1216.2649999998976,0,0,2,62384,WMM1,1362809,false,true,1636,image-keyboard-response,41
true,12,2,3,2,true,d,false,true,0.0-2.0-0.56-0.510-3.510,0,0,1,68,false,stim,false,0,502.5150000001304,0,0,0,62384,WMM1,1364821,false,false,1639,image-keyboard-response,42
true,12,0,3,0,true,q,false,true,0.0-2.0-0.56-0.511-3.511,0,0,1,81,false,stim,false,2,577.6599999999162,0,0,1,62384,WMM1,1366908,false,false,1642,image-keyboard-response,43
true,13,2,1,1,false,z,false,false,0.0-2.0-0.56-0.512-3.512,0,0,0,68,true,stim,true,2,921.9350000000559,0,0,0,62384,WMM1,1369341,false,false,1645,image-keyboard-response,1
true,13,1,1,2,false,d,false,false,0.0-2.0-0.57-0.513-3.513,0,0,0,90,false,stim,true,1,553.2349999998696,0,0,2,62384,WMM1,1371407,false,false,1648,image-keyboard-response,2
true,13,2,1,2,true,d,false,true,0.0-2.0-0.57-0.514-3.514,0,0,0,68,false,stim,false,1,684.7000000001863,0,0,2,62384,WMM1,1373602,false,false,1651,image-keyboard-response,3
true,13,1,1,1,true,z,false,true,0.0-2.0-0.57-0.515-3.515,0,0,0,90,false,stim,false,2,869.5999999998603,0,0,0,62384,WMM1,1375984,false,false,1654,image-keyboard-response,4
true,13,2,1,2,true,d,false,true,0.0-2.0-0.57-0.516-3.516,0,0,0,68,false,stim,false,1,608.3200000000652,0,0,2,62384,WMM1,1378107,false,false,1657,image-keyboard-response,5
true,13,1,1,1,true,z,false,true,0.0-2.0-0.57-0.517-3.517,0,0,0,90,false,stim,false,2,410.1950000000652,0,0,0,62384,WMM1,1380029,false,false,1660,image-keyboard-response,6
true,13,0,1,2,false,d,false,false,0.0-2.0-0.57-0.518-3.518,0,0,0,81,false,stim,true,0,836.1049999999814,0,0,1,62384,WMM1,1382378,false,false,1663,image-keyboard-response,7
true,13,1,1,2,false,d,true,false,0.0-2.0-0.57-0.519-3.519,0,0,0,90,false,stim,false,0,623.3899999998976,0,0,1,62384,WMM1,1384514,false,false,1666,image-keyboard-response,8
true,13,1,1,1,true,z,false,true,0.0-2.0-0.57-0.520-3.520,0,0,0,90,false,stim,false,2,1294.75,0,0,0,62384,WMM1,1387320,false,false,1669,image-keyboard-response,9
true,13,2,1,2,true,d,false,true,0.0-2.0-0.57-0.521-3.521,0,0,0,68,false,stim,false,0,946.5549999999348,0,0,1,62384,WMM1,1389781,false,false,1672,image-keyboard-response,10
true,13,2,1,2,true,d,false,true,0.0-2.0-0.58-0.522-3.522,0,0,0,68,false,stim,false,0,388.22500000009313,0,0,1,62384,WMM1,1391679,false,false,1675,image-keyboard-response,11
true,13,1,1,1,true,z,false,true,0.0-2.0-0.58-0.523-3.523,0,0,0,90,false,stim,false,2,675.5999999998603,0,0,0,62384,WMM1,1393871,false,false,1678,image-keyboard-response,12
true,13,0,1,2,false,d,true,true,0.0-2.0-0.58-0.524-3.524,0,0,0,81,false,stim,false,1,1095.7049999998417,0,0,2,62384,WMM1,1396476,false,true,1681,image-keyboard-response,13
true,13,2,1,2,true,d,false,true,0.0-2.0-0.58-0.525-3.525,0,0,0,68,false,stim,false,0,542.535000000149,0,0,1,62384,WMM1,1398529,false,false,1684,image-keyboard-response,14
true,13,0,1,2,false,d,true,false,0.0-2.0-0.58-0.526-3.526,0,0,0,81,false,stim,false,1,673.315000000177,0,0,2,62384,WMM1,1400717,false,false,1687,image-keyboard-response,15
true,13,1,1,2,false,d,true,false,0.0-2.0-0.58-0.527-3.527,0,0,0,90,false,stim,false,0,741.0050000001211,0,0,1,62384,WMM1,1402965,false,false,1690,image-keyboard-response,16
true,13,1,1,1,true,z,false,false,0.0-2.0-0.58-0.528-3.528,0,0,0,90,false,stim,false,2,611.4749999998603,0,0,0,62384,WMM1,1405088,false,true,1693,image-keyboard-response,17
true,13,2,1,2,true,d,false,true,0.0-2.0-0.58-0.529-3.529,0,0,0,68,false,stim,false,1,567.1450000002515,0,0,2,62384,WMM1,1407168,false,false,1696,image-keyboard-response,18
true,13,2,1,1,false,z,false,false,0.0-2.0-0.58-0.530-3.530,0,0,0,68,false,stim,true,2,661.0299999997951,0,0,0,62384,WMM1,1409343,false,false,1699,image-keyboard-response,19
true,13,2,1,2,true,d,false,true,0.0-2.0-0.59-0.531-3.531,0,0,0,68,false,stim,false,1,657.5100000000093,0,0,2,62384,WMM1,1411518,false,false,1702,image-keyboard-response,20
true,13,0,1,1,false,z,true,false,0.0-2.0-0.59-0.532-3.532,0,0,0,81,false,stim,false,2,448.04000000003725,0,0,0,62384,WMM1,1413477,false,false,1705,image-keyboard-response,21
true,13,2,1,1,false,z,false,false,0.0-2.0-0.59-0.533-3.533,0,0,0,68,false,stim,true,2,418.6599999999162,0,0,0,62384,WMM1,1415411,false,false,1708,image-keyboard-response,22
true,13,0,1,2,false,d,false,false,0.0-2.0-0.59-0.534-3.534,0,0,0,81,false,stim,true,0,865.7050000000745,0,0,1,62384,WMM1,1417792,false,false,1711,image-keyboard-response,23
true,13,1,1,2,false,d,true,false,0.0-2.0-0.59-0.535-3.535,0,0,0,90,false,stim,false,0,414.40999999968335,0,0,1,62384,WMM1,1419719,false,false,1714,image-keyboard-response,24
true,13,2,1,2,true,d,false,true,0.0-2.0-0.59-0.536-3.536,0,0,0,68,false,stim,false,0,358.61000000010245,0,0,1,62384,WMM1,1421594,false,false,1717,image-keyboard-response,25
true,13,2,1,2,true,d,false,true,0.0-2.0-0.59-0.537-3.537,0,0,0,68,false,stim,false,1,378.2449999998789,0,0,2,62384,WMM1,1423487,false,false,1720,image-keyboard-response,26
true,13,2,1,2,true,d,false,true,0.0-2.0-0.59-0.538-3.538,0,0,0,68,false,stim,false,1,576.8549999999814,0,0,2,62384,WMM1,1425582,false,false,1723,image-keyboard-response,27
true,13,2,1,1,false,z,false,false,0.0-2.0-0.59-0.539-3.539,0,0,0,68,false,stim,true,2,592.4149999998044,0,0,0,62384,WMM1,1427691,false,false,1726,image-keyboard-response,28
true,13,2,1,2,true,d,false,true,0.0-2.0-0.60-0.540-3.540,0,0,0,68,false,stim,false,0,561.9799999997485,0,0,1,62384,WMM1,1429768,false,false,1729,image-keyboard-response,29
true,13,2,1,2,true,d,false,true,0.0-2.0-0.60-0.541-3.541,0,0,0,68,false,stim,false,1,332.84499999997206,0,0,2,62384,WMM1,1431615,false,false,1732,image-keyboard-response,30
true,13,1,1,1,true,z,false,true,0.0-2.0-0.60-0.542-3.542,0,0,0,90,false,stim,false,2,476.58499999996275,0,0,0,62384,WMM1,1433608,false,false,1735,image-keyboard-response,31
true,13,2,1,2,true,d,false,true,0.0-2.0-0.60-0.543-3.543,0,0,0,68,false,stim,false,0,479.45000000018626,0,0,1,62384,WMM1,1435603,false,false,1738,image-keyboard-response,32
true,13,2,1,2,true,d,false,false,0.0-2.0-0.60-0.544-3.544,0,0,0,68,false,stim,false,0,439.06999999983236,0,0,1,62384,WMM1,1437559,false,true,1741,image-keyboard-response,33
true,13,1,1,1,true,z,false,true,0.0-2.0-0.60-0.545-3.545,0,0,0,90,false,stim,false,2,395.3300000000745,0,0,0,62384,WMM1,1439471,false,false,1744,image-keyboard-response,34
true,13,1,1,1,true,z,false,false,0.0-2.0-0.60-0.546-3.546,0,0,0,90,false,stim,false,2,570.8650000002235,0,1,0,62384,WMM1,1441561,false,true,1747,image-keyboard-response,35
true,13,2,1,2,true,d,false,true,0.0-2.0-0.60-0.547-3.547,0,0,0,68,false,stim,false,1,1145.9249999998137,0,1,2,62384,WMM1,1444223,false,false,1750,image-keyboard-response,36
true,13,2,1,2,true,d,false,true,0.0-2.0-0.60-0.548-3.548,0,0,0,68,false,stim,false,1,677.8350000001956,0,1,2,62384,WMM1,1446414,false,false,1753,image-keyboard-response,37
true,13,0,1,2,false,d,false,false,0.0-2.0-0.61-0.549-3.549,0,0,0,81,false,stim,true,0,576.25,0,1,1,62384,WMM1,1448502,false,false,1756,image-keyboard-response,38
true,13,2,1,2,true,d,false,true,0.0-2.0-0.61-0.550-3.550,0,0,0,68,false,stim,false,1,373.6199999998789,0,1,2,62384,WMM1,1450384,false,false,1759,image-keyboard-response,39
true,13,1,1,2,false,d,true,false,0.0-2.0-0.61-0.551-3.551,0,0,0,90,false,stim,false,0,345.4350000000559,0,1,1,62384,WMM1,1452243,false,false,1762,image-keyboard-response,40
true,13,1,1,1,true,z,false,true,0.0-2.0-0.61-0.552-3.552,0,0,0,90,false,stim,false,2,659.7999999998137,0,1,0,62384,WMM1,1454415,false,false,1765,image-keyboard-response,41
true,13,2,1,2,true,d,false,true,0.0-2.0-0.61-0.553-3.553,0,0,0,68,false,stim,false,1,366.01000000024214,0,1,2,62384,WMM1,1456295,false,false,1768,image-keyboard-response,42
true,13,1,1,1,true,z,false,true,0.0-2.0-0.61-0.554-3.554,0,0,0,90,false,stim,false,2,567.8449999999721,0,1,0,62384,WMM1,1458377,false,false,1771,image-keyboard-response,43
true,13,0,1,2,false,d,false,true,0.0-2.0-0.61-0.555-3.555,0,0,0,81,false,stim,true,0,632.8200000000652,0,1,1,62384,WMM1,1460521,false,true,1774,image-keyboard-response,44
true,14,2,0,2,true,d,false,true,0.0-2.0-0.61-0.556-3.556,1,1,1,68,true,stim,false,2,1491.7649999998976,0,1,2,62384,WMM1,1580884,false,false,1894,image-keyboard-response,1
true,14,1,0,1,true,z,false,false,0.0-2.0-0.61-0.557-3.557,1,1,1,90,false,stim,false,1,1909.9299999999348,0,1,0,62384,WMM1,1584308,false,true,1897,image-keyboard-response,2
true,14,2,0,2,true,d,false,true,0.0-2.0-0.62-0.558-3.558,1,1,1,68,false,stim,false,2,648.8950000000186,0,1,2,62384,WMM1,1586469,false,false,1900,image-keyboard-response,3
true,14,2,0,2,true,d,false,true,0.0-2.0-0.62-0.559-3.559,1,1,1,68,false,stim,false,2,535.5199999997858,0,1,2,62384,WMM1,1588526,false,false,1903,image-keyboard-response,4
true,14,0,0,2,false,d,true,false,0.0-2.0-0.62-0.560-3.560,1,1,1,81,false,stim,false,2,875.1099999998696,0,1,1,62384,WMM1,1590910,false,false,1906,image-keyboard-response,5
true,14,2,0,2,true,d,false,true,0.0-2.0-0.62-0.561-3.561,1,1,1,68,false,stim,false,2,336.62499999976717,0,1,2,62384,WMM1,1592756,false,false,1909,image-keyboard-response,6
true,14,1,0,2,false,d,true,false,0.0-2.0-0.62-0.562-3.562,1,1,1,90,false,stim,false,2,335.4549999998417,0,1,1,62384,WMM1,1594609,false,false,1912,image-keyboard-response,7
true,14,2,0,1,false,z,true,false,0.0-2.0-0.62-0.563-3.563,1,1,1,68,false,stim,false,1,857.4050000000279,0,1,0,62384,WMM1,1596981,false,false,1915,image-keyboard-response,8
true,14,2,0,2,true,d,false,true,0.0-2.0-0.62-0.564-3.564,1,1,1,68,false,stim,false,2,875.5849999999627,0,1,1,62384,WMM1,1599367,false,false,1918,image-keyboard-response,9
true,14,2,0,1,false,z,true,false,0.0-2.0-0.62-0.565-3.565,1,1,1,68,false,stim,false,1,663.7050000000745,0,1,0,62384,WMM1,1601541,false,false,1921,image-keyboard-response,10
true,14,0,0,1,false,z,true,false,0.0-2.0-0.62-0.566-3.566,1,1,1,81,false,stim,false,1,556.8149999997113,0,1,0,62384,WMM1,1603610,false,false,1924,image-keyboard-response,11
true,14,2,0,2,true,d,false,true,0.0-2.0-0.63-0.567-3.567,1,1,1,68,false,stim,false,2,510.4949999998789,0,1,2,62384,WMM1,1605632,false,false,1927,image-keyboard-response,12
true,14,2,0,2,true,d,false,true,0.0-2.0-0.63-0.568-3.568,1,1,1,68,false,stim,false,2,268.88500000024214,0,1,1,62384,WMM1,1607409,false,false,1930,image-keyboard-response,13
true,14,1,0,1,true,z,false,false,0.0-2.0-0.63-0.569-3.569,1,1,1,90,false,stim,false,1,322.17500000004657,0,1,0,62384,WMM1,1609247,false,true,1933,image-keyboard-response,14
true,14,0,0,1,false,z,true,false,0.0-2.0-0.63-0.570-3.570,1,1,1,81,false,stim,false,1,845.3699999998789,0,1,0,62384,WMM1,1611607,false,false,1936,image-keyboard-response,15
true,14,2,0,2,true,d,false,true,0.0-2.0-0.63-0.571-3.571,1,1,1,68,false,stim,false,2,413.0400000002701,0,1,2,62384,WMM1,1613535,false,false,1939,image-keyboard-response,16
true,14,2,0,2,true,d,false,true,0.0-2.0-0.63-0.572-3.572,1,1,1,68,false,stim,false,2,538.9350000000559,0,1,1,62384,WMM1,1615589,false,false,1942,image-keyboard-response,17
true,14,2,0,2,true,d,false,true,0.0-2.0-0.63-0.573-3.573,1,1,1,68,false,stim,false,2,434.75499999988824,0,1,1,62384,WMM1,1617537,false,false,1945,image-keyboard-response,18
true,14,2,0,2,true,d,false,true,0.0-2.0-0.63-0.574-3.574,1,1,1,68,false,stim,false,2,398.375,0,1,2,62384,WMM1,1619448,false,false,1948,image-keyboard-response,19
true,14,2,0,1,false,z,true,false,0.0-2.0-0.63-0.575-3.575,1,1,1,68,false,stim,false,1,342.85000000009313,0,1,0,62384,WMM1,1621308,false,false,1951,image-keyboard-response,20
true,14,2,0,2,true,d,false,false,0.0-2.0-0.64-0.576-3.576,1,1,1,68,false,stim,false,2,451.7600000000093,0,1,1,62384,WMM1,1623278,false,true,1954,image-keyboard-response,21
true,14,1,0,1,true,z,false,true,0.0-2.0-0.64-0.577-3.577,1,1,1,90,false,stim,false,1,704.6249999997672,0,1,0,62384,WMM1,1625502,false,false,1957,image-keyboard-response,22
true,14,2,0,2,true,d,false,true,0.0-2.0-0.64-0.578-3.578,1,1,1,68,false,stim,false,2,354.80999999982305,0,1,2,62384,WMM1,1627372,false,false,1960,image-keyboard-response,23
true,14,1,0,1,true,z,false,false,0.0-2.0-0.64-0.579-3.579,1,1,1,90,false,stim,false,1,604.1650000000373,0,1,0,62384,WMM1,1629496,false,true,1963,image-keyboard-response,24
true,14,2,0,2,true,d,false,true,0.0-2.0-0.64-0.580-3.580,1,1,1,68,false,stim,false,2,356.30000000004657,0,0,2,62384,WMM1,1631369,false,false,1966,image-keyboard-response,25
true,14,2,0,2,true,d,false,true,0.0-2.0-0.64-0.581-3.581,1,1,1,68,false,stim,false,2,445.94999999995343,0,0,2,62384,WMM1,1633331,false,false,1969,image-keyboard-response,26
true,14,1,0,1,true,z,false,true,0.0-2.0-0.64-0.582-3.582,1,1,1,90,false,stim,false,1,748.3100000000559,0,0,0,62384,WMM1,1635591,false,false,1972,image-keyboard-response,27
true,14,0,0,2,false,d,true,true,0.0-2.0-0.64-0.583-3.583,1,1,1,81,false,stim,false,2,690.3850000002421,0,1,1,62384,WMM1,1637796,false,true,1975,image-keyboard-response,28
true,14,0,0,2,false,d,true,false,0.0-2.0-0.64-0.584-3.584,1,1,1,81,false,stim,false,2,564.4450000000652,0,1,1,62384,WMM1,1639874,false,false,1978,image-keyboard-response,29
true,14,1,0,2,false,d,true,false,0.0-2.0-0.65-0.585-3.585,1,1,1,90,false,stim,false,2,666.785000000149,0,1,1,62384,WMM1,1642054,false,false,1981,image-keyboard-response,30
true,14,1,0,1,true,z,false,false,0.0-2.0-0.65-0.586-3.586,1,1,1,90,false,stim,false,1,810.6299999998882,0,0,0,62384,WMM1,1644379,false,true,1984,image-keyboard-response,31
